rotationRate_x,rotationRate_y,rotationRate_z,acceleration_x,acceleration_y,acceleration_z,relativeAltitude
-0.696995,-0.709678,0.0836955,-0.0780627,0.0468147,-0.287436,1.78621
-0.661133,-0.862454,-0.00909479,-0.101136,0.0400646,-0.415774,1.78621
-0.649494,-0.721935,-0.10644,-0.114275,0.016969,-0.526836,1.78621
-0.636555,-0.422601,-0.173819,-0.127908,0.0233539,-0.568963,1.78621
-0.603065,-0.110893,-0.268587,-0.147925,0.0310795,-0.539551,1.78621
-0.577124,-0.0604226,-0.4375,-0.145332,0.00171579,-0.438232,1.78621
-0.503906,-0.122284,-0.601865,-0.117902,-0.0205361,-0.357472,1.78621
-0.322258,0.0322289,-0.664756,-0.0744456,-0.00173801,-0.31652,1.78621
-0.10038,0.262862,-0.664716,-0.0482227,0.0282483,-0.241183,1.78621
0.10733,0.420791,-0.617736,-0.023148,0.0399709,-0.124807,1.78621
0.253816,0.338796,-0.557411,-0.0216531,0.061175,0.0023489,1.78621
0.331867,0.0345933,-0.506698,-0.026777,0.0787147,0.0941392,1.78621
0.338176,-0.289668,-0.47928,-0.0378587,0.0885729,0.131492,1.78621
0.294907,-0.403253,-0.460954,-0.0686291,0.105796,0.10483,1.78621
0.302786,-0.352458,-0.475988,-0.114386,0.119257,0.0690506,1.78621
0.357385,-0.16608,-0.54316,-0.130279,0.108746,0.0742122,1.78621
0.363636,0.0465009,-0.623437,-0.111806,0.0920115,0.142081,1.78621
0.304223,0.201122,-0.64989,-0.0745124,0.0749437,0.254189,1.78621
0.229829,0.26212,-0.646079,-0.045389,0.0619954,0.354276,1.78621
0.207178,0.25566,-0.613734,-0.0319747,0.055426,0.419955,1.78621
0.216366,0.143236,-0.606881,-0.0423253,0.0483906,0.466559,1.78621
0.204171,0.011757,-0.690185,-0.0634835,0.0213092,0.47952,1.78621
0.0736414,-0.153581,-0.839828,-0.0472297,-0.0193612,0.476052,1.78621
-0.137789,-0.273803,-0.882729,-0.0110447,-0.0101084,0.432121,1.78621
-0.270424,-0.428887,-0.780749,0.0411569,0.0333027,0.322345,1.78621
-0.209192,-0.56264,-0.656867,0.0382893,0.0397444,0.160775,1.78621
-0.111173,-0.655736,-0.596962,0.0172977,0.025257,0.0202187,1.78621
-0.089637,-0.554499,-0.536626,0.00034757,0.0093115,-0.0928023,1.78621
-0.118369,-0.252035,-0.563998,-0.0541822,-0.00050725,-0.174767,1.78621
-0.194825,0.0589498,-0.621902,-0.0579808,-0.0168543,-0.197385,1.78621
-0.294847,0.136765,-0.564004,0.0101142,-0.0226357,-0.175869,1.78621
-0.274684,0.104885,-0.417494,0.0748975,-0.0309063,-0.200116,1.78621
-0.163931,0.073328,-0.266201,0.101232,-0.0394196,-0.251741,1.78621
-0.157382,0.0210032,-0.17863,0.0958781,-0.0642762,-0.269906,1.78621
-0.282068,-0.0467409,-0.11075,0.0924938,-0.0932983,-0.286532,1.78621
-0.376674,-0.035409,-0.067108,0.0678756,-0.0975707,-0.358486,1.78621
-0.331927,0.154517,-0.0727784,0.0396589,-0.0913285,-0.441337,1.78621
-0.255282,0.407849,-0.110946,0.0336507,-0.0892168,-0.433879,1.78621
-0.243327,0.567838,-0.0740136,0.0650769,-0.0637297,-0.335267,1.78621
-0.109701,0.699425,0.0674141,0.103426,-0.0248503,-0.227403,1.78621
0.193366,0.924643,0.242716,0.11621,0.012206,-0.104507,1.78621
0.46279,1.07741,0.420751,0.147487,0.011143,0.0655985,1.78621
0.459003,0.805399,0.542544,0.163287,-0.0169966,0.243244,1.78621
0.273705,0.218905,0.671692,0.213335,-0.0589427,0.321352,1.78621
0.0974524,-0.173125,0.804393,0.221212,-0.0693256,0.265604,1.78621
0.0273617,-0.29477,0.908484,0.185019,-0.024858,0.138724,1.78621
0.0184764,-0.201403,0.957552,0.142895,-0.00976004,0.0357667,1.78621
0.0666894,-0.00347648,0.936405,0.0968421,-0.0177198,-0.0260535,1.78621
0.150931,0.0347186,0.861104,0.056024,-0.0097699,-0.0387687,1.78621
0.252557,0.00277292,0.823903,0.0617007,0.00128387,-0.0281758,1.78621
0.363619,0.0971178,0.8115,0.0689609,0.0212554,0.00103545,1.78621
0.435463,0.288556,0.799816,0.056883,0.0497253,0.0706531,1.78621
0.435463,0.288556,0.799816,0.056883,0.0497253,0.0706531,0
0.440713,0.380734,0.778902,0.0502608,0.0603879,0.190415,0
0.383781,0.397702,0.732713,0.0491308,0.0673052,0.298429,0
0.282641,0.344601,0.695311,0.0440723,0.0831017,0.359134,0
0.20401,0.335113,0.693304,0.0475424,0.0967745,0.36873,0
0.178872,0.304436,0.728055,0.0616593,0.114716,0.358203,0
0.191455,0.311688,0.749964,0.0597618,0.114541,0.337467,0
0.123446,0.151051,0.7839,0.0735082,0.09599,0.33242,0
-0.06291,-0.12171,0.850485,0.107015,0.0817072,0.293945,0
-0.250366,-0.248673,0.818383,0.0648831,0.0482935,0.171001,0
-0.399566,-0.215905,0.679023,0.0180025,0.0207357,0.0217141,0
-0.519253,-0.136408,0.585468,0.00778419,0.0102107,-0.110879,0
-0.547098,-0.0308837,0.529911,0.00649999,0.00363709,-0.231778,0
-0.486477,-0.0236536,0.533824,0.00542436,0.0110474,-0.319196,0
-0.420125,-0.144169,0.546107,-0.0160542,0.0195013,-0.380166,0
-0.347546,-0.223761,0.510397,-0.0517551,-0.00273572,-0.44865,0
-0.233309,-0.0449347,0.424096,-0.0941909,-0.0169936,-0.50636,0
-0.136392,0.282916,0.363391,-0.123706,-0.00759847,-0.484852,0
-0.149547,0.252248,0.292978,-0.138642,-0.00317381,-0.352975,0
-0.181416,-0.0561977,0.18283,-0.161401,-0.0189612,-0.260139,0
-0.261202,-0.375655,-0.0230451,-0.220668,-0.0151092,-0.217084,0
-0.32724,-0.48732,-0.255447,-0.250197,-0.0136151,-0.233226,0
-0.181096,-0.325058,-0.412691,-0.231545,0.027037,-0.27638,0
0.0772744,0.00519675,-0.485188,-0.20153,0.0914167,-0.241115,0
0.225562,0.353739,-0.484807,-0.187211,0.133651,-0.10809,0
0.211673,0.433789,-0.498695,-0.191469,0.142101,0.0496118,0
0.175047,0.259553,-0.547666,-0.217108,0.136426,0.14916,0
0.193844,-0.0531021,-0.610684,-0.235287,0.137592,0.185664,0
0.233511,-0.321904,-0.676721,-0.256721,0.155732,0.185182,0
0.18379,-0.444145,-0.792926,-0.296575,0.171021,0.181643,0
0.0155702,-0.45505,-0.976521,-0.33442,0.170565,0.189623,0
-0.116529,-0.419727,-1.19851,-0.329543,0.157964,0.179011,0
-0.137546,-0.262348,-1.39753,-0.268838,0.151372,0.168648,0
-0.183381,-0.0896989,-1.47678,-0.194208,0.171893,0.2037,0
-0.205781,0.0180727,-1.42294,-0.125607,0.175948,0.264251,0
-0.169833,-0.0714829,-1.3768,-0.0849083,0.160394,0.315562,0
-0.108059,-0.183735,-1.34538,-0.0600482,0.130042,0.353181,0
-0.103718,-0.244859,-1.37785,-0.0461892,0.0895145,0.38176,0
-0.231757,-0.236595,-1.4951,-0.0330773,0.048144,0.399789,0
-0.507176,-0.238058,-1.59403,0.00193537,0.0302143,0.395583,0
-0.735167,-0.260796,-1.56392,0.0611919,0.0302363,0.339923,0
-0.754986,-0.37226,-1.44625,0.111277,0.0292174,0.234095,0
-0.563937,-0.530594,-1.29384,0.139873,0.0162917,0.109627,0
-0.343815,-0.593491,-1.20991,0.116509,-0.0284884,0.00736493,0
-0.296168,-0.583495,-1.1959,0.106262,-0.0805957,-0.0491145,0
-0.453902,-0.501272,-1.14056,0.134259,-0.111355,-0.0870998,0
-0.649996,-0.36654,-1.01207,0.173869,-0.130869,-0.181302,0
-0.728139,-0.219559,-0.821204,0.198763,-0.133863,-0.301393,0
-0.69979,-0.231594,-0.684285,0.189896,-0.161455,-0.40803,0
-0.608301,-0.264241,-0.622031,0.166858,-0.200745,-0.514016,0
-0.459176,-0.065423,-0.533123,0.176145,-0.211208,-0.604095,0
-0.459176,-0.065423,-0.533123,0.176145,-0.211208,-0.604095,0.0660706
-0.289218,0.366191,-0.357723,0.198433,-0.185598,-0.629398,0.0660706
-0.163116,0.701121,-0.101142,0.225954,-0.168266,-0.555304,0.0660706
-0.0806445,0.714776,0.13243,0.241691,-0.181745,-0.428053,0.0660706
-0.0214047,0.465075,0.311443,0.22436,-0.187403,-0.319197,0.0660706
0.0318143,0.0953357,0.452154,0.203236,-0.172299,-0.258917,0.0660706
0.205859,-0.0352188,0.603997,0.197322,-0.13225,-0.267752,0.0660706
0.49568,0.178843,0.816252,0.209539,-0.0628021,-0.2389,0.0660706
0.730558,0.537171,1.10174,0.242823,-0.00707358,-0.115034,0.0660706
0.75724,0.71416,1.40248,0.240805,0.0301451,0.0657235,0.0660706
0.704469,0.502067,1.67996,0.223766,0.0393256,0.212356,0.0660706
0.713319,0.0577485,1.86735,0.208451,0.0243521,0.272858,0.0660706
0.809753,-0.278649,1.94628,0.173629,0.024772,0.255699,0.0660706
0.911434,-0.332726,1.93241,0.127853,0.0328247,0.212879,0.0660706
0.924949,-0.258184,1.87714,0.120063,0.0462381,0.209985,0.0660706
0.806864,-0.269612,1.83156,0.144289,0.0532316,0.239834,0.0660706
0.672072,-0.290473,1.78905,0.165559,0.0545194,0.225836,0.0660706
0.618504,-0.242904,1.73133,0.170802,0.0644474,0.176188,0.0660706
0.648887,-0.129743,1.63851,0.170818,0.0663719,0.137082,0.0660706
0.696196,-0.00959826,1.52718,0.173052,0.0700355,0.123054,0.0660706
0.684149,0.123308,1.41626,0.18108,0.0853871,0.149617,0.0660706
0.595585,0.237788,1.34239,0.193927,0.112731,0.186002,0.0660706
0.471005,0.362466,1.28213,0.20385,0.133107,0.205855,0.0660706
0.349217,0.431484,1.23995,0.21215,0.140823,0.202759,0.0660706
0.263741,0.440381,1.22448,0.214931,0.14764,0.171067,0.0660706
0.171123,0.368926,1.21641,0.220897,0.142884,0.116449,0.0660706
0.0391441,0.0558773,1.23313,0.218881,0.128598,0.0380713,0.0660706
-0.0122273,-0.26081,1.24028,0.198002,0.112361,-0.105515,0.0660706
-0.00957972,-0.286693,1.1265,0.123498,0.0844114,-0.283461,0.0660706
-0.0600999,-0.151397,0.98523,0.0545392,0.0750056,-0.394364,0.0660706
-0.163741,-0.010303,0.88203,0.0112103,0.073047,-0.435873,0.0660706
-0.312146,0.0896954,0.764277,-0.023537,0.059728,-0.435513,0.0660706
-0.460545,0.225886,0.689026,-0.0465179,0.0423837,-0.436602,0.0660706
-0.478179,0.376646,0.624775,-0.0764694,0.0126898,-0.439956,0.0660706
-0.336974,0.478349,0.579005,-0.0983579,-0.00865261,-0.410832,0.0660706
-0.113517,0.631198,0.545047,-0.123978,-0.0321189,-0.339905,0.0660706
0.0708174,0.775857,0.42702,-0.172635,-0.0425978,-0.20868,0.0660706
0.123839,0.792427,0.26684,-0.195391,-0.0436105,-0.0513816,0.0660706
0.105028,0.642866,0.135555,-0.167551,-0.0376357,0.0583258,0.0660706
0.0767376,0.469045,0.0461687,-0.145236,-0.0231522,0.111543,0.0660706
0.030285,0.215516,0.00955257,-0.127888,0.00538112,0.131667,0.0660706
-0.0126335,-0.123867,0.0467346,-0.102677,0.033754,0.114698,0.0660706
0.0298677,-0.335131,0.0872157,-0.101074,0.0630138,0.0350475,0.0660706
0.120022,-0.337907,0.0513024,-0.145336,0.0998618,-0.0421847,0.0660706
0.228993,-0.158322,-0.00999945,-0.16365,0.120255,-0.0676995,0.0660706
0.339009,0.113489,-0.0394549,-0.150489,0.142708,-0.0249544,0.0660706
0.447865,0.29114,-0.0226718,-0.126445,0.168174,0.0821345,0.0660706
0.50507,0.285868,-0.0205098,-0.116101,0.165872,0.229849,0.0660706
0.485688,0.187034,-0.0259968,-0.0948903,0.14013,0.35511,0.0660706
0.433452,0.0673004,-0.0560499,-0.0751988,0.119904,0.441103,0.0660706
0.34724,-0.0227671,-0.104519,-0.0617855,0.109988,0.49781,0.0660706
0.195252,-0.0950657,-0.156253,-0.0568419,0.104401,0.530632,0.0660706
0.195252,-0.0950657,-0.156253,-0.0568419,0.104401,0.530632,0.129486
-0.0324383,-0.180644,-0.262367,-0.0679167,0.0863355,0.540128,0.129486
-0.268125,-0.268586,-0.428527,-0.0643294,0.0590755,0.505741,0.129486
-0.427988,-0.32404,-0.512444,-0.0148079,0.0645566,0.4299,0.129486
-0.508967,-0.311464,-0.458143,0.0205663,0.0875149,0.341237,0.129486
-0.547026,-0.352944,-0.367296,0.0520286,0.0707824,0.263502,0.129486
-0.568919,-0.389435,-0.29386,0.0597515,0.0226117,0.172429,0.129486
-0.611477,-0.344846,-0.259563,0.0456356,-0.0197712,0.101996,0.129486
-0.717981,-0.305534,-0.246691,0.0524075,-0.0595754,0.0480319,0.129486
-0.788884,-0.236537,-0.132185,0.0919926,-0.0883259,-0.0345445,0.129486
-0.688896,-0.16605,0.0766184,0.108376,-0.116538,-0.153939,0.129486
-0.460841,-0.222666,0.319041,0.101628,-0.148045,-0.214421,0.129486
-0.268594,-0.373576,0.472269,0.0692951,-0.205479,-0.231161,0.129486
-0.26723,-0.449907,0.488984,0.0410028,-0.269592,-0.261222,0.129486
-0.451584,-0.356578,0.383422,0.00943692,-0.329805,-0.305909,0.129486
-0.676588,-0.18207,0.208751,-0.0133784,-0.369748,-0.377098,0.129486
-0.738485,0.109752,0.0735865,-0.00519866,-0.36303,-0.48568,0.129486
-0.570465,0.483735,0.0246758,0.0289963,-0.3117,-0.560346,0.129486
-0.267425,0.772537,0.0801575,0.0959795,-0.261325,-0.532416,0.129486
-0.0203339,0.837909,0.234391,0.158393,-0.195097,-0.379735,0.129486
0.105239,0.555201,0.438022,0.207469,-0.14851,-0.219951,0.129486
0.136019,0.191972,0.598129,0.220625,-0.124541,-0.145031,0.129486
0.205912,0.0657909,0.724589,0.210064,-0.0806267,-0.174787,0.129486
0.428249,0.414062,0.827945,0.188847,-0.0156628,-0.222668,0.129486
0.622005,0.74747,0.994113,0.214146,0.0574702,-0.14968,0.129486
0.692505,0.629553,1.23708,0.252737,0.0933631,-0.0116618,0.129486
0.672582,0.218247,1.40736,0.256999,0.0986346,0.0680988,0.129486
0.666511,-0.241384,1.4777,0.211626,0.106369,0.0426059,0.129486
0.75706,-0.382456,1.38444,0.134907,0.119366,-0.0642079,0.129486
0.80326,-0.169139,1.2217,0.0990959,0.141563,-0.117979,0.129486
0.779685,0.182084,1.15694,0.123631,0.168763,-0.0985605,0.129486
0.753698,0.429288,1.17822,0.150675,0.200115,-0.0281898,0.129486
0.742912,0.501128,1.22872,0.167046,0.201353,0.0537173,0.129486
0.773337,0.571244,1.24584,0.146657,0.183568,0.125403,0.129486
0.793607,0.648851,1.17838,0.108514,0.171306,0.207753,0.129486
0.744639,0.684404,1.11018,0.104603,0.167255,0.303356,0.129486
0.607571,0.619913,1.05789,0.112725,0.170038,0.389748,0.129486
0.373599,0.403488,1.02047,0.135075,0.165492,0.444833,0.129486
0.144072,0.200567,1.0698,0.171717,0.169901,0.438826,0.129486
0.0217822,0.0576496,1.15182,0.180243,0.191027,0.369252,0.129486
0.0401701,0.113129,1.1942,0.154171,0.192005,0.270165,0.129486
0.0483319,0.133521,1.15928,0.11912,0.177236,0.219725,0.129486
-0.0332238,0.159099,1.10978,0.113683,0.14315,0.198733,0.129486
-0.197896,0.119831,1.08629,0.115281,0.127366,0.188822,0.129486
-0.330034,0.115401,1.07578,0.127876,0.113774,0.149094,0.129486
-0.389305,0.168521,1.06817,0.117446,0.0973255,0.101797,0.129486
-0.444433,0.175239,1.03449,0.105341,0.07113,0.0721521,0.129486
-0.512482,0.209203,1.00888,0.0955488,0.0307865,0.0405832,0.129486
-0.553382,0.215673,0.997911,0.0981243,-0.0102413,-0.0199023,0.129486
-0.500424,0.254167,1.01921,0.0818723,-0.0260613,-0.102134,0.129486
-0.395499,0.379727,1.00286,0.0561768,-0.0490335,-0.16857,0.129486
-0.395499,0.379727,1.00286,0.0561768,-0.0490335,-0.16857,0.319733
-0.372215,0.436386,0.994918,0.0552366,-0.081118,-0.167178,0.319733
-0.45749,0.343585,1.03204,0.0674983,-0.102695,-0.155053,0.319733
-0.46854,0.166473,1.09695,0.0620983,-0.126535,-0.223372,0.319733
-0.355755,-0.0122281,1.13183,0.0344331,-0.142251,-0.325514,0.319733
-0.237402,-0.0376981,1.12775,-0.0289865,-0.145291,-0.399679,0.319733
-0.21018,-0.0390915,1.04399,-0.0872427,-0.162673,-0.42356,0.319733
-0.275437,-0.0707377,0.898919,-0.122819,-0.170648,-0.417906,0.319733
-0.444841,-0.197849,0.742494,-0.134163,-0.158401,-0.396413,0.319733
-0.582868,-0.290734,0.605129,-0.136552,-0.140496,-0.416184,0.319733
-0.536499,-0.301102,0.494828,-0.131819,-0.125065,-0.475571,0.319733
-0.314046,-0.190194,0.430009,-0.128846,-0.0924011,-0.50063,0.319733
0.0229996,-0.017617,0.366366,-0.138902,-0.039896,-0.446922,0.319733
0.381898,0.0399412,0.296295,-0.13952,0.0156461,-0.301293,0.319733
0.657519,0.0215537,0.19123,-0.139168,0.0574196,-0.137629,0.319733
0.726132,-0.0241924,0.0492162,-0.158181,0.110373,0.0131469,0.319733
0.573261,-0.0664637,-0.128443,-0.184595,0.146642,0.10532,0.319733
0.295134,-0.226096,-0.323238,-0.216523,0.186389,0.138076,0.319733
0.110207,-0.340178,-0.528293,-0.2535,0.223337,0.0852832,0.319733
0.0582182,-0.27587,-0.758237,-0.291833,0.272284,0.0144694,0.319733
0.0445304,0.0532654,-0.948668,-0.272792,0.306373,0.0136636,0.319733
0.028592,0.426298,-1.03715,-0.198044,0.305808,0.101438,0.319733
0.0205957,0.570863,-1.00222,-0.11563,0.287832,0.238062,0.319733
0.0950166,0.533937,-0.879763,-0.0486471,0.25535,0.346868,0.319733
0.249056,0.309761,-0.72534,-0.0186112,0.221365,0.428484,0.319733
0.419846,0.0298475,-0.625824,-0.0154063,0.183212,0.483771,0.319733
0.484918,-0.226462,-0.609311,-0.0173067,0.138484,0.524195,0.319733
0.321996,-0.453623,-0.659073,-0.00169846,0.0946394,0.559108,0.319733
0.0473658,-0.589975,-0.647483,0.0525888,0.0752335,0.521987,0.319733
-0.144905,-0.538916,-0.558627,0.0851504,0.0752889,0.419671,0.319733
-0.223833,-0.543793,-0.462728,0.101907,0.0590089,0.297663,0.319733
-0.239146,-0.601006,-0.373982,0.118426,0.00816192,0.167723,0.319733
-0.161859,-0.526186,-0.295652,0.124174,-0.0569446,0.0103071,0.319733
-0.0598442,-0.362181,-0.172498,0.141793,-0.0804625,-0.111398,0.319733
-0.0238545,-0.109432,0.00955262,0.169966,-0.109334,-0.19571,0.319733
-0.138381,0.115272,0.149072,0.177195,-0.14966,-0.235217,0.319733
-0.288143,0.269682,0.227496,0.165407,-0.189321,-0.287397,0.319733
-0.321382,0.332684,0.231372,0.131644,-0.205642,-0.37792,0.319733
-0.300646,0.374269,0.225045,0.146405,-0.221543,-0.449551,0.319733
-0.199311,0.555044,0.299289,0.173875,-0.192061,-0.507371,0.319733
-0.0391982,0.900027,0.485224,0.177069,-0.111826,-0.499625,0.319733
0.0586379,0.961115,0.687713,0.186834,-0.0697622,-0.386244,0.319733
0.124164,0.757175,0.875947,0.185977,-0.0565859,-0.281852,0.319733
0.22523,0.601686,1.00022,0.179421,-0.0251255,-0.22848,0.319733
0.409562,0.7404,1.15798,0.169913,0.0284281,-0.195223,0.319733
0.565824,0.954317,1.33578,0.175153,0.0793122,-0.111013,0.319733
0.655982,0.980762,1.55996,0.187441,0.100619,0.00498217,0.319733
0.69413,0.67482,1.7371,0.195713,0.0978663,0.0978482,0.319733
0.758015,0.262044,1.77849,0.165235,0.0721818,0.122971,0.319733
0.769671,-0.0470479,1.64694,0.089267,0.0660508,0.11802,0.319733
0.72156,0.0215907,1.4025,0.022513,0.0780243,0.0846425,0.319733
0.71249,0.338523,1.21518,0.0448988,0.104848,0.0626051,0.319733
0.71249,0.338523,1.21518,0.0448988,0.104848,0.0626051,0.507324
0.691598,0.548387,1.18411,0.104887,0.154442,0.123114,0.507324
0.662267,0.513779,1.26566,0.14728,0.179312,0.210452,0.507324
0.642193,0.21344,1.34265,0.136983,0.206101,0.284217,0.507324
0.620708,0.253699,1.43483,0.155978,0.198281,0.323788,0.507324
0.488068,0.114039,1.43733,0.135933,0.161438,0.362181,0.507324
0.35824,0.0588413,1.32414,0.114797,0.147951,0.354033,0.507324
0.232472,0.127351,1.23595,0.117747,0.151539,0.334606,0.507324
0.067346,0.0497831,1.19791,0.152292,0.139765,0.30143,0.507324
-0.0340826,0.04584,1.17339,0.171712,0.120366,0.226806,0.507324
-0.10375,0.214109,1.18019,0.177283,0.141851,0.133537,0.507324
-0.0870502,0.225841,1.27675,0.178528,0.152366,0.024668,0.507324
0.0286846,0.168472,1.30594,0.153001,0.120516,-0.076182,0.507324
0.0388564,0.0314338,1.24158,0.119683,0.0748519,-0.162812,0.507324
-0.101985,0.125811,1.15317,0.0790835,0.0528182,-0.252515,0.507324
-0.273576,0.353925,1.06316,0.0130822,0.0552938,-0.332631,0.507324
-0.368616,0.477737,0.967294,-0.0252675,0.0394741,-0.381821,0.507324
-0.410047,0.323863,0.877024,-0.0492635,0.00478947,-0.383804,0.507324
-0.379753,0.11489,0.764243,-0.083583,-0.0267704,-0.399956,0.507324
-0.355798,-0.0521983,0.591579,-0.131999,-0.0433645,-0.40692,0.507324
-0.383654,-0.139404,0.428859,-0.153481,-0.0531864,-0.409149,0.507324
-0.425847,-0.0266623,0.299756,-0.17743,-0.0312157,-0.403271,0.507324
-0.442109,0.19524,0.137546,-0.214044,-0.000380993,-0.363407,0.507324
-0.3504,0.332045,-0.0775622,-0.235063,0.00104615,-0.289105,0.507324
-0.193815,0.318699,-0.290693,-0.218876,0.00540115,-0.185359,0.507324
-0.0638342,0.229247,-0.401939,-0.195009,0.0508316,-0.0807507,0.507324
0.0906472,0.111161,-0.407483,-0.180269,0.0973803,-0.0139334,0.507324
0.269118,-0.0297739,-0.36265,-0.188425,0.137202,0.0362485,0.507324
0.360568,-0.279448,-0.38017,-0.228553,0.15661,0.0984982,0.507324
0.28229,-0.479938,-0.529645,-0.275117,0.147313,0.138104,0.507324
0.0671448,-0.558933,-0.777891,-0.308998,0.139157,0.152599,0.507324
-0.177316,-0.498417,-1.05099,-0.315696,0.146545,0.148416,0.507324
-0.355052,-0.332488,-1.25198,-0.2838,0.165575,0.146206,0.507324
-0.422041,-0.133269,-1.32944,-0.212913,0.177633,0.178144,0.507324
-0.400494,-0.0371043,-1.29925,-0.132193,0.173724,0.229386,0.507324
-0.317664,-0.0721864,-1.22797,-0.0656927,0.157085,0.292794,0.507324
-0.185869,-0.226347,-1.13604,-0.0296285,0.147622,0.333422,0.507324
-0.0257378,-0.275726,-1.05859,-0.0318435,0.149094,0.358957,0.507324
0.0680669,-0.298891,-1.02885,-0.0288851,0.14181,0.396512,0.507324
0.0070355,-0.387208,-1.01339,-0.0034065,0.118916,0.448858,0.507324
-0.159817,-0.463887,-0.994814,0.0306993,0.0979877,0.459971,0.507324
-0.378235,-0.393929,-1.0366,0.0299904,0.0618848,0.401899,0.507324
-0.600979,-0.476479,-1.1103,0.0357231,0.0229292,0.313321,0.507324
-0.677526,-0.597263,-1.12805,0.0583679,-0.0112323,0.150949,0.507324
-0.599958,-0.743511,-1.11328,0.0780284,-0.0253211,-0.0180244,0.507324
-0.494587,-0.747865,-1.0515,0.112955,-0.04306,-0.150726,0.507324
-0.464935,-0.596057,-0.882197,0.159498,-0.0505717,-0.229068,0.507324
-0.458263,-0.294109,-0.686994,0.164499,-0.0692553,-0.297756,0.507324
-0.402878,0.0600646,-0.568682,0.115862,-0.0968312,-0.354232,0.507324
-0.360225,0.162751,-0.538274,0.0978199,-0.147545,-0.36131,0.507324
-0.358234,0.176431,-0.498137,0.127942,-0.186014,-0.36884,0.507324
-0.318122,0.309243,-0.368858,0.150066,-0.180675,-0.404346,0.507324
-0.193621,0.553291,-0.220627,0.146763,-0.172854,-0.428206,0.507324
-0.0625199,0.754793,-0.109291,0.140068,-0.178118,-0.382576,0.507324
-0.0272649,0.739653,-0.0350155,0.126393,-0.189821,-0.27031,0.507324
-0.11475,0.457586,-0.0396916,0.119376,-0.203878,-0.172838,0.507324
-0.204068,0.124585,-0.0295309,0.144986,-0.19664,-0.157325,0.507324
-0.0652324,0.221262,0.0704142,0.149833,-0.125779,-0.222549,0.507324
0.225361,0.653529,0.286439,0.185179,-0.0355294,-0.206487,0.507324
0.433056,1.02062,0.614989,0.225073,0.0145899,-0.0848159,0.507324
0.52987,0.867698,0.967402,0.234499,0.0324293,0.0845381,0.507324
0.601969,0.309072,1.25418,0.246224,0.00545159,0.181718,0.507324
0.670426,-0.261588,1.42827,0.209626,-0.00401515,0.178841,0.507324
0.727784,-0.433547,1.4456,0.109072,0.0151825,0.0806078,0.507324
0.73031,-0.273616,1.35502,0.043943,0.0218289,0.00835812,0.507324
0.653469,-0.037001,1.22689,0.0125412,0.0401538,-0.00609696,0.507324
0.61108,0.209244,1.11165,-0.0065534,0.0695212,0.0154961,0.507324
0.626619,0.372751,1.01819,-0.00500619,0.0994033,0.0769116,0.507324
0.651049,0.443814,0.939204,0.000142984,0.119682,0.17185,0.507324
0.627038,0.366435,0.881488,0.00237791,0.143006,0.277393,0.507324
0.582341,0.260755,0.836974,0.0116195,0.153238,0.341397,0.507324
0.492873,0.229718,0.769531,0.0170675,0.16652,0.379821,0.507324
0.292263,0.278202,0.698642,0.0228561,0.173267,0.410127,0.507324
0.0232624,0.29607,0.622608,0.0349478,0.169261,0.418448,0.507324
-0.164543,0.215022,0.608095,0.0732794,0.162703,0.384761,0.507324
-0.231403,0.133979,0.650227,0.0945107,0.178346,0.332197,0.507324
-0.231403,0.133979,0.650227,0.0945107,0.178346,0.332197,0.745148
-0.329497,0.00467762,0.662778,0.082845,0.177183,0.289902,0.745148
-0.481429,-0.0427537,0.623268,0.0811905,0.128095,0.225013,0.745148
-0.667653,-0.0616168,0.571622,0.090048,0.10127,0.139419,0.745148
-0.789414,-0.0128236,0.576269,0.102287,0.0921352,0.0240361,0.745148
-0.84975,0.0551937,0.611423,0.104502,0.0873557,-0.084392,0.745148
-0.846019,0.205067,0.64825,0.10256,0.0579871,-0.190852,0.745148
-0.78702,0.313744,0.713321,0.0991169,0.0237414,-0.251134,0.745148
-0.707574,0.339781,0.790612,0.0869177,-0.00939794,-0.290066,0.745148
-0.66769,0.231959,0.836537,0.0653561,-0.0610379,-0.328378,0.745148
-0.658552,0.0967924,0.849779,0.0379273,-0.121287,-0.392452,0.745148
-0.623577,-0.0193526,0.849908,0.00350304,-0.1657,-0.478909,0.745148
-0.518985,-0.0690212,0.839352,-0.0444593,-0.199759,-0.553301,0.745148
-0.383766,-0.185681,0.74464,-0.101777,-0.23086,-0.588052,0.745148
-0.280265,-0.301689,0.549552,-0.163227,-0.250891,-0.590417,0.745148
-0.221392,-0.239594,0.291416,-0.211986,-0.239529,-0.585757,0.745148
-0.152109,-0.00349667,0.0220043,-0.230786,-0.196203,-0.560007,0.745148
0.0282836,0.382585,-0.161812,-0.221093,-0.115803,-0.500519,0.745148
0.321415,0.750368,-0.209794,-0.174458,-0.0232423,-0.361032,0.745148
0.619122,0.901774,-0.144649,-0.147748,0.0621236,-0.152753,0.745148
0.880586,0.690687,-0.059134,-0.153405,0.11469,0.0562804,0.745148
1.04158,0.0652558,0.000392528,-0.160182,0.151267,0.226581,0.745148
1.04903,-0.611966,-0.01405,-0.178605,0.17346,0.316942,0.745148
0.881922,-1.00699,-0.149907,-0.228692,0.196839,0.315368,0.745148
0.729608,-1.04524,-0.356759,-0.248011,0.207176,0.259843,0.745148
0.631817,-0.794836,-0.569553,-0.206937,0.223117,0.220895,0.745148
0.459648,-0.353312,-0.680402,-0.146687,0.253661,0.250284,0.745148
0.257051,0.0663351,-0.689736,-0.0897434,0.257964,0.312143,0.745148
0.189613,0.175316,-0.615763,-0.0298771,0.247212,0.382811,0.745148
0.227399,0.0343859,-0.536347,0.00476505,0.233701,0.451061,0.745148
0.279574,-0.153099,-0.472043,0.00995396,0.213862,0.503608,0.745148
0.255719,-0.314776,-0.443891,0.0156525,0.194506,0.546738,0.745148
0.150032,-0.403344,-0.46772,0.02301,0.173641,0.566408,0.745148
-0.0848678,-0.435081,-0.502385,0.0446647,0.150477,0.574767,0.745148
-0.443985,-0.489567,-0.476737,0.0943411,0.130205,0.565793,0.745148
-0.799737,-0.618829,-0.427793,0.11383,0.104965,0.500574,0.745148
-1.01304,-0.7298,-0.461622,0.110401,0.0554864,0.354024,0.745148
-1.10762,-0.732843,-0.536286,0.116939,-0.00070411,0.175526,0.745148
-1.26412,-0.710315,-0.562189,0.137266,-0.0391177,0.00833118,0.745148
-1.4797,-0.666297,-0.431768,0.170074,-0.0670879,-0.162999,0.745148
-1.41992,-0.391309,-0.140316,0.189346,-0.106337,-0.41541,0.745148
-0.931438,0.0120069,0.141319,0.151436,-0.144511,-0.635055,0.745148
-0.41132,0.238869,0.34438,0.110413,-0.204225,-0.666121,0.745148
-0.229609,0.2156,0.487062,0.0830179,-0.280065,-0.570865,0.745148
-0.230665,0.161099,0.472694,0.0227289,-0.351111,-0.536116,0.745148
-0.279177,0.245081,0.33006,-0.0326589,-0.386299,-0.546835,0.745148
-0.310468,0.448746,0.183484,-0.0505304,-0.374187,-0.567005,0.745148
-0.223508,0.687723,0.11657,-0.0151076,-0.321892,-0.564195,0.745148
-0.0659593,0.781976,0.2126,0.0670343,-0.242249,-0.483431,0.745148
0.0535091,0.634552,0.423773,0.140873,-0.171217,-0.359043,0.745148
0.180743,0.370401,0.64481,0.169467,-0.126676,-0.269412,0.745148
0.398015,0.240838,0.842167,0.158214,-0.0874148,-0.227017,0.745148
0.693756,0.268229,1.03273,0.137741,-0.0298567,-0.151556,0.745148
1.00167,0.431173,1.23573,0.133665,0.0287285,-0.0464007,0.745148
1.14335,0.410434,1.39736,0.135097,0.0673394,0.105056,0.745148
1.14335,0.410434,1.39736,0.135097,0.0673394,0.105056,0.832336
1.08491,0.0749577,1.5129,0.148268,0.0687355,0.226729,0.832336
0.959433,-0.286221,1.53814,0.145295,0.0531533,0.23901,0.832336
0.907016,-0.335721,1.4539,0.106532,0.0568768,0.160424,0.832336
0.9212,-0.171685,1.31219,0.0803997,0.0736884,0.0982309,0.832336
0.959769,0.00218391,1.17815,0.0852729,0.0950633,0.0924469,0.832336
0.978875,0.0677646,1.1138,0.123084,0.135366,0.14065,0.832336
0.969229,0.0824401,1.11056,0.158895,0.164933,0.190547,0.832336
0.95824,0.0754185,1.1049,0.165069,0.178519,0.233008,0.832336
0.967311,0.127308,1.06675,0.162209,0.184194,0.262118,0.832336
0.885547,0.189981,0.976745,0.153988,0.189814,0.316789,0.832336
0.692952,0.244769,0.886236,0.161121,0.189038,0.363941,0.832336
0.464582,0.261565,0.821213,0.18063,0.196661,0.376219,0.832336
0.255095,0.291266,0.793276,0.201281,0.203177,0.353554,0.832336
0.0923577,0.284151,0.811591,0.223143,0.203559,0.310169,0.832336
-0.0675487,0.247806,0.855401,0.244158,0.193657,0.258016,0.832336
-0.239728,0.232842,0.879723,0.2456,0.169201,0.197622,0.832336
-0.379239,0.255778,0.883198,0.239643,0.142015,0.128946,0.832336
-0.474373,0.323766,0.886157,0.226066,0.123432,0.0573075,0.832336
-0.517409,0.43378,0.942639,0.230743,0.110507,-0.00495654,0.832336
-0.499422,0.566754,1.04517,0.235144,0.10024,-0.0421019,0.832336
-0.480654,0.626082,1.17454,0.229811,0.084277,-0.0337726,0.832336
-0.473897,0.591825,1.28957,0.203725,0.0382193,-0.0157144,0.832336
-0.445649,0.587539,1.33437,0.149312,-0.0230049,-0.0140713,0.832336
-0.479299,0.578445,1.301,0.0910094,-0.0637138,-0.00129479,0.832336
-0.560447,0.525477,1.27331,0.069853,-0.0984395,-0.0032028,0.832336
-0.567271,0.463239,1.27423,0.0416279,-0.115862,-0.0502191,0.832336
-0.411851,0.377453,1.26904,0.00655428,-0.1294,-0.136966,0.832336
-0.183553,0.263404,1.27031,-0.0113294,-0.134519,-0.201449,0.832336
0.0240273,0.16636,1.27709,-0.0218392,-0.124465,-0.245475,0.832336
0.10911,0.177108,1.26912,-0.0668033,-0.113367,-0.275786,0.832336
0.108668,0.18284,1.22978,-0.137345,-0.106037,-0.311324,0.832336
0.101412,0.0718131,1.06261,-0.231577,-0.116147,-0.349429,0.832336
0.103866,-0.0229972,0.743774,-0.303507,-0.155179,-0.373754,0.832336
0.150824,0.0123267,0.391453,-0.337805,-0.185179,-0.384173,0.832336
0.269986,0.158371,0.126685,-0.331312,-0.132937,-0.351264,0.832336
0.400831,0.26276,-0.00307587,-0.294351,-0.0488189,-0.251961,0.832336
0.507016,0.262772,-0.114763,-0.281125,0.0076791,-0.133545,0.832336
0.591844,0.155015,-0.249633,-0.27686,0.064283,-0.0142998,0.832336
0.643036,0.0431874,-0.341877,-0.247521,0.123158,0.0807737,0.832336
0.658765,-0.0379515,-0.357036,-0.21929,0.187063,0.159999,0.832336
0.5837,-0.146819,-0.349888,-0.197788,0.238749,0.246415,0.832336
0.35986,-0.321215,-0.382118,-0.182393,0.251148,0.327772,0.832336
0.0457711,-0.487853,-0.459898,-0.162718,0.232757,0.35456,0.832336
-0.222312,-0.517378,-0.572211,-0.13359,0.208923,0.323202,0.832336
-0.350576,-0.497997,-0.62356,-0.0787003,0.201231,0.266339,0.832336
-0.373237,-0.447162,-0.593132,-0.0277236,0.207367,0.22764,0.832336
-0.354627,-0.391897,-0.525219,0.00701082,0.202991,0.197946,0.832336
-0.347992,-0.378121,-0.424099,0.0368031,0.186981,0.180539,0.832336
-0.381512,-0.334404,-0.312606,0.0681021,0.138468,0.179469,0.832336
-0.45365,-0.316865,-0.263783,0.0728722,0.0775171,0.192018,0.832336
-0.574809,-0.265677,-0.249088,0.0830202,0.0154896,0.194485,0.832336
-0.68307,-0.303807,-0.195037,0.105329,-0.0469586,0.158853,0.832336
-0.648061,-0.306043,-0.127642,0.128671,-0.113426,0.0599638,0.832336
-0.552308,-0.225262,-0.0712684,0.120435,-0.155671,-0.0262199,0.832336
-0.552308,-0.225262,-0.0712684,0.120435,-0.155671,-0.0262199,1.11243
-0.574667,-0.111589,-0.00623734,0.131777,-0.196541,-0.0643579,1.11243
-0.654216,0.0506669,0.0233757,0.118802,-0.231848,-0.128165,1.11243
-0.666557,0.203068,0.030285,0.121818,-0.262253,-0.2144,1.11243
-0.588786,0.203965,0.127545,0.155511,-0.268007,-0.30695,1.11243
-0.384203,-0.0118887,0.338084,0.207678,-0.235901,-0.410821,1.11243
-0.0398522,-0.144169,0.627726,0.236114,-0.20233,-0.54533,1.11243
0.226304,-0.0654881,0.854614,0.204142,-0.182598,-0.621602,1.11243
0.344646,0.166261,0.978337,0.160857,-0.180992,-0.613889,1.11243
0.325044,0.392735,1.00028,0.137014,-0.173397,-0.550715,1.11243
0.288274,0.533197,1.06126,0.148814,-0.149741,-0.478727,1.11243
0.320952,0.596659,1.15223,0.151746,-0.0950766,-0.422995,1.11243
0.439395,0.516522,1.28032,0.145416,-0.0255404,-0.365913,1.11243
0.71735,0.422571,1.43188,0.141459,0.0350329,-0.295156,1.11243
1.08914,0.387609,1.62252,0.145698,0.105491,-0.191412,1.11243
1.39691,0.443327,1.82838,0.146052,0.172485,-0.0660509,1.11243
1.49722,0.412858,1.96051,0.129366,0.205554,0.0742205,1.11243
1.3731,0.192499,1.95034,0.0979828,0.186667,0.185813,1.11243
1.14468,-0.0347142,1.79311,0.0598024,0.141527,0.207177,1.11243
0.923495,-0.0778332,1.52718,0.0361637,0.125371,0.161202,1.11243
0.762447,0.0498675,1.23924,0.0438322,0.128201,0.09576,1.11243
0.684402,0.263113,1.05568,0.0879256,0.162477,0.0667833,1.11243
0.674635,0.400538,0.988892,0.138953,0.208523,0.0938358,1.11243
0.684643,0.449429,0.967492,0.170065,0.227574,0.158504,1.11243
0.655782,0.438972,0.97423,0.184519,0.239283,0.240046,1.11243
0.594336,0.434825,0.96611,0.159469,0.250042,0.308333,1.11243
0.493182,0.416911,0.89451,0.132336,0.246972,0.365501,1.11243
0.356584,0.361627,0.784006,0.116782,0.235035,0.396741,1.11243
0.195625,0.284037,0.694592,0.129302,0.22983,0.401997,1.11243
0.0625977,0.2113,0.697123,0.163348,0.245169,0.361803,1.11243
-0.0525205,0.116177,0.762657,0.19036,0.271302,0.30792,1.11243
-0.203685,0.123799,0.804625,0.180631,0.268132,0.237332,1.11243
-0.397145,0.155955,0.779262,0.161759,0.235877,0.153737,1.11243
-0.551278,0.115823,0.717704,0.150988,0.201988,0.050868,1.11243
-0.600624,0.0795676,0.688894,0.129512,0.188495,-0.0846741,1.11243
-0.564978,0.168575,0.758693,0.138835,0.194531,-0.203251,1.11243
-0.514,0.400822,0.932138,0.122211,0.204642,-0.272655,1.11243
-0.534331,0.517109,1.03388,0.0443064,0.164359,-0.272107,1.11243
-0.61374,0.50812,0.981159,-0.0472177,0.0625827,-0.264892,1.11243
-0.722063,0.332294,0.831618,-0.111272,-0.000719965,-0.271489,1.11243
-0.7497,0.0991037,0.735029,-0.125561,-0.0261573,-0.327111,1.11243
-0.693262,0.0705461,0.731015,-0.141435,-0.0332172,-0.406951,1.11243
-0.658033,0.0528446,0.752136,-0.173588,-0.0599833,-0.452363,1.11243
-0.601383,-0.0308413,0.668968,-0.234887,-0.10105,-0.476048,1.11243
-0.517635,-0.162865,0.402322,-0.310701,-0.130834,-0.492011,1.11243
-0.418683,-0.193301,0.0283496,-0.326584,-0.164984,-0.483433,1.11243
-0.283314,0.0396665,-0.280738,-0.285187,-0.138662,-0.458793,1.11243
-0.0724838,0.382452,-0.411125,-0.220498,-0.0670189,-0.378699,1.11243
0.176928,0.569172,-0.407848,-0.179676,0.000688434,-0.2365,1.11243
0.427913,0.491808,-0.396536,-0.178488,0.0334217,-0.0668671,1.11243
0.607322,0.115177,-0.443854,-0.190181,0.0564724,0.0959342,1.11243
0.648331,-0.355988,-0.541932,-0.197253,0.0812154,0.207338,1.11243
0.512926,-0.610928,-0.679946,-0.189948,0.104323,0.25158,1.11243
0.252588,-0.657175,-0.828284,-0.175036,0.134901,0.260678,1.11243
0.0517051,-0.559487,-0.926298,-0.150749,0.162139,0.223671,1.11243
0.0517051,-0.559487,-0.926298,-0.150749,0.162139,0.223671,1.35815
0.00765108,-0.408078,-0.966756,-0.120303,0.190813,0.196914,1.35815
0.0752738,-0.311918,-0.980771,-0.0755993,0.196352,0.200759,1.35815
0.180495,-0.261048,-0.955394,-0.0274668,0.195063,0.24517,1.35815
0.257747,-0.238744,-0.927854,0.0121872,0.189699,0.314614,1.35815
0.264275,-0.248108,-0.871894,0.0478835,0.190683,0.397643,1.35815
0.18433,-0.318573,-0.816631,0.0803662,0.184832,0.469282,1.35815
0.0691367,-0.374494,-0.772022,0.105805,0.164631,0.508767,1.35815
-0.0787558,-0.455275,-0.759506,0.120352,0.146723,0.526257,1.35815
-0.26199,-0.581759,-0.770602,0.132045,0.12797,0.515897,1.35815
-0.567401,-0.598521,-0.798012,0.139561,0.10496,0.455804,1.35815
-0.845536,-0.649962,-0.739819,0.166376,0.0898531,0.331788,1.35815
-0.96477,-0.682671,-0.61201,0.172476,0.0599348,0.161964,1.35815
-1.01203,-0.710715,-0.575591,0.120238,0.0108279,-0.0235232,1.35815
-0.964556,-0.531666,-0.657197,0.0740328,-0.0757747,-0.208004,1.35815
-0.824428,-0.0752186,-0.768507,0.0471644,-0.125453,-0.35002,1.35815
-0.789965,0.341959,-0.712589,0.0758494,-0.117557,-0.350122,1.35815
-0.721275,0.51997,-0.435516,0.126091,-0.138119,-0.317845,1.35815
-0.435625,0.506891,-0.193401,0.111679,-0.189209,-0.314941,1.35815
-0.0774571,0.452914,-0.0613708,0.0551431,-0.23924,-0.296909,1.35815
0.113423,0.337054,0.000633458,0.016901,-0.269809,-0.243478,1.35815
0.119378,0.239488,0.0148087,-0.00684783,-0.285223,-0.209773,1.35815
0.0164744,0.140395,-0.0277311,-0.0284708,-0.290062,-0.232073,1.35815
0.0166094,0.201923,-0.128195,-0.0526845,-0.287169,-0.343825,1.35815
0.114155,0.423855,-0.207174,-0.0310216,-0.247128,-0.438436,1.35815
0.172334,0.610803,-0.194991,0.0151023,-0.185948,-0.436537,1.35815
0.158551,0.574086,-0.134674,0.060792,-0.14499,-0.385255,1.35815
0.0896884,0.391462,-0.0649228,0.0924963,-0.12599,-0.35104,1.35815
0.0464328,0.333073,-0.00743856,0.100661,-0.107077,-0.361885,1.35815
0.10941,0.566899,0.0845242,0.109482,-0.069626,-0.354437,1.35815
0.335619,0.936845,0.24219,0.122262,-0.0111192,-0.283402,1.35815
0.610595,1.15497,0.469195,0.139311,0.0432928,-0.128207,1.35815
0.81441,1.10685,0.746839,0.169728,0.0632592,0.0715602,1.35815
0.878358,0.741315,1.00815,0.18203,0.0785452,0.231688,1.35815
0.815598,0.22658,1.23438,0.182182,0.0719992,0.303864,1.35815
0.697031,-0.095865,1.28266,0.116578,0.0524693,0.28647,1.35815
0.528951,-0.183646,1.16216,0.0339745,0.0435099,0.213764,1.35815
0.399058,-0.0812391,0.97684,0.00943922,0.0372491,0.131883,1.35815
0.351959,0.142194,0.803561,0.0100159,0.0543665,0.0677047,1.35815
0.370399,0.346247,0.718399,0.0387503,0.0912951,0.0652151,1.35815
0.447697,0.505977,0.764443,0.0790712,0.134905,0.114276,1.35815
0.52599,0.566215,0.849487,0.0855559,0.169904,0.207204,1.35815
0.534629,0.502053,0.879872,0.0616893,0.176955,0.323694,1.35815
0.435449,0.386885,0.847591,0.0403408,0.165849,0.414186,1.35815
0.249387,0.261701,0.795252,0.0360928,0.161725,0.456157,1.35815
0.0704051,0.167543,0.741913,0.0303257,0.165763,0.433348,1.35815
-0.0340331,0.0916843,0.720251,0.0581057,0.161902,0.36197,1.35815
-0.0928305,0.0256272,0.768929,0.0954984,0.160837,0.280277,1.35815
-0.160401,-0.0873006,0.872231,0.1098,0.151198,0.200886,1.35815
-0.215399,-0.207712,0.931387,0.076004,0.120352,0.103666,1.35815
-0.240246,-0.327985,0.8743,0.0169004,0.0708303,-0.0214336,1.35815
-0.249423,-0.265165,0.705112,-0.0373262,0.0226082,-0.153661,1.35815
-0.330779,0.0232143,0.576011,-0.0537645,0.0262806,-0.229287,1.35815
-0.492759,0.295779,0.54748,-0.043632,0.0420904,-0.23752,1.35815
-0.587348,0.27635,0.534124,-0.0424328,0.0126922,-0.238098,1.35815
-0.587348,0.27635,0.534124,-0.0424328,0.0126922,-0.238098,1.60126
-0.564791,0.0674996,0.451383,-0.0621765,-0.0369005,-0.278676,1.60126
-0.50031,-0.0701685,0.359031,-0.0765581,-0.0589085,-0.329664,1.60126
-0.476963,-0.170868,0.341681,-0.072678,-0.0503085,-0.350976,1.60126
-0.459489,-0.209246,0.328278,-0.0768294,-0.0555936,-0.374208,1.60126
-0.473218,-0.289254,0.271811,-0.101908,-0.0592197,-0.369092,1.60126
-0.54927,-0.44339,0.130103,-0.151082,-0.0713275,-0.347693,1.60126
-0.544437,-0.486445,-0.0617505,-0.184893,-0.0803994,-0.370394,1.60126
-0.430361,-0.244446,-0.274253,-0.211193,-0.0560024,-0.391161,1.60126
-0.253272,0.153477,-0.425107,-0.204649,-0.0183174,-0.326121,1.60126
-0.10656,0.401926,-0.516213,-0.173351,0.029808,-0.173105,1.60126
-0.0385103,0.453828,-0.520835,-0.140679,0.0689684,-0.00665951,1.60126
0.00993238,0.200099,-0.488274,-0.130765,0.0895689,0.121087,1.60126
0.0993305,-0.211204,-0.447072,-0.136934,0.102604,0.172194,1.60126
0.222755,-0.526569,-0.451184,-0.168844,0.121845,0.171358,1.60126
0.282043,-0.551565,-0.559515,-0.202812,0.119961,0.162982,1.60126
0.201894,-0.344156,-0.675293,-0.206195,0.115353,0.200449,1.60126
0.0844238,-0.113969,-0.800432,-0.191778,0.108991,0.26359,1.60126
0.0430849,0.00385724,-0.876828,-0.141129,0.0953076,0.310257,1.60126
0.0666338,-0.0618896,-0.928313,-0.0987015,0.0863032,0.365084,1.60126
0.0816082,-0.192431,-0.946362,-0.0670909,0.0859506,0.410363,1.60126
0.0677182,-0.32985,-0.950799,-0.0378589,0.0890215,0.430891,1.60126
0.0177782,-0.388147,-0.969543,-0.0306186,0.094918,0.42052,1.60126
-0.0845299,-0.366431,-0.971104,-0.0065048,0.106026,0.392729,1.60126
-0.228818,-0.347513,-0.942332,0.0259778,0.101674,0.361746,1.60126
-0.359688,-0.515729,-0.889906,0.0484838,0.0839106,0.310986,1.60126
-0.34497,-0.674686,-0.801367,0.0709739,0.0595859,0.187646,1.60126
-0.29336,-0.732706,-0.763628,0.0428625,0.0410468,0.0711838,1.60126
-0.368169,-0.659339,-0.696719,0.0462832,-0.00372593,-0.0140026,1.60126
-0.507528,-0.478999,-0.65111,0.0393584,-0.0516681,-0.100154,1.60126
-0.557507,-0.160725,-0.647163,0.0163433,-0.0843854,-0.211104,1.60126
-0.558586,-0.00176667,-0.598293,0.0241991,-0.101816,-0.273724,1.60126
-0.486306,-0.00898577,-0.491306,0.0357308,-0.121761,-0.322533,1.60126
-0.291937,0.0107978,-0.406937,0.0414501,-0.156591,-0.38418,1.60126
-0.0993749,0.110164,-0.33598,0.0257889,-0.166444,-0.403032,1.60126
-0.049702,0.202468,-0.295201,0.024518,-0.183603,-0.368062,1.60126
-0.104859,0.311563,-0.299179,0.0180546,-0.20468,-0.333758,1.60126
-0.139132,0.463721,-0.330057,0.0281487,-0.21103,-0.32388,1.60126
-0.109703,0.595752,-0.30725,0.0525405,-0.180952,-0.310021,1.60126
-0.0379038,0.611009,-0.202513,0.0934058,-0.139906,-0.270736,1.60126
0.0363965,0.475684,-0.0371941,0.135776,-0.105475,-0.220062,1.60126
0.128308,0.296739,0.118062,0.129908,-0.0793731,-0.191958,1.60126
0.231665,0.232885,0.200292,0.098454,-0.0577156,-0.194148,1.60126
0.373831,0.375661,0.270549,0.084891,-0.0322931,-0.164248,1.60126
0.506981,0.571977,0.436375,0.10292,0.025289,-0.0771862,1.60126
0.551489,0.523623,0.606509,0.122455,0.0421028,0.0454608,1.60126
0.507411,0.246112,0.710703,0.12059,0.0273982,0.148166,1.60126
0.43285,0.0186896,0.701653,0.0757699,0.0127477,0.181657,1.60126
0.362362,0.0509572,0.603225,0.0277016,0.00731051,0.162681,1.60126
0.305082,0.179111,0.464794,0.00716053,0.0239828,0.162189,1.60126
0.311722,0.299092,0.37684,0.0277149,0.0468185,0.183534,1.60126
0.336139,0.340445,0.390189,0.0638998,0.0804633,0.23464,1.60126
0.362645,0.248406,0.412963,0.0780112,0.0979412,0.299869,1.60126
0.402824,0.0545496,0.467023,0.101285,0.10368,0.335919,1.60126
0.432184,-0.0824713,0.490202,0.0913039,0.117961,0.346316,1.60126
0.432184,-0.0824713,0.490202,0.0913039,0.117961,0.346316,1.81792
0.419913,-0.0841237,0.441074,0.0598875,0.119169,0.331026,1.81792
0.329231,0.0659885,0.359653,0.0621764,0.108455,0.321475,1.81792
0.144807,0.0906005,0.373703,0.101292,0.120195,0.328904,1.81792
-0.0380555,-0.0335262,0.434519,0.132901,0.128264,0.309189,1.81792
-0.171206,-0.181943,0.477144,0.141981,0.10485,0.234234,1.81792
-0.249596,-0.16948,0.45309,0.119025,0.0656562,0.130268,1.81792
-0.282004,-0.106335,0.37147,0.0628982,0.0443273,0.0176882,1.81792
-0.333998,-0.0190437,0.280894,0.045477,0.0163692,-0.0700663,1.81792
-0.403964,0.0770494,0.216785,0.0601529,0.00478187,-0.142601,1.81792
-0.462959,0.24129,0.257429,0.101703,0.0197655,-0.189078,1.81792
-0.495709,0.349354,0.381157,0.117185,0.0332819,-0.205574,1.81792
-0.472369,0.305133,0.499183,0.0953715,0.0185226,-0.207552,1.81792
-0.400711,0.185084,0.538647,0.0625831,-0.0186875,-0.222021,1.81792
-0.344761,0.0412958,0.496419,0.017642,-0.0488407,-0.239831,1.81792
-0.380514,-0.0416032,0.462812,0.0117544,-0.0546884,-0.245834,1.81792
-0.496887,-0.103237,0.476097,0.00973327,-0.0365551,-0.246823,1.81792
-0.52773,-0.242516,0.512076,0.0120182,-0.0247631,-0.281561,1.81792
-0.386865,-0.343198,0.562551,-0.00279143,-0.01599,-0.342603,1.81792
-0.176967,-0.291791,0.584614,-0.0509018,-0.0044768,-0.357488,1.81792
-0.0965778,-0.233612,0.514456,-0.103015,-0.00619113,-0.296132,1.81792
-0.168669,-0.206346,0.348188,-0.148715,-0.0451399,-0.221911,1.81792
-0.284054,-0.166202,0.0994034,-0.173697,-0.0547526,-0.197044,1.81792
-0.273334,0.0246544,-0.0717601,-0.174115,-0.0324019,-0.22563,1.81792
-0.10678,0.285821,-0.146432,-0.158847,0.00931455,-0.218514,1.81792
0.0930995,0.435903,-0.165413,-0.142573,0.040959,-0.138786,1.81792
0.264876,0.36939,-0.125404,-0.140749,0.0572345,-0.0238313,1.81792
0.385949,0.17618,-0.12832,-0.152925,0.0580401,0.0807214,1.81792
0.395989,-0.0487765,-0.213897,-0.178474,0.0469221,0.163006,1.81792
0.326981,-0.168789,-0.340714,-0.19851,0.0382766,0.210244,1.81792
0.255965,-0.179313,-0.476998,-0.184827,0.0431486,0.232257,1.81792
0.240159,-0.140364,-0.55813,-0.142109,0.0603876,0.25361,1.81792
0.257682,-0.103973,-0.578672,-0.0862213,0.0776402,0.290132,1.81792
0.246955,-0.0412052,-0.564596,-0.0469078,0.0842523,0.341052,1.81792
0.231494,-0.065343,-0.537221,-0.0242485,0.0827828,0.377714,1.81792
0.252218,-0.114248,-0.513621,-0.0171548,0.0794552,0.387535,1.81792
0.237531,-0.188488,-0.493126,-0.0219297,0.0826024,0.391735,1.81792
0.188783,-0.254291,-0.465397,-0.0267414,0.075238,0.377582,1.81792
0.114195,-0.303195,-0.459109,-0.0256336,0.0629809,0.350941,1.81792
-0.0629882,-0.402495,-0.490933,-0.0266621,0.0431216,0.319533,1.81792
-0.291376,-0.465267,-0.512636,-0.0111755,0.0192668,0.247921,1.81792
-0.477073,-0.525094,-0.480974,0.00946695,0.00596043,0.154569,1.81792
-0.529267,-0.583539,-0.388618,0.0122911,-0.00131731,0.0430425,1.81792
-0.475359,-0.506633,-0.339306,-0.0181681,-0.0357488,-0.0694973,1.81792
-0.350733,-0.294643,-0.357525,-0.0401642,-0.0836115,-0.162479,1.81792
-0.203465,-0.058728,-0.382842,-0.0473325,-0.108623,-0.192957,1.81792
-0.142602,-0.0244105,-0.317988,0.0106162,-0.109816,-0.134302,1.81792
-0.150358,-0.025016,-0.16834,0.056591,-0.109816,-0.0834903,1.81792
-0.198123,0.0342247,-0.0591681,0.0604796,-0.131165,-0.071593,1.81792
-0.319242,0.0568651,-0.0384462,0.0418768,-0.174693,-0.0738538,1.81792
-0.380835,-0.0445955,-0.0517073,0.0455657,-0.21206,-0.119812,1.81792
-0.310109,-0.172756,-0.0635976,0.068131,-0.213869,-0.216504,1.81792
-0.197511,-0.191308,-0.0307765,0.0979016,-0.199646,-0.31455,1.81792
-0.126901,0.0421564,0.0512446,0.126467,-0.179664,-0.387819,1.81792
-0.126901,0.0421564,0.0512446,0.126467,-0.179664,-0.387819,2.05045
-0.108281,0.412523,0.135949,0.136976,-0.165874,-0.415187,2.05045
-0.153476,0.525287,0.210452,0.132479,-0.150335,-0.3509,2.05045
-0.217186,0.258875,0.213218,0.116425,-0.142439,-0.288363,2.05045
-0.237587,-0.136998,0.123118,0.0936402,-0.147324,-0.318847,2.05045
-0.145987,-0.166621,0.0864222,0.108613,-0.0978707,-0.426207,2.05045
0.074303,0.131056,0.199585,0.149233,-0.0102854,-0.444616,2.05045
0.396839,0.687762,0.427029,0.207527,0.0646038,-0.363208,2.05045
0.528752,1.04492,0.614705,0.216886,0.0900827,-0.136883,2.05045
0.455978,0.862816,0.75707,0.212249,0.0690439,0.0880097,2.05045
0.39607,0.361754,0.811164,0.209748,0.044846,0.185878,2.05045
0.412925,0.0444047,0.79099,0.17798,0.0577828,0.162905,2.05045
0.438192,0.117161,0.777917,0.147679,0.100821,0.0972449,2.05045
0.48547,0.410644,0.820025,0.135992,0.142175,0.0759208,2.05045
0.543977,0.599405,0.859563,0.128436,0.164207,0.13758,2.05045
0.573639,0.563117,0.922292,0.135614,0.169402,0.233708,2.05045
0.61602,0.446955,1.00366,0.138813,0.172273,0.282734,2.05045
0.675892,0.367287,1.09149,0.128025,0.177977,0.304726,2.05045
0.706786,0.269935,1.18422,0.141645,0.172147,0.324052,2.05045
0.691333,0.297765,1.2578,0.135836,0.172987,0.325919,2.05045
0.605264,0.351032,1.27545,0.110432,0.167109,0.33085,2.05045
0.468857,0.294007,1.27677,0.129593,0.145618,0.335298,2.05045
0.369472,0.174581,1.30131,0.154959,0.126744,0.304044,2.05045
0.291911,0.000194983,1.3298,0.168286,0.11633,0.265149,2.05045
0.155819,-0.139112,1.34106,0.167458,0.0964302,0.22167,2.05045
-0.00798083,-0.132989,1.32192,0.148834,0.0826288,0.149651,2.05045
-0.1332,-0.13374,1.28617,0.128583,0.0744951,0.065999,2.05045
-0.132287,-0.0967403,1.25477,0.124666,0.0578719,-0.0267945,2.05045
-0.0821104,-0.000604387,1.22162,0.114627,0.0528411,-0.0823286,2.05045
-0.0295131,0.129352,1.20632,0.108853,0.0379838,-0.0765955,2.05045
-0.0144784,0.221606,1.17498,0.0896792,0.015184,-0.0419145,2.05045
-0.0349283,0.309835,1.11862,0.0786852,-0.0150653,0.00406891,2.05045
-0.094152,0.318559,1.05471,0.0712582,-0.0359601,0.0543776,2.05045
-0.133766,0.24833,0.980917,0.0783769,-0.056913,0.0795785,2.05045
-0.157049,0.115513,0.93849,0.0973605,-0.0660719,0.0813488,2.05045
-0.125948,0.016816,0.956586,0.118287,-0.0640825,0.0405128,2.05045
-0.00962705,-0.0407315,1.01923,0.127426,-0.0519387,-0.017019,2.05045
0.0750771,-0.116974,1.06295,0.107885,-0.0445597,-0.0502505,2.05045
0.0535063,-0.250355,1.05649,0.0848418,-0.0529116,-0.070615,2.05045
-0.0248896,-0.147257,1.00922,0.0680586,-0.071822,-0.144366,2.05045
-0.136529,0.166292,0.914349,0.0502798,-0.0873086,-0.229388,2.05045
-0.190703,0.40138,0.829625,0.00237227,-0.0806127,-0.252627,2.05045
-0.119261,0.371155,0.655119,-0.028172,-0.0662035,-0.225501,2.05045
-0.159828,0.193374,0.473935,-0.0184055,-0.105057,-0.20757,2.05045
-0.142692,0.325068,0.364819,-0.0291112,-0.0739379,-0.193442,2.05045
-0.0378914,0.553065,0.34404,-0.0198578,-0.0309549,-0.157387,2.05045
