rotationRate_x,rotationRate_y,rotationRate_z,acceleration_x,acceleration_y,acceleration_z,relativeAltitude
0.0843201,-0.0825901,-0.551047,0.00561644,0.119818,0.28877,0
-0.152534,-0.118646,-0.502027,0.033179,0.0412924,0.281041,0
-0.408406,-0.159081,-0.465137,0.0362348,-0.0221833,0.206253,0
-0.408406,-0.159081,-0.465137,0.0362348,-0.0221833,0.206253,0.0264282
-0.522842,-0.134216,-0.444026,0.0488662,-0.0535717,0.0879307,0.0264282
-0.476411,-0.144817,-0.352055,0.0734984,-0.0800547,-0.0198604,0.0264282
-0.350658,-0.244727,-0.294234,0.0576665,-0.105996,-0.112217,0.0264282
-0.247474,-0.316182,-0.28683,0.0391931,-0.123802,-0.188217,0.0264282
-0.244518,-0.280539,-0.303619,0.0163556,-0.141783,-0.246448,0.0264282
-0.338576,-0.101022,-0.349184,-0.0102196,-0.137514,-0.310633,0.0264282
-0.421546,0.128637,-0.338561,-0.00431389,-0.10332,-0.360384,0.0264282
-0.376645,0.341527,-0.241208,0.00615485,-0.0744104,-0.394481,0.0264282
-0.236739,0.443765,-0.119645,-0.016725,-0.0444593,-0.377462,0.0264282
-0.0368473,0.468345,-0.0770298,-0.0511645,-0.0062421,-0.293085,0.0264282
0.120915,0.308307,-0.0786883,-0.0311003,0.0402178,-0.14598,0.0264282
0.164019,-0.0346378,-0.0526228,0.0215455,0.100141,0.00871986,0.0264282
0.091657,-0.267608,0.0306216,0.0670168,0.171117,0.128454,0.0264282
-0.0866596,-0.216315,0.197346,0.107148,0.238406,0.225552,0.0264282
-0.304085,0.0457176,0.400694,0.130081,0.268588,0.303281,0.0264282
-0.473254,0.257613,0.574676,0.133705,0.263904,0.355258,0.0264282
-0.665685,0.302949,0.682728,0.144711,0.24788,0.401643,0.0264282
-0.969519,0.150985,0.776428,0.161452,0.229084,0.425492,0.0264282
-1.301,-0.134156,0.837844,0.156222,0.197209,0.349846,0.0264282
-1.45671,-0.263112,0.841694,0.128732,0.175777,0.189447,0.0264282
-1.32779,-0.220248,0.879397,0.124042,0.167128,0.035369,0.0264282
-1.0487,0.0270709,0.947744,0.126435,0.142956,-0.0352343,0.0264282
-0.851569,0.367064,1.01263,0.156388,0.104219,-0.00591761,0.0264282
-0.92669,0.681298,1.04957,0.156885,0.048461,0.0593766,0.0264282
-1.11604,0.892258,1.05766,0.136234,-0.0205306,0.0788446,0.0264282
-1.16721,0.939876,1.0033,0.0961174,-0.0646981,0.0476691,0.0264282
-0.999251,0.836797,0.919163,0.0735165,-0.0926978,0.00122869,0.0264282
-0.729267,0.708358,0.837507,0.091978,-0.124681,-0.0181599,0.0264282
-0.560693,0.4607,0.769017,0.121687,-0.14785,-0.0143532,0.0264282
-0.559637,0.23651,0.737568,0.141523,-0.152821,-0.0251417,0.0264282
-0.590459,0.161036,0.795839,0.136287,-0.140938,-0.0839516,0.0264282
-0.486729,0.268654,0.824007,0.0965393,-0.143707,-0.168674,0.0264282
-0.338984,0.425728,0.763816,0.0760198,-0.167749,-0.23799,0.0264282
-0.229971,0.474506,0.676195,0.0489716,-0.160156,-0.285042,0.0264282
-0.199342,0.39258,0.592383,0.0174718,-0.125145,-0.31981,0.0264282
-0.195648,0.308128,0.495671,-0.019886,-0.0927546,-0.363587,0.0264282
-0.18133,0.335484,0.401864,-0.0318073,-0.0733812,-0.425281,0.0264282
-0.0919786,0.419407,0.382212,-0.0407785,-0.0590257,-0.468246,0.0264282
0.0587587,0.404695,0.388624,-0.0785266,-0.0357768,-0.469616,0.0264282
0.18164,0.229088,0.376901,-0.11334,-0.0215774,-0.442359,0.0264282
0.205796,-0.0474052,0.312994,-0.145476,-0.0284469,-0.419293,0.0264282
0.218669,-0.284978,0.204576,-0.14925,-0.0547743,-0.424801,0.0264282
0.350406,-0.37466,0.137784,-0.14488,-0.0550527,-0.445137,0.0264282
0.480127,-0.29614,0.0438872,-0.158227,-0.0347731,-0.401134,0.0264282
0.487878,-0.208632,-0.0871977,-0.164482,-0.0366985,-0.313306,0.0264282
0.453944,-0.096351,-0.261378,-0.176147,-0.043352,-0.238673,0.0264282
0.529607,-0.0159723,-0.399746,-0.153388,-0.0151279,-0.18508,0.0264282
0.766813,0.0089851,-0.400122,-0.120537,0.0448366,-0.130796,0.0264282
1.11001,0.00739966,-0.29535,-0.124608,0.10977,-0.0360025,0.0264282
1.36672,-0.054991,-0.208978,-0.151325,0.162228,0.107002,0.0264282
1.36719,-0.2519,-0.218621,-0.181412,0.178359,0.263565,0.0264282
1.36719,-0.2519,-0.218621,-0.181412,0.178359,0.263565,0.0528564
1.11738,-0.482065,-0.368042,-0.206507,0.171874,0.368454,0.0528564
0.691912,-0.511232,-0.631418,-0.222408,0.169643,0.409873,0.0528564
0.277307,-0.358237,-0.861903,-0.201303,0.191847,0.392735,0.0528564
0.0739316,-0.185118,-0.955868,-0.135838,0.238982,0.349609,0.0528564
0.095458,-0.0931375,-0.883863,-0.0676945,0.277111,0.335991,0.0528564
0.201209,-0.13799,-0.708816,-0.0273563,0.286729,0.373335,0.0528564
0.276859,-0.283871,-0.544423,-0.00895311,0.279413,0.418173,0.0528564
0.201397,-0.492687,-0.425695,-0.0176902,0.268738,0.466959,0.0528564
-0.00700973,-0.590488,-0.410162,-0.0502089,0.239234,0.459296,0.0528564
-0.17606,-0.520314,-0.465849,-0.0638369,0.20718,0.402051,0.0528564
-0.297306,-0.403577,-0.530722,-0.0522726,0.19702,0.361885,0.0528564
-0.433553,-0.325704,-0.54723,-0.0231722,0.17208,0.313165,0.0528564
-0.548434,-0.231352,-0.531509,0.0229744,0.122468,0.251984,0.0528564
-0.677852,-0.301163,-0.537205,0.0647871,0.082737,0.207085,0.0528564
-0.866225,-0.426189,-0.50845,0.0853307,0.0565496,0.14245,0.0528564
-1.02129,-0.39866,-0.433825,0.0796308,0.0146534,0.0222269,0.0528564
-1.00413,-0.22327,-0.355235,0.0643929,-0.0321449,-0.126293,0.0528564
-0.924348,0.00199814,-0.321526,0.0685062,-0.0967376,-0.205456,0.0528564
-0.867913,0.155974,-0.317291,0.053564,-0.162171,-0.24276,0.0528564
-0.801207,0.235137,-0.326829,0.0495144,-0.198854,-0.262536,0.0528564
-0.666474,0.19883,-0.286511,0.0495709,-0.224351,-0.295795,0.0528564
-0.474366,0.180617,-0.259509,0.0540437,-0.245744,-0.334029,0.0528564
-0.32209,0.219158,-0.214985,0.0601924,-0.251427,-0.374883,0.0528564
-0.206369,0.237079,-0.162508,0.0366437,-0.239945,-0.424311,0.0528564
-0.193587,0.277057,-0.161733,0.00722731,-0.2412,-0.461716,0.0528564
-0.338939,0.310974,-0.247294,-0.0092825,-0.25472,-0.483509,0.0528564
-0.486252,0.351319,-0.30606,0.0151888,-0.244034,-0.524124,0.0528564
-0.441542,0.442089,-0.28157,0.0456785,-0.201104,-0.561035,0.0528564
-0.225009,0.556998,-0.137008,0.0998393,-0.146767,-0.53427,0.0528564
0.132452,0.709517,0.179746,0.158628,-0.0872776,-0.430852,0.0528564
0.54119,0.791857,0.551253,0.144207,-0.0207094,-0.240916,0.0528564
0.838687,0.665316,0.905755,0.112173,0.00629597,-0.00802684,0.0528564
1.00312,0.406187,1.17954,0.0638106,0.0116794,0.196492,0.0528564
1.02263,0.0081728,1.35578,0.0384644,-0.00248785,0.341483,0.0528564
0.965448,-0.393031,1.42326,0.0166289,-0.0138558,0.413243,0.0528564
0.83958,-0.688798,1.41318,-0.00388494,-0.0104299,0.428535,0.0528564
0.736625,-0.754638,1.34852,-0.0160244,-0.0012252,0.406432,0.0528564
0.616486,-0.62303,1.2242,-0.00626454,0.00354081,0.401312,0.0528564
0.393575,-0.412441,1.07209,0.00233819,0.0108385,0.415489,0.0528564
0.147997,-0.188984,0.943693,0.0372251,0.00740165,0.412374,0.0528564
-0.0271907,-0.0478507,0.838334,0.0778178,0.00355145,0.369671,0.0528564
0.0181871,-0.0352968,0.803718,0.114283,0.0253887,0.279336,0.0528564
0.252547,-0.210233,0.856454,0.155493,0.0647931,0.227782,0.0528564
0.43628,-0.461337,0.927573,0.194447,0.0772006,0.216962,0.0528564
0.410495,-0.51011,0.951041,0.202914,0.0760375,0.196276,0.0528564
0.220128,-0.351676,0.856655,0.167901,0.0679975,0.136099,0.0528564
-0.0113923,-0.197678,0.641479,0.147392,0.055609,0.0472349,0.0528564
-0.133874,-0.176362,0.430584,0.160195,0.0543293,0.000110924,0.0528564
-0.118467,-0.0939933,0.35329,0.203649,0.0910794,-0.0908576,0.0528564
-0.0866955,0.142119,0.3528,0.234436,0.143255,-0.150312,0.0528564
-0.0866955,0.142119,0.3528,0.234436,0.143255,-0.150312,0.171753
-0.0849368,0.464747,0.385257,0.242111,0.174183,-0.157227,0.171753
-0.139561,0.694731,0.384862,0.22292,0.187342,-0.116064,0.171753
-0.250779,0.858092,0.364014,0.184099,0.194813,-0.055912,0.171753
-0.3878,0.925764,0.353386,0.152031,0.210001,-0.000703931,0.171753
-0.540628,0.996386,0.362268,0.133141,0.220348,0.0288385,0.171753
-0.707882,0.954011,0.42463,0.129198,0.225203,0.0348096,0.171753
-0.838551,0.894887,0.492742,0.111377,0.213827,-0.0025872,0.171753
-0.888893,0.685877,0.562226,0.10109,0.192089,-0.0813088,0.171753
-0.906488,0.432605,0.681479,0.0831081,0.195348,-0.180494,0.171753
-0.917058,0.256981,0.868025,0.0629144,0.187292,-0.273176,0.171753
-0.88526,0.119383,1.00352,0.0186949,0.142791,-0.3615,0.171753
-0.795817,0.0719046,1.00721,-0.0772911,0.0780578,-0.434413,0.171753
-0.769492,0.0937516,0.891156,-0.167548,0.00101342,-0.45573,0.171753
-0.872479,0.245877,0.669351,-0.2291,-0.0901835,-0.431419,0.171753
-1.05612,0.270613,0.391953,-0.249079,-0.196187,-0.386489,0.171753
-1.06453,0.0902151,0.15375,-0.216209,-0.275292,-0.377891,0.171753
-0.679068,0.0273739,0.0612638,-0.157286,-0.30443,-0.455322,0.171753
-0.0998638,0.138643,0.102122,-0.12097,-0.257525,-0.491736,0.171753
0.372161,0.214069,0.210095,-0.103048,-0.195532,-0.378504,0.171753
0.585062,0.0206459,0.297974,-0.0906667,-0.168311,-0.183234,0.171753
0.626461,-0.383385,0.339142,-0.0876884,-0.143491,-0.0179079,0.171753
0.728879,-0.69611,0.329099,-0.104057,-0.120179,0.0311694,0.171753
1.01161,-0.814667,0.291763,-0.130238,-0.0807997,0.00232744,0.171753
1.29271,-0.746698,0.241301,-0.139389,-0.0183626,0.0146603,0.171753
1.39612,-0.595571,0.21193,-0.121357,0.0417213,0.112421,0.171753
1.31795,-0.431067,0.115701,-0.113843,0.0738703,0.24617,0.171753
1.08366,-0.264553,-0.0453001,-0.115153,0.0842732,0.365853,0.171753
0.765266,-0.159679,-0.228359,-0.108972,0.0899245,0.448744,0.171753
0.532034,-0.182023,-0.345708,-0.0766389,0.098838,0.472922,0.171753
0.479412,-0.287173,-0.401847,-0.0149404,0.112962,0.436834,0.171753
0.513439,-0.407069,-0.361149,0.05447,0.143516,0.38973,0.171753
0.482933,-0.407797,-0.291927,0.110401,0.160881,0.358299,0.171753
0.270103,-0.383766,-0.256555,0.13999,0.156205,0.373717,0.171753
-0.0298157,-0.291459,-0.30202,0.143474,0.122323,0.360842,0.171753
-0.33481,-0.151615,-0.359121,0.142645,0.0878866,0.30758,0.171753
-0.543476,-0.0298594,-0.36489,0.148437,0.0624476,0.228741,0.171753
-0.545572,0.139408,-0.281846,0.148768,0.0545046,0.102105,0.171753
-0.506146,0.231001,-0.160805,0.157684,0.0521325,0.0264856,0.171753
-0.536682,0.310273,-0.0473573,0.148463,0.0312022,0.0129753,0.171753
-0.530446,0.327113,0.0857244,0.133376,-0.0057141,0.0182473,0.171753
-0.373256,0.235406,0.235393,0.118521,-0.0313175,0.0130896,0.171753
-0.20332,0.234494,0.330717,0.088935,-0.0554328,0.0310954,0.171753
-0.24097,0.234818,0.392519,0.0533646,-0.0932091,0.110092,0.171753
-0.324533,0.239452,0.429243,0.0186346,-0.130612,0.168374,0.171753
-0.3695,0.247438,0.406327,-0.0174065,-0.156056,0.170519,0.171753
-0.486922,0.247278,0.359411,-0.0216531,-0.18962,0.172608,0.171753
-0.689739,0.101938,0.337885,0.0210507,-0.238075,0.178495,0.171753
-0.807593,-0.232482,0.345439,0.0850799,-0.273783,0.110981,0.171753
-0.807775,-0.556252,0.407627,0.128369,-0.269034,-0.0533665,0.171753
-0.815304,-0.646919,0.547503,0.181422,-0.246328,-0.234757,0.171753
-0.855142,-0.51863,0.636191,0.215651,-0.239873,-0.427364,0.171753
-0.855142,-0.51863,0.636191,0.215651,-0.239873,-0.427364,0.309158
-0.902267,-0.202046,0.555101,0.174704,-0.256234,-0.620626,0.309158
-0.869866,0.184468,0.502499,0.17173,-0.270949,-0.761227,0.309158
-0.67325,0.516766,0.642588,0.242169,-0.222788,-0.824781,0.309158
-0.388402,0.721417,0.944975,0.282684,-0.141565,-0.784157,0.309158
-0.0507505,0.770626,1.25106,0.283371,-0.0998636,-0.662709,0.309158
0.32066,0.767603,1.48466,0.249024,-0.0833756,-0.502556,0.309158
0.638513,0.730392,1.66214,0.191366,-0.0525494,-0.310784,0.309158
0.86646,0.685078,1.85383,0.156699,0.00457787,-0.0984441,0.309158
0.939469,0.614098,2.02638,0.116683,0.0747787,0.0948195,0.309158
0.873607,0.431368,2.16379,0.0886599,0.112971,0.247469,0.309158
0.7418,0.074972,2.21738,0.0616959,0.134181,0.332068,0.309158
0.638045,-0.273024,2.20394,0.0499138,0.140294,0.334651,0.309158
0.613211,-0.5318,2.12717,0.0654337,0.151731,0.263813,0.309158
0.662884,-0.571535,2.08681,0.0942518,0.184632,0.159684,0.309158
0.752222,-0.481026,2.0959,0.157762,0.21645,0.0648627,0.309158
0.817519,-0.333805,2.1139,0.21551,0.242651,0.0234309,0.309158
0.814927,-0.178738,2.14158,0.254232,0.251079,0.0250983,0.309158
0.803556,-0.0787255,2.16739,0.281243,0.262705,0.0458773,0.309158
0.782033,-0.000936775,2.13617,0.276144,0.262833,0.0608338,0.309158
0.732016,0.0275497,2.04721,0.25477,0.249597,0.0779717,0.309158
0.732349,0.0370724,1.93489,0.244043,0.242419,0.0876536,0.309158
0.728327,0.169652,1.78879,0.23953,0.238679,0.081015,0.309158
0.66026,0.422016,1.64039,0.226103,0.246617,0.0904018,0.309158
0.500888,0.653817,1.52612,0.217319,0.265874,0.132922,0.309158
0.324013,0.757519,1.47135,0.223284,0.281254,0.18095,0.309158
0.147538,0.720656,1.44241,0.233538,0.2783,0.211838,0.309158
0.00245517,0.685444,1.44296,0.228091,0.265199,0.211167,0.309158
-0.117508,0.682602,1.40361,0.191407,0.241752,0.175661,0.309158
-0.184002,0.69572,1.29723,0.157342,0.197453,0.120333,0.309158
-0.194909,0.688312,1.18133,0.147596,0.15252,0.0620865,0.309158
-0.181394,0.746728,1.1175,0.148293,0.127907,0.00445223,0.309158
-0.206762,0.775721,1.18839,0.158089,0.129232,-0.016691,0.309158
-0.209214,0.824227,1.24433,0.13598,0.115455,-0.0336652,0.309158
-0.18569,0.843776,1.19782,0.0766875,0.0721589,-0.042241,0.309158
-0.163424,0.805791,1.0928,0.0341843,0.0223102,-0.0325196,0.309158
-0.126579,0.786039,1.04004,0.0295329,0.00391877,-0.0265815,0.309158
-0.0472085,0.790135,1.09764,0.0685765,-0.00107685,-0.0197455,0.309158
-0.00923919,0.7936,1.1663,0.105402,-0.00659102,0.00125641,0.309158
-0.100149,0.731043,1.23889,0.104158,0.00232756,0.0547088,0.309158
-0.255233,0.615671,1.28558,0.0804652,-0.0102369,0.0917089,0.309158
-0.43098,0.347532,1.28304,0.0372054,-0.0268607,0.0963089,0.309158
-0.461217,0.0672643,1.26142,0.0249611,-0.0635918,0.0133156,0.309158
-0.361143,0.0910085,1.27801,-0.00731286,-0.0608719,-0.127267,0.309158
-0.274052,0.292867,1.28664,-0.0625121,-0.0410267,-0.212104,0.309158
-0.266653,0.384028,1.16394,-0.130044,-0.0436943,-0.214234,0.309158
-0.397179,0.335484,0.974984,-0.15424,-0.0751199,-0.155338,0.309158
-0.563212,0.203722,0.833434,-0.128002,-0.0755621,-0.118631,0.309158
-0.651672,0.153426,0.774951,-0.110175,-0.0415286,-0.146077,0.309158
-0.511604,0.198751,0.84075,-0.0768758,-0.00424668,-0.214211,0.309158
-0.12729,0.208477,1.0366,-0.0363096,0.0359273,-0.245277,0.309158
0.292501,0.155873,1.25993,-0.0202176,0.0822835,-0.190878,0.309158
0.535313,-0.0511021,1.421,-0.0440973,0.106068,-0.0573376,0.309158
0.517834,-0.411822,1.4337,-0.098952,0.11513,0.090353,0.309158
0.372073,-0.695115,1.26557,-0.144275,0.0990421,0.155293,0.309158
0.284783,-0.708713,0.963753,-0.193752,0.0982299,0.104926,0.309158
0.221025,-0.590747,0.66482,-0.21057,0.120442,0.0321195,0.309158
0.174707,-0.477982,0.464874,-0.157134,0.145845,0.012252,0.309158
0.1252,-0.383513,0.360462,-0.0742084,0.168142,0.034169,0.309158
0.0527888,-0.285914,0.316775,-0.0158167,0.180378,0.0806042,0.309158
-0.132687,-0.212521,0.275106,0.0389785,0.160589,0.151289,0.309158
-0.32085,-0.0665941,0.211256,0.0710273,0.127,0.19035,0.309158
-0.416382,0.0461984,0.184165,0.0938326,0.099352,0.180509,0.309158
-0.421562,0.123021,0.275155,0.149401,0.101582,0.165905,0.309158
-0.435636,0.176302,0.433878,0.183107,0.101926,0.1705,0.309158
-0.554311,0.22484,0.536577,0.176794,0.0663324,0.196716,0.309158
-0.687612,0.205873,0.540184,0.142834,-0.0101709,0.197755,0.309158
-0.741426,0.0724322,0.519845,0.13054,-0.0804439,0.154304,0.309158
-0.704179,-0.158791,0.660065,0.151992,-0.105858,0.0981627,0.309158
-0.601561,-0.243167,0.951689,0.179151,-0.112609,0.0264975,0.309158
-0.439037,-0.135591,1.12917,0.141985,-0.146273,-0.0565531,0.309158
-0.330702,0.0958111,1.13884,0.07131,-0.214511,-0.108405,0.309158
-0.286243,0.140244,1.06993,0.0362831,-0.259023,-0.117641,0.309158
-0.209823,0.0133919,0.979529,0.0270953,-0.272942,-0.13161,0.309158
-0.0819716,-0.147056,0.921199,0.0559981,-0.266098,-0.168995,0.309158
0.0300866,-0.151027,0.95057,0.0920552,-0.228807,-0.211505,0.309158
0.101861,0.0293741,1.00869,0.123414,-0.18737,-0.243541,0.309158
0.101861,0.0293741,1.00869,0.123414,-0.18737,-0.243541,0.462402
0.137791,0.241409,1.02031,0.133501,-0.170159,-0.258366,0.462402
0.0954692,0.299667,0.980219,0.133217,-0.153121,-0.23688,0.462402
0.0203114,0.332788,0.965534,0.149323,-0.123927,-0.222439,0.462402
-0.00128231,0.494524,0.987534,0.173062,-0.082409,-0.258031,0.462402
-0.030826,0.699949,1.04155,0.189427,-0.0473923,-0.278635,0.462402
-0.087376,0.773372,1.10204,0.212463,-0.0338378,-0.258976,0.462402
-0.147971,0.740474,1.1763,0.228317,-0.0267507,-0.237717,0.462402
-0.15233,0.610028,1.3078,0.241172,-0.00352593,-0.224459,0.462402
0.00679104,0.355704,1.5299,0.261301,0.0355373,-0.223681,0.462402
0.395985,0.244955,1.81863,0.285237,0.0800748,-0.230884,0.462402
0.722225,0.288344,2.10706,0.291174,0.125042,-0.179828,0.462402
0.754579,0.342702,2.36253,0.285711,0.165976,-0.0626795,0.462402
0.607056,0.159495,2.52147,0.266084,0.162348,0.0288327,0.462402
0.499957,-0.132275,2.52355,0.231231,0.127809,0.015107,0.462402
0.592143,-0.378889,2.44422,0.190804,0.117849,-0.0917546,0.462402
0.826148,-0.419666,2.33574,0.162338,0.158989,-0.201486,0.462402
1.0426,-0.102629,2.20182,0.160435,0.189569,-0.237051,0.462402
1.07159,0.360715,2.0342,0.141544,0.214984,-0.156423,0.462402
0.938763,0.642685,1.90436,0.129024,0.237003,0.0266399,0.462402
0.771225,0.642026,1.80028,0.134285,0.237604,0.201313,0.462402
0.644258,0.485088,1.70663,0.131252,0.236789,0.316589,0.462402
0.541221,0.279636,1.60562,0.129029,0.235505,0.380425,0.462402
0.435367,0.120243,1.47487,0.124567,0.226096,0.412082,0.462402
0.325454,-0.00228899,1.31784,0.113457,0.213044,0.417212,0.462402
0.167818,0.00627826,1.16591,0.116203,0.217281,0.398913,0.462402
-0.0434328,0.103363,1.09568,0.154701,0.238291,0.366914,0.462402
-0.220861,0.364353,1.06465,0.168301,0.248199,0.289981,0.462402
-0.484969,0.496245,1.06329,0.18044,0.25001,0.235179,0.462402
-0.694201,0.444182,1.10027,0.202332,0.234397,0.181663,0.462402
-0.750795,0.295978,1.04745,0.186143,0.215475,0.0490956,0.462402
-0.764028,0.30204,0.944278,0.126762,0.207219,-0.0993248,0.462402
-0.78448,0.504776,0.860576,0.107086,0.180676,-0.208595,0.462402
-0.842238,0.73907,0.825798,0.10375,0.166316,-0.256793,0.462402
-0.910422,0.897571,0.869118,0.100246,0.144426,-0.260511,0.462402
-0.959407,0.899171,0.898232,0.0769696,0.1027,-0.2655,0.462402
-0.982025,0.676023,0.883708,0.0264763,0.0483057,-0.278783,0.462402
-0.895107,0.391761,0.828049,-0.0257925,-0.00882056,-0.34155,0.462402
-0.745782,0.196718,0.690724,-0.106488,-0.0462596,-0.433193,0.462402
-0.66596,0.120552,0.442032,-0.178256,-0.0770482,-0.495774,0.462402
-0.718069,0.149665,0.127087,-0.222039,-0.114307,-0.518337,0.462402
-0.735544,0.268451,-0.11537,-0.245632,-0.123614,-0.54618,0.462402
-0.474028,0.418314,-0.286837,-0.261118,-0.102493,-0.610467,0.462402
0.0169849,0.500817,-0.355592,-0.235259,-0.0774371,-0.626306,0.462402
0.501017,0.608858,-0.298523,-0.199995,-0.0208113,-0.5375,0.462402
0.77958,0.659731,-0.222512,-0.224807,0.052999,-0.352445,0.462402
0.894556,0.536443,-0.176588,-0.274485,0.10305,-0.143445,0.462402
0.986731,0.254004,-0.204648,-0.322675,0.120533,0.0150985,0.462402
1.09391,-0.0558116,-0.303835,-0.360438,0.132712,0.117409,0.462402
1.15349,-0.242401,-0.441086,-0.376252,0.1438,0.196381,0.462402
1.12386,-0.324189,-0.589528,-0.376871,0.160326,0.275356,0.462402
1.00208,-0.430568,-0.777273,-0.370705,0.169404,0.363446,0.462402
0.871656,-0.511588,-0.997675,-0.361414,0.174391,0.421322,0.462402
0.741124,-0.61364,-1.18557,-0.326587,0.191183,0.457758,0.462402
0.741124,-0.61364,-1.18557,-0.326587,0.191183,0.457758,0.512619
0.64528,-0.651829,-1.30985,-0.270276,0.227364,0.460672,0.512619
0.529742,-0.568113,-1.39047,-0.218672,0.263019,0.465323,0.512619
0.411681,-0.521144,-1.43152,-0.162318,0.286733,0.477847,0.512619
0.270725,-0.501492,-1.46592,-0.114054,0.283898,0.496105,0.512619
0.10921,-0.571688,-1.48832,-0.0571385,0.255766,0.510692,0.512619
-0.140528,-0.713932,-1.4818,-0.000590824,0.237861,0.506632,0.512619
-0.408009,-0.866932,-1.37299,0.0635202,0.223794,0.458353,0.512619
-0.625285,-0.952882,-1.25711,0.146194,0.169832,0.342872,0.512619
-0.73409,-0.778494,-1.14868,0.193239,0.0956098,0.168511,0.512619
-0.796489,-0.513525,-1.00848,0.235488,0.023047,-0.000812173,0.512619
-0.917616,-0.46706,-0.822158,0.283736,-0.0425034,-0.0874811,0.512619
-0.997172,-0.571254,-0.665354,0.305816,-0.101798,-0.177018,0.512619
-1.02866,-0.565336,-0.644656,0.243454,-0.160009,-0.328043,0.512619
-0.976602,-0.356971,-0.691117,0.196396,-0.236643,-0.512877,0.512619
-0.80835,0.0400309,-0.666564,0.196175,-0.26868,-0.671692,0.512619
-0.473366,0.498985,-0.429335,0.236095,-0.254783,-0.748941,0.512619
-0.0616238,0.859207,-0.0599473,0.246309,-0.204349,-0.699471,0.512619
0.268158,0.977701,0.239138,0.190702,-0.164907,-0.528037,0.512619
0.402745,0.794503,0.371379,0.123158,-0.177553,-0.285912,0.512619
0.393333,0.545357,0.426286,0.0740392,-0.180085,-0.0850689,0.512619
0.424954,0.432434,0.501868,0.0507553,-0.147483,-0.00174385,0.512619
0.428698,0.455904,0.567755,0.0388195,-0.0938642,0.0251632,0.512619
0.321305,0.375794,0.644348,0.0533654,-0.0707594,0.0724896,0.512619
0.275463,0.0977235,0.732817,0.0688125,-0.0511827,0.0748569,0.512619
0.37187,-0.216369,0.822571,0.0986075,-0.0365219,-0.00203258,0.512619
0.566383,-0.417339,0.876093,0.109963,-0.0010222,-0.105967,0.512619
0.800522,-0.427132,0.889271,0.101513,0.0380622,-0.168182,0.512619
1.0207,-0.170352,0.884503,0.0834715,0.0856711,-0.18214,0.512619
1.10706,0.158585,0.874185,0.05257,0.14511,-0.0875326,0.512619
1.05262,0.279759,0.80794,0.0264952,0.170877,0.0870704,0.512619
0.969197,0.240486,0.680546,-5.48363e-06,0.158074,0.248151,0.512619
0.833343,0.152704,0.521646,-0.0187624,0.154648,0.373473,0.512619
0.601577,-0.00184832,0.409453,0.00531736,0.160748,0.492471,0.512619
0.328108,-0.120889,0.306261,0.0464308,0.161668,0.563027,0.512619
0.0444733,-0.09997,0.19941,0.0932359,0.156893,0.567541,0.512619
-0.326771,-0.00481316,0.145513,0.132565,0.162929,0.546913,0.512619
-0.617247,-0.00198127,0.194677,0.169566,0.18918,0.487374,0.512619
-0.635252,-0.055424,0.249517,0.19751,0.18627,0.348392,0.512619
-0.559344,-0.186304,0.346845,0.24869,0.175304,0.218504,0.512619
-0.623946,-0.168518,0.498782,0.277919,0.170947,0.115004,0.512619
-0.835034,-0.115127,0.668467,0.30504,0.148467,0.0215109,0.512619
-0.964799,-0.13049,0.743114,0.288866,0.101888,-0.122278,0.512619
-0.955701,-0.0734198,0.697232,0.217864,0.0457904,-0.315422,0.512619
-0.863215,0.0936279,0.653004,0.181011,-0.0110359,-0.46749,0.512619
-0.775037,0.293943,0.682895,0.161314,-0.0430604,-0.537894,0.512619
-0.722294,0.371737,0.662871,0.098853,-0.076634,-0.543158,0.512619
-0.653875,0.206648,0.530787,0.0168093,-0.149155,-0.528435,0.512619
-0.458208,-0.0140445,0.358171,-0.0513415,-0.223954,-0.559102,0.512619
-0.120356,-0.0846676,0.301104,-0.0607146,-0.245949,-0.61665,0.512619
0.233857,0.12137,0.305738,-0.068929,-0.21596,-0.649649,0.512619
0.423241,0.373586,0.167116,-0.174524,-0.170902,-0.566772,0.512619
0.508998,0.483637,-0.129505,-0.244153,-0.19124,-0.422346,0.512619
0.581631,0.481872,-0.425364,-0.274371,-0.165196,-0.302361,0.512619
0.677842,0.349783,-0.581289,-0.268086,-0.0770513,-0.2257,0.512619
0.677842,0.349783,-0.581289,-0.268086,-0.0770513,-0.2257,0.694931
0.869529,0.216862,-0.545859,-0.237051,0.044574,-0.19158,0.694931
1.0682,0.121943,-0.467411,-0.242297,0.155704,-0.162699,0.694931
1.15508,0.0247594,-0.462526,-0.282167,0.233061,-0.0800089,0.694931
1.12048,-0.0843333,-0.498658,-0.311439,0.283666,0.0317179,0.694931
1.02512,-0.178849,-0.51644,-0.300313,0.328447,0.142793,0.694931
0.887845,-0.20222,-0.508847,-0.268476,0.36246,0.244251,0.694931
0.698034,-0.247041,-0.458743,-0.22605,0.376601,0.350297,0.694931
0.550009,-0.324521,-0.399961,-0.193632,0.372579,0.444718,0.694931
0.468312,-0.467669,-0.336143,-0.158591,0.351869,0.511683,0.694931
0.39229,-0.750865,-0.270206,-0.105276,0.329537,0.575158,0.694931
0.223162,-0.90404,-0.249164,-0.0708574,0.320768,0.612598,0.694931
-0.0719655,-0.808875,-0.289351,-0.0693871,0.313114,0.625515,0.694931
-0.401412,-0.752691,-0.379801,-0.0670104,0.290371,0.626489,0.694931
-0.622889,-0.906617,-0.459603,-0.0290688,0.271037,0.576053,0.694931
-0.769491,-1.18253,-0.532339,0.00503559,0.260089,0.474172,0.694931
-0.963187,-1.31097,-0.544856,0.0611836,0.236713,0.338241,0.694931
-1.18955,-1.13882,-0.542713,0.120146,0.170741,0.173274,0.694931
-1.39136,-0.664091,-0.489835,0.144925,0.121423,0.00984728,0.694931
-1.50557,-0.168013,-0.430716,0.144088,0.0658378,-0.116072,0.694931
-1.49036,0.141447,-0.442059,0.110223,-0.0197386,-0.199774,0.694931
-1.43228,0.133035,-0.489616,0.0955065,-0.112245,-0.218794,0.694931
-1.26754,0.115129,-0.464042,0.0868776,-0.172911,-0.254034,0.694931
-0.967862,0.193711,-0.340998,0.101825,-0.210779,-0.300383,0.694931
-0.737541,0.291365,-0.156778,0.123032,-0.227093,-0.269848,0.694931
-0.623422,0.371637,0.0303303,0.120732,-0.264926,-0.197863,0.694931
-0.533588,0.358106,0.132926,0.102473,-0.312375,-0.170528,0.694931
-0.506482,0.15418,0.1313,0.0706352,-0.352469,-0.192069,0.694931
-0.457854,0.068605,0.107104,0.0697386,-0.391961,-0.297992,0.694931
-0.345858,0.166404,0.0376475,0.0298505,-0.376341,-0.456384,0.694931
-0.221313,0.37753,0.00978767,0.0150297,-0.339604,-0.594508,0.694931
-0.0717232,0.605836,0.117423,0.0533239,-0.295351,-0.656502,0.694931
0.136076,0.876648,0.268031,0.0760113,-0.242719,-0.682854,0.694931
0.379212,1.07134,0.394816,0.062911,-0.190084,-0.638548,0.694931
0.699013,1.2787,0.489374,0.0221727,-0.128129,-0.539187,0.694931
0.992245,1.36088,0.615708,-0.00427078,-0.0581335,-0.362747,0.694931
1.19447,1.31462,0.802691,-0.0108121,0.010025,-0.145052,0.694931
1.28008,1.11437,0.969808,-0.0362883,0.052889,0.0629802,0.694931
1.2616,0.788604,1.00524,-0.0896103,0.0713598,0.226527,0.694931
1.14862,0.360811,0.941232,-0.131436,0.073991,0.346297,0.694931
1.05987,-0.0621663,0.828139,-0.139649,0.082285,0.393183,0.694931
0.989647,-0.25212,0.705045,-0.140161,0.117153,0.363644,0.694931
0.902616,-0.238586,0.613005,-0.123632,0.162266,0.329681,0.694931
0.810018,-0.0839704,0.537023,-0.0908677,0.197699,0.309429,0.694931
0.6748,0.0815179,0.473041,-0.0724482,0.223564,0.315594,0.694931
0.530544,0.0402859,0.401468,-0.0436739,0.224333,0.341365,0.694931
0.418044,-0.0711425,0.337912,-0.0119624,0.224652,0.349802,0.694931
0.321981,-0.197331,0.320182,0.0215828,0.232543,0.332523,0.694931
0.218243,-0.267921,0.356825,0.0666688,0.243648,0.291699,0.694931
0.0548331,-0.260247,0.406777,0.0963053,0.263812,0.257834,0.694931
-0.131663,-0.198441,0.402036,0.106727,0.252783,0.212973,0.694931
-0.305225,-0.117987,0.30404,0.088801,0.219014,0.162334,0.694931
-0.450924,-0.0209355,0.203996,0.0916192,0.191883,0.113084,0.694931
-0.577541,0.101695,0.172703,0.122524,0.184429,0.0734519,0.694931
-0.647512,0.259387,0.22982,0.138338,0.18914,0.0305629,0.694931
-0.647512,0.259387,0.22982,0.138338,0.18914,0.0305629,0.877258
-0.692049,0.261423,0.332967,0.158056,0.165592,0.0214523,0.877258
-0.697472,0.240431,0.419039,0.143284,0.132877,0.0214483,0.877258
-0.717226,0.213121,0.406918,0.0816848,0.0839612,0.0143071,0.877258
-0.800238,0.192373,0.324842,0.0337385,0.020669,0.0188223,0.877258
-0.937328,0.20915,0.25967,-0.000524275,-0.0111382,0.0126419,0.877258
-1.05893,0.149306,0.295705,0.0070799,-0.0268646,-0.010664,0.877258
-1.04913,0.0932197,0.331781,-0.0209524,-0.0483486,-0.0954105,0.877258
-1.00018,-0.0590888,0.289687,-0.0560131,-0.0943559,-0.186058,0.877258
-0.946425,-0.111763,0.166359,-0.107578,-0.153294,-0.287202,0.877258
-0.992154,-0.197716,0.0378439,-0.114331,-0.194598,-0.344859,0.877258
-1.06078,-0.349136,-0.0502139,-0.103053,-0.210457,-0.402508,0.877258
-1.01634,-0.539085,-0.0866573,-0.0888899,-0.220131,-0.516222,0.877258
-0.806318,-0.603823,-0.0793664,-0.0713656,-0.215771,-0.653532,0.877258
-0.446398,-0.433673,-0.106105,-0.0919308,-0.188715,-0.754091,0.877258
-0.149204,-0.15371,-0.221412,-0.143169,-0.162277,-0.747081,0.877258
0.0373321,0.0714868,-0.397647,-0.169688,-0.161419,-0.627199,0.877258
0.259777,0.219402,-0.503703,-0.137564,-0.153672,-0.48884,0.877258
0.56091,0.239739,-0.487187,-0.116104,-0.0821738,-0.375634,0.877258
0.91178,0.0645146,-0.390541,-0.0927242,-0.00647422,-0.256924,0.877258
1.20738,-0.228465,-0.302619,-0.0973479,0.0708513,-0.132507,0.877258
1.31267,-0.536942,-0.280378,-0.126499,0.135243,0.0022136,0.877258
1.21106,-0.72248,-0.339806,-0.161725,0.183322,0.116778,0.877258
1.02996,-0.735599,-0.483134,-0.196664,0.212414,0.18845,0.877258
0.854512,-0.61863,-0.665625,-0.210011,0.226204,0.226147,0.877258
0.684916,-0.403053,-0.809861,-0.191434,0.242545,0.265682,0.877258
0.583416,-0.231147,-0.87939,-0.154353,0.257635,0.30992,0.877258
0.571065,-0.205997,-0.910285,-0.114375,0.263138,0.363809,0.877258
0.591438,-0.325155,-0.926315,-0.0733351,0.256543,0.41876,0.877258
0.573792,-0.503571,-0.93424,-0.039206,0.246863,0.46834,0.877258
0.486062,-0.600299,-0.911487,-0.00798213,0.259891,0.502345,0.877258
0.337068,-0.537999,-0.875941,0.00190378,0.282793,0.517671,0.877258
0.136162,-0.445379,-0.869157,0.0238614,0.272798,0.535487,0.877258
-0.177506,-0.478911,-0.887398,0.0291203,0.253777,0.56518,0.877258
-0.520485,-0.595364,-0.935268,0.032503,0.217332,0.563021,0.877258
-0.810216,-0.659135,-1.01447,0.0419195,0.166696,0.484394,0.877258
-1.00199,-0.685189,-1.05682,0.0605396,0.128372,0.371472,0.877258
-1.06196,-0.588496,-1.09696,0.064244,0.098895,0.230779,0.877258
-1.04539,-0.373333,-1.16242,0.0572204,0.0638384,0.0928153,0.877258
-1.04612,-0.116079,-1.15825,0.0902195,0.013813,0.00897545,0.877258
-1.09794,0.171344,-1.04479,0.136113,-0.017361,-0.0279865,0.877258
-1.16781,0.333905,-0.823131,0.173454,-0.0407156,-0.0300992,0.877258
-1.16871,0.325674,-0.665906,0.156356,-0.0831177,-0.0551341,0.877258
-1.03481,0.167502,-0.636677,0.102565,-0.160991,-0.118889,0.877258
-0.85866,0.073247,-0.631274,0.0926633,-0.231901,-0.208355,0.877258
-0.752857,0.172506,-0.551755,0.137544,-0.261843,-0.276172,0.877258
-0.721044,0.416699,-0.412611,0.168212,-0.258257,-0.340782,0.877258
-0.680656,0.637956,-0.234078,0.183993,-0.247931,-0.404169,0.877258
-0.505399,0.729334,-0.0653972,0.188279,-0.252032,-0.490106,0.877258
-0.333967,0.624859,0.0982613,0.16607,-0.222983,-0.533832,0.877258
-0.210125,0.476524,0.301305,0.179594,-0.19098,-0.557971,0.877258
-0.12154,0.407426,0.497171,0.168498,-0.142526,-0.588466,0.877258
0.0505115,0.474973,0.691262,0.16576,-0.109801,-0.616163,0.877258
0.341574,0.695974,0.905031,0.145247,-0.0498188,-0.616186,0.877258
0.635551,0.860955,1.16198,0.120748,0.0252296,-0.508314,0.877258
0.635551,0.860955,1.16198,0.120748,0.0252296,-0.508314,1.09128
0.832357,0.915036,1.3753,0.0893551,0.0838222,-0.306607,1.09128
0.891411,0.838768,1.48075,0.0496067,0.0955319,-0.0831578,1.09128
0.812312,0.663975,1.49072,0.0218582,0.0803666,0.109234,1.09128
0.639817,0.404298,1.45572,0.0164527,0.060995,0.244944,1.09128
0.476979,0.138139,1.38145,0.0198775,0.0396754,0.293393,1.09128
0.368468,-0.0244812,1.29705,0.0348141,0.0352015,0.27791,1.09128
0.360833,-0.0442176,1.18908,0.0297066,0.0535965,0.227204,1.09128
0.394209,0.0122559,1.10377,0.048757,0.0533426,0.190398,1.09128
0.393376,0.038448,1.07754,0.0994623,0.0566328,0.200807,1.09128
0.35798,0.0297626,1.14557,0.138584,0.0790186,0.224655,1.09128
0.361527,-0.0126871,1.25002,0.155788,0.112455,0.23429,1.09128
0.410775,-0.0134132,1.29453,0.127652,0.122944,0.224141,1.09128
0.479015,0.00851762,1.26558,0.0933404,0.110107,0.21564,1.09128
0.455089,-0.0182513,1.17043,0.0654096,0.103749,0.242811,1.09128
0.295411,-0.131331,1.10292,0.0704993,0.0988861,0.290877,1.09128
0.15525,-0.221551,1.07309,0.0869953,0.104418,0.274926,1.09128
0.1099,-0.220427,1.02417,0.0863292,0.108534,0.200394,1.09128
0.133978,-0.157044,0.956183,0.0724275,0.097574,0.116182,1.09128
0.184769,-0.0588999,0.900183,0.0679186,0.0904815,0.0552349,1.09128
0.196222,0.0702219,0.888754,0.0661597,0.106221,0.0262104,1.09128
0.146725,0.127849,0.915318,0.0787736,0.109853,0.0278175,1.09128
0.0826462,0.0636886,0.912188,0.0825552,0.0927504,0.0262699,1.09128
0.0386492,0.000207894,0.852323,0.0602065,0.070589,-0.00156063,1.09128
-0.0145025,0.0636907,0.782234,0.0286763,0.0579025,-0.0520973,1.09128
-0.0621814,0.209773,0.711834,0.0135528,0.0667785,-0.106573,1.09128
-0.128194,0.34839,0.620576,0.00115962,0.0500347,-0.140278,1.09128
-0.201981,0.335635,0.555489,-0.00218122,0.0247685,-0.139373,1.09128
-0.19084,0.289847,0.532616,-0.0034114,0.0130853,-0.158265,1.09128
-0.179604,0.231443,0.482991,-0.0296976,0.00721601,-0.179852,1.09128
-0.252675,0.135176,0.401679,-0.0409175,-0.0277258,-0.179492,1.09128
-0.377893,-0.0229961,0.328192,-0.0369998,-0.060046,-0.178845,1.09128
-0.420027,-0.115106,0.26061,-0.0397203,-0.070348,-0.238848,1.09128
-0.399486,-0.124298,0.164271,-0.0516868,-0.0831998,-0.31929,1.09128
-0.420847,-0.142351,0.0518318,-0.0540324,-0.0906134,-0.345609,1.09128
-0.467868,-0.185792,-0.0407339,-0.0574224,-0.0766986,-0.335635,1.09128
-0.431275,-0.135743,-0.1012,-0.0520578,-0.0660424,-0.348215,1.09128
-0.296045,0.025873,-0.143848,-0.047474,-0.0687351,-0.363436,1.09128
-0.142951,0.190954,-0.178051,-0.0573618,-0.0684551,-0.325571,1.09128
-0.00725214,0.379992,-0.24501,-0.0858715,-0.0655084,-0.239949,1.09128
0.123344,0.5213,-0.334635,-0.119107,-0.065017,-0.13608,1.09128
0.258977,0.520024,-0.387221,-0.121196,-0.0490541,-0.0282044,1.09128
0.342419,0.302587,-0.372768,-0.109745,-0.0022362,0.0739552,1.09128
0.375014,-0.0791,-0.274538,-0.0887059,0.045828,0.145038,1.09128
0.39352,-0.405045,-0.13569,-0.0650563,0.0932187,0.163297,1.09128
0.450103,-0.486198,-0.0334286,-0.075003,0.129465,0.124723,1.09128
0.52473,-0.41608,-0.0125379,-0.109749,0.14227,0.0868782,1.09128
0.563559,-0.274832,-0.0645426,-0.149462,0.158518,0.0979519,1.09128
0.55422,-0.161414,-0.1596,-0.173933,0.166435,0.160621,1.09128
0.536049,-0.0691284,-0.291602,-0.189925,0.170906,0.235462,1.09128
0.481342,-0.0398454,-0.424057,-0.183328,0.168916,0.31677,1.09128
0.322927,-0.0878083,-0.510077,-0.168248,0.180858,0.3979,1.09128
0.118739,-0.142997,-0.597162,-0.154824,0.173735,0.452107,1.09128
-0.0538922,-0.21254,-0.730043,-0.141971,0.140238,0.457752,1.09128
-0.181683,-0.288443,-0.814472,-0.104094,0.1176,0.446272,1.09128
-0.181683,-0.288443,-0.814472,-0.104094,0.1176,0.446272,1.32381
-0.3079,-0.356254,-0.80038,-0.0587806,0.117625,0.421573,1.32381
-0.462522,-0.414061,-0.756154,-0.0240366,0.104365,0.38697,1.32381
-0.594999,-0.478433,-0.730169,0.00253802,0.0645604,0.3273,1.32381
-0.696588,-0.571713,-0.726395,0.0183385,0.029369,0.250703,1.32381
-0.780419,-0.567175,-0.735224,0.0326281,-0.000196338,0.156293,1.32381
-0.856316,-0.46524,-0.73883,0.0456074,-0.036455,0.042834,1.32381
-0.873665,-0.28459,-0.679297,0.0707655,-0.0626304,-0.0796604,1.32381
-0.752589,-0.0489627,-0.522279,0.113985,-0.0692519,-0.207839,1.32381
-0.509339,0.145917,-0.312562,0.152371,-0.0820868,-0.303152,1.32381
-0.274206,0.238373,-0.132119,0.159313,-0.106131,-0.330476,1.32381
-0.1487,0.1988,-0.000151645,0.15512,-0.140757,-0.296836,1.32381
-0.12998,0.129022,0.0623099,0.147498,-0.173479,-0.275245,1.32381
-0.117037,0.0770717,0.111429,0.144451,-0.197411,-0.304029,1.32381
-0.0357363,0.215759,0.144309,0.120654,-0.180582,-0.398347,1.32381
0.0708195,0.511794,0.186584,0.1032,-0.15051,-0.476534,1.32381
0.179546,0.787327,0.220228,0.085186,-0.129496,-0.494757,1.32381
0.209161,0.751034,0.289899,0.0962692,-0.114144,-0.429957,1.32381
0.209765,0.588542,0.426109,0.121412,-0.0962529,-0.356334,1.32381
0.296957,0.512245,0.595555,0.123794,-0.0590326,-0.338512,1.32381
0.500461,0.610606,0.775952,0.108913,-0.018688,-0.323899,1.32381
0.679346,0.725101,0.949917,0.0804059,0.0222758,-0.223239,1.32381
0.691931,0.676745,1.10586,0.0654315,0.0495702,-0.0318091,1.32381
0.612114,0.557765,1.22296,0.0543749,0.0446758,0.144836,1.32381
0.473225,0.324598,1.24215,0.0254961,0.0339198,0.266963,1.32381
0.323897,0.0949893,1.18326,-0.00795749,0.0064308,0.345856,1.32381
0.205485,-0.0115967,1.11273,0.00532015,0.00154218,0.344049,1.32381
0.129217,-0.02763,1.05988,0.0292048,0.0172228,0.332623,1.32381
0.100979,0.0202546,1.07736,0.0650975,0.0420272,0.326975,1.32381
0.108303,-0.0101586,1.14753,0.100891,0.0592522,0.339347,1.32381
0.168909,-0.107061,1.2328,0.124642,0.0690939,0.341204,1.32381
0.194627,-0.162404,1.26249,0.113639,0.0739161,0.357869,1.32381
0.0596411,-0.213028,1.21863,0.122144,0.0487467,0.368291,1.32381
-0.0853371,-0.185444,1.16381,0.150051,0.0337992,0.317076,1.32381
-0.176267,-0.177432,1.14374,0.177477,0.0525289,0.240497,1.32381
-0.266592,-0.166432,1.16205,0.197524,0.0589958,0.151258,1.32381
-0.24045,-0.196655,1.20597,0.211606,0.0533715,0.0408396,1.32381
-0.0546599,-0.250623,1.20273,0.199299,0.0703721,-0.0400724,1.32381
0.0341416,-0.209512,1.18998,0.185751,0.111677,-0.0436223,1.32381
-0.0607548,-0.088394,1.18935,0.16975,0.109591,-0.0325982,1.32381
-0.14125,0.0327464,1.1532,0.144933,0.0985301,-0.0529596,1.32381
-0.120206,0.174421,1.11453,0.115269,0.0975329,-0.0709695,1.32381
-0.0881291,0.288813,1.10664,0.0886138,0.0839806,-0.0400535,1.32381
-0.126929,0.366938,1.00629,0.0214968,0.0523647,0.00949699,1.32381
-0.244621,0.454589,0.840996,-0.0133506,0.0135419,0.0544814,1.32381
-0.383625,0.498478,0.671355,-0.008404,-0.019794,0.0862358,1.32381
-0.516175,0.501734,0.576543,0.0193293,-0.0328656,0.0896062,1.32381
-0.637933,0.486509,0.561909,0.0336807,-0.0528714,0.0684363,1.32381
-0.695441,0.382924,0.549412,0.0193141,-0.0860046,0.00328106,1.32381
-0.673785,0.187921,0.516051,0.00688954,-0.114393,-0.0830272,1.32381
-0.7899,-0.0545066,0.468617,0.00951609,-0.144251,-0.146415,1.32381
-0.92471,-0.153377,0.411439,0.0183995,-0.180728,-0.265064,1.32381
-0.946421,-0.0835955,0.35625,0.0217931,-0.177208,-0.403319,1.32381
-0.806332,0.0759417,0.363559,0.0493549,-0.17229,-0.500299,1.32381
-0.806332,0.0759417,0.363559,0.0493549,-0.17229,-0.500299,1.55104
-0.611548,0.141502,0.435799,0.0724402,-0.138033,-0.503131,1.55104
-0.477797,0.103003,0.540938,0.0839542,-0.135081,-0.452202,1.55104
-0.363072,0.0600966,0.59517,0.0714575,-0.147091,-0.408349,1.55104
-0.251442,0.0158376,0.59069,0.0331762,-0.133122,-0.375361,1.55104
-0.131833,-0.0330517,0.572366,0.01313,-0.117189,-0.358553,1.55104
0.0900375,-0.0501317,0.583725,0.0077911,-0.0678693,-0.363629,1.55104
0.409479,0.0199947,0.615193,-0.0124674,0.00673632,-0.336328,1.55104
0.660352,0.106946,0.625161,-0.0419174,0.076711,-0.241675,1.55104
0.766942,0.174098,0.592474,-0.06527,0.125242,-0.135699,1.55104
0.763279,0.116248,0.560502,-0.0745615,0.162376,-0.0445427,1.55104
0.792964,-0.0337216,0.53632,-0.0852792,0.18729,-0.00422126,1.55104
0.87925,-0.217686,0.504729,-0.0977483,0.220349,0.0182859,1.55104
0.968712,-0.313752,0.493787,-0.0950529,0.243194,0.0536,1.55104
0.998746,-0.227196,0.462741,-0.0897905,0.241268,0.111273,1.55104
0.9144,-0.113507,0.390973,-0.0731632,0.223291,0.204683,1.55104
0.785579,-0.0178903,0.328886,-0.0419481,0.196742,0.288664,1.55104
0.649001,0.0142929,0.277065,-0.0120398,0.178553,0.357437,1.55104
0.530535,-0.00382695,0.24007,0.0112126,0.153641,0.398421,1.55104
0.424456,-0.0647678,0.211555,0.0370603,0.140973,0.424053,1.55104
0.328303,-0.110842,0.199611,0.0644929,0.122872,0.421795,1.55104
0.242189,-0.131309,0.214237,0.0912547,0.116743,0.415308,1.55104
0.15113,-0.0952737,0.263342,0.118177,0.107455,0.404309,1.55104
0.00427977,-0.05747,0.310274,0.129401,0.0921638,0.393434,1.55104
-0.167125,-0.0382872,0.351407,0.126422,0.0685732,0.354203,1.55104
-0.28036,-0.0120012,0.391317,0.115273,0.0417757,0.268489,1.55104
-0.302522,0.0890741,0.414296,0.0887206,0.0200219,0.168738,1.55104
-0.249655,0.149767,0.45728,0.0893213,0.00323826,0.104417,1.55104
-0.186822,0.14786,0.553917,0.0943843,-0.00107685,0.059289,1.55104
-0.121408,0.174597,0.636789,0.0658237,-0.0137788,0.0215107,1.55104
-0.0962467,0.22076,0.636244,0.0325003,-0.0339099,0.00533867,1.55104
-0.131166,0.253827,0.624683,0.0107135,-0.0458271,0.00757939,1.55104
-0.16079,0.288825,0.634402,-0.0108653,-0.0484696,0.00123739,1.55104
-0.180749,0.315127,0.622718,-0.029311,-0.056075,0.00581676,1.55104
-0.218025,0.314137,0.617992,-0.0360308,-0.0717792,0.0126426,1.55104
-0.240289,0.374738,0.590191,-0.0462892,-0.0873974,0.00763118,1.55104
-0.226068,0.411997,0.571094,-0.0456778,-0.106788,0.00991732,1.55104
-0.172709,0.400213,0.57008,-0.0367,-0.114559,0.0299677,1.55104
-0.12663,0.324402,0.580069,-0.0242827,-0.120935,0.0614935,1.55104
-0.101385,0.281077,0.578667,-0.0164198,-0.124832,0.0914846,1.55104
-0.133611,0.236998,0.562914,-0.00455033,-0.136402,0.109674,1.55104
-0.187816,0.190177,0.549683,0.0144136,-0.143005,0.107148,1.55104
-0.207888,0.116994,0.56695,0.0472777,-0.14897,0.0585939,1.55104
-0.173972,0.0958139,0.580043,0.0543012,-0.144178,-0.00996399,1.55104
-0.132264,0.0827181,0.618959,0.0756669,-0.136734,-0.0744903,1.55104
-0.0925542,0.158331,0.674136,0.0887739,-0.127628,-0.148712,1.55104
-0.0400948,0.344724,0.707556,0.1011,-0.130406,-0.199038,1.55104
-0.0322921,0.391478,0.767059,0.133937,-0.123645,-0.202457,1.55104
0.00872263,0.261456,0.875241,0.146663,-0.103776,-0.222727,1.55104
0.0464814,-0.0197819,0.934812,0.12216,-0.0854032,-0.260752,1.55104
0.100746,-0.0858001,0.955026,0.106824,-0.0684519,-0.317645,1.55104
0.238769,0.0957343,0.984617,0.0944014,-0.0270783,-0.332202,1.55104
0.388931,0.479202,1.01267,0.0827844,0.00674772,-0.244851,1.55104
0.370086,0.781299,1.01495,0.0815289,0.0199761,-0.0526251,1.55104
0.257084,1.04118,1.00322,0.0745606,0.0248537,0.116865,1.55104
0.257084,1.04118,1.00322,0.0745606,0.0248537,0.116865,1.79942
0.114265,1.12053,1.01614,0.080517,0.0422026,0.260524,1.79942
0.0434525,0.914025,1.13904,0.129523,0.0565167,0.362162,1.79942
0.0255486,0.457858,1.3469,0.180613,0.0908857,0.414578,1.79942
-0.00273052,-0.0283724,1.62965,0.223698,0.113816,0.410965,1.79942
-0.129658,-0.429504,1.85536,0.229774,0.115164,0.374726,1.79942
-0.363173,-0.723127,1.95818,0.200394,0.103135,0.286507,1.79942
-0.520587,-0.759791,1.92069,0.16398,0.0859342,0.106209,1.79942
-0.641747,-0.651177,1.82719,0.187479,0.101737,-0.045817,1.79942
-0.737879,-0.47038,1.8305,0.247189,0.11776,-0.187231,1.79942
-0.612192,-0.276636,1.90977,0.302004,0.12558,-0.331435,1.79942
-0.268419,-0.0977846,2.04673,0.346408,0.139816,-0.401434,1.79942
-0.0122389,0.0465611,2.20342,0.354098,0.144188,-0.340335,1.79942
0.0395228,0.0842596,2.2961,0.322714,0.105059,-0.231332,1.79942
0.092978,-0.00616184,2.26478,0.289451,0.0520423,-0.166399,1.79942
0.197976,-0.0920831,2.19253,0.273846,0.0239987,-0.131549,1.79942
0.246045,-0.0590423,2.09098,0.262663,0.0130757,-0.0860531,1.79942
0.199244,0.080517,1.98528,0.25082,0.00690316,-0.0465019,1.79942
0.184468,0.25088,1.8812,0.240766,0.00372653,-0.0356442,1.79942
0.240124,0.365881,1.78132,0.2319,0.0126454,-0.026406,1.79942
0.296442,0.421334,1.7139,0.235466,0.0222303,0.00921303,1.79942
0.328604,0.41195,1.69873,0.239473,0.0357386,0.0419372,1.79942
0.356384,0.402302,1.69394,0.223335,0.0363186,0.038337,1.79942
0.426786,0.442378,1.65599,0.187454,0.0246768,0.00806445,1.79942
0.521096,0.554575,1.57802,0.156204,0.0116805,-0.0150012,1.79942
0.581864,0.63983,1.51773,0.138824,0.0117064,-0.00785625,1.79942
0.597898,0.646288,1.4591,0.122187,0.000230268,0.00182146,1.79942
0.59207,0.593777,1.407,0.121211,-0.0146724,0.00405389,1.79942
0.555711,0.508992,1.3814,0.104166,-0.0207763,-0.0167874,1.79942
0.428083,0.510814,1.31355,0.0783273,-0.0422008,-0.0498648,1.79942
0.221368,0.486945,1.20008,0.0574256,-0.0746467,-0.104396,1.79942
0.0708352,0.510597,1.0082,0.00418306,-0.0874588,-0.202488,1.79942
-0.0535574,0.549699,0.809266,-0.0204055,-0.0722616,-0.283336,1.79942
-0.19493,0.632925,0.692459,-0.00996407,-0.0557516,-0.310034,1.79942
-0.389507,0.56753,0.619464,-0.0122272,-0.0305432,-0.297549,1.79942
-0.526325,0.415322,0.603261,-0.0172309,-0.01598,-0.327895,1.79942
-0.563755,0.387771,0.560236,-0.038225,0.000917926,-0.376237,1.79942
-0.496936,0.37506,0.601001,-0.0393449,0.031242,-0.395504,1.79942
-0.300337,0.490466,0.709689,-0.0494904,0.0686292,-0.390227,1.79942
-0.0403457,0.665138,0.836003,-0.077651,0.0969734,-0.322426,1.79942
0.243328,0.673283,0.932815,-0.112264,0.116584,-0.19983,1.79942
0.474643,0.443794,0.942915,-0.16881,0.14201,-0.0739881,1.79942
0.584797,0.0233238,0.910557,-0.175224,0.161486,0.0212319,1.79942
0.617953,-0.481112,0.849308,-0.162059,0.179423,0.0417115,1.79942
0.667805,-0.747158,0.76657,-0.169645,0.217863,-0.0233585,1.79942
0.735318,-0.856245,0.629525,-0.18102,0.251516,-0.0811936,1.79942
0.826752,-0.843103,0.407899,-0.18869,0.252536,-0.125537,1.79942
0.942945,-0.708612,0.183642,-0.142425,0.27434,-0.110025,1.79942
0.997711,-0.472089,0.0719919,-0.0618516,0.31049,-0.0206096,1.79942
0.889783,-0.17786,0.0276302,-0.0165012,0.331185,0.10993,1.79942
0.68011,0.099004,-0.02426,-0.00586706,0.319292,0.223167,1.79942
0.502515,0.17782,-0.108751,-0.0149331,0.296735,0.304133,1.79942
0.411,0.0385226,-0.21154,-0.0046242,0.286958,0.353472,1.79942
0.30443,-0.150319,-0.257832,0.0214215,0.296019,0.398351,1.79942
0.108593,-0.288448,-0.242511,0.0432983,0.30609,0.424397,1.79942
0.108593,-0.288448,-0.242511,0.0432983,0.30609,0.424397,2.03723
-0.0732294,-0.262969,-0.238259,0.0353417,0.297071,0.403025,2.03723
-0.239917,-0.204136,-0.300979,0.0156781,0.273693,0.381771,2.03723
-0.413646,-0.172858,-0.343731,0.0223398,0.250998,0.361568,2.03723
-0.604955,-0.0812185,-0.375265,0.0330995,0.229384,0.323481,2.03723
-0.822267,0.113767,-0.418882,0.032492,0.195647,0.286407,2.03723
-1.05306,0.261286,-0.455604,0.0424952,0.142154,0.233813,2.03723
-1.19968,0.271014,-0.459535,0.0599023,0.0862553,0.146939,2.03723
-1.22598,0.216202,-0.420336,0.0797033,0.0255913,0.0378988,2.03723
-1.13645,0.0591477,-0.264649,0.131643,-0.0503984,-0.0539068,2.03723
-0.931492,-0.105899,-0.0846708,0.151434,-0.120109,-0.145167,2.03723
-0.700743,-0.170602,0.0984763,0.152931,-0.18644,-0.199779,2.03723
-0.548496,-0.197623,0.203204,0.120338,-0.251728,-0.228988,2.03723
-0.345035,-0.194449,0.213922,0.0783092,-0.311022,-0.277647,2.03723
-0.0584882,-0.134704,0.150578,0.0695766,-0.335948,-0.309725,2.03723
0.176048,-0.0153788,0.120705,0.0967444,-0.318702,-0.288017,2.03723
0.284602,0.0709272,0.135963,0.104186,-0.268484,-0.243851,2.03723
0.288883,0.0570172,0.155465,0.103383,-0.227698,-0.236872,2.03723
0.347624,0.0219257,0.137897,0.0888288,-0.191196,-0.302971,2.03723
0.489303,0.190777,0.127201,0.0718802,-0.129366,-0.366074,2.03723
0.578687,0.406305,0.170274,0.0736782,-0.0703071,-0.352865,2.03723
0.580412,0.537432,0.20439,0.0722773,-0.0415044,-0.295751,2.03723
0.533348,0.56536,0.185984,0.058722,-0.0413956,-0.239051,2.03723
0.4025,0.511455,0.143735,0.0568785,-0.0262482,-0.187316,2.03723
0.254951,0.45023,0.155823,0.0755152,0.00445777,-0.169061,2.03723
0.226767,0.502266,0.224035,0.0864982,0.037324,-0.185419,2.03723
0.36452,0.665014,0.306619,0.0925265,0.0533678,-0.158408,2.03723
0.560779,0.805616,0.419938,0.105935,0.082024,-0.0545827,2.03723
0.648401,0.841559,0.552114,0.113093,0.104888,0.0983904,2.03723
0.614557,0.801228,0.675464,0.12463,0.0983683,0.222366,2.03723
0.494142,0.649195,0.786837,0.123084,0.0964569,0.29567,2.03723
0.286393,0.415131,0.914023,0.133547,0.0880944,0.323234,2.03723
0.0997077,0.117662,0.963169,0.124846,0.070165,0.253863,2.03723
0.0622944,-0.0489637,0.931054,0.0914496,0.0869254,0.123212,2.03723
0.142849,-0.0365318,0.84699,0.0557042,0.117072,0.0165727,2.03723
0.247314,0.172021,0.830026,0.0547745,0.158487,-0.031428,2.03723
0.321559,0.486631,0.890911,0.0608997,0.204557,-0.00579661,2.03723
0.335309,0.711199,0.974247,0.0544778,0.228391,0.0767299,2.03723
0.277556,0.767701,0.99302,0.0286056,0.207088,0.17606,2.03723
0.217833,0.693971,0.954942,0.00795352,0.186853,0.239544,2.03723
0.0930786,0.560313,0.925549,0.015849,0.192266,0.294196,2.03723
-0.11841,0.378721,0.931165,0.0252423,0.193364,0.307771,2.03723
-0.330915,0.265112,0.917908,0.0334757,0.176178,0.260836,2.03723
-0.44983,0.221142,0.904007,0.0309921,0.167192,0.219178,2.03723
-0.452536,0.204983,0.891337,0.0251522,0.158535,0.125494,2.03723
-0.411601,0.227537,0.91862,0.0186966,0.157456,0.0626627,2.03723
-0.368053,0.25729,0.946783,-0.00088726,0.14442,0.0364143,2.03723
-0.356124,0.297235,0.923673,-0.0429576,0.121035,0.044557,2.03723
-0.344703,0.361561,0.855589,-0.0877156,0.090675,0.0668668,2.03723
-0.348246,0.402967,0.757621,-0.0979893,0.0523795,0.0969569,2.03723
-0.492817,0.31074,0.714069,-0.06722,0.0296872,0.165992,2.03723
-0.710343,0.155575,0.724184,-0.0232132,0.00258291,0.208198,2.03723
-0.853506,-0.11497,0.66127,-0.0220698,-0.0419476,0.166661,2.03723
-0.872142,-0.388108,0.559128,-0.0252847,-0.102534,0.0420207,2.03723
-0.875274,-0.514924,0.425253,-0.0455328,-0.137259,-0.113788,2.03723
-0.875274,-0.514924,0.425253,-0.0455328,-0.137259,-0.113788,2.24069
-0.852373,-0.507224,0.346528,-0.0462372,-0.152618,-0.259455,2.24069
-0.744786,-0.425756,0.324808,-0.0162179,-0.158776,-0.410325,2.24069
-0.635416,-0.379875,0.418338,0.0151097,-0.137288,-0.515105,2.24069
-0.506077,-0.374231,0.564616,0.0231774,-0.119109,-0.578885,2.24069
-0.30377,-0.365704,0.583853,-0.0496479,-0.113691,-0.626331,2.24069
-0.123839,-0.319218,0.445923,-0.133138,-0.145496,-0.611461,2.24069
-0.104295,-0.265473,0.208654,-0.181785,-0.171538,-0.528874,2.24069
-0.205406,-0.299725,-0.034246,-0.204513,-0.16675,-0.439967,2.24069
-0.266011,-0.396387,-0.288185,-0.226073,-0.145016,-0.397147,2.24069
-0.140575,-0.399318,-0.50387,-0.216325,-0.110971,-0.415996,2.24069
0.191123,-0.198565,-0.613632,-0.180065,-0.0193856,-0.441221,2.24069
0.581332,0.0934629,-0.656328,-0.174632,0.058822,-0.330444,2.24069
0.799859,0.28693,-0.697526,-0.185036,0.120153,-0.132371,2.24069
0.822901,0.308629,-0.73251,-0.199192,0.163231,0.0526276,2.24069
0.756772,0.13002,-0.767419,-0.22059,0.199484,0.167496,2.24069
0.691572,-0.183921,-0.843581,-0.243137,0.236881,0.218365,2.24069
0.693086,-0.415684,-0.90513,-0.241853,0.265855,0.218428,2.24069
0.755522,-0.50114,-0.967819,-0.232971,0.299111,0.222369,2.24069
0.785698,-0.442457,-1.03329,-0.2132,0.325815,0.280495,2.24069
0.702429,-0.388724,-1.10718,-0.183378,0.345168,0.379874,2.24069
0.545438,-0.306792,-1.15612,-0.136001,0.348554,0.458274,2.24069
0.378253,-0.291814,-1.15014,-0.0826949,0.346875,0.519081,2.24069
0.256238,-0.364333,-1.11277,-0.0606898,0.343404,0.547311,2.24069
0.173392,-0.447375,-1.09358,-0.0501105,0.335473,0.552265,2.24069
0.0312317,-0.558377,-1.0907,-0.0268606,0.318007,0.567967,2.24069
-0.197321,-0.669016,-1.06828,-0.000241041,0.292568,0.562056,2.24069
-0.520604,-0.860706,-1.03693,0.0529626,0.257505,0.520029,2.24069
-0.842869,-1.05072,-0.96988,0.0880247,0.213116,0.389535,2.24069
-1.02996,-0.916567,-0.993919,0.0700909,0.162221,0.205407,2.24069
-1.16547,-0.602129,-1.07457,0.0666865,0.107086,0.0640036,2.24069
-1.33084,-0.232164,-1.10394,0.0976474,0.0459321,-0.0210561,2.24069
-1.43114,-0.0300813,-1.01947,0.1273,0.00551483,-0.0962055,2.24069
-1.29849,0.0346737,-0.856899,0.12006,-0.0274681,-0.181157,2.24069
-0.955539,-0.0447549,-0.65549,0.118624,-0.0766679,-0.224002,2.24069
-0.623253,-0.0623712,-0.490076,0.110825,-0.141676,-0.185205,2.24069
-0.530859,0.0306761,-0.378831,0.0801051,-0.186813,-0.0921922,2.24069
-0.556952,0.191445,-0.302148,0.0533874,-0.232547,-0.0426373,2.24069
-0.500071,0.218627,-0.279095,0.0426736,-0.276341,-0.053872,2.24069
-0.375046,0.120502,-0.280207,0.0468836,-0.288019,-0.0766238,2.24069
-0.300435,-0.0163016,-0.289414,0.0663042,-0.304032,-0.108432,2.24069
-0.292589,-0.112092,-0.291581,0.0964764,-0.303464,-0.156449,2.24069
-0.402309,-0.127828,-0.270898,0.0980476,-0.277615,-0.231066,2.24069
-0.465487,-0.0308902,-0.265037,0.0835466,-0.259693,-0.356838,2.24069
-0.47314,-0.0442949,-0.302573,0.0809167,-0.239455,-0.468304,2.24069
-0.426985,0.0185575,-0.2853,0.0884767,-0.188829,-0.572297,2.24069
-0.258842,0.203399,-0.214308,0.103559,-0.130403,-0.65051,2.24069
-0.0147957,0.455909,-0.0336969,0.127664,-0.0765397,-0.646951,2.24069
0.195894,0.753868,0.21565,0.148126,-0.0422915,-0.557636,2.24069
0.348268,0.980871,0.455829,0.147364,-0.0317643,-0.408988,2.24069
0.478672,1.06533,0.634411,0.126493,-0.0396013,-0.244374,2.24069
0.614631,0.997339,0.788109,0.101714,-0.0325523,-0.102239,2.24069
0.786118,0.841399,0.947635,0.0841579,-0.00978225,0.0214856,2.24069
0.91176,0.574976,1.07298,0.0620076,0.0146393,0.137302,2.24069
0.91176,0.574976,1.07298,0.0620076,0.0146393,0.137302,2.43886
0.906464,0.249503,1.16861,0.0514455,0.0202569,0.23217,2.43886
0.783088,-0.0637434,1.2077,0.0482946,0.00977309,0.269711,2.43886
0.685291,-0.193476,1.14541,0.0141085,0.0115655,0.229811,2.43886
0.613558,-0.257182,1.01918,-0.00980283,0.0433352,0.176382,2.43886
0.578904,-0.270156,0.901509,0.00291006,0.0616612,0.12595,2.43886
0.575902,-0.285772,0.794915,0.028266,0.0879535,0.0850579,2.43886
0.660878,-0.232314,0.709303,0.054169,0.115646,0.0383273,2.43886
0.818888,-0.122084,0.679236,0.0832992,0.163794,0.0408089,2.43886
0.904727,0.0852987,0.740891,0.117337,0.211861,0.108262,2.43886
0.847122,0.249789,0.822972,0.126301,0.230255,0.208559,2.43886
0.696715,0.28661,0.8366,0.117466,0.20959,0.290967,2.43886
0.480138,0.184869,0.765271,0.105362,0.180952,0.333158,2.43886
0.245777,0.0611982,0.640657,0.102927,0.155506,0.312154,2.43886
0.0928181,0.0232563,0.520851,0.128117,0.154593,0.238202,2.43886
-0.0122865,0.134725,0.48336,0.159668,0.18639,0.176228,2.43886
-0.1255,0.254135,0.568707,0.200792,0.204922,0.13813,2.43886
-0.211021,0.373176,0.665323,0.182752,0.192211,0.104019,2.43886
-0.288021,0.427747,0.720428,0.137478,0.15592,0.0844389,2.43886
-0.357386,0.46347,0.68532,0.0716863,0.112783,0.0718686,2.43886
-0.422734,0.462994,0.588128,0.0333688,0.0787997,0.0629821,2.43886
-0.464079,0.514093,0.535452,0.0496485,0.0638202,0.0557202,2.43886
-0.543409,0.583785,0.563697,0.0539036,0.0646099,0.0699946,2.43886
-0.645757,0.548039,0.669458,0.0517019,0.0407769,0.0704207,2.43886
-0.678324,0.453359,0.721267,0.00238969,0.000420123,0.0415343,2.43886
-0.700188,0.340629,0.662381,-0.0552119,-0.0403829,0.0144876,2.43886
-0.756092,0.164852,0.538327,-0.0838532,-0.0913531,-0.027278,2.43886
-0.792587,0.0405412,0.422836,-0.0960172,-0.104604,-0.113331,2.43886
-0.812574,0.0480186,0.39205,-0.0811784,-0.101919,-0.195097,2.43886
-0.839589,-0.0196983,0.447732,-0.0496256,-0.106409,-0.257444,2.43886
-0.768869,-0.194913,0.526266,-0.0510207,-0.123613,-0.338173,2.43886
-0.676266,-0.476018,0.522851,-0.102321,-0.130124,-0.409637,2.43886
-0.657869,-0.740247,0.429899,-0.15789,-0.143782,-0.498236,2.43886
-0.606417,-0.760899,0.254065,-0.207799,-0.146183,-0.604983,2.43886
-0.48802,-0.535323,0.0582248,-0.215422,-0.119403,-0.668914,2.43886
-0.347142,-0.227937,-0.0820728,-0.211727,-0.089229,-0.650707,2.43886
-0.153244,-0.0685248,-0.196806,-0.188241,-0.0835664,-0.574563,2.43886
0.135812,0.0199527,-0.303511,-0.174759,-0.0649359,-0.4787,2.43886
0.494761,0.162741,-0.367859,-0.162098,-0.0162217,-0.348137,2.43886
0.79969,0.26994,-0.409913,-0.156811,0.0467132,-0.159793,2.43886
0.941196,0.265171,-0.456069,-0.157282,0.0871778,0.0277606,2.43886
0.8919,0.0633283,-0.51806,-0.151544,0.121668,0.188031,2.43886
0.74632,-0.311018,-0.531369,-0.119947,0.138026,0.264917,2.43886
0.663972,-0.668721,-0.523555,-0.115412,0.176848,0.247541,2.43886
0.710546,-0.818475,-0.576283,-0.147538,0.212263,0.188144,2.43886
0.813174,-0.836406,-0.691133,-0.152733,0.227985,0.172561,2.43886
0.887769,-0.699094,-0.820999,-0.125352,0.255646,0.216559,2.43886
0.862402,-0.484771,-0.885157,-0.0746602,0.289201,0.302199,2.43886
0.719905,-0.275649,-0.90542,-0.0441985,0.31558,0.404805,2.43886
0.545662,-0.188111,-0.850909,-0.01967,0.318062,0.483401,2.43886
0.425457,-0.233633,-0.85372,-0.025883,0.303571,0.520015,2.43886
0.277525,-0.334826,-0.931922,-0.0263861,0.280167,0.534366,2.43886
0.0398534,-0.397302,-0.959098,0.0196824,0.271806,0.534464,2.43886
-0.205791,-0.443878,-0.898327,0.0641306,0.267212,0.494683,2.43886
-0.450833,-0.545329,-0.825548,0.0887133,0.227944,0.431262,2.43886
-0.450833,-0.545329,-0.825548,0.0887133,0.227944,0.431262,2.64761
-0.67182,-0.633594,-0.806639,0.0779026,0.150883,0.309094,2.64761
-0.88121,-0.549907,-0.889586,0.0485385,0.0727307,0.177085,2.64761
-1.0688,-0.375122,-1.01614,0.0610306,-0.00831267,0.0493392,2.64761
-1.1713,-0.24005,-1.05346,0.110831,-0.045446,-0.0591727,2.64761
-1.15271,-0.212042,-0.924281,0.145011,-0.037994,-0.158169,2.64761
-0.983045,-0.179176,-0.691132,0.144849,-0.038759,-0.261575,2.64761
-0.638947,0.0309794,-0.469343,0.139091,-0.0864329,-0.322289,2.64761
-0.304092,0.314418,-0.308726,0.108212,-0.126949,-0.254571,2.64761
-0.181034,0.441816,-0.199088,0.0796477,-0.156672,-0.0953775,2.64761
-0.141034,0.462308,-0.11036,0.0525749,-0.192609,0.00642103,2.64761
-0.180762,0.329074,-0.0935568,0.0375586,-0.223295,0.0721145,2.64761
-0.256597,0.100161,-0.114997,0.0532542,-0.252121,0.0654575,2.64761
-0.335719,-0.0789654,-0.140715,0.0687647,-0.266808,-0.0128417,2.64761
-0.408598,-0.144136,-0.143731,0.0924797,-0.261622,-0.141431,2.64761
-0.473846,-0.0878764,-0.074224,0.11477,-0.234454,-0.290005,2.64761
-0.44706,-0.00171891,-0.0653847,0.0822558,-0.22296,-0.452151,2.64761
-0.33975,0.100938,-0.0951629,0.0738252,-0.19893,-0.593053,2.64761
-0.127158,0.227818,-0.0151795,0.0926892,-0.13632,-0.690168,2.64761
0.13803,0.530782,0.12961,0.0907737,-0.0775494,-0.696179,2.64761
0.320547,0.857091,0.280508,0.0805453,-0.0601197,-0.600738,2.64761
0.449368,0.974363,0.375012,0.076344,-0.058486,-0.436273,2.64761
0.615289,0.911216,0.447575,0.0657646,-0.0340446,-0.279885,2.64761
0.860318,0.802902,0.546851,0.0526039,0.0149717,-0.127233,2.64761
1.03005,0.695434,0.661994,0.0523208,0.0679864,0.0424904,2.64761
1.00577,0.586198,0.769619,0.0649994,0.0816048,0.18723,2.64761
0.846655,0.376993,0.84709,0.0675539,0.0798858,0.274176,2.64761
0.661916,0.085635,0.874464,0.0600961,0.0846192,0.272037,2.64761
0.590914,-0.0983257,0.838248,0.0390979,0.0887394,0.180016,2.64761
0.590486,-0.126164,0.742692,0.0188514,0.0987394,0.122298,2.64761
0.630825,0.000663707,0.68735,0.0254498,0.131747,0.111899,2.64761
0.645373,0.114623,0.712094,0.0528962,0.157754,0.147946,2.64761
0.647456,0.130185,0.758303,0.0691131,0.172143,0.189527,2.64761
0.648069,0.12813,0.786368,0.0651857,0.174515,0.228954,2.64761
0.598863,0.0912127,0.763058,0.0498111,0.163112,0.275427,2.64761
0.493936,0.127797,0.687758,0.0405433,0.150417,0.315719,2.64761
0.29169,0.117332,0.586342,0.0467895,0.150468,0.357982,2.64761
0.0300049,0.107125,0.506672,0.0670782,0.155436,0.360293,2.64761
-0.161187,0.120407,0.490396,0.101654,0.168652,0.313372,2.64761
-0.244475,0.147276,0.51496,0.126421,0.184067,0.265684,2.64761
-0.274526,0.179408,0.57159,0.147469,0.190194,0.246064,2.64761
-0.349785,0.195415,0.630303,0.14957,0.190125,0.2528,2.64761
-0.48448,0.194367,0.660338,0.142883,0.171534,0.255679,2.64761
-0.638742,0.179593,0.658358,0.133656,0.150503,0.228331,2.64761
-0.75249,0.193217,0.664955,0.121954,0.131823,0.170175,2.64761
-0.767404,0.193329,0.717146,0.113956,0.106867,0.0952578,2.64761
-0.749228,0.173728,0.811423,0.121655,0.0911133,0.0612843,2.64761
-0.79836,0.177246,0.910961,0.104845,0.0718385,0.0190549,2.64761
-0.859319,0.267454,0.994353,0.0757442,0.0370364,-0.0337289,2.64761
-0.907806,0.254856,1.04425,0.050506,-0.00954586,-0.0981053,2.64761
-0.900642,0.137992,1.03449,0.0249341,-0.0626827,-0.202656,2.64761
-0.901378,0.0276102,0.987288,0.0133643,-0.11361,-0.303372,2.64761
-0.952091,-0.0987649,0.909439,-0.0115058,-0.149547,-0.404578,2.64761
-0.956803,-0.206974,0.819825,-0.0413369,-0.169476,-0.532546,2.64761
-0.813809,-0.192581,0.758125,-0.0583249,-0.170921,-0.656228,2.64761
-0.813809,-0.192581,0.758125,-0.0583249,-0.170921,-0.656228,2.83786
-0.582475,-0.0868818,0.74346,-0.0764513,-0.154762,-0.69066,2.83786
-0.453944,0.01571,0.720096,-0.0993491,-0.162394,-0.615652,2.83786
-0.435459,-0.000867112,0.630352,-0.12867,-0.190575,-0.525275,2.83786
-0.428071,-0.134692,0.470039,-0.163276,-0.205769,-0.484466,2.83786
-0.251917,-0.176581,0.306325,-0.203637,-0.168972,-0.515128,2.83786
0.133455,0.0227165,0.172897,-0.226608,-0.112376,-0.528716,2.83786
0.568577,0.348867,0.0286721,-0.225807,-0.0388086,-0.406626,2.83786
0.900482,0.63552,-0.0368783,-0.214242,0.044467,-0.210978,2.83786
1.07957,0.717916,-0.0564386,-0.226434,0.121383,0.00782925,2.83786
1.09249,0.486107,-0.0765357,-0.242478,0.166445,0.202122,2.83786
0.983701,0.0340894,-0.162228,-0.285714,0.188942,0.304696,2.83786
0.836612,-0.323731,-0.360633,-0.325006,0.207002,0.33275,2.83786
0.627592,-0.532874,-0.631276,-0.35106,0.242706,0.333505,2.83786
0.425967,-0.523163,-0.876257,-0.336515,0.270501,0.308047,2.83786
0.310157,-0.410965,-1.05102,-0.284684,0.294983,0.29459,2.83786
0.208807,-0.229956,-1.19376,-0.241122,0.314587,0.322814,2.83786
0.0830687,-0.116859,-1.23639,-0.185932,0.318743,0.374213,2.83786
0.0315681,-0.076752,-1.22117,-0.145609,0.2996,0.406074,2.83786
0.0198721,-0.159504,-1.20923,-0.12676,0.282491,0.444571,2.83786
-0.0410625,-0.268468,-1.18224,-0.112234,0.266235,0.48233,2.83786
-0.157358,-0.393043,-1.17779,-0.104473,0.249826,0.50586,2.83786
-0.334385,-0.489162,-1.23937,-0.0965712,0.203941,0.498834,2.83786
-0.593235,-0.672399,-1.31379,-0.031549,0.164516,0.457168,2.83786
-0.800907,-0.794918,-1.26565,0.0367024,0.160032,0.344083,2.83786
-0.981785,-0.830544,-1.19998,0.0591895,0.137704,0.212268,2.83786
-1.12707,-0.717369,-1.19581,0.0785133,0.0681074,0.0460903,2.83786
-1.14324,-0.453433,-1.16051,0.11236,0.0108493,-0.10943,2.83786
-1.02946,-0.242167,-1.05854,0.152076,-0.00577572,-0.233209,2.83786
-0.868179,-0.0295838,-0.882984,0.170854,-0.0230595,-0.277336,2.83786
-0.696195,0.121044,-0.698651,0.190233,-0.0678263,-0.334304,2.83786
-0.544281,0.170548,-0.579369,0.189892,-0.136525,-0.364143,2.83786
-0.420642,0.0934794,-0.457052,0.189973,-0.184896,-0.347432,2.83786
-0.302189,0.0997302,-0.351569,0.182008,-0.206103,-0.360767,2.83786
-0.268156,0.223761,-0.258483,0.164875,-0.212987,-0.381743,2.83786
-0.288856,0.36431,-0.144382,0.163061,-0.227698,-0.395011,2.83786
-0.233895,0.450828,-0.0665691,0.137549,-0.233459,-0.437176,2.83786
-0.0937735,0.430883,-0.0322045,0.0965455,-0.226168,-0.484655,2.83786
0.0598438,0.39078,0.0194771,0.08879,-0.200347,-0.519303,2.83786
0.193224,0.422414,0.202368,0.133924,-0.154141,-0.521584,2.83786
0.401358,0.568966,0.469696,0.170934,-0.101553,-0.498066,2.83786
0.664002,0.685133,0.766471,0.168348,-0.0452976,-0.412727,2.83786
0.909605,0.661066,1.03018,0.149706,-0.00669686,-0.24878,2.83786
1.04036,0.607735,1.20036,0.104652,0.0149361,-0.0503411,2.83786
1.03019,0.534471,1.26375,0.0520069,0.0152122,0.120151,2.83786
0.942518,0.40629,1.26001,0.0257902,-0.000456527,0.245095,2.83786
0.800906,0.216366,1.26492,0.0265817,-0.0027146,0.323657,2.83786
0.676872,-0.00496102,1.32907,0.0648473,0.00932798,0.352469,2.83786
0.66272,-0.139594,1.39526,0.0837642,0.0281912,0.306242,2.83786
0.700663,-0.143229,1.41135,0.0799224,0.0525058,0.240372,2.83786
0.669595,-0.101601,1.39005,0.0860951,0.050244,0.217405,2.83786
0.593112,-0.0353063,1.32131,0.0795948,0.0532434,0.228373,2.83786
0.530313,-0.0017529,1.26093,0.090454,0.0517355,0.235958,2.83786
0.448413,-0.0927704,1.22489,0.12924,0.0574022,0.25791,2.83786
0.34589,-0.109903,1.20026,0.164752,0.0645798,0.257505,2.83786
0.34589,-0.109903,1.20026,0.164752,0.0645798,0.257505,3.04396
0.152615,-0.0977439,1.13812,0.169562,0.0580191,0.24083,3.04396
-0.00479271,-0.0674466,1.07432,0.178116,0.0490478,0.191215,3.04396
-0.0413283,-0.0530497,1.03179,0.188751,0.0588042,0.101466,3.04396
0.0501689,-0.00261264,1.0298,0.200669,0.0817253,0.010703,3.04396
0.168171,0.134095,1.03157,0.206295,0.100178,-0.0431057,3.04396
0.232499,0.324929,1.05242,0.212865,0.114902,-0.0392202,3.04396
0.204462,0.437947,1.08398,0.207694,0.137605,0.0238643,3.04396
0.121204,0.433073,1.09983,0.189545,0.138157,0.0934585,3.04396
0.0307965,0.466333,1.09611,0.169573,0.123149,0.113634,3.04396
-0.113489,0.484688,1.07464,0.149042,0.104413,0.11934,3.04396
-0.220395,0.530916,1.06315,0.140989,0.0770626,0.0979382,3.04396
-0.273027,0.529638,1.06378,0.137387,0.0546617,0.0486922,3.04396
-0.321644,0.470841,1.05279,0.115874,0.0420126,0.00387251,3.04396
-0.360587,0.463319,1.02929,0.0904645,0.0268017,-0.056653,3.04396
-0.485421,0.469921,0.991373,0.0731849,0.0117089,-0.106904,3.04396
-0.623516,0.481379,0.942862,0.0570841,-0.0127141,-0.167216,3.04396
-0.689843,0.548176,0.842742,0.0312405,-0.0464627,-0.265763,3.04396
-0.761425,0.61048,0.779205,0.00662052,-0.0551494,-0.346902,3.04396
-0.786664,0.525383,0.795452,-0.00121881,-0.0416834,-0.391411,3.04396
-0.610607,0.277825,0.823508,-0.00376028,-0.055362,-0.44577,3.04396
-0.318868,0.144418,0.82734,-0.00997409,-0.0650071,-0.486678,3.04396
-0.14241,0.34125,0.764256,-0.0564416,-0.0602015,-0.471714,3.04396
-0.166524,0.606379,0.648433,-0.101777,-0.0564667,-0.3563,3.04396
-0.164432,0.724734,0.578392,-0.0858447,-0.0630225,-0.223244,3.04396
-0.0156953,0.616563,0.586784,-0.0656722,-0.0420083,-0.146518,3.04396
0.242187,0.385299,0.718584,-0.0425731,0.00336014,-0.0971607,3.04396
0.477269,0.169914,0.843457,-0.0507042,0.0635929,-0.045369,3.04396
0.592932,-0.00991725,0.868278,-0.111824,0.107957,0.0207593,3.04396
0.606291,-0.18435,0.847927,-0.154692,0.127515,0.0835548,3.04396
0.56835,-0.364664,0.7701,-0.180754,0.143782,0.119469,3.04396
0.522625,-0.544967,0.687732,-0.203421,0.159473,0.117983,3.04396
0.533374,-0.587696,0.630058,-0.201209,0.186847,0.088907,3.04396
0.525545,-0.512399,0.545316,-0.192435,0.220053,0.0930961,3.04396
0.524679,-0.261908,0.352521,-0.224613,0.223589,0.12471,3.04396
0.473095,0.0743859,0.0513026,-0.272895,0.202168,0.162451,3.04396
0.301636,0.121312,-0.20498,-0.254618,0.184133,0.274283,3.04396
0.103208,-0.0527954,-0.255841,-0.152605,0.179133,0.387365,3.04396
0.00993367,-0.216894,-0.2016,-0.0785827,0.195044,0.407357,3.04396
-0.0551677,-0.299551,-0.207489,-0.064873,0.190751,0.390245,3.04396
-0.206105,-0.326195,-0.313359,-0.0750322,0.142291,0.38226,3.04396
-0.39981,-0.338915,-0.430217,-0.066393,0.093813,0.357783,3.04396
-0.56368,-0.312026,-0.493321,-0.0424802,0.0665098,0.286001,3.04396
-0.660296,-0.214736,-0.474597,0.00118276,0.0513522,0.193884,3.04396
-0.723195,-0.187548,-0.40744,0.0391078,0.0316328,0.12186,3.04396
-0.701905,-0.167622,-0.293302,0.061879,0.0133548,0.0465237,3.04396
-0.521422,-0.101082,-0.200922,0.0584257,-0.00553547,-0.04148,3.04396
-0.321516,0.00812078,-0.15903,0.0426386,-0.0342139,-0.0841265,3.04396
-0.30251,0.0793193,-0.0925984,0.04714,-0.0573648,-0.0278996,3.04396
-0.376413,0.048692,-0.0406713,0.0463016,-0.0708712,0.0568311,3.04396
-0.424174,-0.0413864,-0.00557752,0.0373018,-0.0916848,0.083511,3.04396
-0.383741,-0.049414,0.00885246,0.030619,-0.120396,0.0420762,3.04396
-0.304366,0.0348812,0.00557637,0.00445945,-0.13396,-0.00308633,3.04396
-0.254628,0.112259,-0.00196758,-0.00604055,-0.151123,-0.0160399,3.04396
-0.267098,0.13261,0.020967,0.0044845,-0.154802,0.00196594,3.04396
-0.267098,0.13261,0.020967,0.0044845,-0.154802,0.00196594,3.26855
-0.285301,0.099741,0.0561817,0.0098828,-0.156047,0.00813276,3.26855
-0.221772,0.102423,0.067115,6.63698e-05,-0.161096,-0.0318846,3.26855
-0.122963,0.138102,0.105681,0.0086585,-0.16127,-0.081692,3.26855
-0.0578915,0.199297,0.175168,0.0239694,-0.15869,-0.117825,3.26855
-0.112817,0.151948,0.256884,0.0344528,-0.148692,-0.12693,3.26855
-0.182677,0.0798704,0.319177,0.0221356,-0.132309,-0.166679,3.26855
-0.178403,0.023323,0.317716,0.00931023,-0.139336,-0.261878,3.26855
-0.093725,0.133908,0.256519,-0.0039247,-0.146711,-0.377564,3.26855
-0.0262358,0.329822,0.19765,-0.00995334,-0.129058,-0.455654,3.26855
-0.0712012,0.423761,0.233734,0.0157806,-0.0915275,-0.452848,3.26855
-0.161913,0.414355,0.335582,0.0451019,-0.0377095,-0.417438,3.26855
-0.145186,0.432288,0.406695,0.0469282,-0.0245299,-0.425458,3.26855
-0.0181629,0.485476,0.466717,0.0386059,-0.0273877,-0.426604,3.26855
0.182711,0.616689,0.591816,0.0538685,-0.00973672,-0.380122,3.26855
0.370823,0.644127,0.741556,0.0637737,0.0183113,-0.250055,3.26855
0.46182,0.581053,0.886009,0.0563631,0.0400268,-0.0605558,3.26855
0.493277,0.428617,1.002,0.0416982,0.0418189,0.117223,3.26855
0.442178,0.116741,1.06545,0.0407592,0.0315377,0.261806,3.26855
0.328895,-0.214738,1.08703,0.0344553,0.0255147,0.342055,3.26855
0.169778,-0.48682,1.0213,0.0216127,0.0227219,0.350789,3.26855
0.103574,-0.474986,0.917051,0.0141665,0.0192701,0.27128,3.26855
0.171304,-0.34332,0.849666,0.027318,0.0474755,0.16697,3.26855
0.26439,-0.244947,0.859674,0.0525013,0.0918688,0.13621,3.26855
0.315342,-0.206667,0.894167,0.0873123,0.118835,0.158454,3.26855
0.309569,-0.251619,0.884792,0.0964762,0.127105,0.201708,3.26855
0.268828,-0.31564,0.830989,0.0938892,0.118953,0.226437,3.26855
0.243279,-0.345582,0.763688,0.101389,0.109835,0.200947,3.26855
0.236523,-0.310174,0.697129,0.102728,0.117496,0.153234,3.26855
0.233923,-0.216675,0.657301,0.120014,0.123356,0.112204,3.26855
0.252807,-0.0725281,0.631191,0.122066,0.138805,0.0754881,3.26855
0.243529,0.00660178,0.579006,0.129463,0.13614,0.0685893,3.26855
0.169938,0.0662266,0.494541,0.117369,0.125928,0.0843959,3.26855
0.0751291,0.0994573,0.423877,0.126055,0.109003,0.0922512,3.26855
0.00302227,0.16662,0.405475,0.142291,0.110481,0.0830521,3.26855
-0.0332234,0.264973,0.421148,0.149681,0.112014,0.0612805,3.26855
-0.0780901,0.333844,0.426639,0.133899,0.10485,0.0587817,3.26855
-0.137315,0.363748,0.457919,0.130427,0.0883515,0.0829076,3.26855
-0.234332,0.376282,0.466746,0.11698,0.0701713,0.113662,3.26855
-0.373504,0.338563,0.458558,0.105752,0.0323815,0.139268,3.26855
-0.465133,0.289641,0.457011,0.106061,-0.00448658,0.128835,3.26855
-0.501121,0.262533,0.479037,0.113455,-0.0294945,0.0815356,3.26855
-0.493132,0.222701,0.535068,0.122354,-0.0346355,0.0409443,3.26855
-0.472796,0.214071,0.598956,0.132114,-0.0438985,0.00547403,3.26855
-0.423854,0.180037,0.679713,0.138705,-0.0576575,-0.0233006,3.26855
-0.33294,0.187779,0.748002,0.133479,-0.0646562,-0.0575091,3.26855
-0.245066,0.185182,0.797367,0.11257,-0.0756261,-0.0729053,3.26855
-0.163478,0.174072,0.811272,0.102954,-0.107195,-0.0726591,3.26855
-0.13359,0.134703,0.831282,0.0945855,-0.129353,-0.0585494,3.26855
-0.116972,0.0529635,0.859353,0.0874627,-0.139983,-0.044895,3.26855
-0.0476265,-0.0115923,0.829324,0.0571965,-0.152397,-0.0653365,3.26855
0.0353654,-0.0111132,0.76648,0.0290268,-0.16294,-0.0890217,3.26855
0.0729578,0.0509603,0.712955,0.00993761,-0.156061,-0.0821378,3.26855
0.108349,0.037486,0.704729,0.020347,-0.145686,-0.048512,3.26855
0.1655,-0.0473671,0.699755,0.0280693,-0.134713,-0.0229394,3.26855
0.1655,-0.0473671,0.699755,0.0280693,-0.134713,-0.0229394,3.49843
0.206993,-0.132953,0.690189,0.0315078,-0.130815,-0.000220954,3.49843
0.220785,-0.119971,0.652394,0.0271758,-0.136067,0.00587374,3.49843
0.19179,-0.0937934,0.591679,0.026278,-0.138524,0.0139743,3.49843
0.136304,-0.181616,0.539124,0.0325081,-0.136853,0.0341994,3.49843
0.104114,-0.30802,0.489166,0.0475988,-0.137363,0.0240132,3.49843
0.124244,-0.305973,0.466629,0.0648808,-0.122016,-0.0218276,3.49843
0.174397,-0.179581,0.491231,0.0966741,-0.102424,-0.0671171,3.49843
0.0788098,-0.124031,0.501824,0.12367,-0.100007,-0.0449231,3.49843
-0.202438,-0.200885,0.516256,0.142832,-0.111554,0.0349952,3.49843
-0.428764,-0.279972,0.467177,0.140765,-0.131014,0.0111194,3.49843
-0.554743,-0.380735,0.378706,0.135255,-0.146106,-0.0834196,3.49843
-0.543324,-0.354981,0.389296,0.16104,-0.124894,-0.208979,3.49843
-0.32399,-0.0764227,0.523095,0.194059,-0.0787433,-0.359446,3.49843
0.101977,0.246377,0.75056,0.223864,-0.0311381,-0.424494,3.49843
0.518319,0.280859,1.00104,0.238867,0.0169765,-0.334943,3.49843
0.733016,0.238667,1.163,0.21344,0.0439008,-0.145203,3.49843
0.737047,0.244754,1.23872,0.159781,0.0757907,0.00945705,3.49843
0.624768,0.262986,1.339,0.112586,0.12786,0.11507,3.49843
0.558761,0.230393,1.41186,0.0756512,0.17164,0.150021,3.49843
0.57877,0.113933,1.42754,0.0463062,0.177712,0.145269,3.49843
0.541522,-0.0737084,1.35835,0.0129287,0.191409,0.150982,3.49843
0.380537,-0.219453,1.22323,-0.0228944,0.21008,0.156214,3.49843
0.237735,-0.209419,1.04773,-0.0389799,0.215274,0.115943,3.49843
0.200283,-0.0707446,0.874037,-0.0388906,0.224186,0.0331718,3.49843
0.221984,0.048799,0.792883,-0.000174887,0.244167,-0.0210621,3.49843
0.279746,0.210283,0.812637,0.0461667,0.27299,-0.0349805,3.49843
0.284101,0.332876,0.879246,0.0825593,0.290121,0.0165318,3.49843
0.152174,0.387457,0.900759,0.0864457,0.270027,0.119482,3.49843
-0.0508407,0.360732,0.84528,0.0620184,0.220089,0.212941,3.49843
-0.225047,0.318991,0.748107,0.0569034,0.159486,0.245431,3.49843
-0.368459,0.318106,0.701893,0.069729,0.127861,0.234,3.49843
-0.508789,0.29522,0.745055,0.107161,0.118413,0.218977,3.49843
-0.618352,0.254951,0.824667,0.126676,0.092739,0.190043,3.49843
-0.677228,0.198372,0.880049,0.137448,0.048228,0.140152,3.49843
-0.773474,0.165188,0.908839,0.127921,0.0116582,0.0919387,3.49843
-0.897796,0.192396,0.969761,0.127529,-0.0176655,0.0338497,3.49843
-0.913877,0.272362,1.05347,0.123425,-0.0315393,-0.0545433,3.49843
-0.699221,0.223159,1.15316,0.105072,-0.0450018,-0.154585,3.49843
-0.368676,0.082813,1.27514,0.105867,-0.0535031,-0.218724,3.49843
-0.196612,0.00187804,1.40799,0.118271,-0.0611177,-0.20286,3.49843
-0.177193,0.0877837,1.48083,0.0926624,-0.0671392,-0.167352,3.49843
-0.136826,0.188923,1.48406,0.0525598,-0.080341,-0.15283,3.49843
0.00740778,0.288091,1.49206,0.0436226,-0.0954306,-0.152438,3.49843
0.171025,0.284503,1.5399,0.0599624,-0.100199,-0.120502,3.49843
0.284236,0.234504,1.61939,0.0909135,-0.111648,-0.0556206,3.49843
0.332964,0.183837,1.71212,0.113302,-0.129292,0.00577337,3.49843
0.347318,0.190366,1.76182,0.109495,-0.154199,0.0409508,3.49843
0.314909,0.132958,1.7484,0.0840783,-0.172952,0.0655769,3.49843
0.28884,0.0429329,1.70938,0.0642287,-0.18509,0.0489218,3.49843
0.364665,0.0790631,1.66294,0.0651355,-0.178343,-0.0347,3.49843
0.433157,0.331794,1.61254,0.0582186,-0.155546,-0.111307,3.49843
0.359772,0.461643,1.55338,0.0640816,-0.141302,-0.109934,3.49843
0.196419,0.337669,1.5125,0.0940306,-0.139032,-0.0829074,3.49843
0.0835504,0.136447,1.4496,0.105936,-0.131251,-0.139403,3.49843
0.0835504,0.136447,1.4496,0.105936,-0.131251,-0.139403,3.70189
0.0275231,0.0305854,1.39508,0.0969699,-0.104371,-0.275573,3.70189
0.116466,0.15089,1.3745,0.11634,-0.0673777,-0.41358,3.70189
0.278211,0.504927,1.37131,0.108348,0.0134205,-0.516533,3.70189
0.320804,0.634788,1.27222,0.052205,0.0836528,-0.493972,3.70189
0.296943,0.548362,1.11926,0.00308237,0.113553,-0.420389,3.70189
0.39526,0.396379,1.08952,0.0384481,0.146973,-0.368557,3.70189
0.786883,0.464387,1.17094,0.10086,0.200221,-0.36583,3.70189
1.19714,0.775658,1.34248,0.158603,0.241053,-0.322158,3.70189
1.20258,0.907073,1.51263,0.158304,0.316783,-0.130699,3.70189
1.01912,0.687727,1.54487,0.120182,0.285376,0.0489148,3.70189
0.883525,0.345983,1.37836,0.0771702,0.216972,0.110721,3.70189
0.834527,0.20916,1.20604,0.0723883,0.196194,0.0800442,3.70189
0.804621,0.301647,1.12016,0.0802172,0.230432,0.0221729,3.70189
0.760289,0.334512,1.07301,0.0990631,0.255636,0.0195917,3.70189
0.736589,0.314417,1.0562,0.114142,0.259949,0.0368878,3.70189
0.787913,0.348087,1.05298,0.108749,0.271932,0.0376999,3.70189
0.807984,0.382522,1.01424,0.0840677,0.278174,0.0603529,3.70189
0.75364,0.409413,0.940508,0.0507934,0.262033,0.119235,3.70189
0.71606,0.509673,0.790182,0.0084978,0.234567,0.139852,3.70189
0.688091,0.613456,0.630675,-0.0087647,0.225063,0.153996,3.70189
0.676379,0.705128,0.512297,-0.00436895,0.238503,0.164899,3.70189
0.531956,0.803818,0.471843,0.0141347,0.248494,0.202808,3.70189
0.231539,0.965164,0.449396,0.0219018,0.243829,0.281699,3.70189
-0.259852,0.278865,0.406997,0.0584408,0.178878,0.428301,3.70189
-0.342432,0.160701,0.432064,0.0740567,0.160532,0.322572,3.70189
-0.350735,0.241886,0.448408,0.019954,0.190391,0.173374,3.70189
-0.501574,0.153749,0.495002,-0.0027959,0.163587,0.173409,3.70189
-0.514177,0.00561493,0.542961,0.032784,0.115203,0.11823,3.70189
-0.48467,-0.0349492,0.585739,0.00941984,0.0889222,0.0179628,3.70189
-0.525174,-0.201067,0.616436,-0.00229856,0.0568122,-0.0273193,3.70189
-0.564346,-0.266202,0.564053,-0.0356679,0.0211375,-0.0957098,3.70189
-0.533868,-0.197421,0.451857,-0.0808014,-0.00650215,-0.208825,3.70189
-0.500716,-0.106371,0.382605,-0.0951197,-0.01943,-0.293033,3.70189
-0.562076,-0.277109,0.427123,-0.0516996,-0.0120763,-0.286914,3.70189
-0.657273,-0.466809,0.445262,-0.0628131,-0.00314564,-0.307884,3.70189
-0.686632,-0.604965,0.366616,-0.119936,-0.0189042,-0.376741,3.70189
-0.672889,-0.541016,0.145183,-0.175314,-0.0271435,-0.446335,3.70189
-0.718701,-0.39725,-0.0422403,-0.196026,0.00344132,-0.444445,3.70189
-0.800818,-0.37056,-0.124816,-0.144547,0.0284252,-0.380979,3.70189
-0.739539,-0.381825,-0.180764,-0.108133,0.0400989,-0.357812,3.70189
-0.567237,-0.363068,-0.209416,-0.0992397,0.0458615,-0.353604,3.70189
-0.299217,-0.185055,-0.226676,-0.096592,0.061966,-0.339445,3.70189
-0.0476853,-0.0677557,-0.20361,-0.0821739,0.0837169,-0.252799,3.70189
0.154238,-0.0552748,-0.164223,-0.0654386,0.105093,-0.117491,3.70189
0.223758,-0.138334,-0.167864,-0.0704661,0.116689,0.0294188,3.70189
0.232533,-0.248552,-0.178334,-0.0877938,0.120349,0.141232,3.70189
0.260989,-0.38012,-0.200937,-0.100505,0.117258,0.214117,3.70189
0.290682,-0.468304,-0.263174,-0.123642,0.13347,0.265174,3.70189
0.264425,-0.492165,-0.40398,-0.159238,0.149938,0.313827,3.70189
0.168436,-0.381514,-0.610942,-0.180311,0.146348,0.352251,3.70189
0.0332443,-0.318124,-0.783724,-0.158293,0.144811,0.408319,3.70189
-0.0350495,-0.259167,-0.895864,-0.128557,0.154078,0.432234,3.70189
-0.0374098,-0.335318,-0.951247,-0.0878568,0.174917,0.443693,3.70189
-0.0374098,-0.335318,-0.951247,-0.0878568,0.174917,0.443693,3.89478
-0.0792516,-0.497668,-0.917742,-0.0264781,0.189359,0.465861,3.89478
-0.184033,-0.685442,-0.850316,0.0357184,0.177568,0.469978,3.89478
-0.336849,-0.817148,-0.815864,0.0591563,0.151094,0.428346,3.89478
-0.498955,-0.854552,-0.823656,0.0390042,0.1283,0.348059,3.89478
-0.585963,-0.774801,-0.974451,0.0129462,0.0732654,0.234792,3.89478
-0.699629,-0.619435,-1.1843,-0.00688969,0.0230295,0.150281,3.89478
-0.965457,-0.379267,-1.27349,0.0652764,-0.0127488,0.127009,3.89478
-1.30826,-0.152292,-1.22069,0.138802,-0.00974032,0.117729,3.89478
-1.51897,-0.0192869,-1.08665,0.194619,-0.0298962,0.0483859,3.89478
-1.49004,-0.00751636,-0.945857,0.210705,-0.071179,-0.0790043,3.89478
-1.21701,-0.0571101,-0.784602,0.200316,-0.103733,-0.217023,3.89478
-0.753843,-0.135353,-0.556111,0.21149,-0.125849,-0.311755,3.89478
-0.300766,-0.154049,-0.314711,0.232065,-0.138594,-0.323748,3.89478
-0.137387,-0.0883117,-0.112302,0.232711,-0.16648,-0.232366,3.89478
-0.195862,0.0161442,-0.00806335,0.191082,-0.198277,-0.117676,3.89478
-0.248835,0.120518,-0.0439157,0.126411,-0.239712,-0.0907227,3.89478
-0.213036,0.115859,-0.114026,0.103056,-0.270201,-0.100595,3.89478
-0.110558,0.0453483,-0.077037,0.132237,-0.259309,-0.129958,3.89478
-0.0658391,-0.0324668,0.0679159,0.168772,-0.20772,-0.167304,3.89478
-0.0998033,-0.0563629,0.231711,0.161699,-0.146987,-0.209367,3.89478
-0.100147,0.0212454,0.330169,0.122732,-0.108339,-0.295015,3.89478
-0.109875,0.14461,0.35489,0.0488406,-0.0759749,-0.378629,3.89478
-0.158831,0.276725,0.388984,0.0200536,-0.072644,-0.42015,3.89478
-0.237677,0.463446,0.416645,0.00051792,-0.0598471,-0.430279,3.89478
-0.310668,0.69701,0.434129,-0.0179361,-0.0514328,-0.412179,3.89478
-0.390349,0.790228,0.397627,-0.0242219,-0.0664597,-0.359868,3.89478
-0.373981,0.729237,0.388336,-0.0231114,-0.0838906,-0.310434,3.89478
-0.14355,0.547367,0.464156,0.0143485,-0.0660306,-0.292301,3.89478
0.139014,0.422386,0.636453,0.0486571,-0.0245833,-0.259291,3.89478
0.409294,0.389186,0.93757,0.124744,0.0168541,-0.188187,3.89478
0.743358,0.509803,1.25963,0.156158,0.0563319,-0.127974,3.89478
0.981768,0.509462,1.4025,0.107669,0.0740882,-0.0106474,3.89478
1.02314,0.315859,1.37987,0.0501276,0.0361359,0.142563,3.89478
0.915422,0.0666754,1.28579,0.0228376,0.0135882,0.257041,3.89478
0.83685,-0.0475883,1.21761,0.0445453,0.0130564,0.285247,3.89478
0.8144,0.03651,1.17454,0.0596546,0.0499828,0.251204,3.89478
0.845906,0.205969,1.15039,0.0726378,0.0842573,0.223025,3.89478
0.939243,0.302018,1.11488,0.0901086,0.0873824,0.218564,3.89478
0.980388,0.284921,1.04367,0.0898864,0.0953482,0.25349,3.89478
0.84494,0.213752,0.964936,0.0998486,0.0969823,0.304175,3.89478
0.594944,0.347881,0.792408,0.0925357,0.0797253,0.301993,3.89478
0.366967,0.532959,0.581977,0.0842237,0.04212,0.251448,3.89478
0.289727,0.596296,0.43998,0.113829,0.0254599,0.181746,3.89478
0.197749,0.535138,0.375555,0.16435,0.050544,0.141,3.89478
0.129094,0.413403,0.42169,0.20141,0.0700707,0.0983555,3.89478
0.218425,0.35233,0.449643,0.187153,0.0960822,-0.000141561,3.89478
0.317725,0.445098,0.464297,0.170631,0.112519,-0.0716333,3.89478
0.278648,0.676877,0.529156,0.142503,0.13658,-0.0710454,3.89478
0.212286,0.824295,0.559087,0.102983,0.138656,-0.0303373,3.89478
0.104087,0.810704,0.545763,0.0668413,0.124246,0.0274249,3.89478
-0.0106221,0.651959,0.539698,0.0526637,0.0979533,0.0724919,3.89478
-0.0741569,0.498374,0.512531,0.0375521,0.0840887,0.0599119,3.89478
-0.112748,0.431287,0.523954,0.0169301,0.0992339,0.0236719,3.89478
-0.179849,0.368869,0.56715,0.0201723,0.0971091,-0.00848609,3.89478
-0.179849,0.368869,0.56715,0.0201723,0.0971091,-0.00848609,4.06125
-0.251362,0.328152,0.550395,-0.0108153,0.0938753,-0.0419594,4.06125
-0.310126,0.267531,0.522202,-0.0531008,0.0735521,-0.0936258,4.06125
-0.389507,0.101946,0.48538,-0.0678895,0.0559038,-0.124613,4.06125
-0.508766,-0.153062,0.45585,-0.0735397,0.0368453,-0.146496,4.06125
-0.555446,-0.382075,0.401864,-0.0911793,0.018744,-0.223261,4.06125
-0.532183,-0.445752,0.287864,-0.118806,-0.0131421,-0.329391,4.06125
-0.503956,-0.316462,0.108569,-0.156472,-0.0310131,-0.417501,4.06125
-0.473766,-0.109607,-0.101946,-0.176288,-0.0599776,-0.458303,4.06125
-0.367606,0.0503569,-0.306339,-0.16943,-0.0851671,-0.460948,4.06125
-0.136993,0.188074,-0.413707,-0.142011,-0.0800934,-0.441685,4.06125
0.151598,0.275742,-0.434783,-0.094039,-0.0526927,-0.371485,4.06125
0.356014,0.297237,-0.403696,-0.0594836,-0.0220355,-0.253092,4.06125
0.464112,0.206728,-0.38689,-0.0713809,0.00776917,-0.135188,4.06125
0.528023,0.0316711,-0.424613,-0.0970967,0.0315752,-0.0606223,4.06125
0.598698,-0.0795854,-0.449935,-0.111485,0.0737399,-0.0260553,4.06125
0.709744,-0.00162692,-0.406633,-0.101105,0.131108,-0.0319865,4.06125
0.830826,0.106285,-0.332075,-0.0994923,0.185905,0.00204057,4.06125
0.93052,0.0997876,-0.249588,-0.0973088,0.206382,0.092205,4.06125
0.973082,0.0248,-0.219202,-0.105196,0.21609,0.203923,4.06125
0.891244,-0.0413555,-0.207272,-0.115241,0.218061,0.314117,4.06125
0.746003,-0.11649,-0.22208,-0.114107,0.20413,0.406115,4.06125
0.564576,-0.21779,-0.288074,-0.118744,0.188562,0.463805,4.06125
0.357514,-0.351889,-0.382892,-0.126746,0.163417,0.48848,4.06125
0.160544,-0.483471,-0.48732,-0.116225,0.142792,0.469895,4.06125
0.015665,-0.524583,-0.563619,-0.100767,0.134016,0.400232,4.06125
-0.0970732,-0.519338,-0.578914,-0.0701596,0.126171,0.314995,4.06125
-0.180043,-0.505405,-0.531028,-0.0271961,0.113017,0.239284,4.06125
-0.209458,-0.411458,-0.487865,-0.0151952,0.0906124,0.157605,4.06125
-0.235836,-0.364272,-0.471197,-0.0318083,0.0558507,0.0904553,4.06125
-0.29487,-0.340138,-0.511721,-0.0612708,0.0223344,0.0584441,4.06125
-0.357216,-0.250216,-0.619504,-0.099034,-0.0243704,0.0246691,4.06125
-0.461855,-0.158338,-0.695651,-0.0766849,-0.0612876,0.0127992,4.06125
-0.549258,-0.0992767,-0.667489,-0.0416495,-0.0597476,0.0146813,4.06125
-0.560574,-0.145848,-0.580773,-0.0104262,-0.0590948,9.0301e-05,4.06125
-0.459216,-0.253179,-0.514463,-0.0115848,-0.0706307,-0.0271121,4.06125
-0.299991,-0.324918,-0.448691,-0.0146209,-0.0888238,-0.0623165,4.06125
-0.154246,-0.310458,-0.35898,-0.000220805,-0.0961889,-0.0743234,4.06125
-0.0679603,-0.264825,-0.269934,0.000434272,-0.0895294,-0.0560893,4.06125
-0.00285205,-0.244727,-0.236951,-0.00940272,-0.10482,-0.0247113,4.06125
-0.00121311,-0.242394,-0.275953,-0.029155,-0.114906,0.00157708,4.06125
-0.047737,-0.201058,-0.321485,-0.0368106,-0.118991,0.0235804,4.06125
-0.0562234,-0.19536,-0.367696,-0.0340408,-0.120657,0.00630999,4.06125
-0.0298328,-0.204051,-0.355124,-0.00738806,-0.121316,-0.0255886,4.06125
0.00512278,-0.185567,-0.315684,0.0245864,-0.113578,-0.075651,4.06125
-0.0282054,-0.14692,-0.289704,0.0214971,-0.10091,-0.1112,4.06125
-0.0916007,-0.104528,-0.284675,0.0136354,-0.116629,-0.152487,4.06125
-0.0844532,0.000793496,-0.283742,0.0136304,-0.121355,-0.216907,4.06125
-0.0186036,0.131285,-0.31719,-0.00294536,-0.113126,-0.275857,4.06125
0.0378144,0.308547,-0.38475,-0.0307358,-0.106201,-0.309191,4.06125
-0.0284867,0.388784,-0.441488,-0.039051,-0.0955766,-0.269205,4.06125
-0.145039,0.355202,-0.471775,-0.0320001,-0.0709555,-0.204874,4.06125
-0.130071,0.435782,-0.463241,-0.00711519,-0.0523501,-0.195588,4.06125
-0.0699473,0.484307,-0.416886,0.0195614,-0.0296428,-0.15455,4.06125
-0.0503042,0.416736,-0.294459,0.0702272,-0.00931732,-0.0508331,4.06125
-0.0503042,0.416736,-0.294459,0.0702272,-0.00931732,-0.0508331,4.21979
-0.0203844,0.207513,-0.103756,0.126643,0.00100933,0.0414303,4.21979
0.0352542,-0.0464993,0.111184,0.160398,0.0217021,0.0876717,4.21979
0.065718,-0.173783,0.326899,0.177266,0.0397983,0.111686,4.21979
0.0114353,-0.207746,0.460325,0.171361,0.0374964,0.125386,4.21979
-0.111294,-0.31835,0.517999,0.159776,0.0246004,0.134156,4.21979
-0.11932,-0.396393,0.519136,0.138008,0.0135228,0.0742896,4.21979
0.0401417,-0.330233,0.520389,0.13915,0.0160174,-0.0440341,4.21979
0.198947,-0.123563,0.572363,0.158693,0.0425939,-0.0955852,4.21979
0.236828,0.107021,0.646821,0.164196,0.0722892,-0.0610041,4.21979
0.212515,0.214245,0.697494,0.154857,0.0861519,0.0241895,4.21979
0.173322,0.20147,0.685485,0.127655,0.0814915,0.114364,4.21979
0.116279,0.159363,0.682656,0.119992,0.0731848,0.182172,4.21979
0.0683064,0.115566,0.716352,0.136586,0.0770496,0.224617,4.21979
0.0521352,0.0641106,0.785788,0.162642,0.0736282,0.237216,4.21979
0.0209737,0.0112227,0.851243,0.186001,0.067489,0.240798,4.21979
-0.0900287,0.0144026,0.870086,0.174793,0.0663642,0.245925,4.21979
-0.17501,0.0526501,0.861449,0.162311,0.0513414,0.216566,4.21979
-0.214515,0.14255,0.852492,0.16097,0.044099,0.161686,4.21979
-0.241402,0.20483,0.890707,0.168135,0.0454028,0.127781,4.21979
-0.226604,0.242446,0.909593,0.154784,0.0421625,0.0916308,4.21979
-0.196258,0.26595,0.891952,0.12138,0.043118,0.0683526,4.21979
-0.20932,0.256285,0.866558,0.0998918,0.0367395,0.0632463,4.21979
-0.222974,0.209687,0.85311,0.0930113,0.0276475,0.054821,4.21979
-0.225583,0.219373,0.852606,0.0745915,0.0411325,0.0186217,4.21979
-0.249508,0.234902,0.879684,0.0650229,0.0441187,-0.00598645,4.21979
-0.28158,0.277204,0.839934,0.0439306,0.0364451,-0.0184722,4.21979
-0.372901,0.270363,0.743264,-0.00445615,0.0317894,-0.0118189,4.21979
-0.521007,0.209477,0.641516,-0.0107996,0.00836115,-0.000296116,4.21979
-0.650282,0.125003,0.55657,-0.0174691,0.00285535,-0.0347817,4.21979
-0.797675,-0.0506263,0.507015,-0.0173271,0.00410034,-0.0887832,4.21979
-0.827911,-0.216766,0.5237,0.0184077,-0.0134562,-0.183054,4.21979
-0.720501,-0.366937,0.504941,0.00883684,-0.0161978,-0.319195,4.21979
-0.666348,-0.495546,0.48025,0.000567328,-0.0177885,-0.409113,4.21979
-0.653532,-0.60935,0.490853,0.0263331,-0.0340793,-0.465089,4.21979
-0.527886,-0.58226,0.545452,0.0471819,-0.0325397,-0.561104,4.21979
-0.247618,-0.390349,0.57777,0.0296002,-0.0177116,-0.651484,4.21979
-0.0252513,-0.0308789,0.449334,-0.0707708,-0.00223511,-0.653952,4.21979
-0.016987,0.182147,0.154929,-0.145904,-0.0342737,-0.507879,4.21979
0.032442,0.294552,-0.0517252,-0.132777,-0.0666793,-0.360278,4.21979
0.315607,0.333867,-0.0499699,-0.0769328,-0.0228544,-0.293509,4.21979
0.736422,0.335087,0.0610848,-0.0628406,0.0645438,-0.207804,4.21979
0.979255,0.323061,0.141771,-0.0711774,0.115249,-0.0614418,4.21979
0.902846,0.384385,0.136677,-0.0993437,0.128535,0.115141,4.21979
0.645932,0.416183,0.094057,-0.137357,0.128819,0.255468,4.21979
0.477522,0.307229,0.0591572,-0.154216,0.129208,0.317214,4.21979
0.487847,0.13427,0.0629442,-0.150109,0.148069,0.316418,4.21979
0.552868,-0.0088573,0.0980273,-0.141185,0.168363,0.314725,4.21979
0.550112,-0.102578,0.109584,-0.137025,0.176989,0.345733,4.21979
0.464549,-0.157189,0.0452819,-0.143105,0.164692,0.380137,4.21979
0.332316,-0.170024,-0.0724059,-0.14544,0.144699,0.388892,4.21979
0.207312,-0.145473,-0.158627,-0.128675,0.132162,0.369444,4.21979
0.118779,-0.109393,-0.205947,-0.0991719,0.135757,0.327255,4.21979
0.0696837,-0.19533,-0.195868,-0.0866684,0.146515,0.283484,4.21979
0.112994,-0.352835,-0.184442,-0.062706,0.134368,0.234596,4.21979
0.112994,-0.352835,-0.184442,-0.062706,0.134368,0.234596,4.38625
0.068963,-0.412187,-0.215771,-0.0526436,0.123611,0.197164,4.38625
-0.139407,-0.351582,-0.293822,-0.077959,0.108868,0.18755,4.38625
-0.349534,-0.258991,-0.402823,-0.0913058,0.0858964,0.160765,4.38625
-0.43936,-0.150404,-0.460567,-0.0841669,0.0696798,0.0925513,4.38625
-0.45069,-0.132687,-0.451838,-0.0720849,0.0758965,0.0409488,4.38625
-0.41231,-0.162661,-0.445252,-0.0600989,0.0543716,0.00798774,4.38625
-0.356704,-0.138915,-0.463087,-0.0655908,0.0329462,-0.0143508,4.38625
-0.336128,-0.107143,-0.448118,-0.0663541,0.0229823,-0.0113758,4.38625
-0.312699,-0.107644,-0.437356,-0.0665587,0.0144946,0.0151526,4.38625
-0.29971,-0.134282,-0.444723,-0.0653858,-0.00798845,0.0386561,4.38625
-0.298787,-0.1272,-0.455281,-0.0610014,-0.0326566,0.0670491,4.38625
-0.307913,-0.118241,-0.483877,-0.0658077,-0.0469707,0.0890507,4.38625
-0.339103,-0.124297,-0.502779,-0.0659626,-0.0542833,0.106253,4.38625
-0.395892,-0.164718,-0.526366,-0.0586532,-0.067423,0.120648,4.38625
-0.465405,-0.239329,-0.556107,-0.0448278,-0.0913665,0.108873,4.38625
-0.513749,-0.276155,-0.572258,-0.0289965,-0.0984985,0.0570937,4.38625
-0.493047,-0.264401,-0.584419,-0.015233,-0.0981719,-0.0414091,4.38625
-0.445087,-0.200936,-0.606002,-0.0159601,-0.103538,-0.147013,4.38625
-0.358579,-0.11524,-0.583287,0.016008,-0.115419,-0.229857,4.38625
-0.209987,0.0464477,-0.522388,0.0381934,-0.110808,-0.328121,4.38625
-0.0462356,0.222608,-0.442212,0.053152,-0.110887,-0.383879,4.38625
0.0235276,0.308647,-0.468213,0.015943,-0.118801,-0.376073,4.38625
-0.0166393,0.318041,-0.583342,-0.0264134,-0.14743,-0.338179,4.38625
-0.109472,0.315333,-0.700222,-0.0261527,-0.158988,-0.318392,4.38625
-0.154448,0.410222,-0.741569,-0.0022079,-0.139403,-0.350895,4.38625
-0.15858,0.465441,-0.695643,0.0275466,-0.0975492,-0.388888,4.38625
-0.00413873,0.519277,-0.519153,0.092954,-0.0696103,-0.407714,4.38625
0.340084,0.613039,-0.291659,0.121236,-0.0305872,-0.41781,4.38625
0.744454,0.753089,-0.0153193,0.120185,0.0153548,-0.365446,4.38625
1.03593,0.770369,0.231621,0.120711,0.0286924,-0.203074,4.38625
1.12789,0.557812,0.411842,0.0929914,0.0451654,0.00968409,4.38625
1.03492,0.184122,0.492701,0.0641645,0.0410492,0.177944,4.38625
0.871142,-0.146676,0.39619,0.0109183,0.0159182,0.235937,4.38625
0.732749,-0.210423,0.239517,-0.0131742,-0.00189976,0.210578,4.38625
0.647531,-0.0605201,0.163167,0.00959592,0.0331425,0.14941,4.38625
0.630303,0.111642,0.195868,0.0500816,0.0905259,0.118685,4.38625
0.635647,0.144472,0.269582,0.0844361,0.131292,0.142529,4.38625
0.627834,0.131249,0.318073,0.0751894,0.146786,0.187,4.38625
0.580328,0.153102,0.318888,0.0638037,0.143586,0.227639,4.38625
0.543206,0.169327,0.294378,0.0522955,0.145469,0.265063,4.38625
0.485446,0.224141,0.257146,0.043818,0.142753,0.280538,4.38625
0.316968,0.182516,0.239703,0.0470318,0.142141,0.321613,4.38625
0.116038,0.132087,0.256092,0.0647076,0.134154,0.344844,4.38625
-0.0368909,0.0897683,0.259131,0.0611249,0.127121,0.316132,4.38625
-0.15299,0.0595604,0.225321,0.0566406,0.109997,0.269065,4.38625
-0.283041,0.0610488,0.198731,0.0560063,0.0967923,0.232462,4.38625
-0.359726,0.0861005,0.200266,0.0727114,0.0765975,0.192415,4.38625
-0.398335,0.0731885,0.243805,0.0992759,0.068073,0.162634,4.38625
-0.494591,0.0384957,0.338321,0.125413,0.0707976,0.162081,4.38625
-0.570094,-0.0216426,0.411511,0.136662,0.036699,0.146279,4.38625
-0.577717,-0.0595761,0.443791,0.124467,-0.00372592,0.0890223,4.38625
-0.58876,-0.0371952,0.514755,0.132766,-0.0318492,0.0400794,4.38625
-0.568314,0.00360676,0.598176,0.131654,-0.0492069,-0.00383323,4.38625
-0.487074,0.0509345,0.659524,0.113528,-0.0609055,-0.0464126,4.38625
-0.487074,0.0509345,0.659524,0.113528,-0.0609055,-0.0464126,4.53951
-0.397787,0.107798,0.702099,0.0984021,-0.0755324,-0.0648472,4.53951
-0.410845,0.0607645,0.716504,0.086463,-0.090518,-0.0408459,4.53951
-0.495296,-0.0533661,0.688709,0.0664583,-0.104183,-0.0277942,4.53951
-0.601304,-0.19128,0.605014,0.045347,-0.116346,-0.0680855,4.53951
-0.667901,-0.214002,0.563576,0.0369017,-0.114006,-0.170773,4.53951
-0.656282,-0.146422,0.577248,0.0484264,-0.104011,-0.300021,4.53951
-0.500127,-0.0637632,0.667229,0.0486698,-0.0855503,-0.414936,4.53951
-0.290077,-0.0646276,0.740269,-0.00111356,-0.0688417,-0.47396,4.53951
-0.262689,-0.180364,0.589554,-0.101692,-0.0874139,-0.453339,4.53951
-0.401054,-0.357609,0.283804,-0.193086,-0.141631,-0.423378,4.53951
-0.454754,-0.492487,0.0030871,-0.225295,-0.154626,-0.468358,4.53951
-0.310106,-0.480239,-0.113638,-0.176549,-0.101146,-0.560223,4.53951
-0.0678635,-0.387314,-0.135298,-0.140542,-0.0350469,-0.615522,4.53951
0.234076,-0.193091,-0.130673,-0.139314,-0.000926964,-0.614194,4.53951
0.55455,-0.0191322,-0.147089,-0.160506,0.0345566,-0.53376,4.53951
0.897025,0.150052,-0.182276,-0.17373,0.0666999,-0.398976,4.53951
1.13682,0.313294,-0.192748,-0.174927,0.114967,-0.215343,4.53951
1.13917,0.312886,-0.181212,-0.181205,0.173384,0.00393569,4.53951
0.978151,0.0704757,-0.107544,-0.162354,0.203722,0.203106,4.53951
0.829065,-0.304549,-0.0773255,-0.163892,0.214376,0.30585,4.53951
0.761483,-0.633738,-0.182952,-0.204338,0.206627,0.324817,4.53951
0.724656,-0.715254,-0.355989,-0.226139,0.203648,0.306813,4.53951
0.660189,-0.634066,-0.526624,-0.217155,0.221657,0.315974,4.53951
0.582168,-0.495612,-0.652863,-0.172856,0.237709,0.352989,4.53951
0.518907,-0.379673,-0.782584,-0.134141,0.241258,0.377191,4.53951
0.452773,-0.422728,-0.920032,-0.111183,0.24348,0.386542,4.53951
0.453684,-0.453955,-0.99932,-0.0679305,0.247727,0.349735,4.53951
0.479171,-0.399863,-1.0236,-0.0226006,0.260156,0.307856,4.53951
0.401784,-0.344528,-0.968944,0.0420012,0.261117,0.310595,4.53951
0.203957,-0.249379,-0.924855,0.0543742,0.254047,0.33001,4.53951
-0.0287946,-0.209181,-0.948779,0.0329568,0.211128,0.325191,4.53951
-0.221478,-0.249701,-0.995099,0.0336843,0.154455,0.28584,4.53951
-0.33711,-0.20601,-1.01114,0.0270039,0.124162,0.223863,4.53951
-0.402945,-0.0875159,-0.993545,0.0219708,0.0965186,0.155331,4.53951
-0.397236,0.0844863,-0.955444,0.00484947,0.0617696,0.101467,4.53951
-0.379013,0.143754,-0.898897,0.0173601,0.0205869,0.0896971,4.53951
-0.441043,0.078828,-0.831124,0.0233273,-0.010404,0.130134,4.53951
-0.521851,-0.0296758,-0.751984,0.029901,-0.0460064,0.147032,4.53951
-0.515752,-0.0622132,-0.687611,0.0308352,-0.0788936,0.100237,4.53951
-0.468656,-0.0644547,-0.62427,0.0343281,-0.11123,0.0458679,4.53951
-0.443894,-0.0760546,-0.525827,0.0507819,-0.135014,0.0119981,4.53951
-0.439918,-0.110331,-0.431293,0.0647522,-0.15586,-0.0186146,4.53951
-0.461969,-0.18196,-0.357441,0.0452799,-0.174136,-0.0561739,4.53951
-0.456058,-0.210887,-0.30427,0.0424829,-0.187819,-0.123093,4.53951
-0.363865,-0.179111,-0.31481,0.0271183,-0.177655,-0.216236,4.53951
-0.204224,-0.0202804,-0.331673,0.00844475,-0.139974,-0.320635,4.53951
-0.0532931,0.211396,-0.243674,0.0586777,-0.0965632,-0.367837,4.53951
0.0018998,0.455766,-0.0928706,0.0945731,-0.0283755,-0.344808,4.53951
-0.0789749,0.497728,0.0488261,0.11547,-0.00663498,-0.259489,4.53951
-0.246128,0.338145,0.121871,0.129655,-0.0297776,-0.172113,4.53951
-0.459772,0.267127,0.176504,0.119567,-0.0484887,-0.158335,4.53951
-0.56066,0.36237,0.180945,0.0859733,-0.0561683,-0.23406,4.53951
-0.488214,0.458523,0.208385,0.0657432,-0.0470679,-0.317144,4.53951
-0.488214,0.458523,0.208385,0.0657432,-0.0470679,-0.317144,4.72711
-0.274615,0.552333,0.343482,0.10493,-0.0368833,-0.343327,4.72711
0.0565731,0.676473,0.562559,0.148073,-0.016101,-0.310279,4.72711
0.334822,0.775383,0.792436,0.15926,0.021174,-0.194145,4.72711
0.447362,0.719783,0.96881,0.145291,0.028136,-0.00437504,4.72711
0.433747,0.527555,1.06236,0.119655,0.0143424,0.167364,4.72711
0.305512,0.235868,1.09708,0.10046,-0.00221108,0.27614,4.72711
0.114233,-0.0110225,1.06339,0.0866135,-0.0235509,0.331192,4.72711
-0.0284987,-0.0726934,1.01511,0.0909398,-0.0384519,0.306009,4.72711
-0.0736193,0.00923833,0.989649,0.0880668,-0.0127183,0.226036,4.72711
-0.0287455,0.078429,0.995999,0.101226,0.00510688,0.15526,4.72711
0.0558265,0.0238957,0.976207,0.116234,0.00345898,0.123827,4.72711
0.0758638,-0.0263643,0.949533,0.130571,0.00759941,0.112055,4.72711
0.0507797,-0.0350385,0.967891,0.157054,0.0226934,0.0977041,4.72711
0.0981405,0.0616416,0.996134,0.184757,0.0384253,0.0518225,4.72711
0.240744,0.200759,1.06609,0.205124,0.0579862,0.00520259,4.72711
0.318717,0.214841,1.14431,0.202184,0.0832497,0.0195417,4.72711
0.312188,0.158755,1.20318,0.192502,0.0920433,0.0730391,4.72711
0.235931,0.0917538,1.19168,0.171119,0.0884159,0.102598,4.72711
0.110698,0.0871536,1.13039,0.141768,0.080015,0.101763,4.72711
0.0231024,0.12846,1.05447,0.112493,0.0811931,0.0595974,4.72711
0.0187457,0.209878,1.01055,0.097808,0.0975875,0.00043118,4.72711
0.0591428,0.276507,1.03082,0.105282,0.118206,-0.0215631,4.72711
0.0915236,0.390186,1.04423,0.0839998,0.136832,-0.0133449,4.72711
0.0371692,0.421435,0.97339,0.038617,0.125341,0.0522989,4.72711
-0.0938515,0.416189,0.883405,0.0164518,0.0933032,0.119818,4.72711
-0.270401,0.359457,0.833135,0.00593875,0.0854035,0.166063,4.72711
-0.334665,0.332978,0.836808,0.0229078,0.0668968,0.150084,4.72711
-0.354428,0.300866,0.842828,0.0156691,0.0582038,0.122359,4.72711
-0.438408,0.257356,0.828205,-0.00476155,0.0336221,0.12319,4.72711
-0.550786,0.21983,0.788842,-0.0261566,0.00216407,0.127802,4.72711
-0.646908,0.184244,0.758869,-0.0464772,-0.0207063,0.104252,4.72711
-0.664365,0.166839,0.739215,-0.0593692,-0.0437235,0.061404,4.72711
-0.597943,0.115429,0.76521,-0.0567895,-0.0592928,0.0202296,4.72711
-0.496462,0.0620311,0.831439,-0.0517434,-0.0629731,-0.000240445,4.72711
-0.458272,0.0310523,0.836448,-0.0705213,-0.0785323,0.00866199,4.72711
-0.465995,-0.00196764,0.800938,-0.0826477,-0.105937,0.0433795,4.72711
-0.451342,-0.055384,0.755272,-0.0520757,-0.133127,0.0525917,4.72711
-0.587229,-0.27237,0.731227,-0.0395403,-0.120752,0.0779603,4.72711
-0.917801,-0.590487,0.769205,0.0116798,-0.108904,0.0993412,4.72711
-1.37327,-1.12391,0.678839,-0.00494355,-0.0884732,0.0447835,4.72711
-1.59323,-1.30176,0.520415,-0.0531715,-0.100647,-0.176178,4.72711
-1.48065,-1.13547,0.373248,-0.0351306,-0.116317,-0.483429,4.72711
-1.17759,-0.66731,0.37749,0.0163575,-0.0629473,-0.712492,4.72711
-0.943043,-0.368167,0.534009,0.0832756,-0.0239963,-0.773998,4.72711
-0.809863,-0.403721,0.619236,0.0894259,-0.0270404,-0.713091,4.72711
-0.603071,-0.393144,0.592026,0.0491126,-0.0686342,-0.677826,4.72711
-0.196349,-0.0556947,0.545944,0.0346571,-0.0969787,-0.692202,4.72711
0.311049,0.398541,0.593352,0.0502535,-0.0765574,-0.609768,4.72711
0.697653,0.587158,0.676835,0.0744971,-0.0458831,-0.369506,4.72711
0.886976,0.587163,0.723585,0.0653704,-0.033836,-0.111571,4.72711
0.83608,0.326409,0.699038,0.0135982,-0.0124661,0.109938,4.72711
0.666695,-0.102165,0.597748,-0.0285295,-0.0122237,0.244678,4.72711
0.588404,-0.365462,0.431072,-0.0506217,-0.0120769,0.252473,4.72711
0.658499,-0.291112,0.282113,-0.0569359,0.0274051,0.159251,4.72711
0.658499,-0.291112,0.282113,-0.0569359,0.0274051,0.159251,4.94643
0.762087,-0.0568778,0.199366,-0.043828,0.0927259,0.112023,4.94643
0.824799,0.19912,0.186258,-0.0159869,0.136378,0.13953,4.94643
0.80875,0.293623,0.15848,0.0057899,0.15497,0.223283,4.94643
0.76351,0.299104,0.148135,0.0388638,0.145375,0.311533,4.94643
0.724902,0.230703,0.175949,0.0683471,0.145954,0.369697,4.94643
0.679318,0.115766,0.237502,0.0985468,0.155902,0.397684,4.94643
0.574013,0.00230651,0.314618,0.115139,0.168975,0.411054,4.94643
0.478643,-0.0182642,0.386715,0.11871,0.161507,0.377523,4.94643
0.418494,0.0630243,0.470731,0.106764,0.159393,0.314208,4.94643
0.35702,0.186995,0.558195,0.0742636,0.161039,0.264263,4.94643
0.283985,0.24631,0.566804,0.0238558,0.141411,0.242498,4.94643
0.148413,0.282646,0.500845,-0.0250888,0.121459,0.242395,4.94643
-0.0857381,0.33698,0.420252,-0.0549946,0.111992,0.257479,4.94643
-0.388832,0.297426,0.317601,-0.063186,0.0805947,0.270277,4.94643
-0.613563,0.144626,0.261157,-0.0332381,0.0252195,0.242774,4.94643
-0.721612,0.0331014,0.295083,0.0174477,-0.015245,0.162932,4.94643
-0.739384,0.034726,0.452799,0.0663395,-0.0233535,0.0751129,4.94643
-0.716615,0.11361,0.66192,0.0947178,-0.0349188,0.00838912,4.94643
-0.597466,0.211984,0.83947,0.0928489,-0.0710665,-0.0370958,4.94643
-0.447544,0.252126,0.958153,0.0663339,-0.102194,-0.0488335,4.94643
-0.364258,0.21317,1.0602,0.0427704,-0.12617,-0.00743484,4.94643
-0.316611,0.187594,1.09708,0.0278211,-0.158024,0.0316948,4.94643
-0.291708,0.203503,1.07275,0.0143179,-0.193654,0.0453144,4.94643
-0.273071,0.221914,1.04805,0.0239958,-0.212509,0.0427627,4.94643
-0.206725,0.257273,1.08644,0.0577617,-0.211011,0.0128208,4.94643
-0.109968,0.233938,1.18874,0.0922059,-0.185986,-0.0303125,4.94643
0.0078705,0.195718,1.29937,0.103684,-0.154954,-0.0871355,4.94643
0.134102,0.119793,1.35625,0.0967802,-0.135824,-0.148723,4.94643
0.278853,0.175027,1.41668,0.104617,-0.113904,-0.238846,4.94643
0.274324,0.185758,1.43046,0.0888401,-0.0688248,-0.295095,4.94643
0.052705,0.0403229,1.35459,0.0220881,-0.0213925,-0.319196,4.94643
-0.067743,-0.156451,1.26242,-0.00755331,0.00469711,-0.389534,4.94643
-0.000881428,-0.186419,1.09639,-0.0291104,0.0423412,-0.487829,4.94643
0.203958,0.26235,0.991878,-0.0319867,0.0883382,-0.551471,4.94643
0.531899,0.758679,1.01872,0.0157804,0.104551,-0.483784,4.94643
0.751195,1.07473,1.14271,0.0872544,0.115187,-0.253763,4.94643
0.759332,1.17452,1.28628,0.102422,0.14893,0.0571061,4.94643
0.634298,1.08147,1.43952,0.101947,0.146568,0.318674,4.94643
0.387922,0.625745,1.55637,0.118278,0.123594,0.512157,4.94643
0.0823665,0.00472315,1.67576,0.148343,0.10176,0.621045,4.94643
-0.176227,-0.565231,1.77603,0.201579,0.0645468,0.613322,4.94643
-0.349808,-0.827778,1.80094,0.207367,0.0591253,0.491498,4.94643
-0.588929,-0.842846,1.80202,0.192879,0.0998076,0.339024,4.94643
-0.806829,-0.641025,1.79843,0.196407,0.11292,0.180096,4.94643
-0.789287,-0.569893,1.69631,0.184248,0.0922539,-0.0310616,4.94643
-0.531999,-0.621028,1.5762,0.173767,0.069814,-0.23092,4.94643
-0.131316,-0.617341,1.59514,0.2355,0.0680418,-0.35928,4.94643
0.25494,-0.381824,1.64061,0.256449,0.0995736,-0.419109,4.94643
0.397664,-0.0301429,1.60606,0.228654,0.108174,-0.361441,4.94643
0.305422,0.204861,1.4884,0.173251,0.0827373,-0.222521,4.94643
0.209574,0.249552,1.31922,0.134971,0.0354069,-0.100336,4.94643
0.188874,0.19268,1.17147,0.123422,0.0102289,-0.0343052,4.94643
0.305182,0.136812,1.10053,0.142455,-0.00557331,-0.0216972,4.94643
0.433435,0.0925344,1.06569,0.157303,0.00858798,0.00315899,4.94643
0.433435,0.0925344,1.06569,0.157303,0.00858798,0.00315899,5.1631
0.461131,0.155504,1.06212,0.154276,0.0145225,0.049094,5.1631
0.416405,0.172233,1.03152,0.149585,0.00562653,0.106987,5.1631
0.380864,0.124949,0.970559,0.128538,-0.010745,0.125234,5.1631
0.428628,0.109368,0.930108,0.111229,-0.0262744,0.0801595,5.1631
0.519018,0.142569,0.922018,0.106586,-0.0300137,0.0394734,5.1631
0.465198,0.197402,0.852871,0.078769,-0.0403763,0.0515135,5.1631
0.211441,0.0745692,0.731302,0.0599761,-0.0733398,0.10203,5.1631
-0.00827724,-0.0891428,0.606848,0.0621123,-0.0979622,0.0786229,5.1631
-0.0488987,-0.0644198,0.50541,0.0639418,-0.0939633,-0.0576667,5.1631
-0.0132416,0.0405087,0.484867,0.0800863,-0.090455,-0.186789,5.1631
-0.018074,-0.0297298,0.554996,0.109374,-0.0829706,-0.228604,5.1631
-0.0438137,-0.0973923,0.57873,0.0879565,-0.0819367,-0.255438,5.1631
-0.0512054,-0.16546,0.527129,0.0360144,-0.0937095,-0.279624,5.1631
0.0434505,-0.21458,0.490099,0.00867619,-0.0716926,-0.303165,5.1631
0.143925,-0.128619,0.469854,-0.013489,-0.0263242,-0.309725,5.1631
0.276076,0.113738,0.587495,0.0176339,0.0260693,-0.264855,5.1631
0.469037,0.437336,0.736038,0.0278304,0.075369,-0.194844,5.1631
0.662865,0.613623,0.892134,0.00973816,0.0945363,-0.0691092,5.1631
0.761566,0.415228,0.953456,-0.0140812,0.0956059,0.0984499,5.1631
0.725255,0.0255538,0.977805,-0.00788796,0.0735356,0.265664,5.1631
0.610815,-0.333353,0.969225,-0.000786319,0.0832735,0.24647,5.1631
0.539699,-0.42651,0.956704,-0.00918808,0.11661,0.148022,5.1631
0.538455,-0.310872,0.894077,-0.0367883,0.13772,0.0636098,5.1631
0.497534,-0.197536,0.796801,-0.0520071,0.155943,0.0456287,5.1631
0.417328,-0.153718,0.677114,-0.0526171,0.158731,0.0370583,5.1631
0.358177,-0.133002,0.498154,-0.0403506,0.14222,0.0269485,5.1631
0.277204,-0.034734,0.41657,0.00788109,0.148058,0.030812,5.1631
0.209887,-0.0167108,0.418311,0.044982,0.150335,0.0341755,5.1631
0.213938,0.11454,0.455338,0.0292638,0.152193,0.0249408,5.1631
0.207998,0.274074,0.474548,0.0201168,0.145385,0.0514866,5.1631
0.166658,0.355272,0.478776,0.0358494,0.109147,0.103482,5.1631
0.0891077,0.350025,0.476586,0.0507262,0.0795255,0.152705,5.1631
-0.025272,0.369638,0.498234,0.0629887,0.0553845,0.172708,5.1631
-0.125873,0.291621,0.534302,0.0652168,0.0290425,0.157117,5.1631
-0.154471,0.246586,0.549413,0.0464755,-0.00118375,0.123034,5.1631
-0.161126,0.153949,0.533924,0.031276,-0.0230936,0.0956055,5.1631
-0.166696,0.121217,0.520816,0.0360203,-0.040756,0.0671711,5.1631
-0.173206,0.0755467,0.545339,0.0500777,-0.0451979,0.0261989,5.1631
-0.0944433,0.143969,0.591118,0.0592799,-0.0548922,-0.0250974,5.1631
-0.0897676,0.250235,0.666667,0.0598147,-0.0518758,-0.000596881,5.1631
-0.0546046,0.173161,0.719829,0.0556356,-0.0652478,-0.0223521,5.1631
0.0221187,0.0984162,0.745785,0.0448673,-0.0893545,-0.0418496,5.1631
0.117669,0.118744,0.746465,0.0408316,-0.0945836,-0.0757712,5.1631
0.137986,0.177837,0.769876,0.0541116,-0.0902654,-0.0753,5.1631
0.0629006,0.173932,0.785643,0.05023,-0.0889199,-0.0869877,5.1631
0.00010696,0.201266,0.772969,0.0308846,-0.0984827,-0.154712,5.1631
-0.00415975,0.300943,0.714785,0.0224072,-0.10372,-0.242343,5.1631
0.0147046,0.572188,0.66712,0.0316382,-0.0975025,-0.288415,5.1631
0.0520687,0.81711,0.695938,0.0582426,-0.0733108,-0.300906,5.1631
0.0337224,0.905389,0.751661,0.0770492,-0.0571711,-0.24686,5.1631
-0.146813,0.825873,0.753888,0.067531,-0.0642174,-0.183959,5.1631
-0.447067,0.629543,0.629756,0.0248924,-0.0553367,-0.206463,5.1631
-0.599603,0.527117,0.468365,0.014125,-0.0265182,-0.329024,5.1631
-0.599603,0.527117,0.468365,0.014125,-0.0265182,-0.329024,5.34805
-0.502109,0.487791,0.389611,0.041764,0.0521702,-0.415716,5.34805
-0.227875,0.447179,0.453651,0.106788,0.11156,-0.402646,5.34805
0.124991,0.5318,0.705552,0.158849,0.168336,-0.311326,5.34805
0.420739,0.738129,0.99644,0.148235,0.194875,-0.160813,5.34805
0.524133,0.678802,1.18157,0.112876,0.17572,0.0294808,5.34805
0.428076,0.412197,1.22179,0.0855521,0.134921,0.166125,5.34805
0.310197,0.176935,1.19753,0.0619735,0.116045,0.197239,5.34805
0.324976,0.105411,1.12039,0.0331276,0.123805,0.163421,5.34805
0.427379,0.148059,1.08847,0.0485032,0.138581,0.16696,5.34805
0.516533,0.196937,1.09673,0.0733947,0.153144,0.215671,5.34805
0.51726,0.195391,1.1315,0.088869,0.169091,0.285563,5.34805
0.430042,0.0770699,1.16505,0.0823811,0.162756,0.335026,5.34805
0.331313,-0.072446,1.14552,0.08052,0.138644,0.319875,5.34805
0.310141,-0.123736,1.11201,0.0952021,0.122596,0.258231,5.34805
0.315601,-0.066475,1.1129,0.0984337,0.124242,0.220446,5.34805
0.232596,0.0120384,1.10169,0.0920897,0.115419,0.219718,5.34805
0.0777706,0.000562079,1.05326,0.0868921,0.0884382,0.215669,5.34805
-0.0595454,-0.0417515,0.977378,0.0657107,0.0671995,0.176313,5.34805
-0.139992,-0.0997174,0.866279,0.0318952,0.0549166,0.117849,5.34805
-0.194324,-0.0224702,0.704737,0.0177165,0.0335068,0.0439103,5.34805
-0.238115,0.0979194,0.568177,0.0328395,0.0414906,-0.0173952,5.34805
-0.276039,0.16603,0.550661,0.0802123,0.062942,-0.049044,5.34805
-0.344188,0.0664198,0.629067,0.0927881,0.0744879,-0.08538,5.34805
-0.384062,0.0600083,0.677606,0.0531866,0.0520288,-0.169179,5.34805
-0.332337,0.0998287,0.632456,0.0222406,0.0169853,-0.234682,5.34805
-0.259465,0.161645,0.528418,-0.00805655,-0.0038583,-0.274547,5.34805
-0.260344,0.138556,0.459516,-0.00695291,0.0065302,-0.260846,5.34805
-0.329471,-0.0833177,0.442719,0.0151421,0.0228205,-0.251947,5.34805
-0.306755,-0.245934,0.449869,-0.00109496,0.0501585,-0.307222,5.34805
-0.225779,-0.296427,0.46717,-0.0225806,0.070486,-0.34477,5.34805
-0.167156,-0.252815,0.466022,-0.0569544,0.0661209,-0.322819,5.34805
-0.226445,-0.247773,0.360883,-0.105823,0.0666415,-0.23747,5.34805
-0.423448,-0.283578,0.199642,-0.124189,0.061318,-0.177464,5.34805
-0.559645,-0.255205,0.0272271,-0.10407,0.0500218,-0.207709,5.34805
-0.405036,-0.108032,-0.0445938,-0.0463282,0.0559826,-0.283303,5.34805
-0.049849,0.152483,0.0259579,-0.00589805,0.0911082,-0.261409,5.34805
0.199609,0.371118,0.156163,-0.0116405,0.0993273,-0.125485,5.34805
0.261919,0.315578,0.209691,-0.0470253,0.0779159,0.0276582,5.34805
0.234271,0.122823,0.147695,-0.1009,0.0645768,0.107632,5.34805
0.142732,-0.0683276,0.0084077,-0.133073,0.0663135,0.133875,5.34805
0.0867811,-0.0492132,-0.0947951,-0.126019,0.0704083,0.103263,5.34805
0.13826,0.0740328,-0.137781,-0.125981,0.0976206,0.0772061,5.34805
0.26655,0.207466,-0.137437,-0.119088,0.100945,0.102174,5.34805
0.339053,0.20773,-0.151122,-0.119845,0.0833235,0.186349,5.34805
0.328747,0.0635676,-0.218152,-0.126609,0.0678287,0.266766,5.34805
0.317785,-0.0490969,-0.295728,-0.136733,0.0620287,0.292282,5.34805
0.298244,-0.12178,-0.392434,-0.13188,0.0693239,0.310881,5.34805
0.24402,-0.141314,-0.447018,-0.110645,0.0816771,0.326264,5.34805
0.157322,-0.139986,-0.480503,-0.0952839,0.0898686,0.338188,5.34805
0.0519276,-0.240588,-0.510663,-0.0771682,0.0867162,0.3297,5.34805
-0.0717493,-0.336012,-0.521324,-0.0475816,0.0822527,0.307193,5.34805
-0.20051,-0.446509,-0.510187,-0.0379974,0.0812255,0.256286,5.34805
-0.292455,-0.494643,-0.508652,-0.0226247,0.0754446,0.188921,5.34805
-0.370027,-0.456281,-0.494861,-0.0100818,0.0693362,0.13015,5.34805
-0.370027,-0.456281,-0.494861,-0.0100818,0.0693362,0.13015,5.52245
-0.446198,-0.311568,-0.458226,-0.00345989,0.0616295,0.0957215,5.52245
-0.539168,-0.188842,-0.421028,-0.00363052,0.0361006,0.0831229,5.52245
-0.631361,-0.190599,-0.403259,-0.000585251,-0.00575212,0.0758874,5.52245
-0.652766,-0.19635,-0.392499,0.00140096,-0.0469872,0.0378861,5.52245
-0.595934,-0.130009,-0.386795,0.0069039,-0.0790231,-0.00908273,5.52245
-0.520658,-0.0240583,-0.364201,0.0149435,-0.110627,-0.0268876,5.52245
-0.505696,0.0607747,-0.372737,0.0203795,-0.134468,-0.0178595,5.52245
-0.587958,0.0767839,-0.415626,0.040014,-0.164654,-0.0160267,5.52245
-0.742114,0.145139,-0.492672,0.0601959,-0.181966,-0.0499325,5.52245
-0.925631,0.260046,-0.567481,0.0800815,-0.182503,-0.126495,5.52245
-1.06663,0.462841,-0.546187,0.134632,-0.172189,-0.231103,5.52245
-1.05897,0.54424,-0.466688,0.153077,-0.14923,-0.354765,5.52245
-0.846392,0.456824,-0.314603,0.180622,-0.13523,-0.457534,5.52245
-0.481263,0.35068,-0.115101,0.193412,-0.106076,-0.516943,5.52245
-0.209211,0.397485,0.0860663,0.173364,-0.0791391,-0.494219,5.52245
-0.129314,0.477028,0.285694,0.146007,-0.0691076,-0.420122,5.52245
0.00975635,0.524231,0.438046,0.101681,-0.0557551,-0.371525,5.52245
0.279731,0.601274,0.551629,0.0720109,-0.0335204,-0.305195,5.52245
0.564026,0.692038,0.676361,0.0697837,-0.0208078,-0.180614,5.52245
0.744766,0.745368,0.779774,0.063292,-0.00247585,-0.0231292,5.52245
0.738164,0.612035,0.864242,0.0523625,-0.000761546,0.116429,5.52245
0.636292,0.278513,0.886483,0.0274835,-0.00546733,0.187862,5.52245
0.520009,-0.0931085,0.781854,-0.000302846,-0.0136971,0.181944,5.52245
0.486292,-0.161925,0.650864,-0.00737764,-0.0020812,0.0922142,5.52245
0.525051,0.0245137,0.549542,0.00338253,0.0533435,0.0306922,5.52245
0.583356,0.199889,0.543332,0.0528143,0.0905238,0.0358703,5.52245
0.628809,0.217938,0.611318,0.0835121,0.117552,0.0885735,5.52245
0.634778,0.144106,0.65269,0.0663284,0.130998,0.146451,5.52245
0.572734,0.032142,0.612352,0.0355576,0.119085,0.186706,5.52245
0.458918,0.034212,0.515746,0.0104289,0.110179,0.204072,5.52245
0.294089,0.092352,0.387706,0.00294837,0.10911,0.223049,5.52245
0.109622,0.0753411,0.286237,0.0191255,0.112906,0.234264,5.52245
-0.0424635,0.0154137,0.255412,0.0519789,0.12162,0.199355,5.52245
-0.0766333,0.0411131,0.270559,0.0612025,0.133857,0.137306,5.52245
-0.00715456,0.0385387,0.3185,0.0662407,0.137147,0.103327,5.52245
0.0785202,0.057594,0.336104,0.0519264,0.128577,0.132028,5.52245
0.00365217,0.0250625,0.320174,0.059081,0.102976,0.197939,5.52245
-0.194397,0.0299455,0.337552,0.0690302,0.0895711,0.236903,5.52245
-0.38746,0.0881905,0.350404,0.0700117,0.0852463,0.225285,5.52245
-0.488899,0.0595644,0.403635,0.0675188,0.0838612,0.190601,5.52245
-0.504713,-0.0555737,0.442263,0.0635386,0.062169,0.157715,5.52245
-0.507219,-0.190253,0.47563,0.057174,0.0425712,0.127707,5.52245
-0.539733,-0.231228,0.479434,0.0267905,0.0285311,0.0944285,5.52245
-0.638348,-0.186366,0.430521,0.00782315,0.00692423,0.071854,5.52245
-0.75824,-0.212797,0.367204,-0.00503031,-0.0104118,0.0228302,5.52245
-0.863283,-0.178498,0.292466,-0.0274874,-0.0111131,-0.0615343,5.52245
-0.949416,-0.00799421,0.237145,-0.031763,-0.0268308,-0.152,5.52245
-1.0625,0.0396379,0.205649,-0.0348331,-0.0326848,-0.196275,5.52245
-1.15707,-0.271189,0.207817,-0.0510519,-0.0393631,-0.253617,5.52245
-1.1905,-0.662671,0.109328,-0.113719,-0.0731168,-0.385918,5.52245
-1.10913,-0.732575,-0.0979767,-0.13413,-0.129668,-0.560501,5.52245
-0.919544,-0.377884,-0.255369,-0.108441,-0.1128,-0.653767,5.52245
-0.770549,0.0577241,-0.275439,-0.0763036,-0.078856,-0.59243,5.52245
-0.659023,0.168994,-0.287773,-0.0748695,-0.0951891,-0.464759,5.52245
-0.659023,0.168994,-0.287773,-0.0748695,-0.0951891,-0.464759,5.68628
-0.471521,0.01201,-0.365139,-0.10528,-0.148782,-0.408565,5.68628
-0.113185,-0.0707229,-0.460061,-0.0986277,-0.152292,-0.393793,5.68628
0.38339,-0.026592,-0.427928,-0.0390209,-0.118297,-0.332232,5.68628
0.766953,0.0953766,-0.318746,-0.00451999,-0.0614525,-0.184362,5.68628
0.830705,0.0681372,-0.226587,-0.00189402,-0.0323536,-0.00777191,5.68628
0.747073,-0.157903,-0.148439,-0.00767161,-0.0318085,0.0786666,5.68628
0.752885,-0.41891,-0.133477,-0.0188392,-0.0179452,0.0614489,5.68628
0.89858,-0.481131,-0.19099,-0.0374817,0.0154063,0.000143111,5.68628
1.01421,-0.322784,-0.264354,-0.0407897,0.0508324,0.01364,5.68628
1.03539,-0.14024,-0.321272,-0.0441139,0.0676368,0.062508,5.68628
1.00261,-0.000838107,-0.398236,-0.0221244,0.0772389,0.118071,5.68628
0.958967,-0.00316986,-0.412072,0.0278525,0.0982669,0.163446,5.68628
0.940058,-0.0841582,-0.357209,0.0459693,0.12512,0.180361,5.68628
0.990552,-0.231079,-0.287567,0.0548686,0.124499,0.159309,5.68628
1.03416,-0.280089,-0.234446,0.0599827,0.125319,0.154736,5.68628
0.952511,-0.277677,-0.158074,0.0596018,0.133919,0.183809,5.68628
0.821628,-0.0954679,-0.0973926,0.033882,0.118795,0.168841,5.68628
0.69289,0.207576,-0.116533,-0.00418927,0.10619,0.16056,5.68628
0.574485,0.431207,-0.159604,-0.0276651,0.109512,0.200146,5.68628
0.448006,0.419639,-0.132203,-0.0229019,0.107154,0.241069,5.68628
0.385958,0.274228,-0.107533,-0.02421,0.0852141,0.240441,5.68628
0.396093,0.0991699,-0.0597297,-0.0247085,0.0743035,0.217212,5.68628
0.399115,0.0354414,0.000964633,-0.0314948,0.0708199,0.209677,5.68628
0.266625,-0.00639397,0.0147888,-0.0664368,0.0605887,0.20992,5.68628
0.074177,0.0546332,-0.0106092,-0.0854562,0.033564,0.194045,5.68628
-0.046907,0.00993877,-0.0777447,-0.101338,0.00951159,0.152375,5.68628
-0.0270443,-0.021266,-0.141211,-0.106197,0.00025332,0.104011,5.68628
0.058281,-0.0101188,-0.152153,-0.0810201,0.013929,0.0880041,5.68628
0.0887587,0.108758,-0.0503058,-0.0565525,0.0232435,0.10326,5.68628
0.000480144,0.113165,0.0202004,-0.0680194,-0.000275135,0.140927,5.68628
-0.0889325,-0.0347874,-0.00666521,-0.0697816,-0.046073,0.132634,5.68628
-0.116617,-0.141332,-0.0597231,-0.0708541,-0.0506088,0.0797541,5.68628
-0.0915368,-0.00709585,-0.096957,-0.0785398,-0.0322196,0.018084,5.68628
-0.107542,0.136496,-0.0696014,-0.0500299,-0.0201405,0.0104243,5.68628
-0.164831,0.13585,-0.0193058,-0.030083,-0.0165139,0.023065,5.68628
-0.268432,0.0398936,0.0112478,-0.0223642,-0.0297802,-0.00179946,5.68628
-0.343264,-0.0280546,-0.00391738,-0.0155064,-0.0422502,-0.0773489,5.68628
-0.376845,0.0303717,-0.0206489,-0.00948936,-0.042494,-0.114018,5.68628
-0.417587,0.18038,0.000197988,0.00202688,-0.0296549,-0.178548,5.68628
-0.494561,0.341608,0.0173364,0.00242899,-0.0130443,-0.216436,5.68628
-0.632524,0.374007,0.012788,0.00994281,-0.00846443,-0.2187,5.68628
-0.785368,0.32164,0.0315962,0.0430005,-0.0234208,-0.217375,5.68628
-0.889172,0.183611,0.0593958,0.0626712,-0.0225518,-0.234994,5.68628
-0.878013,0.0179888,0.0705214,0.0701958,-0.0148081,-0.282753,5.68628
-0.709971,0.0045464,0.144675,0.0939913,-0.0203596,-0.33072,5.68628
-0.350715,0.262251,0.316066,0.138699,-0.00757511,-0.364361,5.68628
-0.0192395,0.527173,0.570482,0.167488,0.0234478,-0.301602,5.68628
0.0809889,0.525103,0.800308,0.18317,0.0243353,-0.129117,5.68628
0.0258858,0.185271,0.88652,0.154115,-0.0291736,0.0215105,5.68628
-0.00806766,-0.120339,0.800863,0.0994552,-0.0916363,0.0452685,5.68628
0.0887027,-0.160188,0.64486,0.0457529,-0.115224,-0.0323964,5.68628
0.249974,0.0717638,0.558743,0.0230586,-0.0932149,-0.103865,5.68628
0.402845,0.273628,0.568943,0.0497556,-0.0547521,-0.0878963,5.68628
0.473002,0.2625,0.613767,0.0776583,-0.0252852,0.00653523,5.68628
0.473002,0.2625,0.613767,0.0776583,-0.0252852,0.00653523,5.83952
0.508759,0.167226,0.60625,0.0734645,-0.0256406,0.0999203,5.83952
0.524031,0.13827,0.518392,0.0381356,-0.0236256,0.155256,5.83952
0.497671,0.152615,0.433347,0.0320505,-0.017664,0.19542,5.83952
0.466566,0.202812,0.378356,0.0485858,-0.00155438,0.229987,5.83952
0.41607,0.241962,0.357341,0.0679138,0.0232108,0.27227,5.83952
0.322047,0.197557,0.339051,0.0698737,0.0514813,0.328359,5.83952
0.254244,0.106221,0.305979,0.0666855,0.0640222,0.323541,5.83952
0.256874,0.0540971,0.281568,0.0815245,0.0811927,0.289889,5.83952
0.216999,0.073144,0.297876,0.0899866,0.110691,0.279956,5.83952
0.0641105,0.081599,0.335777,0.108793,0.120386,0.277142,5.83952
-0.139005,-0.079227,0.39174,0.121368,0.103737,0.221797,5.83952
-0.235103,-0.167638,0.402316,0.105129,0.0784788,0.0998278,5.83952
-0.301747,-0.270941,0.373888,0.0911593,0.0733302,-0.00595224,5.83952
-0.392747,-0.305023,0.361997,0.0765304,0.0672355,-0.112053,5.83952
-0.455652,-0.222021,0.356327,0.0682578,0.0542978,-0.230988,5.83952
-0.400346,-0.0135649,0.379748,0.044445,0.0480667,-0.324284,5.83952
-0.303145,0.0767811,0.413863,0.0219582,0.0421236,-0.340184,5.83952
-0.232649,-0.00292175,0.439701,0.00599066,0.0295739,-0.312791,5.83952
-0.238682,-0.183977,0.460949,-0.0244868,0.0213397,-0.296923,5.83952
-0.254411,-0.303944,0.462707,-0.0766736,-0.00813818,-0.327372,5.83952
-0.237844,-0.309525,0.362467,-0.14165,-0.0245926,-0.362812,5.83952
-0.265788,-0.208116,0.199686,-0.188738,-0.0290976,-0.34331,5.83952
-0.428969,-0.143375,-0.0135878,-0.194563,-0.0319782,-0.274876,5.83952
-0.659432,-0.240767,-0.208853,-0.157727,-0.0478842,-0.243457,5.83952
-0.744043,-0.393045,-0.338622,-0.11804,-0.0673632,-0.331507,5.83952
-0.477399,-0.212761,-0.394641,-0.119546,-0.0545275,-0.484055,5.83952
0.0364121,0.205996,-0.386853,-0.0893392,-0.0334752,-0.500792,5.83952
0.537782,0.537512,-0.294904,-0.0673229,0.00592912,-0.330272,5.83952
0.756014,0.566856,-0.185689,-0.0888801,0.0349278,-0.0807469,5.83952
0.782791,0.343452,-0.121674,-0.12985,0.0434861,0.0898181,5.83952
0.785318,0.0232513,-0.152651,-0.180106,0.0349714,0.15689,5.83952
0.846237,-0.172971,-0.26344,-0.231105,0.0414952,0.16187,5.83952
0.894132,-0.216852,-0.425584,-0.280027,0.0687594,0.185333,5.83952
0.845609,-0.211117,-0.628743,-0.279374,0.0775755,0.23427,5.83952
0.723583,-0.207503,-0.842793,-0.242826,0.0887866,0.284056,5.83952
0.594995,-0.235507,-1.00571,-0.192628,0.123611,0.317501,5.83952
0.511671,-0.282822,-1.03398,-0.128592,0.163947,0.327788,5.83952
0.522532,-0.32225,-0.992513,-0.0965222,0.187863,0.319398,5.83952
0.549299,-0.323064,-0.969295,-0.0868953,0.198455,0.328744,5.83952
0.528754,-0.315187,-0.942853,-0.0673258,0.198384,0.34276,5.83952
0.421705,-0.2813,-0.884943,-0.0523764,0.205127,0.362722,5.83952
0.254304,-0.261888,-0.826274,-0.0656631,0.203308,0.374729,5.83952
0.0707247,-0.250661,-0.808879,-0.086087,0.171756,0.372781,5.83952
-0.113174,-0.271343,-0.869665,-0.109646,0.121629,0.359922,5.83952
-0.282759,-0.388127,-0.974591,-0.10408,0.0844263,0.325343,5.83952
-0.42874,-0.50022,-1.02962,-0.0760781,0.0807987,0.2715,5.83952
-0.572176,-0.564544,-1.01302,-0.0480672,0.0783328,0.198289,5.83952
-0.656133,-0.552328,-0.971692,-0.00311531,0.0593975,0.116543,5.83952
-0.664769,-0.445459,-0.900632,0.0191045,0.0429173,0.0367095,5.83952
-0.646574,-0.268836,-0.821366,0.0355758,0.0156716,-0.0113004,5.83952
-0.634405,-0.207951,-0.707832,0.0579382,-0.0158055,-0.038645,5.83952
-0.5537,-0.201336,-0.620136,0.0567766,-0.0532902,-0.0652097,5.83952
