rotationRate_x,rotationRate_y,rotationRate_z,acceleration_x,acceleration_y,acceleration_z,relativeAltitude,altitude_pressure
0.318841,-0.0417237,0.968136,0.117578,0.266623,0.232632,0.001,0.0001
0.278323,-0.0853496,0.775039,0.0899038,0.248216,0.30105,0.001,0.0001
0.307412,-0.119003,0.556172,0.0740587,0.227749,0.355341,0.001,0.0001
0.402456,-0.143154,0.353346,0.0752122,0.211881,0.410124,0.001,0.0001
0.482545,-0.173023,0.20119,0.0802177,0.196412,0.475974,0.001,0.0001
0.455136,-0.18045,0.107001,0.0799109,0.18526,0.545315,0.001,0.0001
0.268532,-0.162251,0.0830324,0.0774503,0.155563,0.605809,0.001,0.0001
-0.0686763,-0.110384,0.168034,0.0776809,0.104779,0.642081,0.001,0.0001
-0.495413,0.101581,0.345366,0.0553127,0.0554052,0.626062,0.001,0.0001
-0.894542,0.354378,0.537041,0.0320962,0.0173394,0.538092,0.001,0.0001
-1.12513,0.390533,0.645994,-0.0112218,0.023631,0.344539,0.001,0.0001
-1.13673,0.378699,0.56018,-0.101518,0.0110638,0.0581949,0.001,0.0001
-0.931123,0.298626,0.423993,-0.149783,-0.0135738,-0.219813,0.001,0.0001
-0.751985,0.266023,0.381271,-0.162378,-0.0859365,-0.416617,0.001,0.0001
-0.684995,0.369335,0.389189,-0.196493,-0.196039,-0.534786,0.001,0.0001
-0.574304,0.418064,0.430601,-0.213574,-0.246462,-0.635328,0.001,0.0001
-0.443597,0.337184,0.473425,-0.162248,-0.230087,-0.689575,0.001,0.0001
-0.332294,0.0330137,0.469704,-0.112767,-0.22609,-0.679269,0.001,0.0001
-0.183688,-0.414952,0.45964,-0.0765574,-0.225627,-0.627637,0.001,0.0001
-0.030455,-0.832882,0.414587,-0.0675156,-0.227291,-0.538184,0.001,0.0001
0.0510775,-1.0633,0.328894,-0.0754227,-0.243068,-0.414238,0.001,0.0001
0.0943726,-0.976367,0.266289,-0.0842687,-0.257161,-0.312069,0.001,0.0001
0.260659,-0.870994,0.109989,-0.118838,-0.202982,-0.309043,0.001,0.0001
0.478865,-0.772247,-0.254443,-0.182673,-0.143155,-0.301625,0.001,0.0001
0.615703,-0.669896,-0.707615,-0.207595,-0.0864543,-0.223814,0.001,0.0001
0.678011,-0.508773,-1.0401,-0.160657,-0.0151358,-0.182515,0.001,0.0001
0.680751,-0.389577,-1.27797,-0.137363,0.0378776,-0.0994886,0.001,0.0001
0.708678,-0.0944201,-1.3441,-0.0959708,0.0961937,-0.0192671,0.001,0.0001
0.600608,0.248134,-1.43682,-0.0619141,0.200041,0.0294886,0.001,0.0001
0.589922,0.418688,-1.42483,0.0246631,0.210629,0.126388,0.001,0.0001
0.723307,0.720717,-1.20699,0.0326815,0.175903,0.202263,0.001,0.0001
0.830165,1.13868,-0.844741,0.0590013,0.125597,0.31879,0.001,0.0001
1.03473,1.35179,-0.558927,0.0234543,0.103882,0.358487,0.001,0.0001
1.31716,1.26336,-0.449123,0.00596091,0.123327,0.395019,0.001,0.0001
1.36795,-0.155267,-0.457472,-0.0338129,0.171209,0.466439,0.001,0.0001
1.33705,-0.995981,-0.918315,-0.138013,0.15897,0.487061,0.001,0.0001
0.900425,-1.94954,-1.17602,-0.0648327,0.105717,0.597523,0.001,0.0001
0.187085,-2.12515,-1.18893,-0.0748367,0.0463219,0.644855,0.001,0.0001
-0.631556,-1.87542,-0.696093,0.0102858,0.0933364,0.699282,0.001,0.0001
-1.27261,-1.26686,-0.19464,0.0786104,0.152336,0.610976,0.001,0.0001
-1.54805,-0.568965,-0.365865,-0.176572,0.0871361,0.434324,0.001,0.0001
-1.26977,-0.00058416,-0.789929,-0.29061,0.0553215,0.143628,0.001,0.0001
-0.584589,0.334683,-0.964457,-0.18831,0.156046,-0.158719,0.001,0.0001
0.105811,0.555437,-0.937541,-0.148176,0.207147,-0.394001,0.001,0.0001
0.310964,0.934111,-0.864832,-0.195552,0.130445,-0.48599,0.001,0.0001
0.0266789,1.3578,-0.595269,-0.199037,0.0589222,-0.517798,0.001,0.0001
-0.468775,1.31324,-0.110915,-0.100151,0.0134382,-0.602981,0.001,0.0001
-0.972262,0.669961,0.241694,-0.0174361,0.0625469,-0.711189,0.001,0.0001
-1.31116,-0.197589,0.302384,0.00953212,0.123957,-0.747087,0.001,0.0001
-1.34417,-0.853706,0.207605,0.044381,0.144319,-0.695921,0.001,0.0001
-1.01775,-1.06904,0.164102,0.107333,0.122073,-0.599861,0.001,0.0001
-0.482468,-1.04123,0.293737,0.189122,0.0844892,-0.473303,0.001,0.0001
-0.482468,-1.04123,0.293737,0.189122,0.0844892,-0.473303,0.0607758,-0.000717163
-0.00868019,-0.884213,0.497755,0.259296,0.0691718,-0.307802,0.0607758,-0.000717163
0.195012,-0.556616,0.643363,0.301736,0.0769884,-0.126414,0.0607758,-0.000717163
0.241508,-0.203545,0.728445,0.314995,0.0762379,-0.00621551,0.0607758,-0.000717163
0.274051,0.0613088,0.768322,0.334384,0.0948946,0.060539,0.0607758,-0.000717163
0.382222,0.164391,0.723748,0.354146,0.120466,0.103427,0.0607758,-0.000717163
0.492406,0.156145,0.667738,0.382829,0.141575,0.163286,0.0607758,-0.000717163
0.556332,0.138837,0.660129,0.40448,0.141872,0.229585,0.0607758,-0.000717163
0.56695,0.146956,0.70764,0.409688,0.126774,0.293355,0.0607758,-0.000717163
0.538374,0.154724,0.757741,0.386758,0.118586,0.358925,0.0607758,-0.000717163
0.502466,0.184568,0.789093,0.352289,0.106148,0.416419,0.0607758,-0.000717163
0.458245,0.317472,0.829425,0.308628,0.0947983,0.455511,0.0607758,-0.000717163
0.376728,0.558994,0.924342,0.278187,0.0791615,0.486807,0.0607758,-0.000717163
0.254758,0.839633,1.07999,0.24663,0.0631148,0.505746,0.0607758,-0.000717163
0.0514604,1.06667,1.27386,0.208974,0.049733,0.506327,0.0607758,-0.000717163
-0.187212,1.09552,1.40724,0.165135,0.0524462,0.484499,0.0607758,-0.000717163
-0.356691,0.90187,1.43356,0.110807,0.0705517,0.435525,0.0607758,-0.000717163
-0.408391,0.647582,1.34574,0.0617414,0.0887438,0.359648,0.0607758,-0.000717163
-0.395856,0.589477,1.19581,-0.000378802,0.0777666,0.300741,0.0607758,-0.000717163
-0.255649,0.670786,0.990647,-0.0537847,0.0532506,0.162824,0.0607758,-0.000717163
-0.0430897,0.835453,0.837767,-0.0870665,0.00645396,0.0139331,0.0607758,-0.000717163
0.0257051,0.998956,0.822026,-0.103323,-0.074104,-0.0918247,0.0607758,-0.000717163
-0.0804466,0.946178,0.896359,-0.114717,-0.161821,-0.246551,0.0607758,-0.000717163
-0.358971,0.980852,0.999418,-0.101857,-0.210348,-0.369922,0.0607758,-0.000717163
-0.685635,1.13804,1.19698,-0.0945545,-0.278393,-0.48506,0.0607758,-0.000717163
-0.804744,1.10833,1.44959,-0.0864734,-0.308995,-0.662671,0.0607758,-0.000717163
-0.640592,0.613153,1.50442,-0.090991,-0.247514,-0.813596,0.0607758,-0.000717163
-0.356649,-0.106047,1.32784,-0.111238,-0.188844,-0.828053,0.0607758,-0.000717163
-0.019276,-0.773713,1.02941,-0.132905,-0.163022,-0.733331,0.0607758,-0.000717163
0.297446,-1.23408,0.77211,-0.131832,-0.145027,-0.552536,0.0607758,-0.000717163
0.514024,-1.34433,0.599773,-0.124784,-0.146307,-0.341205,0.0607758,-0.000717163
0.515452,-1.06225,0.456216,-0.149198,-0.157601,-0.163658,0.0607758,-0.000717163
0.343561,-0.48306,0.365124,-0.176266,-0.1799,-0.0534695,0.0607758,-0.000717163
0.0818681,0.189042,0.311046,-0.187928,-0.185575,-0.0247282,0.0607758,-0.000717163
0.00162926,0.526872,0.223019,-0.170118,-0.14207,-0.0903945,0.0607758,-0.000717163
0.217813,0.350889,0.0590299,-0.150546,-0.056807,-0.15187,0.0607758,-0.000717163
0.590787,-0.171232,-0.270315,-0.159128,0.0298559,-0.138724,0.0607758,-0.000717163
0.948348,-0.664354,-0.731638,-0.191378,0.0845163,-0.0543035,0.0607758,-0.000717163
1.15244,-0.793169,-1.11706,-0.206128,0.0925479,0.0758085,0.0607758,-0.000717163
1.18082,-0.594998,-1.34873,-0.195258,0.070798,0.196197,0.0607758,-0.000717163
1.13837,-0.26315,-1.42995,-0.152324,0.0543472,0.25604,0.0607758,-0.000717163
1.05605,0.0343722,-1.40295,-0.118445,0.0606286,0.290233,0.0607758,-0.000717163
0.927963,0.205032,-1.32647,-0.107238,0.0647344,0.303291,0.0607758,-0.000717163
0.78609,0.220441,-1.22665,-0.111416,0.076251,0.297287,0.0607758,-0.000717163
0.643433,0.0938204,-1.15875,-0.12328,0.10091,0.274533,0.0607758,-0.000717163
0.498404,-0.046161,-1.1734,-0.156511,0.132715,0.262098,0.0607758,-0.000717163
0.37438,-0.184254,-1.21419,-0.175458,0.155749,0.250722,0.0607758,-0.000717163
0.280227,-0.358358,-1.22901,-0.159242,0.172899,0.234853,0.0607758,-0.000717163
0.158725,-0.487389,-1.21149,-0.130528,0.190852,0.245733,0.0607758,-0.000717163
0.0486607,-0.415124,-1.18818,-0.119757,0.197609,0.255901,0.0607758,-0.000717163
0.0671225,-0.189103,-1.16479,-0.123527,0.204563,0.226848,0.0607758,-0.000717163
0.0671225,-0.189103,-1.16479,-0.123527,0.204563,0.226848,0.0607758,-0.000724792
0.186975,0.0277262,-1.15433,-0.128781,0.228192,0.177967,0.0607758,-0.000724792
0.309228,0.117219,-1.17379,-0.123419,0.266022,0.134607,0.0607758,-0.000724792
0.340062,0.0276847,-1.16409,-0.0973771,0.278403,0.10949,0.0607758,-0.000724792
0.205974,-0.0970463,-1.07814,-0.0583052,0.275885,0.0887967,0.0607758,-0.000724792
-0.0244801,-0.197894,-0.904734,-0.0247519,0.259607,0.0541549,0.0607758,-0.000724792
-0.299705,-0.209084,-0.625404,0.0224133,0.231027,-0.00812548,0.0607758,-0.000724792
-0.559645,-0.279945,-0.29263,0.079202,0.211574,-0.0971536,0.0607758,-0.000724792
-0.777341,-0.40519,-0.00380368,0.131724,0.21668,-0.199796,0.0607758,-0.000724792
-0.958073,-0.466765,0.218407,0.13704,0.213951,-0.277645,0.0607758,-0.000724792
-1.11588,-0.463191,0.393386,0.142291,0.187668,-0.323557,0.0607758,-0.000724792
-1.24044,-0.351944,0.526071,0.140175,0.157338,-0.366526,0.0607758,-0.000724792
-1.31331,-0.195165,0.648115,0.166252,0.117475,-0.407608,0.0607758,-0.000724792
-1.30824,-0.111585,0.78904,0.207377,0.0665396,-0.448013,0.0607758,-0.000724792
-1.23082,-0.168632,0.978658,0.233835,0.0121681,-0.454051,0.0607758,-0.000724792
-1.22942,-0.292446,1.2103,0.237617,-0.0395879,-0.403367,0.0607758,-0.000724792
-1.35778,-0.379636,1.40512,0.211196,-0.0889232,-0.328323,0.0607758,-0.000724792
-1.4264,-0.476357,1.53297,0.186781,-0.115089,-0.292013,0.0607758,-0.000724792
-1.27396,-0.605073,1.54776,0.170611,-0.096098,-0.284326,0.0607758,-0.000724792
-0.931115,-0.629664,1.39958,0.131514,-0.0634992,-0.240887,0.0607758,-0.000724792
-0.475125,-0.488773,1.08214,0.086805,-0.0374176,-0.16627,0.0607758,-0.000724792
0.00896131,-0.185269,0.699898,0.0717397,-0.0282178,-0.0845402,0.0607758,-0.000724792
0.47931,0.19769,0.385771,0.085004,-0.0458464,-0.00707108,0.0607758,-0.000724792
0.868559,0.545295,0.189643,0.108772,-0.0587882,0.0717455,0.0607758,-0.000724792
1.11554,0.773279,0.111638,0.141113,-0.0674925,0.163144,0.0607758,-0.000724792
1.23401,0.870549,0.165261,0.172663,-0.0612102,0.250973,0.0607758,-0.000724792
1.23928,0.857266,0.303567,0.182194,-0.0411885,0.329454,0.0607758,-0.000724792
1.18632,0.75086,0.451165,0.150462,-0.0195784,0.396856,0.0607758,-0.000724792
1.05293,0.588501,0.582379,0.104066,0.0101733,0.459059,0.0607758,-0.000724792
0.813789,0.399147,0.696013,0.0622156,0.0286342,0.513241,0.0607758,-0.000724792
0.525806,0.21238,0.783113,0.0284346,0.0426439,0.550501,0.0607758,-0.000724792
0.288567,0.100988,0.835737,-0.00638593,0.0580008,0.552973,0.0607758,-0.000724792
0.0847764,0.0718329,0.896005,-0.0244322,0.0632286,0.535191,0.0607758,-0.000724792
-0.156492,0.099336,1.03055,-0.0403593,0.0514575,0.510754,0.0607758,-0.000724792
-0.434072,0.168232,1.20562,-0.0465718,0.0314721,0.472197,0.0607758,-0.000724792
-0.76072,0.432565,1.41456,-0.0404004,0.022638,0.399668,0.0607758,-0.000724792
-1.05608,0.765384,1.58497,-0.0639257,0.0195122,0.273621,0.0607758,-0.000724792
-1.15921,0.778567,1.60559,-0.0907778,0.0281342,0.0678775,0.0607758,-0.000724792
-1.11427,0.512096,1.51099,-0.105567,0.0612928,-0.0933781,0.0607758,-0.000724792
-1.02304,0.106184,1.32546,-0.123092,0.0571315,-0.212838,0.0607758,-0.000724792
-0.894305,-0.144942,1.11912,-0.13755,0.00697514,-0.31077,0.0607758,-0.000724792
-0.835565,-0.13054,0.988293,-0.135251,-0.0576178,-0.370589,0.0607758,-0.000724792
-0.860632,0.0334353,0.878994,-0.131737,-0.120507,-0.412707,0.0607758,-0.000724792
-0.944323,0.172269,0.771427,-0.11953,-0.162116,-0.455312,0.0607758,-0.000724792
-1.01898,0.189872,0.668787,-0.083996,-0.193173,-0.508359,0.0607758,-0.000724792
-0.939638,-0.0644055,0.58573,-0.0408317,-0.233634,-0.576612,0.0607758,-0.000724792
-0.746962,-0.374627,0.530365,-0.00586292,-0.262656,-0.599083,0.0607758,-0.000724792
-0.536459,-0.570928,0.445194,-0.000672869,-0.281779,-0.550513,0.0607758,-0.000724792
-0.369213,-0.473076,0.299258,-0.00393678,-0.291715,-0.465602,0.0607758,-0.000724792
-0.212891,-0.156075,0.143341,0.0126937,-0.300755,-0.41395,0.0607758,-0.000724792
0.0752953,0.178261,0.044681,0.0589513,-0.299289,-0.428378,0.0607758,-0.000724792
0.482499,0.296515,0.0040254,0.125395,-0.273407,-0.453056,0.0607758,-0.000724792
0.482499,0.296515,0.0040254,0.125395,-0.273407,-0.453056,0.203461,-0.00239563
0.989435,0.229806,-0.0780534,0.18584,-0.203508,-0.43704,0.203461,-0.00239563
1.60456,0.0430611,-0.24454,0.234851,-0.122094,-0.375653,0.203461,-0.00239563
2.21758,-0.0507539,-0.379333,0.300195,-0.0368368,-0.265512,0.203461,-0.00239563
2.64585,-0.00139209,-0.27057,0.388541,0.0402217,-0.113791,0.203461,-0.00239563
2.7794,0.243845,0.088499,0.441152,0.0993711,0.0418202,0.203461,-0.00239563
2.56343,0.554404,0.586548,0.431894,0.145563,0.184584,0.203461,-0.00239563
2.06897,0.732769,1.09824,0.382753,0.196669,0.281274,0.203461,-0.00239563
1.43559,0.620627,1.5426,0.312914,0.251374,0.322924,0.203461,-0.00239563
0.809999,0.235814,1.86234,0.254015,0.315377,0.324547,0.203461,-0.00239563
0.332358,-0.168906,1.97225,0.165062,0.371426,0.320522,0.203461,-0.00239563
0.0735836,-0.397672,1.87505,0.0585451,0.399501,0.317519,0.203461,-0.00239563
0.0378719,-0.43933,1.63359,-0.0440297,0.40223,0.30229,0.203461,-0.00239563
0.200546,-0.330642,1.29016,-0.113581,0.391772,0.292221,0.203461,-0.00239563
0.432985,-0.131526,0.961651,-0.132268,0.373404,0.291722,0.203461,-0.00239563
0.637814,0.100336,0.67371,-0.130992,0.353205,0.314663,0.203461,-0.00239563
0.684408,0.30124,0.512394,-0.123061,0.318424,0.359061,0.203461,-0.00239563
0.493818,0.428038,0.454999,-0.120362,0.269724,0.405956,0.203461,-0.00239563
0.102817,0.43236,0.449134,-0.130167,0.226315,0.433352,0.203461,-0.00239563
-0.355976,0.376733,0.441934,-0.142809,0.182801,0.412133,0.203461,-0.00239563
-0.777367,0.318106,0.432637,-0.156704,0.133527,0.332965,0.203461,-0.00239563
-1.06628,0.276623,0.449714,-0.143236,0.0890398,0.219851,0.203461,-0.00239563
-1.11561,0.318814,0.471737,-0.11909,0.0497849,0.0912781,0.203461,-0.00239563
-0.948435,0.427965,0.466089,-0.116371,0.0318151,-0.0136159,0.203461,-0.00239563
-0.683542,0.434861,0.390286,-0.127054,0.0315343,-0.0674575,0.203461,-0.00239563
-0.492111,0.225487,0.260904,-0.137467,0.0258898,-0.0576157,0.203461,-0.00239563
-0.491096,-0.0524914,0.124036,-0.138481,0.0121002,0.0206748,0.203461,-0.00239563
-0.614147,-0.18324,0.0360819,-0.14607,-0.0322851,0.10791,0.203461,-0.00239563
-0.709313,-0.13348,-0.0216553,-0.165277,-0.0814134,0.152662,0.203461,-0.00239563
-0.752699,0.0346492,-0.104846,-0.194767,-0.112236,0.154676,0.203461,-0.00239563
-0.766024,0.197426,-0.251445,-0.214306,-0.1338,0.119837,0.203461,-0.00239563
-0.77266,0.275333,-0.440579,-0.229936,-0.160228,0.0519523,0.203461,-0.00239563
-0.721427,0.247171,-0.650225,-0.227791,-0.181889,-0.0523047,0.203461,-0.00239563
-0.565277,0.246928,-0.829142,-0.179638,-0.196292,-0.17121,0.203461,-0.00239563
-0.368111,0.254716,-0.940333,-0.101673,-0.199186,-0.267719,0.203461,-0.00239563
-0.199209,0.142988,-0.88686,0.0259852,-0.215731,-0.34268,0.203461,-0.00239563
-0.200928,-0.0472226,-0.65598,0.145388,-0.248104,-0.376458,0.203461,-0.00239563
-0.407127,-0.212234,-0.248817,0.242889,-0.275544,-0.368887,0.203461,-0.00239563
-0.774265,-0.294749,0.331058,0.334099,-0.272997,-0.355424,0.203461,-0.00239563
-1.19681,-0.496588,0.949912,0.380516,-0.23222,-0.370841,0.203461,-0.00239563
-1.44635,-0.984746,1.31155,0.35447,-0.148159,-0.401675,0.203461,-0.00239563
-1.29471,-1.45715,1.35017,0.293327,-0.0652237,-0.435028,0.203461,-0.00239563
-0.669654,-1.61051,1.14298,0.245422,-0.0140672,-0.432082,0.203461,-0.00239563
0.214391,-1.32614,0.916073,0.296092,0.0555199,-0.354208,0.203461,-0.00239563
1.10147,-0.746973,0.790353,0.381676,0.124154,-0.2161,0.203461,-0.00239563
1.80174,-0.138811,0.80297,0.451747,0.17124,-0.0714533,0.203461,-0.00239563
2.08439,0.387454,0.952439,0.501522,0.225775,0.0924913,0.203461,-0.00239563
2.02366,0.767984,1.12417,0.514084,0.275403,0.21712,0.203461,-0.00239563
1.75414,1.03492,1.34003,0.513432,0.31242,0.281833,0.203461,-0.00239563
1.3739,1.20407,1.5766,0.475853,0.328353,0.313554,0.203461,-0.00239563
0.965047,1.25266,1.797,0.414819,0.314175,0.307405,0.203461,-0.00239563
0.965047,1.25266,1.797,0.414819,0.314175,0.307405,0.235168,-0.00279236
0.503283,1.20156,1.96106,0.337494,0.301805,0.308217,0.235168,-0.00279236
0.022805,1.11807,2.09543,0.262867,0.278324,0.284799,0.235168,-0.00279236
-0.371009,0.953102,2.21302,0.199666,0.253201,0.230781,0.235168,-0.00279236
-0.646571,0.780077,2.24757,0.130314,0.239353,0.175628,0.235168,-0.00279236
-0.751795,0.724127,2.17123,0.0574967,0.220551,0.125627,0.235168,-0.00279236
-0.65233,0.785218,2.03609,-0.00358994,0.188256,0.0648367,0.235168,-0.00279236
-0.429069,0.894902,1.89664,-0.0388222,0.1567,0.0218346,0.235168,-0.00279236
-0.224228,0.988103,1.79692,-0.0601328,0.116531,0.00155491,0.235168,-0.00279236
-0.157872,0.990778,1.7459,-0.0714664,0.070388,0.00647742,0.235168,-0.00279236
-0.220772,0.995138,1.7309,-0.0978406,0.00954045,-0.00416774,0.235168,-0.00279236
-0.379127,1.02158,1.76522,-0.132519,-0.043292,-0.0437508,0.235168,-0.00279236
-0.506426,0.968651,1.83054,-0.165127,-0.100985,-0.129518,0.235168,-0.00279236
-0.56041,0.832681,1.87119,-0.187985,-0.12878,-0.235546,0.235168,-0.00279236
-0.570662,0.614667,1.82681,-0.214911,-0.121622,-0.311358,0.235168,-0.00279236
-0.612711,0.413136,1.68369,-0.254021,-0.116635,-0.335698,0.235168,-0.00279236
-0.668618,0.208369,1.48592,-0.267259,-0.115561,-0.357199,0.235168,-0.00279236
-0.680809,-0.0628561,1.22083,-0.266439,-0.10827,-0.382644,0.235168,-0.00279236
-0.599245,-0.354507,0.943432,-0.269542,-0.119597,-0.405107,0.235168,-0.00279236
-0.532165,-0.44093,0.732741,-0.281109,-0.156848,-0.385734,0.235168,-0.00279236
-0.541626,-0.125679,0.531634,-0.306544,-0.189158,-0.364174,0.235168,-0.00279236
-0.528625,0.409503,0.326745,-0.29883,-0.191639,-0.426287,0.235168,-0.00279236
-0.335203,0.699317,0.0583466,-0.26004,-0.157974,-0.570945,0.235168,-0.00279236
0.125676,0.456442,-0.255272,-0.207282,-0.0977944,-0.663095,0.235168,-0.00279236
0.752212,-0.251438,-0.606788,-0.14365,-0.0488707,-0.622812,0.235168,-0.00279236
1.2509,-0.911956,-0.963086,-0.104845,-0.0129924,-0.419347,0.235168,-0.00279236
1.50894,-1.12191,-1.20602,-0.0849218,-0.00665747,-0.153813,0.235168,-0.00279236
1.61872,-0.903464,-1.32382,-0.0658586,0.00404254,0.0469947,0.235168,-0.00279236
1.65874,-0.430947,-1.36453,-0.0639097,0.028237,0.167555,0.235168,-0.00279236
1.65842,0.0596171,-1.35596,-0.0631386,0.0614938,0.222652,0.235168,-0.00279236
1.56164,0.266359,-1.32505,-0.0516891,0.10019,0.251629,0.235168,-0.00279236
1.35743,0.209471,-1.22889,-0.0304944,0.12693,0.267084,0.235168,-0.00279236
1.09964,-0.0216208,-1.06599,-0.022921,0.136326,0.275634,0.235168,-0.00279236
0.855544,-0.387991,-0.917757,-0.0389243,0.151198,0.276706,0.235168,-0.00279236
0.733372,-0.656132,-0.886352,-0.0995528,0.17061,0.288498,0.235168,-0.00279236
0.753466,-0.73389,-0.912643,-0.152079,0.189531,0.301835,0.235168,-0.00279236
0.824912,-0.695306,-0.963956,-0.184548,0.211618,0.318471,0.235168,-0.00279236
0.883537,-0.588081,-1.06909,-0.20025,0.236302,0.341854,0.235168,-0.00279236
0.882515,-0.423739,-1.15213,-0.193816,0.262484,0.355114,0.235168,-0.00279236
0.802616,-0.338018,-1.21143,-0.178932,0.283241,0.355433,0.235168,-0.00279236
0.636704,-0.233774,-1.24242,-0.159828,0.287969,0.337645,0.235168,-0.00279236
0.386181,-0.0781742,-1.21541,-0.126154,0.289158,0.311969,0.235168,-0.00279236
0.0823305,0.207555,-1.16128,-0.0911712,0.28163,0.243514,0.235168,-0.00279236
-0.206559,0.489372,-1.07585,-0.0522824,0.27671,0.110043,0.235168,-0.00279236
-0.472484,0.561771,-0.893442,0.0266223,0.285275,-0.0572817,0.235168,-0.00279236
-0.695817,0.225515,-0.670614,0.106047,0.295411,-0.221781,0.235168,-0.00279236
-0.81883,-0.275983,-0.499718,0.153996,0.304591,-0.370916,0.235168,-0.00279236
-0.889046,-0.529884,-0.339436,0.164395,0.280645,-0.453887,0.235168,-0.00279236
-1.02243,-0.558886,-0.19228,0.152272,0.225145,-0.473859,0.235168,-0.00279236
-1.27483,-0.552694,-0.0336347,0.162321,0.178786,-0.462749,0.235168,-0.00279236
-1.51562,-0.50663,0.155401,0.174964,0.118627,-0.465073,0.235168,-0.00279236
-1.5534,-0.463047,0.263036,0.164246,0.0694875,-0.481273,0.235168,-0.00279236
-1.36813,-0.434976,0.250035,0.146546,0.0337721,-0.483642,0.235168,-0.00279236
-1.06107,-0.385679,0.200801,0.146657,-0.000741616,-0.431214,0.235168,-0.00279236
-0.789836,-0.431085,0.222514,0.172735,-0.0506231,-0.318124,0.235168,-0.00279236
-0.690027,-0.442507,0.34845,0.193811,-0.114094,-0.179396,0.235168,-0.00279236
-0.753008,-0.306968,0.49597,0.208583,-0.166039,-0.0586897,0.235168,-0.00279236
-0.776378,-0.0598304,0.564787,0.211201,-0.186059,-7.28965e-05,0.235168,-0.00279236
-0.537571,0.0486979,0.589634,0.232188,-0.172321,-0.0205953,0.235168,-0.00279236
-0.102426,0.0343243,0.625299,0.270615,-0.146428,-0.0404757,0.235168,-0.00279236
0.315374,-0.0392815,0.643351,0.272121,-0.113552,0.0187495,0.235168,-0.00279236
0.560844,-0.0247085,0.612479,0.233982,-0.0910624,0.132758,0.235168,-0.00279236
0.640475,0.153746,0.566884,0.197529,-0.0783829,0.237366,0.235168,-0.00279236
0.667273,0.366447,0.560361,0.184812,-0.0801435,0.287617,0.235168,-0.00279236
0.661102,0.567382,0.600237,0.174521,-0.0723632,0.309444,0.235168,-0.00279236
0.653053,0.686932,0.683833,0.159305,-0.0609852,0.310053,0.235168,-0.00279236
0.670635,0.622192,0.786722,0.139804,-0.0385491,0.297801,0.235168,-0.00279236
0.717234,0.416777,0.874664,0.102744,-0.0109169,0.303101,0.235168,-0.00279236
0.729954,0.216801,0.928991,0.0519996,0.0156469,0.339755,0.235168,-0.00279236
0.698997,0.0652358,0.952546,0.0105269,0.0349192,0.38444,0.235168,-0.00279236
0.617806,-0.0471695,0.969184,-0.00822077,0.0468029,0.422808,0.235168,-0.00279236
0.471299,-0.0206915,1.04087,-0.0047015,0.0461308,0.445876,0.235168,-0.00279236
0.286447,0.198043,1.11736,-0.00676352,0.0406287,0.436454,0.235168,-0.00279236
0.0654385,0.663656,1.01141,-0.0555056,0.054553,0.400899,0.235168,-0.00279236
-0.186432,1.18881,0.779028,-0.0665204,0.0590197,0.29039,0.235168,-0.00279236
-0.429425,1.69672,0.690181,0.00537468,0.0250799,0.0746312,0.235168,-0.00279236
-0.591658,1.86138,0.941831,0.140114,-0.042959,-0.227851,0.235168,-0.00279236
-0.591658,1.86138,0.941831,0.140114,-0.042959,-0.227851,0.21402,-0.00253296
-0.748698,1.58809,1.34447,0.220914,-0.084817,-0.505132,0.21402,-0.00253296
-0.985346,0.83359,1.5499,0.221536,-0.0528068,-0.675721,0.21402,-0.00253296
-1.2038,-0.235865,1.44818,0.181622,0.00606951,-0.742418,0.21402,-0.00253296
-1.17891,-1.19318,1.13317,0.103244,0.0115547,-0.705053,0.21402,-0.00253296
-0.839881,-1.71932,0.823885,0.0242798,-0.0179863,-0.560758,0.21402,-0.00253296
-0.455462,-1.79058,0.553196,-0.0276302,-0.0509551,-0.339476,0.21402,-0.00253296
-0.264035,-1.45342,0.38341,-0.053893,-0.109332,-0.133086,0.21402,-0.00253296
-0.325582,-0.815542,0.346751,-0.0717815,-0.193533,-2.74181e-06,0.21402,-0.00253296
-0.527141,0.0553999,0.39113,-0.107104,-0.2538,0.0422347,0.21402,-0.00253296
-0.66109,0.806106,0.41408,-0.13635,-0.242787,-0.0226799,0.21402,-0.00253296
-0.567243,1.09505,0.3034,-0.14169,-0.165927,-0.176055,0.21402,-0.00253296
-0.188893,0.81735,0.0949702,-0.152574,-0.0898432,-0.321295,0.21402,-0.00253296
0.338094,0.204864,-0.235606,-0.177499,-0.04659,-0.393952,0.21402,-0.00253296
0.783971,-0.234846,-0.529372,-0.18088,-0.0137799,-0.324663,0.21402,-0.00253296
1.03629,-0.303536,-0.695458,-0.177273,-0.0155832,-0.153218,0.21402,-0.00253296
1.15573,-0.236,-0.718928,-0.147018,-0.0200309,0.00822389,0.21402,-0.00253296
1.18344,-0.143059,-0.682155,-0.137659,-0.00307439,0.145578,0.21402,-0.00253296
1.16251,-0.145249,-0.660873,-0.152922,0.023828,0.259722,0.21402,-0.00253296
1.08723,-0.197467,-0.69233,-0.174008,0.0601686,0.364956,0.21402,-0.00253296
0.994288,-0.250124,-0.751694,-0.189125,0.0835181,0.44685,0.21402,-0.00253296
0.946527,-0.285102,-0.786142,-0.18297,0.0889138,0.490116,0.21402,-0.00253296
0.954245,-0.329508,-0.756918,-0.157061,0.0873878,0.503208,0.21402,-0.00253296
0.935584,-0.369136,-0.721377,-0.145986,0.11042,0.532826,0.21402,-0.00253296
0.823151,-0.368676,-0.76047,-0.159325,0.144248,0.574854,0.21402,-0.00253296
0.550858,-0.334914,-0.847559,-0.173838,0.173992,0.608838,0.21402,-0.00253296
0.129504,-0.219542,-0.996078,-0.203031,0.192988,0.60734,0.21402,-0.00253296
-0.242607,-0.0665318,-1.17787,-0.224738,0.193297,0.534195,0.21402,-0.00253296
-0.397092,0.0785954,-1.36185,-0.209828,0.203057,0.37508,0.21402,-0.00253296
-0.393932,0.0841917,-1.46648,-0.193654,0.190262,0.145581,0.21402,-0.00253296
-0.413619,0.088138,-1.47829,-0.17209,0.167016,-0.0811113,0.21402,-0.00253296
-0.549226,0.241525,-1.34015,-0.152744,0.118655,-0.295227,0.21402,-0.00253296
-0.870729,0.395786,-0.894037,-0.0734573,0.0565099,-0.532564,0.21402,-0.00253296
-1.24321,0.185643,-0.336092,-0.0278602,0.0486562,-0.772169,0.21402,-0.00253296
-1.48002,-0.246317,0.0187174,-0.0204643,0.0834526,-0.955619,0.21402,-0.00253296
-1.36077,-0.751956,0.114929,-0.0369658,0.15893,-1.05652,0.21402,-0.00253296
-0.926972,-1.14815,0.0721087,-0.0623221,0.176407,-1.0311,0.21402,-0.00253296
-0.480361,-1.33787,-0.0798915,-0.0650052,0.165138,-0.835894,0.21402,-0.00253296
-0.162228,-1.246,-0.304827,-0.0104024,0.142702,-0.574095,0.21402,-0.00253296
0.107854,-1.00522,-0.426856,0.100769,0.101312,-0.358048,0.21402,-0.00253296
0.28109,-0.773436,-0.317779,0.245233,0.0514739,-0.196498,0.21402,-0.00253296
0.259028,-0.566496,-0.0221523,0.37244,0.0201998,-0.058452,0.21402,-0.00253296
0.0956715,-0.421156,0.319013,0.445791,0.00900897,0.0314644,0.21402,-0.00253296
-0.0836417,-0.33259,0.565012,0.45687,0.0329238,0.0831313,0.21402,-0.00253296
-0.159933,-0.31996,0.654872,0.443233,0.0663708,0.0978286,0.21402,-0.00253296
-0.0643968,-0.32965,0.594138,0.423331,0.0898907,0.0990239,0.21402,-0.00253296
0.244356,-0.312039,0.497389,0.413167,0.0820781,0.0890729,0.21402,-0.00253296
0.597987,-0.277183,0.460027,0.409936,0.0602307,0.12488,0.21402,-0.00253296
0.822238,-0.0477237,0.48963,0.390499,0.0307769,0.221624,0.21402,-0.00253296
0.915655,0.332096,0.622138,0.363935,0.00934751,0.311339,0.21402,-0.00253296
0.87103,0.708692,0.813776,0.332779,0.00627416,0.385323,0.21402,-0.00253296
0.682843,0.92362,1.05545,0.290872,-0.00143,0.42794,0.21402,-0.00253296
0.422401,0.861558,1.29261,0.24474,0.00554867,0.443441,0.21402,-0.00253296
0.170119,0.581887,1.46553,0.205679,0.0395008,0.446829,0.21402,-0.00253296
-0.0367449,0.254418,1.56278,0.169486,0.0651959,0.454741,0.21402,-0.00253296
-0.0367449,0.254418,1.56278,0.169486,0.0651959,0.454741,0.0528564,-0.000602722
-0.133672,0.0345596,1.57697,0.133706,0.0840989,0.466071,0.0528564,-0.000602722
-0.104747,0.00394669,1.50634,0.0968594,0.0988869,0.484973,0.0528564,-0.000602722
-0.00639089,0.199034,1.38849,0.0558346,0.0996872,0.503611,0.0528564,-0.000602722
0.035369,0.515459,1.2996,0.0254862,0.0872544,0.496844,0.0528564,-0.000602722
-0.101542,0.840085,1.18057,-0.0252013,0.0742046,0.459975,0.0528564,-0.000602722
-0.357605,1.15771,1.01611,-0.0898556,0.022527,0.323144,0.0528564,-0.000602722
-0.573631,1.33358,0.919354,-0.113495,-0.0328319,0.0602109,0.0528564,-0.000602722
-0.692059,1.42181,0.974315,-0.113424,-0.110653,-0.278331,0.0528564,-0.000602722
-0.652971,1.12796,1.13596,-0.11748,-0.157348,-0.624308,0.0528564,-0.000602722
-0.704939,0.603726,1.20238,-0.133971,-0.156914,-0.836343,0.0528564,-0.000602722
-0.864075,0.0793715,1.14026,-0.175834,-0.170553,-0.903525,0.0528564,-0.000602722
-0.885608,-0.396861,1.09212,-0.182758,-0.208731,-0.915817,0.0528564,-0.000602722
-0.625222,-0.918418,1.05908,-0.169581,-0.236979,-0.882171,0.0528564,-0.000602722
-0.272559,-1.24196,0.890237,-0.203271,-0.235225,-0.727584,0.0528564,-0.000602722
-0.0562635,-1.20481,0.591997,-0.252738,-0.227906,-0.504065,0.0528564,-0.000602722
0.0869138,-0.895675,0.25202,-0.263256,-0.239445,-0.324651,0.0528564,-0.000602722
0.317369,-0.480639,-0.050269,-0.216065,-0.229344,-0.228533,0.0528564,-0.000602722
0.641535,-0.197506,-0.279485,-0.137192,-0.187134,-0.178022,0.0528564,-0.000602722
0.979304,-0.111002,-0.502726,-0.0757677,-0.14291,-0.110444,0.0528564,-0.000602722
1.20509,-0.116113,-0.673716,-0.029084,-0.103934,-0.0180888,0.0528564,-0.000602722
1.26718,-0.0710345,-0.714645,0.0101751,-0.0926049,0.0754161,0.0528564,-0.000602722
1.19638,0.112581,-0.666383,0.0325489,-0.0730761,0.152648,0.0528564,-0.000602722
1.0821,0.353181,-0.59224,0.0243359,-0.0499677,0.181627,0.0528564,-0.000602722
0.982893,0.505767,-0.525896,0.0116269,-0.00560853,0.168942,0.0528564,-0.000602722
0.942514,0.503732,-0.464811,-0.00947591,0.0377453,0.140914,0.0528564,-0.000602722
1.00311,0.322251,-0.413461,-0.0300465,0.0801856,0.122193,0.0528564,-0.000602722
1.12701,0.0267442,-0.402193,-0.0519222,0.135369,0.146941,0.0528564,-0.000602722
1.2413,-0.286564,-0.468938,-0.0764398,0.192767,0.226896,0.0528564,-0.000602722
1.3102,-0.544634,-0.567899,-0.0872594,0.240995,0.334138,0.0528564,-0.000602722
1.30578,-0.717135,-0.64977,-0.0801165,0.276426,0.437908,0.0528564,-0.000602722
1.19311,-0.762941,-0.685609,-0.0638671,0.298897,0.52664,0.0528564,-0.000602722
1.0013,-0.650191,-0.710838,-0.0638634,0.306356,0.588331,0.0528564,-0.000602722
0.73556,-0.39894,-0.644245,-0.070531,0.298615,0.601873,0.0528564,-0.000602722
0.474759,-0.189005,-0.567195,-0.0686325,0.30671,0.570966,0.0528564,-0.000602722
0.266614,-0.0920253,-0.52203,-0.0722726,0.326215,0.490545,0.0528564,-0.000602722
0.0485936,-0.0864345,-0.510964,-0.0894513,0.346059,0.404063,0.0528564,-0.000602722
-0.245053,-0.128987,-0.574359,-0.128324,0.334631,0.309553,0.0528564,-0.000602722
-0.585751,0.0101348,-0.695139,-0.177289,0.275075,0.183979,0.0528564,-0.000602722
-0.753803,0.391197,-0.725352,-0.134772,0.205783,-0.0326099,0.0528564,-0.000602722
-0.845306,0.933414,-0.332591,0.00962702,0.0990464,-0.307133,0.0528564,-0.000602722
-1.16957,1.29374,0.40696,0.0845437,-0.0191035,-0.501281,0.0528564,-0.000602722
-1.67056,1.08078,0.97452,0.072703,-0.0663927,-0.664601,0.0528564,-0.000602722
-2.05812,0.389848,1.08189,0.0591473,-0.00198889,-0.786566,0.0528564,-0.000602722
-2.06948,-0.39235,0.846257,0.0354806,0.030451,-0.834993,0.0528564,-0.000602722
-1.65908,-0.835498,0.614153,0.043673,-0.0212919,-0.802917,0.0528564,-0.000602722
-1.04969,-0.847484,0.565447,0.102994,-0.10129,-0.677723,0.0528564,-0.000602722
-0.549597,-0.589886,0.606744,0.152221,-0.146134,-0.499732,0.0528564,-0.000602722
-0.340221,-0.231104,0.636659,0.173998,-0.14571,-0.309678,0.0528564,-0.000602722
-0.31696,-0.00688066,0.681386,0.187861,-0.119488,-0.181213,0.0528564,-0.000602722
-0.294338,0.0729889,0.64073,0.188013,-0.0688282,-0.11743,0.0528564,-0.000602722
-0.162302,0.145323,0.499645,0.187423,-0.015349,-0.0940182,0.0528564,-0.000602722
0.0462867,0.215724,0.288931,0.207166,0.0258666,-0.0801783,0.0528564,-0.000602722
0.280696,0.280273,0.127778,0.243536,0.0401573,-0.0614901,0.0528564,-0.000602722
0.280696,0.280273,0.127778,0.243536,0.0401573,-0.0614901,0.248367,-0.00296783
0.526281,0.387453,0.144295,0.299637,0.0414852,-0.028603,0.248367,-0.00296783
0.739382,0.574947,0.321533,0.337235,0.0459682,0.0213736,0.248367,-0.00296783
0.898162,0.709609,0.505662,0.327032,0.0667943,0.0877823,0.248367,-0.00296783
1.03141,0.700289,0.641928,0.300043,0.107728,0.162052,0.248367,-0.00296783
1.15254,0.607416,0.724414,0.268119,0.151553,0.25155,0.248367,-0.00296783
1.27122,0.499651,0.769272,0.236848,0.183098,0.342914,0.248367,-0.00296783
1.3418,0.491839,0.824352,0.210718,0.212188,0.438558,0.248367,-0.00296783
1.33553,0.581371,0.889319,0.183809,0.234965,0.524768,0.248367,-0.00296783
1.22131,0.706076,0.962441,0.160152,0.254347,0.595352,0.248367,-0.00296783
0.983583,0.832292,1.05852,0.138666,0.266937,0.647669,0.248367,-0.00296783
0.595141,0.918032,1.19343,0.116587,0.270539,0.678539,0.248367,-0.00296783
0.0188314,0.882583,1.39237,0.106127,0.246628,0.692892,0.248367,-0.00296783
-0.696001,0.944858,1.67522,0.100306,0.211299,0.666304,0.248367,-0.00296783
-1.47011,1.18223,2.07717,0.0860766,0.162382,0.557143,0.248367,-0.00296783
-2.19074,1.33176,2.60188,0.085136,0.115275,0.371259,0.248367,-0.00296783
-2.70764,1.28332,3.06635,0.0558876,0.116915,0.0898772,0.248367,-0.00296783
-2.82184,0.903628,3.24324,-0.0377076,0.169878,-0.210336,0.248367,-0.00296783
-2.50535,0.370314,3.03464,-0.166699,0.216663,-0.455879,0.248367,-0.00296783
-1.91333,-0.345889,2.48471,-0.304326,0.193057,-0.548834,0.248367,-0.00296783
-1.29629,-0.946246,1.84887,-0.375648,0.118502,-0.498979,0.248367,-0.00296783
-0.837223,-1.20125,1.3387,-0.373234,0.0106312,-0.323299,0.248367,-0.00296783
-0.61096,-1.11252,1.01756,-0.315573,-0.109596,-0.123915,0.248367,-0.00296783
-0.517936,-0.877012,0.852275,-0.221922,-0.2174,0.0297707,0.248367,-0.00296783
-0.421131,-0.480151,0.803933,-0.16371,-0.297608,0.10589,0.248367,-0.00296783
-0.306277,-0.0522279,0.859076,-0.12509,-0.348789,0.140665,0.248367,-0.00296783
-0.264323,0.243589,0.958398,-0.118971,-0.375461,0.145391,0.248367,-0.00296783
-0.300269,0.275287,0.985856,-0.123554,-0.366548,0.10843,0.248367,-0.00296783
-0.373357,0.167959,0.976974,-0.131928,-0.35204,0.032802,0.248367,-0.00296783
-0.44213,0.0122347,0.928924,-0.152058,-0.346969,-0.0637115,0.248367,-0.00296783
-0.526705,-0.129559,0.90139,-0.146328,-0.346458,-0.170215,0.248367,-0.00296783
-0.573138,-0.160036,0.932221,-0.102048,-0.348263,-0.34498,0.248367,-0.00296783
-0.529756,0.212695,1.01042,-0.0871995,-0.35668,-0.533026,0.248367,-0.00296783
-0.265077,0.561544,1.05896,-0.097606,-0.34601,-0.73586,0.248367,-0.00296783
0.209513,0.370011,1.08552,-0.0337372,-0.269329,-0.893138,0.248367,-0.00296783
0.725184,-0.260744,1.0013,0.0290026,-0.165997,-0.878916,0.248367,-0.00296783
1.17536,-0.974449,0.776886,0.0442971,-0.0895591,-0.692367,0.248367,-0.00296783
1.49162,-1.42033,0.540809,0.0605015,-0.0302368,-0.398106,0.248367,-0.00296783
1.69203,-1.59026,0.363622,0.100097,0.00999806,-0.104038,0.248367,-0.00296783
1.78579,-1.51039,0.23587,0.140188,0.0407681,0.129268,0.248367,-0.00296783
1.77458,-1.19837,0.14691,0.156398,0.0627816,0.295262,0.248367,-0.00296783
1.64608,-0.751941,0.0999559,0.135903,0.0616035,0.393602,0.248367,-0.00296783
1.41415,-0.214804,0.118084,0.0991237,0.0436929,0.420811,0.248367,-0.00296783
1.11249,0.304305,0.193428,0.0727215,0.0463369,0.36395,0.248367,-0.00296783
0.751346,0.628096,0.235948,0.0582189,0.0818873,0.267585,0.248367,-0.00296783
0.363648,0.786612,0.238526,0.0367956,0.11728,0.154767,0.248367,-0.00296783
0.10134,0.845269,0.206828,0.00339961,0.143945,0.0258749,0.248367,-0.00296783
0.132539,0.711252,0.112553,-0.0442613,0.171684,-0.110022,0.248367,-0.00296783
0.387343,0.375632,-0.065279,-0.0637842,0.222858,-0.178957,0.248367,-0.00296783
0.653939,-0.053157,-0.348765,-0.0715632,0.268764,-0.136054,0.248367,-0.00296783
0.760238,-0.285365,-0.61652,-0.065101,0.275221,0.00422716,0.248367,-0.00296783
0.71882,-0.32697,-0.741792,-0.0343057,0.248062,0.162496,0.248367,-0.00296783
0.548635,-0.250472,-0.762454,0.00428778,0.220707,0.291931,0.248367,-0.00296783
0.313269,-0.115138,-0.740228,0.0296583,0.201232,0.379389,0.248367,-0.00296783
0.0314198,0.0541094,-0.672528,0.0453863,0.186562,0.421845,0.248367,-0.00296783
0.0314198,0.0541094,-0.672528,0.0453863,0.186562,0.421845,0.251022,-0.00294495
-0.260343,0.214448,-0.590623,0.0531568,0.162178,0.410537,0.251022,-0.00294495
-0.510346,0.456515,-0.502893,0.0586164,0.141895,0.3268,0.251022,-0.00294495
-0.691543,0.78926,-0.482682,0.0240426,0.132811,0.17873,0.251022,-0.00294495
-0.756931,1.07532,-0.51195,0.0140391,0.117054,-0.0446246,0.251022,-0.00294495
-0.652421,1.03176,-0.398939,0.0580252,0.0738139,-0.342211,0.251022,-0.00294495
-0.546117,0.777673,-0.201885,0.0625529,0.0293992,-0.532919,0.251022,-0.00294495
-0.540526,0.421638,-0.119498,0.0345451,0.00831473,-0.608778,0.251022,-0.00294495
-0.598455,0.0955552,-0.0487083,0.0592586,0.00367057,-0.62797,0.251022,-0.00294495
-0.664803,0.0186265,0.121467,0.103531,-0.0397196,-0.604608,0.251022,-0.00294495
-0.637275,0.165748,0.413462,0.160722,-0.0806594,-0.58059,0.251022,-0.00294495
-0.541045,0.430092,0.760442,0.19799,-0.0759285,-0.545734,0.251022,-0.00294495
-0.465719,0.556265,1.07517,0.197186,-0.0525703,-0.500148,0.251022,-0.00294495
-0.431938,0.4548,1.29201,0.170832,-0.0201747,-0.439743,0.251022,-0.00294495
-0.293996,0.200645,1.35326,0.150824,0.0275818,-0.366046,0.251022,-0.00294495
0.0257234,-0.0758364,1.28419,0.147391,0.0908577,-0.258255,0.251022,-0.00294495
0.40927,-0.26089,1.10617,0.16102,0.13771,-0.104323,0.251022,-0.00294495
0.697739,-0.288321,0.955139,0.194149,0.156251,0.0769286,0.251022,-0.00294495
0.779883,-0.104567,0.900552,0.213853,0.145086,0.242465,0.251022,-0.00294495
0.682507,0.203119,0.932151,0.221519,0.120186,0.364943,0.251022,-0.00294495
0.446369,0.493251,0.988032,0.215218,0.107144,0.445103,0.251022,-0.00294495
0.142921,0.658834,1.03141,0.20059,0.0981789,0.478523,0.251022,-0.00294495
-0.0927265,0.683594,1.13344,0.211032,0.0798623,0.450255,0.251022,-0.00294495
-0.229094,0.575498,1.31663,0.217081,0.0604029,0.402979,0.251022,-0.00294495
-0.310842,0.413792,1.451,0.176152,0.0563893,0.381361,0.251022,-0.00294495
-0.35968,0.316262,1.44307,0.0979756,0.0557696,0.370787,0.251022,-0.00294495
-0.34136,0.319477,1.32534,0.0321091,0.0581845,0.358044,0.251022,-0.00294495
-0.266345,0.435994,1.18466,-0.00479269,0.0483271,0.342042,0.251022,-0.00294495
-0.200437,0.645721,1.08047,-0.0325727,0.0241504,0.314588,0.251022,-0.00294495
-0.183151,0.80537,1.03011,-0.0236697,-0.00666678,0.263739,0.251022,-0.00294495
-0.183293,0.90809,1.03034,-0.0295759,-0.0444402,0.171096,0.251022,-0.00294495
-0.18494,0.928281,1.04331,-0.044854,-0.0962539,0.0363535,0.251022,-0.00294495
-0.287924,1.00739,1.02226,-0.0852631,-0.131225,-0.100705,0.251022,-0.00294495
-0.413928,1.03909,0.988578,-0.10783,-0.168514,-0.260922,0.251022,-0.00294495
-0.341324,0.801292,1.02266,-0.0719262,-0.197461,-0.468524,0.251022,-0.00294495
-0.184813,0.40738,1.12072,-0.00444648,-0.178048,-0.611073,0.251022,-0.00294495
-0.138409,0.0498278,1.15486,-0.000947796,-0.164715,-0.624498,0.251022,-0.00294495
-0.227162,-0.232282,1.09578,-0.046636,-0.15833,-0.563175,0.251022,-0.00294495
-0.239318,-0.653698,0.948781,-0.0756594,-0.140567,-0.498089,0.251022,-0.00294495
-0.177551,-1.05966,0.777358,-0.0810303,-0.12331,-0.40632,0.251022,-0.00294495
-0.143492,-1.08801,0.596379,-0.108747,-0.128686,-0.283702,0.251022,-0.00294495
-0.123112,-0.790553,0.385234,-0.147115,-0.135393,-0.18922,0.251022,-0.00294495
-0.0131966,-0.452441,0.126424,-0.175963,-0.119197,-0.169645,0.251022,-0.00294495
0.222368,-0.314578,-0.165529,-0.16338,-0.0623662,-0.186916,0.251022,-0.00294495
0.484171,-0.43155,-0.464095,-0.120883,-0.00465502,-0.168908,0.251022,-0.00294495
0.698719,-0.566666,-0.726346,-0.0855321,0.0306503,-0.100349,0.251022,-0.00294495
0.808577,-0.440949,-0.880146,-0.0663112,0.0368261,0.00311643,0.251022,-0.00294495
0.82537,-0.0960045,-0.93951,-0.0465261,0.0387365,0.0929508,0.251022,-0.00294495
0.778274,0.265688,-0.91921,-0.0277225,0.0497697,0.138608,0.251022,-0.00294495
0.717217,0.45753,-0.839006,-0.0142859,0.0644185,0.143493,0.251022,-0.00294495
0.676886,0.397291,-0.749215,-0.0100712,0.0915338,0.152905,0.251022,-0.00294495
0.629169,0.163872,-0.700245,-0.0246313,0.130689,0.204473,0.251022,-0.00294495
0.556971,-0.121396,-0.73358,-0.0545404,0.154734,0.278218,0.251022,-0.00294495
0.488651,-0.304359,-0.775552,-0.079512,0.16531,0.358049,0.251022,-0.00294495
0.4197,-0.355837,-0.807152,-0.0921678,0.167875,0.432437,0.251022,-0.00294495
0.4197,-0.355837,-0.807152,-0.0921678,0.167875,0.432437,0.227249,-0.00267792
0.361946,-0.348433,-0.839633,-0.0941689,0.168244,0.496041,0.227249,-0.00267792
0.297743,-0.274365,-0.858956,-0.0917992,0.171084,0.542636,0.227249,-0.00267792
0.213384,-0.110019,-0.868485,-0.0943947,0.173954,0.574262,0.227249,-0.00267792
0.0834844,0.0584441,-0.841682,-0.0928509,0.167055,0.582169,0.227249,-0.00267792
-0.107552,0.153153,-0.775417,-0.0807468,0.164586,0.564317,0.227249,-0.00267792
-0.309929,0.205084,-0.719151,-0.0800935,0.155253,0.491618,0.227249,-0.00267792
-0.47868,0.24778,-0.733373,-0.0999862,0.148836,0.329414,0.227249,-0.00267792
-0.507403,0.184734,-0.832456,-0.153417,0.147971,0.04633,0.227249,-0.00267792
-0.487895,0.316252,-0.91233,-0.165662,0.119876,-0.244929,0.227249,-0.00267792
-0.498522,0.522538,-0.737739,-0.123732,0.0225815,-0.510076,0.227249,-0.00267792
-0.41809,0.363947,-0.343882,-0.0187788,-0.040078,-0.747848,0.227249,-0.00267792
-0.291433,0.00619919,-0.0831963,0.0129947,-0.0232095,-0.852864,0.227249,-0.00267792
-0.269073,-0.267002,-0.0474498,-0.0188891,0.0102282,-0.805224,0.227249,-0.00267792
-0.268552,-0.471951,-0.135984,-0.00974351,0.0091355,-0.689828,0.227249,-0.00267792
-0.127401,-0.569307,-0.19372,0.0645351,-0.00388904,-0.57772,0.227249,-0.00267792
0.0394435,-0.521259,-0.128317,0.155663,-0.0270477,-0.435564,0.227249,-0.00267792
0.0755793,-0.388593,0.0990662,0.243169,-0.0477537,-0.269504,0.227249,-0.00267792
-0.0693588,-0.237119,0.401471,0.291418,-0.0621549,-0.128823,0.227249,-0.00267792
-0.314648,-0.107585,0.664226,0.283744,-0.0610247,-0.038974,0.227249,-0.00267792
-0.473823,-0.039143,0.796008,0.258576,-0.0234184,-0.0274116,0.227249,-0.00267792
-0.48245,-0.0430107,0.7882,0.247585,0.0422734,-0.03449,0.227249,-0.00267792
-0.354337,-0.125154,0.649143,0.242448,0.0905044,-0.0282364,0.227249,-0.00267792
-0.118626,-0.172008,0.398416,0.22171,0.117117,-0.00890279,0.227249,-0.00267792
0.145153,-0.123356,0.147043,0.210953,0.12259,0.0259801,0.227249,-0.00267792
0.370675,0.0593792,-0.0291896,0.21539,0.103175,0.0798929,0.227249,-0.00267792
0.503537,0.331521,-0.00417737,0.252225,0.0530244,0.131611,0.227249,-0.00267792
0.518325,0.507722,0.236824,0.284347,0.000112191,0.150823,0.227249,-0.00267792
0.434484,0.38327,0.561627,0.288235,-0.0206107,0.170631,0.227249,-0.00267792
0.285532,0.152095,0.799738,0.231736,-0.00810587,0.221658,0.227249,-0.00267792
0.221461,-0.0504333,0.903976,0.156849,0.0161108,0.270101,0.227249,-0.00267792
0.266992,-0.139678,0.912084,0.101792,0.0483361,0.323906,0.227249,-0.00267792
0.381654,-0.100099,0.837637,0.0537899,0.0699489,0.388684,0.227249,-0.00267792
0.460983,0.0915859,0.739507,0.0269269,0.0793977,0.457747,0.227249,-0.00267792
0.427613,0.420538,0.652578,0.0278268,0.0820106,0.520451,0.227249,-0.00267792
0.349842,0.740389,0.622153,0.043054,0.0728276,0.539278,0.227249,-0.00267792
0.254631,0.949479,0.686799,0.0672099,0.0708002,0.498455,0.227249,-0.00267792
0.0852789,0.975022,0.81655,0.0610311,0.0671898,0.428317,0.227249,-0.00267792
-0.131896,0.767904,0.879355,0.0051468,0.0644218,0.315876,0.227249,-0.00267792
-0.341008,0.494531,0.856876,-0.0613381,0.0636552,0.171519,0.227249,-0.00267792
-0.555757,0.243617,0.81039,-0.120765,0.0195662,0.00981337,0.227249,-0.00267792
-0.629345,0.148028,0.733573,-0.201123,-0.0542492,-0.233621,0.227249,-0.00267792
-0.495032,0.100374,0.567451,-0.240723,-0.0855429,-0.4735,0.227249,-0.00267792
-0.509663,0.133349,0.389191,-0.234278,-0.121568,-0.598285,0.227249,-0.00267792
-0.607103,-0.0329799,0.291836,-0.214638,-0.20807,-0.668791,0.227249,-0.00267792
-0.652929,-0.434698,0.266111,-0.165975,-0.254979,-0.695845,0.227249,-0.00267792
-0.596934,-0.935431,0.224285,-0.124656,-0.268723,-0.655156,0.227249,-0.00267792
-0.47862,-1.15933,0.0732009,-0.130041,-0.274919,-0.543628,0.227249,-0.00267792
-0.333492,-0.955412,-0.1362,-0.14518,-0.276221,-0.402024,0.227249,-0.00267792
-0.155976,-0.539552,-0.330987,-0.121891,-0.266628,-0.303681,0.227249,-0.00267792
0.0749531,-0.256884,-0.45282,-0.0661239,-0.226817,-0.247988,0.227249,-0.00267792
0.319284,-0.173055,-0.568144,-0.0306879,-0.168249,-0.168507,0.227249,-0.00267792
0.533638,-0.252134,-0.720876,-0.0218304,-0.114908,-0.0672651,0.227249,-0.00267792
0.644291,-0.303416,-0.881167,-0.014566,-0.0731,0.0504643,0.227249,-0.00267792
0.692033,-0.194563,-1.01688,-0.00837104,-0.0411961,0.153502,0.227249,-0.00267792
0.692033,-0.194563,-1.01688,-0.00837104,-0.0411961,0.153502,0.232513,-0.00275421
0.765147,0.101512,-1.13352,-0.0308108,-0.0233943,0.208535,0.232513,-0.00275421
0.859131,0.386531,-1.21294,-0.040682,0.00385988,0.234771,0.232513,-0.00275421
0.894772,0.49813,-1.21977,-0.0296257,0.0189265,0.252472,0.232513,-0.00275421
0.840234,0.43625,-1.13493,-0.017888,0.0275044,0.264042,0.232513,-0.00275421
0.739172,0.310081,-0.972223,-0.0140967,0.0339276,0.279091,0.232513,-0.00275421
0.632275,0.180811,-0.811312,-0.0447158,0.0476924,0.295242,0.232513,-0.00275421
0.510966,0.0713201,-0.731806,-0.0999293,0.0763785,0.319476,0.232513,-0.00275421
0.397533,-0.0118008,-0.707401,-0.140281,0.10888,0.337397,0.232513,-0.00275421
0.318328,-0.0284403,-0.702495,-0.173254,0.12751,0.333803,0.232513,-0.00275421
0.298202,-0.0562796,-0.696554,-0.194789,0.141359,0.315718,0.232513,-0.00275421
0.309704,-0.144857,-0.706842,-0.216335,0.157183,0.296766,0.232513,-0.00275421
0.31094,-0.234337,-0.749805,-0.245453,0.173889,0.275853,0.232513,-0.00275421
0.256024,-0.260283,-0.790201,-0.270666,0.1766,0.249028,0.232513,-0.00275421
0.185825,-0.230144,-0.847284,-0.284898,0.183099,0.194623,0.232513,-0.00275421
0.117942,-0.149397,-0.876532,-0.289243,0.187256,0.0796654,0.232513,-0.00275421
0.0792624,-0.0751146,-0.837366,-0.289422,0.171443,-0.0762217,0.232513,-0.00275421
-0.00903027,-0.00651553,-0.790837,-0.254757,0.157971,-0.246732,0.232513,-0.00275421
-0.14487,-0.0721253,-0.794238,-0.215741,0.14476,-0.411949,0.232513,-0.00275421
-0.213748,-0.282498,-0.68019,-0.101487,0.112104,-0.564153,0.232513,-0.00275421
-0.195615,-0.525744,-0.437656,0.0379389,0.0813104,-0.650825,0.232513,-0.00275421
-0.263569,-0.592553,-0.13413,0.123908,0.0573913,-0.6507,0.232513,-0.00275421
-0.414833,-0.539941,0.178573,0.17049,0.0268931,-0.617208,0.232513,-0.00275421
-0.540738,-0.573847,0.42851,0.208851,0.0117061,-0.582204,0.232513,-0.00275421
-0.572231,-0.814083,0.583235,0.254878,0.0330103,-0.525033,0.232513,-0.00275421
-0.53025,-1.09561,0.675694,0.298425,0.049083,-0.409088,0.232513,-0.00275421
-0.506343,-1.15703,0.781065,0.32612,0.0453016,-0.242548,0.232513,-0.00275421
-0.515734,-0.881976,0.886089,0.31459,0.00173712,-0.0941621,0.232513,-0.00275421
-0.527003,-0.433243,0.968536,0.299359,-0.0442741,-0.00214148,0.232513,-0.00275421
-0.44446,-0.0227266,0.946007,0.285617,-0.0228316,0.0382177,0.232513,-0.00275421
-0.184313,0.214165,0.844254,0.289085,0.0205243,0.0620081,0.232513,-0.00275421
0.130834,0.196315,0.665279,0.298178,0.0550233,0.104642,0.232513,-0.00275421
0.392698,0.168579,0.432439,0.265374,0.0656802,0.177891,0.232513,-0.00275421
0.573606,0.265494,0.229999,0.237062,0.0792255,0.253537,0.232513,-0.00275421
0.60754,0.529473,-0.0270962,0.174291,0.0660995,0.344849,0.232513,-0.00275421
0.619318,0.78705,-0.00457585,0.233094,0.0613887,0.360106,0.232513,-0.00275421
0.61496,0.967317,0.309644,0.300081,0.0642523,0.355708,0.232513,-0.00275421
0.559238,1.11205,0.579867,0.248336,0.0187128,0.343805,0.232513,-0.00275421
0.385328,1.16282,0.811578,0.195675,-0.0136468,0.350466,0.232513,-0.00275421
0.056699,1.14828,1.11138,0.170619,0.0104933,0.3666,0.232513,-0.00275421
-0.349461,1.00397,1.32032,0.105951,-0.00487939,0.357063,0.232513,-0.00275421
-0.762041,0.896333,1.45774,0.0567825,-0.0166629,0.350785,0.232513,-0.00275421
-1.00511,0.895374,1.5454,0.0143716,-0.0171061,0.286452,0.232513,-0.00275421
-1.08772,0.944745,1.5099,-0.0389861,-0.0357063,0.203047,0.232513,-0.00275421
-1.31805,1.33711,1.3146,-0.0654602,-0.0431615,0.125186,0.232513,-0.00275421
-1.37854,0.868704,1.01467,-0.083613,-0.0798756,0.0940019,0.232513,-0.00275421
-1.23962,0.584074,0.999477,-0.0448242,-0.113386,-0.057748,0.232513,-0.00275421
-0.988691,0.475668,1.17504,-0.0154556,-0.0933102,-0.171447,0.232513,-0.00275421
-0.613693,0.358819,1.25683,-0.0344852,-0.0974408,-0.258948,0.232513,-0.00275421
-0.144757,0.17924,1.19408,-0.0642457,-0.0896128,-0.326976,0.232513,-0.00275421
0.277716,-0.0183295,1.17252,-0.0628333,-0.0793862,-0.358126,0.232513,-0.00275421
0.4243,-0.142888,1.21351,-0.0452757,-0.0771765,-0.29999,0.232513,-0.00275421
0.277733,-0.162074,1.0664,-0.102812,-0.0790005,-0.23011,0.232513,-0.00275421
0.00481337,-0.18023,0.711349,-0.174452,-0.0757065,-0.174913,0.232513,-0.00275421
-0.249895,-0.0953786,0.489938,-0.123528,-0.0930318,-0.209478,0.232513,-0.00275421
-0.249895,-0.0953786,0.489938,-0.123528,-0.0930318,-0.209478,0.248383,-0.00293732
-0.370369,-0.281969,0.448038,-0.0709202,-0.0716115,-0.210177,0.248383,-0.00293732
-0.343901,-0.648351,0.389483,-0.0586806,-0.0926867,-0.206519,0.248383,-0.00293732
-0.253877,-0.900235,0.163352,-0.0977965,-0.0767451,-0.148655,0.248383,-0.00293732
-0.229139,-0.636693,0.0967194,-0.0474914,-0.0523234,-0.138051,0.248383,-0.00293732
-0.268009,0.0514649,0.234929,-0.0238196,-0.00854522,-0.139244,0.248383,-0.00293732
-0.0508373,-0.0387865,0.162785,-0.0752003,0.0141709,-0.212094,0.248383,-0.00293732
0.161638,-0.266297,-0.200906,-0.146717,0.0706478,-0.195895,0.248383,-0.00293732
0.224115,-0.118589,-0.405082,-0.111377,0.125654,-0.143633,0.248383,-0.00293732
0.273028,-0.114797,-0.431908,-0.04228,0.096949,-0.0793133,0.248383,-0.00293732
0.346158,-0.159626,-0.419654,-0.0271164,0.0719732,-0.0476114,0.248383,-0.00293732
0.46185,-0.268494,-0.372878,0.00252905,0.0882459,0.0104795,0.248383,-0.00293732
0.550621,-0.374014,-0.278061,0.00493665,0.0973595,0.102208,0.248383,-0.00293732
0.555832,-0.366748,-0.219131,-0.0219222,0.098103,0.208726,0.248383,-0.00293732
0.50055,-0.308713,-0.232539,-0.0605545,0.0985435,0.283385,0.248383,-0.00293732
0.388868,-0.225427,-0.255778,-0.0708569,0.100328,0.345727,0.248383,-0.00293732
0.248074,-0.147476,-0.246458,-0.0575236,0.0875729,0.392308,0.248383,-0.00293732
0.0899622,-0.0645085,-0.232402,-0.0619493,0.0764949,0.418707,0.248383,-0.00293732
-0.076034,-0.00924626,-0.25953,-0.0665487,0.070166,0.433882,0.248383,-0.00293732
-0.242734,0.0420401,-0.305736,-0.0622458,0.0691281,0.431645,0.248383,-0.00293732
-0.392352,0.074236,-0.331424,-0.0604646,0.0494241,0.392864,0.248383,-0.00293732
-0.479673,0.0608708,-0.321706,-0.0412636,0.034053,0.339396,0.248383,-0.00293732
-0.448597,0.0421568,-0.281186,-0.0318542,0.0283146,0.265629,0.248383,-0.00293732
-0.363663,0.0062213,-0.236908,-0.0222701,0.0325195,0.195504,0.248383,-0.00293732
-0.279749,-0.0146819,-0.246718,-0.0259109,0.035327,0.120749,0.248383,-0.00293732
-0.26152,0.129286,-0.243941,-0.0375798,0.026856,0.0476551,0.248383,-0.00293732
-0.285555,0.380479,-0.220874,-0.0604272,0.00770316,-0.0371234,0.248383,-0.00293732
-0.308989,0.429994,-0.233924,-0.0652327,0.00241198,-0.162531,0.248383,-0.00293732
-0.452567,0.413351,-0.250613,-0.0341435,0.014743,-0.250722,0.248383,-0.00293732
-0.737842,0.503318,-0.263204,0.00942918,-8.77976e-05,-0.309068,0.248383,-0.00293732
-0.98158,0.710174,-0.218392,0.0583844,-0.0313721,-0.400006,0.248383,-0.00293732
-0.936107,0.817634,-0.1602,0.092994,-0.0387004,-0.54374,0.248383,-0.00293732
-0.637611,0.74883,-0.110728,0.119122,-0.0298038,-0.644556,0.248383,-0.00293732
-0.272815,0.416334,-0.103351,0.139276,-0.0351646,-0.643632,0.248383,-0.00293732
0.0766821,0.00925707,-0.0455564,0.189746,-0.044608,-0.560443,0.248383,-0.00293732
0.250538,-0.162536,0.186025,0.240877,-0.0586748,-0.408583,0.248383,-0.00293732
0.202222,-0.14799,0.440819,0.251009,-0.0629416,-0.24817,0.248383,-0.00293732
0.0572242,-0.0883346,0.652037,0.225562,-0.0610409,-0.149646,0.248383,-0.00293732
-0.0393983,-0.0812839,0.782671,0.193957,-0.0342592,-0.11051,0.248383,-0.00293732
-0.0212022,-0.140385,0.834386,0.187547,0.013254,-0.0964422,0.248383,-0.00293732
0.0806717,-0.116808,0.8215,0.180325,0.058212,-0.0790731,0.248383,-0.00293732
0.237866,0.0125011,0.789452,0.172974,0.0943943,-0.0477995,0.248383,-0.00293732
0.391226,0.156248,0.804917,0.189043,0.110753,0.00573748,0.248383,-0.00293732
0.505009,0.12265,0.843702,0.196951,0.109121,0.0727584,0.248383,-0.00293732
0.571361,-0.0254678,0.836869,0.180506,0.111074,0.160555,0.248383,-0.00293732
0.616409,-0.108638,0.819228,0.168554,0.115225,0.269888,0.248383,-0.00293732
0.636444,-0.101397,0.875069,0.143755,0.100316,0.371805,0.248383,-0.00293732
0.613062,-0.039186,1.04426,0.128989,0.0745592,0.454941,0.248383,-0.00293732
0.547258,0.00395297,1.1709,0.0797904,0.0758052,0.499627,0.248383,-0.00293732
0.428304,0.074665,1.15934,-0.000942698,0.0950968,0.503138,0.248383,-0.00293732
0.262438,0.0959355,1.02918,-0.062724,0.10883,0.493488,0.248383,-0.00293732
0.0731152,0.110133,0.883371,-0.0925165,0.115159,0.465266,0.248383,-0.00293732
-0.127714,0.194614,0.80335,-0.0891986,0.0973579,0.42446,0.248383,-0.00293732
-0.308517,0.22533,0.799026,-0.0751701,0.0677285,0.374972,0.248383,-0.00293732
-0.308517,0.22533,0.799026,-0.0751701,0.0677285,0.374972,0.258942,-0.00307465
-0.437816,0.23956,0.859149,-0.0635274,0.0363413,0.292158,0.258942,-0.00307465
-0.503941,0.237926,0.884444,-0.0597443,0.0334968,0.205157,0.258942,-0.00307465
-0.51317,0.163259,0.810108,-0.0462049,0.0482475,0.130172,0.258942,-0.00307465
-0.493392,0.110071,0.729134,-0.0321447,0.0458547,0.0782858,0.258942,-0.00307465
-0.440099,-0.0139637,0.687231,-0.0115403,0.00997621,0.0407986,0.258942,-0.00307465
-0.367148,-0.281652,0.68709,0.0240768,-0.0353592,0.0271619,0.258942,-0.00307465
-0.265202,-0.538346,0.64653,0.0313074,-0.0645376,0.028823,0.258942,-0.00307465
-0.1508,-0.59408,0.552178,0.0192317,-0.0787662,0.0558822,0.258942,-0.00307465
-0.116139,-0.579621,0.561102,0.0311775,-0.106088,0.0688431,0.258942,-0.00307465
-0.158297,-0.574711,0.576979,0.0766435,-0.136433,0.0422475,0.258942,-0.00307465
0.101727,-0.234577,0.770186,0.118524,-0.141532,0.0401593,0.258942,-0.00307465
0.0109724,0.349646,1.09746,0.104102,-0.17416,0.0106686,0.258942,-0.00307465
-0.368146,0.808926,1.13753,0.0736112,-0.141118,-0.0012185,0.258942,-0.00307465
-0.796798,1.02448,1.07433,0.0241211,-0.0989388,-0.115682,0.258942,-0.00307465
-0.81128,0.89531,0.954184,0.0109718,-0.0632745,-0.311402,0.258942,-0.00307465
