rotationRate_x,rotationRate_y,rotationRate_z,acceleration_x,acceleration_y,acceleration_z,relativeAltitude
-0.165716,-0.202086,-0.844342,0.0838264,0.0314675,0.261656,0
-0.338429,-0.0809398,-0.814517,0.0962145,0.00203206,0.233788,0
-0.434606,-0.0110482,-0.777348,0.1029,-0.0240683,0.189931,0
-0.463473,0.026245,-0.756506,0.10857,-0.0571145,0.156076,0
-0.497446,0.00757151,-0.751391,0.109863,-0.0955091,0.127285,0
-0.526921,-0.0046883,-0.706971,0.130123,-0.134764,0.0883885,0
-0.456109,0.0726245,-0.610186,0.141129,-0.144556,0.00832379,0
-0.315525,0.235329,-0.46571,0.156058,-0.152973,-0.0405098,0
-0.190491,0.369171,-0.283456,0.177923,-0.177712,-0.0456089,0
-0.124642,0.330923,-0.070751,0.196042,-0.211972,-0.0364558,0
-0.110611,0.0929759,0.145511,0.19374,-0.253198,-0.0514064,0
-0.0706694,-0.172326,0.275802,0.1541,-0.280419,-0.106504,0
0.0104974,-0.430048,0.330117,0.122042,-0.295847,-0.201196,0
0.120706,-0.361996,0.381857,0.103824,-0.294541,-0.318989,0
0.19175,-0.100884,0.42666,0.0906483,-0.293211,-0.375285,0
0.16025,0.187119,0.45328,0.100228,-0.287168,-0.34163,0
0.0203012,0.320801,0.527642,0.123272,-0.267247,-0.290171,0
-0.166285,0.28152,0.602181,0.101908,-0.247267,-0.271326,0
-0.311529,0.284719,0.568006,0.0665006,-0.261645,-0.318274,0
-0.342309,0.464289,0.455221,0.0345622,-0.252643,-0.40034,0
-0.296054,0.590081,0.360968,0.0343819,-0.203372,-0.442329,0
-0.217184,0.393054,0.393084,0.0676379,-0.107199,-0.434689,0
0.14028,0.220015,0.62513,0.108637,0.000866026,-0.48903,0
0.774374,0.346672,0.936488,0.0855775,0.123092,-0.492562,0
1.34469,0.537229,1.1255,0.0140007,0.205163,-0.354107,0
1.51982,0.430153,1.10418,-0.0270573,0.208618,-0.13862,0
1.35987,0.0593681,0.943423,-0.0738788,0.204724,0.0033353,0
1.06809,-0.239881,0.627702,-0.122587,0.218423,0.025613,0
0.826318,-0.334987,0.281652,-0.124642,0.260947,-0.0273651,0
0.735878,-0.106086,0.0370801,-0.0846273,0.324903,-0.0822378,0
0.80706,0.353809,-0.0260337,-0.0297616,0.404299,-0.0857415,0
0.898908,0.85238,0.0790173,0.0121597,0.468458,0.00877714,0
0.900194,1.05041,0.267942,0.0459562,0.484992,0.175079,0
0.855084,0.885254,0.443311,0.0550584,0.457701,0.311926,0
0.816794,0.455264,0.550321,0.0568028,0.408027,0.3843,0
0.762269,-0.010521,0.592837,0.0548265,0.373352,0.397972,0
0.648849,-0.224407,0.624346,0.0592359,0.370532,0.367926,0
0.466823,-0.132157,0.650782,0.0446867,0.38561,0.326919,0
0.22112,0.0391848,0.649047,0.0310755,0.38048,0.315939,0
-0.030763,0.0614854,0.580448,0.0238839,0.341443,0.310225,0
-0.213419,-0.0125346,0.451975,0.0275509,0.291859,0.279037,0
-0.372159,-0.11344,0.328698,0.0483668,0.266299,0.248073,0
-0.569026,-0.140604,0.25494,0.0706761,0.255939,0.218834,0
-0.795057,-0.111347,0.240013,0.0946103,0.249088,0.178117,0
-1.02088,-0.0331994,0.250565,0.109979,0.225275,0.130965,0
-1.20201,0.0536709,0.213606,0.107486,0.177296,0.0798742,0
-1.27069,0.223627,0.187631,0.123132,0.142162,0.0284272,0
-1.21671,0.408828,0.277652,0.142051,0.143828,-0.00191087,0
-1.07321,0.523582,0.478086,0.163263,0.148205,-0.0016619,0
-0.934684,0.494612,0.655643,0.14733,0.104815,0.0261521,0
-0.896452,0.369133,0.735537,0.114614,0.0376819,0.0567636,0
-0.896452,0.369133,0.735537,0.114614,0.0376819,0.0567636,0
-0.914608,0.288781,0.767395,0.0899543,-0.0205079,0.0460638,0
-0.922106,0.270994,0.768154,0.0775829,-0.0617851,-0.00840151,0
-0.922335,0.220447,0.776366,0.059415,-0.0904439,-0.0875239,0
-0.906346,0.129344,0.823693,0.0487539,-0.126775,-0.204399,0
-0.792281,0.0482413,0.825914,0.0327685,-0.180441,-0.375585,0
-0.647978,0.033836,0.780106,0.00932905,-0.214067,-0.517809,0
-0.527988,-0.0450994,0.776922,-0.0325461,-0.222355,-0.603876,0
-0.371964,-0.14551,0.731621,-0.137649,-0.200306,-0.6792,0
-0.130624,-0.0629942,0.553648,-0.254297,-0.187077,-0.747627,0
0.0272247,0.0966451,0.286004,-0.335821,-0.182584,-0.730382,0
-0.00433536,0.0613526,-0.000305964,-0.366772,-0.175439,-0.634313,0
-0.06169,-0.0300085,-0.314834,-0.397476,-0.145641,-0.573112,0
0.0309417,0.021913,-0.601841,-0.401492,-0.0826297,-0.549868,0
0.370616,0.261488,-0.784394,-0.37913,0.0138027,-0.492276,0
0.837783,0.557312,-0.801351,-0.34596,0.130834,-0.33344,0
1.27911,0.648249,-0.707697,-0.33545,0.221188,-0.0974263,0
1.59424,0.454378,-0.625794,-0.352146,0.264092,0.138032,0
1.70258,-0.0579115,-0.632683,-0.364381,0.270476,0.316166,0
1.59354,-0.739586,-0.787659,-0.368161,0.250246,0.412867,0
1.27427,-1.32926,-1.13114,-0.386991,0.229271,0.448326,0
0.777656,-1.73893,-1.59073,-0.39699,0.243519,0.445329,0
0.241794,-1.79279,-2.02337,-0.345827,0.274301,0.381155,0
-0.151457,-1.42173,-2.35164,-0.273035,0.329786,0.279932,0
-0.364269,-0.826866,-2.49064,-0.172248,0.385121,0.201529,0
-0.35819,-0.340336,-2.35078,-0.0412631,0.422828,0.174386,0
-0.120799,-0.22749,-2.04428,0.0580625,0.421294,0.169631,0
0.20956,-0.254816,-1.76863,0.0913392,0.383175,0.200214,0
0.376505,-0.512141,-1.59564,0.0813058,0.341137,0.278453,0
0.393424,-0.888352,-1.46007,0.104523,0.287784,0.330908,0
0.292988,-1.19959,-1.38222,0.124991,0.245875,0.328723,0
0.104147,-1.26346,-1.37867,0.143226,0.205393,0.281504,0
-0.183237,-1.10167,-1.43247,0.141827,0.171021,0.228973,0
-0.585782,-0.854385,-1.54985,0.13092,0.138165,0.190626,0
-0.947042,-0.75642,-1.64645,0.152193,0.0876139,0.134093,0
-1.14698,-0.862196,-1.6574,0.178592,0.0567538,0.0372741,0
-1.14683,-0.919759,-1.56311,0.191292,0.0441774,-0.0898488,0
-0.974066,-0.760296,-1.44693,0.18902,0.0183218,-0.208471,0
-0.699952,-0.384474,-1.31599,0.20136,-0.013783,-0.260632,0
-0.508573,-0.0175248,-1.17053,0.22081,-0.0516496,-0.215989,0
-0.432098,0.188244,-0.987177,0.237143,-0.101067,-0.119677,0
-0.395645,0.183935,-0.760317,0.245543,-0.143385,-0.0478113,0
-0.339768,0.0664538,-0.559564,0.234935,-0.19888,-0.0461316,0
-0.232449,0.0113282,-0.465809,0.194262,-0.268757,-0.119427,0
-0.187646,0.00404911,-0.498654,0.180682,-0.332095,-0.197987,0
-0.315503,-0.0303706,-0.525772,0.205714,-0.359219,-0.260591,0
-0.440483,0.115444,-0.42176,0.240214,-0.343523,-0.372039,0
-0.37666,0.415512,-0.300104,0.25654,-0.321289,-0.516391,0
-0.19451,0.710142,-0.17262,0.278577,-0.304756,-0.582095,0
-0.146367,0.71448,0.0308024,0.318331,-0.263871,-0.515506,0
-0.190859,0.660576,0.277633,0.339454,-0.22064,-0.451651,0
-0.108123,0.769041,0.545601,0.327385,-0.163704,-0.441531,0
-0.108123,0.769041,0.545601,0.327385,-0.163704,-0.441531,0
0.133101,0.969725,0.862761,0.323641,-0.0869173,-0.381997,0
0.409017,1.19107,1.26164,0.30683,0.00726317,-0.239182,0
0.65194,1.36692,1.67455,0.263512,0.0739866,-0.0516058,0
0.757767,1.27557,2.01067,0.209532,0.101696,0.137748,0
0.737544,0.855268,2.25174,0.163571,0.108735,0.264697,0
0.672222,0.254356,2.39906,0.123015,0.1112,0.310957,0
0.582233,-0.227658,2.44904,0.0824171,0.129127,0.28307,0
0.484851,-0.367447,2.38704,0.0240402,0.139975,0.205227,0
0.42938,-0.210817,2.21047,-0.0227451,0.152681,0.113143,0
0.429484,0.105941,1.97649,-0.0332781,0.158464,0.0606119,0
0.465436,0.434515,1.80381,-0.00380367,0.172593,0.06614,0
0.503083,0.564135,1.7484,0.0428409,0.199761,0.142488,0
0.549123,0.538851,1.73656,0.0731165,0.216458,0.233113,0
0.60644,0.477834,1.72142,0.0655555,0.23045,0.303366,0
0.607373,0.420089,1.62415,0.025734,0.233142,0.371768,0
0.516648,0.34445,1.45505,0.00566856,0.21078,0.422714,0
0.317308,0.259548,1.2546,0.0126763,0.184214,0.43769,0
0.0543682,0.149491,1.10057,0.0568793,0.170078,0.413333,0
-0.174259,0.0572365,1.00136,0.0868665,0.15414,0.319616,0
-0.360729,0.00128236,0.875543,0.0925696,0.117773,0.185155,0
-0.529643,-0.147951,0.743034,0.10624,0.0849445,0.0363477,0
-0.675447,-0.318638,0.677577,0.117559,0.0698915,-0.131656,0
-0.650744,-0.259936,0.636342,0.0884085,0.0530248,-0.33904,0
-0.454281,0.0576948,0.592313,0.0313086,0.04745,-0.499836,0
-0.274761,0.48421,0.547435,-0.0250122,0.0405501,-0.534908,0
-0.29064,0.735939,0.484678,-0.0617111,0.038419,-0.443685,0
-0.421833,0.703637,0.415083,-0.0385039,0.000654548,-0.334168,0
-0.492325,0.534954,0.377911,-0.0118561,-0.0216273,-0.302212,0
-0.461399,0.35613,0.423905,-0.0128656,-0.022994,-0.327892,0
-0.350193,0.182614,0.550216,-0.0445484,6.72042e-06,-0.354907,0
-0.233187,0.0177204,0.565239,-0.114511,-0.000948295,-0.344985,0
-0.217699,-0.0683244,0.41004,-0.190482,-0.0286202,-0.300381,0
-0.285284,-0.0224899,0.168109,-0.239944,-0.039767,-0.261268,0
-0.266249,0.168101,-0.0282552,-0.257531,5.47022e-05,-0.233476,0
-0.133595,0.400248,-0.113013,-0.25963,0.0514357,-0.172036,0
0.046748,0.479275,-0.126697,-0.251905,0.0906441,-0.0691513,0
0.222073,0.290169,-0.129055,-0.263675,0.120199,0.0427542,0
0.355298,-0.102111,-0.205433,-0.292106,0.140093,0.125461,0
0.388648,-0.383251,-0.339879,-0.318729,0.153684,0.161588,0
0.335194,-0.419107,-0.499111,-0.330342,0.163305,0.170126,0
0.278627,-0.266126,-0.640284,-0.303186,0.179519,0.17843,0
0.241907,-0.00845936,-0.747852,-0.265106,0.176314,0.205404,0
0.240346,0.174996,-0.798269,-0.211623,0.168294,0.261441,0
0.238968,0.14891,-0.800725,-0.164604,0.15508,0.328981,0
0.228427,-0.0220828,-0.784919,-0.1182,0.13079,0.383749,0
0.178425,-0.279743,-0.815088,-0.0952901,0.0959488,0.413857,0
0.053307,-0.566252,-0.866104,-0.0584437,0.0710213,0.427172,0
-0.102221,-0.772686,-0.861516,-0.00878401,0.0466409,0.378213,0
-0.240535,-0.823068,-0.849531,-0.00285685,0.0396516,0.278238,0
-0.33822,-0.874223,-0.898411,0.000146784,-0.00211665,0.164959,0
-0.33822,-0.874223,-0.898411,0.000146784,-0.00211665,0.164959,0
-0.339318,-0.900214,-0.905476,0.07043,-0.0666056,0.0334008,0
-0.290537,-0.838522,-0.824978,0.112906,-0.0896729,-0.087186,0
-0.241996,-0.709306,-0.72893,0.125461,-0.117895,-0.180084,0
-0.221986,-0.584236,-0.66372,0.129646,-0.153154,-0.244044,0
-0.18527,-0.420432,-0.640454,0.100261,-0.174502,-0.30817,0
-0.16316,-0.274702,-0.675151,0.0802158,-0.192086,-0.354835,0
-0.211957,-0.186583,-0.708479,0.0979926,-0.207521,-0.37641,0
-0.200001,-0.0964446,-0.684976,0.127338,-0.189798,-0.408618,0
-0.0922544,0.101933,-0.591654,0.12776,-0.140587,-0.434338,0
0.0917775,0.1894,-0.416246,0.140306,-0.10206,-0.401426,0
0.301928,0.219864,-0.225122,0.133604,-0.0799235,-0.347012,0
0.389151,0.0472915,-0.1274,0.129897,-0.058383,-0.24177,0
0.28612,-0.171629,-0.0959614,0.12775,-0.0566668,-0.122404,0
0.0819508,-0.281812,-0.0717352,0.102579,-0.0136936,-0.0569451,0
-0.0709288,-0.274096,-0.0701807,0.114574,0.0316196,-0.0191193,0
-0.00199213,0.114621,0.0539652,0.14783,0.0811268,-0.0118546,0
0.219081,0.48502,0.328619,0.183806,0.147988,0.0280876,0
0.420866,0.5657,0.612471,0.226902,0.149515,0.105691,0
0.524368,0.401536,0.841783,0.236089,0.110438,0.170425,0
0.580743,0.15134,0.991267,0.224914,0.0944129,0.184315,0
0.59837,0.0753786,1.06506,0.195655,0.0958427,0.186834,0
0.527493,0.222495,1.05501,0.1454,0.089709,0.20644,0
0.357209,0.366776,0.999842,0.120476,0.0836335,0.238408,0
0.134244,0.393528,0.985187,0.138311,0.0814398,0.26705,0
0.0180601,0.278502,0.979231,0.148588,0.0795308,0.245853,0
-0.00736124,0.232311,0.936614,0.13977,0.0725135,0.202132,0
-0.00341732,0.334668,0.906381,0.121585,0.0741939,0.165242,0
-0.0251405,0.418421,0.931951,0.11829,0.0904299,0.151849,0
-0.0185318,0.461858,1.01708,0.131817,0.10356,0.139265,0
0.057905,0.477847,1.09517,0.134562,0.111042,0.116339,0
0.175939,0.425393,1.15158,0.128545,0.0975567,0.0884904,0
0.19136,0.34702,1.16492,0.121739,0.0781213,0.107636,0
0.0598057,0.355698,1.11502,0.0638555,0.0576524,0.122422,0
-0.107341,0.374153,1.05771,0.0519752,0.0416311,0.106002,0
-0.160716,0.337209,1.01651,0.062931,0.0324259,0.0455034,0
-0.10119,0.276207,0.987226,0.0500571,0.0278057,-0.017756,0
-0.0187236,0.34128,0.947327,0.0419846,0.0200948,-0.0605958,0
-0.0317695,0.405073,0.940743,0.0535024,0.014154,-0.0568364,0
-0.137079,0.417492,0.968352,0.053945,0.00461674,-0.0403042,0
-0.264101,0.396211,0.965797,0.0418479,-0.0226889,-0.0581418,0
-0.319327,0.403708,0.897381,0.0159265,-0.0606277,-0.13587,0
-0.283206,0.469943,0.764123,-0.00247919,-0.0903867,-0.217353,0
-0.178124,0.118972,0.653867,0.0266141,-0.0819884,-0.175635,0
-0.218067,-0.29867,0.698598,0.0996409,-0.0859944,-0.226055,0
-0.280067,-0.124621,0.656659,0.0234932,-0.077019,-0.324512,0
-0.440555,-0.00330323,0.55492,-0.0353593,-0.0669397,-0.298881,0
-0.545513,-0.320589,0.648626,0.0148896,-0.0500063,-0.256254,0
-0.475652,-0.609771,0.626945,-0.0236485,-0.053298,-0.264711,0
-0.335136,-0.625349,0.474128,-0.091936,-0.0684313,-0.299729,0
-0.219891,-0.426477,0.267485,-0.130435,-0.0542761,-0.30296,0
-0.0749876,-0.0909835,0.162645,-0.104805,-0.00879225,-0.279253,0
-0.0749876,-0.0909835,0.162645,-0.104805,-0.00879225,-0.279253,0.158539
0.151703,0.343307,0.203193,-0.0572184,0.0508675,-0.215902,0.158539
0.382041,0.583842,0.352554,-0.0187724,0.107703,-0.0924236,0.158539
0.582038,0.487498,0.498597,-0.014345,0.117461,0.0455393,0.158539
0.683721,0.150122,0.521721,-0.0516513,0.100266,0.146104,0.158539
0.642942,-0.0993664,0.444819,-0.0908509,0.0753914,0.195559,0.158539
0.467314,-0.120113,0.323099,-0.109924,0.0747752,0.210705,0.158539
0.243493,-0.0469752,0.247009,-0.114062,0.0951355,0.214479,0.158539
0.0814801,0.0976714,0.230177,-0.0886108,0.10962,0.200961,0.158539
0.07046,0.167597,0.23969,-0.0624363,0.110646,0.186522,0.158539
0.170961,0.162056,0.266081,-0.0347683,0.102218,0.192322,0.158539
0.289716,0.132473,0.319754,-0.00524122,0.0923308,0.22055,0.158539
0.280632,0.0364519,0.32489,0.00255391,0.0754243,0.265047,0.158539
0.143327,-0.0218155,0.306079,0.00795551,0.0483155,0.284649,0.158539
-0.0588783,-0.0775201,0.308838,0.0269075,0.0354325,0.284167,0.158539
-0.194802,-0.0810434,0.356515,0.0402146,0.0289388,0.247027,0.158539
-0.221307,-0.0686828,0.399234,0.0441254,0.0129924,0.185276,0.158539
-0.172181,-0.0629854,0.451403,0.0391296,-0.000319093,0.140634,0.158539
-0.115214,-0.0419601,0.473331,0.0279879,-0.0153524,0.11662,0.158539
-0.0993651,-0.0467816,0.452457,0.0270394,-0.0326322,0.0973957,0.158539
-0.125257,0.0736002,0.453952,0.0348624,-0.0421581,0.0681576,0.158539
-0.164586,0.229137,0.516611,0.0460255,-0.0315454,0.0524239,0.158539
-0.0922002,0.333026,0.600517,0.0539744,-0.0330974,0.0358252,0.158539
0.0298606,0.306142,0.649154,0.0539179,-0.0445573,0.0454282,0.158539
0.0904372,0.233143,0.658371,0.0517242,-0.0610428,0.0454324,0.158539
0.11373,0.234472,0.689949,0.0681475,-0.063862,0.0212253,0.158539
0.136039,0.287119,0.760869,0.0899961,-0.0567434,-0.0289153,0.158539
0.150282,0.249054,0.877008,0.117492,-0.0458228,-0.0693611,0.158539
0.192365,0.154423,0.963131,0.106959,-0.0480597,-0.117127,0.158539
0.195223,0.0424012,0.931492,0.0427084,-0.0335521,-0.161524,0.158539
0.152054,0.20803,0.860054,0.0126639,-0.0247632,-0.194154,0.158539
0.0976759,0.532488,0.836707,0.0355627,0.00210842,-0.171468,0.158539
0.053462,0.806466,0.888674,0.0830782,0.0327692,-0.0954288,0.158539
0.0174242,0.720869,0.988437,0.121817,0.0523508,-0.00131309,0.158539
-0.022435,0.407108,1.05838,0.148484,0.0383882,0.0457204,0.158539
0.0257666,0.315697,1.09048,0.149406,0.0317627,0.025411,0.158539
0.108169,0.4959,1.11886,0.137762,0.0676501,0.0169148,0.158539
0.168677,0.69146,1.20943,0.162335,0.0912219,0.056393,0.158539
0.160341,0.711314,1.33105,0.18379,0.0939447,0.120738,0.158539
0.0500029,0.527293,1.43767,0.207839,0.08715,0.166673,0.158539
-0.0746238,0.291831,1.53888,0.223551,0.0552287,0.148448,0.158539
-0.127458,0.111546,1.57391,0.193076,0.0453422,0.0848185,0.158539
-0.0979464,0.0804176,1.52315,0.157131,0.0339274,-0.0016005,0.158539
-0.0880285,0.127732,1.47425,0.164212,0.0310927,-0.0470419,0.158539
-0.136327,0.196339,1.47448,0.183464,0.0343229,-0.060948,0.158539
-0.187881,0.295904,1.51471,0.195183,0.0357219,-0.0813901,0.158539
-0.163736,0.381511,1.54565,0.179944,0.0283625,-0.100902,0.158539
-0.0731917,0.368988,1.52621,0.155646,0.00869206,-0.0984802,0.158539
0.045109,0.321685,1.47981,0.153559,-0.00909272,-0.0706267,0.158539
0.112083,0.318953,1.41976,0.146131,-0.0203823,-0.0266564,0.158539
0.0896552,0.351977,1.36682,0.134775,-0.0233744,0.0197403,0.158539
0.0343776,0.348199,1.32398,0.128908,-0.0261135,0.045191,0.158539
0.0194689,0.313637,1.28882,0.116957,-0.0276461,0.0464257,0.158539
0.0703742,0.26941,1.23816,0.100546,-0.0258134,0.027971,0.158539
0.145401,0.207406,1.20404,0.0820902,-0.0166221,0.0159511,0.158539
0.188485,0.0973781,1.16143,0.0693708,-0.0126806,0.00783581,0.158539
0.262041,-0.0439095,1.11727,0.0657786,-0.0205875,-0.0281615,0.158539
0.354668,-0.112401,1.04882,0.0303861,-0.00714137,-0.0817571,0.158539
0.435494,-0.0705404,0.995747,0.00681034,0.00676799,-0.127522,0.158539
0.485818,0.0520971,0.949639,-0.0136306,0.00850719,-0.156241,0.158539
0.426253,0.094205,0.8615,-0.067447,0.00995386,-0.150892,0.158539
0.189534,-0.00456729,0.633407,-0.15217,-0.00370812,-0.122941,0.158539
-0.0617747,-0.0200775,0.263932,-0.186765,-0.0605278,-0.138758,0.158539
-0.26139,0.0481804,-0.0985646,-0.168967,-0.0736772,-0.165357,0.158539
-0.35148,0.187911,-0.205088,-0.119436,-0.0111918,-0.175347,0.158539
-0.290033,0.296975,-0.148255,-0.0943177,0.0532227,-0.170085,0.158539
-0.11172,0.359453,-0.0685079,-0.0918459,0.0866312,-0.133088,0.158539
0.0937084,0.413405,-0.0053539,-0.109566,0.106287,-0.0677569,0.158539
0.235379,0.42492,0.0135604,-0.137275,0.117864,0.0142421,0.158539
0.282602,0.286494,0.0577719,-0.12649,0.123236,0.098751,0.158539
0.236741,-0.0109245,0.116024,-0.113661,0.130905,0.162142,0.158539
0.125156,-0.314597,0.123867,-0.13962,0.128158,0.173404,0.158539
0.00846459,-0.523316,0.0507648,-0.170128,0.117085,0.142622,0.158539
-0.0458235,-0.486854,-0.0945844,-0.18571,0.0981111,0.0820629,0.158539
-0.0927058,-0.283888,-0.241637,-0.157371,0.0864532,0.0540387,0.158539
-0.194234,-0.0168466,-0.302137,-0.109785,0.089233,0.0722505,0.158539
-0.194234,-0.0168466,-0.302137,-0.109785,0.089233,0.0722505,0.340866
-0.294626,0.0424636,-0.294153,-0.0687123,0.0854136,0.108296,0.340866
-0.256905,-0.0423445,-0.265923,-0.0254976,0.0610551,0.107295,0.340866
-0.168873,-0.179666,-0.245808,0.00293301,0.0322998,0.0947003,0.340866
-0.140353,-0.194596,-0.216879,0.00805841,0.005474,0.0903701,0.340866
-0.190937,-0.135477,-0.211598,-0.00516493,-0.0144596,0.0932851,0.340866
-0.25759,-0.0553785,-0.246819,-0.0264299,-0.0460897,0.0764872,0.340866
-0.320856,-0.0590225,-0.294234,-0.0200517,-0.0730168,0.0602151,0.340866
-0.363395,-0.00604342,-0.320178,-0.00162635,-0.085275,0.0350182,0.340866
-0.392654,0.0680137,-0.302976,0.0108672,-0.0792585,0.0129699,0.340866
-0.324582,0.112219,-0.25202,0.0278184,-0.0879723,-0.0197325,0.340866
-0.151142,0.0916892,-0.174925,0.0403828,-0.100696,-0.0601957,0.340866
0.045318,0.0755885,-0.0738064,0.0431005,-0.100178,-0.0967686,0.340866
0.155869,0.122547,0.00301718,0.0313115,-0.101872,-0.104661,0.340866
0.12612,0.163237,0.0360149,0.00862326,-0.109629,-0.0969928,0.340866
0.0548624,0.16323,0.0363794,-0.0193684,-0.109933,-0.115819,0.340866
0.00630594,0.187344,0.0302602,-0.0380283,-0.102481,-0.155961,0.340866
0.00337508,0.215618,0.043618,-0.0303106,-0.0970687,-0.205399,0.340866
0.00229123,0.251587,0.068844,-0.0263207,-0.0852101,-0.232998,0.340866
-0.0437609,0.298505,0.0883677,-0.0139942,-0.0780126,-0.236379,0.340866
-0.165595,0.259691,0.0733198,-0.00830079,-0.0822959,-0.224105,0.340866
-0.324955,0.178935,0.0376911,-0.00487189,-0.0802687,-0.230779,0.340866
-0.455828,0.157625,0.0229326,0.0128626,-0.0611128,-0.260592,0.340866
-0.48907,0.191664,0.0579323,0.0355571,-0.0294128,-0.292641,0.340866
-0.421015,0.258482,0.111751,0.0378765,0.00615844,-0.300197,0.340866
-0.276271,0.373603,0.189678,0.0543826,0.038045,-0.266147,0.340866
0.00819887,0.623093,0.367517,0.105044,0.0715466,-0.214379,0.340866
0.361551,0.853096,0.633891,0.134813,0.12032,-0.110018,0.340866
0.60419,0.763816,0.890481,0.144494,0.133217,0.0466166,0.340866
0.669444,0.425445,1.02742,0.131827,0.0909364,0.166578,0.340866
0.58401,0.00361693,1.02921,0.0806961,0.0542128,0.216686,0.340866
0.454213,-0.322904,0.900918,0.0377036,0.028464,0.186065,0.340866
0.357418,-0.23987,0.691366,-0.000281543,0.0360899,0.104613,0.340866
0.288851,0.0703621,0.505275,-0.00774236,0.0619244,0.0629781,0.340866
0.301907,0.362427,0.421129,0.0286516,0.0852537,0.0674332,0.340866
0.349496,0.41659,0.439047,0.0791948,0.108994,0.127552,0.340866
0.374563,0.306396,0.504127,0.103408,0.113045,0.19374,0.340866
0.380096,0.117717,0.557757,0.0937707,0.101468,0.23465,0.340866
0.324366,0.0547477,0.508579,0.0818297,0.0798739,0.232266,0.340866
0.207325,0.101827,0.439691,0.0593651,0.0774732,0.216952,0.340866
0.10306,0.167296,0.391842,0.0537543,0.0904841,0.190043,0.340866
0.094655,0.218109,0.359835,0.0481912,0.0956175,0.147946,0.340866
0.133987,0.218881,0.344613,0.0546974,0.10251,0.129671,0.340866
0.139865,0.162872,0.370402,0.068622,0.0972117,0.135975,0.340866
0.0709661,0.0842648,0.397639,0.0688371,0.0815057,0.142289,0.340866
-0.0237785,0.0515258,0.358012,0.0430275,0.0454967,0.111873,0.340866
-0.112438,-0.000743672,0.264389,0.0224156,0.016164,0.0708441,0.340866
-0.173187,0.00693183,0.176085,0.0132794,0.00519106,0.0097574,0.340866
-0.192686,0.0980223,0.151264,0.0166008,0.0102209,-0.0513297,0.340866
-0.201633,0.139208,0.199442,0.0437595,0.0198822,-0.0719005,0.340866
-0.200133,0.0815137,0.267274,0.0472307,0.00338,-0.0839382,0.340866
-0.169697,-0.108477,0.306833,0.0290607,-0.011964,-0.106236,0.340866
-0.110121,-0.241839,0.332887,0.0147207,-0.0246642,-0.150298,0.340866
-0.0804619,-0.335369,0.341918,-0.00973893,-0.0254754,-0.18641,0.340866
-0.0899542,-0.404026,0.32125,-0.0276387,-0.0351623,-0.206775,0.340866
-0.0899542,-0.404026,0.32125,-0.0276387,-0.0351623,-0.206775,0.35672
-0.192469,-0.399221,0.276819,-0.0661696,-0.0356622,-0.217692,0.35672
-0.335023,-0.396985,0.173769,-0.119803,-0.0478267,-0.229965,0.35672
-0.514789,-0.565198,-0.0445307,-0.159368,-0.0774587,-0.23965,0.35672
-0.715916,-0.768463,-0.353335,-0.179078,-0.108649,-0.280137,0.35672
-0.830329,-0.768437,-0.608158,-0.175122,-0.0865873,-0.361734,0.35672
-0.686558,-0.454661,-0.747743,-0.148492,-0.028719,-0.454487,0.35672
-0.294074,-0.0272627,-0.74365,-0.0980995,0.0345074,-0.432665,0.35672
0.195973,0.260576,-0.620421,-0.0429259,0.0782635,-0.275827,0.35672
0.531764,0.268943,-0.511631,-0.0336168,0.0946032,-0.039004,0.35672
0.570469,0.0482186,-0.451423,-0.0410486,0.0787409,0.173702,0.35672
0.418017,-0.315086,-0.487428,-0.0603698,0.0567507,0.281695,0.35672
0.192704,-0.575914,-0.605591,-0.0720471,0.0437335,0.280479,0.35672
-0.00597853,-0.58518,-0.692539,-0.088798,0.0788437,0.217171,0.35672
-0.110099,-0.45345,-0.759755,-0.0872569,0.103339,0.136621,0.35672
-0.0875789,-0.298462,-0.800805,-0.0542711,0.110772,0.0864135,0.35672
-0.0126947,-0.272347,-0.780976,-0.0043691,0.122562,0.0843184,0.35672
0.0709591,-0.279166,-0.682908,0.0562719,0.121667,0.0934725,0.35672
0.198586,-0.252819,-0.527888,0.0871318,0.123786,0.0982301,0.35672
0.282103,-0.226844,-0.388833,0.0856688,0.121925,0.13207,0.35672
0.30649,-0.232748,-0.317327,0.0622779,0.0873767,0.171473,0.35672
0.281041,-0.230459,-0.344046,0.0398704,0.0559238,0.21102,0.35672
0.184706,-0.228346,-0.39491,0.032647,0.0369297,0.240256,0.35672
0.0117575,-0.165995,-0.414775,0.0494571,0.0269994,0.259619,0.35672
-0.186318,-0.15693,-0.38969,0.0682042,0.0239386,0.262821,0.35672
-0.300107,-0.197538,-0.356411,0.072693,0.0121287,0.230829,0.35672
-0.311898,-0.301351,-0.33114,0.0702241,-0.00243458,0.170975,0.35672
-0.270202,-0.295571,-0.308964,0.0563329,-0.0114379,0.119501,0.35672
-0.291776,-0.26615,-0.299712,0.0392845,-0.0190381,0.104191,0.35672
-0.354414,-0.191304,-0.305687,0.0307187,-0.036805,0.0870075,0.35672
-0.397053,-0.13678,-0.30176,0.0425066,-0.0536404,0.0582994,0.35672
-0.393159,-0.104324,-0.275224,0.0490225,-0.0579729,0.0261227,0.35672
-0.355039,-0.0549059,-0.217467,0.0557581,-0.0597636,-0.00509965,0.35672
-0.291189,-0.012481,-0.139225,0.0595071,-0.0704121,-0.0179698,0.35672
-0.203761,0.0259376,-0.0866082,0.0452765,-0.0831123,-0.032056,0.35672
-0.143613,0.021137,-0.0840854,0.0260845,-0.106298,-0.0230379,0.35672
-0.116335,0.0169569,-0.0663563,0.0294289,-0.118227,-0.0184997,0.35672
-0.137332,0.0306923,-0.036931,0.0222385,-0.104815,-0.0289766,0.35672
-0.157817,0.0952496,-0.00896971,0.0220582,-0.112971,-0.0709412,0.35672
-0.132176,0.170605,0.00988261,0.0209139,-0.113027,-0.119893,0.35672
-0.0691194,0.193907,0.0550552,0.024111,-0.108946,-0.158236,0.35672
0.000642193,0.216584,0.11894,0.0197363,-0.0985709,-0.192544,0.35672
0.0665956,0.285338,0.152457,0.00668705,-0.101196,-0.221533,0.35672
0.0424692,0.287845,0.170768,0.00457279,-0.115491,-0.207353,0.35672
-0.100337,0.23959,0.124015,-0.0298243,-0.131831,-0.195726,0.35672
-0.310648,0.159666,-0.0407546,-0.0712668,-0.151071,-0.204836,0.35672
-0.516469,0.172078,-0.218244,-0.0602747,-0.165346,-0.252343,0.35672
-0.613699,0.299907,-0.276698,-0.0237131,-0.115742,-0.302533,0.35672
-0.530361,0.509584,-0.18718,0.0234213,-0.0375234,-0.323653,0.35672
-0.296283,0.664406,0.0207815,0.0724378,0.026363,-0.279302,0.35672
0.0502246,0.747492,0.296829,0.110401,0.0472509,-0.196834,0.35672
0.384305,0.661529,0.567106,0.125316,0.0605133,-0.0737211,0.35672
0.579826,0.323617,0.810926,0.134608,0.0601827,0.0509887,0.35672
0.628503,-0.0694685,1.00781,0.115142,0.0472988,0.118073,0.35672
0.562753,-0.300692,1.05,0.042836,0.0243823,0.104885,0.35672
0.562753,-0.300692,1.05,0.042836,0.0243823,0.104885,0.517899
0.433896,-0.315205,0.940158,-0.0103746,0.00680633,0.0586195,0.517899
0.329447,-0.126132,0.746394,-0.0389344,0.000589833,-0.012165,0.517899
0.293237,0.182185,0.558311,-0.0276328,0.00913952,-0.0581352,0.517899
0.302976,0.393285,0.506213,0.0230198,0.0458345,-0.0349569,0.517899
0.389687,0.46668,0.566358,0.0685882,0.0794379,0.0236383,0.517899
0.506129,0.428554,0.616283,0.0728783,0.093087,0.102239,0.517899
0.573683,0.358161,0.616337,0.0543707,0.090835,0.186937,0.517899
0.55249,0.310699,0.582997,0.0415543,0.0888147,0.265811,0.517899
0.437055,0.286454,0.548847,0.0341345,0.0992603,0.326613,0.517899
0.273228,0.2662,0.513005,0.0344549,0.0998618,0.334004,0.517899
0.14942,0.286915,0.491075,0.0383795,0.0958243,0.306427,0.517899
0.114401,0.261921,0.493187,0.0385229,0.0966114,0.266521,0.517899
0.104061,0.185631,0.517322,0.0373413,0.0906779,0.231072,0.517899
0.087593,0.0355355,0.545414,0.038188,0.0635234,0.183693,0.517899
0.0525481,-0.103122,0.527149,0.0160404,0.0375517,0.124967,0.517899
-0.062178,-0.141254,0.44348,-0.022423,0.0118614,0.0524322,0.517899
-0.212902,-0.0130413,0.332416,-0.03333,-0.0215186,-0.0318905,0.517899
-0.293257,0.152106,0.268727,-0.035177,-0.0253079,-0.103698,0.517899
-0.344921,0.206602,0.233945,-0.0382332,-0.0333669,-0.13156,0.517899
-0.364767,0.0405975,0.214165,-0.0137857,-0.0671552,-0.139788,0.517899
-0.384746,-0.159303,0.195596,-0.0171634,-0.0796975,-0.173009,0.517899
-0.38895,-0.240308,0.20822,-0.0304601,-0.0636091,-0.236069,0.517899
-0.356688,-0.195626,0.2392,-0.042132,-0.0578628,-0.300655,0.517899
-0.283792,-0.173215,0.279824,-0.0357853,-0.0647843,-0.331872,0.517899
-0.222849,-0.255015,0.306794,-0.0442083,-0.0740271,-0.314923,0.517899
-0.208523,-0.309693,0.243007,-0.0811228,-0.0902869,-0.28494,0.517899
-0.27279,-0.270333,0.0568745,-0.113784,-0.114929,-0.245386,0.517899
-0.394484,-0.217793,-0.145366,-0.108781,-0.11519,-0.195855,0.517899
-0.464117,-0.174777,-0.263306,-0.0776451,-0.0743383,-0.172816,0.517899
-0.364766,-0.0236171,-0.270051,-0.0478408,-0.0230812,-0.187641,0.517899
-0.101792,0.224265,-0.241033,-0.0620466,0.0239207,-0.161137,0.517899
0.117597,0.325583,-0.235868,-0.0854366,0.0463264,-0.0477052,0.517899
0.2031,0.172559,-0.243682,-0.118881,0.0321058,0.0853217,0.517899
0.214508,-0.171903,-0.340416,-0.148818,0.0168872,0.150524,0.517899
0.179346,-0.370149,-0.477643,-0.166306,0.0230151,0.148859,0.517899
0.129128,-0.303316,-0.566895,-0.171327,0.0506915,0.118983,0.517899
0.132367,-0.0881268,-0.621225,-0.14033,0.0678087,0.11454,0.517899
0.146854,0.144642,-0.650928,-0.108471,0.0684274,0.152017,0.517899
0.116996,0.207945,-0.643722,-0.0723208,0.0658677,0.228942,0.517899
0.0704535,0.0458628,-0.585745,-0.0401687,0.0579891,0.291972,0.517899
0.0911993,-0.133842,-0.574193,-0.0452882,0.038931,0.279278,0.517899
0.177053,-0.148724,-0.597607,-0.0414,0.0289145,0.245569,0.517899
0.228395,-0.0514566,-0.572798,-0.0220119,0.0378286,0.237914,0.517899
0.184962,0.0433083,-0.505121,-0.00170198,0.0338352,0.252486,0.517899
0.0734011,0.0660795,-0.458117,0.00189349,0.0122194,0.269492,0.517899
-0.0323485,0.0216875,-0.420923,-0.00347951,-0.0143544,0.253352,0.517899
-0.0588193,-0.102398,-0.384281,-0.00171381,-0.0400505,0.207051,0.517899
0.000186959,-0.270713,-0.336615,0.00555489,-0.0631535,0.118191,0.517899
0.12278,-0.368017,-0.245262,0.014785,-0.0584064,0.0211275,0.517899
0.200516,-0.341424,-0.116672,0.034277,-0.0632572,-0.0456114,0.517899
0.166993,-0.175533,-0.0550244,0.00500201,-0.0796724,-0.0733296,0.517899
-0.018223,-0.0958007,-0.0846958,-0.0270971,-0.102707,-0.0678844,0.517899
-0.241658,-0.0829707,-0.148917,-0.0375865,-0.1297,-0.0830072,0.517899
-0.417107,-0.120793,-0.231605,-0.0317022,-0.145226,-0.128186,0.517899
-0.417107,-0.120793,-0.231605,-0.0317022,-0.145226,-0.128186,0.694931
-0.504485,-0.0976558,-0.261562,-0.00493345,-0.14088,-0.223052,0.694931
-0.463528,0.0528079,-0.224034,0.00884001,-0.118266,-0.322016,0.694931
-0.327073,0.209013,-0.116297,0.0551117,-0.102688,-0.374275,0.694931
-0.126364,0.391347,0.0799591,0.0973936,-0.0706743,-0.377774,0.694931
-0.0397512,0.419733,0.282027,0.0986045,-0.042658,-0.304441,0.694931
-0.0910872,0.283028,0.408742,0.076413,-0.0334882,-0.22089,0.694931
-0.157431,0.130373,0.424929,0.0553092,-0.0354049,-0.198573,0.694931
-0.128507,0.160142,0.402221,0.0526546,-0.0145037,-0.232583,0.694931
0.0814284,0.503842,0.454985,0.0868568,0.0328159,-0.229012,0.694931
0.255099,0.706533,0.6067,0.121441,0.0921506,-0.100302,0.694931
0.337058,0.585778,0.782982,0.151702,0.0956405,0.0434198,0.694931
0.39372,0.295439,0.836342,0.137262,0.0720447,0.122626,0.694931
0.443384,0.108541,0.776726,0.10256,0.0594211,0.146507,0.694931
0.484531,0.117169,0.711904,0.0884385,0.0699349,0.142857,0.694931
0.495692,0.220692,0.678889,0.088803,0.0951236,0.149619,0.694931
0.481817,0.287792,0.672542,0.091991,0.110472,0.16861,0.694931
0.440865,0.259643,0.650855,0.086107,0.11082,0.183918,0.694931
0.402211,0.175941,0.596732,0.0814278,0.102353,0.182762,0.694931
0.397252,0.196646,0.547146,0.0742458,0.107121,0.148605,0.694931
0.426855,0.282748,0.533467,0.0770659,0.125745,0.115375,0.694931
0.462541,0.362104,0.561053,0.0846918,0.144848,0.115315,0.694931
0.44226,0.381002,0.585959,0.0811899,0.147702,0.139735,0.694931
0.36137,0.333657,0.562264,0.0740244,0.130644,0.168005,0.694931
0.259806,0.279295,0.51294,0.0667792,0.117885,0.171232,0.694931
0.151112,0.21539,0.49679,0.071823,0.114568,0.155244,0.694931
0.084329,0.193249,0.526837,0.0720872,0.120046,0.115688,0.694931
0.0766241,0.181369,0.562767,0.0622593,0.116781,0.0768667,0.694931
0.0562514,0.150543,0.555753,0.0563827,0.0981575,0.057104,0.694931
0.000240647,0.166361,0.511666,0.0497075,0.069137,0.0471538,0.694931
-0.107167,0.200335,0.488374,0.0520336,0.0583008,0.0490264,0.694931
-0.195155,0.234721,0.505888,0.0665552,0.0486565,0.0504064,0.694931
-0.252176,0.21114,0.535172,0.0831829,0.0319814,0.042197,0.694931
-0.244253,0.181899,0.571474,0.0886837,0.00549978,0.0310178,0.694931
-0.19032,0.207562,0.58944,0.0774579,-0.0240956,0.0133887,0.694931
-0.181919,0.223476,0.560705,0.0649856,-0.0484022,0.0358428,0.694931
-0.227966,0.195169,0.540205,0.0780498,-0.0667347,0.0735986,0.694931
-0.287972,0.193809,0.55745,0.0947872,-0.076055,0.079693,0.694931
-0.280986,0.218462,0.604338,0.114497,-0.0802285,0.0520346,0.694931
-0.221694,0.200978,0.65891,0.129802,-0.0819668,0.0313189,0.694931
-0.128879,0.147141,0.725549,0.1385,-0.0873403,0.0173112,0.694931
-0.0412575,0.0388392,0.790002,0.145732,-0.0953608,0.0155338,0.694931
-0.00207271,-0.0746234,0.851147,0.14871,-0.10574,0.00284773,0.694931
0.0630357,-0.113343,0.904501,0.138248,-0.111325,-0.0424984,0.694931
0.144229,-0.0906425,0.910543,0.109598,-0.117372,-0.0819964,0.694931
0.197895,-0.0626746,0.87823,0.0920136,-0.125357,-0.0930174,0.694931
0.198752,-0.0310533,0.826875,0.0880675,-0.132441,-0.0825641,0.694931
0.190081,0.00702308,0.773077,0.0848494,-0.127234,-0.082995,0.694931
0.232089,0.075721,0.727323,0.088778,-0.121351,-0.103674,0.694931
0.311425,0.135055,0.755803,0.0969535,-0.0872558,-0.106773,0.694931
0.377459,0.215493,0.832943,0.0972766,-0.0693533,-0.0759723,0.694931
0.306608,0.203025,0.865865,0.0941793,-0.0884343,-0.00206441,0.694931
0.12664,0.108975,0.811479,0.0666481,-0.115197,0.04173,0.694931
-0.0854591,0.0895235,0.66996,0.0335496,-0.123809,0.021032,0.694931
-0.206512,0.0305702,0.568353,0.0429014,-0.100841,-0.0283359,0.694931
-0.206512,0.0305702,0.568353,0.0429014,-0.100841,-0.0283359,0.866684
-0.17254,0.0989632,0.60437,0.068636,-0.0439067,-0.0929543,0.866684
0.0100306,0.209924,0.709265,0.0731706,0.0116755,-0.120914,0.866684
0.198951,0.194459,0.816928,0.0761773,0.0296316,-0.0799012,0.866684
0.241118,0.0688997,0.887018,0.0626234,0.0438796,0.00082618,0.866684
0.114297,-0.0268514,0.900383,0.0337294,0.0551036,0.0542681,0.866684
-0.0118903,0.0352795,0.866609,-0.00313898,0.0723989,0.0262915,0.866684
0.0464925,0.189595,0.831452,-0.0353122,0.0970835,-0.0490741,0.866684
0.21764,0.320689,0.843266,-0.0493955,0.135702,-0.0665548,0.866684
0.285798,0.345586,0.853388,-0.0768876,0.150327,-0.00831431,0.866684
0.21413,0.197944,0.781577,-0.109183,0.131701,0.065833,0.866684
0.095144,-0.0255432,0.653842,-0.128905,0.126157,0.0834074,0.866684
-0.0441177,-0.130874,0.508576,-0.148997,0.140251,0.0462787,0.866684
-0.152299,-0.0290264,0.428071,-0.140625,0.159261,-0.0172026,0.866684
-0.187277,0.196159,0.391607,-0.12111,0.169824,-0.0429566,0.866684
-0.116237,0.303822,0.404188,-0.0782038,0.154032,-0.0202298,0.866684
-0.0278462,0.267683,0.429147,-0.0593345,0.131919,0.0355427,0.866684
0.0162026,0.0981917,0.461227,-0.036899,0.105395,0.0975804,0.866684
0.0236986,0.0541251,0.47405,-0.0298404,0.0717728,0.118884,0.866684
-0.0785784,0.124222,0.432299,-0.0448985,0.0361523,0.148393,0.866684
-0.269233,0.182936,0.370827,-0.0397856,0.00137463,0.181934,0.866684
-0.453682,0.212403,0.319288,-0.0206017,-0.031721,0.190732,0.866684
-0.535129,0.171722,0.301176,0.00462075,-0.0541121,0.16529,0.866684
-0.497008,0.127346,0.343445,0.0344698,-0.0729854,0.116236,0.866684
-0.373476,0.127313,0.427593,0.035776,-0.0872056,0.0658113,0.866684
-0.287309,0.176263,0.489012,0.0253285,-0.111838,0.0571491,0.866684
-0.266029,0.228885,0.514221,0.0147907,-0.147957,0.0696531,0.866684
-0.265381,0.258807,0.550793,0.0210045,-0.159919,0.0864227,0.866684
-0.242889,0.232066,0.583167,0.0158707,-0.167516,0.0766347,0.866684
-0.179542,0.207581,0.605185,0.0189667,-0.172955,0.0396122,0.866684
-0.142477,0.254201,0.646148,0.0243926,-0.165238,0.013397,0.866684
-0.120677,0.26685,0.717272,0.0299958,-0.150927,-0.00875789,0.866684
-0.0441657,0.241412,0.775885,0.0211218,-0.14662,-0.0628319,0.866684
0.0750414,0.242019,0.78946,0.00252562,-0.141359,-0.130764,0.866684
0.106861,0.246707,0.826515,0.00497609,-0.124222,-0.17107,0.866684
0.0345589,0.289843,0.836022,-0.0139145,-0.114219,-0.227426,0.866684
0.00145154,0.373429,0.802434,0.00202619,-0.110779,-0.331402,0.866684
0.126162,0.500147,0.812849,0.0304831,-0.0708926,-0.454458,0.866684
0.294488,0.55453,0.918023,0.0732827,-0.0235374,-0.487115,0.866684
0.320618,0.52011,1.0003,0.0735774,-0.0105812,-0.448247,0.866684
0.0436138,0.257642,0.958778,0.0264543,-0.0196711,-0.38198,0.866684
-0.247829,0.0346412,0.852863,0.00580422,-0.036168,-0.410143,0.866684
-0.268258,0.101277,0.745268,-0.0184529,0.0115951,-0.497913,0.866684
-0.0436666,0.425262,0.723751,0.0265949,0.072027,-0.489884,0.866684
0.272249,0.873176,0.837987,0.0892149,0.142232,-0.345304,0.866684
0.434052,1.07156,1.01968,0.119927,0.192375,-0.0903701,0.866684
0.433108,0.811314,1.15105,0.136881,0.168011,0.15422,0.866684
0.336721,0.291369,1.22847,0.146939,0.131744,0.283891,0.866684
0.246856,-0.123962,1.21318,0.129512,0.0967299,0.269135,0.866684
0.220695,-0.265891,1.10285,0.115126,0.0745378,0.167676,0.866684
0.221153,-0.182717,0.982377,0.129238,0.0745582,0.0855267,0.866684
0.179268,0.0706556,0.905028,0.143898,0.0891599,0.0636083,0.866684
0.168886,0.287449,0.876603,0.162276,0.104556,0.074483,0.866684
0.256353,0.365655,0.915094,0.199128,0.114578,0.115787,0.866684
0.256353,0.365655,0.915094,0.199128,0.114578,0.115787,1.01201
0.375433,0.398536,0.975109,0.207014,0.123668,0.180043,1.01201
0.411106,0.43388,0.976776,0.179255,0.130716,0.251226,1.01201
0.330338,0.515791,0.944433,0.160793,0.12692,0.312108,1.01201
0.251493,0.569845,0.887841,0.15027,0.123723,0.343918,1.01201
0.17925,0.593902,0.822643,0.138936,0.135163,0.365194,1.01201
0.0606343,0.594398,0.83319,0.151894,0.145331,0.3889,1.01201
-0.192441,0.442078,0.880808,0.163626,0.145526,0.396703,1.01201
-0.383042,0.19958,0.913971,0.134933,0.12449,0.322116,1.01201
-0.398051,-0.0952269,0.863322,0.0820495,0.106716,0.174031,1.01201
-0.287784,-0.275858,0.824314,0.0665865,0.0872596,0.0213129,1.01201
-0.175203,-0.174845,0.755284,0.0457519,0.0639745,-0.0917424,1.01201
-0.225255,0.0114207,0.66435,0.0449897,0.0436439,-0.135195,1.01201
-0.324525,0.20698,0.635115,0.0417828,0.043371,-0.169577,1.01201
-0.389672,0.305437,0.6509,0.0263439,0.0594504,-0.19302,1.01201
-0.372991,0.253468,0.699767,0.0311565,0.0303608,-0.213388,1.01201
-0.294282,0.135847,0.721796,0.00375966,-0.00765315,-0.255201,1.01201
-0.24962,0.00634666,0.659434,-0.0461943,-0.0552854,-0.291128,1.01201
-0.307469,-0.227038,0.492667,-0.0792965,-0.109107,-0.323831,1.01201
-0.4033,-0.432638,0.305861,-0.0733975,-0.126943,-0.381352,1.01201
-0.448288,-0.373467,0.262071,-0.0718102,-0.101643,-0.469284,1.01201
-0.401078,-0.246571,0.259027,-0.0882969,-0.0905697,-0.52743,1.01201
-0.320337,-0.199087,0.134625,-0.144181,-0.121523,-0.533745,1.01201
-0.28454,-0.246854,-0.121596,-0.18147,-0.162441,-0.499625,1.01201
-0.20948,-0.21866,-0.343513,-0.171746,-0.140935,-0.479996,1.01201
0.0462528,0.0664139,-0.441977,-0.149627,-0.0614522,-0.467894,1.01201
0.418697,0.47146,-0.433569,-0.126672,0.0229281,-0.352994,1.01201
0.738003,0.64154,-0.367814,-0.108328,0.0836421,-0.128512,1.01201
0.917229,0.508685,-0.307011,-0.105419,0.120335,0.10568,1.01201
0.918923,0.119168,-0.298929,-0.116705,0.128889,0.289966,1.01201
0.795942,-0.273384,-0.350703,-0.127039,0.117428,0.389765,1.01201
0.577223,-0.468435,-0.449436,-0.14009,0.133217,0.41621,1.01201
0.36087,-0.421627,-0.576735,-0.149833,0.158708,0.397201,1.01201
0.235102,-0.244081,-0.67396,-0.122736,0.178888,0.374837,1.01201
0.200295,-0.108862,-0.704447,-0.0765995,0.205759,0.38388,1.01201
0.235166,-0.0843296,-0.666285,-0.0318056,0.218936,0.417479,1.01201
0.278264,-0.208619,-0.570449,0.00982103,0.237832,0.466409,1.01201
0.27336,-0.335582,-0.443916,0.02287,0.256414,0.494829,1.01201
0.208684,-0.367979,-0.338203,0.022139,0.25117,0.502672,1.01201
0.0700418,-0.392281,-0.296671,0.016766,0.215326,0.494911,1.01201
-0.157868,-0.440603,-0.262632,0.0312807,0.179421,0.468354,1.01201
-0.367592,-0.585335,-0.229994,0.043831,0.132619,0.392654,1.01201
-0.530513,-0.719033,-0.250446,0.0274668,0.0677491,0.257738,1.01201
-0.666492,-0.810619,-0.308735,0.0130503,0.000925958,0.118022,1.01201
-0.847186,-0.825412,-0.3503,0.0307994,-0.0531092,-0.00619167,1.01201
-1.06439,-0.712165,-0.317601,0.0305441,-0.0919232,-0.139944,1.01201
-1.14818,-0.486019,-0.302982,-0.00250573,-0.132894,-0.296669,1.01201
-0.954806,-0.207629,-0.295505,-1.92374e-05,-0.19725,-0.452724,1.01201
-0.553923,0.0870543,-0.216775,0.0155831,-0.237805,-0.537108,1.01201
-0.104072,0.333723,-0.119443,0.00415287,-0.25552,-0.529327,1.01201
0.167739,0.36162,-0.0308914,0.0111112,-0.272044,-0.435362,1.01201
0.293442,0.329144,0.0134358,-0.00129128,-0.292878,-0.370354,1.01201
0.325273,0.345563,-0.04424,-0.0354415,-0.294021,-0.353221,1.01201
0.270351,0.46266,-0.143089,-0.0310327,-0.28466,-0.338989,1.01201
0.123247,0.574052,-0.227452,-0.00779523,-0.249819,-0.311332,1.01201
0.123247,0.574052,-0.227452,-0.00779523,-0.249819,-0.311332,1.17583
-0.0737568,0.473812,-0.284756,0.0254829,-0.215128,-0.281895,1.17583
-0.258465,0.232236,-0.305964,0.0623585,-0.16421,-0.310721,1.17583
-0.221907,0.357368,-0.24095,0.0830768,-0.0865532,-0.395333,1.17583
0.132663,0.689447,-0.0259809,0.136575,0.0247707,-0.39543,1.17583
0.648099,1.08486,0.354488,0.189923,0.128708,-0.276532,1.17583
0.980392,1.1461,0.747681,0.187697,0.188526,-0.0391788,1.17583
1.08989,0.866459,1.01424,0.144326,0.177421,0.170204,1.17583
1.04309,0.482217,1.09966,0.0880643,0.146383,0.297151,1.17583
0.861004,0.183233,1.02887,0.0330196,0.132227,0.369814,1.17583
0.609438,0.0618969,0.925262,0.00542822,0.135544,0.391115,1.17583
0.401793,0.0964112,0.828824,-0.000831842,0.158906,0.386213,1.17583
0.265946,0.204264,0.74621,-0.00786797,0.17946,0.377856,1.17583
0.143917,0.297109,0.68672,-0.00697002,0.19509,0.397739,1.17583
0.0352621,0.304511,0.660185,-0.0023705,0.207035,0.42967,1.17583
0.0103399,0.273186,0.613118,-0.0119997,0.207188,0.425926,1.17583
0.0238712,0.205668,0.514953,-0.0246898,0.192267,0.411633,1.17583
-0.0644585,0.0991588,0.444522,0.00411299,0.175865,0.395698,1.17583
-0.225902,-0.0692516,0.469161,0.0641366,0.156478,0.348669,1.17583
-0.338915,-0.122708,0.548898,0.106344,0.125352,0.234091,1.17583
-0.444402,-0.087194,0.610151,0.109866,0.0898223,0.104035,1.17583
-0.549139,-0.0111561,0.567507,0.0498174,0.0238408,-0.02754,1.17583
-0.566021,-0.00261658,0.445713,0.0175302,-0.0444402,-0.157144,1.17583
-0.531087,-0.0731653,0.32817,0.0190182,-0.0723241,-0.24715,1.17583
-0.478713,0.0125762,0.28495,0.0246517,-0.068985,-0.320489,1.17583
-0.413018,0.275472,0.330946,0.0177314,-0.0379693,-0.357445,1.17583
-0.337694,0.421259,0.399633,0.0103958,-0.0409082,-0.330556,1.17583
-0.257719,0.350102,0.393963,-0.00523015,-0.0861572,-0.272178,1.17583
-0.217365,0.155108,0.321573,-0.0182222,-0.112947,-0.221413,1.17583
-0.233368,-0.0157324,0.28353,-0.0176748,-0.104333,-0.212273,1.17583
-0.303998,-0.209195,0.322435,-0.00828042,-0.0749204,-0.22541,1.17583
-0.308192,-0.419572,0.359597,-0.0265995,-0.0653542,-0.286644,1.17583
-0.269576,-0.529346,0.304978,-0.0851389,-0.0694954,-0.347625,1.17583
-0.301568,-0.575407,0.172063,-0.136589,-0.0639021,-0.367248,1.17583
-0.325733,-0.391064,-0.0547724,-0.193903,-0.069542,-0.401819,1.17583
-0.27573,0.012962,-0.376413,-0.232817,-0.0620715,-0.404672,1.17583
-0.17837,0.373335,-0.615033,-0.212628,-0.0253058,-0.31161,1.17583
0.0215022,0.543656,-0.648373,-0.149873,0.0370548,-0.191869,1.17583
0.38747,0.589127,-0.508298,-0.0836695,0.0987188,-0.0869333,1.17583
0.737557,0.470479,-0.363958,-0.09437,0.132548,0.0618393,1.17583
0.863844,0.114788,-0.313554,-0.108649,0.125195,0.22176,1.17583
0.66886,-0.28012,-0.425525,-0.146101,0.0908397,0.353572,1.17583
0.272047,-0.470157,-0.633003,-0.168827,0.0585378,0.40301,1.17583
-0.0757239,-0.43819,-0.768558,-0.150499,0.0823559,0.359666,1.17583
-0.239153,-0.370701,-0.800115,-0.102483,0.109207,0.30193,1.17583
-0.214271,-0.239798,-0.747663,-0.0739857,0.128933,0.254689,1.17583
-0.0827236,-0.211955,-0.689483,-0.0680788,0.126251,0.237204,1.17583
0.12318,-0.231357,-0.663615,-0.0441559,0.103011,0.225452,1.17583
0.236757,-0.245454,-0.636977,-0.0178601,0.0957473,0.256512,1.17583
0.163397,-0.235949,-0.603926,-0.00548298,0.0959294,0.297317,1.17583
0.0297144,-0.180197,-0.534048,0.00914284,0.0920603,0.288774,1.17583
-0.061486,-0.202548,-0.432788,0.0196665,0.0790492,0.252603,1.17583
-0.13061,-0.300759,-0.363632,0.0163389,0.0484887,0.214714,1.17583
-0.204134,-0.340983,-0.348617,0.00699008,0.00724629,0.172964,1.17583
-0.317068,-0.347591,-0.387179,-0.017289,-0.0152597,0.12793,1.17583
-0.317068,-0.347591,-0.387179,-0.017289,-0.0152597,0.12793,1.36079
-0.462957,-0.350709,-0.392637,-0.0111336,-0.0295683,0.0766983,1.36079
-0.517527,-0.28073,-0.353397,-0.0110492,-0.0391658,-0.0152296,1.36079
-0.434996,-0.197529,-0.294632,-0.00751294,-0.0470467,-0.100108,1.36079
-0.287213,-0.144402,-0.214191,-0.00896006,-0.0666808,-0.127403,1.36079
-0.141174,-0.0566281,-0.183072,-0.0364111,-0.0906938,-0.144908,1.36079
-0.0279183,0.0780069,-0.218148,-0.057628,-0.12232,-0.139483,1.36079
0.00559232,0.220953,-0.251698,-0.0596086,-0.137962,-0.124774,1.36079
-0.0169284,0.296111,-0.233875,-0.0321783,-0.140703,-0.118467,1.36079
-0.0183073,0.23634,-0.178188,0.0050009,-0.148672,-0.13027,1.36079
0.0378423,0.110577,-0.117588,0.0393142,-0.151228,-0.170116,1.36079
0.10395,0.116191,-0.0662352,0.0546952,-0.135805,-0.228641,1.36079
0.0947957,0.234049,-0.0566222,0.0691643,-0.161619,-0.253926,1.36079
-0.0220495,0.455589,-0.0486698,0.0735761,-0.142604,-0.271024,1.36079
-0.224884,0.413779,-0.0341764,0.0780331,-0.128205,-0.289976,1.36079
-0.431191,0.172439,-0.119471,0.0707337,-0.145097,-0.332781,1.36079
-0.460066,0.0921143,-0.197366,0.0720681,-0.117256,-0.416535,1.36079
-0.199306,0.298882,-0.123656,0.0996445,-0.0282589,-0.48048,1.36079
0.277494,0.692353,0.0402327,0.138585,0.0329048,-0.414717,1.36079
0.634142,0.950633,0.209912,0.144874,0.0646766,-0.180347,1.36079
0.660106,0.850089,0.354011,0.157532,0.0612898,0.105536,1.36079
0.462682,0.472575,0.51241,0.180961,0.0396778,0.291496,1.36079
0.225731,-0.0430922,0.626284,0.187093,0.0214195,0.336595,1.36079
0.0216743,-0.532451,0.671068,0.161397,0.00859472,0.286602,1.36079
-0.0298269,-0.905451,0.66643,0.147784,0.0264975,0.192041,1.36079
0.0946064,-1.06066,0.62447,0.109604,0.0540091,0.0827247,1.36079
0.210137,-0.913675,0.525848,0.0620746,0.0769914,0.0443555,1.36079
0.366929,-0.681454,0.484794,0.0482603,0.103712,0.0352263,1.36079
0.513686,-0.259039,0.485275,0.0491886,0.127694,0.0703278,1.36079
0.590394,0.111816,0.547327,0.059958,0.148201,0.165223,1.36079
0.586762,0.369578,0.649101,0.0801317,0.144284,0.269437,1.36079
0.505054,0.471462,0.662535,0.0724789,0.132253,0.345426,1.36079
0.273561,0.471413,0.580133,0.05589,0.129297,0.401313,1.36079
-0.0194603,0.391812,0.533156,0.069134,0.124043,0.404489,1.36079
-0.243705,0.403951,0.563744,0.105704,0.114795,0.352039,1.36079
-0.366216,0.320258,0.618338,0.110691,0.0982901,0.25902,1.36079
-0.382962,0.150705,0.610227,0.0989409,0.0800074,0.177348,1.36079
-0.330417,-0.0455665,0.606488,0.0910721,0.0378846,0.0942862,1.36079
-0.3049,-0.192329,0.573705,0.0852918,0.00879487,0.0189798,1.36079
-0.322243,-0.316808,0.502275,0.0721726,-0.00540116,-0.0627432,1.36079
-0.331527,-0.157379,0.462602,0.058334,-0.0114165,-0.148592,1.36079
-0.332375,0.112095,0.469595,0.0512059,-0.00184193,-0.208666,1.36079
-0.302139,0.292274,0.500769,0.043506,-0.0156833,-0.225866,1.36079
-0.234959,0.246211,0.506639,0.0343684,-0.0423086,-0.227051,1.36079
-0.164329,0.102559,0.439215,0.0200309,-0.0705644,-0.23752,1.36079
-0.0787382,-0.137393,0.389784,0.0317147,-0.0669484,-0.258794,1.36079
-0.0488576,-0.288052,0.421363,0.0463386,-0.0453556,-0.27742,1.36079
-0.129704,-0.338047,0.467866,0.0242464,-0.0361859,-0.298937,1.36079
-0.294636,-0.400515,0.405629,-0.0606245,-0.0311211,-0.307773,1.36079
-0.499083,-0.552819,0.174145,-0.142005,-0.0501149,-0.332246,1.36079
-0.666996,-0.610448,-0.121322,-0.17884,-0.0642407,-0.399271,1.36079
-0.654268,-0.437937,-0.308895,-0.173111,-0.0368885,-0.451414,1.36079
-0.451772,-0.0726217,-0.366746,-0.150882,0.0167994,-0.427611,1.36079
-0.161679,0.394453,-0.321178,-0.136149,0.0652533,-0.308869,1.36079
0.110987,0.732996,-0.209044,-0.117232,0.0939928,-0.123525,1.36079
0.110987,0.732996,-0.209044,-0.117232,0.0939928,-0.123525,1.56689
0.350226,0.747324,-0.130447,-0.113573,0.0837142,0.0639833,1.56689
0.511898,0.43832,-0.0932009,-0.104781,0.0646067,0.211812,1.56689
0.532266,-0.0881199,-0.0836651,-0.102,0.0549452,0.310578,1.56689
0.392396,-0.503766,-0.12361,-0.112882,0.0447834,0.331167,1.56689
0.175015,-0.55894,-0.259777,-0.156536,0.0410337,0.287845,1.56689
0.0171699,-0.360115,-0.451175,-0.166952,0.0502274,0.238235,1.56689
-0.045946,-0.0535349,-0.613775,-0.135295,0.0673791,0.214098,1.56689
-0.0104655,0.287464,-0.668519,-0.085967,0.0997177,0.239902,1.56689
0.105272,0.414356,-0.616747,-0.041253,0.137315,0.308449,1.56689
0.259828,0.280535,-0.499814,-0.0108489,0.142622,0.364761,1.56689
0.392101,0.111984,-0.39396,-0.00157587,0.122221,0.382144,1.56689
0.380963,0.0489487,-0.376709,-0.012269,0.103941,0.375669,1.56689
0.190693,-0.118322,-0.41212,-0.0269446,0.0827939,0.315258,1.56689
-0.0272639,-0.194733,-0.37891,0.00682023,0.048654,0.230366,1.56689
-0.135506,-0.304521,-0.30824,0.019885,0.0318381,0.121323,1.56689
-0.143364,-0.325151,-0.277365,-0.0253353,0.0383253,0.0311337,1.56689
-0.142443,-0.310342,-0.304312,-0.0849469,0.0298776,-0.0327401,1.56689
-0.17189,-0.333312,-0.405255,-0.134758,0.000994518,-0.0821013,1.56689
-0.23871,-0.244046,-0.533001,-0.155361,-0.0209787,-0.112555,1.56689
-0.287204,-0.0112062,-0.616046,-0.142238,-0.0245565,-0.123851,1.56689
-0.255602,0.190628,-0.582676,-0.0932256,-0.0091377,-0.0770599,1.56689
-0.167569,0.150211,-0.446239,-0.039925,-0.000384927,0.0132622,1.56689
-0.056404,-0.0454772,-0.320614,-0.0312745,-0.0283796,0.0867106,1.56689
0.0409535,-0.25706,-0.313059,-0.0587163,-0.0672276,0.122339,1.56689
0.0288363,-0.37372,-0.381874,-0.0805055,-0.0934864,0.139539,1.56689
-0.148441,-0.330489,-0.483655,-0.084898,-0.110966,0.153594,1.56689
-0.380728,-0.28189,-0.542313,-0.0508967,-0.112146,0.135946,1.56689
-0.47156,-0.214729,-0.512522,-0.0136186,-0.105032,0.0873728,1.56689
-0.399261,-0.170537,-0.480277,-0.000890262,-0.100129,0.0361698,1.56689
-0.239021,-0.0721847,-0.471281,0.0013344,-0.111513,0.00795031,1.56689
-0.128271,0.0118632,-0.441645,0.0116333,-0.109179,0.0282005,1.56689
-0.121034,0.000919474,-0.369451,0.0321449,-0.11183,0.0725423,1.56689
-0.145192,0.0195616,-0.276238,0.0434298,-0.123713,0.0714525,1.56689
-0.17788,0.0381842,-0.213798,0.0302032,-0.13085,0.0577553,1.56689
-0.245354,-0.0813811,-0.158848,0.0253959,-0.141563,0.0335209,1.56689
-0.242118,-0.160048,-0.127088,0.00592507,-0.158385,-0.0514922,1.56689
-0.193198,-0.103594,-0.137496,-0.0224434,-0.143941,-0.139393,1.56689
-0.167951,0.0616723,-0.0897486,-0.0162765,-0.12304,-0.203733,1.56689
-0.159753,0.246837,-0.00445781,-0.0119387,-0.107492,-0.235523,1.56689
-0.199128,0.295744,0.018801,-0.0321693,-0.111858,-0.251109,1.56689
-0.239572,0.184851,-0.0053315,-0.0316032,-0.120785,-0.293537,1.56689
-0.256798,0.14901,-0.0840164,-0.0344107,-0.128767,-0.351272,1.56689
-0.36012,0.000221012,-0.157281,-0.0371317,-0.102795,-0.379262,1.56689
-0.482651,-0.145252,-0.230059,-0.020208,-0.0746875,-0.436281,1.56689
-0.469645,-0.0690741,-0.27241,-0.00430215,-0.0386695,-0.509975,1.56689
-0.290048,0.156815,-0.191179,0.0104124,0.0424175,-0.510178,1.56689
0.0573071,0.477224,-0.0174675,0.0450858,0.0941592,-0.427532,1.56689
0.439174,0.786984,0.133852,0.0611944,0.111085,-0.251542,1.56689
0.631015,0.746179,0.224945,0.0730307,0.0981105,-0.0267336,1.56689
0.58322,0.31457,0.291268,0.100423,0.0505195,0.146959,1.56689
0.415673,-0.228914,0.243787,0.0943374,-0.00221653,0.197338,1.56689
0.230031,-0.471512,0.0897522,0.0579665,-0.0080497,0.129365,1.56689
0.0937328,-0.335598,-0.0632907,-0.00109353,0.0309054,0.0399447,1.56689
0.10977,-0.174074,-0.153667,-0.00485856,0.0682494,-0.00993121,1.56689
0.10977,-0.174074,-0.153667,-0.00485856,0.0682494,-0.00993121,1.78621
0.266736,0.0696889,-0.174873,0.02354,0.0979511,-0.00709069,1.78621
0.423107,0.277332,-0.126272,0.0454545,0.125166,0.0743513,1.78621
0.498768,0.441007,-0.0565848,0.0427759,0.134142,0.19336,1.78621
0.525588,0.503678,0.00360942,0.0328931,0.133671,0.302037,1.78621
0.512302,0.497449,0.0114634,0.0172147,0.125018,0.384667,1.78621
0.43241,0.423395,-0.0135958,0.00627488,0.112745,0.435722,1.78621
0.278131,0.275059,-0.0274409,0.027132,0.103925,0.464394,1.78621
0.115148,0.0316075,0.0157556,0.0663552,0.0966177,0.438195,1.78621
0.0481189,-0.0844149,0.0693797,0.0746673,0.0858179,0.345179,1.78621
0.042265,-0.193043,0.105579,0.0703744,0.0830733,0.257684,1.78621
0.0219406,-0.256394,0.119613,0.0659838,0.0636497,0.162367,1.78621
-0.021264,-0.199365,0.0808438,0.0518142,0.0291702,0.0745272,1.78621
-0.0984597,-0.154444,0.0333121,0.0371629,0.023161,0.0244172,1.78621
-0.16595,-0.122283,0.035755,0.0440314,0.0270415,-0.0183158,1.78621
-0.18049,-0.0530886,0.065848,0.0423548,0.0232602,-0.0618006,1.78621
-0.142272,0.01527,0.0492812,0.025119,0.000372872,-0.0722622,1.78621
-0.0859526,0.0822466,0.00758353,0.014489,-0.0194541,-0.0482414,1.78621
-0.0626769,0.0983569,0.0142844,0.0288642,-0.0194201,0.00418663,1.78621
-0.0771527,0.0908126,0.0199363,0.0184187,-0.0261426,0.0571016,1.78621
-0.104209,0.103767,0.0109062,0.0153748,-0.0459071,0.0934512,1.78621
-0.150522,0.101103,0.0217314,0.0171452,-0.0570864,0.121084,1.78621
-0.157694,0.0104447,0.024351,0.023219,-0.0679137,0.131435,1.78621
-0.111009,-0.170008,0.0247862,0.0391001,-0.0819687,0.118691,1.78621
-0.0399128,-0.242617,0.0661547,0.0629392,-0.0886242,0.0782467,1.78621
0.0680076,-0.210755,0.146667,0.101742,-0.0870154,0.017726,1.78621
0.129867,-0.109062,0.233041,0.116553,-0.0819626,-0.0181843,1.78621
0.0455867,0.155527,0.276712,0.115107,-0.0868446,-0.0511101,1.78621
0.0450184,0.428555,0.298809,0.105647,-0.0950422,-0.109022,1.78621
0.372975,0.0169001,0.276581,0.154423,-0.0883549,-0.124392,1.78621
0.183753,-0.0490768,0.36614,0.161985,-0.127636,-0.072937,1.78621
-0.174046,-0.236688,0.301286,0.0693441,-0.116044,-0.0559871,1.78621
-0.463197,-0.298413,0.119781,0.023426,-0.106308,-0.109762,1.78621
-0.466377,-0.258286,-0.0364405,0.0411717,-0.0824934,-0.21192,1.78621
