rotationRate_x,rotationRate_y,rotationRate_z,acceleration_x,acceleration_y,acceleration_z,relativeAltitude,altitude_pressure
0.398895,0.0757117,0.476099,0.0879463,-0.000307834,0.214152,0.001,0.0001
0.388129,0.0911832,0.512536,0.0826276,-0.0138722,0.255789,0.001,0.0001
0.254134,0.16684,0.502211,0.0721636,-0.0279475,0.249736,0.001,0.0001
0.15081,0.291663,0.425723,0.0803073,-0.0258258,0.256849,0.001,0.0001
-0.0141971,0.261487,0.371339,0.0738257,-0.0260614,0.21228,0.001,0.0001
-0.0774253,0.153208,0.34478,0.0597888,-0.0220722,0.157623,0.001,0.0001
-0.049398,-0.00764354,0.31052,0.0365003,0.000870816,0.0976271,0.001,0.0001
0.0183308,-0.0274394,0.266861,-0.0120336,0.0296687,0.036588,0.001,0.0001
0.146912,0.156458,0.19827,-0.0614133,0.0777972,-0.00471377,0.001,0.0001
0.199946,0.283866,0.10897,-0.0985843,0.13368,-0.024907,0.001,0.0001
0.185459,0.334793,0.0728114,-0.137208,0.186832,-0.0352247,0.001,0.0001
0.328215,0.542136,0.100196,-0.162095,0.219175,-0.000900447,0.001,0.0001
0.551093,0.653335,0.164012,-0.153195,0.212286,-0.0273589,0.001,0.0001
0.606995,0.464451,0.140845,-0.132742,0.190035,-0.0667958,0.001,0.0001
0.330746,0.14058,-0.0587124,-0.101586,0.146288,-0.0993327,0.001,0.0001
-0.10979,-0.0360665,-0.34301,-0.0965519,0.100539,-0.114833,0.001,0.0001
-0.773248,-0.134726,-0.730247,-0.0861843,0.0854048,-0.16367,0.001,0.0001
-1.37219,-0.393796,-1.19231,-0.0719068,0.107457,-0.269308,0.001,0.0001
-1.51198,-0.885714,-1.64864,-0.0332016,0.16044,-0.400941,0.001,0.0001
-0.96453,-1.32777,-1.88406,-0.0133487,0.170134,-0.406278,0.001,0.0001
-0.205109,-1.7361,-1.86047,0.0231446,0.162936,-0.328572,0.001,0.0001
0.317698,-1.99883,-1.5834,0.0333797,0.0728186,-0.203702,0.001,0.0001
0.341324,-1.85227,-1.31505,-0.00526904,0.0197217,-0.0859336,0.001,0.0001
0.10917,-1.08675,-1.10481,-0.0491826,-0.0656372,0.0378432,0.001,0.0001
-0.244596,-0.017034,-0.924332,-0.0768348,-0.132381,0.139263,0.001,0.0001
-0.561134,0.715906,-0.778566,-0.0249779,-0.194815,0.134385,0.001,0.0001
-0.582222,1.02198,-0.633514,0.0161324,-0.202081,0.135648,0.001,0.0001
-0.410076,1.07134,-0.535489,0.0413404,-0.187477,0.146667,0.001,0.0001
-0.247053,0.956284,-0.508736,0.0587636,-0.187366,0.148191,0.001,0.0001
-0.127678,0.885335,-0.522286,0.0562029,-0.176202,0.171775,0.001,0.0001
0.0341248,0.903778,-0.516215,0.0496649,-0.139215,0.191212,0.001,0.0001
0.244107,0.931969,-0.424704,0.0423233,-0.11375,0.202787,0.001,0.0001
0.440694,0.819092,-0.272594,0.0524618,-0.123637,0.182715,0.001,0.0001
0.576925,0.510064,-0.13887,0.0534271,-0.144729,0.133809,0.001,0.0001
0.639081,0.135029,-0.0663625,0.0293141,-0.138487,0.0887753,0.001,0.0001
0.694897,-0.100906,0.0846539,0.0100205,-0.102044,0.0740125,0.001,0.0001
0.755519,-0.0780102,0.323027,0.0229095,-0.0403078,0.0666063,0.001,0.0001
0.874025,0.129705,0.150376,0.111375,0.0509158,0.0719453,0.001,0.0001
1.02526,0.154302,-0.250241,0.164774,-0.000673804,-0.0225842,0.001,0.0001
0.940652,0.0625768,-0.433556,0.091199,0.00886747,-0.0742195,0.001,0.0001
0.610275,0.0780792,-0.502375,0.0440721,0.0377673,-0.0950469,0.001,0.0001
0.336257,0.285684,-0.521763,0.0412235,0.0222995,-0.131606,0.001,0.0001
0.290815,0.642401,-0.369166,0.0235857,0.0290593,-0.122216,0.001,0.0001
0.286867,0.810625,0.00648935,0.0217795,0.00952046,-0.14386,0.001,0.0001
0.136436,0.624427,0.376066,0.043295,-0.05118,-0.205279,0.001,0.0001
-0.148778,0.371182,0.531898,0.00443843,-0.0309727,-0.26161,0.001,0.0001
-0.498471,0.0970486,0.550951,-0.0874189,0.0603425,-0.355283,0.001,0.0001
-0.493034,-0.157631,0.594521,-0.13735,0.0775228,-0.416993,0.001,0.0001
0.0509705,-0.270789,0.727875,-0.162908,0.11569,-0.399471,0.001,0.0001
0.775134,-0.268321,0.950894,-0.146671,0.0994142,-0.271773,0.001,0.0001
1.16618,-0.438052,1.14089,-0.0895742,0.0288204,-0.132318,0.001,0.0001
1.07435,-0.699946,1.06954,-0.0395946,0.00596814,0.00656265,0.001,0.0001
0.663575,-0.659226,0.646269,0.0384394,0.00870499,0.145534,0.001,0.0001
0.663575,-0.659226,0.646269,0.0384394,0.00870499,0.145534,0.001,0.0001
0.160447,-0.30452,0.07,0.142903,0.0244009,0.251988,0.001,0.0001
-0.201994,0.0793541,-0.0908928,0.236494,-0.000546664,0.290288,0.001,0.0001
-0.275326,0.240814,0.313883,0.257303,-0.0163749,0.291333,0.001,0.0001
-0.260454,0.127941,0.836767,0.234953,-0.0225554,0.273827,0.001,0.0001
-0.275559,-0.0259815,1.08958,0.175189,-0.0344079,0.268158,0.001,0.0001
-0.331263,-0.0708172,1.05665,0.103529,-0.0347663,0.270985,0.001,0.0001
-0.332636,0.113607,0.83504,0.0533453,-0.0257413,0.28492,0.001,0.0001
-0.25032,0.428418,0.595488,0.0191318,-0.00204799,0.292459,0.001,0.0001
-0.194162,0.627663,0.485983,0.025964,-0.00711732,0.285401,0.001,0.0001
-0.221139,0.641549,0.52386,0.0387854,-0.0183817,0.262463,0.001,0.0001
-0.317757,0.528045,0.585978,0.0213003,-0.0114239,0.222013,0.001,0.0001
-0.388573,0.498061,0.585685,0.00306634,-0.00752226,0.162647,0.001,0.0001
-0.452954,0.587965,0.544355,-0.0247647,-0.000851706,0.076475,0.001,0.0001
-0.491977,0.725426,0.466862,-0.0352434,0.013928,-0.0227508,0.001,0.0001
-0.516635,0.786513,0.400388,-0.0438127,0.0214912,-0.144091,0.001,0.0001
-0.445348,0.693003,0.307204,-0.0605775,0.03893,-0.241616,0.001,0.0001
-0.322937,0.0251431,0.0482553,-0.0381231,0.0675305,-0.38174,0.001,0.0001
-0.0352913,-1.23712,-0.373848,0.026068,0.0853181,-0.520639,0.001,0.0001
0.0974621,-1.90754,-0.580269,0.0679112,0.0360721,-0.517406,0.001,0.0001
-0.00184733,-1.55316,-0.440795,0.0367215,0.0356013,-0.436043,0.001,0.0001
-0.176078,-0.962733,-0.0802716,0.0155456,0.0389464,-0.383877,0.001,0.0001
-0.34596,-0.687565,0.165641,0.0163391,0.0343224,-0.357703,0.001,0.0001
-0.382239,-0.600637,0.119966,-0.0251004,0.0740242,-0.332186,0.001,0.0001
-0.087703,-0.312974,-0.0117432,-0.0778273,0.100396,-0.278684,0.001,0.0001
0.438544,0.0110533,-0.0787868,-0.0889362,0.101746,-0.177746,0.001,0.0001
0.814708,0.207126,-0.0760734,-0.0796682,0.0750697,-0.0550325,0.001,0.0001
0.886318,0.28716,-0.0204579,-0.0664677,0.0484347,0.0839049,0.001,0.0001
0.750641,0.255072,0.075751,-0.0654474,0.0273899,0.185877,0.001,0.0001
0.581776,0.241759,0.140838,-0.0758004,0.0293231,0.270834,0.001,0.0001
0.433987,0.258891,0.138133,-0.0788888,0.0227725,0.331872,0.001,0.0001
0.245169,0.324633,0.0620232,-0.0715914,0.00717187,0.379888,0.001,0.0001
-0.0139137,0.353713,-0.0147751,-0.0626351,-0.0107073,0.400959,0.001,0.0001
-0.295185,0.244177,-0.0561427,-0.0690289,-0.0154546,0.37686,0.001,0.0001
-0.396925,0.106616,-0.0802211,-0.0792439,-0.00619888,0.346616,0.001,0.0001
-0.354481,-0.0568693,-0.118807,-0.0971359,0.0162261,0.312717,0.001,0.0001
-0.15552,-0.22721,-0.208514,-0.107614,0.0302653,0.244828,0.001,0.0001
0.299517,-0.295513,-0.322661,-0.111637,0.056324,0.211195,0.001,0.0001
0.714114,-0.347211,-0.425156,-0.124318,0.0787224,0.189801,0.001,0.0001
0.74688,-0.408793,-0.484659,-0.107902,0.0582834,0.185409,0.001,0.0001
0.411934,-0.43016,-0.524509,-0.0806402,0.0226048,0.185926,0.001,0.0001
-0.0156718,-0.397753,-0.546803,-0.0527314,-0.0242621,0.149928,0.001,0.0001
-0.292538,-0.263938,-0.577527,-0.0181404,-0.0530818,0.102756,0.001,0.0001
-0.38444,-0.0863058,-0.584326,-0.00713841,-0.0641395,0.0294073,0.001,0.0001
-0.313332,-0.0389269,-0.547591,0.0117993,-0.0607005,-0.0658306,0.001,0.0001
-0.183363,-0.12242,-0.444413,0.033541,-0.0769383,-0.13411,0.001,0.0001
-0.181296,-0.215992,-0.322907,0.0464428,-0.0909657,-0.193819,0.001,0.0001
-0.288704,-0.187887,-0.181872,0.0446718,-0.108644,-0.252992,0.001,0.0001
-0.397176,0.0369368,0.0299928,0.0210255,-0.115282,-0.301061,0.001,0.0001
-0.410574,0.244423,0.220195,-0.0100653,-0.100444,-0.350614,0.001,0.0001
-0.426158,0.187898,0.230038,-0.0377631,-0.0610701,-0.392011,0.001,0.0001
-0.400661,-0.0642268,0.0313696,-0.0413631,-0.00775703,-0.4004,0.001,0.0001
-0.400661,-0.0642268,0.0313696,-0.0413631,-0.00775703,-0.4004,0.00263977,-1.52588e-05
-0.249306,-0.214852,-0.152837,-0.0190212,0.0378376,-0.353611,0.00263977,-1.52588e-05
0.05254,-0.176111,-0.0872144,0.0189545,0.0545136,-0.256854,0.00263977,-1.52588e-05
0.319189,-0.156764,0.185321,0.0429879,0.0332425,-0.153623,0.00263977,-1.52588e-05
0.363653,-0.252767,0.446932,0.0172987,0.00152352,-0.0750135,0.00263977,-1.52588e-05
0.287364,-0.315085,0.431524,-0.0234675,-0.0177226,-0.00449288,0.00263977,-1.52588e-05
0.161961,-0.360217,0.194291,-0.0447575,-0.0271715,0.0300983,0.00263977,-1.52588e-05
0.0813675,-0.324718,-0.0899944,-0.039836,-0.035478,0.0665156,0.00263977,-1.52588e-05
-0.0153215,-0.313578,-0.263201,-0.0160959,-0.0254065,0.0941744,0.00263977,-1.52588e-05
-0.100199,-0.306412,-0.278482,0.0159841,-0.0234678,0.12725,0.00263977,-1.52588e-05
-0.069383,-0.245432,-0.194224,0.051881,-0.0125084,0.170832,0.00263977,-1.52588e-05
0.113402,-0.306742,-0.000432963,0.105677,-0.0213639,0.173308,0.00263977,-1.52588e-05
0.319789,-0.571799,0.23331,0.14691,-0.0151827,0.160929,0.00263977,-1.52588e-05
0.465087,-0.931081,0.403376,0.171997,-0.0146368,0.125368,0.00263977,-1.52588e-05
0.536103,-1.06783,0.446025,0.164585,0.0309594,0.129208,0.00263977,-1.52588e-05
0.519405,-0.963114,0.442231,0.151798,0.0730683,0.127568,0.00263977,-1.52588e-05
0.528836,-0.608293,0.474678,0.143573,0.105321,0.141028,0.00263977,-1.52588e-05
0.536512,-0.251481,0.575232,0.143524,0.107409,0.139321,0.00263977,-1.52588e-05
0.407179,-0.0899796,0.64851,0.13502,0.0785294,0.122939,0.00263977,-1.52588e-05
0.127461,-0.010696,0.604484,0.082494,0.0734919,0.103047,0.00263977,-1.52588e-05
-0.166131,0.0796994,0.44697,0.0153628,0.093459,0.0460216,0.00263977,-1.52588e-05
-0.193874,0.305172,0.209872,-0.0383656,0.127586,0.00185269,0.00263977,-1.52588e-05
0.0140328,0.663373,0.0205384,-0.0729243,0.168831,-0.012989,0.00263977,-1.52588e-05
0.186285,1.0821,0.055559,-0.0463697,0.109679,0.0492997,0.00263977,-1.52588e-05
0.0302329,1.00619,0.122317,-0.0159015,0.0300905,0.0355868,0.00263977,-1.52588e-05
-0.180623,0.611196,0.0841818,0.00498043,0.00259678,0.0107342,0.00263977,-1.52588e-05
-0.0798607,0.232641,0.0522827,0.0146105,-0.0187813,-0.0360855,0.00263977,-1.52588e-05
0.292843,0.139764,0.0481174,0.0424551,-0.0225526,-0.0357175,0.00263977,-1.52588e-05
0.666326,0.138431,0.120562,0.0609415,-0.0452952,0.00525725,0.00263977,-1.52588e-05
0.701733,-0.00789811,0.158034,0.10045,-0.0896815,0.0209128,0.00263977,-1.52588e-05
0.490414,-0.195968,0.0851913,0.153026,-0.132195,0.00327307,0.00263977,-1.52588e-05
0.321718,-0.386806,-0.0665439,0.191428,-0.120965,-0.0900794,0.00263977,-1.52588e-05
0.33933,-0.459618,-0.19375,0.219823,-0.0510104,-0.181303,0.00263977,-1.52588e-05
0.489752,-0.115008,-0.100514,0.235628,-0.0101891,-0.234359,0.00263977,-1.52588e-05
0.37436,0.388141,0.150134,0.200306,0.030101,-0.24933,0.00263977,-1.52588e-05
-0.173693,0.717152,0.236438,0.139279,0.0475256,-0.260492,0.00263977,-1.52588e-05
-0.650074,0.804178,0.00136147,0.114389,0.0794633,-0.284713,0.00263977,-1.52588e-05
-0.580962,0.669531,-0.198402,0.0793259,0.107156,-0.286659,0.00263977,-1.52588e-05
-0.0685766,0.475607,-0.0341827,0.0174819,0.0943405,-0.229878,0.00263977,-1.52588e-05
0.461994,0.404973,0.211412,-0.050432,0.0807704,-0.119561,0.00263977,-1.52588e-05
0.606755,0.336783,0.256521,-0.125814,0.0572557,-0.0212005,0.00263977,-1.52588e-05
0.391511,0.293598,0.0301741,-0.18125,0.036158,0.0592661,0.00263977,-1.52588e-05
0.000434794,0.349489,-0.283836,-0.208891,0.00189504,0.10459,0.00263977,-1.52588e-05
-0.251067,0.612099,-0.516293,-0.220329,0.00120288,0.138973,0.00263977,-1.52588e-05
-0.30715,0.830771,-0.582815,-0.20827,0.0333852,0.146271,0.00263977,-1.52588e-05
-0.246864,0.776261,-0.55302,-0.162104,0.0269375,0.136816,0.00263977,-1.52588e-05
-0.161479,0.456916,-0.523812,-0.147066,0.0289836,0.129704,0.00263977,-1.52588e-05
-0.0249051,0.0813944,-0.484787,-0.104105,0.0444898,0.113142,0.00263977,-1.52588e-05
0.182192,-0.234233,-0.453628,-0.0708467,0.0745583,0.108726,0.00263977,-1.52588e-05
0.494597,-0.408767,-0.369517,-0.0206712,0.100703,0.107698,0.00263977,-1.52588e-05
0.659778,-0.517644,-0.25215,0.0232155,0.113256,0.128606,0.00263977,-1.52588e-05
0.651373,-0.460031,-0.122134,0.062556,0.110269,0.150572,0.00263977,-1.52588e-05
0.507295,-0.302291,-0.0107408,0.0821377,0.107418,0.181936,0.00263977,-1.52588e-05
0.507295,-0.302291,-0.0107408,0.0821377,0.107418,0.181936,0.129486,-0.00152588
0.378011,-0.0449368,0.0834619,0.0895591,0.104134,0.200415,0.129486,-0.00152588
0.299538,0.12901,0.160065,0.0930453,0.0991959,0.229159,0.129486,-0.00152588
0.213461,0.109928,0.190751,0.112856,0.0738965,0.229781,0.129486,-0.00152588
0.0822884,0.0575537,0.174842,0.123783,0.0488862,0.239681,0.129486,-0.00152588
-0.0673832,0.00123274,0.167402,0.125182,0.0328833,0.242869,0.129486,-0.00152588
-0.136291,0.0471789,0.211902,0.140159,0.0127822,0.236818,0.129486,-0.00152588
-0.202383,0.110859,0.26717,0.138849,5.14984e-05,0.23088,0.129486,-0.00152588
-0.29632,0.0306764,0.316297,0.137574,-0.010114,0.205041,0.129486,-0.00152588
-0.250742,-0.0114383,0.378104,0.146539,-0.0293223,0.151313,0.129486,-0.00152588
-0.240682,-0.051642,0.468952,0.125292,-0.0268326,0.131497,0.129486,-0.00152588
-0.339354,-0.0693889,0.528343,0.108996,-0.067702,0.111578,0.129486,-0.00152588
-0.507073,-0.0122374,0.494547,0.0718474,-0.116192,0.086648,0.129486,-0.00152588
-0.665421,0.145488,0.405014,0.042138,-0.13814,0.0607602,0.129486,-0.00152588
-0.687704,0.306741,0.33496,0.028732,-0.140527,0.0151823,0.129486,-0.00152588
-0.538737,0.379896,0.358047,0.0350017,-0.148046,-0.0203123,0.129486,-0.00152588
-0.34924,0.351991,0.42878,0.0476988,-0.158173,-0.0225032,0.129486,-0.00152588
-0.22805,0.296312,0.453541,0.0614772,-0.170278,-0.00783491,0.129486,-0.00152588
-0.133853,0.29861,0.42898,0.0783325,-0.173004,0.0134404,0.129486,-0.00152588
-0.0772978,0.266535,0.393568,0.103494,-0.172902,-0.00636148,0.129486,-0.00152588
0.00832948,0.217961,0.402895,0.112905,-0.154212,-0.036296,0.129486,-0.00152588
0.125621,0.158272,0.470802,0.122069,-0.152646,-0.0640138,0.129486,-0.00152588
0.199984,0.116597,0.537251,0.117198,-0.145139,-0.0891976,0.129486,-0.00152588
0.117829,0.151768,0.557903,0.0927818,-0.132703,-0.111239,0.129486,-0.00152588
0.0510076,0.389453,0.566801,0.0723673,-0.120266,-0.117057,0.129486,-0.00152588
0.0652545,0.664212,0.616045,0.0900977,-0.160941,-0.108661,0.129486,-0.00152588
-0.0778785,0.71787,0.581844,0.119717,-0.167612,-0.0864135,0.129486,-0.00152588
-0.389363,0.497282,0.465651,0.152957,-0.180306,-0.110021,0.129486,-0.00152588
-0.568983,0.323347,0.374564,0.173046,-0.134389,-0.126384,0.129486,-0.00152588
-0.437841,0.302228,0.446316,0.167464,-0.0597002,-0.151177,0.129486,-0.00152588
-0.102097,0.455783,0.691112,0.157641,0.00140974,-0.127588,0.129486,-0.00152588
0.214608,0.654447,1.08894,0.148387,0.0154014,-0.083572,0.129486,-0.00152588
0.348216,0.713655,1.39271,0.158692,-0.00671777,-0.0568017,0.129486,-0.00152588
0.354055,0.605353,1.47744,0.161953,-0.00681451,-0.0354437,0.129486,-0.00152588
0.191766,0.370338,1.41645,0.154228,0.0335291,-0.0403132,0.129486,-0.00152588
-0.000322936,0.287793,1.36263,0.139778,0.0780158,-0.0337983,0.129486,-0.00152588
-0.0349502,0.378826,1.39218,0.133624,0.118591,-0.0286897,0.129486,-0.00152588
0.0577506,0.508089,1.51412,0.144761,0.129771,-0.000189304,0.129486,-0.00152588
0.0701318,0.609004,1.61312,0.155124,0.117416,0.0416547,0.129486,-0.00152588
-0.0745557,0.660915,1.65133,0.166546,0.0857837,0.0737818,0.129486,-0.00152588
-0.297044,0.69939,1.65122,0.165941,0.0725318,0.0853956,0.129486,-0.00152588
-0.430468,0.749477,1.63489,0.167374,0.0819737,0.0733684,0.129486,-0.00152588
-0.415268,0.769808,1.66557,0.165238,0.104515,0.0508609,0.129486,-0.00152588
-0.352347,0.664005,1.69037,0.152716,0.1366,0.0158072,0.129486,-0.00152588
-0.284295,0.5042,1.6399,0.136223,0.156925,0.00488907,0.129486,-0.00152588
-0.123508,0.378522,1.5416,0.106406,0.154935,0.0212981,0.129486,-0.00152588
0.0516764,0.264152,1.40683,0.0759788,0.147974,0.0481064,0.129486,-0.00152588
0.1175,0.127322,1.25455,0.0613401,0.12175,0.0512555,0.129486,-0.00152588
0.164414,0.0431728,1.10001,0.041917,0.121927,0.0512101,0.129486,-0.00152588
0.198061,0.0992747,0.948642,0.022147,0.124069,0.0611718,0.129486,-0.00152588
0.189558,0.210385,0.799064,0.0280221,0.107577,0.0608485,0.129486,-0.00152588
0.122959,0.336923,0.678004,0.0427402,0.079821,0.0634133,0.129486,-0.00152588
0.122959,0.336923,0.678004,0.0427402,0.079821,0.0634133,0.348785,-0.0041275
0.0278509,0.435351,0.589754,0.0632731,0.0533615,0.0513384,0.348785,-0.0041275
-0.0828316,0.411462,0.521838,0.0654869,0.0473922,0.0237851,0.348785,-0.0041275
-0.211942,0.403157,0.426745,0.0685832,0.0193943,-0.0109972,0.348785,-0.0041275
-0.352477,0.435627,0.33056,0.0857763,-0.033887,-0.0576119,0.348785,-0.0041275
-0.463127,0.38398,0.212095,0.0830014,-0.0470214,-0.1395,0.348785,-0.0041275
-0.390492,0.305198,0.0624476,0.0858784,-0.0244815,-0.218038,0.348785,-0.0041275
-0.0538388,0.326798,0.0368428,0.10497,-0.015466,-0.247247,0.348785,-0.0041275
0.175465,0.279391,0.189381,0.113838,-0.0208891,-0.244289,0.348785,-0.0041275
0.130893,0.0598844,0.305584,0.148767,-0.0448813,-0.245063,0.348785,-0.0041275
-0.199882,-0.082715,0.293935,0.108382,-0.0257672,-0.212131,0.348785,-0.0041275
-0.637305,-0.0380995,0.273807,0.0509891,-0.00810321,-0.199723,0.348785,-0.0041275
-0.876406,-0.0264684,0.23436,-0.000436366,0.0367027,-0.229905,0.348785,-0.0041275
-0.734807,-0.0799163,0.224394,-0.0360198,0.0895644,-0.248286,0.348785,-0.0041275
-0.360654,-0.109812,0.311728,-0.0571205,0.124908,-0.224197,0.348785,-0.0041275
-0.0745102,-0.0577746,0.469806,-0.074372,0.134775,-0.153811,0.348785,-0.0041275
-0.0343024,-0.0340303,0.63396,-0.10394,0.129784,-0.0999331,0.348785,-0.0041275
-0.122815,0.0258426,0.720517,-0.139434,0.136319,-0.057505,0.348785,-0.0041275
-0.176228,0.110381,0.754204,-0.171897,0.146355,-0.0341864,0.348785,-0.0041275
-0.140503,0.223338,0.759338,-0.192928,0.153724,-0.000366628,0.348785,-0.0041275
-0.0927517,0.330393,0.702073,-0.192263,0.149875,0.0442392,0.348785,-0.0041275
-0.0203412,0.369901,0.651377,-0.168549,0.119817,0.0774946,0.348785,-0.0041275
0.0921417,0.319346,0.631437,-0.137601,0.0899716,0.117868,0.348785,-0.0041275
0.195367,0.217445,0.644195,-0.113209,0.0559949,0.169588,0.348785,-0.0041275
0.18672,0.0448076,0.640636,-0.0871435,0.0209513,0.205858,0.348785,-0.0041275
0.0402063,-0.16594,0.558936,-0.0668308,-0.000155076,0.207274,0.348785,-0.0041275
-0.0512642,-0.265991,0.478568,-0.0609842,0.004784,0.198117,0.348785,-0.0041275
0.0142072,-0.241178,0.425951,-0.055884,0.0265527,0.176402,0.348785,-0.0041275
0.168409,-0.157834,0.359356,-0.0322153,0.0246699,0.160614,0.348785,-0.0041275
0.1314,-0.141399,0.289732,-0.00379334,0.0189942,0.128769,0.348785,-0.0041275
0.00638707,-0.0591691,0.324171,0.0204018,0.029749,0.0933384,0.348785,-0.0041275
-0.0881613,0.0365932,0.386175,0.0384694,0.0498345,0.0366552,0.348785,-0.0041275
-0.0298505,0.211201,0.467143,0.0201301,0.051896,0.0448153,0.348785,-0.0041275
0.104788,0.286658,0.500291,0.00804643,0.0363186,0.0343924,0.348785,-0.0041275
0.204389,0.266868,0.458396,-0.0105298,0.0141857,0.0483553,0.348785,-0.0041275
0.180195,0.243038,0.389547,-0.027194,-0.0103768,0.073252,0.348785,-0.0041275
0.112526,0.220426,0.365074,-0.0488898,-0.0408905,0.0995029,0.348785,-0.0041275
-0.0231278,0.197285,0.305045,-0.0512944,-0.0521197,0.0833674,0.348785,-0.0041275
-0.147116,0.269198,0.254178,-0.0573898,-0.06641,0.0738196,0.348785,-0.0041275
-0.181039,0.350468,0.271986,-0.0524465,-0.0752021,0.0405313,0.348785,-0.0041275
-0.197496,0.39998,0.349244,-0.0355897,-0.0850028,-0.00918627,0.348785,-0.0041275
-0.157569,0.368278,0.507274,-0.0186864,-0.103056,-0.0713624,0.348785,-0.0041275
-0.0358982,0.139199,0.750136,-0.000413731,-0.139448,-0.154749,0.348785,-0.0041275
0.0716205,-0.186403,0.90575,0.0119297,-0.158969,-0.222841,0.348785,-0.0041275
0.077795,-0.607685,0.872531,0.0406219,-0.141898,-0.322893,0.348785,-0.0041275
-0.133683,-0.972078,0.692339,0.0196714,-0.0579878,-0.41694,0.348785,-0.0041275
-0.517538,-0.842083,0.45002,0.0236067,0.00711705,-0.43887,0.348785,-0.0041275
-0.671193,-0.279963,0.388927,0.00866758,0.0746411,-0.404272,0.348785,-0.0041275
-0.479864,0.354651,0.533293,0.0197482,0.133629,-0.327096,0.348785,-0.0041275
-0.153532,0.791217,0.823482,0.0632228,0.111754,-0.213452,0.348785,-0.0041275
0.0781979,0.77543,1.0576,0.10521,0.0696414,-0.11316,0.348785,-0.0041275
0.145036,0.355358,1.13606,0.088762,0.0278071,-0.0533387,0.348785,-0.0041275
0.145036,0.355358,1.13606,0.088762,0.0278071,-0.0533387,0.0766144,-0.000915527
0.151095,-0.114075,0.99409,0.0591848,0.0166592,0.00940561,0.0766144,-0.000915527
0.135615,-0.275908,0.725345,0.044768,-0.00412628,0.0894395,0.0766144,-0.000915527
0.0184423,-0.0875832,0.492295,0.0309221,-0.0129513,0.170995,0.0766144,-0.000915527
-0.189444,0.228264,0.312977,0.031202,-0.00814396,0.223422,0.0766144,-0.000915527
-0.344675,0.483813,0.150138,0.0362606,0.00213252,0.244872,0.0766144,-0.000915527
-0.410578,0.566046,-0.000496236,0.0453629,0.0157903,0.24801,0.0766144,-0.000915527
-0.434691,0.485196,-0.143897,0.0598598,0.0279721,0.236767,0.0766144,-0.000915527
-0.407408,0.307844,-0.230866,0.0723399,0.0429814,0.216342,0.0766144,-0.000915527
-0.295532,0.173172,-0.22167,0.0646477,0.0651109,0.208596,0.0766144,-0.000915527
-0.154377,0.130134,-0.130032,0.0526741,0.0835317,0.192428,0.0766144,-0.000915527
-0.0303614,0.135971,-0.0296795,0.0460532,0.0935579,0.172806,0.0766144,-0.000915527
0.0459455,0.157731,0.0542423,0.0369044,0.0927888,0.158238,0.0766144,-0.000915527
0.0645758,0.145222,0.112448,0.0194744,0.0901354,0.139152,0.0766144,-0.000915527
0.066284,0.176334,0.160988,0.011458,0.0837423,0.125055,0.0766144,-0.000915527
0.102928,0.148966,0.221798,0.0084879,0.0720011,0.099874,0.0766144,-0.000915527
0.151676,0.101653,0.299013,0.000130534,0.0694639,0.0694471,0.0766144,-0.000915527
0.187044,0.0798817,0.366876,-0.000937581,0.0670193,0.0343502,0.0766144,-0.000915527
0.130957,0.128811,0.396595,0.00471048,0.0459107,8.75592e-05,0.0766144,-0.000915527
0.0784982,0.119301,0.475292,0.00881742,0.0470601,-0.0545886,0.0766144,-0.000915527
-0.00453735,0.0147239,0.582431,0.00798038,0.0353957,-0.125916,0.0766144,-0.000915527
-0.153086,-0.258134,0.606505,0.00926392,0.049866,-0.224988,0.0766144,-0.000915527
-0.232684,-0.561377,0.501422,-0.00350362,0.0754368,-0.299243,0.0766144,-0.000915527
-0.254369,-0.744687,0.320149,-0.00393353,0.0868585,-0.315995,0.0766144,-0.000915527
-0.443412,-0.653198,0.156137,0.00590786,0.0514251,-0.287233,0.0766144,-0.000915527
-0.935518,-0.407723,-0.0724917,0.00589274,0.0402124,-0.286718,0.0766144,-0.000915527
-1.37805,-0.167191,-0.341054,0.0150741,0.0474092,-0.293334,0.0766144,-0.000915527
-1.32932,-0.042583,-0.422595,0.0373173,0.0401053,-0.264244,0.0766144,-0.000915527
-0.795801,-0.169669,-0.224417,0.0579266,-5.01797e-05,-0.221454,0.0766144,-0.000915527
-0.0742209,-0.445591,0.0988288,0.0543939,-0.0373767,-0.141968,0.0766144,-0.000915527
0.343387,-0.743298,0.343594,0.0425812,-0.0854712,-0.0598465,0.0766144,-0.000915527
0.300787,-0.967392,0.411277,0.00207555,-0.114236,-0.00153291,0.0766144,-0.000915527
-0.032512,-1.05058,0.248496,-0.0308077,-0.126637,-0.000387192,0.0766144,-0.000915527
-0.265478,-0.836456,-0.0681862,-0.0541033,-0.11022,0.0279761,0.0766144,-0.000915527
-0.232305,-0.296252,-0.3231,-0.0841455,-0.0587947,0.0675434,0.0766144,-0.000915527
-0.00218212,0.332673,-0.37912,-0.07419,-0.0333644,0.12198,0.0766144,-0.000915527
0.205223,0.680831,-0.315834,-0.0382054,-0.02723,0.156309,0.0766144,-0.000915527
0.353212,0.763225,-0.224381,-0.018402,-0.0264176,0.213664,0.0766144,-0.000915527
0.458373,0.605815,-0.168012,-0.0101708,-0.016569,0.257934,0.0766144,-0.000915527
0.524274,0.306075,-0.148129,-0.0130901,-0.00822239,0.299634,0.0766144,-0.000915527
0.536779,-0.0379439,-0.174376,-0.0198335,0.013575,0.316504,0.0766144,-0.000915527
0.524969,-0.27212,-0.193735,-0.0265544,0.0156541,0.34294,0.0766144,-0.000915527
0.419418,-0.45199,-0.203645,-0.0220083,0.0222778,0.305089,0.0766144,-0.000915527
0.31583,-0.473694,-0.236348,-0.0202104,0.0260008,0.269228,0.0766144,-0.000915527
0.225252,-0.431836,-0.276803,-0.0127119,0.00569044,0.211489,0.0766144,-0.000915527
0.103987,-0.430102,-0.331959,0.0205358,-0.00928618,0.0931231,0.0766144,-0.000915527
0.147027,-0.327974,-0.285351,0.0112539,-0.0221219,0.043873,0.0766144,-0.000915527
0.146109,-0.274096,-0.22631,0.0354738,-0.0433261,-0.0482826,0.0766144,-0.000915527
0.142236,-0.146301,-0.139197,0.0613965,-0.0608658,-0.117592,0.0766144,-0.000915527
0.216042,-0.0230549,0.0507084,0.069346,-0.0983154,-0.153602,0.0766144,-0.000915527
0.216042,-0.0230549,0.0507084,0.069346,-0.0983154,-0.153602,0.0819244,-0.000968933
0.253747,0.145117,0.303426,0.0661531,-0.117346,-0.164071,0.0819244,-0.000968933
0.210524,0.473163,0.613086,0.0568603,-0.128155,-0.157965,0.0819244,-0.000968933
0.0964027,0.84119,1.0181,0.0663816,-0.144367,-0.181069,0.0819244,-0.000968933
0.00600466,0.835697,1.33689,0.0729785,-0.143799,-0.246691,0.0819244,-0.000968933
0.07111,0.509858,1.36486,0.0313016,-0.0669861,-0.27925,0.0819244,-0.000968933
0.287425,0.257206,1.25344,0.0438837,-0.0376853,-0.224833,0.0819244,-0.000968933
0.423028,0.276691,1.27911,0.0831902,-0.0597332,-0.106737,0.0819244,-0.000968933
0.177429,0.461731,1.40806,0.109405,-0.050678,-0.0425908,0.0819244,-0.000968933
-0.226846,0.58195,1.44804,0.144299,-0.0746608,-0.0438229,0.0819244,-0.000968933
-0.572578,0.4479,1.32124,0.121844,-0.0599377,-0.106931,0.0819244,-0.000968933
-0.723903,0.0382582,0.945699,0.0817989,0.0164572,-0.227472,0.0819244,-0.000968933
-0.429257,-0.193164,0.552199,0.0592165,0.0907444,-0.261852,0.0819244,-0.000968933
0.169625,-0.0447427,0.440508,0.0319323,0.14144,-0.190334,0.0819244,-0.000968933
0.639602,0.344471,0.568913,0.0257072,0.135537,-0.0433363,0.0819244,-0.000968933
0.654458,0.745886,0.708299,0.0274595,0.0873967,0.0989001,0.0819244,-0.000968933
0.337431,1.17362,0.712713,0.0324691,0.0655603,0.21804,0.0819244,-0.000968933
-0.0383981,1.59546,0.751022,0.0382093,0.0601773,0.280485,0.0819244,-0.000968933
-0.148098,1.65743,0.827295,0.0449555,0.0453791,0.255594,0.0819244,-0.000968933
0.120976,1.42789,0.768697,0.0125915,0.0458707,0.234948,0.0819244,-0.000968933
0.461198,1.23837,0.65756,-0.0330954,0.0656805,0.269935,0.0819244,-0.000968933
0.584486,1.14964,0.618578,-0.0426427,0.0470458,0.315972,0.0819244,-0.000968933
0.428165,1.0967,0.702091,-0.0330322,-0.00503361,0.333609,0.0819244,-0.000968933
0.177958,1.11485,0.777983,-0.0396618,-0.0191335,0.340417,0.0819244,-0.000968933
-0.0515168,1.13108,0.785204,-0.0399426,-0.0452638,0.289622,0.0819244,-0.000968933
-0.165754,1.0235,0.666666,-0.0388112,-0.0673608,0.220405,0.0819244,-0.000968933
-0.215381,0.820807,0.474235,-0.0321756,-0.080343,0.157312,0.0819244,-0.000968933
-0.232732,0.49662,0.279607,-0.0102654,-0.0798981,0.074289,0.0819244,-0.000968933
-0.164445,0.123507,0.182064,0.0255319,-0.0852565,0.0028429,0.0819244,-0.000968933
-0.127284,-0.145489,0.191691,0.0572059,-0.0898914,-0.0567904,0.0819244,-0.000968933
-0.140766,-0.171507,0.218749,0.0685724,-0.0693396,-0.0943825,0.0819244,-0.000968933
-0.128559,-0.0337506,0.275487,0.0771964,-0.0678687,-0.127881,0.0819244,-0.000968933
-0.0834791,0.0497292,0.325344,0.0893634,-0.067242,-0.170365,0.0819244,-0.000968933
-0.0897877,0.0251409,0.381877,0.101275,-0.0513363,-0.212079,0.0819244,-0.000968933
-0.148707,-0.0310763,0.443122,0.111196,-0.0308713,-0.243616,0.0819244,-0.000968933
-0.199156,-0.0336546,0.468504,0.104065,0.00131154,-0.247756,0.0819244,-0.000968933
-0.189575,-0.0783379,0.47447,0.0916211,0.00564924,-0.231012,0.0819244,-0.000968933
-0.353541,-0.518066,0.28571,0.0770685,0.0120766,-0.271089,0.0819244,-0.000968933
-0.664872,-1.68437,-0.299164,0.0863445,0.0375551,-0.412234,0.0819244,-0.000968933
-0.635028,-2.88611,-0.792537,0.0650532,0.0742703,-0.464198,0.0819244,-0.000968933
-0.248157,-3.25519,-0.907706,0.0194778,0.144575,-0.370317,0.0819244,-0.000968933
3.09863e-05,-2.36449,-0.673142,-0.0561183,0.205906,-0.18438,0.0819244,-0.000968933
-0.0481696,-1.03537,-0.306112,-0.0721731,0.205931,-0.121044,0.0819244,-0.000968933
-0.147392,-0.0635789,-0.160078,-0.109977,0.152166,-0.0882663,0.0819244,-0.000968933
-0.165423,0.466545,-0.354298,-0.128896,0.105466,-0.072783,0.0819244,-0.000968933
-0.0525877,0.466904,-0.692809,-0.128056,0.0794107,-0.0539283,0.0819244,-0.000968933
0.13149,0.30801,-0.942349,-0.125369,0.126513,-0.0194433,0.0819244,-0.000968933
0.228843,0.337145,-0.947244,-0.100677,0.101486,0.0674068,0.0819244,-0.000968933
0.241298,0.393074,-0.764814,-0.0795437,0.0826179,0.167537,0.0819244,-0.000968933
0.241298,0.393074,-0.764814,-0.0795437,0.0826179,0.167537,0.0977631,-0.00114441
0.218024,0.40273,-0.535847,-0.0647596,0.0491339,0.225715,0.0977631,-0.00114441
0.199021,0.251979,-0.397338,-0.0634238,0.0339422,0.257185,0.0977631,-0.00114441
0.186896,-0.0242529,-0.381659,-0.0652492,0.0193034,0.273636,0.0977631,-0.00114441
0.144554,-0.261884,-0.44078,-0.0645472,0.00546497,0.290218,0.0977631,-0.00114441
0.107899,-0.446351,-0.497457,-0.0520193,0.0058046,0.300978,0.0977631,-0.00114441
0.100141,-0.634083,-0.489633,-0.0329507,0.00237186,0.296617,0.0977631,-0.00114441
0.117481,-0.779729,-0.44705,-0.0154043,0.00637928,0.280163,0.0977631,-0.00114441
0.217856,-0.849302,-0.396453,0.00503418,0.0215108,0.249415,0.0977631,-0.00114441
0.265745,-0.782538,-0.368524,0.0213376,0.0195165,0.222268,0.0977631,-0.00114441
0.251104,-0.579555,-0.32979,0.0462454,0.0292819,0.193504,0.0977631,-0.00114441
0.202553,-0.403765,-0.24714,0.0525171,0.00910264,0.174139,0.0977631,-0.00114441
0.1172,-0.257712,-0.243355,0.0476799,-0.019794,0.156861,0.0977631,-0.00114441
-0.0308753,-0.22011,-0.300106,0.0504818,-0.0477614,0.141697,0.0977631,-0.00114441
-0.178499,-0.200788,-0.360665,0.0438177,-0.0713226,0.131565,0.0977631,-0.00114441
-0.303555,-0.161106,-0.381897,0.0381406,-0.100862,0.113322,0.0977631,-0.00114441
-0.457538,-0.0975377,-0.387405,0.0407432,-0.115359,0.0757129,0.0977631,-0.00114441
-0.588889,0.0152995,-0.37014,0.0470769,-0.134913,0.0258985,0.0977631,-0.00114441
-0.621781,0.0492767,-0.329087,0.0661571,-0.146559,-0.0530958,0.0977631,-0.00114441
-0.481076,-0.144194,-0.273576,0.0653194,-0.114421,-0.166214,0.0977631,-0.00114441
0.0276551,-0.837847,-0.289935,0.063184,-0.0713555,-0.374996,0.0977631,-0.00114441
0.810209,-1.1163,-0.460194,0.115193,-0.0532171,-0.419411,0.0977631,-0.00114441
0.872549,-0.491488,-0.248047,0.175556,-0.102302,-0.32647,0.0977631,-0.00114441
0.107346,0.547219,0.370576,0.134759,-0.0789345,-0.242731,0.0977631,-0.00114441
-0.668291,1.27155,0.800188,0.101824,-0.0198475,-0.236368,0.0977631,-0.00114441
-0.801577,1.16936,0.833567,0.116246,-0.0121226,-0.296108,0.0977631,-0.00114441
-0.5054,0.715179,0.736616,0.117554,0.00851768,-0.268537,0.0977631,-0.00114441
-0.241646,0.380733,0.860582,0.136136,-0.00383139,-0.169961,0.0977631,-0.00114441
-0.186918,0.105159,1.19022,0.148337,-0.0196443,-0.0915815,0.0977631,-0.00114441
-0.242569,-0.296407,1.47084,0.133242,-0.0136427,-0.0877365,0.0977631,-0.00114441
-0.248576,-0.722931,1.48605,0.100604,-0.000160873,-0.116001,0.0977631,-0.00114441
-0.0657177,-0.942752,1.31407,0.0767136,0.00824036,-0.130502,0.0977631,-0.00114441
0.319951,-0.767904,1.22281,0.0402104,0.004198,-0.0755625,0.0977631,-0.00114441
0.616376,-0.356115,1.20419,0.0264977,-0.00403734,0.00920033,0.0977631,-0.00114441
0.657333,0.0499904,1.18206,0.0353725,-0.0314133,0.090638,0.0977631,-0.00114441
0.553701,0.30824,1.06374,0.0482181,-0.0407837,0.141849,0.0977631,-0.00114441
0.504355,0.390553,0.86835,0.0605623,-0.0272814,0.161301,0.0977631,-0.00114441
0.569223,0.401743,0.726363,0.0844845,-0.0237934,0.182578,0.0977631,-0.00114441
0.60037,0.469523,0.709857,0.100343,-0.00859669,0.221277,0.0977631,-0.00114441
0.583436,0.496641,0.759727,0.126992,0.0168477,0.240045,0.0977631,-0.00114441
0.606211,0.420614,0.874079,0.144774,0.0179774,0.237554,0.0977631,-0.00114441
0.60909,0.36524,0.991061,0.153968,0.0331334,0.252289,0.0977631,-0.00114441
0.589922,0.335863,1.06508,0.173853,0.0481181,0.237195,0.0977631,-0.00114441
0.638955,0.304357,1.17643,0.193472,0.0252951,0.221374,0.0977631,-0.00114441
0.596638,0.281444,1.2353,0.198225,0.0295283,0.21794,0.0977631,-0.00114441
0.47252,0.35668,1.17811,0.204346,0.0294143,0.205073,0.0977631,-0.00114441
0.334373,0.539719,1.07967,0.208556,0.00720593,0.197823,0.0977631,-0.00114441
0.129371,0.770671,0.975981,0.209241,0.023715,0.18589,0.0977631,-0.00114441
0.129371,0.770671,0.975981,0.209241,0.023715,0.18589,0.237808,-0.00284576
-0.0605065,0.991289,0.948576,0.216921,0.0328352,0.163491,0.237808,-0.00284576
-0.184914,1.16876,1.03751,0.227711,0.0307631,0.14295,0.237808,-0.00284576
-0.319851,1.17272,1.15887,0.2292,0.0327388,0.105534,0.237808,-0.00284576
-0.354439,1.1074,1.2674,0.215615,0.0379446,0.0812289,0.237808,-0.00284576
-0.330992,0.971456,1.39644,0.190022,0.0225546,0.0621409,0.237808,-0.00284576
-0.351623,0.776327,1.47631,0.154058,0.0129644,0.0565096,0.237808,-0.00284576
-0.37447,0.608397,1.49609,0.117932,-0.0136827,0.0517114,0.237808,-0.00284576
-0.416969,0.527117,1.45517,0.0769409,-0.0227146,0.0469859,0.237808,-0.00284576
-0.42995,0.457184,1.37227,0.0405248,-0.0288729,0.0244151,0.237808,-0.00284576
-0.37429,0.436555,1.29562,0.0131116,-0.0427315,0.00465256,0.237808,-0.00284576
-0.229688,0.405244,1.23995,-0.00879142,-0.0491561,-0.0179342,0.237808,-0.00284576
-0.135124,0.280565,1.16384,-0.0154425,-0.058489,-0.035929,0.237808,-0.00284576
-0.142778,0.103019,1.08544,-0.0258678,-0.0676985,-0.0464054,0.237808,-0.00284576
-0.24236,-0.0601496,0.969755,-0.044108,-0.0563034,-0.0594847,0.237808,-0.00284576
-0.344832,-0.145548,0.821373,-0.0658888,-0.0272271,-0.0869357,0.237808,-0.00284576
-0.326768,-0.0373271,0.72709,-0.0797192,-0.0565875,-0.0883707,0.237808,-0.00284576
-0.452054,0.16794,0.593099,-0.0840096,-0.052962,-0.0859834,0.237808,-0.00284576
-0.746419,0.410533,0.340954,-0.0889461,-0.0387063,-0.082949,0.237808,-0.00284576
-0.942798,0.495099,0.00443403,-0.0777602,-0.0131593,-0.116237,0.237808,-0.00284576
-0.894206,0.372364,-0.242117,-0.0663974,0.0293041,-0.152209,0.237808,-0.00284576
-0.648145,0.12564,-0.307192,-0.046015,0.0766707,-0.182367,0.237808,-0.00284576
-0.261452,-0.115051,-0.157515,-0.0228876,0.105465,-0.178903,0.237808,-0.00284576
0.118483,-0.234544,0.168636,-0.0175582,0.123783,-0.150205,0.237808,-0.00284576
0.390441,-0.244877,0.506642,-0.0284707,0.126198,-0.105393,0.237808,-0.00284576
0.523533,-0.243127,0.650952,-0.0442955,0.113458,-0.0658219,0.237808,-0.00284576
0.541194,-0.234229,0.584685,-0.0549948,0.0868077,-0.0196819,0.237808,-0.00284576
0.456393,-0.157403,0.438459,-0.0577378,0.048249,0.0379112,0.237808,-0.00284576
0.296325,-0.0641043,0.276662,-0.0460123,0.0207274,0.0774668,0.237808,-0.00284576
0.131664,-0.0285729,0.119561,-0.0263412,-0.00182039,0.087027,0.237808,-0.00284576
0.0384165,-0.0439619,-0.0389467,-0.0139173,-0.00906485,0.0873386,0.237808,-0.00284576
0.0219424,-0.0860584,-0.168703,0.0023683,-0.00913,0.082785,0.237808,-0.00284576
-3.71228e-05,-0.0720733,-0.20193,0.00838905,-0.00299284,0.09501,0.237808,-0.00284576
-0.030677,0.00661972,-0.14227,0.00964397,0.0129521,0.0962712,0.237808,-0.00284576
0.034683,0.0745027,0.00209897,0.00769112,-0.00337854,0.0933102,0.237808,-0.00284576
0.0274029,-0.00261401,0.0753826,0.0062286,-0.00991321,0.0788535,0.237808,-0.00284576
-0.0720208,-0.135232,0.0377777,-0.00495813,-0.0237572,0.0708541,0.237808,-0.00284576
-0.170794,-0.125978,-0.0292954,-0.0146062,-0.0388434,0.0614005,0.237808,-0.00284576
-0.231452,-0.000736373,-0.024453,-0.0308832,-0.0438159,0.0459519,0.237808,-0.00284576
-0.26569,0.149263,-0.0110506,-0.0316303,-0.0436504,0.0354582,0.237808,-0.00284576
-0.235579,0.275596,0.0582721,-0.0291045,-0.0553297,0.0329123,0.237808,-0.00284576
-0.128317,0.302268,0.169623,-0.0187134,-0.0678461,0.023688,0.237808,-0.00284576
-0.110812,0.326535,0.285672,-0.00498991,-0.0898969,0.0320007,0.237808,-0.00284576
-0.230076,0.259724,0.374488,0.0121234,-0.113542,0.018141,0.237808,-0.00284576
-0.445971,0.0273505,0.408047,0.0433313,-0.134807,-0.0483948,0.237808,-0.00284576
-0.634939,-0.301793,0.407835,0.0887835,-0.137183,-0.152818,0.237808,-0.00284576
-0.550591,-0.516826,0.409206,0.130023,-0.117563,-0.262288,0.237808,-0.00284576
-0.229105,-0.348726,0.516003,0.148437,-0.0761991,-0.296148,0.237808,-0.00284576
0.0376811,0.0463512,0.854688,0.136987,-0.0463689,-0.269697,0.237808,-0.00284576
0.0376811,0.0463512,0.854688,0.136987,-0.0463689,-0.269697,0.219315,-0.00257874
0.0558009,0.323002,1.26447,0.130669,-0.0573775,-0.220412,0.219315,-0.00257874
-0.150574,0.273476,1.41354,0.12263,-0.0665035,-0.193944,0.219315,-0.00257874
-0.432068,-0.101224,1.21092,0.0885629,-0.0127847,-0.229771,0.219315,-0.00257874
-0.542622,-0.326476,0.874361,0.0411146,0.0716497,-0.256519,0.219315,-0.00257874
-0.247263,-0.145206,0.698865,0.0243426,0.121244,-0.234737,0.219315,-0.00257874
0.189155,0.38853,0.773929,0.0419133,0.140115,-0.137675,0.219315,-0.00257874
0.369894,0.836638,0.99754,0.0681601,0.118579,-0.0364121,0.219315,-0.00257874
0.32462,0.853011,1.11966,0.0924561,0.0792572,0.000836074,0.219315,-0.00257874
0.253229,0.539607,1.01903,0.111096,0.0446533,0.012982,0.219315,-0.00257874
0.247459,0.161354,0.841848,0.123345,0.0379754,0.0241379,0.219315,-0.00257874
0.248056,0.00699453,0.798016,0.115547,0.0595751,0.0540735,0.219315,-0.00257874
0.261913,0.138462,0.857339,0.098142,0.0935016,0.0929777,0.219315,-0.00257874
0.324441,0.337878,0.876525,0.0965742,0.106789,0.109682,0.219315,-0.00257874
0.427832,0.479278,0.816218,0.0953817,0.109261,0.130414,0.219315,-0.00257874
0.48961,0.504914,0.727101,0.100068,0.101533,0.152885,0.219315,-0.00257874
0.469199,0.451852,0.642441,0.106155,0.0923667,0.175405,0.219315,-0.00257874
0.393856,0.393059,0.583162,0.10534,0.0898628,0.188327,0.219315,-0.00257874
0.305744,0.363584,0.550511,0.0970285,0.0969404,0.187083,0.219315,-0.00257874
0.26075,0.349877,0.529435,0.0862897,0.0976806,0.173544,0.219315,-0.00257874
0.24244,0.323672,0.497136,0.0715747,0.103834,0.147147,0.219315,-0.00257874
0.223974,0.330176,0.478484,0.0557612,0.0940133,0.128795,0.219315,-0.00257874
0.149391,0.388968,0.469345,0.0376051,0.0837301,0.120116,0.219315,-0.00257874
0.0485749,0.515227,0.433809,0.0161466,0.0719118,0.123464,0.219315,-0.00257874
-0.0489571,0.61052,0.35091,0.00749417,0.0565012,0.114492,0.219315,-0.00257874
-0.122488,0.685742,0.257512,0.000301145,0.0371376,0.113518,0.219315,-0.00257874
-0.211399,0.642705,0.173601,0.00549239,0.0195315,0.0807335,0.219315,-0.00257874
-0.381539,0.597959,0.145524,0.0118817,-0.0044041,0.0525753,0.219315,-0.00257874
-0.685434,0.650588,0.158507,0.0218011,-0.0307076,0.0143865,0.219315,-0.00257874
-0.863372,0.650385,0.170959,0.02805,-0.046163,-0.0617686,0.219315,-0.00257874
-0.781333,0.3586,0.172203,0.0307693,-0.026263,-0.167099,0.219315,-0.00257874
-0.541007,-0.124218,0.211813,0.0375751,0.000581145,-0.222581,0.219315,-0.00257874
-0.315291,-0.53809,0.31213,0.0295341,0.0144223,-0.21814,0.219315,-0.00257874
-0.241181,-0.745864,0.392011,0.0229327,0.00829017,-0.171055,0.219315,-0.00257874
-0.35979,-0.763538,0.391163,0.0234005,-0.0166828,-0.125921,0.219315,-0.00257874
-0.577921,-0.717681,0.299137,0.0256206,-0.0472926,-0.0972964,0.219315,-0.00257874
-0.869629,-0.620418,0.126307,0.0359708,-0.0737495,-0.0788601,0.219315,-0.00257874
-1.20004,-0.498272,-0.110236,0.0571037,-0.0854424,-0.0953453,0.219315,-0.00257874
-1.45484,-0.589718,-0.405687,0.0528379,-0.023447,-0.205944,0.219315,-0.00257874
-1.18194,-0.797322,-0.734061,0.0442747,0.0778337,-0.358359,0.219315,-0.00257874
-0.198134,-0.51118,-0.855785,0.0485374,0.132515,-0.343762,0.219315,-0.00257874
0.669429,-0.165797,-0.606502,0.038634,0.13145,-0.283685,0.219315,-0.00257874
0.823252,-0.0341381,-0.184638,0.0347892,0.0480722,-0.220765,0.219315,-0.00257874
0.550238,-0.0110346,0.0314182,-0.002405,0.0374773,-0.16444,0.219315,-0.00257874
0.372936,0.0335248,0.0371937,-0.0471574,0.0318003,-0.0903077,0.219315,-0.00257874
0.375649,0.156744,-0.0899438,-0.0800525,0.0599625,-0.0136972,0.219315,-0.00257874
0.466467,0.376554,-0.205276,-0.0846793,0.0715991,0.0821043,0.219315,-0.00257874
0.539433,0.577786,-0.227978,-0.0597087,0.0592909,0.17582,0.219315,-0.00257874
0.539433,0.577786,-0.227978,-0.0597087,0.0592909,0.17582,0.317078,-0.00376129
0.513351,0.614145,-0.15792,-0.040918,0.0508026,0.241504,0.317078,-0.00376129
0.41629,0.498475,-0.0691815,-0.0253993,0.0436087,0.28741,0.317078,-0.00376129
0.292594,0.324123,-0.000246385,-0.0215811,0.0397565,0.311539,0.317078,-0.00376129
0.159148,0.115571,0.0368333,-0.0300415,0.0452845,0.30889,0.317078,-0.00376129
0.0557517,-0.0664091,0.0401252,-0.0443417,0.0567863,0.284592,0.317078,-0.00376129
0.0526517,-0.210681,-0.0356391,-0.0629779,0.0724847,0.246719,0.317078,-0.00376129
0.108707,-0.275672,-0.181985,-0.0772348,0.0993062,0.201181,0.317078,-0.00376129
0.188056,-0.159758,-0.276621,-0.0759246,0.0971337,0.201741,0.317078,-0.00376129
0.144431,-0.0236751,-0.277251,-0.0679121,0.0881253,0.192859,0.317078,-0.00376129
0.0195694,0.130446,-0.194925,-0.0609084,0.0651724,0.195235,0.317078,-0.00376129
-0.122809,0.1431,-0.134507,-0.0516473,0.0357416,0.179899,0.317078,-0.00376129
-0.309828,0.101428,-0.176503,-0.0474807,0.0138893,0.156176,0.317078,-0.00376129
-0.491314,0.155092,-0.231267,-0.0469854,-0.0127541,0.134427,0.317078,-0.00376129
-0.601565,0.248002,-0.254683,-0.0450323,-0.0409821,0.116452,0.317078,-0.00376129
-0.625093,0.251684,-0.255317,-0.0339882,-0.0629019,0.0807945,0.317078,-0.00376129
-0.529921,0.161117,-0.218314,-0.0191669,-0.0894936,0.0494053,0.317078,-0.00376129
-0.39788,-0.0502859,-0.172337,-0.00787245,-0.111007,0.0094344,0.317078,-0.00376129
-0.298845,-0.258244,-0.139942,0.0127957,-0.142998,-0.0173034,0.317078,-0.00376129
-0.230202,-0.415296,-0.0909089,0.0298476,-0.170097,-0.046848,0.317078,-0.00376129
-0.127469,-0.46076,-0.0424175,0.0366051,-0.190232,-0.0637867,0.317078,-0.00376129
0.0845808,-0.51213,-0.0793422,0.0230426,-0.183585,-0.115756,0.317078,-0.00376129
0.331747,-0.438081,-0.211027,0.0151465,-0.210519,-0.132869,0.317078,-0.00376129
0.223968,-0.229838,-0.391792,0.0597254,-0.247939,-0.152509,0.317078,-0.00376129
-0.109899,0.173377,-0.46907,0.0869761,-0.248899,-0.162966,0.317078,-0.00376129
-0.447067,0.450268,-0.411202,0.0794597,-0.205237,-0.230473,0.317078,-0.00376129
-0.664444,0.397904,-0.468023,0.0866809,-0.132725,-0.34358,0.317078,-0.00376129
-0.55251,0.331116,-0.589675,0.103928,-0.077253,-0.40415,0.317078,-0.00376129
-0.168975,0.455937,-0.542262,0.113561,-0.015598,-0.391514,0.317078,-0.00376129
0.272666,0.590108,-0.267677,0.11289,0.0366241,-0.348902,0.317078,-0.00376129
0.631096,0.632068,0.10556,0.12389,0.0508916,-0.281428,0.317078,-0.00376129
0.817044,0.486895,0.398673,0.125507,0.0531579,-0.227189,0.317078,-0.00376129
0.824024,0.233815,0.541559,0.0951002,0.0729091,-0.171787,0.317078,-0.00376129
0.711227,0.0182564,0.567406,0.0543665,0.100435,-0.129164,0.317078,-0.00376129
0.557059,-0.0265106,0.548189,0.0221264,0.108971,-0.0759175,0.317078,-0.00376129
0.391127,0.106108,0.521256,-0.0045045,0.124502,-0.0221152,0.317078,-0.00376129
0.287951,0.366302,0.534854,-0.0148063,0.124545,0.0279219,0.317078,-0.00376129
0.238609,0.549473,0.577198,-0.0137976,0.130153,0.0667908,0.317078,-0.00376129
0.245839,0.607363,0.624882,-0.00533855,0.14336,0.109412,0.317078,-0.00376129
0.285368,0.601657,0.748295,-0.00222117,0.137418,0.161658,0.317078,-0.00376129
0.264578,0.556369,0.887978,-0.00405507,0.14435,0.208545,0.317078,-0.00376129
0.219138,0.463309,1.02502,-0.00969729,0.134848,0.234973,0.317078,-0.00376129
0.169715,0.35661,1.09801,-0.021508,0.134696,0.252064,0.317078,-0.00376129
0.13203,0.23154,1.09576,-0.0358282,0.136093,0.2531,0.317078,-0.00376129
0.128334,0.132257,1.05783,-0.0346385,0.135936,0.252372,0.317078,-0.00376129
0.131893,0.0215891,1.06458,-0.0324971,0.123126,0.255761,0.317078,-0.00376129
0.111116,-0.111278,1.05368,-0.0282573,0.114013,0.256121,0.317078,-0.00376129
0.0447714,-0.255444,0.974624,-0.0220464,0.0986951,0.253262,0.317078,-0.00376129
-0.0918953,-0.324973,0.861319,-0.0119557,0.0813459,0.255729,0.317078,-0.00376129
-0.0918953,-0.324973,0.861319,-0.0119557,0.0813459,0.255729,0.338211,-0.0039978
-0.268018,-0.258304,0.74438,-0.00800741,0.0655051,0.260466,0.338211,-0.0039978
-0.443272,-0.0924121,0.625134,-0.00373697,0.0554506,0.266084,0.338211,-0.0039978
-0.619995,0.0993515,0.480069,-0.00267228,0.0362695,0.271552,0.338211,-0.0039978
-0.819618,0.261352,0.340065,0.0173839,-0.00124922,0.271078,0.338211,-0.0039978
-1.03463,0.347149,0.192282,0.0303304,-0.0390908,0.24498,0.338211,-0.0039978
-1.21224,0.380339,0.0729071,0.0491818,-0.0682726,0.202108,0.338211,-0.0039978
-1.23938,0.27834,0.0211952,0.0577154,-0.0898425,0.150791,0.338211,-0.0039978
-1.13581,0.0192461,-0.0112909,0.0480774,-0.0979344,0.0901368,0.338211,-0.0039978
-0.996236,-0.26201,-0.014325,0.0343306,-0.100908,0.0191635,0.338211,-0.0039978
-0.893384,-0.284705,0.0738778,0.0179989,-0.11243,0.00956476,0.338211,-0.0039978
-0.887953,-0.306848,0.0732,-0.0214976,-0.0878877,-0.0050559,0.338211,-0.0039978
-0.802286,-0.363936,-0.0900662,-0.0132347,-0.0845525,-0.101628,0.338211,-0.0039978
-0.822681,-0.131908,-0.241819,-0.00702479,-0.104363,-0.137383,0.338211,-0.0039978
-0.95292,0.146273,-0.307853,-0.0190107,-0.0806348,-0.182427,0.338211,-0.0039978
-0.926056,0.330313,-0.303082,-0.00102226,-0.0865913,-0.2627,0.338211,-0.0039978
-0.612914,0.307118,-0.32686,0.0149084,-0.0602626,-0.373415,0.338211,-0.0039978
-0.253275,0.223122,-0.327081,0.0211526,-0.00980408,-0.423183,0.338211,-0.0039978
-0.187076,0.0466916,-0.258728,0.0294004,0.023324,-0.413383,0.338211,-0.0039978
-0.453406,-0.157412,-0.212984,0.0429998,0.0291364,-0.393945,0.338211,-0.0039978
-0.737015,-0.303799,-0.239914,0.0449698,0.0377547,-0.427219,0.338211,-0.0039978
-0.732951,-0.332257,-0.289008,0.0227967,0.0717247,-0.47166,0.338211,-0.0039978
-0.374596,-0.294054,-0.303194,-0.0225976,0.153673,-0.51,0.338211,-0.0039978
0.207599,-0.147793,-0.245726,-0.0479033,0.194004,-0.433578,0.338211,-0.0039978
0.743192,0.0622537,-0.0672314,-0.066342,0.188975,-0.272818,0.338211,-0.0039978
1.04638,0.154838,0.1256,-0.0877853,0.156401,-0.0963324,0.338211,-0.0039978
1.11336,0.0567487,0.179707,-0.113362,0.127832,0.044268,0.338211,-0.0039978
1.02474,-0.137119,0.0643073,-0.130114,0.0976119,0.142411,0.338211,-0.0039978
0.831801,-0.304339,-0.188729,-0.143441,0.0824304,0.195106,0.338211,-0.0039978
0.569335,-0.377545,-0.516107,-0.149624,0.0872943,0.212471,0.338211,-0.0039978
0.333044,-0.27966,-0.838039,-0.137169,0.0850337,0.218905,0.338211,-0.0039978
0.182083,-0.0227038,-1.04763,-0.117258,0.0878696,0.198991,0.338211,-0.0039978
0.163756,0.259546,-1.08335,-0.0919928,0.0802701,0.188583,0.338211,-0.0039978
0.216139,0.350709,-1.00362,-0.0614522,0.0757338,0.149177,0.338211,-0.0039978
0.36138,0.282418,-0.846721,-0.0437565,0.0686437,0.138161,0.338211,-0.0039978
0.527243,0.0302584,-0.670236,-0.0453974,0.0669236,0.118948,0.338211,-0.0039978
0.790608,-0.183869,-0.550283,-0.0586432,0.0777753,0.125078,0.338211,-0.0039978
1.10189,-0.364592,-0.461794,-0.0746492,0.0655628,0.130836,0.338211,-0.0039978
1.2577,-0.430897,-0.441531,-0.085103,0.0694141,0.155041,0.338211,-0.0039978
1.27945,-0.420403,-0.4342,-0.079963,0.0430509,0.176771,0.338211,-0.0039978
1.1935,-0.379183,-0.491184,-0.0753462,0.0394749,0.191718,0.338211,-0.0039978
1.05259,-0.236311,-0.587979,-0.0502494,0.0226064,0.217105,0.338211,-0.0039978
0.881471,-0.117133,-0.665228,-0.0212653,-0.00610676,0.229648,0.338211,-0.0039978
0.624628,-0.0613528,-0.75887,0.0112356,-0.0216935,0.221286,0.338211,-0.0039978
0.310454,-0.0887642,-0.839323,0.052094,-0.0464686,0.192732,0.338211,-0.0039978
0.0425531,-0.178314,-0.873135,0.0701397,-0.0475244,0.157695,0.338211,-0.0039978
-0.110611,-0.226177,-0.842607,0.0891299,-0.0428475,0.127808,0.338211,-0.0039978
-0.10099,-0.241267,-0.740976,0.099118,-0.045708,0.103954,0.338211,-0.0039978
-0.000748998,-0.226638,-0.60538,0.108812,-0.0542303,0.10953,0.338211,-0.0039978
-0.000748998,-0.226638,-0.60538,0.108812,-0.0542303,0.10953,0.256302,-0.00304413
0.0280529,-0.26055,-0.445676,0.114037,-0.0728413,0.12356,0.256302,-0.00304413
-0.0539559,-0.310536,-0.285904,0.115526,-0.0983028,0.150239,0.256302,-0.00304413
-0.207685,-0.327608,-0.154489,0.101928,-0.118802,0.167014,0.256302,-0.00304413
-0.34999,-0.360649,-0.0858312,0.0880521,-0.129647,0.154338,0.256302,-0.00304413
-0.460067,-0.330795,-0.0730429,0.0719117,-0.142734,0.135431,0.256302,-0.00304413
-0.515303,-0.214676,-0.0796506,0.0681625,-0.154299,0.0934067,0.256302,-0.00304413
-0.576393,-0.018167,-0.0452071,0.0689715,-0.177219,0.0546237,0.256302,-0.00304413
-0.724877,0.103638,-0.00929223,0.0762258,-0.179708,-0.0291303,0.256302,-0.00304413
-0.763065,0.0960815,0.0661377,0.0839345,-0.190849,-0.131748,0.256302,-0.00304413
-0.653883,0.0837004,0.247091,0.0935569,-0.204821,-0.213532,0.256302,-0.00304413
-0.436995,0.0598671,0.567485,0.130355,-0.234844,-0.276442,0.256302,-0.00304413
-0.300656,-0.304668,0.945049,0.151456,-0.20738,-0.395697,0.256302,-0.00304413
-0.385226,-0.795219,1.24264,0.17594,-0.157129,-0.535713,0.256302,-0.00304413
-0.374633,-0.992165,1.54626,0.188072,-0.108188,-0.535334,0.256302,-0.00304413
-0.0610374,-1.0321,1.92633,0.111879,0.0117495,-0.452866,0.256302,-0.00304413
0.448824,-1.02004,2.16495,0.0180764,0.118614,-0.362711,0.256302,-0.00304413
0.875113,-0.914549,2.10445,-0.00298468,0.105627,-0.253734,0.256302,-0.00304413
0.978371,-0.769355,1.79385,-0.00964375,0.0870597,-0.148507,0.256302,-0.00304413
0.713919,-0.58225,1.45366,-0.019233,0.067915,-0.0672842,0.256302,-0.00304413
0.331009,-0.413632,1.14411,-0.016317,0.0642374,-0.03847,0.256302,-0.00304413
0.0878105,-0.146034,0.861338,-0.019113,0.0637622,-0.00425208,0.256302,-0.00304413
0.0404766,0.270573,0.592204,-0.0101617,0.0826942,0.0345313,0.256302,-0.00304413
0.138518,0.677387,0.438436,0.0100712,0.0893695,0.0735831,0.256302,-0.00304413
0.244401,0.980035,0.432476,0.0389796,0.0794696,0.132779,0.256302,-0.00304413
0.220159,1.16106,0.513461,0.0583785,0.0676071,0.193149,0.256302,-0.00304413
0.124476,1.17069,0.627656,0.0689245,0.0528549,0.255405,0.256302,-0.00304413
-0.0116016,0.937562,0.729836,0.0641571,0.0307609,0.280668,0.256302,-0.00304413
-0.0850961,0.607961,0.703539,0.0594683,0.0333405,0.272553,0.256302,-0.00304413
-0.0024585,0.381939,0.646689,0.051158,0.033683,0.259879,0.256302,-0.00304413
0.11955,0.226396,0.724071,0.0495999,0.0116281,0.240233,0.256302,-0.00304413
0.234316,-0.00303837,0.782774,0.0580816,0.00568125,0.191818,0.256302,-0.00304413
0.335019,-0.156236,0.77219,0.068675,-0.000816971,0.158478,0.256302,-0.00304413
0.417039,-0.222891,0.752999,0.0680912,-0.00882548,0.134247,0.256302,-0.00304413
0.376818,-0.217086,0.71656,0.0591911,-0.0140876,0.118038,0.256302,-0.00304413
0.234203,-0.160781,0.589178,0.0655082,-0.0122527,0.105039,0.256302,-0.00304413
0.07768,-0.0576775,0.443629,0.0636199,-0.0109805,0.089873,0.256302,-0.00304413
0.0172181,0.12459,0.332981,0.0527939,0.000943094,0.0882784,0.256302,-0.00304413
0.0081974,0.364997,0.263623,0.0459728,0.0067659,0.105311,0.256302,-0.00304413
-0.0408763,0.584851,0.207243,0.0436186,0.00691278,0.126218,0.256302,-0.00304413
-0.166011,0.782987,0.153659,0.0407332,-0.00164877,0.152989,0.256302,-0.00304413
-0.326743,0.965533,0.0697998,0.0352602,-0.0063909,0.154014,0.256302,-0.00304413
-0.441083,1.14193,0.0126959,0.0347703,-0.0197746,0.15638,0.256302,-0.00304413
-0.544548,1.24573,0.023737,0.0303828,-0.0239232,0.144036,0.256302,-0.00304413
-0.592932,1.19029,0.0534998,0.0293598,-0.031551,0.101138,0.256302,-0.00304413
-0.56371,1.00812,0.0882219,0.0369208,-0.0455483,0.0419531,0.256302,-0.00304413
-0.50291,0.711915,0.140821,0.0417636,-0.0539569,-0.0338832,0.256302,-0.00304413
-0.466836,0.376181,0.210878,0.0561227,-0.0576512,-0.109779,0.256302,-0.00304413
-0.466836,0.376181,0.210878,0.0561227,-0.0576512,-0.109779,0.224609,-0.00263214
-0.42219,0.066342,0.326105,0.0485021,-0.0518399,-0.166054,0.224609,-0.00263214
-0.370721,-0.13891,0.441093,0.0614152,-0.0503947,-0.215577,0.224609,-0.00263214
-0.410121,-0.224351,0.631036,0.0617382,-0.0599476,-0.237131,0.224609,-0.00263214
-0.757897,-0.26084,0.814368,0.0409469,-0.0614936,-0.282011,0.224609,-0.00263214
-1.18279,-0.53615,0.663344,0.0419021,-0.017591,-0.426537,0.224609,-0.00263214
-1.16825,-0.856312,0.297598,0.0534754,-0.0071829,-0.525817,0.224609,-0.00263214
-0.703146,-1.07448,-0.0281679,0.0422439,0.0469165,-0.534845,0.224609,-0.00263214
-0.226363,-0.924527,-0.108603,0.0411494,0.0718919,-0.440447,0.224609,-0.00263214
0.0408327,-0.382278,0.0839997,0.0189185,0.0747144,-0.31556,0.224609,-0.00263214
0.196602,0.206088,0.323344,-0.0230625,0.081875,-0.220911,0.224609,-0.00263214
0.39798,0.404262,0.34234,-0.0406886,0.0660681,-0.187452,0.224609,-0.00263214
0.608641,0.158232,0.152777,-0.0485668,0.0509861,-0.162142,0.224609,-0.00263214
0.72171,-0.231525,-0.0482156,-0.0626607,0.046555,-0.106061,0.224609,-0.00263214
0.709577,-0.443567,-0.124233,-0.098364,0.0650538,-0.0241952,0.224609,-0.00263214
0.66313,-0.481821,-0.165297,-0.110044,0.071413,0.0240104,0.224609,-0.00263214
0.652606,-0.324135,-0.260063,-0.114539,0.0799822,0.0672426,0.224609,-0.00263214
0.722986,-0.0411078,-0.355297,-0.119317,0.0761931,0.113824,0.224609,-0.00263214
0.803169,0.222898,-0.418499,-0.114574,0.0648417,0.176881,0.224609,-0.00263214
0.775394,0.427998,-0.474157,-0.101967,0.0426513,0.256058,0.224609,-0.00263214
0.572495,0.484562,-0.590502,-0.0917414,0.0271775,0.310975,0.224609,-0.00263214
0.278551,0.336055,-0.786769,-0.0846356,0.0193781,0.34928,0.224609,-0.00263214
-0.0100672,0.0851384,-1.03,-0.0644148,0.048281,0.342092,0.224609,-0.00263214
-0.0787692,0.00609667,-1.10024,-0.0534794,0.0811338,0.344806,0.224609,-0.00263214
0.0874867,0.0898086,-0.896341,-0.0470791,0.0917851,0.334172,0.224609,-0.00263214
0.267456,0.272136,-0.603145,-0.0399096,0.0964903,0.331397,0.224609,-0.00263214
0.239206,0.523274,-0.401058,-0.026312,0.0741075,0.338105,0.224609,-0.00263214
-0.0177506,0.689542,-0.34507,-0.0325542,0.0586582,0.29913,0.224609,-0.00263214
-0.38888,0.759773,-0.438016,-0.0433838,0.0474275,0.255896,0.224609,-0.00263214
-0.716769,0.776362,-0.677094,-0.0273949,0.041159,0.212985,0.224609,-0.00263214
-0.894295,0.814549,-0.922135,-0.0147428,0.0451086,0.183314,0.224609,-0.00263214
-0.934742,0.767249,-1.01078,0.0169455,0.0412429,0.123059,0.224609,-0.00263214
-0.865902,0.58661,-0.878719,0.0356871,0.0408756,0.0684581,0.224609,-0.00263214
-0.662585,0.358656,-0.539404,0.0217594,0.0408492,0.0431257,0.224609,-0.00263214
-0.395298,0.112877,-0.117162,0.0141922,0.0284011,0.0164483,0.224609,-0.00263214
-0.128892,-0.0978624,0.278052,-0.0020147,-0.00775027,-0.00200206,0.224609,-0.00263214
-0.0464158,-0.25319,0.448357,-0.0191012,-0.0432074,-0.0227299,0.224609,-0.00263214
-0.156018,-0.375621,0.368553,-0.044629,-0.0474995,-0.0479203,0.224609,-0.00263214
-0.264214,-0.456157,0.147228,-0.0585967,-0.0527895,-0.0751067,0.224609,-0.00263214
-0.269226,-0.312724,-0.0844734,-0.0620172,-0.0613305,-0.0515212,0.224609,-0.00263214
-0.261699,0.0577449,-0.191204,-0.054494,-0.0657972,-0.00259024,0.224609,-0.00263214
-0.301445,0.527803,-0.158695,-0.0274027,-0.0710257,0.0467023,0.224609,-0.00263214
-0.388222,0.870364,-0.0664289,0.0136814,-0.0859258,0.0452929,0.224609,-0.00263214
-0.424063,0.995346,0.082843,0.0603373,-0.133991,0.0196808,0.224609,-0.00263214
-0.496402,0.736457,0.24095,0.108212,-0.174141,-0.0635687,0.224609,-0.00263214
-0.529069,0.175127,0.384501,0.137159,-0.183967,-0.163558,0.224609,-0.00263214
-0.352539,-0.509367,0.589805,0.13481,-0.174189,-0.264675,0.224609,-0.00263214
-0.00159059,-1.3943,0.743866,0.0794574,-0.117734,-0.367994,0.224609,-0.00263214
0.0430182,-2.24775,0.548793,0.0559601,-0.0482651,-0.478713,0.224609,-0.00263214
0.0430182,-2.24775,0.548793,0.0559601,-0.0482651,-0.478713,0.182312,-0.00215912
-0.231962,-2.6156,0.129545,0.0464368,-0.0422398,-0.538922,0.182312,-0.00215912
-0.364632,-2.67381,-0.245389,0.0174725,0.02002,-0.575665,0.182312,-0.00215912
-0.122164,-2.67585,-0.397947,-0.00608559,0.118337,-0.542351,0.182312,-0.00215912
0.382868,-2.50635,-0.257388,-0.018243,0.165455,-0.39876,0.182312,-0.00215912
0.945796,-1.83491,0.0494939,-0.0332547,0.160697,-0.215326,0.182312,-0.00215912
1.22825,-0.810774,0.279781,-0.0381435,0.128031,-0.0367562,0.182312,-0.00215912
1.03121,-0.0124082,0.318443,-0.0153874,0.085053,0.0557647,0.182312,-0.00215912
0.580463,0.22499,0.223785,0.0170989,0.0314114,0.0490905,0.182312,-0.00215912
0.213836,0.198595,0.0287203,0.0356361,0.00439329,0.0326406,0.182312,-0.00215912
0.125296,0.0888995,-0.171799,0.0433729,0.00106709,0.00270808,0.182312,-0.00215912
0.248745,0.0449022,-0.276464,0.0479621,0.00579464,-0.0132864,0.182312,-0.00215912
0.400899,0.143927,-0.27558,0.0684948,0.00381158,0.00330639,0.182312,-0.00215912
0.454722,0.315666,-0.17917,0.0892225,-0.0125836,0.0373641,0.182312,-0.00215912
0.444613,0.394173,-0.0830463,0.10228,-0.0118118,0.0616408,0.182312,-0.00215912
0.459532,0.409769,-0.0414845,0.111284,-0.00797877,0.10262,0.182312,-0.00215912
0.517793,0.482322,-0.00853484,0.117141,-0.013428,0.171951,0.182312,-0.00215912
0.507179,0.617607,0.0373547,0.117268,-0.0270903,0.258749,0.182312,-0.00215912
0.365887,0.712985,0.0791909,0.111081,-0.0368985,0.338301,0.182312,-0.00215912
0.153605,0.743697,0.0792097,0.105781,-0.050642,0.407837,0.182312,-0.00215912
-0.0644346,0.714899,0.0704581,0.102152,-0.0602029,0.455765,0.182312,-0.00215912
-0.282768,0.546601,0.0967567,0.107482,-0.0870873,0.469795,0.182312,-0.00215912
-0.56068,0.258199,0.100487,0.116348,-0.106054,0.446041,0.182312,-0.00215912
-0.846011,-0.047898,0.0123412,0.156394,-0.0913107,0.331469,0.182312,-0.00215912
-0.707998,-0.216685,0.010329,0.163694,-0.0725222,0.189237,0.182312,-0.00215912
-0.0785456,-0.100619,0.127245,0.169842,-0.0478,0.108157,0.182312,-0.00215912
0.346579,0.0879165,0.226794,0.176348,-0.01813,0.0222731,0.182312,-0.00215912
0.193674,0.286378,0.247112,0.193626,0.0040489,-0.0270766,0.182312,-0.00215912
-0.169438,0.552717,0.327821,0.205761,-0.0304265,-0.0423695,0.182312,-0.00215912
-0.353738,0.844368,0.464765,0.203771,-0.0546641,-0.0505725,0.182312,-0.00215912
-0.211789,0.999054,0.579008,0.196632,-0.0530531,-0.0523317,0.182312,-0.00215912
0.102841,0.931664,0.66767,0.198971,-0.0663786,-0.050356,0.182312,-0.00215912
0.362404,0.72519,0.76079,0.200077,-0.0996525,-0.00336474,0.182312,-0.00215912
0.31379,0.473167,0.873504,0.197325,-0.131959,0.041073,0.182312,-0.00215912
-0.00155126,0.241145,0.958693,0.182167,-0.142924,0.0428742,0.182312,-0.00215912
-0.365815,0.0872727,0.996055,0.168954,-0.122851,-0.00400245,0.182312,-0.00215912
-0.529703,0.142122,1.08579,0.134326,-0.0815654,-0.0661904,0.182312,-0.00215912
-0.303549,0.3041,1.37219,0.0992977,-0.024453,-0.141632,0.182312,-0.00215912
0.192762,0.415451,1.74701,0.0861889,-0.00159647,-0.204167,0.182312,-0.00215912
0.659231,0.359279,1.79523,0.0787546,0.00949952,-0.215921,0.182312,-0.00215912
0.809198,0.0871333,1.47618,0.0699846,0.00498411,-0.219833,0.182312,-0.00215912
0.709701,-0.112581,1.10126,0.050662,-0.0138978,-0.169171,0.182312,-0.00215912
0.522631,-0.0581243,0.853882,0.0275434,-0.0445314,-0.0818217,0.182312,-0.00215912
0.154193,0.103114,0.590135,0.00708191,-0.0202309,-0.0459626,0.182312,-0.00215912
-0.180565,0.196379,0.31982,-0.0190696,0.00522518,-0.0444251,0.182312,-0.00215912
-0.307317,0.255793,0.19824,-0.0447698,0.0183968,-0.00965387,0.182312,-0.00215912
-0.385899,0.234584,0.23664,-0.0634078,0.00513913,0.0402819,0.182312,-0.00215912
-0.528701,0.0742473,0.279057,-0.0557431,-0.0177167,0.062754,0.182312,-0.00215912
-0.618114,-0.166584,0.246481,-0.0370862,-0.00190672,0.0671162,0.182312,-0.00215912
-0.618114,-0.166584,0.246481,-0.0370862,-0.00190672,0.0671162,0.158539,-0.00189209
-0.548914,-0.452569,0.232644,-0.0398685,0.0308196,0.0120437,0.158539,-0.00189209
-0.171843,-0.439306,0.263295,-0.0637031,0.0796118,0.00214392,0.158539,-0.00189209
0.27941,-0.0946088,0.297871,-0.0587456,0.113076,0.0220942,0.158539,-0.00189209
0.494906,0.261879,0.298539,-0.0138139,0.112767,0.0392399,0.158539,-0.00189209
0.45965,0.55083,0.285965,0.0195513,0.105826,0.0834212,0.158539,-0.00189209
0.363325,0.669888,0.260326,0.0469473,0.0845087,0.120366,0.158539,-0.00189209
0.302237,0.587916,0.242353,0.0687083,0.0687114,0.121672,0.158539,-0.00189209
0.318517,0.4747,0.300734,0.0578227,0.0592048,0.134982,0.158539,-0.00189209
0.361112,0.373275,0.370266,0.0468609,0.0483696,0.161492,0.158539,-0.00189209
0.302545,0.221036,0.394885,0.0404603,0.0482806,0.156411,0.158539,-0.00189209
0.251991,-0.0929988,0.387716,0.0533062,0.0515377,0.112304,0.158539,-0.00189209
0.296956,0.159325,0.352857,0.118379,0.0169617,0.0876212,0.158539,-0.00189209
0.38471,0.178378,0.459249,0.0513821,0.0806285,0.0451747,0.158539,-0.00189209
0.497392,0.255785,0.750407,-0.00117459,0.0887022,0.0242307,0.158539,-0.00189209
0.438565,0.438684,1.06516,-0.045282,0.0325855,0.0285906,0.158539,-0.00189209
0.12701,0.705903,1.23395,-0.0598971,0.0375061,0.0094521,0.158539,-0.00189209
-0.212471,0.840318,1.35284,-0.0851778,0.037892,0.030605,0.158539,-0.00189209
-0.26487,0.896979,1.37097,-0.0786523,-0.000475109,0.0648253,0.158539,-0.00189209
-0.154953,0.369479,1.22614,-0.0360098,0.0227842,0.0609913,0.158539,-0.00189209
-0.22327,0.441426,1.07273,-0.0709082,-0.0717586,0.0170779,0.158539,-0.00189209
-0.283266,0.761629,0.969877,-0.120662,-0.0429771,-0.0407529,0.158539,-0.00189209
-0.172899,0.787668,1.01924,-0.143657,-0.0353605,-0.00520134,0.158539,-0.00189209
-0.0684536,0.109772,1.0898,-0.0759315,-0.0173023,-0.0924475,0.158539,-0.00189209
