rotationRate_x,rotationRate_y,rotationRate_z,acceleration_x,acceleration_y,acceleration_z,relativeAltitude
-0.324078,-0.398135,0.143048,-0.0420742,-0.0395719,-0.068683,5.7444
-0.332745,-0.365945,0.0679237,-0.041056,-0.0369369,-0.152955,5.7444
-0.230683,-0.157381,0.039945,-0.0193156,-0.0165944,-0.197686,5.7444
-0.0975332,0.0640529,0.120225,0.0132385,0.000988081,-0.156947,5.7444
0.0581294,0.19098,0.208736,0.0135225,-0.00577573,-0.0859626,5.7444
0.194202,0.149543,0.214774,-0.013509,-0.0171164,-0.00519139,5.7444
0.275321,0.0295128,0.180014,-0.021874,-0.0213285,0.0591665,5.7444
0.274966,-0.103557,0.135477,-0.0223449,-0.0108324,0.106468,5.7444
0.215793,-0.204507,0.0991622,-0.0340126,0.00246228,0.120991,5.7444
0.156197,-0.273254,0.0440029,-0.0633103,0.0165228,0.109557,5.7444
0.146182,-0.257979,-0.0457002,-0.105427,0.0288989,0.0705966,5.7444
0.185914,-0.203133,-0.154005,-0.12144,0.0406726,0.0332737,5.7444
0.185489,-0.123055,-0.277791,-0.121502,0.0553417,0.036336,5.7444
0.0146487,-0.0451747,-0.409621,-0.105599,0.0712466,0.0653149,5.7444
-0.254718,-0.0691725,-0.50254,-0.0805592,0.0942359,0.0747979,5.7444
-0.497919,-0.258769,-0.550751,-0.0563135,0.115911,0.0491821,5.7444
-0.557724,-0.351884,-0.480027,-0.000984538,0.123953,-0.0532796,5.7444
-0.406941,-0.267785,-0.288544,0.0507442,0.129899,-0.148857,5.7444
-0.161071,-0.0669184,-0.0270104,0.0901677,0.117512,-0.174043,5.7444
-0.0108994,0.109829,0.195997,0.0792705,0.0910336,-0.110357,5.7444
-0.0271524,0.194202,0.310791,0.0210797,0.0502884,-0.000772357,5.7444
-0.109108,0.228889,0.305561,-0.0155108,-0.00857669,0.073955,5.7444
-0.150285,0.241358,0.268039,-0.0177771,-0.0469967,0.102696,5.7444
-0.140649,0.277378,0.23098,-0.020846,-0.0629832,0.126365,5.7444
-0.1577,0.237907,0.202456,0.00186381,-0.0861177,0.163294,5.7444
-0.200506,0.09406,0.17653,0.0216107,-0.0975414,0.195125,5.7444
-0.249288,-0.0907423,0.121991,0.0340276,-0.111923,0.190541,5.7444
-0.336322,-0.270701,0.0466741,0.035701,-0.110397,0.174045,5.7444
-0.421328,-0.327683,0.00158704,0.0321727,-0.10078,0.124195,5.7444
-0.426668,-0.268055,-0.014968,0.0490628,-0.0971678,0.0482675,5.7444
-0.397939,-0.264398,-0.00397266,0.0673781,-0.0890991,0.00929707,5.7444
-0.353336,-0.243762,0.0534279,0.0878501,-0.0892859,-0.0345759,5.7444
-0.310916,-0.200131,0.10129,0.0659636,-0.0714302,-0.0797197,5.7444
-0.252623,-0.202618,0.133777,0.0600354,-0.0720462,-0.119115,5.7444
-0.189826,-0.172273,0.183549,0.0618405,-0.0733773,-0.160063,5.7444
-0.123812,-0.0665945,0.234347,0.0417055,-0.0701706,-0.201403,5.7444
-0.0749986,0.0502391,0.252632,0.00551538,-0.0782358,-0.221805,5.7444
-0.1006,0.104059,0.22697,-0.0293348,-0.089419,-0.216229,5.7444
-0.162802,0.178336,0.161832,-0.0611619,-0.100272,-0.231037,5.7444
-0.229405,0.29763,6.18012e-05,-0.109776,-0.105656,-0.255211,5.7444
-0.352794,0.353874,-0.230163,-0.127003,-0.117141,-0.260099,5.7444
-0.520781,0.227164,-0.426562,-0.103655,-0.0945795,-0.259151,5.7444
-0.607153,0.111608,-0.529464,-0.0680912,-0.0520575,-0.307223,5.7444
-0.51925,0.119746,-0.491909,-0.0154395,-0.00174619,-0.368965,5.7444
-0.249555,0.168987,-0.300613,0.0545616,0.0372227,-0.373475,5.7444
0.0688716,0.364998,-0.0120835,0.10143,0.0621203,-0.316405,5.7444
0.279668,0.632154,0.239639,0.088584,0.0724965,-0.192502,5.7444
0.281783,0.688092,0.396086,0.0364882,0.0691854,-0.0363647,5.7444
0.220698,0.438645,0.462228,-0.0190247,0.048385,0.0575117,5.7444
0.192987,0.0421339,0.399651,-0.0730427,0.0368966,0.070774,5.7444
0.179941,-0.19172,0.217846,-0.113459,0.0255364,0.0299737,5.7444
0.139701,-0.0970031,0.0728462,-0.113171,0.0428909,-0.0272859,5.7444
0.139701,-0.0970031,0.0728462,-0.113171,0.0428909,-0.0272859,0
0.132097,0.162757,0.0269091,-0.089177,0.0820741,-0.0489677,0
0.214745,0.327323,0.0743165,-0.0488493,0.106064,-0.0287796,0
0.338815,0.341504,0.146539,-0.0398736,0.110932,0.0300918,0
0.465256,0.363801,0.168992,-0.0455786,0.0926201,0.102272,0
0.518233,0.387662,0.149979,-0.0548475,0.0792112,0.191,0
0.474674,0.396322,0.139219,-0.0507498,0.0730269,0.288392,0
0.3862,0.354135,0.135588,-0.0327075,0.0546267,0.345638,0
0.31656,0.261967,0.111975,-0.0420744,0.0402188,0.366835,0
0.275105,0.169569,0.0395755,-0.050556,0.0290104,0.36388,0
0.170569,0.00521175,-0.04724,-0.0435641,0.0274177,0.378016,0
0.0626644,-0.0782098,-0.0943287,-0.00851423,0.0270389,0.358005,0
-0.0207629,-0.110473,-0.138491,2.59727e-05,0.0414258,0.310777,0
-0.064526,-0.1075,-0.152173,0.0159347,0.0467637,0.250068,0
-0.121097,-0.138176,-0.145664,0.0266025,0.0584806,0.208837,0
-0.163587,-0.145044,-0.149855,0.0375102,0.051084,0.158868,0
-0.202981,-0.122235,-0.176938,0.0463387,0.0368739,0.10263,0
-0.279533,-0.15384,-0.211399,0.0477857,0.0382878,0.0694751,0
-0.354267,-0.138018,-0.18495,0.0691456,0.0363584,0.0135327,0
-0.36049,-0.084086,-0.127794,0.0629744,0.0540046,-0.0594141,0
-0.368352,-0.0951845,-0.0867766,0.0459324,0.052004,-0.105517,0
-0.372392,-0.106122,-0.0533541,0.0427054,0.0244198,-0.157802,0
-0.366777,-0.106094,-0.0564995,0.0243487,0.0148302,-0.204129,0
-0.418897,-0.156025,-0.041802,0.0143374,0.012252,-0.221858,0
-0.518334,-0.293001,-0.0293738,-0.000471957,0.00305905,-0.244997,0
-0.628536,-0.492621,-0.0701718,-0.0336685,-0.0163412,-0.301421,0
-0.72383,-0.701573,-0.170097,-0.0671514,-0.0409052,-0.388135,0
-0.743883,-0.72834,-0.292872,-0.0898607,-0.0661261,-0.502581,0
-0.673966,-0.556084,-0.43055,-0.111723,-0.064527,-0.580911,0
-0.573196,-0.264689,-0.537721,-0.0959643,-0.0535737,-0.579074,0
-0.437949,-0.0307328,-0.537564,-0.0419041,-0.0423972,-0.499436,0
-0.163728,0.172018,-0.453616,-0.00490306,-0.0313915,-0.405237,0
0.204307,0.332033,-0.32211,-0.00579787,-0.00869221,-0.27851,0
0.510529,0.353907,-0.195837,-0.0445901,0.0266527,-0.112519,0
0.681583,0.178061,-0.105541,-0.0900082,0.0458562,0.0479335,0
0.741584,-0.168884,-0.0991664,-0.13361,0.0485889,0.143655,0
0.720286,-0.478258,-0.205023,-0.19495,0.0456465,0.169507,0
0.634218,-0.589474,-0.445825,-0.272312,0.0544141,0.149128,0
0.5454,-0.453196,-0.769569,-0.292558,0.0552875,0.115841,0
0.445499,-0.143261,-1.06337,-0.250122,0.0754686,0.122695,0
0.332903,0.0622358,-1.17795,-0.155958,0.112063,0.191287,0
0.296853,0.11807,-1.12176,-0.0705215,0.129763,0.248179,0
0.398626,0.0974956,-1.03516,-0.0300236,0.12471,0.279565,0
0.530412,0.0182745,-0.964951,-0.0262249,0.117782,0.32156,0
0.567764,-0.0753796,-0.956104,-0.0336976,0.110137,0.382509,0
0.470547,-0.164369,-0.983095,-0.0289386,0.10026,0.437503,0
0.281208,-0.250078,-1.02849,-0.0137806,0.0974691,0.462947,0
0.0898395,-0.340423,-1.03949,0.0147449,0.0907083,0.437549,0
-0.0277506,-0.480845,-0.991609,0.0445567,0.0866443,0.367341,0
-0.0910074,-0.600479,-0.940565,0.0469513,0.0810619,0.285669,0
-0.141996,-0.58954,-0.965302,0.0249431,0.0513829,0.196753,0
-0.287007,-0.497163,-1.0754,0.013831,0.0161528,0.146541,0
-0.287007,-0.497163,-1.0754,0.013831,0.0161528,0.146541,0.0819244
-0.57926,-0.439951,-1.13784,0.0510512,0.00300319,0.125394,0.0819244
-0.840067,-0.370433,-1.08662,0.0859976,0.0054744,0.0576659,0.0819244
-0.883205,-0.302164,-0.997666,0.100819,-0.010514,-0.0651177,0.0819244
-0.703184,-0.200872,-0.822566,0.15627,-0.0435845,-0.186633,0.0819244
-0.505755,-0.0996802,-0.597833,0.194885,-0.0667005,-0.233261,0.0819244
-0.418317,-0.01371,-0.346178,0.225508,-0.101181,-0.225421,0.0819244
-0.441001,-0.0129182,-0.177636,0.206245,-0.141357,-0.211187,0.0819244
-0.50401,-0.120074,-0.122037,0.158219,-0.183738,-0.251126,0.0819244
-0.549369,-0.200404,-0.151737,0.115275,-0.203434,-0.356194,0.0819244
-0.509348,-0.0179306,-0.196118,0.108174,-0.21398,-0.491019,0.0819244
-0.373892,0.324971,-0.144939,0.141099,-0.187247,-0.566345,0.0819244
-0.241701,0.533582,0.0546608,0.175999,-0.13608,-0.540246,0.0819244
-0.12913,0.526489,0.307596,0.183661,-0.102451,-0.478206,0.0819244
0.0665669,0.540627,0.488575,0.165545,-0.0840742,-0.447065,0.0819244
0.405574,0.764392,0.664804,0.148187,-0.0395147,-0.39105,0.0819244
0.726943,1.05987,0.904385,0.15975,0.0237564,-0.217555,0.0819244
0.858343,1.19868,1.19704,0.169528,0.0654889,0.0220027,0.0819244
0.822261,0.994692,1.43218,0.134548,0.0794738,0.218589,0.0819244
0.728368,0.440929,1.59475,0.111943,0.067717,0.319186,0.0819244
0.66513,-0.135515,1.63686,0.0832117,0.0493381,0.309791,0.0819244
0.645186,-0.342089,1.57203,0.0358352,0.0607005,0.210759,0.0819244
0.609653,-0.203459,1.4653,0.00700852,0.0947265,0.13038,0.0819244
0.581424,0.0885525,1.37433,0.0181284,0.110367,0.0890622,0.0819244
0.582376,0.299957,1.3331,0.0496958,0.12965,0.105584,0.0819244
0.56667,0.276687,1.3686,0.0831344,0.152326,0.167144,0.0819244
0.558214,0.227415,1.41017,0.0942672,0.152666,0.207224,0.0819244
0.547205,0.206331,1.34607,0.0659072,0.141134,0.234572,0.0819244
0.415845,0.191159,1.21405,0.0496386,0.130134,0.275989,0.0819244
0.182185,0.127147,1.07127,0.0500732,0.129638,0.30112,0.0819244
0.00561395,0.0823711,0.963671,0.0724663,0.138132,0.257407,0.0819244
-0.0314013,0.169729,0.938691,0.0896317,0.16861,0.177368,0.0819244
-0.0108208,0.303229,0.954757,0.0859198,0.198045,0.141398,0.0819244
-0.0295,0.39974,0.976959,0.0846323,0.196449,0.157759,0.0819244
-0.137835,0.358623,0.981381,0.0901654,0.181412,0.208867,0.0819244
-0.299583,0.265106,0.957054,0.0769178,0.161738,0.224814,0.0819244
-0.443014,0.198562,0.894892,0.0653909,0.137452,0.185427,0.0819244
-0.551402,0.188007,0.850638,0.0713387,0.120936,0.125371,0.0819244
-0.63005,0.190754,0.839097,0.0696749,0.112976,0.0595727,0.0819244
-0.697319,0.156882,0.839945,0.0710114,0.0953015,0.00112903,0.0819244
-0.746473,0.0736267,0.882974,0.0778996,0.0693948,-0.0594893,0.0819244
-0.779973,-0.0603242,0.926383,0.0535754,0.0551094,-0.124787,0.0819244
-0.810693,-0.294863,0.902971,0.0129365,0.0220862,-0.210391,0.0819244
-0.818991,-0.480944,0.797897,-0.0183405,-0.0292818,-0.344848,0.0819244
-0.710907,-0.406936,0.707545,-0.0268776,-0.0522981,-0.499151,0.0819244
-0.484847,-0.0969993,0.701297,-0.0241333,-0.0410011,-0.602993,0.0819244
-0.284954,0.107297,0.773587,-0.039147,-0.0224233,-0.574578,0.0819244
-0.153476,0.0998909,0.747819,-0.0868469,-0.0424007,-0.473847,0.0819244
-0.0957602,-0.0124499,0.530611,-0.15112,-0.078906,-0.388011,0.0819244
-0.0994497,-0.127584,0.256737,-0.166838,-0.0995685,-0.337058,0.0819244
-0.0181583,-0.0746618,0.0811305,-0.133694,-0.0742466,-0.349441,0.0819244
-0.0181583,-0.0746618,0.0811305,-0.133694,-0.0742466,-0.349441,0.161194
0.219545,0.172879,0.046184,-0.109571,5.84126e-05,-0.370686,0.161194
0.528425,0.474861,0.0988106,-0.114982,0.067528,-0.312246,0.161194
0.784833,0.601081,0.152268,-0.151143,0.115846,-0.166793,0.161194
0.906017,0.508567,0.148426,-0.202873,0.141414,0.00434893,0.161194
0.908644,0.276428,0.0949592,-0.241753,0.148791,0.141599,0.161194
0.792182,-0.0494549,-0.0365928,-0.291015,0.159055,0.231102,0.161194
0.592628,-0.316549,-0.232634,-0.322461,0.153498,0.266585,0.161194
0.405499,-0.391148,-0.456301,-0.320119,0.143618,0.241239,0.161194
0.290953,-0.283792,-0.635231,-0.284476,0.150165,0.20057,0.161194
0.248067,-0.165158,-0.699947,-0.220143,0.168767,0.204657,0.161194
0.265447,-0.192116,-0.663324,-0.144473,0.166569,0.237406,0.161194
0.320363,-0.358024,-0.578595,-0.0840351,0.153634,0.272368,0.161194
0.336347,-0.508278,-0.503408,-0.0514687,0.129258,0.297213,0.161194
0.280711,-0.618563,-0.49485,-0.031241,0.0911026,0.302279,0.161194
0.19874,-0.64749,-0.478013,0.00624539,0.0661989,0.270954,0.161194
0.129462,-0.632793,-0.449308,0.0287861,0.0608708,0.22891,0.161194
0.072649,-0.628719,-0.438555,0.043337,0.0385897,0.18102,0.161194
0.0403513,-0.589442,-0.456839,0.0468626,0.0199912,0.125377,0.161194
0.00709161,-0.487681,-0.485822,0.0443214,0.0182332,0.0699537,0.161194
0.00694248,-0.343882,-0.501525,0.0556358,0.0093662,0.0228277,0.161194
-0.000100174,-0.232857,-0.49727,0.051787,0.0156568,0.0156887,0.161194
-0.051336,-0.181622,-0.47095,0.0494055,0.00821038,0.036248,0.161194
-0.116633,-0.147475,-0.485073,0.0494454,-0.00958994,0.0504328,0.161194
-0.197836,-0.0610382,-0.489531,0.0487212,-0.015064,0.0526969,0.161194
-0.256545,-0.0174807,-0.447966,0.0601933,-0.0110441,0.0577893,0.161194
-0.235261,-0.0992651,-0.350507,0.0769523,-0.0098772,0.0524068,0.161194
-0.147904,-0.215414,-0.221678,0.0825122,-0.00526159,0.0450573,0.161194
-0.0738958,-0.20669,-0.102276,0.0707127,-0.00454152,0.0369723,0.161194
-0.0643567,-0.0613877,-0.0184635,0.0410213,-0.00518674,0.0517949,0.161194
-0.116018,0.0555432,0.00876229,0.00579319,-0.0163785,0.0981674,0.161194
-0.182968,0.0965404,0.0120382,-0.0121518,-0.0360049,0.139499,0.161194
-0.242818,0.0903779,-0.0155648,-0.0376228,-0.0445796,0.157044,0.161194
-0.307308,0.0573138,-0.0645064,-0.0441884,-0.0675272,0.166042,0.161194
-0.387787,0.0417459,-0.109987,-0.0370375,-0.0841521,0.155645,0.161194
-0.473267,0.0154047,-0.144737,-0.0256322,-0.0920105,0.12914,0.161194
-0.477446,0.0315046,-0.144821,-0.000767343,-0.101641,0.0741439,0.161194
-0.453944,0.0901592,-0.123801,0.0229876,-0.107927,0.0267591,0.161194
-0.448819,0.1259,-0.0797412,0.0559721,-0.129468,0.00277799,0.161194
-0.441738,0.0961784,-0.0392959,0.0724525,-0.14962,-0.0326963,0.161194
-0.408585,0.00926157,-0.00839717,0.0812626,-0.167581,-0.0983062,0.161194
-0.327331,0.0127771,0.0319251,0.0870802,-0.18159,-0.193006,0.161194
-0.209901,0.17744,0.0634702,0.0782378,-0.179133,-0.284442,0.161194
-0.11988,0.286463,0.075065,0.0567473,-0.16954,-0.330797,0.161194
-0.0758766,0.326402,0.0140943,0.0172311,-0.171866,-0.360501,0.161194
-0.0512238,0.402601,-0.100121,-0.00251365,-0.164374,-0.394727,0.161194
-0.0549499,0.48572,-0.189015,0.016946,-0.139956,-0.407153,0.161194
-0.10172,0.49481,-0.231315,0.0446946,-0.10071,-0.400738,0.161194
-0.110306,0.476883,-0.205655,0.0809592,-0.0701423,-0.417923,0.161194
-0.00992768,0.464534,-0.123582,0.0964861,-0.0262066,-0.450461,0.161194
0.184949,0.581153,0.0369352,0.110536,0.0303321,-0.453043,0.161194
0.477134,0.853159,0.322114,0.127966,0.0848302,-0.393848,0.161194
0.477134,0.853159,0.322114,0.127966,0.0848302,-0.393848,0.332932
0.804992,1.10184,0.645962,0.112428,0.13408,-0.238988,0.332932
0.959592,1.14269,0.87201,0.0681446,0.149702,-0.00534195,0.332932
0.91617,0.952888,1.00596,0.0190025,0.135831,0.19713,0.332932
0.754554,0.562405,1.01791,-0.0244274,0.115369,0.321522,0.332932
0.555677,0.164154,0.920326,-0.0540655,0.0872446,0.352688,0.332932
0.365141,-0.0241732,0.767832,-0.0581785,0.0776393,0.31442,0.332932
0.250993,0.033589,0.657511,-0.0424465,0.0977071,0.247667,0.332932
0.203304,0.178756,0.621607,-0.00358438,0.124861,0.215195,0.332932
0.181993,0.288027,0.668524,0.0355941,0.145265,0.225413,0.332932
0.171557,0.30441,0.738247,0.0440275,0.155488,0.254585,0.332932
0.169722,0.228015,0.776206,0.0430926,0.146754,0.278174,0.332932
0.133274,0.202011,0.783699,0.0306766,0.141703,0.289686,0.332932
0.0350979,0.192054,0.755318,0.0198206,0.136477,0.302964,0.332932
-0.112201,0.123749,0.745563,0.0327721,0.126889,0.309999,0.332932
-0.222718,0.0439032,0.749529,0.0408693,0.117401,0.277883,0.332932
-0.338886,-0.0426777,0.75142,0.0264866,0.117335,0.238225,0.332932
-0.452751,-0.143101,0.716265,0.0110879,0.0900729,0.187063,0.332932
-0.5284,-0.197779,0.66562,0.017526,0.0566963,0.121729,0.332932
-0.57229,-0.156575,0.62517,0.0217006,0.0296008,0.0512944,0.332932
-0.566998,-0.0250663,0.581315,0.0161879,0.0063284,-0.00575638,0.332932
-0.553162,0.104849,0.522689,0.0205587,-0.0209437,-0.0241534,0.332932
-0.551472,0.15318,0.480862,0.0443021,-0.0499387,-0.00859898,0.332932
-0.536918,0.173185,0.496908,0.0623134,-0.049862,0.00594914,0.332932
-0.51852,0.165357,0.534535,0.0717903,-0.0490518,0.0132415,0.332932
-0.516668,0.153197,0.574648,0.0807039,-0.0626604,0.0199061,0.332932
-0.525139,0.147593,0.606682,0.0744404,-0.0678106,0.0177015,0.332932
-0.539106,0.134965,0.63306,0.0661232,-0.0710768,0.00813323,0.332932
-0.554363,0.0660376,0.658669,0.0707263,-0.0748405,-0.00197953,0.332932
-0.576606,-0.0716112,0.681258,0.073621,-0.0842175,-0.0300135,0.332932
-0.566818,-0.18948,0.695843,0.0757565,-0.089082,-0.0983666,0.332932
-0.520893,-0.211217,0.741589,0.0841581,-0.0854632,-0.189557,0.332932
-0.475986,-0.228959,0.773856,0.083471,-0.0829681,-0.246037,0.332932
-0.49849,-0.337934,0.766019,0.0637908,-0.0837125,-0.279053,0.332932
-0.539107,-0.527213,0.706901,0.0459611,-0.0919901,-0.33275,0.332932
-0.545821,-0.705023,0.619136,0.0500331,-0.115705,-0.42656,0.332932
-0.459264,-0.682323,0.541514,0.0534857,-0.117737,-0.539898,0.332932
-0.324468,-0.416109,0.499029,0.0516215,-0.0904868,-0.611349,0.332932
-0.202485,-0.139824,0.47093,0.0456501,-0.064436,-0.59443,0.332932
-0.0911983,-0.0817021,0.418167,0.0379974,-0.0502131,-0.519608,0.332932
0.0896875,-0.0708588,0.368138,0.0377413,-0.0405384,-0.471595,0.332932
0.354585,0.131475,0.352855,0.0172834,0.0102807,-0.44527,0.332932
0.706183,0.479546,0.427995,0.0160282,0.0725028,-0.354496,0.332932
1.00008,0.70139,0.586313,-0.00782236,0.144729,-0.173809,0.332932
1.19664,0.672619,0.728947,-0.0580667,0.176847,0.028577,0.332932
1.24906,0.359208,0.767816,-0.126889,0.179976,0.204868,0.332932
1.15357,-0.0296407,0.653754,-0.198541,0.155123,0.30446,0.332932
0.969277,-0.275161,0.368721,-0.254139,0.127708,0.330249,0.332932
0.757051,-0.296734,0.0116659,-0.254144,0.110176,0.312526,0.332932
0.595599,-0.144552,-0.229399,-0.178717,0.125073,0.278495,0.332932
0.515137,0.0533548,-0.263176,-0.0809198,0.171733,0.272663,0.332932
0.515137,0.0533548,-0.263176,-0.0809198,0.171733,0.272663,0.531113
0.506446,0.123019,-0.158294,-0.0117841,0.197275,0.296255,0.531113
0.556057,0.0932551,-0.0191222,0.0284673,0.184416,0.325943,0.531113
0.586784,0.0295892,0.0706328,0.025541,0.167236,0.358811,0.531113
0.531256,-0.00590484,0.0799482,0.00329954,0.145777,0.390639,0.531113
0.366169,-0.0282644,0.05479,-0.00662394,0.121121,0.411884,0.531113
0.171429,-0.0123707,0.0167679,-0.00758883,0.0972894,0.402019,0.531113
0.0144885,0.00870392,-0.0324271,0.00380018,0.0817686,0.372817,0.531113
-0.12143,-0.027915,-0.0448467,0.0286498,0.071352,0.344902,0.531113
-0.235425,-0.0471473,-0.0516357,0.0451069,0.0458624,0.290602,0.531113
-0.338844,-0.106981,-0.0308033,0.065278,0.0305552,0.234979,0.531113
-0.392794,-0.153219,0.0641805,0.094265,0.0161679,0.1631,0.531113
-0.407691,-0.142761,0.163689,0.0882786,0.00211762,0.0901342,0.531113
-0.426301,-0.0235157,0.201914,0.0680338,-0.0314473,0.0319422,0.531113
-0.476859,0.140642,0.160039,0.0365485,-0.0702427,-0.00925231,0.531113
-0.551936,0.253622,0.11617,0.0312996,-0.0970943,-0.0202356,0.531113
-0.571075,0.293285,0.139744,0.0431985,-0.110459,-0.0311643,0.531113
-0.498875,0.275011,0.22236,0.0567668,-0.114229,-0.0479249,0.531113
-0.338267,0.258751,0.349308,0.0634272,-0.123062,-0.0619234,0.531113
-0.193998,0.323995,0.434687,0.0403112,-0.127243,-0.0393056,0.531113
-0.173973,0.386664,0.488463,0.018992,-0.138619,0.0268183,0.531113
-0.174273,0.391036,0.536735,0.0212423,-0.152624,0.0724433,0.531113
-0.151739,0.328985,0.568185,0.00548639,-0.142317,0.088504,0.531113
-0.107059,0.255217,0.605082,0.011688,-0.138109,0.0771649,0.531113
-0.0219863,0.214083,0.6454,0.0263042,-0.123707,0.044332,0.531113
0.0718223,0.184503,0.739566,0.0505793,-0.0979695,0.0150571,0.531113
0.181956,0.177476,0.895377,0.0814176,-0.0658206,-0.0233784,0.531113
0.280069,0.230125,1.02314,0.0924448,-0.0506147,-0.0561498,0.531113
0.240772,0.218907,1.09404,0.0967495,-0.0605457,-0.0512097,0.531113
0.128186,-0.00782371,1.13594,0.100383,-0.0742005,-0.0617343,0.531113
0.00928233,-0.440725,1.05066,0.0420106,-0.0734163,-0.150526,0.531113
-0.0419165,-0.654089,0.887024,-0.00166515,-0.0807892,-0.319048,0.531113
0.14353,-0.474401,0.777372,0.0150583,-0.0665548,-0.479276,0.531113
0.447121,0.103377,0.745967,0.0363174,0.00173014,-0.512557,0.531113
0.530887,0.678331,0.81721,0.0511708,0.0711174,-0.330706,0.531113
0.420232,0.985632,0.817098,0.0540493,0.0632155,-0.0905784,0.531113
0.330321,1.10668,0.785395,0.0609989,0.0493692,0.0859098,0.531113
0.250287,1.05772,0.830715,0.0691221,0.0938893,0.226628,0.531113
0.234879,0.872891,1.00689,0.114919,0.122017,0.312594,0.531113
0.266952,0.638799,1.22065,0.141018,0.147062,0.360606,0.531113
0.208714,0.347791,1.4414,0.147375,0.163063,0.401741,0.531113
0.0299392,-0.0381924,1.65195,0.165124,0.14266,0.412531,0.531113
-0.215225,-0.431115,1.77565,0.161717,0.125604,0.35865,0.531113
-0.457786,-0.711242,1.81685,0.137504,0.0981675,0.227419,0.531113
-0.581245,-0.85923,1.69498,0.0791805,0.0643539,0.0364971,0.531113
-0.522722,-0.853355,1.48627,0.053746,0.0351494,-0.178163,0.531113
-0.328966,-0.569422,1.31821,0.101456,0.0276592,-0.345677,0.531113
-0.120036,-0.0451592,1.32407,0.180376,0.0618624,-0.393517,0.531113
0.0156898,0.394513,1.46944,0.215924,0.110395,-0.303953,0.531113
0.0699227,0.504016,1.535,0.19348,0.0835646,-0.137069,0.531113
0.0393822,0.422777,1.43025,0.141457,0.0214222,-0.00364375,0.531113
-0.0367744,0.250975,1.27419,0.11681,-0.00840431,0.083594,0.531113
-0.12158,0.119378,1.10888,0.119051,-0.0155794,0.11871,0.531113
-0.210556,0.118203,1.01735,0.135228,-0.00226097,0.120038,0.531113
-0.280219,0.184362,0.996065,0.130101,0.0238432,0.103433,0.531113
-0.308682,0.186205,0.988513,0.116911,0.0228581,0.0955709,0.531113
-0.304519,0.125986,0.970183,0.0965926,0.00407904,0.0830491,0.531113
-0.273315,0.0892439,0.910372,0.0605073,-0.00662641,0.0595995,0.531113
-0.271359,0.108683,0.843566,0.0478318,-0.0223039,0.0424571,0.531113
-0.30369,0.153851,0.791102,0.048457,-0.043602,0.025076,0.531113
-0.310013,0.125666,0.766205,0.0500547,-0.0608038,-0.00224292,0.531113
-0.271504,-0.014063,0.770785,0.0593689,-0.0727409,-0.0465552,0.531113
-0.190688,-0.0735917,0.769606,0.0421115,-0.0785174,-0.121317,0.531113
-0.140627,-0.0510565,0.713728,0.0198834,-0.0981411,-0.179113,0.531113
-0.173273,-0.081177,0.636137,0.00260096,-0.109885,-0.208891,0.531113
-0.229588,-0.228472,0.576405,-0.016227,-0.109694,-0.257453,0.531113
-0.20471,-0.395169,0.497109,-0.0447579,-0.116999,-0.367093,0.531113
-0.134959,-0.429022,0.424402,-0.0452763,-0.119333,-0.467441,0.531113
-0.148757,-0.266614,0.354114,-0.0428248,-0.109534,-0.511191,0.531113
-0.283005,-0.0602896,0.274459,-0.0563255,-0.0876209,-0.499532,0.531113
-0.354339,-0.072218,0.19132,-0.0616699,-0.0814471,-0.481269,0.531113
-0.253431,-0.205668,0.103743,-0.05074,-0.073737,-0.488265,0.531113
-0.048421,-0.177695,0.0882344,-0.035508,-0.0320831,-0.49,0.531113
0.156771,0.0205702,0.103646,-0.0384248,0.0237891,-0.435683,0.531113
0.367361,0.327591,0.0945622,-0.0474169,0.0517246,-0.321744,0.531113
0.571141,0.610446,0.0331412,-0.0851694,0.0867804,-0.174323,0.531113
0.677251,0.693201,-0.0042287,-0.114611,0.135831,0.0112506,0.531113
0.677251,0.693201,-0.0042287,-0.114611,0.135831,0.0112506,0.729279
0.691215,0.445567,-0.02361,-0.139378,0.161526,0.166756,0.729279
0.682377,-0.0302409,-0.0904585,-0.185636,0.181503,0.229053,0.729279
0.671689,-0.388042,-0.247633,-0.230503,0.186272,0.204993,0.729279
0.611929,-0.407613,-0.487935,-0.278635,0.216349,0.157449,0.729279
0.502439,-0.152253,-0.726354,-0.271364,0.242934,0.14189,0.729279
0.354972,0.0772463,-0.880051,-0.224727,0.262595,0.18572,0.729279
0.272415,0.207469,-0.918576,-0.160761,0.263283,0.24386,0.729279
0.25573,0.263481,-0.885484,-0.11572,0.256528,0.302382,0.729279
0.272315,0.286504,-0.828707,-0.0948913,0.229391,0.354064,0.729279
0.284743,0.211933,-0.79973,-0.0865645,0.197149,0.40679,0.729279
0.24708,0.0514081,-0.809778,-0.0812813,0.168286,0.453963,0.729279
0.19736,-0.199155,-0.818063,-0.0580964,0.140528,0.465961,0.729279
0.133387,-0.429024,-0.805449,-0.00856438,0.124064,0.435648,0.729279
0.0188171,-0.528246,-0.794433,0.0165408,0.113053,0.383749,0.729279
-0.131225,-0.552906,-0.749666,0.0531408,0.0885684,0.331427,0.729279
-0.292454,-0.603685,-0.693084,0.0816745,0.0613049,0.27354,0.729279
-0.454111,-0.621838,-0.700111,0.0682472,0.0342364,0.187377,0.729279
-0.591124,-0.53706,-0.774815,0.0426587,0.00425974,0.083984,0.729279
-0.734012,-0.40945,-0.884585,0.0413571,-0.0150433,-0.0207701,0.729279
-0.817744,-0.180075,-0.882473,0.0827041,-0.0160395,-0.111939,0.729279
-0.710683,0.0693098,-0.726656,0.13861,-0.00437661,-0.191732,0.729279
-0.374645,0.296586,-0.421093,0.19442,-0.00124608,-0.222618,0.729279
-0.129422,0.337536,-0.152388,0.181351,-0.0169402,-0.138894,0.729279
-0.0982535,0.239611,-0.00453878,0.140122,-0.0842055,-0.0326343,0.729279
-0.13435,0.0976802,0.00998756,0.096479,-0.138111,-0.00528651,0.729279
-0.126222,0.0407674,-0.0328265,0.0756492,-0.166312,-0.0600199,0.729279
-0.123779,0.12579,-0.0574639,0.0644786,-0.161717,-0.127298,0.729279
-0.188414,0.198645,-0.0452914,0.0729949,-0.151286,-0.164865,0.729279
-0.237571,0.214732,-0.0101143,0.0884209,-0.152794,-0.212584,0.729279
-0.266055,0.213439,-0.0428214,0.0522126,-0.150088,-0.281209,0.729279
-0.294953,0.22584,-0.083749,0.0570816,-0.154461,-0.337773,0.729279
-0.266984,0.269998,-0.0417342,0.0968132,-0.132791,-0.38436,0.729279
-0.125308,0.363212,0.135097,0.142503,-0.0823294,-0.409429,0.729279
0.059439,0.382052,0.425828,0.178138,-0.0280766,-0.377386,0.729279
0.245962,0.450725,0.706523,0.171769,0.0100916,-0.317491,0.729279
0.342888,0.676939,0.865806,0.11536,0.0240502,-0.229684,0.729279
0.387738,0.946038,0.953908,0.0870913,0.011352,-0.104418,0.729279
0.389713,0.997978,1.07505,0.075231,0.0437347,0.0426589,0.729279
0.426823,0.729422,1.27353,0.0911524,0.0638252,0.154758,0.729279
0.484822,0.23561,1.44669,0.0873076,0.073689,0.209162,0.729279
0.525,-0.155422,1.49662,0.0493917,0.061535,0.1815,0.729279
0.480863,-0.281637,1.41043,0.00572404,0.0589416,0.125005,0.729279
0.390636,-0.169475,1.29283,0.00739232,0.0684971,0.0703771,0.729279
0.355425,0.0144129,1.19159,0.0117836,0.098452,0.0293608,0.729279
0.432437,0.163959,1.14884,0.0260172,0.128495,0.0237381,0.729279
0.535797,0.222213,1.15185,0.0424989,0.151534,0.0771986,0.729279
0.570534,0.253344,1.16152,0.0441448,0.170834,0.164759,0.729279
0.516772,0.269266,1.11181,0.0180151,0.178159,0.248392,0.729279
0.415366,0.252807,1.01693,0.00405031,0.172823,0.306632,0.729279
0.284608,0.130711,0.941858,0.00956877,0.182793,0.341865,0.729279
0.156513,-0.0161249,0.911616,0.0274928,0.194714,0.337705,0.729279
0.0422754,-0.0686204,0.862165,0.0333024,0.19709,0.302695,0.729279
-0.116986,-0.0728165,0.761348,0.0258953,0.187075,0.277825,0.729279
-0.340682,-0.145591,0.651438,0.0315712,0.161106,0.257267,0.729279
-0.340682,-0.145591,0.651438,0.0315712,0.161106,0.257267,0.766281
-0.519203,-0.267415,0.569283,0.0519137,0.130008,0.190533,0.766281
-0.572678,-0.290128,0.557954,0.0771235,0.111366,0.0801544,0.766281
-0.551254,-0.221909,0.570094,0.0842121,0.0907034,-0.0158772,0.766281
-0.537198,-0.0970623,0.550924,0.0787196,0.0568177,-0.0853236,0.766281
-0.507181,0.0342771,0.532523,0.0891427,0.00946237,-0.126171,0.766281
-0.410649,0.23843,0.547799,0.100198,-0.0133037,-0.151705,0.766281
-0.323512,0.381105,0.604154,0.0927181,-0.0156216,-0.119335,0.766281
-0.280874,0.385027,0.64302,0.0799429,-0.0405514,-0.0612355,0.766281
-0.254999,0.303207,0.629368,0.052245,-0.0696853,-0.033305,0.766281
-0.262144,0.215916,0.575949,0.0261601,-0.0823178,-0.0345402,0.766281
-0.351983,0.0536565,0.545347,0.0280539,-0.088157,-0.0346618,0.766281
-0.487686,-0.25095,0.547401,0.0301128,-0.0887118,-0.0733829,0.766281
-0.546182,-0.553139,0.516328,-0.00588414,-0.0881033,-0.203006,0.766281
-0.522294,-0.732346,0.39813,-0.0647025,-0.091267,-0.38112,0.766281
-0.405521,-0.628705,0.283694,-0.082184,-0.088951,-0.550277,0.766281
-0.22099,-0.298704,0.243907,-0.0661458,-0.0677126,-0.648544,0.766281
-0.0914338,-0.0477879,0.251213,-0.064244,-0.0393957,-0.619648,0.766281
-0.0579373,-0.0470459,0.148935,-0.105857,-0.0446102,-0.51962,0.766281
-0.0875221,-0.155526,-0.130083,-0.147937,-0.0696877,-0.440465,0.766281
-0.127017,-0.159893,-0.367992,-0.134311,-0.0494861,-0.404149,0.766281
0.00430062,0.142732,-0.419791,-0.0896763,0.0150027,-0.420066,0.766281
0.342954,0.591343,-0.336118,-0.0657364,0.0774277,-0.367155,0.766281
0.686991,0.830677,-0.153182,-0.0650329,0.129675,-0.182604,0.766281
0.941748,0.797932,0.00400915,-0.118966,0.15829,0.0323915,0.766281
1.05954,0.465117,0.0298332,-0.196685,0.155006,0.224861,0.766281
1.01,-0.0251108,-0.0580676,-0.244525,0.138427,0.347167,0.766281
0.817371,-0.394975,-0.26929,-0.299549,0.139196,0.386631,0.766281
0.578322,-0.45599,-0.56063,-0.342047,0.150143,0.359105,0.766281
0.361419,-0.272546,-0.88299,-0.338251,0.166538,0.326578,0.766281
0.19226,-0.0984352,-1.11163,-0.266619,0.185298,0.324207,0.766281
0.131631,-0.0703559,-1.13782,-0.17057,0.214265,0.341914,0.766281
0.16746,-0.197608,-1.05321,-0.11117,0.228852,0.360521,0.766281
0.2644,-0.400654,-0.941526,-0.0821723,0.210118,0.358929,0.766281
0.329728,-0.58437,-0.904399,-0.0752199,0.180485,0.34799,0.766281
0.244437,-0.635667,-0.945817,-0.0912706,0.159191,0.33942,0.766281
0.0551769,-0.571299,-1.01097,-0.0871033,0.136646,0.313307,0.766281
-0.123732,-0.488446,-1.07456,-0.068921,0.118919,0.267004,0.766281
-0.244041,-0.451003,-1.11561,-0.0463981,0.100087,0.210722,0.766281
-0.291956,-0.413504,-1.14416,-0.0309225,0.0785756,0.151446,0.766281
-0.316031,-0.350171,-1.168,-0.0141938,0.059501,0.113934,0.766281
-0.409248,-0.349036,-1.20013,0.00531714,0.0357069,0.110364,0.766281
-0.539013,-0.375797,-1.24669,0.0223102,0.00522518,0.0908439,0.766281
-0.636425,-0.363291,-1.27387,0.0391205,-0.00919187,0.0406525,0.766281
-0.639031,-0.270959,-1.22574,0.067983,-0.00996478,-0.0278995,0.766281
-0.553254,-0.112255,-1.107,0.098889,-0.0114724,-0.0723003,0.766281
-0.398858,-0.0114526,-0.93339,0.12389,-0.0246611,-0.0742965,0.766281
-0.294797,0.0130332,-0.809199,0.112777,-0.0548022,-0.0336843,0.766281
-0.269344,-0.0187284,-0.726512,0.0954457,-0.0915705,0.00626928,0.766281
-0.233546,-0.113476,-0.65859,0.0846006,-0.115302,0.00707453,0.766281
-0.198727,-0.210225,-0.611797,0.0751522,-0.123821,-0.0102449,0.766281
-0.224122,-0.337332,-0.561716,0.0566805,-0.120549,-0.0493397,0.766281
-0.235531,-0.434667,-0.500147,0.0330514,-0.119166,-0.147017,0.766281
-0.231752,-0.405883,-0.468402,0.00556372,-0.110976,-0.260252,0.766281
-0.231752,-0.405883,-0.468402,0.00556372,-0.110976,-0.260252,0.959167
-0.250734,-0.217151,-0.469686,-0.0134946,-0.115207,-0.343811,0.959167
-0.221601,0.0874991,-0.532665,-0.0261197,-0.133164,-0.402204,0.959167
-0.194253,0.262679,-0.581698,-0.00604392,-0.13336,-0.381304,0.959167
-0.242822,0.217246,-0.52742,0.054453,-0.117805,-0.300775,0.959167
-0.374058,0.126991,-0.431688,0.095642,-0.108609,-0.247375,0.959167
-0.493047,0.191552,-0.354865,0.11552,-0.107935,-0.254796,0.959167
-0.44625,0.42582,-0.276621,0.149596,-0.0930997,-0.273454,0.959167
-0.258815,0.789754,-0.0951511,0.213139,-0.0635485,-0.238645,0.959167
-0.0767592,0.954693,0.201478,0.275084,-0.0251608,-0.0942995,0.959167
0.105686,0.859421,0.58276,0.327911,-0.0168974,0.0548809,0.959167
0.304692,0.571965,0.974525,0.352166,-0.0201524,0.158482,0.959167
0.433805,0.225337,1.33042,0.350884,-0.0299601,0.216308,0.959167
0.468872,-0.0392326,1.59668,0.332695,-0.0534295,0.219413,0.959167
0.446605,-0.175879,1.70755,0.26836,-0.0589562,0.162385,0.959167
0.409449,-0.194047,1.71609,0.205228,-0.0481242,0.0692739,0.959167
0.393957,-0.196984,1.67248,0.155759,-0.018953,-0.0282861,0.959167
0.445971,-0.104503,1.64082,0.152134,0.00899011,-0.115419,0.959167
0.581476,0.144869,1.66423,0.162808,0.0509615,-0.163589,0.959167
0.738522,0.427357,1.72778,0.161997,0.097006,-0.128923,0.959167
0.80477,0.529826,1.79268,0.146891,0.124178,-8.64267e-05,0.959167
0.746149,0.433377,1.78913,0.115406,0.127569,0.129807,0.959167
0.630215,0.244829,1.68809,0.0827573,0.109115,0.198986,0.959167
0.46782,0.11841,1.55182,0.0641701,0.114584,0.222412,0.959167
0.316717,0.160779,1.4427,0.0707684,0.126495,0.196943,0.959167
0.245872,0.294778,1.3803,0.0780269,0.151508,0.163341,0.959167
0.191061,0.374532,1.35793,0.0895676,0.165601,0.165852,0.959167
0.149576,0.377894,1.3453,0.0946369,0.155977,0.185368,0.959167
0.0690573,0.302861,1.33592,0.0818493,0.161047,0.216998,0.959167
-0.0211415,0.248069,1.29002,0.0659328,0.145953,0.215419,0.959167
-0.0890921,0.265006,1.1946,0.0527513,0.124874,0.180874,0.959167
-0.170023,0.336995,1.13343,0.0636906,0.12472,0.154268,0.959167
-0.236499,0.356788,1.14593,0.0854078,0.12354,0.131076,0.959167
-0.271725,0.289474,1.17427,0.0930799,0.109159,0.104632,0.959167
-0.312351,0.233575,1.17426,0.0687334,0.0844402,0.0677651,0.959167
-0.370796,0.206462,1.10442,0.0431041,0.04401,0.0183836,0.959167
-0.435609,0.152764,0.994909,0.0248361,0.00628904,-0.0571403,0.959167
-0.462722,0.182374,0.879226,0.00352643,-0.010503,-0.175167,0.959167
-0.578212,0.138706,0.803406,-0.0280247,0.0212932,-0.24255,0.959167
-0.704772,-0.0277005,0.730344,-0.0320292,-0.0119387,-0.323651,0.959167
-0.623962,-0.146931,0.656038,-0.0471715,-0.0520466,-0.466736,0.959167
-0.35998,-0.174492,0.60514,-0.0852131,-0.0509518,-0.579051,0.959167
-0.180961,-0.038527,0.520247,-0.138836,-0.0396789,-0.573195,0.959167
-0.237378,0.0848854,0.260938,-0.204783,-0.0527452,-0.453158,0.959167
-0.419799,0.0161319,-0.105866,-0.245579,-0.0873177,-0.357381,0.959167
-0.469309,-0.0323819,-0.383377,-0.220649,-0.0682783,-0.362021,0.959167
-0.235458,0.226494,-0.472846,-0.202396,0.0156698,-0.419636,0.959167
0.125335,0.510028,-0.381714,-0.158939,0.100318,-0.35738,0.959167
0.43581,0.543536,-0.193636,-0.137386,0.148292,-0.200262,0.959167
0.613219,0.293969,-0.0789574,-0.179094,0.171197,-0.0398043,0.959167
0.684958,-0.0725551,-0.064135,-0.237402,0.163893,0.0656401,0.959167
0.689194,-0.369505,-0.152986,-0.291154,0.170163,0.104519,0.959167
0.67118,-0.426802,-0.310942,-0.3185,0.171812,0.109385,0.959167
0.60373,-0.308127,-0.546801,-0.32951,0.169299,0.139035,0.959167
0.49366,-0.183081,-0.799406,-0.301095,0.153275,0.20989,0.959167
0.49366,-0.183081,-0.799406,-0.301095,0.153275,0.20989,1.15469
0.380063,-0.161126,-0.988306,-0.238063,0.153408,0.284035,1.15469
0.344574,-0.206483,-1.08059,-0.164898,0.155223,0.323814,1.15469
0.37561,-0.237237,-1.09898,-0.0965777,0.156294,0.335018,1.15469
0.351726,-0.181148,-1.11607,-0.0539287,0.15282,0.348913,1.15469
0.246787,-0.176759,-1.10059,-0.0163209,0.141038,0.37452,1.15469
0.173702,-0.258281,-1.07692,0.00216374,0.130837,0.36104,1.15469
0.167843,-0.408237,-1.08047,-0.0075767,0.121801,0.314414,1.15469
0.186307,-0.55994,-1.06591,0.00527418,0.115604,0.273707,1.15469
0.121594,-0.61102,-1.05017,0.0245585,0.109772,0.238861,1.15469
0.0123668,-0.443385,-1.01924,0.035349,0.0976054,0.18788,1.15469
-0.101364,-0.246336,-0.964243,0.0482645,0.0825477,0.158109,1.15469
-0.201022,-0.139767,-0.927539,0.0465161,0.0594919,0.149763,1.15469
-0.283413,-0.126467,-0.941768,0.0313698,0.0301374,0.135762,1.15469
-0.3513,-0.180059,-0.942754,0.0328136,0.0170639,0.118021,1.15469
-0.336725,-0.209608,-0.86985,0.0595057,0.0110987,0.0860996,1.15469
-0.28915,-0.217238,-0.755632,0.0777927,0.00591671,0.0613905,1.15469
-0.252583,-0.181951,-0.616632,0.0823185,-0.00315276,0.0567015,1.15469
-0.230534,-0.14888,-0.525802,0.060328,-0.0233244,0.0561202,1.15469
-0.225934,-0.122082,-0.484487,0.0350344,-0.0511873,0.0634778,1.15469
-0.220937,-0.0671179,-0.502688,0.010849,-0.0782172,0.0625127,1.15469
-0.243453,-0.0189497,-0.534153,-0.00140435,-0.0878645,0.0699334,1.15469
-0.299725,-0.00217374,-0.551393,0.00373019,-0.0961891,0.0751175,1.15469
-0.363085,0.00914054,-0.556851,0.00702173,-0.0944959,0.0580535,1.15469
-0.363173,0.0370338,-0.515587,0.0228547,-0.0961103,0.0171835,1.15469
-0.346389,0.0381427,-0.442786,0.0399645,-0.0967546,-0.0115761,1.15469
-0.366319,0.0121375,-0.374526,0.0509972,-0.113233,-0.0341884,1.15469
-0.405432,-0.0597992,-0.325865,0.0593499,-0.146393,-0.0858548,1.15469
-0.451233,-0.135092,-0.300326,0.0611789,-0.171322,-0.167744,1.15469
-0.504684,-0.172426,-0.282639,0.076044,-0.195666,-0.268891,1.15469
-0.554054,-0.0652766,-0.282435,0.0905253,-0.21404,-0.382184,1.15469
-0.564407,0.189704,-0.301395,0.103994,-0.215307,-0.474724,1.15469
-0.54915,0.361589,-0.263049,0.140976,-0.190713,-0.496039,1.15469
-0.492226,0.401423,-0.107262,0.206807,-0.157259,-0.478349,1.15469
-0.34954,0.321382,0.142051,0.241297,-0.106703,-0.453646,1.15469
-0.126295,0.272561,0.417693,0.253986,-0.0664364,-0.421042,1.15469
0.119369,0.303988,0.684797,0.244005,-0.023243,-0.348968,1.15469
0.311939,0.405264,0.909863,0.227679,0.0064577,-0.243479,1.15469
0.424139,0.620166,1.08673,0.208406,0.0192307,-0.132084,1.15469
0.369139,0.642676,1.20675,0.168137,0.030311,0.00794607,1.15469
0.322246,0.310188,1.32509,0.145438,0.0279317,0.0808975,1.15469
0.449394,0.0297468,1.27842,0.0786496,0.0184373,0.0352363,1.15469
0.592217,-0.0113403,1.17068,0.0301895,0.0381357,-0.00469929,1.15469
0.759202,0.0158277,1.15613,0.0433077,0.0867612,0.0205709,1.15469
0.907481,0.249144,1.16779,0.04953,0.142085,0.0831094,1.15469
0.909193,0.463238,1.2056,0.0396277,0.188374,0.213361,1.15469
0.814563,0.570579,1.23863,0.0420141,0.19458,0.331814,1.15469
0.701031,0.483599,1.2202,0.0272668,0.19518,0.41085,1.15469
0.621295,0.234539,1.17975,0.0417571,0.179891,0.436755,1.15469
0.56073,0.00270951,1.13523,0.069656,0.176586,0.415974,1.15469
0.457631,-0.0715378,1.11293,0.0947617,0.182429,0.362959,1.15469
0.335118,-0.0738855,1.10109,0.128907,0.17011,0.311039,1.15469
0.163614,-0.104622,1.10449,0.161751,0.151294,0.26899,1.15469
-0.0348627,-0.0825741,1.10516,0.166696,0.134222,0.204048,1.15469
-0.173181,0.0187034,1.10628,0.144372,0.115751,0.120062,1.15469
-0.173181,0.0187034,1.10628,0.144372,0.115751,0.120062,1.35287
-0.242052,0.133595,1.07638,0.125418,0.0885617,0.044037,1.35287
-0.293055,0.136548,1.01913,0.0991174,0.0594204,-0.000528157,1.35287
-0.312018,0.0500076,0.946588,0.0856342,0.0302708,-0.0455781,1.35287
-0.251521,0.0296412,0.914101,0.113481,0.0185624,-0.0950105,1.35287
-0.180261,0.237106,0.961186,0.14069,0.025491,-0.122477,1.35287
-0.0994097,0.549096,1.03696,0.129071,0.0305459,-0.101827,1.35287
-0.0523401,0.698663,1.06931,0.104314,0.0130952,-0.00754261,1.35287
-0.0865,0.632306,1.07889,0.0960568,-0.00951779,0.10114,1.35287
-0.157772,0.439425,1.07573,0.0937561,-0.0286577,0.161712,1.35287
-0.210493,0.210475,1.05995,0.100695,-0.0491097,0.167625,1.35287
-0.233366,0.0782604,1.06815,0.110555,-0.0582337,0.120756,1.35287
-0.192598,0.12272,1.08523,0.102825,-0.0522856,0.0424772,1.35287
-0.113711,0.166925,1.12158,0.113553,-0.0514691,-0.000872791,1.35287
-0.0477619,0.140232,1.17696,0.130964,-0.0558523,-0.00765896,1.35287
0.0234747,0.0949788,1.20316,0.120825,-0.058393,-0.0191609,1.35287
0.0488349,-0.00264244,1.22872,0.117572,-0.0622083,-0.0317779,1.35287
0.0700792,-0.0644792,1.25052,0.104369,-0.062634,-0.0746495,1.35287
0.0580844,0.0380249,1.22716,0.0769945,-0.072208,-0.128043,1.35287
-0.108591,0.109013,1.13776,0.0314197,-0.0767916,-0.150768,1.35287
-0.289014,-0.018798,0.905439,-0.0459543,-0.077484,-0.203069,1.35287
-0.279475,-0.0568003,0.639893,-0.0510927,-0.0960233,-0.308565,1.35287
-0.141228,0.0962106,0.567738,-0.0083783,-0.0410051,-0.386623,1.35287
0.122972,0.372736,0.705794,0.0252319,0.0432053,-0.400033,1.35287
0.385435,0.548187,0.854375,0.0117704,0.0892755,-0.316582,1.35287
0.525298,0.581007,0.883175,-0.0233489,0.0853433,-0.171175,1.35287
0.538221,0.538129,0.789641,-0.0717339,0.089795,-0.0351896,1.35287
0.454903,0.517934,0.71099,-0.0953297,0.120719,0.0667427,1.35287
0.385541,0.54549,0.701116,-0.0989494,0.144083,0.123682,1.35287
0.343366,0.534941,0.679711,-0.125736,0.160695,0.164883,1.35287
0.264906,0.435891,0.620102,-0.147211,0.154799,0.211764,1.35287
0.0758023,0.249905,0.489363,-0.156844,0.141345,0.264272,1.35287
-0.209489,0.0436469,0.338805,-0.133317,0.129594,0.287321,1.35287
-0.43158,-0.0918772,0.213406,-0.0831839,0.111938,0.235655,1.35287
-0.500633,-0.141149,0.241194,-0.0215886,0.127682,0.140721,1.35287
-0.450776,-0.137223,0.385989,0.0309365,0.148019,0.0633123,1.35287
-0.308284,-0.0646976,0.579514,0.0599786,0.130802,0.00731176,1.35287
-0.158411,0.0387483,0.696297,0.0261072,0.101288,-0.00950927,1.35287
-0.128694,0.0810072,0.707029,-0.0132004,0.0544603,0.0310853,1.35287
-0.200465,0.0777541,0.652015,-0.043787,0.00877997,0.0709714,1.35287
-0.264423,0.0817874,0.557833,-0.0676121,-0.0211419,0.0666533,1.35287
-0.29284,0.0815804,0.462457,-0.0813867,-0.0355594,0.0503838,1.35287
-0.278024,0.0666597,0.410385,-0.0691318,-0.0539225,0.0263421,1.35287
-0.257069,0.0773394,0.3531,-0.081446,-0.064321,-0.000169516,1.35287
-0.24032,0.13676,0.261606,-0.0898458,-0.0878363,-0.0169861,1.35287
-0.256461,0.183865,0.164827,-0.081188,-0.113287,-0.0164132,1.35287
-0.245711,0.175427,0.124416,-0.0443014,-0.127488,-0.028704,1.35287
-0.184013,0.173135,0.134854,-0.0184849,-0.123331,-0.0639294,1.35287
-0.107095,0.205451,0.175566,-0.0036206,-0.120534,-0.101123,1.35287
-0.0303687,0.190514,0.236836,0.0287014,-0.130017,-0.129195,1.35287
0.0654307,0.231125,0.304611,0.0447673,-0.129996,-0.172926,1.35287
0.0942293,0.354233,0.341261,0.0352162,-0.126466,-0.201604,1.35287
0.0689231,0.437115,0.328477,0.0311179,-0.140917,-0.218323,1.35287
0.0336237,0.51934,0.273692,0.0357891,-0.135291,-0.247194,1.35287
-0.118582,0.440672,0.208855,0.0551025,-0.111869,-0.241583,1.35287
-0.118582,0.440672,0.208855,0.0551025,-0.111869,-0.241583,1.55104
-0.360053,0.284975,0.175878,0.0939337,-0.0962105,-0.279775,1.55104
-0.48171,0.12302,0.217094,0.131001,-0.0697296,-0.39405,1.55104
-0.377155,0.0819005,0.378332,0.161972,-0.00959398,-0.516039,1.55104
-0.0825666,0.313794,0.644732,0.16943,0.0704589,-0.587129,1.55104
0.320198,0.700609,0.983867,0.192207,0.116438,-0.553063,1.55104
0.738812,1.04157,1.36874,0.196788,0.146864,-0.395492,1.55104
0.991989,1.10266,1.65787,0.135348,0.173873,-0.142172,1.55104
1.03856,0.812689,1.82305,0.0825936,0.148509,0.0878189,1.55104
0.914466,0.333221,1.81125,0.0325362,0.10642,0.224116,1.55104
0.695536,-0.141063,1.59972,-0.0131167,0.0577837,0.265058,1.55104
0.469019,-0.383781,1.26609,-0.0211013,0.0171822,0.218787,1.55104
0.344929,-0.298388,0.954043,-0.00149229,0.0364228,0.116485,1.55104
0.351666,-0.0457995,0.827032,0.0508052,0.111315,0.046128,1.55104
0.491826,0.206735,0.875981,0.112241,0.177732,0.0366063,1.55104
0.672259,0.370343,1.00642,0.149207,0.221265,0.0917795,1.55104
0.793545,0.440917,1.10863,0.135312,0.243967,0.197684,1.55104
0.825696,0.462094,1.13751,0.100805,0.248104,0.304282,1.55104
0.746853,0.446772,1.10452,0.0799436,0.255329,0.391982,1.55104
0.569459,0.403704,1.06282,0.083473,0.254139,0.453161,1.55104
0.289653,0.389326,0.99413,0.0909912,0.245047,0.478448,1.55104
0.00922803,0.345501,0.91826,0.0984913,0.221517,0.453367,1.55104
-0.165113,0.242034,0.835159,0.10888,0.202422,0.388048,1.55104
-0.292477,0.0804002,0.764496,0.0987092,0.18929,0.310215,1.55104
-0.431925,-0.0805412,0.665227,0.0923224,0.165049,0.231089,1.55104
-0.59179,-0.153499,0.558623,0.083224,0.139775,0.137111,1.55104
-0.75219,-0.12788,0.398912,0.0586216,0.112848,0.026816,1.55104
-0.852329,0.0374818,0.2382,0.0659452,0.0793315,-0.0880535,1.55104
-0.795833,0.312109,0.180601,0.108099,0.0623975,-0.195386,1.55104
-0.618355,0.631607,0.273623,0.143758,0.0806776,-0.247213,1.55104
-0.417471,0.891182,0.501831,0.155953,0.0963538,-0.209661,1.55104
-0.279361,1.00281,0.67054,0.105421,0.068138,-0.107034,1.55104
-0.231455,0.994347,0.672517,0.0169699,0.0120986,-0.0120124,1.55104
-0.335903,0.878253,0.596844,-0.0289387,-0.0291058,0.0780165,1.55104
-0.529762,0.574256,0.541048,-0.0344161,-0.0516472,0.12231,1.55104
-0.668724,0.139411,0.508921,-0.035283,-0.0739161,0.083429,1.55104
-0.707536,-0.278326,0.450938,-0.0524973,-0.0982942,-0.0387192,1.55104
-0.719476,-0.536815,0.428228,-0.0590827,-0.112084,-0.190167,1.55104
-0.692589,-0.60737,0.442836,-0.06355,-0.10927,-0.325677,1.55104
-0.614463,-0.581667,0.470121,-0.0820707,-0.104842,-0.43538,1.55104
-0.512459,-0.44036,0.435681,-0.0869365,-0.124657,-0.509147,1.55104
-0.556318,-0.290447,0.350543,-0.100428,-0.144724,-0.504725,1.55104
-0.594211,-0.361362,0.276383,-0.0963315,-0.171004,-0.497523,1.55104
-0.461435,-0.544429,0.194449,-0.0959445,-0.180635,-0.545545,1.55104
-0.174987,-0.549216,0.126768,-0.104665,-0.160309,-0.599433,1.55104
0.150809,-0.335211,0.0693721,-0.114036,-0.114102,-0.586407,1.55104
0.43719,-0.0288589,0.00419059,-0.127637,-0.060627,-0.487805,1.55104
0.727531,0.268239,-0.0514171,-0.136354,-0.00721568,-0.35184,1.55104
1.00424,0.460761,-0.100365,-0.170121,0.0719504,-0.184686,1.55104
1.15514,0.50742,-0.148168,-0.220071,0.139307,-0.00293779,1.55104
1.19014,0.348729,-0.219635,-0.255662,0.171894,0.148887,1.55104
1.11939,0.0419466,-0.386131,-0.297853,0.183901,0.250467,1.55104
0.923796,-0.224726,-0.669854,-0.337591,0.193136,0.306989,1.55104
0.623973,-0.325595,-1.00437,-0.338444,0.202895,0.32849,1.55104
0.367859,-0.24564,-1.28779,-0.298251,0.225061,0.309635,1.55104
0.367859,-0.24564,-1.28779,-0.298251,0.225061,0.309635,1.76244
0.264827,-0.0489276,-1.41634,-0.225896,0.266784,0.281592,1.76244
0.306853,0.136849,-1.37777,-0.151739,0.297016,0.293801,1.76244
0.378769,0.206377,-1.24179,-0.108833,0.304017,0.36148,1.76244
0.4098,0.139911,-1.12652,-0.101608,0.277705,0.438217,1.76244
0.393435,-0.032669,-1.10091,-0.129481,0.232381,0.488612,1.76244
0.332495,-0.248272,-1.15939,-0.146896,0.189208,0.514063,1.76244
0.139938,-0.493616,-1.25638,-0.135826,0.166722,0.532251,1.76244
-0.145364,-0.686328,-1.37106,-0.0965987,0.127338,0.506421,1.76244
-0.407738,-0.782253,-1.44792,-0.0485385,0.0990362,0.426606,1.76244
-0.614875,-0.814124,-1.46245,0.0029216,0.0846604,0.330039,1.76244
-0.76838,-0.791792,-1.45718,0.0303928,0.0602642,0.220224,1.76244
-0.892235,-0.679692,-1.47529,0.0432911,0.0208674,0.113517,1.76244
-0.963611,-0.524278,-1.49204,0.071341,-0.0271868,0.0077433,1.76244
-0.974594,-0.382711,-1.49678,0.0993228,-0.0527629,-0.0806704,1.76244
-0.928788,-0.243655,-1.37682,0.164538,-0.064933,-0.14315,1.76244
-0.794063,-0.0423175,-1.11963,0.232337,-0.0760691,-0.200717,1.76244
-0.572347,0.100585,-0.802755,0.269678,-0.0902998,-0.232606,1.76244
-0.408044,0.144489,-0.5195,0.26317,-0.120984,-0.220889,1.76244
-0.322915,0.158369,-0.332005,0.227547,-0.168689,-0.213272,1.76244
-0.285878,0.100209,-0.244316,0.205597,-0.198891,-0.223905,1.76244
-0.26752,0.0909668,-0.235537,0.178376,-0.210303,-0.281172,1.76244
-0.266349,0.215393,-0.196241,0.173428,-0.19588,-0.352992,1.76244
-0.247679,0.364902,-0.108887,0.180576,-0.168181,-0.401272,1.76244
-0.243606,0.374454,-0.0414776,0.184912,-0.154039,-0.420106,1.76244
-0.292917,0.254321,0.036666,0.205091,-0.147851,-0.424831,1.76244
-0.299337,0.22549,0.136362,0.200991,-0.107327,-0.460333,1.76244
-0.215784,0.402069,0.26605,0.193466,-0.0518784,-0.476549,1.76244
0.0160921,0.637079,0.475312,0.201032,-0.0167787,-0.452655,1.76244
0.377822,0.874359,0.7402,0.197807,0.0230886,-0.359809,1.76244
0.614561,1.0163,1.00098,0.158495,0.0752772,-0.162664,1.76244
0.648024,1.00841,1.18336,0.100937,0.0893389,0.0481533,1.76244
0.539039,0.784785,1.21463,0.0465462,0.0682941,0.202058,1.76244
0.369982,0.461649,1.11485,0.000248447,0.0360655,0.273737,1.76244
0.187824,0.186161,0.932158,-0.0147582,0.0194436,0.284188,1.76244
0.0212782,0.105124,0.780536,0.00683674,0.0274692,0.255631,1.76244
-0.0822043,0.167387,0.699356,0.0323294,0.0644602,0.204833,1.76244
-0.0843684,0.244147,0.673239,0.0609512,0.0921222,0.16967,1.76244
-0.00204702,0.276633,0.731141,0.0937015,0.11384,0.15967,1.76244
0.125976,0.300812,0.834844,0.100801,0.139547,0.171382,1.76244
0.253191,0.352772,0.955055,0.0950168,0.152537,0.207989,1.76244
0.347715,0.362987,1.02476,0.0778842,0.150914,0.266363,1.76244
0.313019,0.305948,1.03953,0.0650814,0.141301,0.333854,1.76244
0.211473,0.265372,1.05683,0.0608825,0.126898,0.358521,1.76244
0.139212,0.182225,1.04016,0.0504076,0.111584,0.343972,1.76244
0.0708552,0.00479736,1.02515,0.0662669,0.0854236,0.314528,1.76244
-0.0130029,-0.159461,1.00989,0.0744976,0.0764697,0.254025,1.76244
-0.0680796,-0.251244,0.989522,0.0904847,0.0643687,0.159933,1.76244
-0.16788,-0.401365,0.953908,0.0953091,0.0632381,0.072683,1.76244
-0.264988,-0.539692,0.953461,0.115993,0.0599722,-0.036488,1.76244
-0.222845,-0.423675,0.954232,0.105736,0.0725565,-0.19068,1.76244
-0.0968924,-0.0842284,0.962632,0.0855995,0.0946831,-0.289951,1.76244
0.0147148,0.296511,1.00088,0.0664951,0.112628,-0.282888,1.76244
0.00339759,0.535868,1.02004,0.0477705,0.114606,-0.17041,1.76244
0.00339759,0.535868,1.02004,0.0477705,0.114606,-0.17041,1.96854
-0.0501996,0.592505,0.99324,0.0250594,0.0928124,-0.0520783,1.96854
-0.156893,0.432367,0.902578,-0.0115683,0.0752374,0.0315197,1.96854
-0.286735,0.173716,0.79267,-0.0214796,0.0487481,0.0524161,1.96854
-0.466681,-0.0887496,0.718052,-0.00584998,0.0457154,0.0405282,1.96854
-0.68712,-0.360453,0.718908,0.015602,0.0519189,-0.0163092,1.96854
-0.845167,-0.633631,0.730984,0.0143909,0.044857,-0.13121,1.96854
-0.929911,-0.93635,0.671634,-0.0262385,0.019804,-0.284682,1.96854
-0.92614,-1.05779,0.606782,-0.0561783,-0.0111452,-0.467054,1.96854
-0.728558,-0.723674,0.50637,-0.0843709,-0.0370094,-0.643921,1.96854
-0.460286,-0.138678,0.386629,-0.102995,-0.0570098,-0.687037,1.96854
-0.297748,0.291435,0.324403,-0.109513,-0.0576548,-0.5529,1.96854
-0.158577,0.41216,0.239733,-0.137,-0.073418,-0.380152,1.96854
0.0610613,0.413647,0.083182,-0.173345,-0.0876195,-0.268201,1.96854
0.315023,0.443375,-0.0689446,-0.186018,-0.0732541,-0.164654,1.96854
0.493769,0.44993,-0.15114,-0.196555,-0.0173625,-0.0478001,1.96854
0.595423,0.370996,-0.19446,-0.216421,0.0296077,0.0503942,1.96854
0.641121,0.127879,-0.267901,-0.243736,0.0476962,0.117742,1.96854
0.618554,-0.179478,-0.40857,-0.277625,0.0611542,0.148949,1.96854
0.582244,-0.300502,-0.622551,-0.313562,0.0786551,0.134558,1.96854
0.563055,-0.204107,-0.842454,-0.315732,0.109582,0.123861,1.96854
0.536732,-0.0505504,-0.981166,-0.282505,0.150775,0.157046,1.96854
0.512376,0.0545628,-1.04285,-0.232913,0.173211,0.220497,1.96854
0.518305,0.0662622,-1.07394,-0.197333,0.175785,0.276095,1.96854
0.518689,-0.0055423,-1.09876,-0.168325,0.180258,0.338641,1.96854
0.478605,-0.116479,-1.10261,-0.134158,0.175139,0.385729,1.96854
0.373715,-0.256728,-1.09447,-0.105024,0.177191,0.417849,1.96854
0.224229,-0.41901,-1.03972,-0.0789122,0.180339,0.418635,1.96854
0.0974064,-0.569905,-1.02225,-0.0655808,0.155954,0.372125,1.96854
0.0189671,-0.667157,-1.0104,-0.047169,0.138188,0.309051,1.96854
-0.0948723,-0.711627,-0.966033,-0.0262971,0.136057,0.260236,1.96854
-0.245345,-0.672384,-0.936261,-0.0140978,0.120278,0.212799,1.96854
-0.427963,-0.639479,-0.957189,-0.0169973,0.0906969,0.169174,1.96854
-0.588007,-0.603442,-1.01868,-0.0143133,0.0585023,0.116772,1.96854
-0.664582,-0.509946,-1.05343,0.0260517,0.028915,0.0549244,1.96854
-0.630746,-0.340165,-0.980902,0.0758988,0.0270575,-0.00133646,1.96854
-0.547846,-0.108166,-0.850034,0.109758,0.0212895,-0.0211571,1.96854
-0.502743,-0.0547845,-0.692593,0.140938,-0.0125766,0.0197551,1.96854
-0.497076,-0.0548073,-0.596846,0.129919,-0.0565042,0.0501592,1.96854
-0.459118,-0.165103,-0.526008,0.115459,-0.091074,0.0476784,1.96854
-0.391627,-0.254022,-0.481132,0.108463,-0.118535,0.0160379,1.96854
-0.369335,-0.243434,-0.44947,0.102082,-0.137744,-0.0222974,1.96854
-0.422493,-0.173049,-0.452439,0.0909802,-0.154332,-0.053202,1.96854
-0.494081,-0.107499,-0.479846,0.0873508,-0.171024,-0.103333,1.96854
-0.531997,-0.0425853,-0.529412,0.0817941,-0.180418,-0.180828,1.96854
-0.536981,0.0295309,-0.602204,0.0703931,-0.177483,-0.271901,1.96854
-0.506117,0.0516205,-0.623713,0.0952778,-0.162078,-0.363012,1.96854
-0.382694,0.102432,-0.508646,0.153887,-0.129256,-0.459716,1.96854
-0.17381,0.308668,-0.271842,0.187237,-0.0781177,-0.531305,1.96854
-0.0159139,0.500164,-0.00223669,0.184641,-0.0476825,-0.525018,1.96854
0.0379886,0.532101,0.176314,0.138582,-0.0508861,-0.473696,1.96854
0.0800019,0.559437,0.253387,0.0703521,-0.0600734,-0.453058,1.96854
0.243878,0.680501,0.30982,0.0323853,-0.0462346,-0.448101,1.96854
0.54498,0.854805,0.464144,0.0545766,-0.0154446,-0.381386,1.96854
0.806378,0.942752,0.661091,0.0536508,0.0329376,-0.223575,1.96854
0.806378,0.942752,0.661091,0.0536508,0.0329376,-0.223575,2.14821
0.926338,0.903416,0.818345,0.0300536,0.0556732,-0.0468807,2.14821
0.930292,0.678354,0.88255,0.00412171,0.0458313,0.0958112,2.14821
0.850474,0.346451,0.851352,-0.0290114,0.0360657,0.172782,2.14821
0.748945,0.0949492,0.746361,-0.0468127,0.0258649,0.187905,2.14821
0.632963,0.0292627,0.561341,-0.0564687,0.0386555,0.168841,2.14821
0.520828,0.121979,0.387496,-0.0407585,0.0559176,0.156323,2.14821
0.385723,0.29287,0.294699,-0.00268817,0.0878845,0.167495,2.14821
0.326597,0.404537,0.31962,0.0425295,0.122537,0.184423,2.14821
0.371989,0.440172,0.40035,0.0681823,0.147654,0.211616,2.14821
0.43781,0.412503,0.496733,0.0743539,0.163832,0.261813,2.14821
0.421149,0.318392,0.57273,0.0748996,0.167696,0.330938,2.14821
0.31837,0.222427,0.624833,0.0831464,0.160813,0.379983,2.14821
0.171577,0.156497,0.655791,0.0793812,0.166359,0.397101,2.14821
0.0133872,0.0896295,0.710091,0.0986286,0.170307,0.390564,2.14821
-0.117672,0.0416936,0.791376,0.107404,0.177606,0.353815,2.14821
-0.187456,0.04731,0.852327,0.102852,0.165464,0.303926,2.14821
-0.293353,-0.00141962,0.890399,0.107953,0.151389,0.290178,2.14821
-0.472286,-0.115833,0.924823,0.10012,0.128408,0.26928,2.14821
-0.587386,-0.221891,0.912535,0.0749991,0.0964,0.18943,2.14821
-0.623916,-0.261057,0.876934,0.0675945,0.0615063,0.0951651,2.14821
-0.682845,-0.220303,0.843962,0.0622002,0.0417999,0.0262524,2.14821
-0.724838,-0.116141,0.834339,0.0640048,0.0115391,-0.0469228,2.14821
-0.673463,0.00821939,0.827865,0.0652699,-0.0110915,-0.115214,2.14821
-0.567055,0.163653,0.827462,0.0604683,-0.029028,-0.154096,2.14821
-0.483359,0.279709,0.848285,0.0523983,-0.0360572,-0.13988,2.14821
-0.430964,0.346837,0.85219,0.0366511,-0.0450293,-0.0978604,2.14821
-0.389565,0.372902,0.833838,0.0118811,-0.0572884,-0.0526669,2.14821
-0.369267,0.373027,0.812986,-0.00210916,-0.0607851,-0.00982052,2.14821
-0.383996,0.347294,0.782237,-0.0115007,-0.0651354,0.0196625,2.14821
-0.42611,0.235876,0.760085,-0.0126959,-0.0715879,0.0338511,2.14821
-0.478878,0.0203736,0.738801,-0.00481892,-0.0830583,0.0215864,2.14821
-0.53254,-0.196477,0.718316,-0.00369461,-0.0828653,-0.0284836,2.14821
-0.611394,-0.338137,0.691473,-0.00691214,-0.0808952,-0.0984764,2.14821
-0.688298,-0.459749,0.628383,-0.00493901,-0.100462,-0.182613,2.14821
-0.80743,-0.619074,0.535135,-0.00382309,-0.12496,-0.267236,2.14821
-0.895416,-0.727613,0.417457,-0.00777182,-0.143556,-0.393694,2.14821
-0.844075,-0.73886,0.30603,-0.00138963,-0.143055,-0.534179,2.14821
-0.658537,-0.542252,0.272409,0.0170509,-0.116645,-0.639251,2.14821
-0.420133,-0.311591,0.339934,0.0367018,-0.0754092,-0.654438,2.14821
-0.136658,-0.0709115,0.413121,0.0258597,-0.0507352,-0.61478,2.14821
0.178002,0.198617,0.43049,-0.00897139,-0.0357507,-0.534545,2.14821
0.493202,0.463971,0.448356,-0.0381683,0.00619545,-0.392139,2.14821
0.78516,0.64976,0.487376,-0.0789189,0.0649609,-0.223894,2.14821
0.956836,0.606817,0.532035,-0.131494,0.118522,-0.0327518,2.14821
1.042,0.335042,0.53125,-0.189228,0.132668,0.110417,2.14821
1.01872,-0.137405,0.376438,-0.273342,0.145816,0.198681,2.14821
0.881511,-0.57779,0.0674827,-0.335353,0.148367,0.232758,2.14821
0.699516,-0.822904,-0.311947,-0.35367,0.159176,0.207724,2.14821
0.556639,-0.728878,-0.677671,-0.318367,0.189573,0.145682,2.14821
0.410621,-0.309183,-0.898357,-0.242336,0.229794,0.125157,2.14821
0.279249,0.0316487,-0.944589,-0.165397,0.261664,0.166135,2.14821
0.245186,0.031514,-0.874913,-0.0952496,0.261969,0.231314,2.14821
0.286987,-0.179423,-0.775418,-0.0523426,0.23328,0.275989,2.14821
0.30846,-0.319247,-0.710431,-0.0576397,0.198466,0.29081,2.14821
0.30846,-0.319247,-0.710431,-0.0576397,0.198466,0.29081,2.33582
0.312805,-0.433636,-0.678809,-0.0595564,0.167931,0.302193,2.33582
0.300773,-0.487784,-0.693233,-0.0549792,0.138861,0.306917,2.33582
0.200025,-0.45831,-0.734961,-0.0508323,0.119044,0.316253,2.33582
0.046571,-0.398637,-0.765648,-0.0380663,0.0985171,0.3219,2.33582
-0.0928608,-0.40434,-0.816786,-0.022302,0.0715586,0.311114,2.33582
-0.21539,-0.441315,-0.841564,-2.8111e-05,0.0471855,0.2783,2.33582
-0.303632,-0.472726,-0.868851,0.00409874,0.0184051,0.227153,2.33582
-0.356545,-0.55712,-0.918632,0.0252419,-0.012939,0.17586,2.33582
-0.449148,-0.625247,-0.924969,0.0550715,-0.0173924,0.131799,2.33582
-0.522241,-0.569297,-0.885011,0.0829627,-0.0252837,0.0626464,2.33582
-0.564746,-0.458947,-0.805287,0.111036,-0.0312166,0.00242442,2.33582
-0.560929,-0.322719,-0.68874,0.12333,-0.0405987,-0.043673,2.33582
-0.46563,-0.171114,-0.577709,0.113249,-0.0538336,-0.0834298,2.33582
-0.305923,-0.0153493,-0.484979,0.0957757,-0.0688501,-0.078152,2.33582
-0.218101,0.0624157,-0.397031,0.0850996,-0.0747218,0.00249016,2.33582
-0.252748,0.0679046,-0.332972,0.0673472,-0.0821977,0.102073,2.33582
-0.293823,0.0645213,-0.300307,0.0507571,-0.100301,0.145541,2.33582
-0.318885,0.0257584,-0.284764,0.0520961,-0.112012,0.167681,2.33582
-0.350017,0.00397766,-0.281928,0.0554334,-0.120345,0.175159,2.33582
-0.421129,-0.0360201,-0.293634,0.0685381,-0.135411,0.172656,2.33582
-0.48937,-0.122795,-0.271867,0.111824,-0.157411,0.136233,2.33582
-0.541359,-0.283078,-0.188968,0.163998,-0.173253,0.0674726,2.33582
-0.580986,-0.377741,-0.0908481,0.187055,-0.189003,-0.0643583,2.33582
-0.746317,-0.459684,-0.0971236,0.147949,-0.207748,-0.220408,2.33582
-0.850918,-0.458117,-0.14245,0.132387,-0.25511,-0.438048,2.33582
-0.66487,-0.155728,-0.177106,0.135326,-0.258051,-0.680988,2.33582
-0.40548,0.391086,-0.0981735,0.14646,-0.207585,-0.775018,2.33582
-0.308965,0.708949,0.120397,0.179203,-0.16616,-0.695147,2.33582
-0.295573,0.669272,0.333501,0.176719,-0.154699,-0.586859,2.33582
-0.180746,0.536895,0.466883,0.146815,-0.143865,-0.560978,2.33582
0.10474,0.545816,0.631686,0.154428,-0.111747,-0.565599,2.33582
0.501336,0.772009,0.876594,0.17627,-0.0510723,-0.518858,2.33582
0.902685,1.05583,1.20218,0.172827,0.0311562,-0.377786,2.33582
1.2045,1.08213,1.49956,0.140317,0.0913847,-0.160568,2.33582
1.31359,0.749337,1.69209,0.0851718,0.113995,0.0531604,2.33582
1.21789,0.205865,1.7361,0.0305069,0.111927,0.184345,2.33582
1.10016,-0.249844,1.60416,-0.0211719,0.0981754,0.195753,2.33582
1.0771,-0.300602,1.34532,-0.0509507,0.103228,0.106559,2.33582
1.06771,-0.00200377,1.09854,-0.0423919,0.148799,0.0603973,2.33582
1.06273,0.38403,1.00208,0.00795764,0.20359,0.0881572,2.33582
1.04345,0.540582,1.02137,0.0484983,0.263368,0.180361,2.33582
1.04636,0.471503,1.09988,0.0785283,0.278282,0.277959,2.33582
1.054,0.320632,1.16032,0.0858867,0.277645,0.346525,2.33582
1.03118,0.196367,1.15931,0.0764282,0.271556,0.397375,2.33582
0.881494,0.131035,1.07891,0.0698028,0.259832,0.445652,2.33582
0.582461,0.13732,0.973976,0.0841558,0.245771,0.482683,2.33582
0.248671,0.151634,0.897697,0.115603,0.228063,0.474168,2.33582
0.0118791,0.103367,0.883445,0.14966,0.215387,0.423043,2.33582
-0.125855,0.0150101,0.905512,0.170368,0.198087,0.346934,2.33582
-0.234372,-0.076016,0.95112,0.184294,0.176253,0.28019,2.33582
-0.362709,-0.047164,0.949978,0.167866,0.144382,0.207945,2.33582
-0.469921,0.00857416,0.905013,0.146128,0.111144,0.130132,2.33582
-0.558868,0.0958369,0.832654,0.146571,0.0807121,0.062809,2.33582
-0.642948,0.212723,0.84208,0.180396,0.0655073,0.0113214,2.33582
-0.642948,0.212723,0.84208,0.180396,0.0655073,0.0113214,2.534
-0.648003,0.287878,0.959203,0.203211,0.067472,-0.0352992,2.534
-0.5406,0.326111,1.09187,0.190489,0.0512664,-0.0791567,2.534
-0.381787,0.277751,1.18441,0.15403,0.0164948,-0.0877134,2.534
-0.269922,0.267346,1.21154,0.114241,-0.0232224,-0.0624004,2.534
-0.270007,0.32899,1.20628,0.0763054,-0.0487459,-0.0119789,2.534
-0.292319,0.390646,1.18642,0.0421925,-0.0659491,0.0276617,2.534
-0.283409,0.418866,1.17138,0.0134778,-0.0820876,0.0571945,2.534
-0.254017,0.385731,1.13853,-0.0123314,-0.101991,0.0771444,2.534
-0.219173,0.262587,1.07488,-0.0296448,-0.125911,0.0924691,2.534
-0.193924,0.08654,0.987491,-0.0263287,-0.151866,0.0933542,2.534
-0.178553,-0.0717552,0.890137,-0.0148981,-0.166749,0.0712627,2.534
-0.150532,-0.184185,0.81428,0.0138785,-0.178195,0.0192997,2.534
-0.162652,-0.259073,0.757274,0.0287773,-0.167161,-0.0283092,2.534
-0.193351,-0.264086,0.750235,0.0487086,-0.169598,-0.0919805,2.534
-0.324762,-0.430843,0.677973,0.031627,-0.183348,-0.141403,2.534
-0.578216,-0.673624,0.428178,-0.043531,-0.192405,-0.245305,2.534
-0.696354,-0.638251,0.0701872,-0.0751247,-0.20748,-0.430084,2.534
-0.539042,-0.181216,-0.139727,-0.0272787,-0.155802,-0.590918,2.534
-0.110038,0.510253,-0.00791013,0.0736906,-0.0524614,-0.641105,2.534
0.333495,0.850671,0.369876,0.162562,0.0267509,-0.492452,2.534
0.669361,0.733939,0.707413,0.152768,0.0367605,-0.274751,2.534
0.845255,0.414659,0.817112,0.0702179,0.0258114,-0.0956224,2.534
0.858414,0.170295,0.747609,-0.0144639,0.0206238,0.0187218,2.534
0.773278,0.107681,0.618673,-0.0662722,0.0464843,0.0752838,2.534
0.745947,0.178175,0.510871,-0.0894755,0.0808659,0.0820709,2.534
0.762376,0.256864,0.42449,-0.101592,0.116726,0.0918304,2.534
0.745781,0.246878,0.330534,-0.120318,0.152516,0.127019,2.534
0.635036,0.15569,0.198294,-0.138904,0.175902,0.172655,2.534
0.464597,0.105117,0.010665,-0.150385,0.186153,0.191306,2.534
0.272818,0.120673,-0.173079,-0.130214,0.19697,0.190919,2.534
0.120307,0.176738,-0.25597,-0.0795713,0.217596,0.178281,2.534
0.0298293,0.20982,-0.242009,-0.0269481,0.235074,0.169191,2.534
-0.00769189,0.196611,-0.155401,0.0174925,0.227162,0.1675,2.534
-0.03204,0.128341,-0.0489951,0.0423824,0.202304,0.173173,2.534
-0.0607225,0.0736193,0.0102261,0.0412881,0.162647,0.168028,2.534
-0.125193,0.0714475,0.00853994,0.0320179,0.120118,0.162955,2.534
-0.253954,0.0659687,-0.012119,0.0301167,0.091579,0.164837,2.534
-0.376093,0.108094,-0.0236799,0.0364401,0.0651694,0.140568,2.534
-0.423567,0.122515,-0.0210259,0.0443311,0.0482732,0.100884,2.534
-0.403845,0.152619,0.0178327,0.0636986,0.0317118,0.0605832,2.534
-0.345866,0.196084,0.0822301,0.0732649,0.0246209,0.0360569,2.534
-0.292637,0.264661,0.126929,0.0771282,0.00296497,0.0244173,2.534
-0.247207,0.284493,0.177111,0.0706299,-0.0169942,0.0229443,2.534
-0.126471,0.231907,0.268645,0.0738585,-0.0295218,0.0122129,2.534
0.0681178,0.186547,0.359417,0.0815064,-0.0450509,-8.96454e-05,2.534
0.201074,0.157104,0.422515,0.0736997,-0.0673211,0.0192066,2.534
0.178424,0.113949,0.450024,0.0708971,-0.094747,0.0637031,2.534
0.0885554,0.054133,0.455121,0.07363,-0.133274,0.0722854,2.534
0.033235,0.0333314,0.445943,0.0760327,-0.166238,0.0340359,2.534
0.0314525,0.0846462,0.405342,0.055307,-0.192836,-0.0213826,2.534
0.0070329,0.153655,0.331423,0.0414119,-0.209316,-0.0404261,2.534
-0.0918746,0.22752,0.253179,0.0441138,-0.220199,-0.0371563,2.534
-0.179764,0.252894,0.217962,0.0616029,-0.217911,-0.0446352,2.534
-0.182111,0.258719,0.226658,0.0966337,-0.20686,-0.0843085,2.534
-0.182111,0.258719,0.226658,0.0966337,-0.20686,-0.0843085,2.7348
-0.0242102,0.358713,0.343354,0.156457,-0.188324,-0.140983,2.7348
0.188259,0.644575,0.492639,0.18776,-0.158382,-0.160525,2.7348
0.271885,0.840706,0.644273,0.243862,-0.15371,-0.0570428,2.7348
0.0816885,0.873023,0.788109,0.294663,-0.187313,0.0620332,2.7348
-0.368331,0.670993,0.774563,0.271507,-0.182751,0.135432,2.7348
-0.890713,-0.0777028,0.71353,0.255473,-0.181171,0.0961333,2.7348
-0.9132,-0.663184,0.68563,0.225634,-0.1398,-0.219823,2.7348
-0.267402,-0.41356,0.720646,0.221456,-0.0482578,-0.580214,2.7348
0.51054,0.553468,1.06741,0.270356,0.0685173,-0.648345,2.7348
0.819081,1.3594,1.51139,0.279216,0.179655,-0.360712,2.7348
0.73696,1.56729,1.75694,0.216486,0.166213,-0.0123152,2.7348
0.586181,1.29884,1.85651,0.145499,0.119856,0.180193,2.7348
0.505838,0.733883,1.83456,0.0969736,0.106755,0.257098,2.7348
0.422137,0.20196,1.81156,0.0902612,0.109057,0.263545,2.7348
0.185553,-0.182837,1.83416,0.107863,0.146253,0.243835,2.7348
-0.0258319,-0.352838,1.8676,0.0897197,0.182066,0.129056,2.7348
-0.134219,-0.47003,1.78517,0.0319297,0.189499,-0.0255113,2.7348
-0.0963723,-0.42594,1.6504,0.0160733,0.173253,-0.186091,2.7348
0.111865,-0.0863556,1.54418,0.0369302,0.171826,-0.312506,2.7348
0.397194,0.440123,1.57613,0.0607252,0.215728,-0.314415,2.7348
0.548184,0.879698,1.66694,0.0799573,0.246758,-0.151639,2.7348
0.542789,1.0217,1.68416,0.0442498,0.229641,0.0548359,2.7348
0.481269,0.909344,1.60476,0.00459089,0.200892,0.209042,2.7348
0.403757,0.663229,1.4632,-0.0227987,0.177951,0.305362,2.7348
0.295189,0.390265,1.30623,-0.0201122,0.156076,0.349696,2.7348
0.15719,0.220249,1.15455,-0.0147989,0.144646,0.344673,2.7348
0.0436907,0.151511,1.03356,0.00672426,0.144936,0.29428,2.7348
-0.017419,0.161673,0.932177,0.017424,0.140147,0.218742,2.7348
-0.0227125,0.129722,0.871879,0.0361888,0.131977,0.153126,2.7348
-0.00832902,0.0724092,0.843999,0.0421155,0.124998,0.0899402,2.7348
0.000293267,0.0292213,0.824519,0.0351689,0.11153,0.0325025,2.7348
-0.0430756,0.00118746,0.721026,-0.0157228,0.09653,-0.0236862,2.7348
-0.163093,-0.0201573,0.495849,-0.0886191,0.0611149,-0.0937515,2.7348
-0.313965,0.0192264,0.209239,-0.137737,0.0252098,-0.175883,2.7348
-0.38527,0.186727,0.0519505,-0.124134,-0.000317186,-0.260017,2.7348
-0.36976,0.351432,0.0131043,-0.124681,-0.0192183,-0.30286,2.7348
-0.497264,0.422789,-0.145906,-0.174009,-0.038114,-0.262552,2.7348
-0.712592,0.450467,-0.376194,-0.200369,-0.0829972,-0.22437,2.7348
-0.841432,0.458908,-0.606111,-0.195186,-0.112512,-0.227314,2.7348
-0.835298,0.431042,-0.672138,-0.147719,-0.0830564,-0.238678,2.7348
-0.657422,0.409546,-0.549385,-0.0966653,-0.035074,-0.248138,2.7348
-0.373099,0.411875,-0.353262,-0.0719832,-0.00969544,-0.228474,2.7348
-0.0879721,0.440106,-0.132923,-0.0785821,0.0170429,-0.159796,2.7348
0.197612,0.460376,0.0462101,-0.112991,0.0400495,-0.0757554,2.7348
0.389125,0.365433,0.17583,-0.161669,0.0631211,0.0288638,2.7348
0.471273,0.0956941,0.238912,-0.214176,0.0674658,0.116906,2.7348
0.491939,-0.278619,0.137298,-0.287407,0.0642832,0.156152,2.7348
0.439478,-0.664645,-0.119719,-0.345797,0.0582368,0.160293,2.7348
0.335327,-0.945967,-0.466519,-0.380966,0.0747468,0.134059,2.7348
0.157805,-0.966585,-0.836564,-0.387744,0.110248,0.0824654,2.7348
-0.00446137,-0.816018,-1.14995,-0.339653,0.137271,0.0324776,2.7348
-0.108956,-0.546765,-1.38919,-0.2891,0.178917,0.00238645,2.7348
-0.166098,-0.196967,-1.49828,-0.226722,0.210507,0.0103784,2.7348
-0.166098,-0.196967,-1.49828,-0.226722,0.210507,0.0103784,2.91449
-0.217864,0.0358412,-1.52204,-0.181741,0.223577,0.074308,2.91449
-0.247887,0.0146079,-1.51558,-0.142888,0.193624,0.16331,2.91449
-0.271858,-0.157216,-1.51989,-0.113405,0.151257,0.230793,2.91449
-0.330422,-0.312025,-1.5118,-0.0741534,0.109766,0.266044,2.91449
-0.432161,-0.405725,-1.50227,-0.0319175,0.0623752,0.273644,2.91449
-0.510704,-0.472599,-1.4499,0.0295952,0.0244842,0.249049,2.91449
-0.541809,-0.470033,-1.34716,0.088943,-0.00172344,0.201374,2.91449
-0.529351,-0.417826,-1.18601,0.148138,-0.0233716,0.148694,2.91449
-0.436679,-0.29503,-1.01321,0.193785,-0.0531529,0.0923364,2.91449
-0.280466,-0.117296,-0.818317,0.240923,-0.090296,0.0453878,2.91449
-0.161147,-0.0380359,-0.590549,0.293871,-0.111032,0.0395163,2.91449
-0.125337,-0.0144176,-0.329137,0.337096,-0.134465,0.0324723,2.91449
-0.133443,-0.0149242,-0.0732594,0.349312,-0.157715,-0.0100584,2.91449
-0.172262,0.024294,0.10801,0.354372,-0.190192,-0.0676117,2.91449
-0.330942,0.158405,0.231168,0.356342,-0.225734,-0.11672,2.91449
-0.511548,-0.00305864,0.30009,0.337406,-0.255809,-0.1931,2.91449
-0.660151,-0.659305,0.270271,0.261188,-0.248739,-0.33358,2.91449
-0.597898,-1.00326,0.26772,0.263792,-0.224484,-0.561686,2.91449
-0.362461,-0.77205,0.328638,0.245615,-0.118102,-0.745624,2.91449
-0.0397731,-0.0636198,0.562886,0.280927,-0.0227583,-0.782453,2.91449
0.311948,0.775767,0.959586,0.334612,0.054125,-0.658271,2.91449
0.651109,1.3595,1.33784,0.33594,0.10202,-0.394729,2.91449
0.825029,1.66587,1.68154,0.281419,0.149737,-0.069343,2.91449
0.854544,1.66986,1.95404,0.206604,0.174809,0.210951,2.91449
0.739846,1.32561,2.15166,0.147658,0.187305,0.423124,2.91449
0.554491,0.73641,2.30181,0.131203,0.172004,0.534919,2.91449
0.341732,0.013064,2.40947,0.134222,0.161112,0.555533,2.91449
0.132038,-0.563914,2.47118,0.124949,0.155742,0.486191,2.91449
-0.0696582,-0.992996,2.47163,0.100809,0.175023,0.346822,2.91449
-0.111735,-1.10883,2.38161,0.0789789,0.170156,0.129247,2.91449
-0.081461,-1.01708,2.16713,0.0609057,0.166641,-0.0681607,2.91449
-0.0664432,-0.741071,1.97632,0.112096,0.145549,-0.200669,2.91449
0.0380038,-0.401534,1.88338,0.197609,0.134635,-0.30305,2.91449
0.234153,-0.0544793,1.8595,0.239745,0.150947,-0.354558,2.91449
0.402638,0.202246,1.86901,0.247108,0.159502,-0.316614,2.91449
0.541844,0.226061,1.80571,0.233291,0.122137,-0.219651,2.91449
0.648671,0.187617,1.62663,0.2112,0.0823796,-0.13235,2.91449
0.638113,0.255078,1.38449,0.184997,0.0699664,-0.0525929,2.91449
0.548989,0.393416,1.16584,0.184416,0.0802553,0.00836992,2.91449
0.49342,0.501153,1.00684,0.19388,0.10579,0.0458214,2.91449
0.468949,0.535066,0.913335,0.203671,0.133438,0.0775236,2.91449
0.471585,0.55936,0.861552,0.209468,0.147498,0.100856,2.91449
0.446097,0.559258,0.775234,0.189189,0.149656,0.130377,2.91449
0.330177,0.53467,0.670523,0.179063,0.139251,0.161634,2.91449
0.169363,0.508621,0.569773,0.176118,0.123745,0.1667,2.91449
-0.0234759,0.478545,0.464709,0.171587,0.110249,0.1394,2.91449
-0.204576,0.491354,0.380027,0.174221,0.101638,0.0816765,2.91449
-0.357195,0.577327,0.304843,0.148812,0.0963199,0.00566608,2.91449
-0.436115,0.745091,0.246748,0.132449,0.0730372,-0.0652089,2.91449
-0.416449,0.981533,0.230013,0.123867,0.042088,-0.113769,2.91449
-0.536135,1.02665,0.210072,0.114022,0.00365499,-0.0748465,2.91449
-0.90396,0.708764,0.160315,0.0889938,-0.0209787,-0.0277879,2.91449
-1.20978,0.443732,0.0908591,0.0596292,-0.0599074,-0.139609,2.91449
-1.27947,0.5619,-0.00140932,0.0103141,-0.0509915,-0.318552,2.91449
-1.27947,0.5619,-0.00140932,0.0103141,-0.0509915,-0.318552,3.05981
-1.03297,1.04342,0.0327449,-0.00164796,-0.0172737,-0.458369,3.05981
-0.629971,1.48671,0.318765,0.0600584,0.0296454,-0.442296,3.05981
-0.325752,1.63248,0.835467,0.0833696,0.0988779,-0.275522,3.05981
-0.062495,1.48952,1.35466,0.0384483,0.131,-0.12035,3.05981
0.146911,1.04939,1.78164,-0.0502335,0.148221,0.00806022,3.05981
0.257813,0.351637,2.12964,-0.158965,0.147833,0.0941491,3.05981
0.352999,-0.356122,2.27327,-0.292758,0.122499,0.0968748,3.05981
0.368956,-0.818562,2.11264,-0.405182,0.0678195,0.0680128,3.05981
0.240901,-0.862847,1.59266,-0.511221,0.019955,0.0322771,3.05981
0.0572888,-0.587592,0.954454,-0.492548,-0.021409,0.0145754,3.05981
-0.107184,-0.158615,0.50319,-0.340029,-0.0304975,0.0321345,3.05981
-0.176955,0.137736,0.310307,-0.219099,0.0373742,0.0823546,3.05981
-0.087172,0.160782,0.297127,-0.112451,0.0608837,0.133357,3.05981
0.0863763,-0.0427121,0.323199,-0.0319311,0.0404227,0.180927,3.05981
0.164184,-0.279993,0.337195,0.00769714,0.0132495,0.230669,3.05981
0.0953483,-0.41477,0.2479,0.0205842,-0.023737,0.250807,3.05981
-0.0339948,-0.380567,0.0984227,0.0335831,-0.0539173,0.21072,3.05981
-0.187529,-0.249181,-0.0065449,0.0637832,-0.0577623,0.151426,3.05981
-0.265578,-0.0972072,-0.00648534,0.116756,-0.0508408,0.0899386,3.05981
-0.326849,-0.0983716,0.0731243,0.171845,-0.0410699,0.0639234,3.05981
-0.360705,-0.195776,0.221351,0.20074,-0.0511472,0.0220667,3.05981
-0.33273,-0.162153,0.300309,0.167236,-0.0579093,-0.0441735,3.05981
-0.254737,0.020971,0.317699,0.130156,-0.0774602,-0.0892534,3.05981
-0.126764,0.328722,0.351618,0.137278,-0.0920495,-0.103063,3.05981
-0.0588777,0.552429,0.444526,0.136219,-0.0671738,-0.0550904,3.05981
-0.00948972,0.612162,0.609425,0.153398,-0.0675444,-0.00232393,3.05981
0.0627096,0.521388,0.754972,0.135956,-0.0831306,0.019701,3.05981
0.152865,0.407962,0.851614,0.123022,-0.105152,-0.00461644,3.05981
0.128022,0.279571,0.873585,0.0987802,-0.110737,-0.0141566,3.05981
-0.0181809,0.264273,0.876634,0.0791597,-0.119748,-0.0460224,3.05981
-0.160935,0.34306,0.823318,0.042016,-0.116402,-0.129809,3.05981
-0.288643,0.366518,0.79669,0.0437149,-0.115121,-0.189016,3.05981
-0.367301,0.308892,0.791748,0.0464494,-0.107959,-0.259663,3.05981
-0.44814,0.133054,0.740676,0.0324176,-0.104038,-0.337007,3.05981
-0.553149,-0.0539673,0.664872,0.0230485,-0.100418,-0.428727,3.05981
-0.525789,-0.0113264,0.631807,0.0622429,-0.075587,-0.548223,3.05981
-0.347311,0.329318,0.66159,0.078131,-0.00392725,-0.628593,3.05981
-0.0890153,0.698387,0.873301,0.103734,0.0882625,-0.602296,3.05981
0.215772,0.963676,1.16514,0.118177,0.147899,-0.490568,3.05981
0.616637,1.06727,1.40398,0.100908,0.158448,-0.325334,3.05981
0.940469,1.18906,1.50315,0.0422266,0.174006,-0.13262,3.05981
0.968272,1.16412,1.48332,-0.0118952,0.178484,0.0887882,3.05981
0.736482,0.808122,1.408,-0.0288188,0.161204,0.253793,3.05981
0.418209,0.160002,1.19389,-0.0535377,0.128531,0.305219,3.05981
0.239027,-0.345883,0.842771,-0.068494,0.0743966,0.206043,3.05981
0.202168,-0.346196,0.456889,-0.0676596,0.0825758,0.0450824,3.05981
0.238668,0.0545835,0.225761,-0.00966652,0.135321,-0.0502262,3.05981
0.351013,0.466423,0.2366,0.0790824,0.198948,-0.0490432,3.05981
0.459434,0.66018,0.413538,0.154004,0.235177,0.0281006,3.05981
0.515141,0.582929,0.650262,0.156901,0.239551,0.128971,3.05981
0.592665,0.402582,0.721203,0.0909218,0.198914,0.178014,3.05981
0.613095,0.191051,0.636138,0.052366,0.149814,0.216272,3.05981
0.484116,0.0593917,0.533253,0.0502069,0.125302,0.247686,3.05981
0.329422,-0.0562388,0.47843,0.0590896,0.129063,0.236862,3.05981
0.329422,-0.0562388,0.47843,0.0590896,0.129063,0.236862,3.16286
0.290552,-0.0580057,0.448738,0.0720434,0.137681,0.171084,3.16286
0.272835,0.037628,0.447072,0.0751861,0.14731,0.130527,3.16286
0.192065,0.164173,0.426547,0.0570192,0.142622,0.129531,3.16286
0.116494,0.187069,0.385492,0.0467807,0.129699,0.142094,3.16286
0.0292029,0.126428,0.365457,0.0488511,0.124893,0.155009,3.16286
-0.0475859,0.0563527,0.368563,0.0497462,0.123914,0.148704,3.16286
-0.0869137,0.0169857,0.363747,0.0557532,0.119772,0.127237,3.16286
-0.123935,-0.00240314,0.42101,0.0741118,0.12133,0.107307,3.16286
-0.137507,-0.0141403,0.526429,0.0814986,0.124257,0.0880052,3.16286
-0.112562,-0.000901603,0.569866,0.0543462,0.104288,0.0614427,3.16286
-0.0809277,0.0143909,0.568531,0.0412615,0.0735058,0.050118,3.16286
-0.12096,-0.037239,0.567753,0.0464357,0.0577217,0.063895,3.16286
-0.195221,-0.129808,0.610641,0.0615668,0.0480339,0.0592068,3.16286
-0.210824,-0.206483,0.638212,0.0533354,0.0299791,0.00644845,3.16286
-0.169803,-0.237729,0.610935,0.0235792,0.00482893,-0.0667372,3.16286
-0.1497,-0.30545,0.539179,0.010402,-0.0189577,-0.12082,3.16286
-0.248906,-0.444113,0.457101,0.0104356,-0.0276137,-0.134595,3.16286
-0.431888,-0.631158,0.38524,0.0110186,-0.025151,-0.171137,3.16286
-0.603438,-0.75828,0.308165,-0.0102581,-0.0208432,-0.263245,3.16286
-0.671554,-0.728984,0.226079,-0.0224108,-0.0399255,-0.385301,3.16286
-0.628831,-0.531328,0.106461,-0.0322772,-0.0532072,-0.474219,3.16286
-0.532741,-0.238442,-0.0187284,-0.0428781,-0.0552565,-0.503319,3.16286
-0.433207,-0.0802517,-0.111714,-0.0305389,-0.0425727,-0.451171,3.16286
-0.324241,0.00913777,-0.141043,-0.00954688,-0.0311363,-0.371418,3.16286
-0.184532,0.15574,-0.153679,-0.00807245,-0.0240662,-0.292161,3.16286
0.0639028,0.216121,-0.130398,-0.00872756,-0.00575367,-0.21114,3.16286
0.29904,0.319548,-0.145416,-0.0299713,0.0234318,-0.105518,3.16286
0.29935,0.368431,-0.162443,-0.0586797,0.0531259,0.0316597,3.16286
0.197342,0.221025,-0.145307,-0.085039,0.0646387,0.11521,3.16286
0.22072,-0.0787415,-0.118273,-0.113697,0.0737062,0.105627,3.16286
0.309156,-0.297851,-0.0946512,-0.167574,0.102295,0.0580534,3.16286
0.401285,-0.364439,-0.136751,-0.22498,0.119371,0.025254,3.16286
0.469954,-0.338304,-0.255806,-0.221793,0.111391,0.0464661,3.16286
0.413273,-0.0216361,-0.41019,-0.198624,0.116091,0.104889,3.16286
0.248261,0.325354,-0.519372,-0.169695,0.123136,0.198086,3.16286
0.165532,0.416254,-0.564679,-0.131632,0.115585,0.269813,3.16286
0.161991,0.181388,-0.545635,-0.0880032,0.103227,0.319167,3.16286
0.191545,-0.144679,-0.494261,-0.0713347,0.0946136,0.327196,3.16286
0.217752,-0.451765,-0.460428,-0.068278,0.0858815,0.297282,3.16286
0.259162,-0.559647,-0.484381,-0.0605429,0.0704881,0.227075,3.16286
0.220975,-0.469429,-0.513149,-0.0540037,0.0722039,0.18062,3.16286
0.140416,-0.292576,-0.540536,-0.0455528,0.0653132,0.150823,3.16286
0.0935095,-0.188503,-0.590407,-0.0402073,0.0619346,0.132033,3.16286
0.0707165,-0.167744,-0.60295,-0.0210279,0.0531262,0.124831,3.16286
0.0483785,-0.184962,-0.581939,-0.0152769,0.0518997,0.120506,3.16286
0.0322368,-0.167576,-0.564979,-0.0199636,0.0378026,0.109691,3.16286
-0.00908316,-0.163899,-0.587356,-0.0297763,0.0219738,0.114028,3.16286
-0.0495269,-0.147674,-0.614398,-0.0239433,0.00790009,0.106427,3.16286
-0.11369,-0.0598788,-0.600354,-0.0107692,0.00514135,0.097559,3.16286
-0.203186,-0.0773178,-0.565245,0.0138518,-0.0201241,0.105704,3.16286
-0.241943,-0.0580089,-0.547714,0.0084559,-0.0318744,0.0703081,3.16286
-0.235223,-0.0274743,-0.480089,0.00875631,-0.0446819,0.0314939,3.16286
-0.150959,-0.0648799,-0.387617,0.0286821,-0.057075,0.0094651,3.16286
-0.0576593,-0.0917298,-0.321106,0.0290918,-0.0808294,-0.0107127,3.16286
-0.0576593,-0.0917298,-0.321106,0.0290918,-0.0808294,-0.0107127,3.22893
-0.032964,0.0239934,-0.314386,0.0102284,-0.0996717,-0.0335125,3.22893
-0.0538679,0.165548,-0.366792,-0.0142325,-0.120874,-0.0504767,3.22893
-0.11354,0.244433,-0.364966,-0.00134556,-0.131438,-0.0651119,3.22893
-0.0968186,0.252953,-0.353188,-0.00437995,-0.129668,-0.122573,3.22893
-0.00703791,0.145582,-0.32407,0.0259163,-0.137541,-0.172969,3.22893
0.122968,0.111447,-0.264982,0.0552315,-0.145521,-0.231362,3.22893
0.234541,0.191544,-0.207902,0.0637947,-0.122792,-0.269053,3.22893
0.224657,0.329367,-0.166923,0.0597027,-0.103262,-0.253512,3.22893
0.0378862,0.356931,-0.155467,0.0669323,-0.103786,-0.202037,3.22893
-0.190281,0.229762,-0.179308,0.0675156,-0.124204,-0.192153,3.22893
-0.30852,0.035668,-0.24519,0.0432781,-0.123129,-0.252016,3.22893
-0.296499,0.0181635,-0.272257,0.0443658,-0.0916648,-0.32664,3.22893
-0.217849,0.177754,-0.232842,0.0719099,-0.0518325,-0.354662,3.22893
-0.0237597,0.403884,-0.0531644,0.106565,0.00396013,-0.319927,3.22893
0.225637,0.597961,0.196749,0.124023,0.0606574,-0.211672,3.22893
0.445782,0.727891,0.435755,0.111866,0.0910326,-0.0662151,3.22893
0.545676,0.826651,0.556302,0.0570304,0.101369,0.0673562,3.22893
0.491608,0.708894,0.610515,0.0263287,0.086053,0.180117,3.22893
0.371355,0.352153,0.628891,0.0287817,0.0685221,0.227614,3.22893
0.261518,-0.0628928,0.628235,0.0551128,0.0418741,0.204355,3.22893
0.193568,-0.227271,0.544182,0.0404033,0.0317577,0.12875,3.22893
0.17589,-0.0981794,0.416078,0.014632,0.0408235,0.0534493,3.22893
0.220516,0.134446,0.339836,0.0158131,0.0627679,0.0201157,3.22893
0.307177,0.361768,0.366087,0.0343514,0.104589,0.0396502,3.22893
0.404832,0.441011,0.461921,0.0503629,0.125811,0.0971383,3.22893
0.46413,0.465107,0.5071,0.0459479,0.117674,0.15542,3.22893
0.455053,0.421606,0.510834,0.0456878,0.11402,0.217808,3.22893
0.410349,0.442504,0.452887,0.0432896,0.0954519,0.22645,3.22893
0.355793,0.490382,0.384734,0.03488,0.092328,0.226491,3.22893
0.24793,0.451032,0.340319,0.0195056,0.104714,0.237197,3.22893
0.115781,0.368912,0.344786,0.0375595,0.0993247,0.2299,3.22893
0.0248747,0.258995,0.385111,0.0559749,0.0912042,0.202588,3.22893
-0.0128816,0.15918,0.430996,0.0433635,0.0925281,0.167099,3.22893
-0.0678075,0.107464,0.42443,0.0200905,0.0788985,0.155048,3.22893
-0.148404,0.125537,0.375418,0.000164017,0.0555255,0.134968,3.22893
-0.250323,0.130417,0.296409,0.00048095,0.0162004,0.112858,3.22893
-0.311543,0.0505775,0.240984,0.0363359,0.01244,0.0896775,3.22893
-0.311166,0.126141,0.262776,0.0552671,0.0194968,0.030617,3.22893
-0.248454,0.301533,0.343021,0.0554881,0.0265818,-0.0197467,3.22893
-0.173139,0.329982,0.420195,0.0503452,0.0244647,-0.0347371,3.22893
-0.51749,-0.0820547,0.423189,0.0711596,-0.0615228,0.245544,3.22893
-0.624748,-0.417758,0.308824,0.0450401,-0.0798979,0.124105,3.22893
-0.412586,-0.317462,0.232197,0.0478496,-0.0682466,-0.102911,3.22893
-0.299798,-0.148388,0.173093,0.0596302,-0.0670618,-0.166843,3.22893
-0.444354,-0.10215,0.119244,0.0705937,-0.0951761,-0.132042,3.22893
-0.601693,-0.32688,0.205054,0.141899,-0.0798831,-0.104357,3.22893
-0.623319,-0.504547,0.313435,0.120211,-0.0496131,-0.182228,3.22893
-0.540461,-0.525358,0.392796,0.0860275,-0.0706063,-0.266734,3.22893
-0.438842,-0.503553,0.370077,0.0368705,-0.0735507,-0.312555,3.22893
-0.414796,-0.437928,0.286369,0.00543126,-0.0750793,-0.325821,3.22893
-0.514638,-0.376975,0.117908,-0.02588,-0.0767662,-0.326481,3.22893
-0.68622,-0.416271,-0.084828,-0.03532,-0.100254,-0.337093,3.22893
-0.683973,-0.491807,-0.233178,-0.0270344,-0.111762,-0.407529,3.22893
-0.430298,-0.428018,-0.267701,-0.00426422,-0.0905352,-0.483133,3.22893
-0.430298,-0.428018,-0.267701,-0.00426422,-0.0905352,-0.483133,3.30026
-0.0505881,-0.134596,-0.198199,0.00934561,-0.0346375,-0.472702,3.30026
0.302817,0.139904,-0.0519488,0.00186537,0.0246553,-0.342626,3.30026
0.543901,0.212198,0.0606687,-0.030695,0.0569685,-0.164606,3.30026
0.609485,0.0958139,0.0758499,-0.068048,0.0554609,0.00537205,3.30026
0.50064,-0.0967443,-0.00317702,-0.110704,0.0576219,0.11128,3.30026
0.334946,-0.249731,-0.0918317,-0.154803,0.0715809,0.12586,3.30026
0.336156,-0.280697,-0.168929,-0.190591,0.102667,0.0471025,3.30026
0.476288,-0.249338,-0.188364,-0.187528,0.138886,-0.00559831,3.30026
0.60177,-0.106783,-0.189988,-0.176669,0.158823,0.0138857,3.30026
0.638161,0.0923106,-0.182984,-0.158202,0.182327,0.0928423,3.30026
0.586245,0.244349,-0.183114,-0.131714,0.180169,0.189915,3.30026
0.531043,0.229644,-0.192076,-0.114124,0.160245,0.25595,3.30026
0.528324,0.0981046,-0.211079,-0.105424,0.13719,0.287127,3.30026
0.317211,-0.231602,-0.251797,-0.0975425,0.131979,0.36862,3.30026
0.12314,-0.636056,-0.386452,-0.0844687,0.103316,0.401963,3.30026
0.0538995,-0.593961,-0.460025,-0.103062,0.112409,0.259608,3.30026
0.0586153,-0.459702,-0.503919,-0.0798979,0.14065,0.17007,3.30026
0.0791279,-0.263858,-0.497419,-0.0458016,0.119178,0.128605,3.30026
0.078589,-0.191508,-0.514536,-0.0402673,0.109154,0.131932,3.30026
0.0929414,-0.178954,-0.499443,-0.0312946,0.0977083,0.117882,3.30026
0.0741639,-0.217018,-0.491339,-0.034177,0.0882229,0.115195,3.30026
-0.00353198,-0.235627,-0.505972,-0.0332803,0.0745527,0.115989,3.30026
-0.0987525,-0.21434,-0.528125,-0.0379529,0.0650688,0.0918153,3.30026
-0.183043,-0.16133,-0.54883,-0.0378558,0.0508593,0.0621847,3.30026
-0.223408,-0.142476,-0.548933,-0.0326052,0.0354543,0.0456449,3.30026
-0.217952,-0.116754,-0.539464,-0.0292069,0.0238262,0.0324495,3.30026
-0.232235,-0.111365,-0.519178,-0.0232278,0.011945,0.0441211,3.30026
-0.261476,-0.137466,-0.488845,-0.0193082,-0.000446647,0.0612683,3.30026
-0.246252,-0.139378,-0.469993,-0.029117,-0.0158427,0.047605,3.30026
-0.225468,-0.115064,-0.47665,-0.0317344,-0.0357188,0.0440007,3.30026
-0.255252,-0.0358688,-0.499001,-0.0383832,-0.0466374,0.0546197,3.30026
-0.30503,-0.0029355,-0.530795,-0.0390142,-0.0605823,0.0674914,3.30026
-0.338682,-0.000578483,-0.569493,-0.0352528,-0.0764318,0.0687857,3.30026
-0.358351,-0.0102182,-0.581128,-0.027868,-0.0764771,0.0521082,3.30026
-0.240888,-0.0734957,-0.545343,-0.000163551,-0.093593,0.00539535,3.30026
-0.0369905,-0.0678368,-0.496113,0.0249125,-0.106587,-0.0630581,3.30026
0.0354537,-0.0227842,-0.401737,0.0600314,-0.093821,-0.0504563,3.30026
-0.0560449,0.0165579,-0.320367,0.0533889,-0.101698,-0.00397068,3.30026
-0.157443,-0.0648359,-0.248813,0.0512405,-0.107877,-2.70009e-05,3.30026
-0.173976,-0.0650819,-0.199117,0.0359457,-0.11276,-0.0508813,3.30026
-0.149641,-0.00917034,-0.161791,0.0398476,-0.124959,-0.0906527,3.30026
-0.110382,0.0382115,-0.124382,0.0328304,-0.12536,-0.109316,3.30026
-0.0286693,0.0254504,-0.0543391,0.0249126,-0.124685,-0.131218,3.30026
0.0848986,-0.126703,0.00263328,0.0108166,-0.106844,-0.148685,3.30026
0.142141,-0.192205,-0.0210149,-0.00587076,-0.100837,-0.165631,3.30026
0.0994147,-0.0344701,-0.129725,-0.0263615,-0.10673,-0.184724,3.30026
0.00468603,0.244738,-0.283227,-0.0303964,-0.107903,-0.193377,3.30026
-0.136497,0.386768,-0.422737,0.000322826,-0.107088,-0.175443,3.30026
-0.354154,0.276578,-0.503832,0.0469417,-0.105249,-0.145872,3.30026
-0.619744,0.0218676,-0.590266,0.0681524,-0.107924,-0.18263,3.30026
-0.743175,-0.101249,-0.64586,0.0784232,-0.109651,-0.307668,3.30026
-0.532027,0.0268502,-0.55529,0.127736,-0.0662784,-0.433359,3.30026
-0.143549,0.384628,-0.279344,0.189679,0.0103078,-0.431139,3.30026
-0.143549,0.384628,-0.279344,0.189679,0.0103078,-0.431139,3.38481
0.145499,0.629173,0.138112,0.209083,0.0837371,-0.270488,3.38481
0.300025,0.594957,0.584487,0.211401,0.0974199,-0.0789121,3.38481
0.401038,0.394996,0.882639,0.154916,0.0805593,0.0386697,3.38481
0.413162,0.0926468,0.98313,0.093254,0.0454931,0.112216,3.38481
0.290668,-0.190631,0.930618,0.0385619,0.0230346,0.147296,3.38481
0.113318,-0.30886,0.774412,0.000272602,0.0114187,0.127596,3.38481
0.0199404,-0.243783,0.590446,-0.0160282,0.0190641,0.0784267,3.38481
0.0750312,-0.100846,0.483506,-0.0016022,0.0562499,0.057417,3.38481
0.199622,0.0339776,0.46794,0.0185583,0.104345,0.0865862,3.38481
0.328134,0.170378,0.556243,0.0530168,0.134944,0.156421,3.38481
0.458461,0.244689,0.656258,0.0633913,0.159412,0.239345,3.38481
0.501675,0.20103,0.721386,0.0703714,0.168122,0.340381,3.38481
0.434171,0.136834,0.724448,0.0684272,0.16199,0.40884,3.38481
0.290489,0.0855095,0.66162,0.0510414,0.156864,0.433571,3.38481
0.141031,0.0154535,0.573673,0.0538308,0.138189,0.411228,3.38481
0.00567536,-0.091236,0.533499,0.0808048,0.131767,0.36137,3.38481
-0.101496,-0.234681,0.601189,0.127611,0.121455,0.285116,3.38481
-0.179425,-0.373396,0.660351,0.11535,0.111451,0.179733,3.38481
-0.239418,-0.340564,0.691679,0.0899231,0.0931441,0.0663368,3.38481
-0.253876,-0.140407,0.631408,0.0561758,0.0579658,-0.0393454,3.38481
-0.284655,0.0622124,0.489979,0.0253299,0.0270921,-0.0975794,3.38481
-0.346689,0.211266,0.354249,0.0475643,0.00025326,-0.1131,3.38481
-0.443027,0.265327,0.311833,0.0740023,-0.0022338,-0.103421,3.38481
-0.408174,0.329581,0.358277,0.0966134,0.00386631,-0.119796,3.38481
-0.283142,0.42055,0.437476,0.0976824,0.00883645,-0.106964,3.38481
-0.181504,0.494359,0.525117,0.0894821,0.00792715,-0.0408177,3.38481
-0.152954,0.538685,0.603253,0.0815171,-0.00155264,0.0460953,3.38481
-0.208876,0.504835,0.643841,0.0507779,-0.0138317,0.122069,3.38481
-0.245489,0.402283,0.671898,0.0372017,-0.0323209,0.155723,3.38481
-0.288561,0.219891,0.686716,0.0309474,-0.0399294,0.169235,3.38481
-0.323067,0.0741951,0.738511,0.0473137,-0.054138,0.145859,3.38481
-0.313211,-0.0383029,0.77784,0.0411677,-0.0650334,0.0860453,3.38481
-0.267608,-0.0726045,0.813903,0.0427509,-0.0852446,0.00641292,3.38481
-0.265532,-0.0754887,0.806134,0.0212964,-0.100162,-0.0432659,3.38481
-0.274127,-0.103207,0.730408,-0.00305718,-0.127384,-0.0889804,3.38481
-0.330727,-0.187463,0.560882,-0.0439813,-0.129366,-0.137695,3.38481
-0.497632,-0.311738,0.349032,-0.0546659,-0.135379,-0.193918,3.38481
-0.632318,-0.420502,0.195418,-0.00293094,-0.149465,-0.2915,3.38481
-0.64243,-0.326485,0.120992,0.0334435,-0.13624,-0.408568,3.38481
-0.520748,-0.0216618,0.146226,0.0528823,-0.112382,-0.495015,3.38481
-0.399276,0.171399,0.219263,0.0583424,-0.0931743,-0.480497,3.38481
-0.440445,0.0672053,0.219537,0.0471404,-0.108473,-0.400538,3.38481
-0.505405,-0.183713,0.154567,0.0152297,-0.136705,-0.39032,3.38481
-0.338257,-0.308529,0.0610247,-0.00966889,-0.124875,-0.4794,3.38481
-0.0536422,-0.118582,0.00967751,-0.00754636,-0.0821991,-0.514278,3.38481
0.232535,0.292688,0.0769987,0.0186661,-0.024057,-0.442185,3.38481
0.545734,0.631136,0.219839,0.0309662,0.03296,-0.29604,3.38481
0.753138,0.736045,0.313124,0.0121498,0.0674732,-0.101355,3.38481
0.744182,0.537228,0.366313,-0.0237965,0.0883677,0.0832564,3.38481
0.621244,0.0928893,0.418318,-0.0370447,0.0984961,0.181941,3.38481
0.532714,-0.233945,0.416123,-0.0639673,0.109138,0.166634,3.38481
0.514361,-0.247409,0.33878,-0.117268,0.13858,0.100614,3.38481
0.552605,-0.0389725,0.262844,-0.134746,0.169356,0.0811183,3.38481
0.620876,0.259165,0.250074,-0.114138,0.200307,0.133231,3.38481
0.620876,0.259165,0.250074,-0.114138,0.200307,0.133231,3.52222
0.665138,0.484192,0.296307,-0.0887202,0.220562,0.242858,3.52222
0.658639,0.55188,0.362889,-0.0797511,0.225154,0.370316,3.52222
0.60654,0.435194,0.436562,-0.0775046,0.214418,0.473721,3.52222
0.531237,0.192447,0.469209,-0.0809826,0.186637,0.524522,3.52222
0.446415,-0.0582485,0.404195,-0.0897485,0.144052,0.529305,3.52222
0.313643,-0.259339,0.275479,-0.102927,0.116252,0.502552,3.52222
0.12054,-0.406462,0.173742,-0.0834498,0.108739,0.448484,3.52222
-0.0839858,-0.500464,0.145856,-0.0470905,0.101747,0.356942,3.52222
-0.181349,-0.512606,0.0998782,-0.0544334,0.0784201,0.215258,3.52222
-0.16823,-0.397394,-0.00385721,-0.0508465,0.0435109,0.0752494,3.52222
-0.22357,-0.205853,-0.125113,-0.0581857,0.0418854,0.0150446,3.52222
-0.329898,0.0312407,-0.157525,-0.0258471,0.0455155,-0.0112442,3.52222
-0.404641,0.167353,-0.109407,0.0141366,0.0465311,-0.0259097,3.52222
-0.420727,0.222458,-0.00534759,0.0362129,0.0382135,-0.0338265,3.52222
-0.37534,0.280381,0.105864,0.0507217,0.00736272,-0.0391219,3.52222
-0.285999,0.323888,0.214368,0.0355725,-0.0114333,-0.0306306,3.52222
-0.208143,0.34112,0.303886,0.0214325,-0.0298887,0.00635827,3.52222
-0.224477,0.303153,0.350214,-0.00880766,-0.0478438,0.056835,3.52222
-0.247983,0.208457,0.353414,-0.0360991,-0.0779582,0.0813621,3.52222
-0.247962,0.105094,0.288767,-0.0548822,-0.1038,0.076236,3.52222
-0.229234,0.104401,0.25277,-0.0500316,-0.111709,0.0653734,3.52222
-0.2249,0.206466,0.229041,-0.0524819,-0.102424,0.0615686,3.52222
-0.209148,0.312886,0.223166,-0.0511355,-0.102643,0.0727181,3.52222
-0.165083,0.326237,0.203702,-0.0425089,-0.110878,0.0893353,3.52222
-0.137675,0.262833,0.185134,-0.0308072,-0.111792,0.110727,3.52222
-0.137247,0.197542,0.20588,-0.00307815,-0.10867,0.110653,3.52222
-0.100357,0.203287,0.263617,0.0167865,-0.102421,0.077903,3.52222
-0.00419322,0.257154,0.340441,0.029058,-0.0924968,0.0383879,3.52222
0.0433906,0.299878,0.406852,0.0278096,-0.0827016,0.0372682,3.52222
0.00271619,0.252714,0.463213,0.0243012,-0.0895452,0.0427854,3.52222
-0.0382841,0.15804,0.508179,0.021497,-0.092043,0.00639147,3.52222
-0.0251523,0.147825,0.54187,0.0175286,-0.0913751,-0.0713558,3.52222
0.0244363,0.245147,0.545916,0.00573944,-0.0972728,-0.142044,3.52222
0.0292875,0.300264,0.530225,0.00804028,-0.113614,-0.167406,3.52222
-0.0630422,0.228052,0.481445,-0.0007778,-0.123326,-0.166021,3.52222
-0.22726,0.0662635,0.329695,-0.0315518,-0.128232,-0.196161,3.52222
-0.324226,0.0104339,0.200766,-0.0230341,-0.119581,-0.271417,3.52222
-0.232971,0.272348,0.170842,0.025453,-0.078828,-0.3569,3.52222
-0.0350776,0.706397,0.261494,0.0575929,-0.0118692,-0.347892,3.52222
0.0991582,0.985116,0.454414,0.0904284,0.0363161,-0.206465,3.52222
0.185137,1.038,0.596921,0.0818348,0.0388305,-0.0385098,3.52222
0.195963,0.905908,0.656099,0.0527676,0.0387956,0.109413,3.52222
0.193433,0.676829,0.74891,0.0654436,0.0511982,0.210426,3.52222
0.198169,0.503269,0.876687,0.0813593,0.077804,0.256,3.52222
0.13882,0.354901,0.997499,0.0781433,0.108245,0.28727,3.52222
0.0604146,0.199877,1.09798,0.0872271,0.107326,0.285818,3.52222
-0.0208183,-0.00491278,1.13452,0.0919357,0.0927845,0.255295,3.52222
-0.123493,-0.222064,1.12509,0.109772,0.0710276,0.202793,3.52222
-0.250575,-0.288204,1.09116,0.132482,0.0607835,0.108735,3.52222
-0.383963,-0.182739,0.999044,0.121069,0.0564815,0.0053342,3.52222
-0.458633,-0.0553606,0.875131,0.116869,0.0423155,-0.0897895,3.52222
-0.399919,-0.037146,0.801121,0.127299,0.045501,-0.171277,3.52222
-0.179951,-0.0429366,0.846413,0.180401,0.0514674,-0.236865,3.52222
0.0781544,0.132269,0.958373,0.21865,0.0718712,-0.24748,3.52222
0.0781544,0.132269,0.958373,0.21865,0.0718712,-0.24748,3.68869
0.203265,0.422851,1.0648,0.2093,0.0988377,-0.173405,3.68869
0.174725,0.526506,1.11995,0.18366,0.0913035,-0.0402246,3.68869
0.104825,0.427672,1.10238,0.158278,0.0612018,0.0549521,3.68869
0.00865603,0.250619,1.0499,0.142973,0.0448797,0.102104,3.68869
-0.0793039,0.140273,0.987487,0.136717,0.0339069,0.0981874,3.68869
-0.134001,0.148332,0.94522,0.131706,0.0393611,0.0649267,3.68869
-0.164543,0.173865,0.933508,0.128541,0.0505287,0.0350249,3.68869
-0.201887,0.154845,0.933345,0.115385,0.0555587,0.0188621,3.68869
-0.205536,0.13198,0.921626,0.0981242,0.0516968,-0.00250089,3.68869
-0.196034,0.129828,0.895796,0.0737041,0.0458814,-0.0205402,3.68869
-0.184513,0.163938,0.863157,0.0514007,0.037881,-0.0319515,3.68869
-0.177783,0.194754,0.83209,0.032039,0.0315647,-0.0307325,3.68869
-0.15122,0.209345,0.81892,0.0193734,0.0255982,-0.0282007,3.68869
-0.101454,0.232163,0.785352,-0.00616107,0.0181175,-0.018696,3.68869
-0.0719973,0.223319,0.752669,-0.0163207,0.0140791,0.0112473,3.68869
-0.0629882,0.230593,0.752734,-0.00819144,-0.00106218,0.0432584,3.68869
-0.0823158,0.191837,0.751129,-0.0133075,-0.0141878,0.0792416,3.68869
-0.128053,0.163707,0.720249,-0.0218126,-0.0417669,0.102592,3.68869
-0.177136,0.102479,0.663122,-0.0371971,-0.0695126,0.106374,3.68869
-0.18305,0.00904561,0.601402,-0.029198,-0.0969043,0.0951433,3.68869
-0.186045,-0.0559666,0.557892,-0.00672409,-0.117869,0.068333,3.68869
-0.230759,-0.116015,0.524147,0.0127239,-0.131224,0.043512,3.68869
-0.26337,-0.169426,0.515699,0.0430263,-0.150221,-0.00608373,3.68869
-0.240908,-0.166517,0.514293,0.0535984,-0.160218,-0.0834734,3.68869
-0.166016,-0.0887102,0.501823,0.057764,-0.176366,-0.155672,3.68869
-0.136908,-0.0281324,0.464471,0.0718452,-0.19327,-0.175987,3.68869
-0.204128,-0.069484,0.441611,0.0835846,-0.202924,-0.173333,3.68869
-0.271518,-0.20141,0.429607,0.0962928,-0.202038,-0.213384,3.68869
-0.325227,-0.383883,0.385114,0.0671893,-0.180934,-0.309991,3.68869
-0.392619,-0.451801,0.317508,0.0563647,-0.154972,-0.40955,3.68869
-0.41141,-0.305525,0.246275,0.0743758,-0.144236,-0.499704,3.68869
-0.34087,-0.0440456,0.229006,0.10209,-0.110211,-0.541482,3.68869
-0.204037,0.133541,0.290052,0.120837,-0.0582979,-0.504318,3.68869
-0.0345396,0.185774,0.381543,0.122771,-0.00828251,-0.42066,3.68869
0.171562,0.240062,0.472125,0.102057,0.0380611,-0.332299,3.68869
0.451603,0.3738,0.528323,0.0717668,0.079141,-0.239816,3.68869
0.654629,0.457367,0.533653,0.0401692,0.126296,-0.111465,3.68869
0.668201,0.458029,0.552812,0.0153522,0.159809,0.0250057,3.68869
0.550668,0.231511,0.536298,-0.0332337,0.183435,0.110976,3.68869
0.407264,-0.103507,0.477715,-0.098637,0.211561,0.120835,3.68869
0.43837,-0.334054,0.360248,-0.152332,0.217944,0.032574,3.68869
0.598965,-0.348155,0.182086,-0.172933,0.227625,-0.043942,3.68869
0.6618,-0.0768066,0.0843038,-0.126443,0.257141,-0.0228024,3.68869
0.5692,0.353149,0.0863817,-0.0677972,0.277281,0.0691429,3.68869
0.440689,0.548114,0.142087,-0.0363873,0.277644,0.186737,3.68869
0.408148,0.44532,0.232882,-0.0173253,0.243801,0.265858,3.68869
0.46064,0.202293,0.303408,-0.0170907,0.209888,0.308933,3.68869
0.490709,0.0138996,0.333555,-0.0210759,0.187601,0.328058,3.68869
0.428688,-0.0222055,0.318627,-0.0213292,0.168145,0.343062,3.68869
0.281409,0.0356519,0.274549,-0.0160317,0.14779,0.337785,3.68869
0.121297,0.114848,0.225818,-0.016108,0.129098,0.306571,3.68869
0.0156951,0.130936,0.215597,-0.00582023,0.107872,0.264018,3.68869
-0.0249777,-0.0299255,0.255389,0.0156825,0.091495,0.219932,3.68869
-0.00323358,-0.280349,0.325596,0.0255961,0.0791702,0.150457,3.68869
-0.00323358,-0.280349,0.325596,0.0255961,0.0791702,0.150457,3.88422
0.0496978,-0.341395,0.341431,0.015487,0.065822,0.0548772,3.88422
0.0139709,-0.169371,0.308993,0.00201397,0.0569764,-0.0024845,3.88422
-0.0716938,0.0886359,0.255931,-0.0133808,0.0472211,-0.0392455,3.88422
-0.0961213,0.284057,0.224271,-0.02143,0.0365832,-0.0620497,3.88422
-0.0507508,0.328979,0.240368,-0.00488492,0.0285235,-0.0503731,3.88422
-0.0472183,0.318708,0.292369,0.000184752,0.0324261,-0.00499094,3.88422
-0.0587731,0.315742,0.348779,-0.0157327,0.0299164,0.027518,3.88422
-0.0459068,0.24731,0.360658,-0.0340703,0.0182882,0.0468153,3.88422
-0.0173128,0.200739,0.374443,-0.0387246,0.00331369,0.0622252,3.88422
0.0156452,0.218885,0.366009,-0.0515396,-0.00525147,0.074124,3.88422
0.00615229,0.26611,0.339078,-0.0643808,-0.0102897,0.0999152,3.88422
-0.0499541,0.237288,0.298864,-0.0746611,-0.0191455,0.126396,3.88422
-0.109861,0.176286,0.236452,-0.0732808,-0.0336056,0.128043,3.88422
-0.200604,0.158732,0.156514,-0.0636384,-0.0448331,0.100061,3.88422
-0.244508,0.194104,0.101461,-0.0657779,-0.0413332,0.038844,3.88422
-0.204508,0.135887,0.106875,-0.0486841,-0.0335613,-0.0211691,3.88422
-0.0921707,0.127097,0.131005,-0.0230807,-0.0417305,-0.0908005,3.88422
-0.0286328,0.184121,0.137444,-0.0344447,-0.0318452,-0.127119,3.88422
-0.0420594,0.208385,0.152525,-0.0137582,-0.0397041,-0.137268,3.88422
-0.0726686,0.207181,0.15516,-0.00706802,-0.0586481,-0.165144,3.88422
-0.0836885,0.237765,0.124025,-0.0197877,-0.0783373,-0.222795,3.88422
-0.121856,0.303392,0.0697034,-0.0242366,-0.0920652,-0.265622,3.88422
-0.194583,0.405589,-0.028083,-0.036413,-0.103347,-0.299913,3.88422
-0.267199,0.480792,-0.150599,-0.042639,-0.100514,-0.322104,3.88422
-0.318101,0.494366,-0.219089,-0.0123588,-0.0843504,-0.329034,3.88422
-0.310444,0.471107,-0.188625,0.0368722,-0.0550396,-0.324124,3.88422
-0.273984,0.433021,-0.0648298,0.0773924,-0.0199661,-0.294072,3.88422
-0.201259,0.409127,0.100708,0.0960713,-0.00526428,-0.25143,3.88422
-0.0680527,0.40358,0.244461,0.0782308,0.00691754,-0.213824,3.88422
0.172185,0.417057,0.390066,0.0675487,0.0224978,-0.160719,3.88422
0.413056,0.452903,0.5487,0.0796817,0.0479449,-0.0549347,3.88422
0.422656,0.408333,0.692777,0.077789,0.0721232,0.105646,3.88422
0.231102,0.175995,0.786561,0.0675615,0.0586065,0.223872,3.88422
0.00127203,-0.202652,0.742173,0.0410577,0.0301421,0.251217,3.88422
-0.096919,-0.351716,0.594618,0.0143971,-0.00643787,0.15307,3.88422
-0.0634315,-0.194662,0.43992,1.46031e-06,0.0206926,0.0487841,3.88422
0.085095,0.159727,0.388618,0.021429,0.0675132,0.0101271,3.88422
0.262403,0.335487,0.470135,0.0509217,0.115223,0.085997,3.88422
0.338604,0.282695,0.563989,0.071908,0.132911,0.22552,3.88422
0.30734,0.208662,0.629672,0.0557328,0.137621,0.325059,3.88422
0.259031,0.149024,0.628014,0.0363265,0.125432,0.363867,3.88422
0.200338,0.0895627,0.589739,0.0256903,0.113731,0.365444,3.88422
0.122067,0.0530843,0.590013,0.0450534,0.103334,0.339045,3.88422
0.0294628,-0.0091403,0.620105,0.0572551,0.102493,0.296388,3.88422
-0.082585,-0.0955627,0.647644,0.05802,0.0875204,0.238008,3.88422
-0.163251,-0.16629,0.639517,0.0428077,0.0648517,0.157411,3.88422
-0.169336,-0.148919,0.557372,0.00714447,0.0415781,0.0551854,3.88422
-0.163758,-0.0395279,0.436457,-0.0139536,0.0245738,-0.012861,3.88422
-0.224118,0.0417972,0.329982,-0.0105734,0.0175829,-0.0234535,3.88422
-0.32091,0.0308394,0.256866,-0.00897478,0.0108402,-0.0320709,3.88422
-0.319651,0.0528724,0.168219,-0.0112482,-0.00648475,-0.0807257,3.88422
-0.246641,0.18669,0.0858299,-0.00838653,-0.0101825,-0.113388,3.88422
-0.174381,0.349687,0.0821184,0.0215521,-0.00113297,-0.0877377,3.88422
-0.151693,0.420714,0.142411,0.0350294,0.0148019,-0.0107419,3.88422
-0.151693,0.420714,0.142411,0.0350294,0.0148019,-0.0107419,4.04276
-0.139123,0.385851,0.205335,0.0260707,0.00397518,0.0592971,4.04276
-0.124772,0.294856,0.222729,0.00621913,-0.0157657,0.100289,4.04276
-0.165886,0.20963,0.220167,-0.00703564,-0.0278267,0.136896,4.04276
-0.226678,0.111331,0.207541,-0.00487178,-0.0439363,0.146837,4.04276
-0.249331,0.0342162,0.200037,0.00953008,-0.0509965,0.116634,4.04276
-0.232054,-0.0406133,0.247436,0.0312549,-0.0485534,0.0721182,4.04276
-0.225077,-0.0726984,0.309621,0.0460336,-0.0474572,0.0329738,4.04276
-0.241019,-0.078319,0.320966,0.0418658,-0.0656114,-0.00161904,4.04276
-0.233087,-0.0795475,0.300354,0.0434758,-0.0900491,-0.0460739,4.04276
-0.195318,-0.0551277,0.268253,0.0518757,-0.103981,-0.0923628,4.04276
-0.195163,-0.0596219,0.255392,0.0660043,-0.105211,-0.118045,4.04276
-0.256653,-0.126744,0.269014,0.0800494,-0.111016,-0.146504,4.04276
-0.280733,-0.197289,0.280635,0.078314,-0.117858,-0.22389,4.04276
-0.248369,-0.207726,0.242923,0.0482643,-0.110215,-0.318752,4.04276
-0.230299,-0.154694,0.194319,0.0248656,-0.0956897,-0.383692,4.04276
-0.232272,-0.0941499,0.163468,0.0226183,-0.0898263,-0.411871,4.04276
-0.2653,-0.1514,0.132243,0.0120871,-0.0837263,-0.408625,4.04276
-0.306514,-0.358776,0.0815443,-0.0144943,-0.0828252,-0.41345,4.04276
-0.301522,-0.549618,-0.0225484,-0.0514577,-0.0809548,-0.465032,4.04276
-0.198286,-0.506536,-0.166169,-0.0855104,-0.0613994,-0.541992,4.04276
0.0640601,-0.203149,-0.275576,-0.100715,-0.0194073,-0.56846,4.04276
0.455145,0.197073,-0.23578,-0.0662578,0.0428073,-0.481317,4.04276
0.782712,0.520121,-0.144698,-0.0497996,0.0940583,-0.267457,4.04276
0.905232,0.643287,-0.105024,-0.0908744,0.130522,-0.0149142,4.04276
0.840897,0.420006,-0.112093,-0.141716,0.145231,0.197565,4.04276
0.656981,-0.0696554,-0.198806,-0.191535,0.143025,0.333001,4.04276
0.464187,-0.532825,-0.355874,-0.228801,0.137395,0.35841,4.04276
0.36719,-0.73179,-0.546536,-0.236994,0.147101,0.29786,4.04276
0.386483,-0.648251,-0.67668,-0.201847,0.175466,0.229112,4.04276
0.34657,-0.346953,-0.75572,-0.153193,0.198533,0.229946,4.04276
0.253392,-0.102357,-0.792668,-0.121086,0.20173,0.284739,4.04276
0.195014,-0.151673,-0.836265,-0.101897,0.175015,0.34609,4.04276
0.201464,-0.412554,-0.889067,-0.0844976,0.152273,0.365509,4.04276
0.197277,-0.658286,-0.902596,-0.0426431,0.138308,0.357405,4.04276
0.16731,-0.720663,-0.864594,-0.00534438,0.141894,0.310771,4.04276
0.110002,-0.652121,-0.804926,0.00512362,0.147502,0.252069,4.04276
0.0339691,-0.560614,-0.759496,-0.000474601,0.139071,0.188531,4.04276
-0.0559721,-0.528329,-0.753524,-0.00218733,0.107991,0.139123,4.04276
-0.0738559,-0.499232,-0.816876,-0.00381058,0.0586568,0.0670558,4.04276
-0.100487,-0.42483,-0.894241,-0.0175059,0.0498903,0.0100425,4.04276
-0.183515,-0.280487,-0.890189,-0.00628657,0.0548936,-0.0179927,4.04276
-0.229526,-0.176031,-0.843759,0.00600532,0.050545,-0.0395575,4.04276
-0.179103,-0.103342,-0.775669,0.0174022,0.0336512,-0.0516707,4.04276
-0.0662684,-0.0437838,-0.70491,0.0193627,0.0224034,-0.0431008,4.04276
0.0056034,-0.0118592,-0.627397,0.0127253,0.0222011,0.00814313,4.04276
-0.036078,-0.0624447,-0.562183,0.011306,0.0100673,0.0845396,4.04276
-0.113907,-0.134853,-0.521278,0.00469012,-0.0050391,0.126617,4.04276
-0.180712,-0.184516,-0.513712,-0.0133362,-0.0157731,0.126032,4.04276
-0.225743,-0.194927,-0.540276,-0.0336563,-0.0301398,0.108375,4.04276
-0.272316,-0.202123,-0.551404,-0.0231297,-0.0433662,0.0968162,4.04276
-0.330043,-0.227973,-0.544793,-0.0170935,-0.0445307,0.0805437,4.04276
-0.333431,-0.213926,-0.521267,-0.00555003,-0.0512592,0.0443735,4.04276
-0.319961,-0.152742,-0.493143,-0.004254,-0.0541536,0.0118623,4.04276
-0.291318,-0.0582674,-0.466355,0.00318389,-0.0637571,-0.00669944,4.04276
-0.291318,-0.0582674,-0.466355,0.00318389,-0.0637571,-0.00669944,4.21979
-0.249152,-0.01847,-0.436934,0.0121334,-0.0757944,-0.0118109,4.21979
-0.23348,-0.0270013,-0.380094,0.0208267,-0.078519,-0.00700974,4.21979
-0.160268,-0.000131409,-0.28688,0.0427605,-0.0874602,-0.0324324,4.21979
-0.0700168,0.0654979,-0.210498,0.0305202,-0.0845612,-0.0552255,4.21979
-0.0211986,0.107413,-0.150843,0.0344516,-0.0978145,-0.0588059,4.21979
-0.01403,0.132789,-0.116182,0.0287886,-0.106515,-0.0645811,4.21979
-0.0293904,0.109493,-0.0764475,0.0217822,-0.106972,-0.0909042,4.21979
-0.0342771,0.0535523,-0.0404367,0.0217066,-0.10789,-0.14097,4.21979
-0.0221959,0.0690806,-0.0248127,0.0167465,-0.102855,-0.208332,4.21979
0.0252645,0.151046,-0.0479771,0.0160117,-0.100021,-0.27237,4.21979
0.0683298,0.285803,-0.087886,0.0294307,-0.0990103,-0.308634,4.21979
0.00374729,0.349105,-0.104627,0.0563928,-0.0841126,-0.289107,4.21979
-0.193996,0.302319,-0.106527,0.0636385,-0.0640308,-0.263008,4.21979
-0.3215,0.240433,-0.129447,0.0582088,-0.0626149,-0.305606,4.21979
-0.277575,0.230134,-0.158022,0.0609012,-0.0508311,-0.359231,4.21979
-0.0933979,0.386913,-0.0862421,0.0945801,-0.0186028,-0.383295,4.21979
0.23158,0.619781,0.139667,0.13378,0.034946,-0.329559,4.21979
0.557662,0.685679,0.429507,0.14932,0.0807564,-0.169282,4.21979
0.643098,0.615736,0.635327,0.117455,0.0901716,0.037828,4.21979
0.489624,0.382614,0.721836,0.0711038,0.0677273,0.202594,4.21979
0.233865,0.0658177,0.682018,0.0424006,0.0288409,0.267697,4.21979
-0.0480463,-0.197382,0.536529,0.0231934,0.00162902,0.23323,4.21979
-0.205739,-0.252872,0.404591,0.0270704,0.00977114,0.108695,4.21979
-0.153279,-0.137856,0.351462,0.0507624,0.0441572,-0.0161722,4.21979
0.0281119,0.0415197,0.382372,0.0722284,0.0847044,-0.0702317,4.21979
0.191686,0.206227,0.471229,0.0870427,0.110218,-0.0314683,4.21979
0.298426,0.280621,0.52351,0.0875409,0.111112,0.0580733,4.21979
0.325248,0.282198,0.505141,0.0670998,0.108125,0.15867,4.21979
0.301579,0.275578,0.452589,0.0465512,0.111961,0.227003,4.21979
0.30392,0.275447,0.430733,0.0667193,0.110816,0.264686,4.21979
0.310614,0.271711,0.475116,0.0852112,0.130503,0.291222,4.21979
0.234731,0.232212,0.588444,0.100476,0.157446,0.330088,4.21979
0.122723,0.112897,0.72376,0.103074,0.148285,0.339921,4.21979
0.0263168,0.0102574,0.755513,0.0810769,0.108532,0.295225,4.21979
-0.0408757,0.00278747,0.727901,0.0506277,0.0735478,0.223296,4.21979
-0.0869183,-0.00434285,0.690434,0.0557583,0.0426024,0.16623,4.21979
-0.130117,-0.0662298,0.697284,0.0754534,0.0241046,0.133619,4.21979
-0.218928,-0.121636,0.736019,0.0713221,0.02105,0.104464,4.21979
-0.345354,-0.152906,0.745281,0.0518201,0.0103383,0.0640407,4.21979
-0.377479,-0.112289,0.658884,0.0137928,-0.0294485,-0.0103612,4.21979
-0.369353,-0.0207333,0.453646,-0.0429582,-0.0532831,-0.0726103,4.21979
-0.372168,0.102214,0.273799,-0.032746,-0.0602988,-0.0913846,4.21979
-0.350171,0.204989,0.245724,0.0250375,-0.0382595,-0.0830436,4.21979
-0.249284,0.300188,0.322398,0.058905,-0.0141882,-0.0734134,4.21979
-0.133613,0.345152,0.414009,0.0615072,-0.00604814,-0.0282659,4.21979
-0.0984437,0.318241,0.461233,0.0442994,-0.0189513,0.0542825,4.21979
-0.146787,0.232587,0.457412,0.0183506,-0.034539,0.122904,4.21979
-0.219143,0.111574,0.431461,0.00720277,-0.0445645,0.145531,4.21979
-0.271721,-0.000670705,0.426661,0.0237088,-0.0521113,0.128051,4.21979
-0.287312,-0.0626672,0.44493,0.0386791,-0.0542756,0.0858954,4.21979
-0.288872,-0.0983843,0.467926,0.049697,-0.063355,0.0373236,4.21979
-0.283441,-0.0957592,0.480351,0.0575945,-0.0795084,-0.00996649,4.21979
-0.278491,-0.0829616,0.479612,0.0550879,-0.0895835,-0.0517532,4.21979
-0.278491,-0.0829616,0.479612,0.0550879,-0.0895835,-0.0517532,4.37569
-0.277561,-0.111271,0.454407,0.0584106,-0.105654,-0.0829936,4.37569
-0.304866,-0.173929,0.421914,0.059672,-0.116667,-0.119887,4.37569
-0.332116,-0.222966,0.39664,0.0578973,-0.121354,-0.182298,4.37569
-0.305293,-0.21658,0.377328,0.0426656,-0.118852,-0.27019,4.37569
-0.244845,-0.155624,0.341584,0.0256023,-0.107117,-0.340198,4.37569
-0.205733,-0.0528203,0.307565,0.00687753,-0.0917143,-0.355509,4.37569
-0.215757,-0.0735345,0.27725,0.000227422,-0.0866342,-0.324677,4.37569
-0.250614,-0.242188,0.233692,-0.0166201,-0.0910416,-0.305826,4.37569
-0.299091,-0.417252,0.13828,-0.0673684,-0.0752205,-0.326982,4.37569
-0.301668,-0.429125,-0.0196417,-0.106828,-0.0535804,-0.390481,4.37569
-0.187682,-0.196875,-0.162848,-0.107591,-0.0287616,-0.434815,4.37569
0.0664278,0.139448,-0.181368,-0.0859705,0.0314513,-0.41295,4.37569
0.379307,0.336567,-0.0983002,-0.0501641,0.0864768,-0.27953,4.37569
0.559954,0.296254,-0.0132631,-0.0356125,0.116263,-0.0860205,4.37569
0.55925,0.152939,0.0139162,-0.0609546,0.126398,0.0682691,4.37569
0.438995,-0.0756368,-0.015061,-0.0827949,0.119359,0.162061,4.37569
0.266994,-0.268961,-0.0725954,-0.108212,0.121804,0.185992,4.37569
0.13956,-0.316597,-0.138993,-0.131148,0.132035,0.148416,4.37569
0.143174,-0.240013,-0.214715,-0.135565,0.132047,0.0857428,4.37569
0.222449,-0.141324,-0.27752,-0.122634,0.133994,0.0702572,4.37569
0.266659,-0.103951,-0.302065,-0.0912983,0.141385,0.123248,4.37569
0.245905,-0.130338,-0.309605,-0.0632492,0.138983,0.1895,4.37569
0.223063,-0.15768,-0.324359,-0.0552326,0.130033,0.223013,4.37569
0.203763,-0.185933,-0.341233,-0.0476531,0.12567,0.237735,4.37569
0.198871,-0.176538,-0.35671,-0.0511387,0.119235,0.236591,4.37569
0.220052,-0.155402,-0.37366,-0.04801,0.106802,0.229151,4.37569
0.217282,-0.156069,-0.374137,-0.0405588,0.0998248,0.230847,4.37569
0.178459,-0.175038,-0.360029,-0.0346782,0.0925675,0.231265,4.37569
0.148771,-0.224374,-0.365955,-0.0351292,0.0815264,0.208115,4.37569
0.0944696,-0.268025,-0.390408,-0.0478422,0.0733597,0.175674,4.37569
0.0521235,-0.269716,-0.42003,-0.0501537,0.0624644,0.136517,4.37569
0.0245907,-0.224148,-0.474542,-0.0607934,0.0552689,0.0931492,4.37569
-0.0020809,-0.171757,-0.50981,-0.0462107,0.0544366,0.0657589,4.37569
-0.0576784,-0.134988,-0.48343,-0.0270069,0.0630937,0.0574242,4.37569
-0.100554,-0.101586,-0.442003,-0.020467,0.0545338,0.0463565,4.37569
-0.100461,-0.0917528,-0.423457,-0.0273503,0.0316729,0.0355697,4.37569
-0.110767,-0.114603,-0.423883,-0.0339798,0.018205,0.0439976,4.37569
-0.157355,-0.133853,-0.406131,-0.0241496,0.0046742,0.0588551,4.37569
-0.182351,-0.135137,-0.384382,-0.0211065,-0.00462055,0.0561792,4.37569
-0.173664,-0.100771,-0.355081,-0.0129245,-0.0210236,0.0431743,4.37569
-0.183009,-0.0256174,-0.348795,-0.0231148,-0.0335216,0.0450339,4.37569
-0.171277,-0.0626251,-0.334439,-0.0204088,-0.0501856,0.0668203,4.37569
-0.164423,-0.133165,-0.335805,-0.0222479,-0.0614659,0.0808116,4.37569
-0.194197,-0.133233,-0.342242,-0.0196373,-0.0686055,0.0847334,4.37569
-0.232552,-0.058242,-0.379367,-0.0267093,-0.0783106,0.0812789,4.37569
-0.276232,0.0076935,-0.416989,-0.0252077,-0.083145,0.0842998,4.37569
-0.282875,0.0177707,-0.411721,-0.00528523,-0.0895193,0.0873275,4.37569
-0.273158,0.00265028,-0.390103,0.00482824,-0.0837768,0.0916144,4.37569
-0.25687,-0.00182519,-0.354143,0.0168216,-0.0917462,0.0934596,4.37569
-0.281792,0.0130637,-0.313076,0.0203314,-0.0925286,0.105235,4.37569
-0.337709,0.0457499,-0.283391,0.011023,-0.10064,0.106299,4.37569
-0.357233,0.0893329,-0.268863,-0.000813819,-0.110745,0.0959477,4.37569
-0.348698,0.13653,-0.248303,-0.00717635,-0.114546,0.0907384,4.37569
-0.352911,0.130819,-0.19603,0.00216743,-0.115709,0.109586,4.37569
-0.352911,0.130819,-0.19603,0.00216743,-0.115709,0.109586,4.53687
-0.377464,0.110527,-0.150133,0.000839092,-0.120579,0.119296,4.53687
-0.386192,0.117187,-0.128052,-0.00463738,-0.134548,0.102806,4.53687
-0.395097,0.150602,-0.104607,0.00421844,-0.144556,0.0828122,4.53687
-0.388668,0.154605,-0.0418964,0.0249929,-0.15134,0.0583731,4.53687
-0.363824,0.113579,0.0534708,0.042195,-0.150662,0.0221351,4.53687
-0.314097,0.112469,0.123331,0.0335355,-0.156731,-0.0395495,4.53687
-0.29608,0.106255,0.137105,0.0146483,-0.165692,-0.0917448,4.53687
-0.314976,0.0752304,0.168646,0.0249306,-0.169319,-0.13871,4.53687
-0.313254,0.146124,0.188256,0.0172564,-0.162535,-0.218455,4.53687
-0.275356,0.219271,0.196705,0.019494,-0.15921,-0.291512,4.53687
-0.217602,0.287427,0.232152,0.0315272,-0.148925,-0.344973,4.53687
-0.192249,0.306325,0.249523,0.0253384,-0.120644,-0.365419,4.53687
-0.2719,0.314022,0.212648,-0.000637781,-0.0886462,-0.374313,4.53687
-0.341934,0.349227,0.151118,0.000876974,-0.0821506,-0.403684,4.53687
-0.307584,0.40862,0.121239,0.0202826,-0.0521477,-0.439087,4.53687
-0.194143,0.449128,0.17087,0.0375464,0.0113444,-0.433706,4.53687
-0.0241579,0.447572,0.269392,0.0476796,0.0690535,-0.391035,4.53687
0.216756,0.403927,0.379227,0.0569337,0.110061,-0.326345,4.53687
0.519579,0.425511,0.489212,0.0709767,0.145488,-0.241651,4.53687
0.668954,0.479899,0.561953,0.0774264,0.18411,-0.095978,4.53687
0.559849,0.40851,0.599942,0.0811151,0.195233,0.0619217,4.53687
0.328095,0.143118,0.583389,0.0600926,0.183047,0.131405,4.53687
0.19512,-0.0741241,0.48966,0.0340003,0.158113,0.068529,4.53687
0.24691,-0.0980968,0.365528,0.0218175,0.15924,-0.0432146,4.53687
0.371386,0.0703031,0.297382,0.028285,0.180426,-0.0951467,4.53687
0.492649,0.2715,0.288728,0.0449777,0.200483,-0.0688654,4.53687
0.556264,0.295317,0.347526,0.0755559,0.210942,0.0285019,4.53687
0.588072,0.162645,0.438806,0.0928654,0.20917,0.131594,4.53687
0.525149,0.0903865,0.49938,0.0846462,0.204587,0.201943,4.53687
0.392675,0.0403314,0.50576,0.0632956,0.185207,0.244922,4.53687
0.28116,0.00177729,0.446381,0.0382637,0.155564,0.246447,4.53687
0.209159,0.00101432,0.338752,0.0159582,0.138691,0.229577,4.53687
0.14486,-0.00693109,0.258082,0.0215585,0.133034,0.222935,4.53687
0.0667131,-0.0253072,0.228314,0.036976,0.135927,0.215734,4.53687
-0.000954091,-0.0266189,0.218512,0.0529001,0.133348,0.199343,4.53687
-0.0615133,-0.02819,0.231979,0.0623866,0.13041,0.178064,4.53687
-0.0800375,-0.0322729,0.242626,0.0633538,0.123626,0.145673,4.53687
-0.0924055,-0.0679346,0.253365,0.0679724,0.115651,0.110844,4.53687
-0.0846948,-0.0746444,0.271831,0.0652537,0.107842,0.0694041,4.53687
-0.0472071,-0.0377778,0.272942,0.0680211,0.102908,0.0229501,4.53687
-0.0425468,-0.0176518,0.29698,0.0881185,0.105913,0.0146009,4.53687
-0.0675667,-0.0215499,0.355301,0.0967554,0.110077,0.0141929,4.53687
-0.0427202,0.0211239,0.414525,0.0933599,0.102388,-0.0057711,4.53687
0.02817,0.0415387,0.435597,0.0728294,0.0844785,-0.0090726,4.53687
0.0486002,-0.00989776,0.415919,0.0581231,0.0617345,0.0228416,4.53687
0.0185962,-0.07938,0.373766,0.0480418,0.0428044,0.0443164,4.53687
0.0416962,-0.0946954,0.348623,0.0443664,0.0314724,0.0116708,4.53687
0.140665,-0.020277,0.339185,0.0452597,0.0261027,-0.028474,4.53687
0.200829,0.0960456,0.33112,0.0441401,0.0203761,-0.0131205,4.53687
0.010755,0.141323,0.254482,0.0482851,-0.00870913,0.0623479,4.53687
-0.369735,0.0781221,0.102253,0.000499647,-0.0212003,0.0860006,4.53687
-0.437251,-0.0122798,-0.0515892,-0.0376634,-0.0368893,-0.0533265,4.53687
-0.0813869,0.114817,-0.0931754,-0.00130937,-0.0312918,-0.208321,4.53687
0.306813,0.405904,0.0474431,0.0502109,0.0143308,-0.198612,4.53687
0.306813,0.405904,0.0474431,0.0502109,0.0143308,-0.198612,4.70334
0.378708,0.508333,0.235297,0.04926,0.0440265,-0.019143,4.70334
0.224776,0.380602,0.2802,0.0116652,0.00232115,0.127281,4.70334
-0.0554693,0.223276,0.140962,-0.0336455,-0.0476198,0.173437,4.70334
-0.202374,0.0262064,0.00409864,-0.0655287,-0.0556054,0.116784,4.70334
-0.109813,-0.0943493,-0.00652623,-0.0184622,-0.0299923,0.00819528,4.70334
0.012162,-0.0135029,0.116716,0.0223308,0.0145262,-0.0518229,4.70334
0.099356,0.136659,0.284099,0.026255,0.0356349,-0.0564039,4.70334
0.138935,0.119099,0.359152,-0.000712283,0.0154608,-0.0221229,4.70334
0.126606,-0.0104815,0.316041,-0.0374769,-0.0192086,0.0143012,4.70334
0.0542423,-0.10108,0.202169,-0.067838,-0.030692,0.0109891,4.70334
0.0182569,-0.0624558,0.133878,-0.0567164,-0.0155113,-0.0309191,4.70334
0.0621908,0.0501004,0.173924,-0.0346819,0.022295,-0.0711081,4.70334
0.141759,0.104543,0.27787,-0.0302496,0.0490505,-0.070507,4.70334
0.2127,0.0586892,0.328712,-0.0533929,0.0420797,-0.0423826,4.70334
0.200637,-0.00958235,0.287033,-0.0857785,0.0214432,-0.00215244,4.70334
0.115922,-0.0235799,0.19033,-0.106597,0.00733376,0.0255601,4.70334
0.0273034,-0.00954442,0.113636,-0.10303,0.00520462,0.0328838,4.70334
-0.0171781,-0.012621,0.0818062,-0.0914091,0.0095157,0.025705,4.70334
-0.00423298,-0.0425813,0.0695053,-0.0818297,0.0125072,0.0138061,4.70334
0.0121755,-0.0694678,0.0474519,-0.0743176,0.0106362,0.014469,4.70334
-0.0111098,-0.0618245,0.0197117,-0.0604098,0.00654697,0.0253205,4.70334
-0.0445549,-0.0437372,0.016393,-0.0427845,0.00888994,0.0366437,4.70334
-0.0777928,-0.0636461,0.0191901,-0.0304695,0.0144249,0.0437874,4.70334
-0.0906774,-0.0929521,0.0284233,-0.0226812,0.00695255,0.0351357,4.70334
-0.0895657,-0.123337,0.0342532,-0.0202538,0.00544393,0.0200558,4.70334
-0.114466,0.0073604,0.00955827,-0.0140263,0.00133762,-0.00379229,4.70334
-0.213828,0.173151,-0.0141701,-0.0209664,0.0106935,-0.000862718,4.70334
-0.211996,0.13993,-0.000690662,-0.0125626,0.00403216,-0.00720716,4.70334
-0.0785547,-0.0923402,0.0562813,-0.00118446,0.00616339,-0.0196726,4.70334
0.0875353,-0.23902,0.101695,0.00346917,0.00668323,-0.0400814,4.70334
0.110101,-0.153525,0.0975619,0.00674481,0.00892949,-0.0240868,4.70334
0.00476739,0.000422999,0.073933,0.00409732,0.0114321,0.0129334,4.70334
-0.0746635,0.0372355,0.0470801,-0.00194408,0.00726742,0.0321534,4.70334
-0.03844,-0.0265618,0.047099,0.000895239,-0.00537521,0.0181194,4.70334
0.0109475,-0.097291,0.0305993,-0.00316273,-0.00250289,0.0126097,4.70334
-0.021317,-0.118111,-0.00662398,-0.00179654,-0.00712249,0.020469,4.70334
-0.089712,-0.0899489,-0.0608988,0.00173111,-0.00887468,0.010139,4.70334
-0.10326,-0.0315633,-0.0860964,0.00592826,-0.00931975,-0.0245245,4.70334
-0.0411443,0.021182,-0.0878448,0.0119714,-0.00525478,-0.0533799,4.70334
0.0226662,0.0454032,-0.0627607,0.0178378,0.00103489,-0.0496939,4.70334
0.0450642,0.0321197,-0.0628555,0.0184966,-0.00162253,-0.0226412,4.70334
0.0126879,0.0338131,-0.0899502,0.00321023,0.000729322,0.000457048,4.70334
0.000421308,0.044474,-0.11994,-0.00704976,0.000121802,0.00448233,4.70334
0.00587395,0.0542314,-0.139468,-0.00032907,0.00138932,0.00997257,4.70334
-0.00879853,0.039485,-0.126924,0.0063242,0.0124091,0.0261219,4.70334
-0.0354994,-0.00358479,-0.111314,0.00955276,0.0147091,0.0339585,4.70334
-0.0575424,-0.0532104,-0.105026,0.0102453,0.0129489,0.0268835,4.70334
-0.0587927,-0.033549,-0.100739,0.00356361,0.0112209,-0.00434917,4.70334
-0.0194238,0.010642,-0.0993839,-0.00178815,0.013181,-0.0270025,4.70334
0.018676,0.0399206,-0.088241,7.8775e-05,0.0153045,-0.0219099,4.70334
0.0213106,0.0122296,-0.0592515,0.00455565,0.0173909,0.00591409,4.70334
0.0117619,-0.0213837,-0.0444494,0.00096846,0.0161355,0.0234884,4.70334
0.0051404,-0.0359418,-0.0485289,-0.00727494,0.011246,0.030548,4.70334
-0.0100878,-0.0381742,-0.066447,-0.0122027,0.010019,0.0348271,4.70334
-0.0100878,-0.0381742,-0.066447,-0.0122027,0.010019,0.0348271,4.8698
-0.0659646,-0.0491151,-0.0842188,-0.00759433,0.00883546,0.0433607,4.8698
-0.0866808,-0.0365945,-0.0736,-0.0036079,0.00547376,0.0279806,4.8698
-0.0538033,-0.0388527,-0.0825346,-0.0104139,0.00335523,0.00740063,4.8698
-0.0607617,-0.0715964,-0.0905156,-0.00652435,0.00250313,0.0189067,4.8698
-0.0893152,-0.0734381,-0.0915177,0.00729564,-0.00551671,0.0155322,4.8698
-0.105292,-0.0464123,-0.0989684,0.00387767,-0.00217295,0.00137484,4.8698
-0.0774908,0.00188159,-0.0815885,0.0128779,-0.0103912,-0.0189183,4.8698
-0.0572041,9.30666e-05,-0.0779204,0.0103551,-0.0117938,-0.0164906,4.8698
-0.0769108,-0.0314119,-0.0759133,0.0150582,-0.0201887,-0.00431478,4.8698
-0.0835261,-0.0350294,-0.0855581,0.0143304,-0.0221477,-0.0173894,4.8698
-0.0650196,-0.0128015,-0.086133,0.0134258,-0.0140047,-0.0329525,4.8698
-0.036222,0.0175569,-0.0583742,0.0237877,-0.0107757,-0.0328969,4.8698
-0.0184573,0.0208554,-0.0243568,0.0277101,-0.00500208,-0.0208063,4.8698
-0.0208629,-0.00278632,0.00120001,0.027059,-0.00547615,-0.00563669,4.8698
-0.0358962,-0.0226301,-0.000920474,0.011617,-0.00897512,-0.00583082,4.8698
-0.00857084,-0.0236346,-0.00279836,0.00589304,-0.0138709,-0.0273839,4.8698
0.0368946,0.00707721,-0.000118064,0.00453603,-0.00709456,-0.0397781,4.8698
0.0602678,0.0310671,0.0295495,0.00534871,0.00137836,-0.0274783,4.8698
0.0622801,0.0250758,0.0361095,-0.00228026,0.000413477,-0.00754184,4.8698
0.0563562,-0.0162741,0.0126203,-0.0205062,-0.00550631,0.0075717,4.8698
0.0392267,-0.0453794,-0.0384703,-0.0324047,-0.00836679,0.00525504,4.8698
0.0186072,-0.0367716,-0.0815349,-0.0287819,-0.00140694,-0.00396967,4.8698
0.0255405,0.000619501,-0.0921443,-0.0184772,0.0106476,-0.0146703,4.8698
0.0544533,-0.020905,-0.0612994,-0.00826634,0.0226525,-0.0127797,4.8698
0.120412,-0.0374484,-0.0287881,0.00368933,0.0210253,-0.00712371,4.8698
0.0907545,-0.0305123,-0.0308601,-0.000827439,0.028692,0.0264035,4.8698
0.00215977,-0.00813165,-0.038668,-0.00508694,0.0207207,0.049321,4.8698
-0.0401302,-0.0479517,-0.0730832,-0.00780467,0.0132108,0.0378873,4.8698
0.000109892,-0.071385,-0.0717013,0.00333586,0.00595951,0.00521231,4.8698
0.0540488,-0.0590973,-0.0555693,0.0063804,0.018806,-0.00916362,4.8698
0.0563652,-0.0369039,-0.0399607,0.0157136,0.020605,0.00597835,4.8698
0.0191999,-0.00848936,-0.0496119,0.0156982,0.014433,0.0256861,4.8698
-0.0134497,-0.0108303,-0.0707087,0.012263,0.0111532,0.0355525,4.8698
-0.0373246,-0.0379915,-0.0799321,0.0204578,0.00824872,0.034291,4.8698
-0.0577577,-0.0488476,-0.0721135,0.0302403,0.0112793,0.0265936,4.8698
-0.0608416,-0.0513565,-0.0563944,0.0352771,0.011049,0.00935042,4.8698
-0.0557439,-0.0317755,-0.0390897,0.0382024,0.00879353,-0.010372,4.8698
-0.0466699,0.00376033,-0.0220091,0.0334804,0.00627306,-0.0241147,4.8698
-0.0308352,0.0313248,-0.00555786,0.0276531,0.00538796,-0.0300307,4.8698
-0.00810856,0.0446992,0.0113227,0.0222702,0.00253993,-0.0240059,4.8698
-0.0050495,0.0302753,0.0215282,0.014419,0.00246835,-0.00853503,4.8698
-0.0213742,0.00724732,0.021117,0.00667214,-0.00184137,0.00123578,4.8698
-0.0279031,0.00797273,0.0146756,0.000512496,-0.00737807,-0.0040586,4.8698
-0.0156991,0.0276968,0.00968347,-0.00505552,-0.00577238,-0.0118089,4.8698
-0.00165203,0.0212093,0.0192729,-0.00351007,-0.00384346,-0.0080061,4.8698
0.0169303,-0.0026977,0.037207,-0.00568361,-0.00162232,-0.00163317,4.8698
0.0330755,-0.0118239,0.041575,-0.0127335,-0.00271881,0.00196695,4.8698
