rotationRate_x,rotationRate_y,rotationRate_z,acceleration_x,acceleration_y,acceleration_z,relativeAltitude
-0.174071,0.0336204,1.11101,0.188997,0.0636508,0.135537,2.34903
-0.298322,0.0199754,1.13063,0.124509,0.0785682,0.22786,2.34903
-0.344599,0.474017,0.972387,0.0786379,0.119551,0.328339,2.34903
-0.085898,0.786696,0.826443,0.0578048,0.1138,0.275338,2.34903
0.260046,0.645603,0.861928,0.091651,0.0902657,0.148436,2.34903
0.370758,0.407632,0.975237,0.120648,0.0844548,0.142375,2.34903
0.194748,0.291546,1.05202,0.100832,0.0925797,0.232401,2.34903
-0.117463,0.252549,1.09239,0.0750316,0.0953034,0.306431,2.34903
-0.361705,0.286702,1.10686,0.0579778,0.0923816,0.30895,2.34903
-0.407358,0.343966,1.05016,0.0334305,0.0903568,0.241048,2.34903
-0.276195,0.4108,0.951462,0.0247193,0.0849088,0.139029,2.34903
-0.168377,0.40755,0.877449,0.00894967,0.0569965,0.0427923,2.34903
-0.179708,0.409127,0.77321,-0.0270488,0.0223518,-0.0296769,2.34903
-0.204859,0.385343,0.619235,-0.0572922,0.0065323,-0.0928732,2.34903
-0.211098,0.288288,0.468115,-0.0765568,-0.0167717,-0.168962,2.34903
-0.249572,0.22445,0.383591,-0.0799315,-0.0662765,-0.221809,2.34903
-0.330553,0.197834,0.3697,-0.0690117,-0.122493,-0.26852,2.34903
-0.401502,0.162739,0.427248,-0.0509752,-0.157893,-0.328288,2.34903
-0.465928,0.065433,0.503403,-0.0372902,-0.186157,-0.404338,2.34903
-0.474216,-0.11339,0.533794,-0.0454275,-0.193752,-0.474741,2.34903
-0.31562,-0.23723,0.438924,-0.0742439,-0.167227,-0.493971,2.34903
-0.0134972,-0.386205,0.218208,-0.119743,-0.116659,-0.457381,2.34903
0.231693,-0.415702,-0.00652814,-0.133859,-0.0805937,-0.326143,2.34903
0.296111,-0.306414,-0.211598,-0.132773,-0.0669155,-0.169575,2.34903
0.281603,-0.163448,-0.360725,-0.128134,-0.0732102,-0.0727371,2.34903
0.385756,-0.212081,-0.442534,-0.102108,-0.0686337,-0.0557529,2.34903
0.510854,-0.291938,-0.526916,-0.101021,-0.0468917,-0.00982296,2.34903
0.552472,-0.247994,-0.671966,-0.129193,-0.0160441,0.0700315,2.34903
0.505787,-0.0443956,-0.81941,-0.148901,0.00868593,0.134357,2.34903
0.483072,0.0767616,-0.877657,-0.132651,0.0049601,0.118113,2.34903
0.452319,0.0206385,-0.80016,-0.105951,-0.00916997,0.0616761,2.34903
0.387728,-0.12355,-0.701647,-0.0870401,0.00628172,0.0403892,2.34903
0.340427,-0.263879,-0.644342,-0.0900722,0.0398848,0.0637125,2.34903
0.321651,-0.34506,-0.656845,-0.111936,0.0801759,0.128669,2.34903
0.30558,-0.404249,-0.715555,-0.124504,0.117633,0.209618,2.34903
0.285441,-0.459785,-0.789621,-0.119433,0.150606,0.289927,2.34903
0.244627,-0.435801,-0.867485,-0.115551,0.169146,0.379015,2.34903
0.164419,-0.32301,-0.918311,-0.105401,0.176203,0.455179,2.34903
0.033344,-0.122675,-0.918175,-0.0940802,0.172421,0.492931,2.34903
-0.105872,0.113778,-0.93847,-0.112142,0.16847,0.482078,2.34903
-0.151248,0.121109,-0.958768,-0.122264,0.16864,0.373462,2.34903
-0.138525,-0.00718227,-0.957844,-0.117758,0.173189,0.239278,2.34903
-0.142728,0.0435666,-0.952224,-0.128798,0.152877,0.159708,2.34903
-0.173022,0.131056,-0.919942,-0.15302,0.107567,0.0791884,2.34903
-0.256767,0.0277846,-0.906277,-0.184528,0.0883925,-0.0461431,2.34903
-0.409074,-0.286779,-0.876375,-0.176944,0.0937002,-0.158192,2.34903
-0.622341,-0.510376,-0.756016,-0.130027,0.0713033,-0.205984,2.34903
-0.799274,-0.426246,-0.535959,-0.0706983,0.0447128,-0.230092,2.34903
-0.917078,-0.330467,-0.338212,-0.0529717,0.00824265,-0.307816,2.34903
-0.94182,-0.266974,-0.181461,-0.0590172,0.0105658,-0.395384,2.34903
-0.877405,-0.323478,-0.218186,-0.0561122,0.0375905,-0.495633,2.34903
-0.769384,-0.447628,-0.324861,-0.0309501,0.0448549,-0.546557,2.34903
-0.677099,-0.569448,-0.359124,0.0149572,-0.0152078,-0.567705,2.34903
-0.578039,-0.608352,-0.310323,0.104128,-0.0845982,-0.538548,2.34903
-0.578039,-0.608352,-0.310323,0.104128,-0.0845982,-0.538548,0
-0.432779,-0.498706,-0.187311,0.198486,-0.134039,-0.477934,0
-0.239984,-0.278581,-0.0191969,0.257071,-0.159602,-0.393125,0
-0.10275,-0.0967458,0.128575,0.283875,-0.15897,-0.316351,0
0.0127359,-0.0571833,0.235011,0.283731,-0.164897,-0.256065,0
0.192988,-0.137078,0.332292,0.307519,-0.148284,-0.218826,0
0.431009,-0.244881,0.418223,0.337039,-0.102116,-0.15229,0
0.655834,-0.261636,0.47394,0.354209,-0.0436954,-0.0458275,0
0.785039,0.014933,0.530892,0.368376,0.00768794,0.0964336,0
0.809887,0.413411,0.628715,0.371431,0.0439806,0.201697,0
0.761954,0.664512,0.802493,0.381889,0.0660742,0.217181,0
0.643631,0.655243,1.01697,0.379152,0.0905834,0.182578,0
0.513157,0.50726,1.19552,0.351425,0.126836,0.160156,0
0.421596,0.380821,1.30805,0.305909,0.166436,0.181351,0
0.383022,0.377632,1.37485,0.251619,0.185709,0.233974,0
0.371289,0.482464,1.40208,0.194147,0.190526,0.295013,0
0.384297,0.506014,1.38861,0.147815,0.202209,0.333977,0
0.385194,0.518501,1.3326,0.102643,0.221956,0.383058,0
0.324917,0.530649,1.27718,0.074256,0.223549,0.429966,0
0.166907,0.590336,1.26635,0.0631702,0.219189,0.466824,0
-0.0327069,0.680701,1.30652,0.0530506,0.194167,0.466068,0
-0.198695,0.7437,1.39083,0.0289,0.158777,0.414448,0
-0.334111,0.75487,1.48361,0.00227945,0.144906,0.339533,0
-0.480412,0.78705,1.54045,-0.0318009,0.134668,0.248068,0
-0.599902,0.738424,1.54375,-0.0818856,0.109663,0.130708,0
-0.686585,0.455647,1.53841,-0.108893,0.0783801,-0.0332918,0
-0.786355,0.206404,1.53221,-0.10504,0.0405452,-0.131564,0
-0.851833,0.126066,1.51362,-0.117787,0.000333712,-0.152233,0
-0.84345,0.0997084,1.43673,-0.132538,-0.023764,-0.184486,0
-0.754114,0.0251437,1.32021,-0.124853,-0.0377553,-0.227811,0
-0.633561,-0.121158,1.18489,-0.127517,-0.0719863,-0.269466,0
-0.555478,-0.15722,0.978384,-0.145254,-0.0868187,-0.235224,0
-0.504244,-0.110644,0.787989,-0.133197,-0.118614,-0.230806,0
-0.389707,-0.0527816,0.632922,-0.125956,-0.159071,-0.252707,0
-0.309425,-0.0139724,0.509169,-0.107963,-0.174239,-0.298742,0
-0.320642,-0.0373598,0.420383,-0.0772379,-0.186818,-0.35916,0
-0.321678,-0.133023,0.45021,-0.0238368,-0.22152,-0.442036,0
-0.339602,-0.0984464,0.546437,0.0116795,-0.237173,-0.486205,0
-0.346063,0.0486149,0.570909,0.00564576,-0.222125,-0.522633,0
-0.20469,0.0248929,0.495358,-0.00934709,-0.176386,-0.606523,0
0.135229,-0.170959,0.331892,-0.00895294,-0.101746,-0.633243,0
0.581781,-0.561031,0.137477,-0.0156102,-0.0417671,-0.568825,0
0.913379,-0.785824,-0.0416768,0.00839712,0.0171882,-0.353988,0
1.05877,-0.58793,-0.185222,0.0403716,0.0558333,-0.0592645,0
1.04129,-0.0833158,-0.236165,0.0662978,0.0707586,0.159717,0
0.875507,0.455843,-0.16918,0.0803568,0.0682909,0.249822,0
0.642049,0.60057,-0.0306529,0.108557,0.0742352,0.186166,0
0.466283,0.483633,0.136784,0.129118,0.113421,0.116421,0
0.389983,0.140776,0.318816,0.119725,0.122469,0.0639764,0
0.441617,-0.228268,0.458115,0.10607,0.142281,0.058363,0
0.586794,-0.416441,0.476548,0.0702133,0.172111,0.138349,0
0.782821,-0.455785,0.352271,0.0290219,0.209741,0.249843,0
0.955832,-0.32809,0.194483,-0.00149465,0.236077,0.371128,0
0.955832,-0.32809,0.194483,-0.00149465,0.236077,0.371128,0
1.01201,-0.135885,0.0760757,-0.00577611,0.239536,0.453712,0
0.911622,-0.0243837,0.0659949,0.00328748,0.216958,0.487989,0
0.676585,0.0316788,0.143909,0.0171398,0.191742,0.497797,0
0.379718,0.174951,0.25726,0.0164482,0.169382,0.474956,0
0.207994,0.298437,0.340086,-0.0145289,0.150279,0.386663,0
0.211654,0.300965,0.427969,-0.0307333,0.133791,0.246004,0
0.257435,0.355095,0.512767,-0.0507171,0.116578,0.164998,0
0.256638,0.210221,0.557373,-0.081729,0.0923282,0.0730115,0
0.0390886,0.0154611,0.596667,-0.0913578,0.0998249,0.0314232,0
-0.350105,-0.0967456,0.583217,-0.11465,0.0928405,0.0572761,0
-0.677069,-0.144179,0.60758,-0.112969,0.0520664,0.0423355,0
-0.753416,-0.12475,0.662912,-0.0913799,0.0150972,0.0126677,0
-0.640691,-0.183743,0.655205,-0.0826668,0.00650987,-0.0357015,0
-0.534478,-0.238675,0.548148,-0.0838622,0.0181279,-0.0213019,0
-0.513386,-0.183725,0.416111,-0.0663162,0.00751244,0.044379,0
-0.497741,-0.0476207,0.366717,-0.0417374,-0.0437442,0.0917718,0
-0.427577,0.0200261,0.370393,-0.0174833,-0.0934477,0.07692,0
-0.382503,0.0670842,0.354374,0.00087399,-0.105953,0.0758871,0
-0.367917,0.0775057,0.320366,0.00221469,-0.124237,0.053049,0
-0.31383,0.147147,0.290536,-0.00284107,-0.155499,0.0278648,0
-0.244653,0.120538,0.296348,-0.0165091,-0.189691,-0.0575528,0
-0.111429,0.220132,0.224399,-0.0227551,-0.182267,-0.0985127,0
0.136911,0.349081,0.15618,-0.028872,-0.187259,-0.143979,0
0.370305,0.372509,0.172773,-0.00852722,-0.191459,-0.193697,0
0.441189,0.323857,0.246004,0.0117395,-0.196322,-0.215379,0
0.331238,0.230999,0.362186,0.0302412,-0.179058,-0.202694,0
0.146444,0.167753,0.556859,0.0648952,-0.165277,-0.198296,0
-0.000691173,0.33756,0.789739,0.0963003,-0.145769,-0.177151,0
-0.00661189,0.431004,0.991063,0.07931,-0.125768,-0.188579,0
0.0706061,0.284032,1.06728,0.0451553,-0.0715062,-0.227018,0
0.152035,-0.0328102,1.00176,0.0461504,0.0296354,-0.211437,0
0.183244,-0.119973,0.907385,0.0663233,0.0996847,-0.137294,0
0.207315,0.120399,0.835119,0.0809599,0.113034,-0.040319,0
0.3504,0.232537,0.7849,0.0964725,0.128076,-0.0395049,0
0.589648,0.0576312,0.706614,0.113585,0.178109,-0.0668948,0
0.697231,-0.0604299,0.573306,0.134202,0.24546,-0.017607,0
0.622722,0.0877258,0.48045,0.160065,0.251598,0.06357,0
0.450563,0.399786,0.561764,0.194812,0.206562,0.0962936,0
0.332483,0.613149,0.77331,0.233034,0.159206,0.040505,0
0.207466,0.686654,1.01569,0.280424,0.163214,-0.0456451,0
0.12144,0.796408,1.17353,0.266391,0.187646,-0.0886223,0
0.0812277,0.689265,1.2653,0.201059,0.200306,-0.158787,0
0.0920788,0.351245,1.26866,0.168555,0.228402,-0.206447,0
0.193289,-0.10554,1.19741,0.171382,0.256135,-0.237188,0
0.326225,-0.172281,1.11061,0.156415,0.253897,-0.119516,0
0.369525,0.0339059,1.06297,0.124526,0.201625,0.0434626,0
0.304215,0.306966,1.06546,0.115797,0.162388,0.136277,0
0.200088,0.416982,1.09253,0.105871,0.132553,0.145806,0
0.100213,0.38483,1.10092,0.0846383,0.118086,0.107731,0
0.0457564,0.296248,1.0462,0.0623221,0.119155,0.061542,0
0.0739653,0.256665,0.969017,0.0417297,0.11426,0.0360306,0
0.0739653,0.256665,0.969017,0.0417297,0.11426,0.0360306,0
0.128196,0.117089,0.922869,0.0251142,0.0924372,0.0193131,0
0.104967,-0.0526646,0.905503,0.0249433,0.0715709,0.00122881,0
0.0724645,-0.0608103,0.852473,0.0175041,0.0585513,0.0434207,0
0.0777765,0.161685,0.780209,-0.00762054,0.0438969,0.0969841,0
0.16188,0.492082,0.663015,-0.042924,0.0295818,0.1074,0
0.282701,0.633091,0.548369,-0.064081,0.025482,0.0585667,0
0.331354,0.507149,0.48572,-0.0628202,0.0197914,-0.0180914,0
0.261184,0.317161,0.472339,-0.0602835,0.00394979,-0.0380185,0
0.191268,0.20371,0.509593,-0.0636776,-0.0214456,-0.0387943,0
0.222882,0.167531,0.596962,-0.0543888,-0.0468251,-0.0533065,0
0.260031,0.218059,0.680705,-0.072467,-0.0639176,-0.0515746,0
0.186194,0.249263,0.748418,-0.0901402,-0.0624868,-0.0417495,0
0.0328436,0.158643,0.805969,-0.0919419,-0.0470079,-0.067985,0
-0.0687109,0.0176901,0.84513,-0.0955995,-0.0350657,-0.10521,0
-0.0488377,-0.11845,0.827328,-0.0957781,-0.0179776,-0.129156,0
0.0221901,-0.177409,0.762181,-0.092431,0.00841662,-0.102187,0
0.0958958,-0.195874,0.661465,-0.0958823,0.0196425,-0.0527954,0
0.10813,-0.207861,0.565824,-0.0945555,0.0300138,0.0172895,0
0.052368,-0.26966,0.486952,-0.0844501,0.0211675,0.0484856,0
0.0184164,-0.258613,0.393075,-0.0723363,0.0265988,0.0831078,0
0.0181919,-0.141201,0.279796,-0.074439,0.0305344,0.113264,0
0.00401406,-0.0187758,0.161814,-0.075785,0.0333124,0.115056,0
-0.0253042,0.0770369,0.0157301,-0.0815474,0.0343319,0.0782851,0
-0.0409151,0.176448,-0.129819,-0.081473,0.0374879,0.041635,0
0.0413578,0.09889,-0.252967,-0.0587929,0.0332724,-0.0488647,0
0.132569,0.00333751,-0.285681,-0.018546,0.0196958,-0.105735,0
0.114934,-0.0329882,-0.281665,-0.0002428,-0.00525197,-0.0813543,0
0.0489611,-0.0501973,-0.252933,0.0135856,-0.019975,-0.0571634,0
-0.00164702,-0.0883144,-0.205718,0.0281563,-0.0211726,-0.0370255,0
-0.035149,-0.0776626,-0.172054,0.0402469,-0.0150111,-0.0162256,0
-0.0557072,-0.0229626,-0.160007,0.040113,-0.00542867,0.0113375,0
-0.0783551,-0.00854743,-0.162219,0.0344125,0.000832975,0.0165996,0
-0.0850714,-0.000274201,-0.175887,0.0310833,0.00437501,0.014096,0
-0.0639791,-0.0267572,-0.193572,0.0338567,0.0126661,0.010412,0
-0.0387882,-0.0364059,-0.204627,0.030254,0.0148157,0.0304859,0
0.00670244,-0.0364074,-0.238375,0.029952,0.0203387,0.0510104,0
0.0369382,-0.0124917,-0.266556,0.0424091,0.0312033,0.0737193,0
0.0191969,0.0167239,-0.277726,0.0419455,0.0302377,0.105611,0
-0.0791334,0.0596356,-0.245968,0.0412441,0.0174234,0.121321,0
-0.215068,0.00526431,-0.161252,0.0441055,-0.00701714,0.108265,0
-0.332367,-0.0507542,-0.0567894,0.0429013,-0.0215753,0.0774145,0
-0.37001,-0.0265667,-0.0340411,0.0222724,-0.0150869,0.049346,0
-0.314497,0.0154362,-0.0999243,-0.016703,0.00462371,0.0160303,0
-0.246368,0.0359507,-0.17659,-0.0299949,0.0127404,-0.0136259,0
-0.208214,0.0173516,-0.220851,-0.0384743,-0.00925407,-0.0328302,0
-0.20354,-0.0183822,-0.224449,-0.02742,-0.017101,-0.041931,0
-0.181897,-0.118706,-0.237965,-0.0255997,-0.0223183,-0.05844,0
-0.129979,-0.172932,-0.293852,-0.0378083,-0.0198653,-0.0379078,0
-0.0488877,-0.165228,-0.358086,-0.0537408,-0.0362694,-0.00687468,0
-0.0214594,-0.0725697,-0.40042,-0.0628252,-0.0585117,0.038482,0
-0.103629,0.096692,-0.387962,-0.0689301,-0.0947539,0.0788534,0
-0.252063,0.237076,-0.307674,-0.0656189,-0.132632,0.0758878,0
-0.252063,0.237076,-0.307674,-0.0656189,-0.132632,0.0758878,0
-0.371427,0.165189,-0.187345,-0.0558736,-0.146972,0.000625193,0
-0.450847,-0.0452258,-0.0750518,-0.0445173,-0.136963,-0.0870344,0
-0.431527,-0.203285,-0.00673378,-0.0435473,-0.127688,-0.123223,0
-0.320087,-0.192932,0.0099719,-0.0522629,-0.121119,-0.098109,0
-0.223997,-0.105604,-0.027183,-0.0776007,-0.11382,-0.0427741,0
-0.175106,-0.0988843,-0.088481,-0.0809562,-0.101816,-0.00901532,0
-0.158389,-0.137772,-0.102264,-0.0687823,-0.108155,0.014515,0
-0.189274,-0.137266,-0.0733121,-0.0618513,-0.132924,0.0550621,0
-0.219206,-0.119238,-0.0273244,-0.0551146,-0.144787,0.0778142,0
-0.223747,-0.0784506,0.00251885,-0.0567236,-0.140769,0.0703505,0
-0.184933,-0.0850866,-0.00894694,-0.0660204,-0.133217,0.0412623,0
-0.123331,-0.0516063,-0.0564639,-0.0764397,-0.125565,0.0232648,0
-0.080555,0.01071,-0.11256,-0.0785532,-0.118813,0.0244849,0
-0.050463,0.0452707,-0.115829,-0.066472,-0.123143,0.0113941,0
-0.0366573,0.0531181,-0.0669015,-0.0524371,-0.137049,-0.00136632,0
-0.0569635,-0.0184344,-0.0142511,-0.0504528,-0.143177,-0.0192054,0
-0.0546875,-0.0720911,-0.043553,-0.0677739,-0.121817,-0.00586224,0
-0.0177601,0.0160019,-0.150337,-0.0861375,-0.0795116,0.0174447,0
0.0213823,0.210553,-0.251623,-0.0877124,-0.0704618,0.0194483,0
0.0976293,0.279352,-0.278995,-0.0682075,-0.0925317,-0.0581504,0
0.137006,0.205688,-0.247862,-0.0549937,-0.0963083,-0.134824,0
0.0762808,0.0573376,-0.270282,-0.069108,-0.0747178,-0.16582,0
-0.0881193,-0.129353,-0.275274,-0.0792342,-0.0521145,-0.169704,0
-0.339655,-0.189745,-0.191057,-0.0541257,-0.0562933,-0.18885,0
-0.473215,0.0234248,-0.0680179,0.00582472,-0.0677181,-0.195926,0
-0.555331,0.474193,0.10248,0.0358475,-0.0672526,-0.231357,0
-0.590093,0.792573,0.174806,0.0359513,-0.033758,-0.278941,0
-0.62982,0.675056,0.183153,0.0382912,0.0149125,-0.419451,0
-0.596375,0.253983,0.191097,0.0705848,0.0400693,-0.533567,0
-0.427597,-0.217193,0.283282,0.0930037,0.0101482,-0.549494,0
-0.240715,-0.491561,0.467982,0.121738,-0.0213188,-0.449652,0
-0.0302026,-0.419209,0.554286,0.146224,8.08686e-05,-0.269785,0
0.295928,-0.163359,0.519039,0.135213,0.0557408,-0.128372,0
0.627106,0.138421,0.381289,0.134832,0.119436,-0.0377523,0
0.794151,0.328062,0.26472,0.194139,0.171261,0.0115864,0
0.818263,0.307416,0.389384,0.278488,0.150838,0.0113823,0
0.748374,0.207749,0.740519,0.339936,0.107116,0.0165321,0
0.557591,0.0752436,1.17361,0.366928,0.0881089,0.0592051,0
0.292581,-0.0119322,1.54057,0.358273,0.0982242,0.106414,0
0.120423,0.0617381,1.70392,0.293415,0.137607,0.148526,0
0.116375,0.204607,1.64196,0.209187,0.192047,0.165133,0
0.214361,0.289354,1.45171,0.163597,0.239497,0.157473,0
0.310857,0.3354,1.27769,0.148207,0.251886,0.173052,0
0.37139,0.299895,1.1411,0.138912,0.229944,0.20259,0
0.382366,0.277666,1.05936,0.143946,0.214878,0.269808,0
0.282275,0.312378,1.06693,0.1436,0.170391,0.352016,0
0.123634,0.283122,1.14024,0.135754,0.128026,0.409605,0
-0.092541,0.249575,1.26431,0.139122,0.102779,0.433293,0
-0.285474,0.251156,1.33905,0.102457,0.0849389,0.448958,0
-0.442863,0.382389,1.33124,0.047329,0.0827706,0.436011,0
-0.505686,0.550366,1.24177,-0.0100741,0.0812213,0.363164,0
-0.505686,0.550366,1.24177,-0.0100741,0.0812213,0.363164,0.0475616
-0.454348,0.608056,1.161,-0.0428377,0.0568142,0.228616,0.0475616
-0.426234,0.554682,1.07542,-0.0938722,0.0171527,0.109751,0.0475616
-0.484748,0.340055,1.01978,-0.126124,-0.0375269,0.0105686,0.0475616
-0.620042,0.223495,1.00168,-0.135157,-0.0871652,-0.0566314,0.0475616
-0.687245,0.298853,0.945675,-0.183691,-0.121729,-0.128503,0.0475616
-0.663496,0.322685,0.793168,-0.236017,-0.144963,-0.264894,0.0475616
-0.657693,0.296726,0.652774,-0.242087,-0.155507,-0.40078,0.0475616
-0.631395,0.238662,0.503037,-0.246217,-0.185891,-0.542335,0.0475616
-0.449543,-0.0374599,0.374822,-0.237315,-0.208605,-0.709138,0.0475616
-0.0727908,-0.521546,0.197934,-0.217398,-0.192682,-0.811332,0.0475616
0.204048,-0.942605,-0.0679619,-0.202748,-0.145325,-0.744722,0.0475616
0.189818,-0.79961,-0.382767,-0.193268,-0.137174,-0.476469,0.0475616
0.125887,-0.275376,-0.632085,-0.173772,-0.177817,-0.298227,0.0475616
0.26013,0.151871,-0.778062,-0.136144,-0.176978,-0.272885,0.0475616
0.586992,0.143109,-0.943892,-0.10147,-0.103009,-0.351332,0.0475616
0.898587,-0.203962,-1.12052,-0.0779817,-0.013234,-0.334421,0.0475616
1.02457,-0.682946,-1.25555,-0.0586708,0.0386532,-0.214382,0.0475616
0.939158,-0.934167,-1.34173,-0.0386135,0.071367,-0.019131,0.0475616
0.824799,-0.678461,-1.45192,-0.043696,0.0877376,0.185512,0.0475616
0.822698,-0.201497,-1.56441,-0.0656134,0.105455,0.282519,0.0475616
0.888933,0.0668313,-1.65374,-0.0857282,0.144982,0.277882,0.0475616
0.833025,0.0513428,-1.63411,-0.0689161,0.188604,0.225713,0.0475616
0.642981,-0.130647,-1.51969,-0.0520789,0.19351,0.203957,0.0475616
0.441696,-0.289326,-1.32008,-0.0649665,0.174925,0.207418,0.0475616
0.322848,-0.43291,-1.18293,-0.0855733,0.187005,0.213023,0.0475616
0.318566,-0.527577,-1.17805,-0.112982,0.237773,0.231263,0.0475616
0.3061,-0.671293,-1.24752,-0.131389,0.284688,0.262119,0.0475616
0.258013,-0.614053,-1.35341,-0.121078,0.312548,0.336656,0.0475616
0.206316,-0.477587,-1.44356,-0.106838,0.316671,0.384564,0.0475616
0.169513,-0.372676,-1.48924,-0.0839376,0.312359,0.398048,0.0475616
0.1022,-0.362432,-1.48361,-0.0723984,0.300465,0.3804,0.0475616
-0.0570963,-0.2701,-1.40413,-0.059509,0.270115,0.374442,0.0475616
-0.213037,-0.0853676,-1.25761,-0.0410944,0.21395,0.340463,0.0475616
-0.323398,0.0870866,-1.06052,-0.0451577,0.152752,0.237172,0.0475616
-0.431116,0.0841273,-0.920863,-0.0602905,0.127774,0.0836743,0.0475616
-0.522839,-0.239579,-0.861756,-0.0615711,0.132538,-0.0799927,0.0475616
-0.617205,-0.58254,-0.856214,-0.0529361,0.131422,-0.179095,0.0475616
-0.720387,-0.662564,-0.804073,-0.034187,0.0747554,-0.201768,0.0475616
-0.746368,-0.463734,-0.680791,0.0122721,0.00202239,-0.232589,0.0475616
-0.600457,-0.250104,-0.5435,0.0384945,-0.0463076,-0.313978,0.0475616
-0.472948,-0.154037,-0.481698,0.0390454,-0.0436387,-0.401509,0.0475616
-0.510087,-0.236159,-0.494594,0.0487149,-0.0250457,-0.469446,0.0475616
-0.573467,-0.311553,-0.493494,0.068673,-0.0540307,-0.510818,0.0475616
-0.50057,-0.279681,-0.456535,0.0968083,-0.0974795,-0.518416,0.0475616
-0.351842,-0.0140482,-0.385835,0.124896,-0.102051,-0.48414,0.0475616
-0.235752,0.157706,-0.271443,0.173575,-0.122688,-0.451072,0.0475616
-0.195213,0.180678,-0.0677525,0.23788,-0.124642,-0.431065,0.0475616
-0.112193,0.165744,0.121722,0.248924,-0.113752,-0.355673,0.0475616
-0.0469877,0.0762024,0.298533,0.233733,-0.115953,-0.287171,0.0475616
0.0233627,-0.161294,0.421885,0.247358,-0.0803372,-0.214348,0.0475616
0.17828,-0.404024,0.485819,0.275375,-0.0157627,-0.129993,0.0475616
0.424468,-0.420954,0.495587,0.289911,0.0500091,0.00802249,0.0475616
0.424468,-0.420954,0.495587,0.289911,0.0500091,0.00802249,0.113617
0.646176,-0.0732642,0.51235,0.29156,0.0914181,0.155885,0.113617
0.794346,0.392429,0.637368,0.302324,0.085426,0.236829,0.113617
0.767898,0.651144,0.851885,0.316238,0.0843185,0.243871,0.113617
0.548653,0.662986,1.05471,0.311628,0.122475,0.229731,0.113617
0.294754,0.544779,1.2264,0.290679,0.154132,0.213191,0.113617
0.14801,0.455641,1.35707,0.257584,0.166315,0.199538,0.113617
0.11271,0.468332,1.40683,0.212952,0.183503,0.205182,0.113617
0.141965,0.547278,1.3947,0.165013,0.190244,0.227634,0.113617
0.186303,0.621584,1.3215,0.108437,0.192297,0.248998,0.113617
0.203888,0.608802,1.19118,0.07402,0.210379,0.271134,0.113617
0.165153,0.580045,1.0428,0.0596921,0.228584,0.29746,0.113617
0.0606566,0.661633,0.980004,0.0500236,0.201584,0.33456,0.113617
-0.0422975,0.784142,1.04444,0.0555154,0.148406,0.343451,0.113617
-0.173473,0.77775,1.21367,0.0585186,0.0967631,0.287303,0.113617
-0.343829,0.720989,1.35367,0.0504237,0.1031,0.235514,0.113617
-0.501805,0.556796,1.41076,0.0386314,0.122501,0.16109,0.113617
-0.582813,0.384136,1.40493,0.00926933,0.133386,0.102663,0.113617
-0.558117,0.252798,1.36439,-0.0174944,0.120319,0.0500495,0.113617
-0.509419,0.220805,1.30205,-0.0314924,0.0954124,0.0160705,0.113617
-0.49431,0.321487,1.21591,-0.0441366,0.0572724,0.00365758,0.113617
-0.482775,0.356087,1.09342,-0.0719991,0.0103962,-0.0479819,0.113617
-0.479639,0.215766,0.957184,-0.0872668,-0.0227056,-0.132637,0.113617
-0.545964,0.106178,0.834244,-0.0985455,-0.0759141,-0.19294,0.113617
-0.656385,0.20375,0.760264,-0.117314,-0.152369,-0.225689,0.113617
-0.729643,0.43176,0.743263,-0.122747,-0.227147,-0.299181,0.113617
-0.723273,0.640399,0.770352,-0.108557,-0.274655,-0.444638,0.113617
-0.564115,0.412345,0.778145,-0.103482,-0.280926,-0.658715,0.113617
-0.220864,-0.188178,0.663123,-0.0908885,-0.22718,-0.824345,0.113617
0.143989,-0.647215,0.417379,-0.10777,-0.147554,-0.778306,0.113617
0.283336,-0.590771,0.164778,-0.138821,-0.137299,-0.570044,0.113617
0.281967,-0.251323,-0.00412666,-0.113437,-0.15223,-0.391143,0.113617
0.389126,0.0256609,-0.073103,-0.0992563,-0.169292,-0.328162,0.113617
0.64065,-0.154332,-0.127266,-0.0539232,-0.108036,-0.359288,0.113617
0.844383,-0.456322,-0.249585,-0.0599097,-0.0227162,-0.29034,0.113617
0.904624,-0.71782,-0.458098,-0.0817649,0.0452001,-0.143119,0.113617
0.860849,-0.657397,-0.686973,-0.0842867,0.0889245,0.0420915,0.113617
0.846656,-0.312701,-0.876135,-0.0850724,0.0895755,0.173881,0.113617
0.842533,0.0968897,-0.957621,-0.0764284,0.0754881,0.243641,0.113617
0.755556,0.306745,-0.95174,-0.0616922,0.0687672,0.252358,0.113617
0.602909,0.236401,-0.908874,-0.0436078,0.0805982,0.217277,0.113617
0.489296,0.0694355,-0.871405,-0.0481602,0.103001,0.208024,0.113617
0.492066,-0.136226,-0.881752,-0.0655799,0.13424,0.229584,0.113617
0.551045,-0.218278,-0.919053,-0.0701557,0.169292,0.296091,0.113617
0.668001,-0.280248,-0.963205,-0.0661963,0.189597,0.353243,0.113617
0.748547,-0.240452,-0.977355,-0.058537,0.211909,0.434713,0.113617
0.716728,-0.027941,-0.962509,-0.0717317,0.214024,0.510664,0.113617
0.599004,0.161137,-0.941036,-0.107825,0.202988,0.52083,0.113617
0.426003,0.282837,-0.959216,-0.144759,0.221721,0.462414,0.113617
0.225442,0.296941,-0.952401,-0.148962,0.236872,0.36074,0.113617
0.225442,0.296941,-0.952401,-0.148962,0.236872,0.36074,0.129471
0.0566211,0.244788,-0.835715,-0.158368,0.198802,0.243514,0.129471
-0.0481939,-0.00719941,-0.599182,-0.165142,0.127472,0.0765085,0.129471
-0.193809,-0.22148,-0.361862,-0.151425,0.112195,-0.0277241,0.129471
-0.467248,-0.272531,-0.229924,-0.184061,0.11198,-0.0537655,0.129471
-0.701481,-0.313811,-0.174874,-0.203947,0.109301,-0.091255,0.129471
-0.732197,-0.513765,-0.119633,-0.184069,0.12208,-0.178775,0.129471
-0.662902,-0.807284,-0.088523,-0.139333,0.139455,-0.222259,0.129471
-0.631537,-1.07362,-0.105379,-0.106424,0.148789,-0.175549,0.129471
-0.655322,-1.17933,-0.143914,-0.0721916,0.157881,-0.0687757,0.129471
-0.70132,-1.11998,-0.159616,-0.0508901,0.125721,0.00630081,0.129471
-0.756263,-0.968309,-0.190798,-0.0479051,0.095746,0.0194706,0.129471
-0.832955,-0.950586,-0.214877,-0.0376281,0.0462888,-0.0360447,0.129471
-0.850936,-0.841845,-0.217328,-0.0151045,0.00672096,-0.165959,0.129471
-0.681449,-0.485944,-0.369087,-0.0310401,-0.0470649,-0.275589,0.129471
-0.551582,0.0699843,-0.685553,-0.0551756,-0.0519034,-0.335388,0.129471
-0.584872,0.509721,-1.08252,-0.0327609,-0.0293099,-0.418157,0.129471
-0.611714,0.60461,-1.22384,0.082186,-0.0834462,-0.570048,0.129471
-0.472102,0.457429,-1.00103,0.22592,-0.189058,-0.684446,0.129471
-0.299941,0.353892,-0.564874,0.312326,-0.268542,-0.676865,0.129471
-0.207264,0.384271,-0.181135,0.312249,-0.268106,-0.55657,0.129471
-0.112292,0.226464,0.0501996,0.255171,-0.212075,-0.474983,0.129471
0.112337,-0.100738,0.15409,0.215926,-0.117562,-0.392933,0.129471
0.408227,-0.312435,0.15734,0.201227,-0.0299227,-0.245488,0.129471
0.674001,-0.184085,0.115907,0.197867,0.0272427,-0.0411481,0.129471
0.815191,0.239037,0.0877381,0.212346,0.0480885,0.141642,0.129471
0.817323,0.755605,0.145631,0.226849,0.053415,0.247178,0.129471
0.732878,0.930931,0.325084,0.246536,0.0526157,0.222033,0.129471
0.589506,0.806064,0.589358,0.273208,0.0763893,0.168887,0.129471
0.419856,0.492771,0.805481,0.280105,0.109801,0.142874,0.129471
0.308059,0.244236,0.947704,0.242339,0.149938,0.161552,0.129471
0.28838,0.166331,1.01046,0.176434,0.17152,0.23584,0.129471
0.306717,0.221426,1.00593,0.1294,0.195537,0.319699,0.129471
0.352841,0.334235,0.974458,0.102233,0.214809,0.387478,0.129471
0.369888,0.407105,0.928906,0.0674214,0.221989,0.433908,0.129471
0.28624,0.486273,0.86661,0.0404036,0.232294,0.481503,0.129471
0.0333318,0.571209,0.850851,0.0131476,0.217705,0.522112,0.129471
-0.307273,0.510369,0.91341,-0.0109787,0.170557,0.502035,0.129471
-0.579434,0.285475,1.02462,-0.0225365,0.136162,0.39948,0.129471
-0.648044,0.173217,1.139,-0.00767484,0.12739,0.313745,0.129471
-0.599161,0.143078,1.3213,-0.0215711,0.0742824,0.218413,0.129471
-0.573579,0.11349,1.45083,-0.0423787,0.0330338,0.115934,0.129471
-0.705881,0.243229,1.42343,-0.0804942,0.045622,0.0668397,0.129471
-0.849133,0.407735,1.26944,-0.119726,0.0506397,-0.0237108,0.129471
-0.826472,0.318664,1.13951,-0.121367,0.00358447,-0.208088,0.129471
-0.688599,0.118794,1.04602,-0.105877,-0.0529847,-0.349574,0.129471
-0.485878,-0.117708,0.920928,-0.0890661,-0.103118,-0.4127,0.129471
-0.365207,-0.351358,0.818669,-0.0732927,-0.130263,-0.391959,0.129471
-0.351386,-0.356567,0.682708,-0.0597232,-0.147429,-0.300052,0.129471
-0.351386,-0.356567,0.682708,-0.0597232,-0.147429,-0.300052,0.240448
-0.329528,-0.16241,0.552971,-0.0508807,-0.174662,-0.237343,0.240448
-0.272979,-0.0137881,0.441665,-0.047618,-0.195162,-0.248845,0.240448
-0.276431,0.0197643,0.315588,-0.0366734,-0.185946,-0.295106,0.240448
-0.269016,-0.0922248,0.16838,-0.0254762,-0.171739,-0.360624,0.240448
-0.125983,-0.00340445,0.0662672,-0.00410392,-0.165699,-0.376213,0.240448
0.0929104,-0.0148134,-0.00400484,-0.0167656,-0.170549,-0.373245,0.240448
0.172121,-0.089199,-0.107835,-0.0239397,-0.141363,-0.32296,0.240448
0.161889,-0.154787,-0.253927,-0.024147,-0.114938,-0.248945,0.240448
0.195284,-0.137521,-0.327849,-0.00452283,-0.10161,-0.180458,0.240448
0.246301,-0.189501,-0.315297,0.0165481,-0.0974253,-0.153095,0.240448
0.343738,-0.254528,-0.303032,0.0377388,-0.0715311,-0.133369,0.240448
0.496686,-0.31091,-0.358257,0.0339556,-0.0189045,-0.101676,0.240448
0.64339,-0.309272,-0.43962,0.0317338,0.0347559,-0.0515078,0.240448
0.740201,-0.0794327,-0.468418,0.046195,0.0571074,0.0169221,0.240448
0.788036,0.2559,-0.433372,0.0478108,0.0614823,0.0672289,0.240448
0.79253,0.316312,-0.319287,0.0634741,0.0677983,0.0361782,0.240448
0.725658,0.109239,-0.120259,0.0896926,0.0779469,-0.0106874,0.240448
0.643631,-0.13104,0.0811471,0.0955788,0.0840931,0.0154728,0.240448
0.619961,-0.28718,0.227013,0.0865139,0.0981196,0.0787702,0.240448
0.620048,-0.282412,0.303255,0.0668363,0.123108,0.176705,0.240448
0.65028,-0.27179,0.320284,0.0462627,0.147013,0.251585,0.240448
0.65825,-0.186644,0.320639,0.037602,0.16958,0.330738,0.240448
0.599869,-0.0686762,0.314525,0.0181662,0.175065,0.398712,0.240448
0.473964,0.00211079,0.290099,-0.000600748,0.182166,0.425417,0.240448
0.349457,-2.34403e-05,0.238479,-0.0130479,0.194327,0.405057,0.240448
0.227351,0.0378407,0.18025,-0.01848,0.196946,0.373137,0.240448
0.161694,0.0995017,0.138095,-0.027281,0.174115,0.32573,0.240448
0.0986507,0.123674,0.191767,-0.0138561,0.138365,0.268338,0.240448
-0.0446081,0.107176,0.261591,-0.0158004,0.108267,0.221021,0.240448
-0.263155,0.128222,0.309922,-0.0110334,0.0880417,0.189936,0.240448
-0.485643,0.101484,0.392369,0.00694764,0.0491725,0.124666,0.240448
-0.588967,0.106715,0.481672,0.0198331,0.0172091,0.0534352,0.240448
-0.555186,-0.0172827,0.55849,0.0278162,-0.000436336,-0.0288814,0.240448
-0.477567,-0.138807,0.567319,0.0364337,0.00777721,-0.0663225,0.240448
-0.448311,-0.0656315,0.497922,0.0231444,0.000840068,-0.0328744,0.240448
-0.417687,0.134862,0.411466,0.0168536,-0.0371929,0.00133485,0.240448
-0.306678,0.192542,0.383956,0.0442007,-0.0765201,-0.0289818,0.240448
-0.208779,0.215783,0.351854,0.0445126,-0.101946,-0.0432205,0.240448
-0.192817,0.27905,0.290022,0.026345,-0.116618,-0.0424185,0.240448
-0.187812,0.365081,0.234088,0.00581577,-0.147041,-0.0494012,0.240448
-0.0837566,0.430184,0.155802,-0.0294509,-0.166117,-0.102351,0.240448
0.0904256,0.371944,0.0709231,-0.0386096,-0.153378,-0.168614,0.240448
0.16868,0.297976,0.0658135,-0.0230196,-0.155251,-0.210098,0.240448
0.0820783,0.299424,0.157181,-0.003468,-0.164502,-0.190553,0.240448
-0.0766717,0.4314,0.286593,0.0231241,-0.151533,-0.175076,0.240448
-0.294028,0.741736,0.441252,0.0437523,-0.140122,-0.157646,0.240448
-0.464837,0.814307,0.660539,0.0564144,-0.159535,-0.227026,0.240448
-0.433429,0.52761,0.869202,0.0920643,-0.123601,-0.355473,0.240448
-0.433429,0.52761,0.869202,0.0920643,-0.123601,-0.355473,0.35672
-0.280812,0.0855006,0.947841,0.101302,-0.0359861,-0.382787,0.35672
-0.124314,-0.219704,0.888654,0.0929237,0.0408634,-0.291152,0.35672
0.0829653,-0.295427,0.75156,0.100024,0.0925696,-0.138753,0.35672
0.332884,-0.254219,0.631562,0.139449,0.140039,0.00584501,0.35672
0.566487,-0.0343881,0.534895,0.191358,0.181596,0.143828,0.35672
0.700522,0.289981,0.497657,0.236947,0.206326,0.236374,0.35672
0.651466,0.599724,0.617135,0.287736,0.199303,0.273768,0.35672
0.445719,0.726645,0.935032,0.35988,0.16937,0.234034,0.35672
0.0700561,0.722918,1.42502,0.394688,0.122285,0.167769,0.35672
-0.341146,0.670829,1.90843,0.381649,0.104855,0.0982833,0.35672
-0.580465,0.591241,2.18512,0.336738,0.146771,0.00309944,0.35672
-0.579361,0.498707,2.26651,0.266969,0.196547,-0.0800337,0.35672
-0.409524,0.494167,2.17385,0.153813,0.199529,-0.112581,0.35672
-0.186983,0.513107,1.96483,0.064469,0.18973,-0.106068,0.35672
-0.00351551,0.517301,1.7949,0.0331523,0.161627,-0.0770486,0.35672
0.0669152,0.463884,1.71457,0.0273239,0.112755,-0.0335329,0.35672
0.0182507,0.483577,1.66946,0.0262863,0.0727119,0.0270435,0.35672
-0.0651581,0.466114,1.60863,0.0187383,0.0430547,0.0641832,0.35672
-0.14033,0.442669,1.60791,0.00818899,0.00637484,0.079754,0.35672
-0.199612,0.372755,1.62672,0.00866356,-0.0170838,0.0700756,0.35672
-0.213681,0.333923,1.63084,0.00265925,-0.0275632,0.0702294,0.35672
-0.148449,0.222102,1.5782,-0.0167497,-0.0297234,0.0388773,0.35672
-0.0513171,0.107466,1.40735,-0.040722,-0.0154167,0.0385615,0.35672
0.0321517,0.0120348,1.24412,-0.0310306,-0.00885656,0.0470995,0.35672
0.0917035,-0.0378103,1.18956,-0.0217715,-0.053689,0.0791712,0.35672
0.0720532,-0.0145311,1.16537,-0.026797,-0.0841642,0.123261,0.35672
0.010433,-0.0360764,1.11437,-0.0316168,-0.0958005,0.129851,0.35672
-0.0295925,-0.0676909,1.0193,-0.0372968,-0.100005,0.119124,0.35672
-0.00508137,-0.0337658,0.908372,-0.0355251,-0.11497,0.0941001,0.35672
0.0360188,0.00188095,0.813808,-0.0415956,-0.144753,0.0438411,0.35672
0.00422071,0.0394777,0.751806,-0.037251,-0.172865,-0.0192101,0.35672
-0.0531272,0.0621967,0.748373,0.00399632,-0.197407,-0.105695,0.35672
-0.0791816,0.0359493,0.789856,0.0380425,-0.197758,-0.20614,0.35672
-0.0683672,-0.144112,0.856929,0.0728741,-0.181722,-0.33003,0.35672
-0.0973698,-0.273907,0.936268,0.0928926,-0.173044,-0.396169,0.35672
-0.158692,-0.360184,1.02069,0.0747202,-0.18884,-0.430745,0.35672
-0.245783,-0.292147,1.06482,0.0341846,-0.196121,-0.43492,0.35672
-0.381722,-0.0695351,1.02469,0.0024446,-0.172578,-0.413456,0.35672
-0.458141,0.0939606,0.912813,-0.0371097,-0.143055,-0.441784,0.35672
-0.359569,0.0249428,0.806847,-0.0453615,-0.115418,-0.517245,0.35672
-0.109422,-0.211514,0.700112,-0.0456128,-0.093077,-0.539318,0.35672
0.258022,-0.284246,0.428445,-0.0769402,-0.0374939,-0.425498,0.35672
0.593878,-0.332713,0.124166,-0.0926027,0.0157359,-0.258957,0.35672
0.717936,-0.306537,-0.0920916,-0.0598408,0.0468446,-0.0721871,0.35672
0.641642,-0.0663959,-0.186926,-0.0218917,0.037063,0.0777516,0.35672
0.548753,0.41007,-0.194392,0.00157318,0.0289339,0.152879,0.35672
0.622105,0.673853,-0.183227,0.0152554,0.0519424,0.0895329,0.35672
0.622105,0.673853,-0.183227,0.0152554,0.0519424,0.0895329,0.502045
0.773866,0.585959,-0.170247,0.0248025,0.123805,-0.0324065,0.502045
0.826445,0.242404,-0.156184,0.0282679,0.176483,-0.074923,0.502045
0.766912,-0.169223,-0.106038,0.038124,0.202592,-0.0401312,0.502045
0.677212,-0.439666,-0.0434344,0.0372954,0.200091,0.0731554,0.502045
0.633201,-0.49061,-0.0503833,0.0208464,0.209094,0.210646,0.502045
0.600873,-0.436718,-0.125629,0.00329718,0.222281,0.319272,0.502045
0.533825,-0.289934,-0.26665,0.00140011,0.243444,0.401912,0.502045
0.434347,-0.113778,-0.396067,0.01159,0.240211,0.455468,0.502045
0.340581,0.090155,-0.41103,0.0436987,0.216176,0.461732,0.502045
0.26937,0.208961,-0.312008,0.0695929,0.171077,0.423993,0.502045
0.198597,0.348033,-0.213639,0.0550455,0.146461,0.38242,0.502045
0.0678531,0.447892,-0.15521,0.0227696,0.142954,0.332083,0.502045
-0.159047,0.455028,-0.11306,-0.00174777,0.141971,0.249065,0.502045
-0.315689,0.475494,-0.100758,-0.0166886,0.124786,0.107332,0.502045
-0.253757,0.449332,-0.128528,-0.0350272,0.102465,-0.058437,0.502045
-0.167655,0.230438,-0.109139,-0.0546067,0.0618875,-0.210594,0.502045
-0.261708,-0.111677,-0.0302921,-0.0351727,0.0265243,-0.292478,0.502045
-0.461569,-0.265275,0.0966517,-0.0115952,-0.0118822,-0.30788,0.502045
-0.523218,-0.122313,0.183829,-0.0150253,-0.0459704,-0.312393,0.502045
-0.392693,0.175591,0.173994,-0.0311715,-0.0360163,-0.325511,0.502045
-0.204645,0.322695,0.147722,-0.0123221,-0.020368,-0.382986,0.502045
-0.0920458,0.268513,0.182068,0.0163493,-0.0294757,-0.429768,0.502045
-0.143156,0.149807,0.264926,0.0368389,-0.0425317,-0.399046,0.502045
-0.340626,0.159954,0.388186,0.0767442,-0.0474319,-0.332419,0.502045
-0.452125,0.435083,0.534716,0.124139,-0.0486982,-0.266723,0.502045
-0.363405,0.584194,0.712621,0.143654,-0.0492299,-0.277266,0.502045
-0.138113,0.519867,0.765844,0.13585,-0.000150278,-0.297319,0.502045
0.0949494,0.18775,0.697476,0.0926889,0.0491959,-0.26342,0.502045
0.247647,-0.256958,0.564357,0.0779981,0.0915889,-0.156892,0.502045
0.272821,-0.337389,0.435962,0.102403,0.110564,0.0369183,0.502045
0.290431,-0.0542827,0.357708,0.116661,0.089292,0.212106,0.502045
0.335261,0.440534,0.365182,0.121612,0.0611741,0.315639,0.502045
0.362095,0.753247,0.453289,0.120046,0.0363841,0.315199,0.502045
0.281099,0.687229,0.56328,0.125558,0.0435978,0.244145,0.502045
0.101101,0.480786,0.657832,0.11731,0.0675435,0.203192,0.502045
-0.0411223,0.344356,0.705357,0.0866522,0.0760461,0.201142,0.502045
-0.018131,0.274194,0.739644,0.0595051,0.0815463,0.195622,0.502045
0.0974778,0.233096,0.758806,0.0431319,0.0891291,0.202919,0.502045
0.121838,0.254279,0.751739,0.0142867,0.101708,0.244548,0.502045
0.0237658,0.282214,0.756748,-0.0072016,0.0971068,0.283819,0.502045
-0.132411,0.309385,0.762558,-0.0235811,0.0965899,0.284365,0.502045
-0.296644,0.346125,0.71021,-0.0498356,0.104958,0.260363,0.502045
-0.410227,0.395055,0.607993,-0.071779,0.102517,0.200853,0.502045
-0.409086,0.301737,0.495567,-0.0609508,0.0902927,0.101232,0.502045
-0.351226,0.191726,0.417521,-0.0317052,0.0709357,0.016641,0.502045
-0.298113,0.0749698,0.42376,-0.00891124,0.0155244,-0.0191307,0.502045
-0.26193,-0.01032,0.473163,0.0208978,-0.0254841,-0.0258431,0.502045
-0.26421,-0.0774832,0.443243,0.014331,-0.0391787,-0.0109262,0.502045
-0.26421,-0.0774832,0.443243,0.014331,-0.0391787,-0.0109262,0.631516
-0.282392,-0.0707785,0.306752,0.000477308,-0.0231368,0.0222879,0.631516
-0.269219,-0.00201316,0.191989,0.0101606,-0.0328149,0.0410149,0.631516
-0.237808,0.114034,0.133193,0.0231958,-0.0702257,0.0487872,0.631516
-0.205908,0.127938,0.0844844,0.0306266,-0.0936667,0.0187801,0.631516
-0.179058,0.0373124,0.0450991,0.0454324,-0.0904135,-0.0150366,0.631516
-0.173271,-0.0305428,0.0516768,0.0584394,-0.111335,-0.0370512,0.631516
-0.161751,0.0382917,0.0704657,0.0493841,-0.138307,-0.0314937,0.631516
-0.106716,0.142272,0.0671662,0.0313769,-0.147974,-0.056908,0.631516
-0.029962,0.171215,0.0136263,0.0158641,-0.130619,-0.111165,0.631516
-0.0259877,0.144608,-0.0303955,0.0133976,-0.11961,-0.158475,0.631516
-0.102363,0.0874207,-0.0352574,0.00125485,-0.141207,-0.183885,0.631516
-0.195523,-0.104781,0.000785012,0.0249613,-0.153214,-0.262453,0.631516
-0.226164,-0.280119,0.0760467,0.0402632,-0.159582,-0.30187,0.631516
-0.171798,-0.386018,0.123752,0.0399768,-0.15272,-0.321809,0.631516
-0.0970389,-0.377397,0.0984423,0.0167864,-0.122971,-0.298227,0.631516
-0.0613701,-0.315083,-0.00959378,-0.0163789,-0.0880354,-0.262671,0.631516
-0.0703271,-0.212936,-0.114321,-0.0307278,-0.068725,-0.238152,0.631516
-0.0633588,-0.133636,-0.187384,-0.0280053,-0.0673484,-0.236337,0.631516
-0.0111965,-0.128573,-0.201783,-0.0102433,-0.0624596,-0.241319,0.631516
0.0971179,-0.267409,-0.213355,-0.00891325,-0.0442185,-0.224691,0.631516
0.224719,-0.42081,-0.271465,-0.0173751,-0.00809956,-0.151105,0.631516
0.320743,-0.439684,-0.40257,-0.0465963,0.0234803,-0.0388349,0.631516
0.385614,-0.23804,-0.555049,-0.0733965,0.0403772,0.0744034,0.631516
0.417481,0.0805628,-0.676129,-0.0765721,0.0449771,0.150699,0.631516
0.395529,0.220132,-0.675999,-0.0630483,0.0280288,0.132967,0.631516
0.306662,0.131042,-0.556108,-0.0302582,0.00753175,0.0882922,0.631516
0.198926,-0.0177461,-0.441771,-0.0261095,0.0142618,0.0730184,0.631516
0.163875,-0.139405,-0.373597,-0.0328387,0.034695,0.086427,0.631516
0.279494,0.00648505,-0.378405,-0.0571683,0.0539176,0.170694,0.631516
0.46225,-0.045479,-0.471723,-0.0728261,0.0912422,0.210602,0.631516
0.498082,-0.155641,-0.501783,-0.0618605,0.116605,0.23625,0.631516
0.384646,-0.265751,-0.580675,-0.0526845,0.112325,0.294885,0.631516
0.264369,-0.308099,-0.603267,-0.0507696,0.107151,0.323388,0.631516
0.205755,-0.273382,-0.629887,-0.0685168,0.0927749,0.318384,0.631516
0.186571,-0.103806,-0.673497,-0.0679198,0.0962586,0.305472,0.631516
0.153005,0.0473145,-0.620758,-0.0496889,0.0673466,0.26673,0.631516
0.0591743,0.0711727,-0.512269,-0.0431405,0.0281669,0.195245,0.631516
-0.0951281,-0.0140824,-0.415605,-0.0311688,0.0220004,0.123507,0.631516
-0.219871,-0.115766,-0.347578,-0.023907,0.0159243,0.0431526,0.631516
-0.261807,-0.245638,-0.308881,-0.0360514,0.000487626,-0.0328027,0.631516
-0.268084,-0.256389,-0.322842,-0.039,0.00608999,-0.0651723,0.631516
-0.230651,-0.277287,-0.341252,-0.0286914,0.00806394,-0.0921069,0.631516
-0.189062,-0.243187,-0.316725,-0.0135489,-0.00994128,-0.120995,0.631516
-0.161694,-0.349358,-0.302224,-0.0068424,-0.021112,-0.152802,0.631516
-0.195075,-0.310977,-0.309429,0.00784312,-0.018435,-0.143134,0.631516
-0.242637,-0.273711,-0.309362,-0.000489891,-0.0377958,-0.136416,0.631516
-0.312274,-0.0223549,-0.265927,0.0266092,-0.0514337,-0.163609,0.631516
-0.25092,0.242139,-0.236991,0.0303638,-0.0610399,-0.198789,0.631516
-0.25092,0.242139,-0.236991,0.0303638,-0.0610399,-0.198789,0.879898
-0.128522,0.292993,-0.155315,0.0336045,-0.0643258,-0.293201,0.879898
-0.065222,0.192819,-0.11212,0.0370125,-0.038396,-0.348543,0.879898
-0.0805583,0.127737,-0.134517,0.0395314,-0.00226404,-0.337915,0.879898
-0.102307,0.208846,-0.174544,0.047439,0.0252419,-0.272176,0.879898
-0.128263,0.368561,-0.151776,0.0726378,0.0203871,-0.212933,0.879898
-0.190456,0.467912,-0.0366409,0.102244,-0.00528568,-0.210803,0.879898
-0.266663,0.448055,0.17445,0.130621,-0.0458556,-0.221293,0.879898
-0.333917,0.250765,0.424932,0.159549,-0.047591,-0.247662,0.879898
-0.309652,-0.0301143,0.596328,0.169486,-0.022477,-0.256193,0.879898
-0.120965,-0.314738,0.630801,0.147689,0.0235472,-0.204085,0.879898
0.104849,-0.352314,0.576887,0.117557,0.0655844,-0.0818478,0.879898
0.283665,-0.15722,0.46044,0.110378,0.0878749,0.0507267,0.879898
0.365688,0.2581,0.384568,0.12022,0.0870582,0.161467,0.879898
0.339641,0.570466,0.417631,0.14941,0.0720918,0.195167,0.879898
0.243539,0.573904,0.55154,0.191108,0.06338,0.146748,0.879898
0.158309,0.333707,0.731996,0.216787,0.0695883,0.0947415,0.879898
0.129626,0.111478,0.888922,0.204216,0.074414,0.089372,0.879898
0.156315,0.0220813,0.947807,0.154774,0.0921556,0.144297,0.879898
0.210053,0.0627024,0.901592,0.0945024,0.118366,0.219917,0.879898
0.262668,0.191773,0.785106,0.0593265,0.152732,0.288005,0.879898
0.293123,0.351194,0.679451,0.0552187,0.167639,0.337605,0.879898
0.279178,0.3991,0.669826,0.0627966,0.147468,0.338546,0.879898
0.20195,0.330467,0.751202,0.07769,0.121456,0.319387,0.879898
0.0426911,0.178524,0.854939,0.0719011,0.106432,0.316629,0.879898
-0.192315,0.227846,0.892338,0.0489867,0.108927,0.346414,0.879898
-0.374409,0.392218,0.853742,0.0227722,0.108274,0.332964,0.879898
-0.481777,0.485086,0.827724,0.0296712,0.0923297,0.251648,0.879898
-0.56117,0.453592,0.882699,0.0475855,0.0538032,0.13202,0.879898
-0.635119,0.306807,0.97645,0.0480649,0.00639534,0.0285033,0.879898
-0.701111,0.196254,1.02091,0.0307546,-0.0193155,-0.0328063,0.879898
-0.718469,0.078452,0.978354,-0.00329293,-0.0364754,-0.0740479,0.879898
-0.692897,0.0724546,0.854083,-0.0389358,-0.0505817,-0.0820645,0.879898
-0.570582,0.0933543,0.722302,-0.0569253,-0.0866147,-0.105011,0.879898
-0.438371,0.178841,0.607288,-0.068526,-0.126206,-0.12237,0.879898
-0.348003,0.172563,0.507257,-0.0894994,-0.161657,-0.157047,0.879898
-0.293443,0.0810076,0.407632,-0.0979522,-0.186119,-0.200185,0.879898
-0.241685,-0.0353939,0.284194,-0.12449,-0.206969,-0.247716,0.879898
-0.223756,-0.12718,0.188678,-0.114856,-0.207121,-0.279487,0.879898
-0.221786,-0.201094,0.174898,-0.0899345,-0.221277,-0.320257,0.879898
-0.183451,-0.224881,0.237734,-0.0611356,-0.231867,-0.364641,0.879898
-0.163202,-0.221395,0.285793,-0.063018,-0.217365,-0.386822,0.879898
-0.21299,-0.197911,0.233787,-0.0991016,-0.180036,-0.404077,0.879898
-0.223245,-0.219106,0.071691,-0.123367,-0.123877,-0.43385,0.879898
-0.0583485,-0.255054,-0.161998,-0.135248,-0.0813774,-0.45716,0.879898
0.234087,-0.509751,-0.357672,-0.127551,-0.0565422,-0.448405,0.879898
0.466667,-0.783125,-0.53931,-0.112189,-0.0132128,-0.321669,0.879898
0.504107,-0.804125,-0.718512,-0.105065,0.0114274,-0.100887,0.879898
0.459221,-0.632033,-0.862388,-0.0915847,0.00849055,0.0585203,0.879898
0.459221,-0.632033,-0.862388,-0.0915847,0.00849055,0.0585203,0.935379
0.43424,-0.289773,-0.948045,-0.0949625,-0.00568537,0.159451,0.935379
0.415129,0.105732,-1.04597,-0.120498,-0.0101282,0.189223,0.935379
0.411787,0.28833,-1.13056,-0.0950758,0.0254693,0.130235,0.935379
0.442909,0.159724,-1.13688,-0.0616356,0.0407036,0.0233308,0.935379
0.463401,-0.0444613,-1.06005,-0.0339275,0.0418427,-0.0100311,0.935379
0.49434,-0.223326,-0.979623,-0.0218051,0.0508154,0.0235509,0.935379
0.556487,-0.376541,-0.966136,-0.0271052,0.0838255,0.0967429,0.935379
0.620898,-0.444153,-1.00878,-0.0344928,0.129874,0.213472,0.935379
0.633567,-0.427061,-1.07653,-0.0428797,0.160741,0.330374,0.935379
0.566497,-0.2612,-1.14704,-0.0415647,0.181659,0.424955,0.935379
0.466394,-0.0495481,-1.18669,-0.0470138,0.177308,0.471143,0.935379
0.382329,0.00710556,-1.12415,-0.0463704,0.156713,0.430287,0.935379
0.264766,-0.0470257,-1.03031,-0.0516984,0.140651,0.357733,0.935379
0.117557,-0.0519624,-0.977501,-0.0717228,0.143649,0.310286,0.935379
-0.0261434,-0.0165217,-0.92608,-0.0955119,0.135264,0.239811,0.935379
-0.150024,-0.0147361,-0.877337,-0.115446,0.107786,0.131906,0.935379
-0.210154,-0.0733346,-0.820368,-0.119061,0.0916061,0.0270451,0.935379
-0.217748,-0.226521,-0.751751,-0.111721,0.0758748,-0.0810094,0.935379
-0.218357,-0.348154,-0.729219,-0.106871,0.0708242,-0.132759,0.935379
-0.262942,-0.433888,-0.709295,-0.1075,0.0683997,-0.14517,0.935379
-0.317315,-0.531281,-0.675087,-0.0837587,0.0654694,-0.16193,0.935379
-0.330905,-0.602831,-0.615968,-0.0535871,0.0591987,-0.16433,0.935379
-0.359423,-0.600665,-0.551459,-0.017577,0.0550932,-0.145444,0.935379
-0.419079,-0.570474,-0.490779,0.0105933,0.0525774,-0.13544,0.935379
-0.47522,-0.486144,-0.455677,0.0280183,0.0450117,-0.159311,0.935379
-0.568808,-0.270092,-0.414862,0.0301721,0.0236429,-0.16429,0.935379
-0.63912,-0.122859,-0.371774,0.05387,-0.00827257,-0.228815,0.935379
-0.694216,0.00630917,-0.304463,0.0913458,-0.0216679,-0.298828,0.935379
-0.729213,0.108642,-0.239081,0.121115,-0.0407409,-0.357876,0.935379
-0.669574,0.0169877,-0.169836,0.149816,-0.069113,-0.442796,0.935379
-0.52341,-0.163415,-0.112486,0.19117,-0.0749303,-0.474577,0.935379
-0.403512,-0.119679,-0.0631837,0.215966,-0.0850908,-0.389481,0.935379
-0.298997,0.0778869,0.00999892,0.218282,-0.116455,-0.273926,0.935379
-0.180665,0.240406,0.143849,0.239928,-0.143437,-0.204133,0.935379
-0.0378142,0.172016,0.275584,0.251186,-0.141999,-0.186056,0.935379
0.150099,-0.10462,0.410876,0.268651,-0.108022,-0.171713,0.935379
0.323585,-0.39583,0.497628,0.273073,-0.0627554,-0.100179,0.935379
0.424458,-0.393102,0.493845,0.257722,-0.0114688,0.0393493,0.935379
0.523994,-0.152963,0.477497,0.244717,0.0130768,0.151085,0.935379
0.627041,0.201611,0.530768,0.25313,0.0257842,0.221755,0.935379
0.660418,0.446463,0.640429,0.259843,0.0411457,0.248634,0.935379
0.579356,0.477532,0.796507,0.271646,0.0651787,0.244721,0.935379
0.417468,0.376082,0.9691,0.26206,0.0836858,0.248156,0.935379
0.284217,0.336581,1.09001,0.229386,0.101475,0.266241,0.935379
0.24469,0.380606,1.14819,0.197734,0.124665,0.278051,0.935379
0.264353,0.484293,1.16869,0.164179,0.138529,0.272048,0.935379
0.27971,0.499584,1.14992,0.13082,0.15467,0.251866,0.935379
0.27971,0.499584,1.14992,0.13082,0.15467,0.251866,1.03844
0.248764,0.490353,1.12932,0.123753,0.171151,0.251122,1.03844
0.184191,0.434559,1.16267,0.128541,0.166995,0.242433,1.03844
0.0607862,0.361924,1.27177,0.128849,0.13989,0.248712,1.03844
-0.151315,0.332523,1.39527,0.112486,0.11725,0.27737,1.03844
-0.417654,0.295696,1.51756,0.0935549,0.0929129,0.285326,1.03844
-0.632235,0.308698,1.62477,0.0775887,0.0671323,0.275388,1.03844
-0.723576,0.355452,1.64827,0.0370637,0.0463331,0.234022,1.03844
-0.719691,0.36721,1.55201,-0.00381045,0.040432,0.177671,1.03844
-0.632088,0.256876,1.44772,-0.0162795,0.0110827,0.103682,1.03844
-0.525584,0.0345787,1.41523,-0.0105287,-0.0494272,0.0415616,1.03844
-0.537349,0.0263593,1.38529,-0.0168324,-0.101042,0.0699797,1.03844
-0.597151,0.190435,1.32669,-0.0391869,-0.162326,0.0950734,1.03844
-0.605381,0.25787,1.30016,-0.0420258,-0.218313,0.0520923,1.03844
-0.588528,0.194597,1.25359,-0.0483953,-0.258503,-0.00917703,1.03844
-0.586059,0.0882461,1.18583,-0.0502048,-0.283782,-0.0514243,1.03844
-0.562624,7.79134e-05,1.14355,-0.0464156,-0.32228,-0.0968345,1.03844
-0.49459,-0.0669242,1.10154,-0.0626942,-0.362537,-0.144306,1.03844
-0.438168,-0.129666,1.04897,-0.0946055,-0.379479,-0.184496,1.03844
-0.414879,-0.103865,0.90317,-0.133227,-0.377159,-0.209862,1.03844
-0.373504,-0.00319411,0.701821,-0.148878,-0.356413,-0.261343,1.03844
-0.2437,0.0052721,0.520859,-0.141239,-0.34011,-0.362267,1.03844
-0.0195773,0.0184128,0.30041,-0.143597,-0.316616,-0.443894,1.03844
0.242706,-0.138706,0.0659224,-0.156412,-0.281741,-0.487784,1.03844
0.314995,-0.38074,-0.0979976,-0.138264,-0.254825,-0.485869,1.03844
0.137937,-0.582995,-0.143478,-0.0954694,-0.263245,-0.433972,1.03844
-0.0413294,-0.353828,-0.0717303,-0.0317193,-0.290314,-0.395636,1.03844
0.174387,0.042613,-0.0455352,0.00313305,-0.265889,-0.481755,1.03844
0.77828,0.366236,-0.192286,-0.0355352,-0.17387,-0.576207,1.03844
1.39671,0.259576,-0.475181,-0.0506637,-0.0440543,-0.623572,1.03844
1.66558,-0.17189,-0.661199,-0.010767,0.0196652,-0.554953,1.03844
1.63811,-0.415508,-0.64306,0.0530913,-0.0151912,-0.351541,1.03844
1.4743,-0.346779,-0.39972,0.128558,-0.0552778,-0.142257,1.03844
1.26197,-0.0232985,0.0226331,0.217094,-0.0587109,-0.062713,1.03844
1.18108,0.173903,0.435932,0.24151,-0.0447305,-0.142761,1.03844
1.21827,0.0687959,0.681217,0.18328,0.0478299,-0.269622,1.03844
1.27205,-0.422301,0.734414,0.139757,0.191266,-0.364005,1.03844
1.23559,-0.888425,0.684352,0.128098,0.303858,-0.330349,1.03844
1.18909,-0.865998,0.561939,0.111065,0.364175,-0.163472,1.03844
1.16257,-0.412667,0.412437,0.0925007,0.38691,-0.0137519,1.03844
1.20145,-0.13121,0.276437,0.0892227,0.416019,0.00659871,1.03844
1.32812,-0.243408,0.192447,0.113693,0.443125,-0.0629725,1.03844
1.4372,-0.483838,0.169316,0.147935,0.456061,-0.0649896,1.03844
1.40046,-0.547793,0.13909,0.165699,0.471632,0.0545382,1.03844
1.25327,-0.478886,0.0831482,0.181399,0.484126,0.196808,1.03844
1.07648,-0.310322,0.0314895,0.192675,0.490599,0.309412,1.03844
0.918515,-0.143782,0.0235751,0.219157,0.474847,0.378917,1.03844
0.750654,-0.0223526,0.0156944,0.231544,0.464561,0.423852,1.03844
0.553884,-0.00578685,0.0325744,0.236213,0.455527,0.458127,1.03844
0.553884,-0.00578685,0.0325744,0.236213,0.455527,0.458127,1.24188
0.317275,-0.110106,0.100076,0.241637,0.438478,0.4665,1.24188
0.00458937,-0.127353,0.196769,0.244885,0.415326,0.511177,1.24188
-0.289361,0.0150432,0.265641,0.230034,0.382999,0.552027,1.24188
-0.409131,0.278227,0.253366,0.206697,0.356391,0.563101,1.24188
-0.386017,0.454723,0.188724,0.183282,0.328267,0.539101,1.24188
-0.430267,0.640625,0.136814,0.180374,0.299804,0.529536,1.24188
-0.627068,0.747077,0.150586,0.185827,0.237317,0.505549,1.24188
-0.900614,0.807868,0.26471,0.187775,0.160367,0.457696,1.24188
-1.13762,0.720673,0.442463,0.194879,0.0671557,0.336716,1.24188
-1.28902,0.563773,0.593655,0.194911,0.0122401,0.185769,1.24188
-1.43904,0.458693,0.666813,0.153415,-0.0307726,0.0632521,1.24188
-1.556,0.496317,0.643195,0.122983,-0.0711225,-0.0412283,1.24188
-1.48458,0.751264,0.635664,0.109385,-0.121654,-0.172803,1.24188
-1.22308,0.843589,0.704024,0.1105,-0.169133,-0.334097,1.24188
-1.15361,0.653478,0.891659,0.121379,-0.211883,-0.468966,1.24188
-1.35239,0.689747,1.0329,0.101126,-0.242375,-0.497468,1.24188
-1.44604,1.05727,1.13355,0.0712946,-0.272531,-0.540605,1.24188
-1.30468,1.4837,1.34428,0.0724919,-0.295008,-0.653563,1.24188
-0.947696,1.55741,1.49189,0.104693,-0.252256,-0.814847,1.24188
-0.427273,0.844574,1.57054,0.118701,-0.187826,-0.975067,1.24188
0.147261,-0.234011,1.60384,0.108348,-0.133187,-0.946936,1.24188
0.603512,-0.843738,1.54915,0.129952,-0.0296511,-0.604488,1.24188
0.8752,-0.66329,1.45016,0.171636,0.0523988,-0.141162,1.24188
0.979679,-0.00919636,1.47702,0.201881,0.0765032,0.188454,1.24188
0.887667,0.727256,1.69316,0.215956,0.056107,0.361675,1.24188
0.608166,1.15236,1.95377,0.204326,0.0427973,0.377791,1.24188
0.305504,1.22188,2.09424,0.179162,0.0904096,0.295806,1.24188
0.18178,1.04455,2.12622,0.143416,0.162001,0.183465,1.24188
0.208506,0.736042,2.07208,0.109527,0.192441,0.126248,1.24188
0.274648,0.431486,2.01717,0.0944183,0.224401,0.112213,1.24188
0.243475,0.222416,2.06294,0.0990719,0.19102,0.146604,1.24188
0.0638936,0.274745,2.16442,0.106061,0.146255,0.250824,1.24188
-0.158676,0.424931,2.24667,0.0778877,0.120969,0.316621,1.24188
-0.317469,0.394003,2.23819,0.0246742,0.117231,0.285955,1.24188
-0.426315,0.292706,2.07276,-0.0190066,0.128692,0.233361,1.24188
-0.44299,0.226199,1.83486,-0.0569965,0.107072,0.191883,1.24188
-0.384035,0.243539,1.60373,-0.0868406,0.0527099,0.152434,1.24188
-0.286274,0.325024,1.40656,-0.0896898,-0.00415461,0.103109,1.24188
-0.154487,0.328709,1.22007,-0.0913559,-0.055994,0.0562699,1.24188
-0.0821771,0.168468,1.05635,-0.0955258,-0.0821377,-0.0240655,1.24188
-0.164344,-0.0342682,0.932061,-0.109926,-0.132617,-0.0527236,1.24188
-0.296471,-0.195578,0.857228,-0.113037,-0.195083,-0.0656233,1.24188
-0.295955,-0.249712,0.751531,-0.125725,-0.233037,-0.116944,1.24188
-0.102838,-0.171527,0.575404,-0.154983,-0.224046,-0.17845,1.24188
0.113626,-0.24202,0.433987,-0.161139,-0.220783,-0.267895,1.24188
0.0903421,-0.154922,0.284004,-0.182202,-0.226726,-0.273217,1.24188
-0.0609271,0.492891,0.142482,-0.172476,-0.237933,-0.263807,1.24188
-0.0976671,1.19598,0.159046,-0.128044,-0.282933,-0.392471,1.24188
-0.0976671,1.19598,0.159046,-0.128044,-0.282933,-0.392471,1.45856
0.160191,1.14736,0.244419,-0.100159,-0.273097,-0.684014,1.45856
0.618404,0.194861,0.264849,-0.0670229,-0.17096,-0.881489,1.45856
0.967272,-0.944925,0.137127,-0.0331303,-0.0261932,-0.804281,1.45856
0.958444,-1.27798,-0.0475057,-0.0269836,0.050319,-0.384603,1.45856
0.830458,-0.902571,-0.164788,-0.0344132,0.0246714,0.000748634,1.45856
0.717667,-0.230859,-0.140684,-0.0203817,-0.00951827,0.206175,1.45856
0.598427,0.275316,-0.0690377,-0.0148915,-0.0120942,0.251557,1.45856
0.444247,0.310759,-0.0527459,-0.0026688,0.0366023,0.161114,1.45856
0.290287,0.0757141,-0.063569,0.00710616,0.0897373,0.0733054,1.45856
0.221505,-0.206223,-0.103877,-0.00258043,0.111063,0.049862,1.45856
0.260648,-0.37768,-0.194365,-0.0102332,0.141807,0.0707321,1.45856
0.360624,-0.544706,-0.290081,-0.0165333,0.156764,0.111107,1.45856
0.445897,-0.488186,-0.413059,-0.00173876,0.17685,0.186125,1.45856
0.574337,-0.113235,-0.600484,-0.00502367,0.19957,0.290413,1.45856
0.781258,0.342236,-0.833501,-0.0184771,0.215668,0.350492,1.45856
0.910832,0.562243,-0.994545,0.0139187,0.249339,0.340323,1.45856
0.837992,0.505005,-0.946367,0.0920112,0.239149,0.311554,1.45856
0.583135,0.325807,-0.649396,0.143626,0.172086,0.305552,1.45856
0.246034,0.25477,-0.268357,0.158338,0.120786,0.328162,1.45856
-0.0788905,0.343568,0.0224762,0.124716,0.107705,0.331533,1.45856
-0.305685,0.535317,0.130017,0.0847512,0.143224,0.296743,1.45856
-0.374137,0.641174,0.137389,0.0601819,0.182458,0.176557,1.45856
-0.332466,0.686658,0.149791,0.0523187,0.18066,0.0554738,1.45856
-0.325945,0.679455,0.290647,0.0731096,0.138483,-0.033182,1.45856
-0.413154,0.384496,0.544678,0.0977728,0.0786843,-0.154098,1.45856
-0.572576,-0.0607745,0.757185,0.0791908,0.0414035,-0.240944,1.45856
-0.823139,-0.437514,0.894396,0.0698026,0.0375727,-0.218591,1.45856
-1.10139,-0.403356,0.974872,0.0824555,0.0353109,-0.151378,1.45856
-1.19469,-0.0860263,1.07602,0.107074,-0.00329444,-0.157124,1.45856
-1.10943,0.393877,1.20665,0.102738,-0.0680703,-0.203343,1.45856
-1.05926,0.791247,1.31534,0.111507,-0.0983282,-0.303517,1.45856
-0.890618,0.598706,1.41489,0.142614,-0.112694,-0.536821,1.45856
-0.527184,0.075467,1.44873,0.168131,-0.0793001,-0.688772,1.45856
-0.0328595,-0.515567,1.3061,0.158848,-0.0139178,-0.677078,1.45856
0.405049,-0.580345,1.06214,0.184409,0.0685765,-0.436785,1.45856
0.7551,-0.135705,0.870216,0.232526,0.0875535,-0.167425,1.45856
0.949792,0.528124,0.868008,0.295079,0.079505,0.0128165,1.45856
0.921106,1.05605,1.10489,0.3677,0.0634285,0.0923084,1.45856
0.644834,1.12839,1.51332,0.401181,0.0565377,0.0796648,1.45856
0.20486,0.800668,1.96693,0.371845,0.0610521,0.0568107,1.45856
-0.163135,0.135618,2.32033,0.306836,0.0998124,0.0204008,1.45856
-0.333839,-0.329248,2.4893,0.249267,0.161812,0.0595156,1.45856
-0.289987,-0.362785,2.45444,0.170609,0.197751,0.178809,1.45856
-0.121933,-0.126999,2.25588,0.0880154,0.214356,0.282513,1.45856
0.0436196,0.147207,1.96639,0.0405786,0.226826,0.344515,1.45856
0.148264,0.338277,1.66898,0.0160071,0.222367,0.377175,1.45856
0.15006,0.339503,1.5121,0.0256599,0.177978,0.371027,1.45856
0.15006,0.339503,1.5121,0.0256599,0.177978,0.371027,1.50876
0.0533585,0.221619,1.504,0.0512415,0.110044,0.352751,1.50876
-0.124166,0.132547,1.56966,0.0568412,0.0411485,0.337041,1.50876
-0.294666,-0.0129585,1.631,0.0497862,-0.0108289,0.294672,1.50876
-0.347613,-0.0218488,1.6364,0.0478015,-0.0397551,0.235817,1.50876
-0.249814,0.146291,1.48302,0.00416834,-0.0516381,0.173689,1.50876
-0.080246,0.313299,1.22791,-0.0661333,-0.0671864,0.102502,1.50876
0.0498044,0.207374,0.998941,-0.100955,-0.105788,-0.0278751,1.50876
0.0702859,-0.118321,0.902203,-0.0826855,-0.170897,-0.161602,1.50876
0.0332805,-0.319867,0.919294,-0.0392338,-0.233254,-0.254986,1.50876
0.0944637,-0.138183,0.961125,-0.0244706,-0.28161,-0.285279,1.50876
0.328014,0.00351368,0.992476,-0.0301533,-0.299649,-0.360672,1.50876
0.492472,-0.0988347,1.02863,-0.0233328,-0.288869,-0.458488,1.50876
0.517084,-0.142929,0.991251,-0.0258101,-0.265364,-0.467107,1.50876
0.545455,-0.0548757,0.974615,-0.00448944,-0.237952,-0.441111,1.50876
0.690513,0.0517458,0.977117,0.023399,-0.211406,-0.450087,1.50876
0.999394,-0.138668,0.941223,0.0351934,-0.136035,-0.460444,1.50876
1.26703,-0.487647,0.894181,0.037862,-0.0363128,-0.373649,1.50876
1.25937,-0.840367,0.79866,0.0110967,0.0326893,-0.183805,1.50876
1.03428,-0.851061,0.651853,-0.00875039,0.0908656,0.00806314,1.50876
0.800639,-0.432217,0.424243,-0.0378217,0.0952963,0.15148,1.50876
0.620972,0.267731,0.214692,-0.0668198,0.0937884,0.20845,1.50876
0.462551,0.859405,0.134852,-0.0700023,0.0730354,0.139541,1.50876
0.269876,1.11567,0.162498,-0.0447413,0.0689054,-0.016365,1.50876
0.19401,0.91545,0.132715,-0.0214102,0.111146,-0.208546,1.50876
0.27003,0.299246,0.0323304,-0.0116326,0.172067,-0.317623,1.50876
0.401109,-0.408195,-0.161495,0.00629406,0.233833,-0.290008,1.50876
0.466183,-0.669302,-0.362386,0.043079,0.271214,-0.0830896,1.50876
0.480354,-0.432642,-0.506685,0.0640295,0.250458,0.1773,1.50876
0.510442,0.0212927,-0.585355,0.0913803,0.23338,0.351939,1.50876
0.494138,0.4195,-0.636758,0.118101,0.242206,0.435831,1.50876
0.369211,0.590276,-0.628632,0.13282,0.239158,0.444049,1.50876
0.204516,0.493459,-0.534201,0.144808,0.217936,0.391467,1.50876
0.0319755,0.397219,-0.388924,0.1503,0.199069,0.346714,1.50876
-0.129305,0.387327,-0.180585,0.138119,0.156416,0.317057,1.50876
-0.248803,0.456352,-0.00592208,0.09525,0.136058,0.296997,1.50876
-0.311717,0.609722,0.0511637,0.0472437,0.144734,0.247782,1.50876
-0.346474,0.706497,0.0863866,0.00680431,0.151112,0.180752,1.50876
-0.432187,0.647527,0.183324,-0.0134788,0.112564,0.0881428,1.50876
-0.60369,0.410416,0.333444,-0.0109929,0.0645221,-0.00851583,1.50876
-0.821334,0.123516,0.526227,-0.0130333,0.0130209,-0.0957838,1.50876
-1.03624,-0.0649133,0.728083,-0.0251558,-0.0432638,-0.154021,1.50876
-1.15655,-0.128161,0.911383,-0.0280444,-0.0966713,-0.224585,1.50876
-1.13551,-0.142449,1.01859,-0.0447664,-0.114956,-0.303125,1.50876
-1.10275,-0.16057,1.03131,-0.070653,-0.113742,-0.380846,1.50876
-1.18886,-0.128784,1.05494,-0.0687992,-0.11523,-0.388549,1.50876
-1.37211,0.046637,1.08421,-0.0693299,-0.157648,-0.386707,1.50876
-1.46394,0.468443,1.06885,-0.0924356,-0.202316,-0.402608,1.50876
-1.35592,0.891441,1.01633,-0.0746353,-0.213095,-0.51078,1.50876
-1.35592,0.891441,1.01633,-0.0746353,-0.213095,-0.51078,1.67787
-1.06514,0.941109,0.911631,-0.0171439,-0.189679,-0.705633,1.67787
-0.60788,0.784393,0.692856,0.0154957,-0.146253,-0.763652,1.67787
-0.0865492,0.548684,0.470694,0.0454832,-0.105941,-0.698206,1.67787
0.31696,0.211988,0.359997,0.0824882,-0.0856225,-0.561673,1.67787
0.458702,-0.174481,0.381441,0.141785,-0.0787395,-0.379196,1.67787
0.482386,-0.118859,0.390479,0.203852,-0.0267716,-0.164222,1.67787
0.615806,0.24815,0.309723,0.25041,0.0555872,-0.0198358,1.67787
0.863691,0.477114,0.300092,0.317415,0.140938,-0.00225878,1.67787
1.04013,0.528326,0.494835,0.367432,0.18822,-0.00588757,1.67787
0.96826,0.488262,0.8311,0.36532,0.185813,0.0468022,1.67787
0.724537,0.27991,1.12904,0.315784,0.192939,0.101379,1.67787
0.51618,0.0777833,1.29296,0.261019,0.235439,0.154504,1.67787
0.40759,0.0677492,1.37241,0.206296,0.254301,0.225598,1.67787
0.392796,0.168332,1.37553,0.152408,0.25741,0.297549,1.67787
0.402496,0.302358,1.30301,0.101803,0.266676,0.362522,1.67787
0.404109,0.344512,1.20561,0.0703248,0.277732,0.40103,1.67787
0.336453,0.369324,1.15485,0.0551132,0.267482,0.432148,1.67787
0.199679,0.429627,1.17167,0.0528042,0.239114,0.458605,1.67787
0.0274063,0.476001,1.24156,0.0457672,0.203684,0.437555,1.67787
-0.0955397,0.45112,1.29484,0.0210339,0.185372,0.37731,1.67787
-0.163273,0.368452,1.26744,-0.0153503,0.195055,0.313904,1.67787
-0.236609,0.407749,1.13271,-0.0619066,0.212332,0.278652,1.67787
-0.303441,0.46853,1.01757,-0.086071,0.190448,0.219402,1.67787
-0.364164,0.53164,0.997484,-0.0798389,0.127348,0.12661,1.67787
-0.410574,0.419054,1.01348,-0.0811781,0.0605935,0.0101028,1.67787
-0.475382,0.188967,1.02684,-0.0958414,0.00614452,-0.0901686,1.67787
-0.527129,-0.0597526,1.01972,-0.0949723,-0.0339516,-0.16394,1.67787
-0.523,-0.208442,0.97486,-0.10095,-0.0775456,-0.206669,1.67787
-0.466805,-0.161179,0.824437,-0.13012,-0.0947819,-0.221375,1.67787
-0.392023,-0.106766,0.574348,-0.157048,-0.102178,-0.280143,1.67787
-0.341486,-0.143928,0.312295,-0.163859,-0.120787,-0.353034,1.67787
-0.334779,-0.198901,0.0929479,-0.1591,-0.163026,-0.392949,1.67787
-0.315214,-0.20724,-0.100354,-0.137843,-0.187304,-0.409046,1.67787
-0.228927,-0.144382,-0.23313,-0.110238,-0.203296,-0.426566,1.67787
-0.113978,-0.129876,-0.272631,-0.0854246,-0.221175,-0.454879,1.67787
-0.035592,-0.150575,-0.300378,-0.0707223,-0.200619,-0.45932,1.67787
0.0728507,-0.195663,-0.37588,-0.0767562,-0.15122,-0.422591,1.67787
0.318051,-0.371279,-0.5061,-0.0902707,-0.0873706,-0.387728,1.67787
0.618908,-0.48776,-0.672351,-0.106017,-0.0279372,-0.299924,1.67787
0.849663,-0.546733,-0.853902,-0.113203,0.0251821,-0.166825,1.67787
0.899357,-0.356993,-1.00522,-0.106655,0.0645854,-0.00346482,1.67787
0.848484,-0.0170752,-1.08082,-0.104418,0.0616611,0.115445,1.67787
0.803558,0.159133,-1.01208,-0.0697949,0.0535407,0.129063,1.67787
0.734726,0.109711,-0.839213,-0.0368583,0.0635039,0.0926321,1.67787
0.57028,-0.0909186,-0.678791,-0.0413288,0.0807629,0.100206,1.67787
0.399531,-0.236626,-0.553751,-0.0542974,0.104127,0.136856,1.67787
0.290112,-0.313137,-0.514099,-0.0739688,0.129226,0.18192,1.67787
0.270744,-0.288021,-0.525788,-0.0956251,0.143587,0.235455,1.67787
0.270744,-0.288021,-0.525788,-0.0956251,0.143587,0.235455,1.7545
0.317745,-0.254373,-0.564592,-0.096647,0.170899,0.276061,1.7545
0.342494,-0.28959,-0.61704,-0.08747,0.189223,0.314222,1.7545
0.335044,-0.317281,-0.693766,-0.0838322,0.212613,0.355207,1.7545
0.278342,-0.33887,-0.790683,-0.0801593,0.227393,0.392226,1.7545
0.182634,-0.370846,-0.863793,-0.0713676,0.224599,0.41563,1.7545
0.0224401,-0.335563,-0.887419,-0.0648144,0.203759,0.427836,1.7545
-0.158162,-0.195707,-0.84898,-0.0468975,0.172898,0.432884,1.7545
-0.31302,-0.0256168,-0.799758,-0.0509121,0.136954,0.381306,1.7545
-0.466852,0.215912,-0.806177,-0.0707066,0.120556,0.298233,1.7545
-0.578208,0.171219,-0.782598,-0.0722046,0.0893799,0.102943,1.7545
-0.628145,-0.0272208,-0.659895,-0.0361469,0.0332263,-0.132558,1.7545
-0.617001,-0.124678,-0.525731,-0.0250893,-0.0186269,-0.269816,1.7545
-0.535159,-0.202734,-0.458777,-0.0525432,-0.0605988,-0.355918,1.7545
-0.419959,-0.372832,-0.482542,-0.0741153,-0.0410287,-0.41325,1.7545
-0.379415,-0.462025,-0.570383,-0.057442,-0.00329807,-0.391676,1.7545
-0.342448,-0.202012,-0.628417,-0.0345723,-0.0238636,-0.317635,1.7545
-0.240641,0.0608967,-0.593198,-0.0119244,-0.066932,-0.308951,1.7545
-0.160484,0.0141024,-0.558714,0.00320399,-0.0777404,-0.371407,1.7545
-0.154888,-0.171695,-0.572767,0.0245437,-0.0562806,-0.407031,1.7545
-0.129237,-0.171795,-0.599431,0.0432027,-0.0538318,-0.356586,1.7545
-0.0684585,0.0318707,-0.533648,0.0898039,-0.0654368,-0.271483,1.7545
-0.0496224,0.268829,-0.373008,0.143253,-0.0802315,-0.205429,1.7545
-0.0714057,0.541484,-0.155907,0.174584,-0.0912208,-0.176774,1.7545
-0.0687006,0.59206,0.0398692,0.165679,-0.0872712,-0.189775,1.7545
-0.0879925,0.381389,0.196068,0.168588,-0.0385157,-0.231867,1.7545
-0.0794262,0.0220908,0.337628,0.184071,-0.00735058,-0.244762,1.7545
0.00045836,-0.192143,0.48379,0.198415,0.0089739,-0.192464,1.7545
0.134688,-0.214682,0.572766,0.199189,0.0373397,-0.0836141,1.7545
0.252377,-0.00231431,0.568547,0.192654,0.0785843,0.0354491,1.7545
0.377394,0.246228,0.494422,0.174237,0.112122,0.105621,1.7545
0.467655,0.385525,0.429078,0.1598,0.132394,0.130578,1.7545
0.460094,0.382601,0.408571,0.168424,0.140316,0.150332,1.7545
0.378177,0.268323,0.477002,0.185831,0.131188,0.175909,1.7545
0.21161,0.218935,0.635426,0.185803,0.100875,0.237694,1.7545
0.0207587,0.279568,0.816367,0.163396,0.0672864,0.297725,1.7545
-0.0662788,0.320687,0.951865,0.129357,0.0632735,0.325281,1.7545
-0.0791995,0.346372,0.985097,0.0801447,0.0945485,0.33128,1.7545
-0.0911671,0.31212,0.908672,0.026687,0.132952,0.341117,1.7545
-0.0777156,0.266397,0.778376,-0.0154745,0.154597,0.351124,1.7545
-0.0403285,0.305433,0.671828,-0.0296932,0.155757,0.369717,1.7545
-0.0570227,0.393821,0.655466,-0.0341534,0.127757,0.382785,1.7545
-0.194881,0.465383,0.703334,-0.0399445,0.0915641,0.372544,1.7545
-0.386519,0.430246,0.738318,-0.0533028,0.0697227,0.313832,1.7545
-0.518958,0.338614,0.751033,-0.0587272,0.0629294,0.223481,1.7545
-0.5734,0.303951,0.766988,-0.0654779,0.0405171,0.137637,1.7545
-0.594972,0.348989,0.710763,-0.0983645,0.012171,0.0660285,1.7545
-0.610317,0.293515,0.621125,-0.103559,0.000697717,-0.024922,1.7545
-0.592451,0.0849042,0.580258,-0.0871054,-0.0251281,-0.116632,1.7545
-0.592451,0.0849042,0.580258,-0.0871054,-0.0251281,-0.116632,1.8602
-0.594607,-0.0751413,0.545762,-0.0719197,-0.0563064,-0.137825,1.8602
-0.624709,-0.0895647,0.481664,-0.0694083,-0.0849362,-0.113876,1.8602
-0.571216,-0.0989714,0.410803,-0.0653088,-0.119302,-0.114636,1.8602
-0.448989,-0.0826557,0.321032,-0.0604995,-0.13866,-0.138905,1.8602
-0.290228,-0.0718185,0.218579,-0.0567482,-0.156395,-0.165613,1.8602
-0.156695,-0.0861991,0.133135,-0.0521881,-0.174088,-0.192252,1.8602
-0.109145,-0.0363201,0.0294013,-0.0611877,-0.185888,-0.22486,1.8602
-0.0833355,0.0450489,-0.071411,-0.0565169,-0.194903,-0.279075,1.8602
-0.0710836,0.144635,-0.105001,-0.0400048,-0.204562,-0.359903,1.8602
-0.0408367,0.0265007,-0.0259567,-0.00116055,-0.213443,-0.479533,1.8602
-0.0207685,-0.248634,0.166409,0.0310683,-0.220684,-0.583391,1.8602
-0.091061,-0.248474,0.29512,0.0275776,-0.192145,-0.566802,1.8602
-0.154183,-0.0854531,0.260948,-0.0180999,-0.135631,-0.521925,1.8602
-0.0246255,-0.0493579,0.130033,-0.0514747,-0.0675985,-0.518324,1.8602
0.277026,-0.226541,-0.00295441,-0.0607666,-0.0237861,-0.506416,1.8602
0.605269,-0.593331,-0.15853,-0.0784843,0.0161346,-0.406247,1.8602
0.703758,-0.868388,-0.309764,-0.0943814,0.0605471,-0.196923,1.8602
0.630355,-0.840177,-0.539345,-0.102574,0.101361,0.0370054,1.8602
0.55817,-0.442735,-0.782593,-0.101577,0.12586,0.213515,1.8602
0.569889,0.0576932,-0.947167,-0.0920152,0.119587,0.282739,1.8602
0.606183,0.344236,-0.910727,-0.0556073,0.0833096,0.254491,1.8602
0.552209,0.197365,-0.769212,-0.00668474,0.0733906,0.165737,1.8602
0.396578,-0.103907,-0.635439,0.000844274,0.0886254,0.14041,1.8602
0.288945,-0.32626,-0.565134,-0.0201119,0.102848,0.176872,1.8602
0.29034,-0.385514,-0.562358,-0.0397358,0.129643,0.246374,1.8602
0.366316,-0.33897,-0.629666,-0.0533928,0.162422,0.31533,1.8602
0.447231,-0.134165,-0.711339,-0.0564295,0.186025,0.388346,1.8602
0.482168,0.0889322,-0.754544,-0.0601994,0.186573,0.428724,1.8602
0.428149,0.122259,-0.735546,-0.0627334,0.183082,0.410643,1.8602
0.257813,0.0380367,-0.654269,-0.0456687,0.183705,0.375458,1.8602
0.0615454,-0.125915,-0.557812,-0.0508769,0.162997,0.325612,1.8602
-0.141817,-0.16607,-0.507867,-0.0647009,0.165751,0.320303,1.8602
-0.315923,-0.0765368,-0.511321,-0.0840948,0.163859,0.30519,1.8602
-0.431908,0.115838,-0.456899,-0.0741862,0.125651,0.247576,1.8602
-0.512824,0.286615,-0.395437,-0.0788761,0.0795422,0.144229,1.8602
-0.540075,0.201775,-0.400466,-0.0892551,0.0628549,-0.000990033,1.8602
-0.555036,-0.107823,-0.430246,-0.0856994,0.0558499,-0.148742,1.8602
-0.615818,-0.315794,-0.470718,-0.0648154,0.0314808,-0.199007,1.8602
-0.584091,-0.506148,-0.469055,-0.0401738,-0.0219107,-0.245238,1.8602
-0.437061,-0.330703,-0.46948,-0.00583781,-0.0616349,-0.21669,1.8602
-0.22798,-0.192201,-0.500036,-0.0053422,-0.099568,-0.202619,1.8602
-0.224012,-0.131605,-0.490747,0.00771512,-0.114409,-0.226415,1.8602
-0.339305,-0.110567,-0.493284,0.020818,-0.137963,-0.243053,1.8602
-0.438906,0.0993211,-0.44204,0.0474027,-0.16392,-0.266086,1.8602
-0.359041,0.416986,-0.367318,0.0597483,-0.184557,-0.325366,1.8602
-0.204013,0.664204,-0.240244,0.0950283,-0.178274,-0.419323,1.8602
-0.124395,0.601881,-0.0832649,0.131139,-0.154319,-0.516729,1.8602
-0.124395,0.601881,-0.0832649,0.131139,-0.154319,-0.516729,1.99759
-0.114546,0.297326,0.0960949,0.142141,-0.13301,-0.56401,1.99759
-0.100908,0.0431417,0.268597,0.145986,-0.103095,-0.493386,1.99759
-0.0715087,-0.0206971,0.385792,0.147648,-0.058732,-0.342867,1.99759
-0.0171046,0.0776943,0.529889,0.163003,-0.0366828,-0.208113,1.99759
0.0922551,0.14588,0.689873,0.155878,-0.0338065,-0.130367,1.99759
0.293038,0.00177055,0.7805,0.140685,0.00240432,-0.105073,1.99759
0.439853,-0.106627,0.77777,0.145918,0.0706262,-0.0258068,1.99759
0.504292,-0.077711,0.743324,0.150896,0.103887,0.0806528,1.99759
0.536648,0.154931,0.783409,0.166178,0.105784,0.162787,1.99759
0.534744,0.423072,0.922555,0.188242,0.0910822,0.214373,1.99759
0.45636,0.480094,1.09577,0.19672,0.0904022,0.198844,1.99759
0.343615,0.344367,1.22968,0.19907,0.12702,0.171989,1.99759
0.279516,0.148869,1.32508,0.180407,0.149065,0.180715,1.99759
0.266775,0.076982,1.36458,0.150394,0.159016,0.236664,1.99759
0.270659,0.0954848,1.33118,0.115167,0.174572,0.304174,1.99759
0.289057,0.174984,1.22872,0.0764779,0.199044,0.368434,1.99759
0.280232,0.314601,1.09746,0.0595322,0.22141,0.430968,1.99759
0.234031,0.441776,0.997693,0.0572526,0.225832,0.45862,1.99759
0.128525,0.468612,0.986166,0.0568118,0.204766,0.443552,1.99759
-0.081622,0.473665,1.06302,0.059001,0.183098,0.425534,1.99759
-0.314471,0.416508,1.16696,0.0470761,0.152961,0.379651,1.99759
-0.500938,0.449416,1.22912,0.0153751,0.132025,0.316863,1.99759
-0.691841,0.62277,1.21293,-0.0256751,0.104018,0.250976,1.99759
-0.836595,0.638109,1.15251,-0.0500399,0.0541564,0.100412,1.99759
-0.849952,0.39627,1.11569,-0.0536009,-0.00792281,-0.098991,1.99759
-0.766733,0.0907288,1.10752,-0.0399247,-0.044693,-0.251159,1.99759
-0.670799,-0.0364169,1.06071,-0.0418812,-0.088128,-0.287579,1.99759
-0.577084,0.00693166,0.959764,-0.0598265,-0.121187,-0.258223,1.99759
-0.511556,0.00496908,0.873581,-0.0593128,-0.143892,-0.250381,1.99759
-0.476666,-0.117749,0.836118,-0.0415151,-0.1717,-0.241603,1.99759
-0.508905,-0.171268,0.831566,-0.0421934,-0.199668,-0.215614,1.99759
-0.593599,-0.0771028,0.752222,-0.0595381,-0.204116,-0.195228,1.99759
-0.60824,0.0668979,0.641435,-0.0801053,-0.20554,-0.253541,1.99759
-0.441181,-0.022625,0.51448,-0.0801731,-0.192068,-0.404917,1.99759
-0.236143,-0.194644,0.427009,-0.0466983,-0.16106,-0.506441,1.99759
-0.0681798,-0.322178,0.364377,-0.0343747,-0.145788,-0.517355,1.99759
0.0441017,-0.287768,0.302609,-0.0381006,-0.123522,-0.452135,1.99759
0.136303,-0.130423,0.191823,-0.0432104,-0.0753977,-0.377583,1.99759
0.312831,-0.0167132,0.0921616,-0.0293265,-0.0313071,-0.343304,1.99759
0.615178,-0.185848,0.0204908,-0.0176518,0.0131061,-0.336654,1.99759
0.793449,-0.455975,-0.028696,-0.00891628,0.0653054,-0.263053,1.99759
0.711677,-0.481678,-0.0663866,0.00813628,0.0937275,-0.0988588,1.99759
0.571748,-0.243751,-0.0233123,0.0163973,0.0730215,0.0264914,1.99759
0.567825,-0.0805313,0.128711,0.0501913,0.0645439,0.0422081,1.99759
0.633342,-0.143835,0.296812,0.0600597,0.0805218,0.00393993,1.99759
0.688943,-0.322776,0.351526,0.0471371,0.137277,0.0177429,1.99759
0.709561,-0.445163,0.311209,0.0180626,0.185285,0.0918453,1.99759
0.7191,-0.441957,0.217178,-0.00075455,0.207748,0.196964,1.99759
0.7191,-0.441957,0.217178,-0.00075455,0.207748,0.196964,2.03987
0.760042,-0.353399,0.108851,-0.00174935,0.2135,0.288274,2.03987
0.819245,-0.255914,0.0193136,0.0117205,0.21768,0.361548,2.03987
0.843266,-0.15473,-0.0296409,0.0344059,0.216965,0.430753,2.03987
0.747076,-0.0343119,-0.0196681,0.0506122,0.207231,0.485001,2.03987
0.567724,0.115041,-0.00666114,0.0597605,0.203758,0.508439,2.03987
0.431475,0.227311,0.00905842,0.070341,0.205534,0.467372,2.03987
0.340158,0.358442,0.0531427,0.0671689,0.197096,0.397125,2.03987
0.225057,0.44358,0.151878,0.0681904,0.16744,0.312456,2.03987
0.020757,0.447557,0.338531,0.063925,0.118204,0.20723,2.03987
-0.231346,0.405106,0.591628,0.0563752,0.0577855,0.107239,2.03987
-0.420129,0.15185,0.748532,0.0303722,0.0319575,-0.0324025,2.03987
-0.504703,-0.193045,0.776541,0.00639058,0.0463104,-0.126074,2.03987
-0.527665,-0.399135,0.737145,-0.0133519,0.0406897,-0.146594,2.03987
-0.458821,-0.30405,0.646591,-0.0209848,0.0180683,-0.0801276,2.03987
-0.275258,-0.102547,0.53304,-0.0279059,-0.0197889,-0.0409438,2.03987
-0.156959,0.103956,0.470277,-0.0227013,-0.0403946,0.0202487,2.03987
-0.19634,0.123572,0.434528,-0.0050548,-0.0779633,0.0543759,2.03987
-0.318042,0.0829901,0.437588,0.0306775,-0.0941556,0.0897378,2.03987
-0.403564,0.118623,0.466386,0.0379576,-0.118888,0.134176,2.03987
-0.41398,0.16034,0.512454,0.0425327,-0.147225,0.142761,2.03987
-0.338807,0.324931,0.519524,0.0379556,-0.150557,0.130019,2.03987
-0.202007,0.492365,0.472046,0.00757028,-0.14878,0.0814082,2.03987
-0.121465,0.62956,0.409077,-0.0313101,-0.156106,0.0260704,2.03987
-0.0825424,0.624395,0.326195,-0.0620297,-0.169058,-0.056538,2.03987
-0.0662927,0.462628,0.29837,-0.0631409,-0.180794,-0.182694,2.03987
0.0423482,0.404244,0.301005,-0.0343735,-0.178062,-0.261388,2.03987
0.277158,0.546434,0.381584,-0.0150612,-0.18757,-0.282738,2.03987
0.439989,0.527393,0.540694,0.00957582,-0.174924,-0.292142,2.03987
0.315953,0.416411,0.701094,0.0281204,-0.138056,-0.254567,2.03987
0.0536638,0.267559,0.855143,0.0539911,-0.0970078,-0.214194,2.03987
-0.131195,0.141293,1.06246,0.0790911,-0.0934625,-0.188618,2.03987
-0.172868,0.114278,1.24477,0.0878908,-0.0918618,-0.169491,2.03987
-0.125493,0.0964258,1.32234,0.0878229,-0.0607031,-0.14914,2.03987
-0.0274181,0.0671896,1.28729,0.0889501,0.000814825,-0.116003,2.03987
0.127628,0.0427545,1.20434,0.0959899,0.0540533,-0.0730717,2.03987
0.319269,0.0020922,1.12454,0.123702,0.0931225,-0.0224215,2.03987
0.488637,0.0222453,1.05977,0.159826,0.139566,0.0478463,2.03987
0.591339,0.0361108,1.04342,0.180294,0.161176,0.111038,2.03987
0.559075,0.229211,0.999988,0.19311,0.193446,0.180808,2.03987
0.394895,0.497966,0.99851,0.215983,0.210776,0.205314,2.03987
0.187466,0.602577,1.09619,0.25004,0.201286,0.156493,2.03987
-0.0308087,0.515308,1.32531,0.277569,0.181623,0.0877753,2.03987
-0.254026,0.345095,1.5816,0.258587,0.1489,0.0504454,2.03987
-0.416208,0.220836,1.6989,0.193051,0.135713,0.0423306,2.03987
-0.4547,0.187647,1.63006,0.128648,0.163318,0.0566049,2.03987
-0.395963,0.200501,1.48205,0.0931211,0.181396,0.0749948,2.03987
-0.332508,0.0986384,1.45016,0.0879722,0.143817,0.0729024,2.03987
-0.428862,-0.0830439,1.55652,0.0923207,0.0635293,0.0576237,2.03987
-0.428862,-0.0830439,1.55652,0.0923207,0.0635293,0.0576237,2.25655
-0.581709,-0.11324,1.61413,0.0699711,0.00240156,0.0921857,2.25655
-0.561031,0.022767,1.56182,0.01885,-0.0299505,0.112073,2.25655
-0.421505,0.168586,1.43688,-0.0331951,-0.0492486,0.0940029,2.25655
-0.297184,0.269715,1.24355,-0.0632639,-0.0590677,0.0834454,2.25655
-0.300824,0.299947,1.13039,-0.0682206,-0.095632,0.0616727,2.25655
-0.368599,0.300797,1.14473,-0.0597987,-0.159073,0.0284613,2.25655
-0.417321,0.261952,1.21723,-0.074469,-0.224754,-0.0516756,2.25655
-0.397171,0.100584,1.22364,-0.122809,-0.248012,-0.153374,2.25655
-0.400227,-0.072514,1.097,-0.171684,-0.228975,-0.232785,2.25655
-0.417594,-0.116607,0.904108,-0.193697,-0.216713,-0.283892,2.25655
-0.332416,-0.0759521,0.734336,-0.19789,-0.220485,-0.367869,2.25655
-0.178081,-0.0365507,0.610646,-0.173237,-0.222067,-0.460208,2.25655
-0.0552419,-0.158873,0.527741,-0.149079,-0.22052,-0.550805,2.25655
0.0175799,-0.228531,0.393828,-0.143696,-0.186329,-0.56933,2.25655
0.0572005,-0.163453,0.214759,-0.152339,-0.147567,-0.565815,2.25655
0.241793,-0.0281731,-0.0322794,-0.139829,-0.0797127,-0.568242,2.25655
0.600494,0.033532,-0.293195,-0.120293,0.00166666,-0.556205,2.25655
1.00684,-0.302523,-0.473413,-0.0801936,0.0512338,-0.525629,2.25655
1.15742,-0.738093,-0.536915,-0.0445728,0.0702046,-0.381874,2.25655
1.02128,-0.739779,-0.592415,-0.0238843,0.0757862,-0.130041,2.25655
0.888107,-0.345511,-0.676744,-0.0125313,0.0917282,0.068135,2.25655
0.921155,0.148747,-0.798864,-0.0249721,0.124589,0.132951,2.25655
1.10329,0.500482,-0.930967,-0.0203519,0.182735,0.104606,2.25655
1.26621,0.405668,-0.98541,-0.0193787,0.209149,0.0480533,2.25655
1.22398,0.0895712,-0.940711,-0.0057046,0.227031,0.0518246,2.25655
1.0121,-0.25302,-0.827356,0.00621048,0.225946,0.122598,2.25655
0.783785,-0.484226,-0.716337,0.0147463,0.232748,0.21874,2.25655
0.657977,-0.556845,-0.681156,-0.000130363,0.253101,0.308715,2.25655
0.605261,-0.430622,-0.686789,-0.0136588,0.268136,0.399147,2.25655
0.574443,-0.250819,-0.717532,-0.0224135,0.287507,0.456547,2.25655
0.509707,-0.0771201,-0.778498,-0.0342583,0.299751,0.485522,2.25655
0.371409,0.0173836,-0.831818,-0.0435684,0.312883,0.479287,2.25655
0.176297,0.0440416,-0.84957,-0.0365494,0.304494,0.457166,2.25655
-0.0634204,-0.0287838,-0.763305,-0.034111,0.257597,0.411905,2.25655
-0.306733,-0.0818238,-0.64822,-0.0375045,0.208624,0.362079,2.25655
-0.438493,-0.0533762,-0.554712,-0.0460708,0.173492,0.280576,2.25655
-0.453599,0.145211,-0.525851,-0.0711817,0.145926,0.186149,2.25655
-0.485735,0.26019,-0.517781,-0.0922319,0.124465,0.0626159,2.25655
-0.662438,0.368388,-0.521496,-0.111723,0.100785,-0.068608,2.25655
-0.865275,0.445536,-0.562929,-0.112197,0.0895658,-0.221147,2.25655
-0.876461,0.199262,-0.534998,-0.0860584,0.059871,-0.448816,2.25655
-0.807812,-0.165437,-0.431635,-0.050526,0.0212005,-0.595833,2.25655
-0.85527,-0.400483,-0.313472,-0.0189624,-0.0146556,-0.593708,2.25655
-0.977657,-0.425825,-0.152974,0.0189369,-0.052109,-0.530673,2.25655
-1.00651,-0.330594,0.00527291,0.0502951,-0.0761829,-0.494258,2.25655
-0.942431,-0.176679,0.113034,0.0594545,-0.0704128,-0.472677,2.25655
-0.803398,-0.0262398,0.15291,0.0822523,-0.0425166,-0.444376,2.25655
-0.803398,-0.0262398,0.15291,0.0822523,-0.0425166,-0.444376,2.44679
-0.614602,0.112525,0.187305,0.097164,-0.0451172,-0.390875,2.44679
-0.403784,0.0685319,0.259224,0.111002,-0.067759,-0.350075,2.44679
-0.228633,-0.0683068,0.312424,0.132228,-0.0669071,-0.268344,2.44679
-0.0738691,-0.222648,0.345394,0.15513,-0.048611,-0.163358,2.44679
0.115132,-0.328669,0.376607,0.180773,-0.0260119,-0.0487123,2.44679
0.278906,-0.256709,0.355637,0.204068,0.0103284,0.0888128,2.44679
0.323191,0.0426432,0.294404,0.214177,0.0532248,0.228337,2.44679
0.275877,0.437748,0.23464,0.208661,0.0714158,0.321859,2.44679
0.273742,0.802483,0.219369,0.224197,0.0920079,0.32975,2.44679
0.364572,0.883605,0.325261,0.251278,0.0923468,0.258868,2.44679
0.437794,0.749456,0.543307,0.261302,0.0822895,0.188083,2.44679
0.400044,0.354327,0.801349,0.250931,0.0802793,0.162009,2.44679
0.164503,-0.00940391,1.01525,0.212881,0.0865245,0.203301,2.44679
-0.065359,-0.10011,1.04416,0.143475,0.113642,0.293048,2.44679
-0.10156,0.0122152,0.955036,0.0842806,0.129851,0.337308,2.44679
-0.0174592,0.229283,0.840274,0.0519322,0.128735,0.353038,2.44679
0.0292414,0.417445,0.75635,0.0433513,0.109493,0.348835,2.44679
-0.0171107,0.365744,0.797706,0.0599235,0.0752042,0.296726,2.44679
-0.116188,0.178969,0.926719,0.070477,0.0395109,0.239894,2.44679
-0.213082,-0.0506558,1.07214,0.0721903,0.0243672,0.20219,2.44679
-0.315164,-0.0939207,1.14657,0.0440791,0.0165116,0.208606,2.44679
-0.337847,-0.0915288,1.09894,-0.0149894,0.0107605,0.189737,2.44679
-0.338929,-0.0105981,0.976765,-0.0444813,0.016848,0.153754,2.44679
-0.313196,0.0888046,0.871965,-0.0647164,-0.0138759,0.0848932,2.44679
-0.247053,0.153678,0.81977,-0.0753026,-0.0697453,-0.0187846,2.44679
-0.217427,0.20217,0.794756,-0.0766924,-0.1133,-0.144715,2.44679
-0.21522,0.0995433,0.820414,-0.0778899,-0.170443,-0.246815,2.44679
-0.243297,-0.150456,0.919379,-0.0665611,-0.217141,-0.356693,2.44679
-0.290214,-0.318699,1.01675,-0.0566777,-0.224083,-0.406058,2.44679
-0.334358,-0.257232,1.00444,-0.0751218,-0.220578,-0.421551,2.44679
-0.264829,-0.195008,0.906403,-0.0954851,-0.197432,-0.48697,2.44679
-0.115343,-0.311501,0.758221,-0.0928625,-0.161923,-0.578581,2.44679
0.0473067,-0.543494,0.520834,-0.098359,-0.121113,-0.61889,2.44679
0.199843,-0.639891,0.205923,-0.0907105,-0.0671755,-0.570264,2.44679
0.266916,-0.568246,-0.0853433,-0.089706,-0.0627969,-0.459792,2.44679
0.31037,-0.346527,-0.311701,-0.0650355,-0.0804355,-0.347326,2.44679
0.456578,-0.195691,-0.483934,-0.0249877,-0.0738849,-0.293848,2.44679
0.675051,-0.24639,-0.59362,0.0138394,-0.0410515,-0.246624,2.44679
0.812856,-0.292738,-0.727863,0.0114072,-0.00414295,-0.123672,2.44679
0.85139,-0.213896,-0.914181,0.000349432,0.0381224,0.0257946,2.44679
0.848229,0.103461,-1.09188,-7.68304e-05,0.077424,0.162052,2.44679
0.868454,0.504963,-1.2122,-0.00132102,0.0903067,0.231219,2.44679
0.864773,0.654009,-1.18237,0.0156138,0.0836706,0.201364,2.44679
0.796853,0.584871,-1.0624,0.0284178,0.084872,0.143842,2.44679
0.699467,0.412004,-0.893357,0.0256959,0.0912292,0.119105,2.44679
0.66142,0.307057,-0.672319,0.0175977,0.0919679,0.139713,2.44679
0.62698,0.262266,-0.444388,-0.00321589,0.0980907,0.186607,2.44679
0.563306,0.221313,-0.316309,-0.0411637,0.131123,0.251177,2.44679
0.563306,0.221313,-0.316309,-0.0411637,0.131123,0.251177,2.6291
0.48711,0.126058,-0.253142,-0.0717591,0.176516,0.294979,2.6291
0.38788,-0.033488,-0.214476,-0.0894508,0.207521,0.330538,2.6291
0.23933,-0.0319821,-0.209737,-0.0955239,0.228753,0.391478,2.6291
0.100788,0.05663,-0.192039,-0.118711,0.217219,0.424738,2.6291
0.0118586,0.073196,-0.173988,-0.12865,0.211098,0.393621,2.6291
-0.0439994,-0.00581694,-0.145216,-0.130959,0.203435,0.330625,2.6291
-0.098529,-0.0738827,-0.142242,-0.152522,0.191599,0.262316,2.6291
-0.192916,-0.12491,-0.148604,-0.166787,0.174964,0.18407,2.6291
-0.305961,0.00720604,-0.178258,-0.184948,0.146197,0.132855,2.6291
-0.328336,0.056711,-0.225299,-0.215432,0.118442,0.0432926,2.6291
-0.327672,-0.208013,-0.198773,-0.212515,0.0929008,-0.115186,2.6291
-0.377868,-0.582918,-0.193965,-0.191121,0.0779826,-0.223689,2.6291
-0.483409,-0.749005,-0.141648,-0.168097,0.0453338,-0.251676,2.6291
-0.556038,-0.612415,-0.066523,-0.150103,-0.00963154,-0.258805,2.6291
-0.5456,-0.462573,-0.0532938,-0.170432,-0.0380836,-0.322277,2.6291
-0.519531,-0.390391,-0.115446,-0.165384,-0.0298964,-0.418358,2.6291
-0.537418,-0.292421,-0.221356,-0.154018,-0.0318221,-0.480736,2.6291
-0.459162,-0.282951,-0.27394,-0.123743,-0.064675,-0.548476,2.6291
-0.28576,-0.339975,-0.311596,-0.0649213,-0.0680024,-0.596436,2.6291
-0.109249,-0.401275,-0.395598,-0.00658782,-0.0471536,-0.545437,2.6291
-0.0264864,-0.389032,-0.415567,0.0710593,-0.0491923,-0.431897,2.6291
0.0129453,-0.33583,-0.30939,0.150024,-0.0953687,-0.308594,2.6291
0.0424673,-0.0850311,-0.166803,0.202205,-0.134117,-0.183296,2.6291
0.0870324,0.24333,-0.0710417,0.216697,-0.13511,-0.101546,2.6291
0.222214,0.426115,-0.0322434,0.229357,-0.0891695,-0.0993561,2.6291
0.40037,0.181682,-0.0126881,0.244152,-0.0206471,-0.145807,2.6291
0.515172,-0.307855,0.0191922,0.265915,0.0429097,-0.144762,2.6291
0.541234,-0.420903,0.0244638,0.289382,0.0949187,-0.00444055,2.6291
0.535015,-0.0923442,0.0562239,0.289115,0.095787,0.167358,2.6291
0.559597,0.373508,0.135036,0.301388,0.0995117,0.265282,2.6291
0.569431,0.589137,0.251724,0.303268,0.124256,0.269896,2.6291
0.47054,0.530857,0.398515,0.294109,0.153701,0.251014,2.6291
0.30294,0.406699,0.548721,0.275322,0.172263,0.262552,2.6291
0.193506,0.34919,0.659281,0.238207,0.189876,0.295767,2.6291
0.152124,0.408371,0.720507,0.190367,0.210864,0.34081,2.6291
0.103404,0.550381,0.733055,0.141187,0.22559,0.383869,2.6291
0.057221,0.619197,0.704423,0.0894688,0.237001,0.392047,2.6291
-0.0282089,0.663271,0.67658,0.0556932,0.241482,0.385994,2.6291
-0.134344,0.616454,0.688477,0.029624,0.219557,0.367179,2.6291
-0.285756,0.700362,0.708388,0.00806504,0.199702,0.360789,2.6291
-0.39928,0.773602,0.700342,-0.0131724,0.173034,0.317888,2.6291
-0.49129,0.685641,0.760694,-0.0224905,0.122681,0.213262,2.6291
-0.643733,0.459109,0.896684,-0.0131879,0.0607767,0.114306,2.6291
-0.783481,0.332117,1.00516,-0.0103537,-0.00404313,0.0392365,2.6291
-0.784533,0.435338,1.0255,-0.0182114,-0.0568975,-0.0271398,2.6291
-0.658294,0.601224,0.89939,-0.0484146,-0.0976418,-0.0943466,2.6291
-0.540209,0.612626,0.781291,-0.0392257,-0.125369,-0.191242,2.6291
-0.46803,0.563254,0.711866,-0.0241833,-0.179837,-0.25572,2.6291
-0.46803,0.563254,0.711866,-0.0241833,-0.179837,-0.25572,2.84314
-0.40209,0.440059,0.700227,-0.0330237,-0.234737,-0.301546,2.84314
-0.335013,0.315677,0.690097,-0.0433233,-0.250495,-0.341811,2.84314
-0.237521,0.241781,0.648193,-0.0582846,-0.242972,-0.370795,2.84314
-0.118979,0.223131,0.619354,-0.0713958,-0.227666,-0.385992,2.84314
-0.0388194,0.164449,0.621856,-0.0879809,-0.217264,-0.395132,2.84314
-0.02643,-0.0590896,0.652855,-0.0863589,-0.184293,-0.421578,2.84314
-0.0688875,-0.297762,0.659531,-0.107883,-0.146102,-0.407161,2.84314
-0.101301,-0.406911,0.58438,-0.134452,-0.0975749,-0.354153,2.84314
-0.090079,-0.380518,0.45377,-0.154541,-0.0594119,-0.28515,2.84314
-0.0105725,-0.182458,0.265447,-0.172319,-0.0323752,-0.217061,2.84314
0.122409,-0.0052906,0.0693333,-0.172277,-0.0129593,-0.169225,2.84314
0.259291,0.130401,-0.11452,-0.15449,0.014681,-0.131168,2.84314
0.325037,0.0156022,-0.264012,-0.148738,0.0319404,-0.106921,2.84314
0.309816,-0.271086,-0.342381,-0.136707,0.0428726,-0.0855115,2.84314
0.357221,-0.451038,-0.45102,-0.13118,0.0593556,-0.0668473,2.84314
0.467985,-0.36881,-0.604099,-0.106729,0.104555,-0.0121554,2.84314
0.528881,-0.0861158,-0.70926,-0.103394,0.109425,0.0606274,2.84314
0.51412,0.0519822,-0.692173,-0.0712073,0.081708,0.0803066,2.84314
0.409461,-0.0341468,-0.60561,-0.0415993,0.076967,0.0750546,2.84314
0.254923,-0.267498,-0.543777,-0.028622,0.0863407,0.0974804,2.84314
0.167214,-0.490242,-0.499307,-0.0141302,0.103942,0.128479,2.84314
0.138945,-0.517395,-0.47704,-0.00830565,0.119481,0.217208,2.84314
0.113083,-0.392399,-0.4987,-0.00501993,0.129672,0.325153,2.84314
0.0829712,-0.238012,-0.575165,-0.00729216,0.14921,0.396945,2.84314
0.0707592,-0.163991,-0.616779,0.00854519,0.155343,0.426679,2.84314
0.00240367,-0.21288,-0.641617,0.0141781,0.151869,0.418059,2.84314
-0.170689,-0.2135,-0.707924,0.0172418,0.166692,0.428638,2.84314
-0.349428,-0.0962223,-0.779596,0.00929073,0.158126,0.412863,2.84314
-0.366739,-0.0737168,-0.793478,0.0165178,0.110816,0.313024,2.84314
-0.272725,0.0135388,-0.775281,0.0263248,0.0690176,0.216888,2.84314
-0.204709,0.0734543,-0.713646,0.033476,0.0213256,0.136832,2.84314
-0.264126,0.0847214,-0.610709,0.0405627,-0.018897,0.0651414,2.84314
-0.393539,-0.023381,-0.51649,0.0211263,-0.0497244,-0.0128034,2.84314
-0.475596,-0.281418,-0.482458,-0.00400181,-0.044582,-0.0811009,2.84314
-0.521194,-0.447407,-0.498822,-0.003931,-0.0279678,-0.108883,2.84314
-0.534076,-0.391645,-0.492368,0.0106691,-0.0431188,-0.101029,2.84314
-0.489329,-0.171812,-0.385578,0.0391002,-0.0811729,-0.102765,2.84314
-0.441907,0.174447,-0.255429,0.0517846,-0.116195,-0.155079,2.84314
-0.447763,0.312283,-0.230728,0.0261795,-0.0909967,-0.258416,2.84314
-0.52538,0.226652,-0.268122,0.0323078,-0.0469661,-0.383011,2.84314
-0.518921,0.0857359,-0.221783,0.0574558,-0.0801872,-0.488966,2.84314
-0.365684,0.00354715,-0.0604809,0.0925452,-0.135248,-0.543145,2.84314
-0.252669,0.0311073,0.091183,0.123068,-0.130363,-0.509286,2.84314
-0.242241,0.0931557,0.227893,0.165812,-0.104991,-0.46266,2.84314
-0.30295,0.136733,0.471441,0.198338,-0.112873,-0.405769,2.84314
-0.360794,0.0603212,0.743832,0.203333,-0.136599,-0.357757,2.84314
-0.295679,-0.0997242,0.942718,0.203452,-0.0999207,-0.310916,2.84314
-0.0670045,-0.242305,0.965411,0.175022,-0.0158263,-0.193872,2.84314
-0.0670045,-0.242305,0.965411,0.175022,-0.0158263,-0.193872,3.10472
0.198404,-0.347714,0.873111,0.156348,0.07581,-0.0508606,3.10472
0.296216,-0.319111,0.763106,0.16624,0.120624,0.100603,3.10472
0.183321,0.111366,0.716919,0.205625,0.126271,0.227766,3.10472
0.198559,0.353784,0.826625,0.250085,0.0775006,0.174779,3.10472
0.395896,0.446621,0.978092,0.277398,0.0866964,0.0582604,3.10472
0.552749,0.402134,1.05056,0.285129,0.145927,-0.00589818,3.10472
0.588962,0.28039,1.12928,0.286452,0.172866,-0.00786799,3.10472
0.596992,0.131323,1.27982,0.28376,0.164261,0.0269293,3.10472
0.603438,0.0389393,1.42417,0.275435,0.174443,0.102002,3.10472
0.58542,0.0652423,1.48697,0.250594,0.195009,0.211413,3.10472
0.578702,0.130131,1.47347,0.212205,0.215745,0.302465,3.10472
0.501601,0.300869,1.43809,0.196169,0.232328,0.398645,3.10472
0.332484,0.605125,1.41847,0.18513,0.220265,0.464746,3.10472
0.110372,0.817624,1.48592,0.17137,0.1828,0.453837,3.10472
-0.113429,0.788675,1.64606,0.17383,0.148149,0.343209,3.10472
-0.311033,0.632379,1.82373,0.16772,0.126047,0.233826,3.10472
-0.409856,0.45766,1.93585,0.142823,0.123454,0.144241,3.10472
-0.424712,0.420346,1.91873,0.087322,0.13147,0.101393,3.10472
-0.402835,0.468006,1.803,0.0327031,0.12439,0.0851337,3.10472
-0.318551,0.3962,1.66927,0.00936963,0.0960809,0.0384243,3.10472
-0.218639,0.234572,1.61561,0.024598,0.0550867,0.0038349,3.10472
-0.173347,0.120903,1.6469,0.0482909,0.000794858,0.0269986,3.10472
-0.246973,0.131551,1.69398,0.0526585,-0.0412219,0.0962,3.10472
-0.357517,0.172341,1.71322,0.0425812,-0.067834,0.131532,3.10472
-0.416479,0.238129,1.68504,0.0299449,-0.0877681,0.130448,3.10472
-0.421942,0.218564,1.62278,0.0111558,-0.114252,0.0828326,3.10472
-0.38899,0.205565,1.57522,0.0315209,-0.138233,0.0281977,3.10472
-0.314877,0.133842,1.57867,0.0357907,-0.180063,-0.0370902,3.10472
-0.177998,0.094254,1.58202,0.0368946,-0.205668,-0.0812622,3.10472
-0.0238405,-0.0264122,1.56983,0.0163916,-0.222588,-0.13244,3.10472
0.0493965,-0.0342268,1.49433,0.00439692,-0.208684,-0.131996,3.10472
0.096442,-0.0711351,1.37139,-0.028425,-0.208561,-0.163981,3.10472
0.228756,-0.154667,1.20667,-0.0465678,-0.198212,-0.223455,3.10472
0.406428,-0.235083,1.06134,-0.0353501,-0.178562,-0.2782,3.10472
0.472571,-0.21172,0.865067,-0.0486485,-0.155485,-0.261877,3.10472
0.370097,-0.030009,0.716088,-0.0575199,-0.146917,-0.218314,3.10472
0.235931,0.288857,0.725735,-0.0160999,-0.174166,-0.236389,3.10472
0.18907,0.484253,0.931203,0.0584548,-0.203728,-0.336089,3.10472
0.295901,0.298144,1.09751,0.0484636,-0.182282,-0.468538,3.10472
0.470076,-0.236419,1.03445,0.00985792,-0.0694872,-0.504216,3.10472
0.559594,-0.653909,0.835119,0.00116558,0.0408852,-0.386421,3.10472
0.639582,-0.793266,0.628418,-0.00381266,0.0621574,-0.175058,3.10472
0.781376,-0.635696,0.457108,0.0135637,0.0835077,0.0488731,3.10472
0.897991,-0.400867,0.317745,0.0275224,0.111711,0.205605,3.10472
0.867616,-0.0645787,0.246184,0.0268999,0.110811,0.319215,3.10472
0.649884,0.26785,0.217116,0.0131606,0.092394,0.345024,3.10472
0.35531,0.576202,0.138491,-0.0227106,0.0884892,0.307684,3.10472
0.35531,0.576202,0.138491,-0.0227106,0.0884892,0.307684,3.31612
0.21805,0.551804,0.0881356,-0.010779,0.113447,0.149452,3.31612
0.275469,0.352022,0.136938,0.0242146,0.114555,-0.0130069,3.31612
0.411412,0.121489,0.248096,0.0354262,0.100302,-0.0916844,3.31612
0.475891,-0.0817913,0.346761,0.0393849,0.106831,-0.0939616,3.31612
0.421749,-0.0994269,0.344917,0.0192855,0.134827,-0.0141022,3.31612
0.357958,0.00603638,0.275624,-0.00472638,0.158661,0.0675173,3.31612
0.326816,0.0654734,0.224063,-0.0012874,0.171057,0.0935619,3.31612
0.280361,0.0408489,0.22594,0.0191117,0.163866,0.102679,3.31612
0.164108,0.0345415,0.250636,0.0368037,0.147962,0.137748,3.31612
0.0178947,0.0448791,0.319186,0.0528953,0.129629,0.166049,3.31612
-0.130497,0.0822273,0.39308,0.0656136,0.116164,0.1726,3.31612
-0.216265,0.120419,0.425647,0.0493577,0.109598,0.153272,3.31612
-0.227863,0.121407,0.425028,0.0400472,0.105844,0.0923349,3.31612
-0.269001,0.183337,0.413787,0.0110823,0.0807522,0.0481188,3.31612
-0.26224,0.0689794,0.434842,-0.00680926,0.0325564,-0.0641746,3.31612
-0.246099,-0.0419492,0.479634,-0.0116352,0.00668672,-0.158663,3.31612
-0.310664,0.0978269,0.437111,-0.0396228,-0.00214174,-0.168752,3.31612
-0.388482,0.465218,0.379711,-0.0580155,-0.0131686,-0.181305,3.31612
-0.405399,0.747842,0.333698,-0.055384,-0.0133284,-0.254029,3.31612
-0.472533,0.801773,0.345151,0.000867903,0.0067091,-0.386103,3.31612
-0.581246,0.750562,0.463319,0.0773801,-0.00131652,-0.48991,3.31612
-0.67011,0.461156,0.731243,0.165778,-0.0157353,-0.579185,3.31612
-0.735869,0.325679,1.01154,0.163097,-0.0396672,-0.550344,3.31612
-0.712432,0.467615,1.10561,0.0947698,-0.0484071,-0.45906,3.31612
-0.496316,0.688415,1.02297,0.0593616,-5.1707e-05,-0.413761,3.31612
-0.0505994,0.605924,0.897649,0.0545955,0.0431174,-0.428348,3.31612
0.431484,0.177779,0.830431,0.0656671,0.0733346,-0.400981,3.31612
0.588725,-0.190236,0.819538,0.114899,0.113642,-0.233724,3.31612
0.481519,-0.131592,0.78724,0.14609,0.124235,-0.00669378,3.31612
0.309777,0.288648,0.801468,0.150414,0.107788,0.162833,3.31612
0.224982,0.677742,0.870247,0.169608,0.100076,0.192507,3.31612
0.267108,0.594279,0.983468,0.183888,0.0990397,0.0911756,3.31612
0.318977,0.320106,1.05952,0.174952,0.124597,0.042617,3.31612
0.386055,0.0699785,1.06981,0.1384,0.130862,0.0908199,3.31612
0.449902,0.0208618,1.04799,0.100637,0.129633,0.199722,3.31612
0.514336,0.167082,0.99177,0.0641122,0.131368,0.31782,3.31612
0.571958,0.357906,0.916107,0.0410241,0.142938,0.400677,3.31612
0.596971,0.413169,0.846649,0.0291519,0.16254,0.442531,3.31612
0.478207,0.373329,0.79943,0.0174621,0.173975,0.478045,3.31612
0.231121,0.400665,0.804015,0.0176193,0.164856,0.512806,3.31612
0.00455456,0.425712,0.913124,0.0362916,0.126067,0.484107,3.31612
-0.146396,0.474925,1.08973,0.045158,0.0877273,0.404382,3.31612
-0.21842,0.404438,1.20585,0.0337244,0.069776,0.285273,3.31612
-0.316826,0.333897,1.17244,0.00490124,0.0841174,0.189908,3.31612
-0.449754,0.328653,1.03126,-0.0355207,0.0778242,0.124759,3.31612
-0.549495,0.388425,0.9218,-0.0451532,0.0428683,0.057863,3.31612
-0.569161,0.323871,0.878447,-0.0208847,-0.0101006,-0.0576023,3.31612
-0.519922,0.0858978,0.879188,7.42972e-05,-0.0607032,-0.179092,3.31612
-0.519922,0.0858978,0.879188,7.42972e-05,-0.0607032,-0.179092,3.54863
-0.49626,-0.112225,0.90015,0.0150376,-0.0885512,-0.21537,3.54863
-0.532977,-0.165798,0.865422,-0.0140434,-0.121287,-0.208746,3.54863
-0.572792,0.00182781,0.730966,-0.0558034,-0.135469,-0.197675,3.54863
-0.518426,0.103365,0.518381,-0.097447,-0.142015,-0.276647,3.54863
-0.422515,0.0699495,0.320268,-0.105245,-0.152042,-0.3952,3.54863
-0.336884,-0.134107,0.173866,-0.0944771,-0.177273,-0.483292,3.54863
-0.302057,-0.315622,0.0739844,-0.0769805,-0.199219,-0.506515,3.54863
-0.266698,-0.394537,0.0029207,-0.059772,-0.211595,-0.505483,3.54863
-0.174811,-0.363066,-0.0995698,-0.0830797,-0.214906,-0.470869,3.54863
-0.0183173,-0.294488,-0.277227,-0.112163,-0.171775,-0.434817,3.54863
0.201619,-0.337836,-0.518335,-0.129587,-0.106672,-0.403213,3.54863
0.468422,-0.374766,-0.796665,-0.130232,-0.0471665,-0.328121,3.54863
0.746868,-0.305018,-1.04143,-0.110186,-0.00093773,-0.189851,3.54863
0.940005,-0.280517,-1.12723,-0.0703537,0.011796,-0.0785421,3.54863
0.958439,-0.192691,-1.13543,-0.0491414,0.02806,0.0437188,3.54863
0.835569,-0.0260832,-1.14972,-0.0565869,0.0495029,0.137503,3.54863
0.740439,0.0561246,-1.09667,-0.0350232,0.071929,0.139283,3.54863
0.695379,-0.0220102,-0.921871,-0.00166122,0.0684797,0.0885337,3.54863
0.619396,-0.139594,-0.709503,0.00393614,0.0617512,0.0763745,3.54863
0.566465,-0.205909,-0.598786,-0.0183033,0.0925015,0.111257,3.54863
0.59512,-0.249131,-0.626352,-0.0561454,0.153105,0.172997,3.54863
0.635862,-0.322808,-0.692659,-0.069428,0.203725,0.212718,3.54863
0.644821,-0.450113,-0.773136,-0.059251,0.241865,0.297783,3.54863
0.531489,-0.390946,-0.793468,-0.0464175,0.248411,0.392294,3.54863
0.364961,-0.249631,-0.795319,-0.0384779,0.243137,0.47087,3.54863
0.26098,-0.134034,-0.770921,-0.0314691,0.23942,0.465732,3.54863
0.204126,-0.101213,-0.69431,-0.0263321,0.230375,0.424307,3.54863
0.0806083,-0.0480116,-0.643774,-0.0482151,0.215828,0.387762,3.54863
-0.151604,-0.0432723,-0.595235,-0.0791024,0.198821,0.343929,3.54863
-0.476036,0.0149129,-0.522015,-0.103295,0.158656,0.283697,3.54863
-0.688733,0.0897751,-0.493859,-0.124758,0.12109,0.173522,3.54863
-0.627549,0.0217454,-0.4808,-0.129848,0.105688,-0.000416517,3.54863
-0.501826,-0.0368956,-0.497203,-0.137711,0.104518,-0.106265,3.54863
-0.480634,-0.155597,-0.549105,-0.13595,0.0924513,-0.164202,3.54863
-0.487754,-0.42622,-0.574037,-0.113769,0.0662235,-0.214257,3.54863
-0.468176,-0.661141,-0.573129,-0.0794532,0.0521085,-0.209425,3.54863
-0.429543,-0.61702,-0.58047,-0.0610252,0.0257943,-0.118785,3.54863
-0.427505,-0.587814,-0.585804,-0.0548308,-0.00558773,-0.0768083,3.54863
-0.452379,-0.592573,-0.601275,-0.0255486,-0.0165483,-0.0693183,3.54863
-0.494257,-0.639811,-0.540263,-0.00226043,-0.054227,-0.0993949,3.54863
-0.540523,-0.559377,-0.485259,0.00414565,-0.104721,-0.126204,3.54863
-0.474794,-0.374546,-0.486414,-0.00396866,-0.133057,-0.188744,3.54863
-0.313499,-0.201945,-0.491787,0.0141275,-0.139521,-0.296906,3.54863
-0.119893,0.0860789,-0.515011,0.0301941,-0.147569,-0.349674,3.54863
-0.0027346,0.257747,-0.502436,0.0483478,-0.140087,-0.37471,3.54863
-0.0479242,0.260086,-0.453333,0.103752,-0.122107,-0.402268,3.54863
-0.157373,0.225341,-0.289558,0.171801,-0.135578,-0.415648,3.54863
-0.225358,0.250066,-0.0317582,0.215381,-0.168875,-0.388337,3.54863
-0.225358,0.250066,-0.0317582,0.215381,-0.168875,-0.388337,3.79437
-0.287845,0.216465,0.245984,0.233422,-0.177171,-0.374199,3.79437
-0.331352,0.158454,0.467699,0.241757,-0.152505,-0.353248,3.79437
-0.252699,0.0346087,0.631678,0.243976,-0.104362,-0.32893,3.79437
-0.085485,-0.0451378,0.728494,0.240563,-0.0409191,-0.2903,3.79437
0.194026,0.0159023,0.684037,0.214995,0.0279409,-0.19001,3.79437
0.5342,0.00549652,0.568076,0.18566,0.0986914,-0.0986674,3.79437
0.721528,0.113335,0.4432,0.192365,0.159974,0.0496557,3.79437
0.738485,0.334696,0.395551,0.203368,0.160466,0.186012,3.79437
0.639982,0.546759,0.502393,0.227222,0.136665,0.263324,3.79437
0.43981,0.593214,0.706129,0.240166,0.114997,0.264573,3.79437
0.21561,0.531741,0.941937,0.24288,0.112408,0.233168,3.79437
0.0852416,0.450028,1.15062,0.213466,0.117814,0.203379,3.79437
0.0801279,0.332001,1.22892,0.15422,0.143054,0.182379,3.79437
0.133839,0.242031,1.19504,0.0947183,0.183616,0.209517,3.79437
0.159813,0.219112,1.0846,0.0385518,0.197623,0.261624,3.79437
0.121575,0.329238,0.95924,-0.00325386,0.191057,0.320275,3.79437
0.0861156,0.441024,0.855265,-0.0196829,0.169403,0.333969,3.79437
0.0685103,0.465419,0.790883,-0.0244432,0.149156,0.314082,3.79437
0.0192819,0.356731,0.749443,-0.031356,0.126294,0.27748,3.79437
-0.111253,0.282257,0.715816,-0.0328422,0.110191,0.27643,3.79437
-0.267572,0.297687,0.724033,-0.0297466,0.0784851,0.28784,3.79437
-0.36634,0.341303,0.754508,-0.0388868,0.0286537,0.257832,3.79437
-0.413634,0.351165,0.736829,-0.046757,0.00483418,0.196006,3.79437
-0.454537,0.355579,0.665093,-0.0519743,0.000122249,0.125462,3.79437
-0.479581,0.316555,0.642365,-0.0435838,-0.0494078,0.0685784,3.79437
-0.440407,0.184855,0.655615,-0.0245488,-0.0835691,-0.0266508,3.79437
-0.42819,0.0900443,0.652422,-0.0166256,-0.0991693,-0.0613602,3.79437
-0.441413,-0.0170394,0.613799,-0.0326005,-0.12855,-0.0837898,3.79437
-0.426801,-0.0321128,0.54864,-0.0382032,-0.145771,-0.0825096,3.79437
-0.354058,0.0608915,0.403914,-0.063976,-0.154408,-0.0867298,3.79437
-0.203772,0.124794,0.218121,-0.0826689,-0.15869,-0.125234,3.79437
-0.0214495,0.0778163,0.0967627,-0.0731952,-0.179193,-0.196417,3.79437
0.0705127,-0.00208525,0.0156655,-0.0775757,-0.199867,-0.22345,3.79437
0.0542444,-0.102888,-0.010792,-0.0605852,-0.221887,-0.234909,3.79437
0.0539269,-0.163222,-0.0264044,-0.0442026,-0.228069,-0.254342,3.79437
0.113331,-0.0998861,-0.0721633,-0.0354502,-0.203719,-0.272101,3.79437
0.143359,-0.201277,-0.0541213,-0.0156244,-0.18208,-0.314591,3.79437
0.0636083,-0.389453,0.0370049,0.00342011,-0.174745,-0.332263,3.79437
-0.132406,-0.404315,0.0927512,-0.0293447,-0.167237,-0.305558,3.79437
-0.297082,-0.24567,0.0224058,-0.0765926,-0.141418,-0.292208,3.79437
-0.307599,0.0299105,-0.113946,-0.0921862,-0.095125,-0.357632,3.79437
-0.155102,0.0894067,-0.229798,-0.073258,-0.0513863,-0.497977,3.79437
0.139047,-0.154809,-0.345195,-0.0496761,-0.032649,-0.580217,3.79437
0.562605,-0.55901,-0.505019,-0.0330715,0.0366184,-0.498657,3.79437
0.834634,-0.83537,-0.669891,-0.0393548,0.0930866,-0.274397,3.79437
0.827039,-0.82542,-0.841067,-0.0217898,0.125508,0.0144316,3.79437
0.702164,-0.449971,-0.949311,0.00594316,0.12926,0.225332,3.79437
0.702164,-0.449971,-0.949311,0.00594316,0.12926,0.225332,3.98462
0.552007,0.31978,-0.735432,0.0354643,0.0353268,0.281902,3.98462
0.41584,0.155853,-0.552361,0.0707321,0.0718436,0.1765,3.98462
0.239538,-0.0779414,-0.433564,0.0761689,0.113584,0.14305,3.98462
0.191884,-0.179021,-0.37272,0.0412527,0.131244,0.172539,3.98462
0.216454,-0.253199,-0.299973,0.0178323,0.132784,0.195513,3.98462
0.246692,-0.239399,-0.331827,-0.0031743,0.158923,0.245284,3.98462
0.291059,-0.127476,-0.427196,-0.0200305,0.192585,0.303028,3.98462
0.300938,-0.00890539,-0.498134,-0.0263564,0.201124,0.367396,3.98462
0.223115,0.0638028,-0.528306,-0.0226385,0.200443,0.382351,3.98462
0.0779634,0.110724,-0.494278,-0.0120712,0.17281,0.372156,3.98462
-0.0758584,0.147668,-0.465146,-0.0362889,0.137769,0.359063,3.98462
-0.192978,0.120403,-0.441804,-0.044694,0.137797,0.305399,3.98462
-0.291853,0.0425071,-0.428132,-0.0346327,0.134522,0.212325,3.98462
-0.38489,0.159638,-0.404829,-0.0416155,0.0951143,0.184956,3.98462
-0.458286,0.193038,-0.340605,-0.0375764,0.0518871,0.123719,3.98462
-0.575444,0.0404314,-0.210027,-0.00857203,0.0146435,0.0293745,3.98462
-0.6604,-0.110586,-0.0990902,0.0102672,-0.0176305,-0.0273989,3.98462
-0.635966,-0.124764,-0.0646413,0.00738271,-0.0299263,-0.0805054,3.98462
-0.540574,0.0236347,-0.105601,0.00244997,-0.0282094,-0.0922912,3.98462
-0.392681,-0.0356201,-0.153997,0.0106237,-0.0335383,-0.156718,3.98462
-0.240519,-0.307443,-0.180409,0.0269039,-0.0337753,-0.180284,3.98462
-0.196919,-0.396142,-0.169837,0.0435008,-0.0444801,-0.114507,3.98462
-0.23931,-0.147951,-0.164886,0.0364201,-0.0755182,0.0136881,3.98462
-0.321819,-0.0262927,-0.123277,0.0299629,-0.0993019,0.010859,3.98462
-0.419316,0.0707103,-0.0928777,0.0499753,-0.0887716,-0.0352403,3.98462
-0.479948,0.128696,-0.0834778,0.0346832,-0.103321,-0.132917,3.98462
-0.404102,0.2193,-0.0840625,0.0373375,-0.106316,-0.233594,3.98462
-0.183868,0.3399,-0.0839513,0.0374135,-0.108631,-0.314056,3.98462
-0.0336389,0.456473,-0.10001,0.0224925,-0.0969445,-0.33523,3.98462
-0.0341051,0.519183,-0.128788,0.0323274,-0.075351,-0.32425,3.98462
-0.136355,0.573034,-0.0753259,0.0706593,-0.0739145,-0.305854,3.98462
-0.28195,0.640189,0.0727165,0.108326,-0.0863662,-0.300487,3.98462
-0.418135,0.629289,0.294247,0.129401,-0.105792,-0.338094,3.98462
-0.490097,0.553932,0.487328,0.126748,-0.103565,-0.378881,3.98462
-0.386527,0.358209,0.563555,0.0937525,-0.0676052,-0.409584,3.98462
-0.146816,0.121797,0.586174,0.0820675,-0.0256438,-0.368817,3.98462
0.0926077,0.056626,0.585281,0.0677502,-0.000307187,-0.22634,3.98462
0.280374,0.152111,0.627578,0.0550936,0.00630891,-0.0469902,3.98462
0.339298,0.282862,0.618259,0.0431845,0.0107604,0.0959155,3.98462
0.299088,0.457532,0.537427,0.0359918,0.0665821,0.16122,3.98462
0.33826,0.523602,0.447188,0.0155311,0.0757463,0.137404,3.98462
0.417373,0.458404,0.469944,0.0508909,0.0800136,0.0838894,3.98462
0.446734,0.441526,0.60034,0.0850761,0.0684677,0.113653,3.98462
0.461567,0.467672,0.690454,0.0951869,0.0795428,0.174423,3.98462
0.406844,0.234683,0.779589,0.0739434,0.0956358,0.2026,3.98462
0.277447,0.042743,0.843583,0.0404464,0.110715,0.266251,3.98462
0.185397,-0.0496516,0.815134,0.00170228,0.124393,0.328396,3.98462
0.185397,-0.0496516,0.815134,0.00170228,0.124393,0.328396,4.18808
0.151302,-0.0359327,0.773854,-0.0187144,0.134107,0.372073,4.18808
0.141151,0.0931051,0.728308,-0.0331398,0.131803,0.399979,4.18808
0.117712,0.246149,0.691482,-0.0403981,0.125191,0.395423,4.18808
0.0568809,0.280229,0.665339,-0.0511595,0.110963,0.33719,4.18808
-0.0761062,0.255027,0.64985,-0.0518369,0.100002,0.270864,4.18808
-0.230903,0.146874,0.633973,-0.0405015,0.0769574,0.194571,4.18808
-0.349869,0.0366162,0.609261,-0.040621,0.0441411,0.129395,4.18808
-0.400201,-0.0455704,0.576918,-0.0368011,0.0141187,0.0735163,4.18808
-0.422714,-0.0405579,0.561575,-0.0340257,-0.0217604,0.03629,4.18808
-0.414885,0.0537997,0.513768,-0.0288906,-0.0522676,0.00693184,4.18808
-0.377625,0.0783894,0.447738,-0.0369223,-0.0744914,-0.0413494,4.18808
-0.35384,0.00804086,0.326302,-0.0479552,-0.0773024,-0.0724919,4.18808
-0.300097,-0.0598288,0.176288,-0.0436874,-0.0752494,-0.0830676,4.18808
-0.188516,-0.0295539,0.094488,-0.0227209,-0.107648,-0.0751036,4.18808
-0.10024,0.0887708,0.0838641,-0.00568337,-0.145945,-0.0661474,4.18808
-0.0825327,0.194349,0.0771896,0.0120383,-0.150282,-0.0759882,4.18808
-0.0932536,0.20271,0.0743041,0.0215301,-0.145266,-0.131233,4.18808
-0.0722081,0.0893095,0.0508646,0.0091744,-0.150755,-0.222633,4.18808
-0.015804,-0.0670884,-0.0111288,-0.0272017,-0.155651,-0.3018,4.18808
0.0291872,-0.319316,-0.112946,-0.0545249,-0.130977,-0.340917,4.18808
-0.0457701,-0.39258,-0.190006,-0.0385224,-0.107799,-0.307917,4.18808
-0.190609,-0.21403,-0.174025,-0.0340525,-0.132358,-0.244768,4.18808
-0.293124,0.0403879,-0.0809863,-0.018993,-0.151348,-0.244646,4.18808
-0.384905,0.192717,0.0165898,-0.00262145,-0.135967,-0.3188,4.18808
-0.455137,0.137683,0.0425595,-0.0157726,-0.100592,-0.388014,4.18808
-0.233837,-0.0227128,-0.0993126,-0.0453263,-0.0311387,-0.414291,4.18808
0.221471,-0.462095,-0.185417,-0.0606146,0.0109867,-0.373053,4.18808
0.505448,-0.709149,-0.367532,-0.0605223,0.0486192,-0.197893,4.18808
0.527971,-0.560068,-0.590786,-0.0904007,0.0693552,0.0618118,4.18808
0.465853,-0.221923,-0.751723,-0.125123,0.0521996,0.199763,4.18808
0.39678,0.0586388,-0.827926,-0.123869,0.0385486,0.210326,4.18808
0.281537,0.189902,-0.747202,-0.0838007,0.0211312,0.153728,4.18808
0.175691,0.168538,-0.532649,-0.045112,-0.0143128,0.0862113,4.18808
0.146155,-0.0482573,-0.374999,-0.0149382,0.0162293,0.0246763,4.18808
0.221457,-0.321218,-0.297289,-0.0191008,0.0534043,0.0226392,4.18808
0.32773,-0.593332,-0.333419,-0.0585508,0.0894174,0.0710816,4.18808
0.420201,-0.706149,-0.438829,-0.0770702,0.125096,0.163342,4.18808
0.418637,-0.575388,-0.545752,-0.096599,0.130866,0.282121,4.18808
0.353797,-0.363611,-0.631963,-0.100479,0.110585,0.348191,4.18808
0.238123,-0.325903,-0.62988,-0.097426,0.0862597,0.364246,4.18808
0.0829004,-0.376652,-0.591753,-0.0732735,0.0584107,0.33518,4.18808
-0.102822,-0.45987,-0.55721,-0.062243,0.0591984,0.304882,4.18808
-0.114461,-0.227713,-0.565741,-0.0594765,0.052068,0.303208,4.18808
0.0935567,0.242569,-0.598645,-0.106078,0.0334672,0.319118,4.18808
0.105741,0.368528,-0.6186,-0.0802069,0.0370173,0.190968,4.18808
-0.0985041,0.0933287,-0.630249,-0.0567726,0.0280011,0.0826451,4.18808
-0.342415,-0.275438,-0.649181,-0.0358921,0.016362,-0.0198336,4.18808
-0.385846,-0.361104,-0.608606,-0.0183107,0.0110759,-0.0300337,4.18808
-0.385846,-0.361104,-0.608606,-0.0183107,0.0110759,-0.0300337,4.52365
-0.248937,-0.275605,-0.517341,-0.012448,-0.0376616,-0.0633036,4.52365
