rotationRate_x,rotationRate_y,rotationRate_z,acceleration_x,acceleration_y,acceleration_z,relativeAltitude
-0.314808,0.158733,-0.0466788,0.0586565,0.0152883,-0.0297543,0
-0.194368,-0.32267,0.114988,0.0985679,0.0131083,0.0180091,0
0.0181214,-0.288411,0.0943941,0.0128368,-0.035202,-0.0545757,0
0.198999,-0.0530388,-0.00810494,-0.0401539,-0.0386145,-0.0545884,0
0.160108,-0.0460856,-0.0586469,-0.020616,-0.0341819,0.027885,0
-0.0119773,-0.150509,-0.066217,0.0143282,-0.0286037,0.081318,0
-0.151214,-0.213353,-0.064095,0.0200529,-0.0162716,0.0628499,0
-0.155217,-0.188132,-0.0674044,0.019208,-0.0138671,-0.000387669,0
-0.0885026,-0.1476,-0.0555175,0.0248731,-0.004473,-0.0319496,0
-0.00401229,-0.0302085,-0.0614433,0.0240636,-0.0100647,-0.0602685,0
0.00696641,0.041726,-0.0307339,0.0237821,0.00817594,-0.0202748,0
-0.00336868,-0.0385922,-0.00606616,0.0303316,-0.00196117,0.0124489,0
0.0129423,-0.0376163,-0.0205513,0.0228603,-0.013497,0.0228746,0
-0.026737,-0.0839872,-0.0307952,0.022743,-0.00799772,0.0474318,0
-0.0916507,-0.110277,-0.0214984,0.02964,-0.0172161,0.0463871,0
-0.130033,-0.126193,-0.0279121,0.0215908,-0.0150521,0.028482,0
-0.128358,-0.123392,-0.0472143,0.021777,-0.0217875,-0.00155848,0
-0.117373,-0.0804264,-0.029878,0.0280305,-0.0136092,-0.0232798,0
-0.0891773,-0.0694464,0.0115922,0.0316857,-0.00732972,-0.021983,0
-0.0234977,-0.0293034,0.0185072,0.0237844,-0.0192058,-0.0335799,0
0.00276106,0.00282022,0.0152363,0.0153631,-0.0265125,-0.0100604,0
-0.0381725,-0.0293736,0.00361582,0.0157432,-0.0309614,0.0233503,0
-0.114094,-0.0738863,-0.00779955,0.0101265,-0.0369596,0.037976,0
-0.183692,-0.0771249,-0.0237269,0.00579558,-0.038254,0.0236601,0
-0.195525,-0.0726821,-0.0566688,-0.00572418,-0.0417164,-0.00455201,0
-0.159043,-0.0756774,-0.0729587,-0.00158111,-0.0399212,-0.0238485,0
-0.129477,-0.103236,-0.0727833,-0.0148965,-0.0242281,-0.0230144,0
-0.135637,-0.0949637,-0.0859082,-0.03536,-0.0126089,-0.0121022,0
-0.146646,-0.079944,-0.128122,-0.0601252,-0.00859512,0.00240839,0
-0.128987,-0.0727281,-0.162196,-0.0728219,0.00358438,0.0156373,0
-0.120909,-0.060949,-0.179698,-0.090466,0.0217964,0.047417,0
-0.110257,-0.0895843,-0.19427,-0.110411,0.0279392,0.0769774,0
-0.0772336,-0.052522,-0.214651,-0.128196,0.0254487,0.0942624,0
-0.079341,-0.0673418,-0.244291,-0.142764,0.0247357,0.100894,0
-0.115838,-0.0897409,-0.272502,-0.144818,0.0239854,0.0874164,0
-0.120744,-0.0658204,-0.300844,-0.148223,0.0137147,0.0674995,0
-0.0943159,-0.0237399,-0.344786,-0.167515,0.0152036,0.0430272,0
-0.0984296,-0.0715071,-0.375834,-0.170909,0.00913106,0.0327705,0
-0.237,-0.305327,-0.442254,-0.179631,-0.0103649,0.0451347,0
-0.400434,-0.463766,-0.559423,-0.205718,-0.0321244,0.00739664,0
-0.569972,-0.486549,-0.724343,-0.226293,-0.053815,-0.0433981,0
-0.569831,-0.28564,-0.813579,-0.183541,-0.0805776,-0.108894,0
-0.398459,-0.00860805,-0.777322,-0.12434,-0.0710481,-0.0932301,0
-0.276829,0.043461,-0.65572,-0.0690382,-0.074061,0.0246406,0
-0.208728,-0.0293658,-0.547024,-0.0337358,-0.123007,0.116801,0
-0.162652,-0.157135,-0.537306,-0.013125,-0.175285,0.143927,0
-0.176769,-0.204831,-0.586219,-0.0115562,-0.205034,0.166972,0
-0.26241,-0.194035,-0.658324,0.00270782,-0.22686,0.171691,0
-0.419278,-0.264544,-0.732713,0.0465288,-0.2484,0.172834,0
-0.537498,-0.439154,-0.748227,0.125519,-0.264042,0.124069,0
-0.501749,-0.474949,-0.678926,0.165902,-0.252769,0.00585324,0
-0.37335,-0.328992,-0.559673,0.174777,-0.218671,-0.104376,0
-0.37335,-0.328992,-0.559673,0.174777,-0.218671,-0.104376,0
-0.237187,-0.160181,-0.410513,0.210412,-0.221941,-0.176047,0
-0.196501,-0.101334,-0.255082,0.239041,-0.225073,-0.212338,0
-0.189195,-0.0553024,-0.119803,0.236931,-0.229922,-0.285581,0
-0.0949091,0.0139353,-0.00241842,0.235807,-0.229565,-0.417018,0
0.0841701,0.265558,0.0865489,0.188444,-0.199055,-0.543885,0
0.223003,0.584081,0.17894,0.16079,-0.169744,-0.587068,0
0.288103,0.801049,0.245973,0.132079,-0.147834,-0.551931,0
0.317925,0.747124,0.290658,0.12625,-0.123534,-0.485658,0
0.307892,0.58527,0.339747,0.128732,-0.109691,-0.438027,0
0.273416,0.503574,0.365366,0.0882142,-0.070023,-0.392318,0
0.447615,0.4178,0.459567,0.082474,-0.017393,-0.355537,0
0.783023,0.480308,0.609831,0.129577,0.0169692,-0.266344,0
0.939771,0.552924,0.804184,0.13235,0.0800225,-0.0931043,0
0.862535,0.664343,0.993772,0.113352,0.0963843,0.0694345,0
0.776725,0.568986,1.11179,0.0906616,0.0899461,0.161511,0
0.828242,0.294169,1.17833,0.0629355,0.0992627,0.177065,0
0.89302,0.0242898,1.20551,0.0348286,0.1357,0.168677,0
0.914895,-0.079272,1.19499,0.0173887,0.154178,0.142878,0
0.906452,0.020731,1.11714,-0.0139083,0.177846,0.121733,0
0.902447,0.166153,1.04074,-0.0109246,0.20494,0.125148,0
0.878217,0.283385,1.00701,0.0141344,0.231007,0.16618,0
0.842322,0.344222,0.996911,0.0223822,0.256182,0.240587,0
0.792474,0.370325,0.964173,0.0234959,0.262017,0.312223,0
0.691315,0.346226,0.890425,0.0227595,0.26247,0.390506,0
0.532256,0.401596,0.804034,0.0152122,0.268296,0.453307,0
0.283175,0.409887,0.693641,0.0129701,0.26423,0.526038,0
0.0218867,0.432745,0.561522,0.0112439,0.258227,0.562808,0
-0.287441,0.341762,0.384413,-0.0144666,0.26045,0.586056,0
-0.623771,0.0969,0.173891,-0.0241702,0.245024,0.559841,0
-0.888703,-0.259802,0.0440279,0.0455687,0.226222,0.45677,0
-1.01993,-0.460222,0.038236,0.112646,0.220223,0.260386,0
-1.04728,-0.409584,0.167152,0.188739,0.215848,0.0143297,0
-1.05222,-0.167543,0.349827,0.181437,0.224827,-0.213901,0
-1.1364,0.161689,0.47108,0.112593,0.178067,-0.404789,0
-1.13175,0.482281,0.43091,0.0451021,0.0671267,-0.616403,0
-1.0537,0.625847,0.257558,0.000911772,-0.0228571,-0.736014,0
-1.00921,0.567414,0.205736,0.0136701,-0.0763048,-0.749065,0
-0.944023,0.364374,0.255427,-0.00503213,-0.0934078,-0.741157,0
-0.716747,0.037259,0.324001,-0.0433604,-0.135481,-0.753307,0
-0.367018,0.0109348,0.317882,-0.115618,-0.194551,-0.773987,0
-0.0882659,0.264855,0.172186,-0.20022,-0.209302,-0.701053,0
0.0645684,0.439379,0.0083217,-0.245863,-0.195033,-0.537574,0
0.236403,0.47808,-0.156811,-0.249897,-0.171816,-0.386746,0
0.423181,0.381074,-0.331275,-0.240622,-0.140745,-0.242658,0
0.595895,0.155571,-0.44414,-0.20245,-0.0910325,-0.114949,0
0.772014,-0.0572466,-0.477686,-0.178849,-0.0239618,-0.0179746,0
0.962334,-0.239124,-0.457278,-0.182348,0.0515356,0.0544628,0
1.10502,-0.380312,-0.453549,-0.20086,0.114859,0.11735,0
1.0988,-0.559146,-0.475323,-0.213661,0.168724,0.184814,0
0.995227,-0.637566,-0.559798,-0.223998,0.196652,0.213259,0
0.795953,-0.546629,-0.752543,-0.249572,0.219547,0.22403,0
0.795953,-0.546629,-0.752543,-0.249572,0.219547,0.22403,0.00263977
0.494261,-0.330072,-1.00725,-0.274821,0.227334,0.24225,0.00263977
0.227786,-0.21653,-1.18401,-0.22955,0.238348,0.264804,0.00263977
0.0954216,-0.259645,-1.21313,-0.14111,0.252658,0.293584,0.00263977
0.0459384,-0.384069,-1.13782,-0.072872,0.256697,0.33275,0.00263977
0.0220711,-0.537507,-1.0234,-0.0432266,0.242442,0.381375,0.00263977
-0.0393127,-0.679498,-0.982946,-0.0537077,0.211365,0.4264,0.00263977
-0.159503,-0.764094,-1.0473,-0.0576269,0.16646,0.446779,0.00263977
-0.362213,-0.762549,-1.13774,-0.0368507,0.135509,0.451689,0.00263977
-0.540902,-0.774101,-1.12449,0.012061,0.128481,0.438307,0.00263977
-0.596834,-0.812563,-1.01253,0.0697726,0.125253,0.388756,0.00263977
-0.585289,-0.816024,-0.857573,0.096583,0.116577,0.336405,0.00263977
-0.605627,-0.849709,-0.75076,0.105119,0.0647817,0.275951,0.00263977
-0.666201,-0.907431,-0.677753,0.137392,-0.0165103,0.180783,0.00263977
-0.762826,-0.85862,-0.612183,0.156041,-0.0940575,-0.00154525,0.00263977
-0.875142,-0.671058,-0.564321,0.176402,-0.152068,-0.208696,0.00263977
-0.877497,-0.488046,-0.477451,0.242577,-0.219792,-0.403583,0.00263977
-0.772666,-0.392771,-0.365672,0.254362,-0.251654,-0.549334,0.00263977
-0.613876,-0.242858,-0.296799,0.232684,-0.279575,-0.686723,0.00263977
-0.383376,0.145245,-0.248385,0.218943,-0.306203,-0.777148,0.00263977
-0.172617,0.712801,-0.190143,0.221497,-0.289258,-0.73898,0.00263977
-0.0097854,1.22402,-0.0752832,0.214698,-0.245926,-0.57485,0.00263977
0.134698,1.30313,0.00823176,0.209794,-0.23649,-0.354613,0.00263977
0.213149,1.07528,0.0801059,0.242282,-0.240467,-0.159203,0.00263977
0.177529,0.792747,0.197512,0.268903,-0.207742,-0.0237529,0.00263977
0.17737,0.674062,0.393126,0.263046,-0.139893,0.0227245,0.00263977
0.255002,0.750753,0.607517,0.23882,-0.0608123,0.0361807,0.00263977
0.321706,0.777734,0.847816,0.23222,-0.015455,0.0787819,0.00263977
0.347622,0.524342,1.10589,0.222189,0.0111427,0.123486,0.00263977
0.377547,0.187188,1.31106,0.200875,0.0199449,0.107074,0.00263977
0.434444,0.100601,1.39953,0.133269,0.0363074,0.0490166,0.00263977
0.502002,0.246947,1.41097,0.0618942,0.0742574,0.0149162,0.00263977
0.531013,0.467575,1.4187,0.0243045,0.11131,0.063212,0.00263977
0.485256,0.541762,1.41935,0.00504255,0.126653,0.172396,0.00263977
0.434527,0.448509,1.39514,-0.00944802,0.126017,0.257763,0.00263977
0.418673,0.240673,1.34229,-0.0236891,0.12526,0.307821,0.00263977
0.451678,-0.00479311,1.26633,-0.0207388,0.127086,0.31672,0.00263977
0.521689,-0.119203,1.21814,-0.0106741,0.156027,0.295272,0.00263977
0.487037,-0.120701,1.15143,-0.034075,0.197935,0.291138,0.00263977
0.397166,-0.0533503,1.03162,-0.0574599,0.187233,0.252943,0.00263977
0.332099,-0.00543351,0.847638,-0.048045,0.15918,0.205527,0.00263977
0.212761,-0.154657,0.713953,-0.022856,0.158266,0.165573,0.00263977
0.0716797,-0.399961,0.701789,0.0221656,0.17648,0.0860384,0.00263977
0.00977714,-0.429317,0.713255,0.0303457,0.186084,-0.054513,0.00263977
-0.0910994,-0.126369,0.611883,-0.0400282,0.182791,-0.151819,0.00263977
-0.301149,0.0538351,0.411338,-0.101908,0.144937,-0.153248,0.00263977
-0.55883,0.00963538,0.192993,-0.114376,0.0907136,-0.149952,0.00263977
-0.878118,-0.259557,-0.0198523,-0.118055,0.0542933,-0.150818,0.00263977
-1.10186,-0.534985,-0.177515,-0.103576,0.0136478,-0.225787,0.00263977
-1.08648,-0.585592,-0.261124,-0.0826966,0.0114042,-0.361012,0.00263977
-0.870191,-0.396927,-0.325878,-0.100844,0.00498344,-0.461232,0.00263977
-0.870191,-0.396927,-0.325878,-0.100844,0.00498344,-0.461232,0.00793457
-0.559203,-0.00909799,-0.441934,-0.138058,-0.00312522,-0.449723,0.00793457
-0.455829,0.0981779,-0.643909,-0.159658,-0.0242416,-0.278173,0.00793457
-0.577985,-0.0619296,-0.874116,-0.144432,-0.0536892,-0.144464,0.00793457
-0.597385,-0.15603,-1.04882,-0.1398,-0.0524209,-0.160182,0.00793457
-0.27193,-0.127717,-0.983264,-0.05657,0.00189468,-0.259196,0.00793457
0.233233,0.051665,-0.723346,-0.0441449,0.095486,-0.282564,0.00793457
0.552817,0.168435,-0.518358,-0.106101,0.154344,-0.169467,0.00793457
0.582458,0.18531,-0.470085,-0.13982,0.122737,-0.0202563,0.00793457
0.410172,0.09954,-0.580025,-0.186407,0.0876551,0.0932268,0.00793457
0.214224,0.110311,-0.738555,-0.219249,0.0819432,0.152159,0.00793457
0.0681829,0.138617,-0.850524,-0.203223,0.0831513,0.191313,0.00793457
-0.00323934,0.121981,-0.868327,-0.155553,0.0865379,0.230345,0.00793457
-0.0387981,0.0261544,-0.816247,-0.109846,0.0764161,0.272652,0.00793457
-0.0294231,-0.0799371,-0.774214,-0.0877033,0.0492057,0.298683,0.00793457
-0.00456871,-0.13252,-0.769696,-0.0821641,0.0319615,0.323235,0.00793457
0.00518858,-0.132519,-0.784454,-0.0758271,0.0328494,0.352942,0.00793457
-0.012292,-0.1273,-0.794335,-0.0440063,0.0339807,0.396704,0.00793457
-0.0302323,-0.227175,-0.762768,-0.00531244,0.0457671,0.434406,0.00793457
-0.0550667,-0.436347,-0.66904,0.0411412,0.0556116,0.435471,0.00793457
-0.075953,-0.643485,-0.531567,0.0861,0.0502882,0.367358,0.00793457
-0.110619,-0.767635,-0.38467,0.113314,0.0458814,0.268983,0.00793457
-0.215286,-0.885031,-0.279371,0.124596,0.0118244,0.153027,0.00793457
-0.281782,-0.907362,-0.255869,0.148658,-0.0516799,-0.0414352,0.00793457
-0.294979,-0.596525,-0.265083,0.169526,-0.0848729,-0.22594,0.00793457
-0.348052,-0.0216662,-0.154982,0.211515,-0.0821291,-0.328957,0.00793457
-0.467417,0.37542,0.0222438,0.22232,-0.100607,-0.338111,0.00793457
-0.652485,0.393723,0.0851897,0.200184,-0.171187,-0.321063,0.00793457
-0.830854,0.178522,-0.00661295,0.181786,-0.259588,-0.352372,0.00793457
-0.804755,0.265315,-0.0209676,0.224523,-0.286962,-0.445703,0.00793457
-0.530655,0.632869,0.188326,0.25409,-0.204413,-0.478688,0.00793457
-0.209155,0.843898,0.55787,0.289716,-0.155843,-0.358491,0.00793457
-0.048007,0.490758,0.917724,0.298458,-0.160354,-0.160704,0.00793457
0.133488,0.0123658,1.16505,0.268903,-0.186398,-0.0637478,0.00793457
0.366117,-0.0774062,1.2479,0.213053,-0.172709,-0.0586972,0.00793457
0.535396,0.138151,1.39631,0.198448,-0.101931,-0.00794202,0.00793457
0.515614,0.283866,1.60465,0.222158,-0.0485226,0.0760592,0.00793457
0.424367,0.258458,1.83159,0.228028,-0.0213101,0.11291,0.00793457
0.547945,0.0768268,2.04258,0.236784,-0.0173497,0.056985,0.00793457
0.818391,-0.101722,2.15397,0.21613,0.00155045,-0.00331253,0.00793457
1.0219,-0.072487,2.21069,0.176047,0.0359427,-0.0130658,0.00793457
1.01712,-0.0332804,2.23048,0.163831,0.0527031,0.0507855,0.00793457
0.895273,-0.0225042,2.18945,0.159293,0.0465056,0.112267,0.00793457
0.764163,-0.0811107,2.07635,0.145275,0.0337601,0.13601,0.00793457
0.70123,-0.0755318,1.90245,0.135591,0.0185533,0.119381,0.00793457
0.702722,0.0226126,1.73055,0.14088,0.0409817,0.118347,0.00793457
0.725741,0.171044,1.64307,0.172332,0.0783335,0.138848,0.00793457
0.705175,0.297007,1.62049,0.19916,0.11976,0.201934,0.00793457
0.619634,0.343371,1.61251,0.217084,0.134056,0.261273,0.00793457
0.543491,0.319877,1.592,0.23366,0.128989,0.296472,0.00793457
0.556634,0.218639,1.56532,0.24246,0.126614,0.280774,0.00793457
0.572411,0.213293,1.4883,0.242927,0.12525,0.240305,0.00793457
0.572411,0.213293,1.4883,0.242927,0.12525,0.240305,0.163818
0.527013,0.176439,1.45664,0.253706,0.133211,0.195304,0.163818
0.457353,0.326996,1.42433,0.270293,0.110863,0.116784,0.163818
0.354989,0.505758,1.34799,0.245746,0.0825212,0.0304875,0.163818
0.175396,0.755721,1.2572,0.235539,0.0236278,-0.0389836,0.163818
-0.0463032,0.77063,1.15488,0.229991,-0.0236068,-0.0999095,0.163818
-0.0463373,0.648969,1.08235,0.218226,-0.0674669,-0.239607,0.163818
0.231276,0.545026,1.07038,0.212087,-0.0787973,-0.4061,0.163818
0.409225,0.83844,1.07651,0.181085,-0.0680676,-0.481126,0.163818
0.287707,1.25592,1.09845,0.138341,-0.0462217,-0.426161,0.163818
0.0568729,1.47703,1.11468,0.101897,-0.0436426,-0.33144,0.163818
-0.0785951,1.41638,1.10113,0.0662093,-0.0629799,-0.280751,0.163818
-0.135796,1.23562,1.0475,0.0441468,-0.0827387,-0.242524,0.163818
-0.251599,0.879106,0.943271,0.00455979,-0.0713645,-0.197192,0.163818
-0.354167,0.754024,0.843035,-0.0660098,-0.0316575,-0.196884,0.163818
-0.352583,0.824998,0.741326,-0.118658,-0.00204924,-0.210007,0.163818
-0.30521,0.997034,0.658156,-0.118528,0.00115302,-0.177842,0.163818
-0.387315,1.00735,0.539587,-0.121363,-0.00740641,-0.116864,0.163818
-0.372662,0.715297,0.482873,-0.0849901,-0.000751644,-0.107698,0.163818
-0.076872,0.534746,0.513376,-0.0338025,0.0549436,-0.174749,0.163818
0.276443,0.559267,0.665955,-0.0148378,0.153329,-0.169593,0.163818
0.435764,0.491525,0.878673,-0.0134385,0.241739,-0.0623865,0.163818
0.381098,0.188163,1.03445,-0.0421979,0.254017,0.0343569,0.163818
0.336314,-0.11155,0.954807,-0.127062,0.210017,0.021373,0.163818
0.327998,-0.223139,0.730231,-0.208002,0.204923,-0.0403736,0.163818
0.309596,-0.122231,0.574676,-0.219034,0.222067,-0.0691051,0.163818
0.327297,0.0944004,0.49323,-0.207339,0.248559,-0.0573341,0.163818
0.328321,0.342359,0.454961,-0.175233,0.257087,0.00968927,0.163818
0.227959,0.375859,0.460662,-0.137674,0.247317,0.129012,0.163818
0.174832,0.285074,0.510371,-0.119951,0.235403,0.221067,0.163818
0.16915,0.107191,0.549836,-0.125039,0.234552,0.290013,0.163818
0.121644,-0.0777409,0.556166,-0.136118,0.221671,0.354324,0.163818
-0.0218948,-0.270571,0.508076,-0.153877,0.2048,0.404034,0.163818
-0.157089,-0.395719,0.404129,-0.144241,0.171221,0.398641,0.163818
-0.19336,-0.362891,0.308955,-0.130666,0.159397,0.345773,0.163818
-0.239093,-0.249244,0.26193,-0.129075,0.164422,0.31775,0.163818
-0.375948,-0.203842,0.217866,-0.111585,0.141096,0.325033,0.163818
-0.506162,-0.273488,0.128552,-0.0630058,0.0720209,0.281703,0.163818
-0.568105,-0.135359,0.0359761,-0.0313677,0.0255533,0.200228,0.163818
-0.569998,0.072648,0.000739506,0.0105423,-0.00039196,0.14874,0.163818
-0.583208,0.276309,0.0393886,0.0771,-0.0566521,0.139379,0.163818
-0.6334,0.338567,0.128484,0.114225,-0.0921639,0.145657,0.163818
-0.642788,0.157401,0.245236,0.13011,-0.131167,0.123532,0.163818
-0.477617,-0.0564312,0.385507,0.152067,-0.181863,0.0354142,0.163818
-0.230611,-0.101828,0.535313,0.173901,-0.20761,-0.0317978,0.163818
-0.159306,0.0922716,0.602229,0.141657,-0.234886,-0.055042,0.163818
-0.268438,0.260152,0.558718,0.100156,-0.270121,-0.0538702,0.163818
-0.304821,0.283157,0.472275,0.112047,-0.306805,-0.115547,0.163818
-0.177592,0.271083,0.42898,0.145894,-0.279414,-0.20831,0.163818
-0.0952073,0.313723,0.478058,0.156641,-0.196827,-0.248944,0.163818
-0.0992883,0.43747,0.524196,0.144977,-0.121641,-0.296332,0.163818
-0.0992883,0.43747,0.524196,0.144977,-0.121641,-0.296332,0.404282
-0.120338,0.838861,0.481646,0.121331,-0.0679677,-0.380469,0.404282
-0.245245,1.11132,0.464109,0.149346,0.00399765,-0.424089,0.404282
-0.48109,1.09685,0.394633,0.174593,0.019471,-0.451668,0.404282
-0.738534,0.648884,0.169766,0.121758,0.00890797,-0.527406,0.404282
-0.543648,0.155338,0.104021,0.171859,0.0544191,-0.694736,0.404282
0.0949401,0.0654228,0.314777,0.215934,0.196743,-0.791275,0.404282
0.657578,0.341858,0.679654,0.202398,0.301247,-0.649888,0.404282
0.845524,0.524144,0.890486,0.12153,0.300172,-0.369236,0.404282
0.799188,0.325437,0.89734,0.0427766,0.239339,-0.114216,0.404282
0.681314,-0.166658,0.829345,-0.0068073,0.193077,0.0160717,0.404282
0.630127,-0.495644,0.69331,-0.0233069,0.152447,0.0228986,0.404282
0.587825,-0.500403,0.508547,-0.0400736,0.15275,0.00688374,0.404282
0.521731,-0.278078,0.376908,-0.0404182,0.179783,0.0189065,0.404282
0.500155,-0.0417706,0.387427,-0.0134244,0.217449,0.0479816,0.404282
0.506605,0.0128297,0.493676,0.0169257,0.23395,0.119211,0.404282
0.503767,-0.138453,0.622259,0.0428918,0.216023,0.211032,0.404282
0.509644,-0.381254,0.760556,0.0621998,0.19837,0.286489,0.404282
0.504028,-0.587043,0.837696,0.0509263,0.172574,0.320023,0.404282
0.454127,-0.614065,0.849379,0.0326122,0.145415,0.309567,0.404282
0.300332,-0.48042,0.801814,0.00881091,0.127729,0.304919,0.404282
0.0710831,-0.24751,0.722996,-0.00830092,0.0950365,0.296133,0.404282
-0.136502,-0.0993485,0.621761,-0.0311627,0.0803569,0.285632,0.404282
-0.238942,-0.0791168,0.509732,-0.0317297,0.0570779,0.251506,0.404282
-0.201444,-0.0700759,0.393991,0.00046058,0.0158772,0.181063,0.404282
-0.130194,0.119857,0.297391,0.00337577,0.0192736,0.148824,0.404282
-0.156286,0.359327,0.210916,0.0082755,0.025226,0.181122,0.404282
-0.280256,0.35137,0.152135,0.0211525,0.0172263,0.256871,0.404282
-0.339353,0.100489,0.0954857,0.0230829,0.00755167,0.296282,0.404282
-0.320932,-0.178527,0.0330053,0.051671,-0.0129077,0.29705,0.404282
-0.389731,-0.315195,0.00212499,0.0780327,-0.0230053,0.295521,0.404282
-0.537415,-0.428479,0.00240885,0.0779767,-0.0112047,0.252655,0.404282
-0.549612,-0.386087,0.00903019,0.077811,-0.0254245,0.130206,0.404282
-0.45942,-0.0619811,-0.0333954,0.0789374,-0.0548192,0.0115422,0.404282
-0.367762,0.380818,-0.0288342,0.106272,-0.0846337,-0.0159804,0.404282
-0.27014,0.588282,0.0207864,0.126608,-0.124133,0.0160297,0.404282
-0.157617,0.583741,0.029215,0.126748,-0.192891,-0.00351554,0.404282
-0.0663802,0.449366,0.0244758,0.139744,-0.256899,-0.0549045,0.404282
-0.0325284,0.463434,0.0546934,0.193463,-0.312876,-0.139276,0.404282
-0.106599,0.563978,0.14834,0.267142,-0.328205,-0.216577,0.404282
-0.198812,0.700307,0.296733,0.319689,-0.339366,-0.309357,0.404282
-0.249737,0.759581,0.461069,0.340899,-0.366449,-0.401867,0.404282
-0.176939,0.597832,0.606922,0.363649,-0.372294,-0.494771,0.404282
-0.0585114,0.306824,0.737315,0.377352,-0.361386,-0.553663,0.404282
-0.0048302,0.340845,0.82437,0.350234,-0.319052,-0.603414,0.404282
-0.161512,0.649311,0.891556,0.293745,-0.24858,-0.583222,0.404282
-0.50532,0.835535,0.974634,0.23287,-0.193054,-0.509717,0.404282
-0.629299,0.615928,1.02213,0.124135,-0.143935,-0.471404,0.404282
-0.362738,-0.0150941,1.01741,0.0323841,-0.066077,-0.435582,0.404282
0.0707235,-0.280513,0.974049,-0.0128323,0.0134042,-0.383118,0.404282
0.415294,-0.0306247,0.911155,-0.0743297,0.138569,-0.277092,0.404282
0.628371,0.502591,0.883485,-0.137606,0.265389,-0.122298,0.404282
0.735843,0.709326,0.93029,-0.175118,0.322261,0.0502766,0.404282
0.809132,0.542889,0.939396,-0.206725,0.310996,0.159279,0.404282
0.847471,0.132149,0.833628,-0.267204,0.330522,0.211996,0.404282
0.804322,-0.346808,0.575567,-0.321746,0.346503,0.212527,0.404282
0.670852,-0.886727,0.14054,-0.324309,0.311873,0.186304,0.404282
0.512347,-1.14332,-0.279303,-0.270107,0.300524,0.0927865,0.404282
0.38323,-0.965023,-0.561934,-0.215096,0.349834,-0.0086804,0.404282
0.190846,-0.393547,-0.743965,-0.173762,0.377437,-0.0631284,0.404282
0.0377835,0.137852,-0.75872,-0.114914,0.376079,-0.0691979,0.404282
0.0618734,0.369726,-0.669175,-0.0662605,0.349741,-0.0326383,0.404282
0.125542,0.315067,-0.571433,-0.0390832,0.299149,0.0553671,0.404282
0.102966,0.0842587,-0.508617,-0.0499684,0.246461,0.137921,0.404282
0.100617,-0.145639,-0.434852,-0.0513167,0.20693,0.195303,0.404282
0.0917907,-0.267577,-0.388382,-0.0522436,0.179202,0.231784,0.404282
0.0258786,-0.219687,-0.392929,-0.0679785,0.15973,0.271906,0.404282
-0.0769819,-0.129124,-0.432557,-0.0846455,0.134493,0.326424,0.404282
-0.14259,-0.126208,-0.476953,-0.066311,0.121064,0.379432,0.404282
-0.162814,-0.169859,-0.490919,-0.0394708,0.118922,0.417947,0.404282
-0.164954,-0.244727,-0.471536,-0.00535387,0.125307,0.452494,0.404282
-0.201812,-0.350246,-0.439844,0.0300416,0.111318,0.465079,0.404282
-0.287023,-0.447446,-0.363624,0.0860627,0.084509,0.436584,0.404282
-0.401887,-0.495539,-0.27334,0.113429,0.0547304,0.380731,0.404282
-0.522715,-0.439533,-0.22251,0.124706,0.0118866,0.302247,0.404282
-0.570098,-0.354421,-0.193452,0.136865,-0.0298068,0.19334,0.404282
-0.441617,-0.304129,-0.170135,0.134951,-0.0492902,0.082217,0.404282
-0.441617,-0.304129,-0.170135,0.134951,-0.0492902,0.082217,0.581314
-0.314956,-0.161531,-0.160416,0.142909,-0.0812553,0.00975752,0.581314
-0.357493,0.0661452,-0.142404,0.149489,-0.0960324,0.0162918,0.581314
-0.513014,0.265875,-0.0709379,0.15074,-0.0925119,0.0404122,0.581314
-0.557354,0.370043,0.0106255,0.129748,-0.104929,0.0339259,0.581314
-0.454682,0.39406,0.0619913,0.110679,-0.129212,0.0271014,0.581314
-0.322501,0.421783,0.13593,0.0851796,-0.133733,0.0654787,0.581314
-0.242341,0.439626,0.24523,0.0679132,-0.123684,0.13343,0.581314
-0.235097,0.361547,0.342354,0.0470937,-0.133502,0.205844,0.581314
-0.294463,0.132133,0.436146,0.0606443,-0.158153,0.246946,0.581314
-0.334054,-0.0852774,0.540872,0.0693474,-0.160879,0.203745,0.581314
-0.341676,-0.0981557,0.585479,0.0426737,-0.160262,0.108266,0.581314
-0.309811,-0.0694445,0.601772,0.0296604,-0.170531,0.00426686,0.581314
-0.181816,0.114698,0.628337,0.00286029,-0.156242,-0.107597,0.581314
-0.110898,0.377613,0.715952,0.0397511,-0.170761,-0.152336,0.581314
-0.327316,0.521488,0.745943,0.0337676,-0.221208,-0.173658,0.581314
-0.504162,0.436581,0.643406,-0.000487398,-0.30326,-0.333424,0.581314
-0.345222,0.211942,0.512359,-0.0168588,-0.343483,-0.597183,0.581314
-0.155482,0.00737924,0.47314,-0.000762377,-0.321053,-0.749667,0.581314
-0.164802,-0.0212721,0.492526,0.035149,-0.315701,-0.785344,0.581314
-0.373694,0.188758,0.428033,-0.00223548,-0.321689,-0.768273,0.581314
-0.508425,0.43601,0.273901,-0.0619757,-0.32419,-0.722228,0.581314
-0.4498,0.407314,0.0643398,-0.0876817,-0.306303,-0.609845,0.581314
-0.205119,0.087039,-0.114046,-0.0940906,-0.231552,-0.453851,0.581314
0.0880304,-0.472305,-0.176034,-0.0455898,-0.127261,-0.274186,0.581314
0.379644,-0.706858,-0.0897775,0.0414567,0.0175709,-0.177442,0.581314
0.674258,-0.323628,0.165626,0.0873515,0.166632,-0.123133,0.581314
0.844759,0.159251,0.486564,0.118862,0.249809,0.00541317,0.581314
0.8202,0.163502,0.752018,0.165834,0.250453,0.181153,0.581314
0.608044,-0.26466,0.975689,0.208493,0.224364,0.244112,0.581314
0.480951,-0.644052,1.09932,0.173982,0.229461,0.140372,0.581314
0.501353,-0.892026,1.05021,0.100592,0.221666,-0.0178983,0.581314
0.598284,-0.821603,0.854409,0.0891183,0.172436,-0.134895,0.581314
0.62392,-0.49212,0.622139,0.122785,0.158273,-0.164715,0.581314
0.517271,0.140631,0.464323,0.158534,0.184325,-0.134924,0.581314
0.279221,0.673254,0.464001,0.173886,0.229269,-0.0270669,0.581314
0.0812854,0.731501,0.535879,0.19969,0.212261,0.0935466,0.581314
0.0356922,0.453412,0.633126,0.246037,0.165667,0.152386,0.581314
0.111538,0.0885434,0.7647,0.246489,0.168664,0.174576,0.581314
0.199164,-0.00990242,0.895858,0.238222,0.170345,0.185565,0.581314
0.189756,0.0951976,0.969336,0.20409,0.173361,0.230416,0.581314
0.119122,0.259393,0.976031,0.161296,0.158961,0.292726,0.581314
-0.019895,0.325827,0.95066,0.134024,0.137914,0.362687,0.581314
-0.139051,0.259035,0.94188,0.13577,0.11932,0.415023,0.581314
-0.133537,0.117141,0.943569,0.143953,0.107697,0.410753,0.581314
-0.0907332,-0.000145337,0.976734,0.17083,0.105949,0.389716,0.581314
-0.0931565,0.0221082,1.02071,0.175043,0.0992747,0.359279,0.581314
-0.176964,0.122944,1.04121,0.183995,0.0764155,0.338496,0.581314
-0.309806,0.175356,1.06653,0.202136,0.0512386,0.313555,0.581314
-0.342495,0.258939,1.04847,0.195001,0.00677365,0.228861,0.581314
-0.21835,0.339264,0.992987,0.175438,-0.0153348,0.139489,0.581314
-0.0449175,0.346935,0.981437,0.180212,-0.0342886,0.0903761,0.581314
0.0643226,0.377552,0.989521,0.186063,-0.0468598,0.0764595,0.581314
0.049757,0.446501,0.997989,0.179948,-0.0572585,0.0858495,0.581314
0.049757,0.446501,0.997989,0.179948,-0.0572585,0.0858495,0.626236
-0.0293031,0.653008,0.986511,0.177956,-0.092194,0.081374,0.626236
-0.12908,0.844947,0.920541,0.166777,-0.148402,0.0610583,0.626236
-0.175421,0.696607,0.819782,0.183225,-0.207603,0.0166801,0.626236
-0.0861232,0.504202,0.789134,0.207144,-0.238379,-0.0882864,0.626236
0.0729359,0.460871,0.809555,0.22835,-0.264275,-0.201418,0.626236
0.136129,0.580319,0.78542,0.230745,-0.289974,-0.272688,0.626236
0.0838543,0.780972,0.716272,0.199253,-0.303134,-0.316551,0.626236
0.0520199,0.792598,0.656488,0.197457,-0.313822,-0.368508,0.626236
0.174001,0.640022,0.724499,0.234727,-0.278031,-0.448112,0.626236
0.401677,0.322301,0.935088,0.238654,-0.193185,-0.498544,0.626236
0.510583,0.160995,1.04548,0.188789,-0.149182,-0.473867,0.626236
0.359655,0.150992,0.918059,0.0626022,-0.102665,-0.394427,0.626236
0.161144,0.251714,0.715471,0.00343009,-0.0432773,-0.325942,0.626236
0.074103,0.354361,0.641729,0.0305527,0.0264859,-0.289461,0.626236
0.121413,0.378099,0.751897,0.0309895,0.136062,-0.250703,0.626236
0.289314,0.366795,0.897054,-0.0266914,0.224219,-0.219455,0.626236
0.501723,0.374512,0.909472,-0.139653,0.29627,-0.158648,0.626236
0.619318,0.382693,0.815973,-0.197604,0.333414,-0.0506983,0.626236
0.557567,0.25833,0.73113,-0.191123,0.358377,0.0802818,0.626236
0.304785,0.0845091,0.683407,-0.178366,0.384057,0.172361,0.626236
-0.0147386,-0.196559,0.660222,-0.158859,0.385654,0.185823,0.626236
-0.12517,-0.312589,0.581173,-0.14393,0.348642,0.085652,0.626236
-0.0619244,-0.271103,0.451458,-0.119377,0.3124,0.0107931,0.626236
-0.0222972,-0.12341,0.40622,-0.0438128,0.281426,0.0207843,0.626236
-0.0563888,0.0521005,0.488033,0.0264491,0.266795,0.0724936,0.626236
-0.0206873,0.140882,0.635624,0.065909,0.248602,0.114277,0.626236
0.109023,0.102943,0.775342,0.0754731,0.225331,0.161528,0.626236
0.222672,0.00197779,0.83839,0.0545173,0.20291,0.23333,0.626236
0.227874,-0.0471314,0.806766,0.0215975,0.178144,0.315971,0.626236
0.126039,-0.0200267,0.689465,0.00116778,0.14365,0.368329,0.626236
-0.0570379,0.111921,0.570878,0.0131947,0.1164,0.395207,0.626236
-0.285701,0.162441,0.507199,0.0294741,0.117601,0.420897,0.626236
-0.480498,0.0577729,0.474493,0.0610617,0.10059,0.412193,0.626236
-0.522918,-0.12607,0.429171,0.0926615,0.0682878,0.332933,0.626236
-0.491513,-0.195483,0.451723,0.135845,0.0667386,0.231189,0.626236
-0.539191,-0.0700111,0.554448,0.154049,0.0755833,0.174274,0.626236
-0.62345,0.130944,0.639699,0.130176,0.058645,0.12702,0.626236
-0.648198,0.27211,0.635442,0.0885592,0.000797778,0.0841345,0.626236
-0.628353,0.286997,0.562871,0.0537676,-0.0439202,0.065979,0.626236
-0.56984,0.291787,0.534546,0.0517206,-0.0648224,0.0408177,0.626236
-0.471608,0.298257,0.573124,0.0475018,-0.0672319,0.0174019,0.626236
-0.282966,0.30912,0.643874,0.0397499,-0.0793104,-0.0179793,0.626236
-0.0746355,0.293337,0.684703,-0.00232537,-0.0923017,-0.0344881,0.626236
0.0329516,0.11253,0.68582,-0.05697,-0.0860355,-0.043173,0.626236
0.0286076,0.00696241,0.626914,-0.0730307,-0.131829,-0.125814,0.626236
-0.112792,0.168929,0.532078,-0.0348403,-0.17422,-0.224496,0.626236
-0.498095,0.300432,0.527643,0.0277228,-0.186557,-0.261517,0.626236
-1.02891,0.217765,0.601866,0.0766878,-0.205486,-0.327043,0.626236
-1.31776,0.169147,0.618269,0.0846019,-0.257769,-0.528676,0.626236
-1.10767,0.417128,0.682154,0.106247,-0.28369,-0.809738,0.626236
-0.681747,0.625822,0.889343,0.103055,-0.226387,-0.900336,0.626236
-0.274545,0.499674,1.0254,0.0566541,-0.205245,-0.823813,0.626236
0.0896895,0.346656,1.01557,0.0177013,-0.210567,-0.70587,0.626236
0.338571,0.284292,0.871408,-0.0103968,-0.180238,-0.577527,0.626236
0.338571,0.284292,0.871408,-0.0103968,-0.180238,-0.577527,0.893112
0.659684,0.639253,0.764144,-0.00139451,-0.089043,-0.495829,0.893112
0.995283,1.00028,0.778331,0.0281961,0.0510719,-0.346567,0.893112
1.26123,0.935653,0.967984,0.118843,0.124525,-0.148232,0.893112
1.35092,0.476656,1.16725,0.170261,0.14114,0.00883263,0.893112
1.18797,-0.0583129,1.26605,0.183839,0.128095,0.0822262,0.893112
0.839939,-0.421596,1.12748,0.13209,0.0827765,0.0533409,0.893112
0.679831,-0.527111,0.809814,0.100574,0.0304065,-0.0977848,0.893112
0.786314,-0.281655,0.566336,0.117086,0.0989223,-0.259971,0.893112
0.878725,0.126441,0.591553,0.162998,0.228392,-0.267193,0.893112
0.843352,0.437976,0.816589,0.220766,0.30152,-0.152711,0.893112
0.693667,0.430814,1.01523,0.224209,0.31588,0.0302697,0.893112
0.500841,0.305797,1.07703,0.164666,0.299007,0.17416,0.893112
0.324377,0.286467,0.958978,0.0738732,0.26827,0.25578,0.893112
0.159028,0.348457,0.724625,0.00859146,0.246977,0.321434,0.893112
0.0477109,0.4515,0.52246,0.00450378,0.245713,0.375816,0.893112
-0.00750163,0.565068,0.458559,0.0382251,0.277227,0.432784,0.893112
-0.028835,0.62084,0.564009,0.0713942,0.318001,0.503926,0.893112
0.00994222,0.608608,0.763723,0.0858346,0.331269,0.567641,0.893112
0.0885109,0.499209,0.954432,0.0672908,0.331079,0.619826,0.893112
0.211742,0.195419,1.11276,0.0597093,0.328785,0.6383,0.893112
0.414211,0.0178138,1.27531,0.0941038,0.322981,0.574427,0.893112
0.455466,0.201143,1.4448,0.0957494,0.349549,0.539254,0.893112
0.274533,0.385771,1.54717,0.0604745,0.338086,0.510114,0.893112
0.0268611,0.606168,1.5142,0.022559,0.231025,0.420043,0.893112
-0.223861,0.675661,1.26758,-0.037234,0.0704575,0.259675,0.893112
-0.504431,0.631275,0.931676,-0.0282515,-0.0996539,0.123186,0.893112
-0.858297,0.400844,0.6145,-0.00461853,-0.229003,-0.0315275,0.893112
-1.08148,0.158305,0.412159,0.00331944,-0.314232,-0.284237,0.893112
-1.17609,-0.0147037,0.383961,-0.0128639,-0.325917,-0.533162,0.893112
-1.00724,-0.13088,0.487319,-0.0362373,-0.353126,-0.769653,0.893112
-0.524953,0.0681674,0.603243,-0.0906087,-0.375172,-0.948536,0.893112
-0.124491,0.535368,0.632831,-0.147738,-0.399571,-0.911756,0.893112
-0.0576809,0.714362,0.535538,-0.193266,-0.423336,-0.678083,0.893112
-0.121314,0.662699,0.333053,-0.192357,-0.441089,-0.478243,0.893112
-0.20245,0.35687,0.039504,-0.175521,-0.391418,-0.339087,0.893112
-0.227223,-0.0118715,-0.190699,-0.131563,-0.297441,-0.267365,0.893112
-0.098353,-0.23996,-0.273808,-0.0992354,-0.14617,-0.245269,0.893112
0.219785,-0.392823,-0.277775,-0.0568885,0.00510728,-0.22826,0.893112
0.474684,-0.236836,-0.324045,-0.0453363,0.104925,-0.20837,0.893112
0.617726,0.148412,-0.429871,-0.102073,0.211984,-0.158721,0.893112
0.727702,0.448451,-0.561258,-0.166458,0.33006,-0.0758851,0.893112
0.679344,0.334173,-0.656757,-0.18563,0.425094,0.0475574,0.893112
0.412658,-0.24061,-0.745296,-0.185123,0.448306,0.148292,0.893112
0.0572857,-0.845483,-0.895644,-0.181936,0.40736,0.124083,0.893112
-0.222709,-1.14583,-1.07296,-0.203866,0.375967,-0.0101783,0.893112
-0.323126,-1.05045,-1.1854,-0.21412,0.370651,-0.152152,0.893112
-0.328659,-0.686758,-1.20695,-0.194098,0.346832,-0.212477,0.893112
-0.320919,-0.32415,-1.20087,-0.156776,0.284493,-0.177145,0.893112
-0.256617,-0.186597,-1.19609,-0.112674,0.208412,-0.0879063,0.893112
-0.136692,-0.169264,-1.16864,-0.0764954,0.14817,0.00240594,0.893112
-0.0235921,-0.146056,-1.07694,-0.0592454,0.135499,0.109459,0.893112
0.0126188,-0.171096,-0.975058,-0.0575837,0.123024,0.253684,0.893112
0.039212,-0.310496,-0.940689,-0.0597745,0.0877474,0.373627,0.893112
0.0715841,-0.473305,-0.9657,-0.0709162,0.0739754,0.47942,0.893112
0.0715841,-0.473305,-0.9657,-0.0709162,0.0739754,0.47942,1.14412
0.102339,-0.632127,-0.97096,-0.0615865,0.0944359,0.563695,1.14412
0.171562,-0.717459,-0.949103,-0.0395779,0.121946,0.620009,1.14412
0.239928,-0.701489,-0.960815,-0.0348037,0.145,0.660223,1.14412
0.200505,-0.594313,-1.05723,-0.0453467,0.160595,0.702498,1.14412
0.00746826,-0.476657,-1.18049,-0.0310198,0.171903,0.739002,1.14412
-0.226288,-0.391736,-1.28008,0.00293023,0.173301,0.722632,1.14412
-0.371661,-0.395876,-1.31915,0.0687092,0.182253,0.65775,1.14412
-0.443679,-0.473931,-1.22932,0.141809,0.195265,0.541146,1.14412
-0.480741,-0.535491,-1.08572,0.160881,0.191191,0.393767,1.14412
-0.303336,-0.467027,-0.948442,0.148526,0.142202,0.192305,1.14412
-0.125348,-0.287893,-0.889013,0.132479,0.06113,0.0644551,1.14412
-0.170365,-0.114883,-0.942054,0.127283,-0.0535109,-0.0287643,1.14412
-0.456913,0.111009,-0.914455,0.180555,-0.15894,-0.0900514,1.14412
-0.837154,0.280995,-0.698059,0.241144,-0.225531,-0.200906,1.14412
-0.91746,0.459348,-0.445888,0.212355,-0.307602,-0.430067,1.14412
-0.668354,0.484387,-0.31725,0.12739,-0.417997,-0.638143,1.14412
-0.438913,0.134349,-0.25484,0.107273,-0.527717,-0.705747,1.14412
-0.408525,-0.24392,-0.223364,0.139338,-0.617297,-0.733286,1.14412
-0.625527,-0.298343,-0.219493,0.136605,-0.650178,-0.795665,1.14412
-0.796007,0.0770518,-0.169977,0.13203,-0.628244,-0.908025,1.14412
-0.575582,0.535854,-0.0486999,0.146603,-0.555169,-0.988892,1.14412
-0.148434,0.612033,0.20733,0.186041,-0.429575,-0.855535,1.14412
0.240186,0.0991568,0.602421,0.242494,-0.311459,-0.584587,1.14412
0.533199,-0.498916,0.919927,0.204813,-0.191817,-0.359913,1.14412
0.678905,-0.645999,0.995183,0.0843778,-0.11785,-0.229012,1.14412
0.81959,-0.247867,0.866673,0.014578,-0.0446756,-0.160356,1.14412
1.01324,0.362113,0.761946,0.0129332,0.0752776,-0.0735635,1.14412
1.14287,0.749108,0.84287,0.0855395,0.195069,0.0877612,1.14412
1.12297,0.631589,1.01114,0.146698,0.237211,0.229164,1.14412
1.03097,0.0860512,1.13223,0.187615,0.207869,0.279798,1.14412
0.917532,-0.394888,1.10664,0.161761,0.168006,0.209427,1.14412
0.736347,-0.547711,0.84227,0.0687409,0.141347,0.0774562,1.14412
0.561351,-0.349291,0.484257,0.0593775,0.116532,-0.0532037,1.14412
0.462642,0.0566485,0.222674,0.118459,0.148309,-0.143769,1.14412
0.381636,0.491378,0.172777,0.190614,0.227281,-0.120486,1.14412
0.298616,0.659353,0.343733,0.278283,0.278305,-0.0196234,1.14412
0.237064,0.631507,0.570928,0.307897,0.288707,0.0925478,1.14412
0.108931,0.503364,0.699274,0.275289,0.270846,0.201038,1.14412
-0.120515,0.303253,0.724234,0.230078,0.229409,0.279616,1.14412
-0.266905,0.174029,0.725565,0.217629,0.206441,0.285237,1.14412
-0.30877,0.174373,0.750115,0.216812,0.2089,0.280389,1.14412
-0.288921,0.285648,0.81558,0.219015,0.212806,0.282788,1.14412
-0.269491,0.442334,0.927805,0.218353,0.215018,0.321427,1.14412
-0.287879,0.53396,1.07658,0.215192,0.222889,0.377705,1.14412
-0.328068,0.549068,1.21021,0.214672,0.20554,0.41545,1.14412
-0.3488,0.433631,1.33184,0.217063,0.18242,0.437535,1.14412
-0.173607,0.219427,1.46885,0.236622,0.166766,0.365254,1.14412
0.164811,0.266135,1.58209,0.212004,0.192201,0.266963,1.14412
0.343343,0.472473,1.66049,0.177689,0.211293,0.237674,1.14412
0.301712,0.651733,1.68836,0.143595,0.183397,0.261164,1.14412
0.211899,0.750485,1.57872,0.118304,0.119974,0.254919,1.14412
0.129358,0.677895,1.37909,0.0897509,0.0502214,0.21428,1.14412
0.124395,0.453278,1.17591,0.112541,-0.00803849,0.128273,1.14412
0.217649,0.335787,1.00933,0.1224,-0.0124187,0.0262035,1.14412
0.217649,0.335787,1.00933,0.1224,-0.0124187,0.0262035,1.42685
0.26808,0.544722,0.930807,0.161829,-0.0148844,-0.0394534,1.42685
0.158346,0.935243,0.879076,0.192606,-0.0528753,-0.0281883,1.42685
-0.0663015,1.1387,0.797264,0.172308,-0.10314,0.0122536,1.42685
-0.209852,1.04206,0.701422,0.151042,-0.175391,-0.00968891,1.42685
-0.112439,0.545515,0.564881,0.145081,-0.230189,-0.103478,1.42685
0.232139,0.30263,0.401537,0.107266,-0.224997,-0.260233,1.42685
0.420318,0.560412,0.215956,0.0730001,-0.188876,-0.308709,1.42685
0.227613,0.986519,0.107025,0.0857641,-0.180701,-0.225644,1.42685
-0.0967776,1.1427,0.0663327,0.0954672,-0.188368,-0.148612,1.42685
-0.404211,0.917539,-0.155352,0.0043714,-0.188357,-0.12495,1.42685
-0.563175,0.468474,-0.545222,-0.08276,-0.177021,-0.164585,1.42685
-0.50538,0.107987,-0.67969,-0.0130273,-0.07382,-0.260499,1.42685
-0.293988,-0.00387945,-0.395473,0.101064,0.0659375,-0.34033,1.42685
0.0988389,0.261978,0.185161,0.151464,0.199336,-0.392364,1.42685
0.492102,0.636855,0.790078,0.0889848,0.294957,-0.342393,1.42685
0.757212,0.676943,1.15013,-0.0580816,0.303226,-0.172315,1.42685
0.83447,0.345682,1.25781,-0.183501,0.258833,0.00656915,1.42685
0.717751,-0.118178,1.19281,-0.281607,0.230401,0.11249,1.42685
0.565057,-0.288214,0.951361,-0.349986,0.223263,0.130746,1.42685
0.446341,-0.141148,0.615462,-0.36717,0.218952,0.136256,1.42685
0.278693,0.216374,0.352318,-0.306615,0.216403,0.194924,1.42685
0.0127053,0.454129,0.202875,-0.230092,0.212663,0.304223,1.42685
-0.238688,0.275086,0.179168,-0.142759,0.197277,0.390413,1.42685
-0.380319,-0.234898,0.200074,-0.0627045,0.163057,0.390386,1.42685
-0.438247,-0.614648,0.228689,-0.00335014,0.146232,0.334329,1.42685
-0.467179,-0.599329,0.316827,0.0528917,0.13916,0.242726,1.42685
-0.550466,-0.240575,0.411946,0.072768,0.13802,0.208881,1.42685
-0.681898,-0.0124438,0.472083,0.107733,0.0904782,0.235533,1.42685
-0.743186,-0.1752,0.530854,0.140614,0.0215661,0.269981,1.42685
-0.644547,-0.468428,0.618042,0.195515,-0.0229504,0.251626,1.42685
-0.574718,-0.639165,0.74942,0.237944,-0.0350364,0.2389,1.42685
-0.683993,-0.555316,0.897194,0.272051,-0.0717973,0.225159,1.42685
-0.836063,-0.338603,1.00462,0.294448,-0.118299,0.181519,1.42685
-0.802108,-0.182112,1.04504,0.301279,-0.166284,0.100502,1.42685
-0.590002,-0.114875,1.09139,0.311881,-0.198415,0.0308499,1.42685
-0.440627,0.0641649,1.11947,0.349137,-0.228537,0.0139186,1.42685
-0.503157,0.327375,1.11135,0.357355,-0.263892,0.00919443,1.42685
-0.57093,0.558723,1.11798,0.379654,-0.287662,-0.0374629,1.42685
-0.474998,0.500052,1.22978,0.42889,-0.277831,-0.117102,1.42685
-0.208224,0.448067,1.41526,0.459919,-0.24879,-0.236737,1.42685
-0.00821424,0.748606,1.56833,0.431192,-0.22842,-0.339303,1.42685
0.0249297,1.01047,1.66372,0.415888,-0.249703,-0.362594,1.42685
0.0260043,0.877199,1.68767,0.399749,-0.281521,-0.394828,1.42685
-0.0206594,0.375087,1.66552,0.393534,-0.251292,-0.433952,1.42685
-0.0488123,-0.0217271,1.65869,0.33524,-0.138094,-0.560562,1.42685
0.0887851,0.0821058,1.69701,0.27946,0.00242057,-0.692075,1.42685
0.427187,0.803667,1.88356,0.244221,0.153718,-0.728062,1.42685
0.7364,1.32592,2.16738,0.216556,0.27465,-0.548719,1.42685
0.952408,1.18434,2.52091,0.231939,0.337602,-0.285331,1.42685
1.01104,0.725916,2.77975,0.182142,0.368259,-0.0731443,1.42685
0.930155,0.315733,2.83355,0.107663,0.347,0.0402035,1.42685
0.769989,0.163056,2.75792,0.0604499,0.328204,0.0743501,1.42685
0.628284,0.224883,2.64461,0.0322384,0.351254,0.0691264,1.42685
0.582169,0.330979,2.60071,0.0398104,0.387215,0.0688469,1.42685
0.582169,0.330979,2.60071,0.0398104,0.387215,0.0688469,1.76244
0.606941,0.322238,2.63475,0.0646952,0.418705,0.105624,1.76244
0.644236,0.228232,2.66892,0.0693142,0.424713,0.162511,1.76244
0.632173,0.0910583,2.61756,0.0447373,0.401181,0.218873,1.76244
0.535206,0.011056,2.46765,0.0137508,0.368623,0.256712,1.76244
0.407843,0.000912709,2.24688,-0.000405684,0.332629,0.258451,1.76244
0.301231,0.018826,2.0127,0.00747129,0.315707,0.247476,1.76244
0.21282,0.0631129,1.78806,0.0292515,0.308523,0.242093,1.76244
0.13078,0.118034,1.59183,0.0672984,0.302216,0.238326,1.76244
0.110539,0.195288,1.39419,0.0853033,0.288429,0.216109,1.76244
0.0834543,0.238159,1.22352,0.108161,0.262935,0.19687,1.76244
-0.0290041,0.257575,1.09772,0.120311,0.246197,0.187861,1.76244
-0.246818,0.202526,1.00862,0.0986767,0.218986,0.157755,1.76244
-0.452003,0.223431,0.800043,0.0169566,0.154859,0.0446985,1.76244
-0.620954,0.460235,0.461078,-0.0902385,0.0990762,-0.0876007,1.76244
-0.739366,0.71047,0.0803891,-0.159159,0.0311662,-0.190139,1.76244
-0.776616,0.942441,-0.198048,-0.172687,-0.0335633,-0.248183,1.76244
-0.795306,1.18053,-0.380029,-0.209673,-0.0797382,-0.269567,1.76244
-0.89539,1.30786,-0.645726,-0.257774,-0.117191,-0.247991,1.76244
-1.07731,1.21062,-1.00596,-0.281238,-0.173132,-0.21879,1.76244
-1.20584,0.905078,-1.36625,-0.279533,-0.199443,-0.243984,1.76244
-1.04396,0.663972,-1.50428,-0.21451,-0.177009,-0.377809,1.76244
-0.582738,0.621123,-1.32827,-0.139641,-0.0789475,-0.482693,1.76244
-0.0836822,0.621263,-1.01596,-0.102091,0.0165466,-0.460579,1.76244
0.242135,0.490886,-0.643084,-0.0877532,0.0840029,-0.316212,1.76244
0.359691,0.101245,-0.320899,-0.110755,0.115182,-0.148973,1.76244
0.385406,-0.29349,-0.132776,-0.157308,0.106029,-0.0470159,1.76244
0.407478,-0.485485,-0.144561,-0.230004,0.0869491,-0.011328,1.76244
0.44004,-0.521812,-0.30171,-0.270367,0.0726456,0.0225468,1.76244
0.417125,-0.400643,-0.525813,-0.259962,0.0735811,0.0797309,1.76244
0.329217,-0.223605,-0.701388,-0.196033,0.095317,0.167844,1.76244
0.275203,-0.0744529,-0.781491,-0.118322,0.119108,0.256418,1.76244
0.235902,-0.141217,-0.768389,-0.0468039,0.135748,0.347784,1.76244
0.189161,-0.389971,-0.69162,0.0178165,0.132012,0.415737,1.76244
0.0986099,-0.653969,-0.661833,0.0564696,0.0984998,0.431947,1.76244
-0.0515459,-0.689076,-0.697455,0.0796279,0.0619493,0.405452,1.76244
-0.218968,-0.595632,-0.749653,0.11453,0.0272026,0.344683,1.76244
-0.319492,-0.469394,-0.736563,0.171413,-0.00121874,0.275837,1.76244
-0.298521,-0.41944,-0.610257,0.24765,-0.0308481,0.195571,1.76244
-0.233653,-0.358499,-0.439189,0.295351,-0.0598116,0.124982,1.76244
-0.258895,-0.318632,-0.309534,0.316442,-0.0994488,0.0814744,1.76244
-0.310093,-0.252439,-0.200578,0.347598,-0.150095,0.00650817,1.76244
-0.300543,-0.152147,-0.0554159,0.389144,-0.162736,-0.0977764,1.76244
-0.200844,0.0592747,0.181241,0.426669,-0.153518,-0.211516,1.76244
-0.116104,0.277496,0.437345,0.440261,-0.148388,-0.277702,1.76244
-0.0795605,0.395843,0.688465,0.448206,-0.169298,-0.312506,1.76244
-0.0273895,0.510233,0.921652,0.440905,-0.198394,-0.351297,1.76244
0.0718182,0.539707,1.10853,0.416463,-0.211114,-0.389506,1.76244
0.15639,0.585602,1.21044,0.336145,-0.184155,-0.408394,1.76244
0.163779,0.728419,1.23373,0.278556,-0.156577,-0.387328,1.76244
0.183317,0.929814,1.32825,0.28057,-0.0936421,-0.326532,1.76244
0.254407,1.12921,1.50938,0.284917,-0.0125913,-0.209196,1.76244
0.254612,1.15342,1.73552,0.290907,0.04248,-0.0395226,1.76244
0.162903,0.963009,2.00519,0.301914,0.0724263,0.108297,1.76244
0.0992753,0.580734,2.29594,0.313322,0.101853,0.168402,1.76244
0.0992753,0.580734,2.29594,0.313322,0.101853,0.168402,2.07422
0.0485713,0.137023,2.57512,0.301566,0.129816,0.159503,2.07422
-0.00876831,-0.151021,2.79479,0.280293,0.143987,0.0744075,2.07422
-0.0432187,-0.268318,2.89903,0.225494,0.164957,-0.0441781,2.07422
-0.0113843,-0.274555,2.9574,0.208758,0.169618,-0.164338,2.07422
0.172904,-0.0320434,3.0246,0.220731,0.173797,-0.275159,2.07422
0.463777,0.251216,3.0879,0.207398,0.196415,-0.295428,2.07422
0.70299,0.284891,3.14072,0.19836,0.204553,-0.18637,2.07422
0.84299,0.10623,3.11664,0.174807,0.184774,-0.0525939,2.07422
0.919065,-0.0781004,2.95579,0.134802,0.158365,0.0408909,2.07422
0.906367,-0.167425,2.67904,0.0937061,0.134105,0.102242,2.07422
0.864049,-0.0910632,2.31357,0.0823228,0.0971406,0.127562,2.07422
0.832109,0.00178764,1.95333,0.128914,0.0775417,0.137368,2.07422
0.83547,0.161563,1.68959,0.194505,0.0917887,0.117754,2.07422
0.907527,0.223712,1.56035,0.245687,0.141345,0.105813,2.07422
0.986571,0.117915,1.52795,0.292192,0.1787,0.108478,2.07422
1.06968,0.00733285,1.56742,0.306307,0.191516,0.0879046,2.07422
1.14809,0.0543193,1.47745,0.259202,0.176301,0.0582773,2.07422
1.01671,0.319854,1.15984,0.175418,0.126136,0.0719392,2.07422
0.612867,0.591278,0.707258,0.115077,0.0952323,0.111655,2.07422
0.192932,0.748611,0.261226,0.121157,0.0759562,0.0883796,2.07422
-0.0744146,0.837601,0.026172,0.179736,0.115934,0.0132053,2.07422
-0.19674,0.938349,0.0615017,0.230004,0.180989,-0.0655387,2.07422
-0.244415,1.05177,0.233834,0.229807,0.200253,-0.112122,2.07422
-0.3255,1.15496,0.35262,0.167616,0.153279,-0.135993,2.07422
-0.554606,1.16039,0.23641,0.0352765,0.0854512,-0.125813,2.07422
-0.883331,1.01119,0.0392904,-0.0391965,0.0128578,-0.142709,2.07422
-1.10137,0.91605,-0.160336,-0.0994982,-0.0258745,-0.23739,2.07422
-1.00983,1.083,-0.24127,-0.114719,-0.00623587,-0.382074,2.07422
-0.644628,1.33105,-0.13559,-0.122853,0.0399834,-0.468269,2.07422
-0.201724,1.41166,0.06679,-0.127468,0.08563,-0.421716,2.07422
-0.00539164,1.06951,0.248871,-0.137404,0.119035,-0.255374,2.07422
0.00515381,0.674271,0.437388,-0.169874,0.154376,-0.12705,2.07422
-0.00816667,0.401438,0.556522,-0.210277,0.180566,-0.0730841,2.07422
0.0256813,0.257665,0.590388,-0.248073,0.168686,-0.0542498,2.07422
0.103528,0.243878,0.506784,-0.277884,0.130948,-0.0200171,2.07422
0.122738,0.26171,0.332768,-0.269557,0.0892539,0.0499629,2.07422
0.0699434,0.269857,0.16214,-0.224576,0.0636466,0.138615,2.07422
-0.0155162,0.180539,0.058854,-0.147539,0.0586155,0.215927,2.07422
-0.0990926,-0.0433301,0.0229172,-0.0807799,0.0584822,0.257516,2.07422
-0.135937,-0.235538,0.00236867,-0.020151,0.0426524,0.233028,2.07422
-0.131441,-0.260142,-0.0474514,0.00664371,0.0263589,0.170403,2.07422
-0.168443,-0.0812025,-0.136835,0.0142798,0.0161248,0.143888,2.07422
-0.286039,0.0477999,-0.225787,0.0358976,-0.00115103,0.160112,2.07422
-0.368856,0.106953,-0.285918,0.0739831,-0.0193832,0.171614,2.07422
-0.452444,0.0606891,-0.332731,0.0933138,-0.0303877,0.178687,2.07422
-0.498723,-0.0606886,-0.342381,0.113617,-0.0425473,0.15082,2.07422
-0.442559,-0.0557929,-0.283672,0.134299,-0.0379827,0.0836036,2.07422
-0.327446,0.0324676,-0.162933,0.145257,-0.0226953,0.0345539,2.07422
-0.133064,0.24646,0.00409597,0.144638,-0.0162353,-0.00274414,2.07422
0.0404478,0.297134,0.129301,0.128611,-0.0337396,0.0198722,2.07422
0.116231,0.286585,0.254701,0.116801,-0.0663341,0.073077,2.07422
0.0977066,0.246049,0.350994,0.0962179,-0.0925401,0.114198,2.07422
0.104673,0.169781,0.414937,0.0823739,-0.134282,0.0767492,2.07422
0.104673,0.169781,0.414937,0.0823739,-0.134282,0.0767492,2.31732
0.116927,-0.0616584,0.441408,0.0661933,-0.184867,-0.00718415,2.31732
0.015252,-0.274962,0.444325,0.0777239,-0.240945,-0.122642,2.31732
-0.277503,-0.322131,0.42102,0.0705516,-0.251542,-0.244596,2.31732
-0.541138,-0.303738,0.442243,0.0882014,-0.253259,-0.439947,2.31732
-0.727505,-0.268056,0.424917,0.0846882,-0.281322,-0.607484,2.31732
-0.976227,-0.18695,0.287566,0.0595157,-0.342663,-0.734525,2.31732
-1.03895,0.153971,0.125309,0.034851,-0.355661,-0.889793,2.31732
-0.767904,0.561032,0.088911,0.0411101,-0.281322,-0.966684,2.31732
-0.274724,0.697966,0.270138,0.0781068,-0.14396,-0.835951,2.31732
0.214689,0.506978,0.485652,0.0714323,-0.0272946,-0.581611,2.31732
0.597585,0.422308,0.573431,0.0130137,0.0408938,-0.360578,2.31732
0.825553,0.676858,0.482994,-0.0508264,0.0929568,-0.169986,2.31732
0.794671,1.01061,0.390234,-0.0409959,0.141351,0.0174018,2.31732
0.652123,0.907459,0.450011,0.017338,0.185025,0.171009,2.31732
0.518748,0.319005,0.596645,0.0795128,0.191259,0.215161,2.31732
0.472383,-0.380607,0.687189,0.109581,0.16106,0.12811,2.31732
0.523923,-0.612778,0.607549,0.0667476,0.153138,-0.0397137,2.31732
0.577598,-0.347729,0.466022,0.0452784,0.181723,-0.168907,2.31732
0.529016,0.109043,0.351747,0.0622483,0.200135,-0.203583,2.31732
0.42046,0.368596,0.335067,0.109493,0.218715,-0.161613,2.31732
0.380217,0.361278,0.449912,0.163774,0.239896,-0.113198,2.31732
0.422264,0.287617,0.613456,0.173369,0.258102,-0.0572693,2.31732
0.439565,0.329921,0.72216,0.114025,0.26698,0.0424767,2.31732
0.381735,0.424387,0.723873,0.055006,0.249387,0.170668,2.31732
0.250561,0.465001,0.667702,0.0124311,0.230651,0.300431,2.31732
0.0570488,0.394134,0.62817,-0.00609174,0.21804,0.41877,2.31732
-0.098711,0.234566,0.61874,-0.0105911,0.208424,0.485149,2.31732
-0.17595,0.0921494,0.609332,-0.034229,0.201829,0.506546,2.31732
-0.183309,-0.0839392,0.580271,-0.0530294,0.187836,0.507437,2.31732
-0.0455194,-0.211966,0.529224,-0.0709942,0.182316,0.462085,2.31732
0.100607,-0.149654,0.455948,-0.0833344,0.17677,0.43763,2.31732
0.0789091,-0.0732628,0.359494,-0.0641068,0.15974,0.449399,2.31732
-0.0205606,-0.00174201,0.333939,-0.0100127,0.145907,0.445375,2.31732
-0.0573017,0.12997,0.364509,0.0188804,0.144954,0.384433,2.31732
-0.0447784,0.29427,0.370707,-0.00948291,0.127757,0.317747,2.31732
0.0230812,0.262439,0.285782,-0.0209581,0.0598586,0.267875,2.31732
0.0573716,0.19422,0.150987,0.00938449,-0.0139728,0.215767,2.31732
0.00800552,0.109279,0.097796,0.0672639,-0.0528173,0.157963,2.31732
-0.124959,0.0149524,0.246302,0.149385,-0.0709826,0.0924003,2.31732
-0.169507,-0.0127759,0.498122,0.206864,-0.123135,-0.0636473,2.31732
-0.00634667,0.120894,0.645441,0.162817,-0.21349,-0.274218,2.31732
0.105957,0.226734,0.647847,0.114678,-0.30478,-0.383189,2.31732
0.0143521,0.154988,0.558901,0.106665,-0.390311,-0.418252,2.31732
-0.204219,-0.092886,0.456577,0.115129,-0.429763,-0.45359,2.31732
-0.372817,-0.20951,0.376589,0.084322,-0.405203,-0.558072,2.31732
-0.462253,-0.212095,0.300647,0.0500714,-0.366289,-0.677371,2.31732
-0.422415,-0.101772,0.275976,0.0524986,-0.331799,-0.760742,2.31732
-0.336626,0.146302,0.297884,0.0401772,-0.251279,-0.757845,2.31732
-0.384054,0.232766,0.268584,-0.0244896,-0.146992,-0.60872,2.31732
-0.456596,0.134264,0.0988813,-0.0994416,-0.103364,-0.456285,2.31732
-0.35203,-0.0350154,-0.164594,-0.152822,-0.0396418,-0.359152,2.31732
0.0223618,0.0168822,-0.30528,-0.131328,0.0821063,-0.288525,2.31732
0.404464,0.277626,-0.260964,-0.106744,0.243298,-0.142954,2.31732
0.618326,0.616463,-0.0760459,-0.109398,0.343252,0.0635967,2.31732
0.618326,0.616463,-0.0760459,-0.109398,0.343252,0.0635967,2.51549
0.512478,0.522245,0.00747829,-0.147118,0.359103,0.279665,2.51549
0.269627,-0.00133072,-0.050859,-0.152709,0.299998,0.375721,2.51549
0.107697,-0.741593,-0.24534,-0.144484,0.241053,0.321217,2.51549
-0.0179934,-1.28889,-0.503576,-0.185657,0.243197,0.164391,2.51549
-0.078065,-1.25365,-0.761267,-0.208644,0.257737,-0.027882,2.51549
-0.0645483,-0.758066,-0.949009,-0.182506,0.267097,-0.166093,2.51549
-0.0441764,-0.106142,-0.969906,-0.125264,0.297855,-0.165053,2.51549
-0.0923218,0.189915,-0.84145,-0.0658463,0.297603,-0.0358911,2.51549
-0.0610837,0.0814259,-0.673729,-0.0312035,0.24115,0.0809021,2.51549
0.0768124,-0.170935,-0.573895,-0.0475956,0.193144,0.154886,2.51549
0.163269,-0.34762,-0.562621,-0.0882949,0.161833,0.226288,2.51549
0.124034,-0.427112,-0.620786,-0.10927,0.132855,0.308464,2.51549
-0.0259476,-0.400433,-0.662582,-0.0946694,0.125128,0.392308,2.51549
-0.194425,-0.352562,-0.724028,-0.0778825,0.120917,0.437671,2.51549
-0.269139,-0.268191,-0.815567,-0.0592436,0.099419,0.415839,2.51549
-0.180754,-0.200228,-0.858914,-0.0283569,0.100736,0.370106,2.51549
-0.0501185,-0.217879,-0.792903,0.0270661,0.12128,0.377528,2.51549
0.00835276,-0.293597,-0.654467,0.0627797,0.136033,0.403438,2.51549
0.0267478,-0.244432,-0.585205,0.0672842,0.104905,0.400054,2.51549
-0.0278627,-0.156634,-0.613855,0.0558353,0.0657112,0.388,2.51549
-0.180533,-0.0886234,-0.617555,0.0761437,0.0408942,0.367833,2.51549
-0.332002,-0.0414873,-0.566893,0.0892109,0.0237659,0.317722,2.51549
-0.439135,-0.130843,-0.555562,0.0729137,-0.0137657,0.248625,2.51549
-0.397939,-0.235598,-0.512392,0.121245,-0.0605395,0.151153,2.51549
-0.309478,-0.0798523,-0.45863,0.12976,-0.0541624,0.0884847,2.51549
-0.358527,0.190144,-0.409023,0.114976,-0.0610409,0.0958665,2.51549
-0.469353,0.250156,-0.310381,0.120672,-0.0911949,0.128078,2.51549
-0.42591,0.128438,-0.218211,0.112199,-0.121767,0.0874769,2.51549
-0.236611,0.150749,-0.156377,0.0948289,-0.138553,0.00992715,2.51549
-0.123343,0.264745,-0.0885198,0.0856269,-0.131665,-0.000362992,2.51549
-0.126007,0.264071,0.0252765,0.0886302,-0.127903,0.0134464,2.51549
-0.105556,0.265056,0.146352,0.0944561,-0.162928,-0.0590141,2.51549
-0.134414,0.276679,0.239647,0.0911168,-0.209943,-0.154376,2.51549
-0.302714,0.306568,0.289859,0.105071,-0.262481,-0.248821,2.51549
-0.602092,0.103784,0.390943,0.144819,-0.284535,-0.35861,2.51549
-0.806927,-0.099975,0.493855,0.112816,-0.279897,-0.534532,2.51549
-0.836947,0.0864664,0.488378,0.0674589,-0.303926,-0.741052,2.51549
-0.852125,0.47883,0.457317,0.0786412,-0.319779,-0.803896,2.51549
-0.920584,0.744055,0.416722,0.0752258,-0.29605,-0.73673,2.51549
-0.922464,0.750394,0.364239,0.0832373,-0.265325,-0.617759,2.51549
-0.766377,0.565276,0.44455,0.126634,-0.190014,-0.500231,2.51549
-0.401834,0.40749,0.680567,0.138206,-0.0650359,-0.389213,2.51549
0.12308,0.393277,0.980727,0.105377,0.0602383,-0.250736,2.51549
0.523336,0.46457,1.26273,0.0890935,0.137873,-0.0555658,2.51549
0.650147,0.54723,1.43967,0.0842873,0.148761,0.150798,2.51549
0.539157,0.390379,1.50052,0.0666681,0.132741,0.296624,2.51549
0.374728,-0.0483559,1.48169,0.0426295,0.10815,0.325477,2.51549
0.305688,-0.537776,1.29419,-0.00277042,0.0588105,0.20767,2.51549
0.310284,-0.764542,0.931054,-0.0367893,0.00237156,0.0366209,2.51549
0.310052,-0.777602,0.563344,-0.00265981,-0.0104457,-0.119594,2.51549
0.408828,-0.570319,0.406179,0.112952,0.0471767,-0.22254,2.51549
0.510473,-0.0793617,0.474896,0.213304,0.114844,-0.245998,2.51549
0.498651,0.423913,0.639663,0.248285,0.152364,-0.166682,2.51549
0.426241,0.48123,0.804804,0.248778,0.148604,-0.0304959,2.51549
0.426241,0.48123,0.804804,0.248778,0.148604,-0.0304959,2.6846
0.418563,0.240695,0.895856,0.231851,0.106208,0.0544604,2.6846
0.426015,0.113545,0.906125,0.19872,0.0980606,0.0973105,2.6846
0.299804,0.20579,0.88536,0.172637,0.102766,0.142258,2.6846
0.155036,0.419301,0.880088,0.163964,0.104095,0.173389,2.6846
0.0802645,0.557461,0.906128,0.170787,0.108573,0.209912,2.6846
0.0227329,0.555771,0.979048,0.177364,0.109186,0.277404,2.6846
-0.040061,0.431489,1.06758,0.17857,0.106111,0.342527,2.6846
-0.0999404,0.320487,1.13374,0.161197,0.0996663,0.381572,2.6846
-0.155374,0.268041,1.19209,0.146118,0.105342,0.413925,2.6846
-0.198013,0.283931,1.26539,0.13999,0.115785,0.43613,2.6846
-0.227355,0.251921,1.34502,0.137525,0.12907,0.451073,2.6846
-0.264687,0.193437,1.44648,0.123695,0.142959,0.461431,2.6846
-0.30928,0.059393,1.53548,0.118419,0.134943,0.440278,2.6846
-0.312497,-0.0767085,1.57515,0.115782,0.11668,0.399096,2.6846
-0.283935,-0.258571,1.57083,0.110677,0.0995722,0.332047,2.6846
-0.195763,-0.413966,1.54674,0.114785,0.0828663,0.216942,2.6846
-0.11797,-0.455124,1.48831,0.0986676,0.0677452,0.0900117,2.6846
-0.0760123,-0.343628,1.39488,0.102537,0.0393763,-0.031252,2.6846
-0.0746008,-0.0809616,1.29014,0.102332,0.0249421,-0.11487,2.6846
-0.0560049,0.190846,1.18806,0.0991463,0.00783482,-0.180425,2.6846
0.0224168,0.266568,1.1207,0.11363,-0.0242428,-0.235262,2.6846
0.165943,0.21512,1.09021,0.123745,-0.0357019,-0.267329,2.6846
0.283746,0.183994,1.02369,0.105065,-0.0457847,-0.262729,2.6846
0.228613,0.335042,0.858278,0.0659008,-0.0731624,-0.23532,2.6846
0.00579664,0.730988,0.597273,0.00296701,-0.102535,-0.2049,2.6846
-0.317994,1.1467,0.196567,-0.0596697,-0.11949,-0.153475,2.6846
-0.623956,1.43761,-0.182524,-0.0775795,-0.141645,-0.108463,2.6846
-0.663654,1.50657,-0.273668,-0.0111267,-0.13427,-0.110303,2.6846
-0.350471,1.28807,-0.0161555,0.0331299,-0.0550489,-0.13452,2.6846
0.108138,0.891559,0.383724,0.00363384,0.0331018,-0.0986273,2.6846
0.46519,0.427319,0.677175,-0.0643773,0.0854506,-0.0118673,2.6846
0.591591,0.126589,0.777392,-0.113232,0.0975457,0.0720201,2.6846
0.446755,0.0412352,0.736781,-0.168866,0.120884,0.13193,2.6846
0.192263,-0.0514181,0.662313,-0.212633,0.153998,0.149611,2.6846
0.0250199,-0.241776,0.573037,-0.232483,0.172847,0.108373,2.6846
0.00584114,-0.346468,0.457441,-0.253965,0.180745,0.0297507,2.6846
0.0470253,-0.231842,0.339837,-0.234461,0.175866,0.00460565,2.6846
0.0314226,-0.0168749,0.260319,-0.188723,0.171592,0.0595729,2.6846
-0.0899267,0.0729772,0.212492,-0.152364,0.162624,0.162692,2.6846
-0.1952,-0.0565142,0.157436,-0.131426,0.135462,0.230201,2.6846
-0.283971,-0.347448,0.103003,-0.0924369,0.111143,0.258962,2.6846
-0.402781,-0.555912,0.0709467,-0.0580609,0.0854931,0.229221,2.6846
-0.491012,-0.49721,0.00153039,-0.0564944,0.0488992,0.152416,2.6846
-0.547673,-0.348774,-0.0612155,-0.0215722,0.00154561,0.0930182,2.6846
-0.558407,-0.256488,-0.0623289,0.0396136,-0.0355859,0.0568855,2.6846
-0.583842,-0.221756,-0.0164338,0.0756539,-0.0614927,0.0478121,2.6846
-0.59419,-0.226837,0.0585427,0.0848427,-0.094109,0.0236793,2.6846
-0.526629,-0.245732,0.117437,0.0972186,-0.14558,-0.0286097,2.6846
-0.359112,-0.100269,0.183718,0.107608,-0.182206,-0.100129,2.6846
-0.22513,0.129417,0.274276,0.128006,-0.202306,-0.119108,2.6846
-0.199884,0.274086,0.393092,0.145466,-0.220159,-0.081659,2.6846
-0.210793,0.351777,0.503837,0.14707,-0.23725,-0.0632285,2.6846
-0.291732,0.384773,0.533925,0.105949,-0.235357,-0.0766656,2.6846
-0.322264,0.364728,0.520305,0.0711811,-0.231954,-0.154061,2.6846
-0.322264,0.364728,0.520305,0.0711811,-0.231954,-0.154061,2.84578
-0.26675,0.342426,0.512464,0.103768,-0.235122,-0.252368,2.84578
-0.265212,0.376852,0.474843,0.140949,-0.220012,-0.330044,2.84578
-0.28731,0.434787,0.484243,0.174445,-0.185216,-0.383126,2.84578
-0.285583,0.336894,0.531238,0.232557,-0.18523,-0.407685,2.84578
-0.227012,0.100156,0.578791,0.244544,-0.159532,-0.418261,2.84578
-0.0652773,-0.00181123,0.682289,0.232143,-0.084567,-0.45271,2.84578
0.235875,0.158938,0.856513,0.233269,0.00225163,-0.471508,2.84578
0.590574,0.531397,1.09109,0.249859,0.0772807,-0.398906,2.84578
0.740196,0.782956,1.32401,0.266057,0.112006,-0.252401,2.84578
0.659257,0.612598,1.50847,0.230537,0.118038,-0.0921949,2.84578
0.57402,0.196923,1.56032,0.172303,0.0943546,-0.0460353,2.84578
0.676569,-0.0767339,1.51694,0.112367,0.109804,-0.0959961,2.84578
0.866992,-0.183431,1.43438,0.0915458,0.157475,-0.103755,2.84578
0.948069,-0.0283808,1.37349,0.120461,0.186285,-0.0578898,2.84578
0.872424,0.171122,1.35949,0.130804,0.226966,0.0456119,2.84578
0.767206,0.355005,1.37702,0.11991,0.259066,0.136037,2.84578
0.711176,0.491484,1.38398,0.100665,0.266523,0.208756,2.84578
0.687472,0.57575,1.36567,0.0719697,0.269103,0.287476,2.84578
0.619433,0.482826,1.31637,0.0431207,0.27314,0.383504,2.84578
0.467824,0.312026,1.24385,0.0362027,0.268316,0.457028,2.84578
0.230067,0.164663,1.1402,0.0316531,0.262698,0.492013,2.84578
-0.00345608,0.151352,1.01696,0.0214657,0.26552,0.475988,2.84578
-0.178011,0.160536,0.92732,0.020186,0.265389,0.444913,2.84578
-0.240891,0.0995927,0.888362,0.0279099,0.265966,0.402291,2.84578
-0.23629,-0.00475666,0.826135,0.0337209,0.233567,0.348104,2.84578
-0.268381,-0.112395,0.712692,0.047739,0.184677,0.306464,2.84578
-0.384702,-0.168968,0.602905,0.0650156,0.147528,0.255386,2.84578
-0.481524,-0.0695069,0.57732,0.0806925,0.12589,0.155022,2.84578
-0.465417,0.183614,0.654992,0.106152,0.0914791,0.0268229,2.84578
-0.287095,0.515227,0.788636,0.121327,0.0453936,-0.0978858,2.84578
-0.199991,0.698479,0.81459,0.0774133,-0.0280837,-0.141925,2.84578
-0.191289,0.626214,0.743382,0.0375822,-0.139642,-0.187108,2.84578
-0.247309,0.354711,0.625194,0.0734998,-0.220409,-0.248632,2.84578
-0.477753,0.149951,0.585712,0.100918,-0.26189,-0.344551,2.84578
-0.72825,0.0605027,0.56813,0.0847416,-0.29908,-0.515862,2.84578
-0.784762,-0.0936688,0.463383,0.0191417,-0.340562,-0.70703,2.84578
-0.768296,-0.501398,0.343932,-0.0015255,-0.368346,-0.856799,2.84578
-0.678236,-0.637497,0.315888,-0.0176171,-0.333134,-0.996161,2.84578
-0.521057,-0.202758,0.240187,-0.0751509,-0.270023,-1.04896,2.84578
-0.391897,0.349033,0.155661,-0.0972143,-0.207014,-0.918285,2.84578
-0.337581,0.585298,0.0901034,-0.0833334,-0.150928,-0.643091,2.84578
-0.207472,0.452729,0.0335898,-0.0884957,-0.0955815,-0.391792,2.84578
0.079579,0.133907,-0.00768265,-0.108495,-0.0224329,-0.205065,2.84578
0.511306,-0.0697519,-0.0170713,-0.11509,0.0638904,-0.097375,2.84578
0.988395,-0.022482,0.00193675,-0.139994,0.164861,0.0115324,2.84578
1.25213,-0.0686478,-0.00322355,-0.155334,0.257884,0.182013,2.84578
1.25022,-0.159657,-0.0853015,-0.141678,0.291677,0.320795,2.84578
1.03971,-0.311014,-0.246571,-0.114355,0.2965,0.390057,2.84578
0.782668,-0.488416,-0.42101,-0.0884811,0.308724,0.363693,2.84578
0.487092,-0.783347,-0.506482,-0.0438646,0.317314,0.310971,2.84578
0.259626,-1.1105,-0.589634,-0.0190231,0.312759,0.203452,2.84578
0.20973,-1.30845,-0.641271,0.0314925,0.306709,0.0683592,2.84578
0.218436,-1.12228,-0.66047,0.0659357,0.297357,-0.0501404,2.84578
0.147802,-0.509662,-0.665783,0.0790308,0.285733,-0.109744,2.84578
0.147802,-0.509662,-0.665783,0.0790308,0.285733,-0.109744,2.99904
-0.0130942,0.158441,-0.584861,0.0843894,0.271794,-0.0732522,2.99904
-0.0584267,0.472283,-0.397839,0.0856185,0.246568,0.0195569,2.99904
0.0307812,0.461403,-0.273338,0.037917,0.201446,0.12523,2.99904
0.114742,0.279107,-0.285404,-0.0480735,0.147711,0.247457,2.99904
0.0992804,-0.0288472,-0.380542,-0.0837588,0.110694,0.361425,2.99904
-0.0190348,-0.199422,-0.503671,-0.0791999,0.0865909,0.424009,2.99904
-0.184372,-0.188756,-0.602832,-0.0713274,0.0835697,0.41725,2.99904
-0.26228,-0.0940694,-0.657749,-0.0625759,0.089196,0.37223,2.99904
-0.193395,-0.0311208,-0.629621,-0.02922,0.0945519,0.333315,2.99904
-0.0022885,-0.0213634,-0.538847,0.0122396,0.104914,0.312541,2.99904
0.138035,-0.0316595,-0.387472,0.0377299,0.122473,0.342796,2.99904
0.0946524,-0.190004,-0.255225,0.0549233,0.120456,0.386247,2.99904
-0.0952624,-0.14395,-0.216486,0.0411825,0.086549,0.359116,2.99904
-0.272284,0.0353882,-0.190797,0.0387243,0.0606373,0.275685,2.99904
-0.257098,0.247981,-0.137185,0.0345759,0.0487,0.182747,2.99904
-0.205933,0.305688,-0.107627,0.0313557,0.0216092,0.161338,2.99904
-0.266337,0.212023,-0.121482,0.032626,-0.0259549,0.184407,2.99904
-0.434474,0.0306778,-0.182784,0.0252073,-0.0582851,0.196305,2.99904
-0.562381,-0.179288,-0.227398,0.0365599,-0.0842395,0.162168,2.99904
-0.558098,-0.27117,-0.213099,0.0507582,-0.0794676,0.0872656,2.99904
-0.522558,-0.217045,-0.193759,0.0555898,-0.069974,0.0390714,2.99904
-0.502259,-0.0409501,-0.186511,0.0617754,-0.0899838,0.000428796,2.99904
-0.402748,0.193861,-0.141496,0.0710237,-0.0907602,-0.0227856,2.99904
-0.247312,0.303703,-0.00120172,0.0860934,-0.0719055,0.00930142,2.99904
-0.104423,0.246377,0.149938,0.0985972,-0.0769196,0.0631462,2.99904
-0.0481253,0.204443,0.265236,0.100719,-0.0979893,0.0993467,2.99904
-0.108772,0.168507,0.321092,0.0991167,-0.135522,0.102042,2.99904
-0.277226,0.116375,0.359505,0.135818,-0.178049,0.0326247,2.99904
-0.448294,0.0810648,0.3882,0.142176,-0.212017,-0.111636,2.99904
-0.40577,0.15993,0.437655,0.125401,-0.229563,-0.313482,2.99904
-0.403298,0.0700292,0.494853,0.128921,-0.247953,-0.444057,2.99904
-0.459785,-0.145307,0.555318,0.137024,-0.275397,-0.539773,2.99904
-0.675502,-0.388771,0.475065,0.0732422,-0.299591,-0.649937,2.99904
-0.847888,-0.293963,0.290748,-0.0284588,-0.306924,-0.813001,2.99904
-0.813074,0.24144,0.0938333,-0.0847254,-0.26433,-0.928714,2.99904
-0.626733,0.912916,0.0186228,-0.0862597,-0.174638,-0.865035,2.99904
-0.518066,1.13368,0.0110994,-0.0520737,-0.100381,-0.5995,2.99904
-0.439961,0.814086,-0.0147452,-0.0436968,-0.0722295,-0.347545,2.99904
-0.145614,0.458365,0.0431081,-0.00573384,-0.0176298,-0.239344,2.99904
0.353766,0.329607,0.293116,0.0403924,0.118426,-0.180844,2.99904
0.723328,0.463174,0.662589,0.0418415,0.230331,-0.0256205,2.99904
0.690529,0.434639,0.920142,0.00652828,0.250399,0.176761,2.99904
0.486188,0.104302,0.974061,-0.0251352,0.165927,0.270558,2.99904
0.417534,-0.272444,0.856382,-0.0489819,0.0738699,0.209856,2.99904
0.452583,-0.506676,0.630642,-0.0806075,0.0488238,0.1083,2.99904
0.43139,-0.519337,0.434816,-0.0444754,0.0501502,0.023985,2.99904
0.377966,-0.273318,0.324613,0.02096,0.0698805,-0.038814,2.99904
0.368702,0.0179157,0.332479,0.111532,0.0853973,-0.0584427,2.99904
0.445083,0.200852,0.469512,0.185198,0.10223,-0.0368041,2.99904
0.541392,0.183763,0.671606,0.229938,0.105046,0.0467254,2.99904
0.530493,0.0529682,0.827811,0.210811,0.0948711,0.142472,2.99904
0.410727,-0.000321841,0.869703,0.161538,0.0628086,0.209961,2.99904
0.256909,0.0817545,0.800324,0.107001,0.0310003,0.244459,2.99904
0.110029,0.20677,0.694628,0.0776085,0.0209485,0.276042,2.99904
0.110029,0.20677,0.694628,0.0776085,0.0209485,0.276042,3.22891
-0.0428051,0.26334,0.642127,0.0767689,0.0272101,0.316892,3.22891
-0.236397,0.181546,0.629538,0.083157,0.0374188,0.360525,3.22891
-0.400584,0.177768,0.601657,0.0856895,0.0207033,0.360109,3.22891
-0.494525,0.152904,0.575004,0.0868646,0.0189877,0.345194,3.22891
-0.41132,0.07682,0.641104,0.104671,0.0318876,0.308329,3.22891
-0.180778,0.0890629,0.780467,0.107674,0.0634005,0.287563,3.22891
0.0587206,0.146047,0.963624,0.104104,0.0892508,0.309206,3.22891
0.215141,0.277346,1.05416,0.0589488,0.0947361,0.366378,3.22891
0.214122,0.386069,1.02271,0.0103457,0.0755097,0.443641,3.22891
0.099804,0.366572,0.923801,-0.0229665,0.0490312,0.509744,3.22891
-0.0489625,0.196062,0.806672,-0.0299041,0.0370955,0.518257,3.22891
-0.151027,-0.0438325,0.740305,0.00375681,0.0117026,0.43135,3.22891
-0.126928,-0.260866,0.789327,0.0521858,0.0037401,0.283955,3.22891
-0.0849512,-0.261476,0.800327,-0.00205129,0.00392383,0.132962,3.22891
-0.116756,-0.0492381,0.666373,-0.0500788,-0.0674198,-0.00235015,3.22891
-0.274759,0.103524,0.405375,-0.060255,-0.157456,-0.0947621,3.22891
-0.42308,0.139734,0.227371,-0.0114574,-0.193264,-0.196013,3.22891
-0.414324,0.262184,0.252233,0.0197621,-0.170062,-0.320783,3.22891
-0.355157,0.444499,0.261798,-0.0252408,-0.162045,-0.386947,3.22891
-0.338889,0.451128,0.142371,-0.044936,-0.247888,-0.390542,3.22891
-0.32619,0.313639,-0.0444563,-0.0280166,-0.307656,-0.397277,3.22891
-0.345492,0.28458,-0.166936,-0.00535244,-0.303192,-0.405796,3.22891
-0.434178,0.374964,-0.239408,0.0066007,-0.285954,-0.381262,3.22891
-0.544142,0.329251,-0.295523,0.032208,-0.295576,-0.333385,3.22891
-0.592269,-0.027258,-0.315339,0.077029,-0.286708,-0.321065,3.22891
-0.6117,-0.625201,-0.293779,0.103455,-0.236465,-0.363092,3.22891
-0.370058,-1.03298,-0.142415,0.133861,-0.162411,-0.511407,3.22891
0.286522,-0.910344,0.0527939,0.127461,-0.0429605,-0.651275,3.22891
0.94989,-0.221253,0.261847,0.114208,0.0776229,-0.612812,3.22891
1.19081,0.434743,0.399165,0.0707218,0.147515,-0.342415,3.22891
1.09228,0.724181,0.452701,0.0206738,0.152023,-0.0292737,3.22891
0.914324,0.661929,0.449079,-0.0188766,0.149616,0.177141,3.22891
0.764332,0.211116,0.393707,-0.0518475,0.117535,0.254458,3.22891
0.726251,-0.480564,0.200062,-0.0610493,0.0569096,0.190497,3.22891
0.744229,-0.80127,-0.058556,-0.0978522,0.098989,0.0690154,3.22891
0.72637,-0.717648,-0.226623,-0.103422,0.210118,-0.019406,3.22891
0.729698,-0.224056,-0.320494,-0.0599101,0.277445,-0.0675575,3.22891
0.678484,0.310448,-0.295697,0.0100905,0.347988,-0.0134009,3.22891
0.586296,0.564743,-0.10959,0.061147,0.398021,0.109797,3.22891
0.568668,0.467286,0.135233,0.0867305,0.402709,0.219545,3.22891
0.669107,0.186047,0.366369,0.0987706,0.382146,0.288156,3.22891
0.741394,-0.0823466,0.525635,0.0785062,0.364524,0.351798,3.22891
0.678398,-0.23996,0.608622,0.0511051,0.335401,0.396472,3.22891
0.491423,-0.235137,0.63111,0.0358641,0.301431,0.405938,3.22891
0.241691,-0.170499,0.600166,0.0139734,0.268956,0.395998,3.22891
0.0264792,-0.121765,0.542873,0.0185502,0.225181,0.353709,3.22891
-0.115278,-0.0503776,0.432671,0.0124814,0.172736,0.275379,3.22891
-0.192546,0.109172,0.308994,0.00795203,0.136244,0.215717,3.22891
-0.322408,0.241882,0.171914,0.00330387,0.101559,0.193837,3.22891
-0.490612,0.284506,0.0496195,0.0304505,0.0590799,0.187378,3.22891
-0.617548,0.331837,-0.008324,0.0762117,0.0281821,0.154471,3.22891
-0.723679,0.383292,0.0188549,0.116242,0.0152746,0.136304,3.22891
-0.822576,0.531934,0.0915443,0.147089,-0.0168006,0.12446,3.22891
-0.822576,0.531934,0.0915443,0.147089,-0.0168006,0.12446,3.54071
-0.858997,0.608942,0.197303,0.1689,-0.0497976,0.115226,3.54071
-0.784959,0.633216,0.333958,0.181319,-0.0839959,0.0971254,3.54071
-0.686019,0.506594,0.491951,0.193232,-0.115446,0.102486,3.54071
-0.644842,0.322514,0.669206,0.22425,-0.14907,0.104036,3.54071
-0.594847,0.147366,0.866284,0.244482,-0.181903,0.0630988,3.54071
-0.413036,0.0320316,1.04101,0.238549,-0.204941,-0.039741,3.54071
-0.256924,0.043749,1.12337,0.213103,-0.232714,-0.110481,3.54071
-0.303079,0.140973,1.1777,0.20699,-0.248751,-0.145369,3.54071
-0.456436,0.334868,1.23082,0.211537,-0.251204,-0.215299,3.54071
-0.574211,0.467894,1.26774,0.210894,-0.246364,-0.31143,3.54071
-0.561189,0.759236,1.21169,0.180337,-0.271424,-0.440416,3.54071
-0.476727,0.953919,1.13866,0.179741,-0.268275,-0.50665,3.54071
-0.389809,0.926509,1.14367,0.200609,-0.221959,-0.486915,3.54071
-0.294106,0.613165,1.30517,0.252727,-0.158329,-0.456313,3.54071
-0.0368497,0.203264,1.5883,0.274645,-0.0650621,-0.468816,3.54071
0.291149,0.100169,1.82655,0.213666,0.0480728,-0.474042,3.54071
0.492156,0.384299,1.89897,0.113288,0.142955,-0.406805,3.54071
0.508318,0.945383,1.83775,0.028765,0.215373,-0.291074,3.54071
0.48597,1.21597,1.82022,0.0413867,0.266097,-0.126793,3.54071
0.527245,0.94581,1.94211,0.101711,0.312093,-0.00508004,3.54071
0.56909,0.551648,2.08536,0.108446,0.339282,0.0710765,3.54071
0.540695,0.18441,2.06598,0.0693236,0.303967,0.0930201,3.54071
0.48326,0.127212,1.81201,0.0156398,0.233341,0.0655344,3.54071
0.362238,0.253971,1.49437,0.000509933,0.210864,0.059557,3.54071
0.230028,0.41932,1.34174,0.0389286,0.247481,0.101579,3.54071
0.143351,0.40638,1.36977,0.0988913,0.28328,0.160254,3.54071
0.242907,0.168244,1.53416,0.159132,0.295367,0.175337,3.54071
0.524147,-0.0210054,1.7424,0.172193,0.311228,0.140002,3.54071
0.664606,-0.0713474,1.84986,0.123419,0.315531,0.174659,3.54071
0.559182,-0.0345363,1.81807,0.0858026,0.266557,0.204955,3.54071
0.325224,0.221363,1.64533,0.0546265,0.20567,0.178558,3.54071
0.0638433,0.59553,1.40602,0.0205169,0.165298,0.133742,3.54071
-0.0261597,0.787375,1.26003,0.022261,0.147735,0.0847823,3.54071
0.0864036,0.819614,1.18358,0.0102906,0.156388,0.0646644,3.54071
0.282429,0.780132,1.10294,-0.00442553,0.156566,0.0485145,3.54071
0.444949,0.899295,0.992647,-0.0156643,0.132912,0.0374936,3.54071
0.30848,0.961474,0.845118,-0.0393294,0.106038,0.136914,3.54071
-0.335927,0.729208,0.728382,-0.0310926,0.0559677,0.442016,3.54071
-0.810579,-0.256774,0.557885,0.0059674,-0.00824586,0.316598,3.54071
-0.519648,-0.0536154,0.329338,-0.103428,-0.00993603,-0.00979531,3.54071
-0.321116,0.205961,0.146506,-0.114905,0.0248812,-0.0201343,3.54071
-0.476868,0.173249,0.147553,-0.0638596,0.0260412,0.115406,3.54071
-0.537315,-0.0350542,0.216586,-0.00877325,0.0264766,0.108509,3.54071
-0.21609,-0.0645595,0.338656,0.0250398,-0.00678039,-0.0185332,3.54071
0.166814,0.1473,0.450762,0.0121402,-0.0158536,-0.0667472,3.54071
0.2148,0.259686,0.514955,0.0164961,-0.0561763,0.0206033,3.54071
0.0608786,0.210241,0.576942,0.0546101,-0.131372,0.0852886,3.54071
-0.0236997,0.00245316,0.621832,0.0422062,-0.19197,0.0284418,3.54071
0.0325002,-0.117731,0.655593,0.0708586,-0.260908,-0.120655,3.54071
0.0850952,-0.160312,0.631916,0.0693891,-0.296162,-0.239738,3.54071
-0.0107142,-0.159851,0.601338,0.0930223,-0.323296,-0.337074,3.54071
-0.165686,-0.121317,0.611287,0.0919044,-0.325926,-0.433724,3.54071
-0.230093,-0.274406,0.590696,0.0543886,-0.276336,-0.504974,3.54071
-0.277685,-0.546446,0.55112,0.0190504,-0.233007,-0.540143,3.54071
-0.277685,-0.546446,0.55112,0.0190504,-0.233007,-0.540143,3.86572
-0.3949,-0.645101,0.438209,-0.0369966,-0.191569,-0.545289,3.86572
-0.533555,-0.478249,0.243843,-0.100622,-0.139375,-0.536069,3.86572
-0.604868,-0.238894,0.0390645,-0.121549,-0.0572123,-0.489281,3.86572
-0.548828,-0.0177776,-0.115194,-0.116374,0.0285887,-0.404245,3.86572
-0.378534,0.0640208,-0.237229,-0.10744,0.0832239,-0.296622,3.86572
-0.0797002,0.0115494,-0.311941,-0.0658209,0.124404,-0.197324,3.86572
0.282436,-0.117403,-0.270467,-0.0149254,0.184939,-0.125977,3.86572
0.594584,-0.0955305,-0.166669,0.004404,0.24208,-0.0563055,3.86572
0.659243,-0.0545738,-0.131978,-0.0222607,0.276121,0.0421711,3.86572
0.410457,-0.197584,-0.207203,-0.0447916,0.255749,0.138938,3.86572
0.0617527,-0.401382,-0.363852,-0.0456153,0.225216,0.152801,3.86572
-0.156774,-0.546569,-0.468487,-0.0476052,0.224772,0.0604442,3.86572
-0.0794785,-0.492997,-0.443774,-0.0545131,0.232559,-0.0583813,3.86572
0.12638,-0.187599,-0.46241,-0.116609,0.226824,-0.111827,3.86572
0.0814638,0.0656111,-0.570574,-0.148455,0.186759,-0.0147658,3.86572
-0.150994,0.174318,-0.680462,-0.116277,0.130372,0.0957277,3.86572
-0.290471,0.147043,-0.69401,-0.0551693,0.115057,0.138224,3.86572
-0.25988,0.0712196,-0.607508,-0.02215,0.128625,0.148817,3.86572
-0.107195,-0.0210431,-0.442159,0.00518441,0.137032,0.152096,3.86572
0.0367022,-0.0353124,-0.276095,0.00628118,0.134935,0.210867,3.86572
0.07593,-0.119811,-0.187199,-0.0101822,0.12368,0.302332,3.86572
0.107285,-0.11197,-0.250111,-0.0701287,0.0798642,0.33943,3.86572
0.118856,-0.0192038,-0.405769,-0.0990352,0.0630693,0.38434,3.86572
0.0259749,0.0368723,-0.463987,-0.067017,0.0906627,0.444622,3.86572
-0.0402776,0.0401684,-0.368597,-0.0228436,0.120601,0.467848,3.86572
0.0632952,-0.0546289,-0.234465,-0.0234094,0.138848,0.438783,3.86572
0.223725,-0.183631,-0.191077,-0.0509608,0.114274,0.41383,3.86572
0.237861,-0.254289,-0.25515,-0.0628623,0.0748246,0.41041,3.86572
0.0487255,-0.257365,-0.358234,-0.0565252,0.0483459,0.392362,3.86572
-0.21841,-0.180744,-0.444817,-0.0302165,0.022568,0.331082,3.86572
-0.423636,-0.0719384,-0.487843,-0.00971235,0.0183839,0.249792,3.86572
-0.502713,0.00504041,-0.508007,-0.00143879,0.00224191,0.173021,3.86572
-0.547297,0.0230552,-0.522715,-7.1764e-05,-0.0130517,0.150085,3.86572
-0.646809,0.0171495,-0.551824,0.00122855,-0.0509359,0.15883,3.86572
-0.734456,0.00169606,-0.608923,0.00193966,-0.0800806,0.168364,3.86572
-0.729145,-0.021939,-0.601251,-0.006576,-0.0824015,0.144036,3.86572
-0.63518,-0.0249054,-0.509324,0.0056326,-0.0715478,0.0957882,3.86572
-0.467133,0.0282566,-0.368401,0.0159077,-0.0917891,0.0395564,3.86572
-0.335114,0.191731,-0.250058,0.0231287,-0.115891,0.0155451,3.86572
-0.450325,0.287058,-0.176276,0.0135933,-0.13374,0.028042,3.86572
-0.793209,0.134858,-0.164036,0.0210353,-0.186999,-0.0266827,3.86572
-1.01477,-0.304454,-0.217329,0.0360575,-0.258034,-0.227914,3.86572
-0.932793,-0.731801,-0.167817,0.0431836,-0.232229,-0.52197,3.86572
-0.737467,-0.511035,-0.0843865,0.0379557,-0.194467,-0.797485,3.86572
-0.729931,0.0348024,-0.0703231,0.0355922,-0.234558,-0.907106,3.86572
-0.812494,0.475673,-0.158742,0.0242219,-0.297253,-0.905597,3.86572
-0.782086,0.515494,-0.2587,0.0246038,-0.315424,-0.851439,3.86572
-0.613503,0.307956,-0.221614,0.0866673,-0.26227,-0.781659,3.86572
-0.283763,0.275032,-0.067991,0.113917,-0.182385,-0.724452,3.86572
0.230995,0.313479,0.200962,0.144748,-0.100976,-0.617764,3.86572
0.863389,0.55135,0.476845,0.145947,-0.0244939,-0.440157,3.86572
1.24364,0.862168,0.576587,0.0890251,0.0306253,-0.166141,3.86572
1.11498,0.772187,0.551539,0.0681614,0.0192333,0.129771,3.86572
0.868576,0.224812,0.550816,0.125416,-0.00597182,0.257941,3.86572
0.868576,0.224812,0.550816,0.125416,-0.00597182,0.257941,4.13788
0.81045,-0.237283,0.552162,0.156372,0.012466,0.163255,4.13788
0.825287,-0.243598,0.551632,0.129285,0.0608142,-0.00143927,4.13788
0.820132,0.103235,0.492981,0.096798,0.0833226,-0.0917128,4.13788
0.772913,0.319787,0.41384,0.0948269,0.107364,-0.09241,4.13788
0.762567,0.205008,0.424389,0.12672,0.117658,-0.0674254,4.13788
0.820348,0.0224723,0.487611,0.15002,0.127466,-0.0781382,4.13788
0.800529,-0.11885,0.571904,0.181801,0.144657,-0.0582672,4.13788
0.712095,-0.0452783,0.69563,0.209049,0.149844,-0.0407252,4.13788
0.649295,0.188365,0.807299,0.185203,0.16974,-0.0143893,4.13788
0.611115,0.395805,0.906111,0.151428,0.179262,0.062442,4.13788
0.576155,0.506473,0.926503,0.112316,0.178938,0.182506,4.13788
0.440733,0.520226,0.911729,0.0744701,0.174464,0.333659,4.13788
0.23695,0.483121,0.911291,0.047936,0.170519,0.462891,4.13788
0.0822338,0.409508,0.892341,0.0158104,0.167013,0.541791,4.13788
-0.0155529,0.318257,0.831204,-0.00625607,0.158461,0.581515,4.13788
-0.0515495,0.1651,0.804167,-0.0098531,0.169278,0.614782,4.13788
-0.0873686,0.114187,0.748805,-0.0113745,0.173195,0.634786,4.13788
-0.194546,0.111104,0.709265,-0.00180498,0.19436,0.656756,4.13788
-0.259662,0.206332,0.777507,0.024275,0.223515,0.654348,4.13788
-0.200707,0.139854,0.871399,0.00818648,0.243914,0.621587,4.13788
-0.0612384,-0.0496851,0.90067,-0.00362468,0.22964,0.568603,4.13788
0.00092922,-0.242745,0.883229,0.0155591,0.212757,0.51874,4.13788
-0.144219,-0.377046,0.883937,0.0619285,0.167258,0.454962,4.13788
-0.355989,-0.297122,0.940637,0.102211,0.128639,0.307802,4.13788
-0.500098,-0.0666141,0.946908,0.0640791,0.0839039,0.119049,4.13788
-0.5755,-0.00777737,0.896403,0.0264405,-0.0178316,-0.0975578,4.13788
-0.53727,0.0778714,0.841758,0.0453526,-0.135812,-0.304369,4.13788
-0.562698,0.170931,0.690854,0.0346887,-0.218371,-0.444979,4.13788
-0.750325,0.273923,0.463991,-0.008059,-0.279531,-0.539972,4.13788
-1.06086,0.232682,0.249345,-0.0504759,-0.324839,-0.605686,4.13788
-1.24453,0.00732339,0.0670649,-0.0534782,-0.367167,-0.704707,4.13788
-1.14904,-0.25914,0.0198449,0.0247823,-0.373167,-0.821274,4.13788
-1.00401,-0.198569,0.109337,0.0432797,-0.328938,-0.865718,4.13788
-0.89307,0.162609,0.221898,-0.0106761,-0.248545,-0.82147,4.13788
-0.798438,0.256334,0.24138,-0.0189824,-0.227564,-0.695878,4.13788
-0.72141,-0.00972806,0.170028,-0.00567825,-0.229136,-0.556426,4.13788
-0.590318,-0.307283,0.0940046,-0.0114961,-0.193724,-0.47266,4.13788
-0.265451,-0.344944,0.0146011,-0.0237834,-0.126087,-0.466554,4.13788
0.192972,-0.161752,-0.0583042,-0.0263923,-0.0393853,-0.417165,4.13788
0.661775,0.0993137,0.00517373,-0.00313108,0.0777383,-0.285939,4.13788
1.0466,0.306557,0.165741,-0.0126538,0.178964,-0.0995905,4.13788
1.20924,0.26786,0.233639,-0.048304,0.243908,0.0764852,4.13788
1.1898,0.039555,0.182452,-0.0512067,0.226128,0.164213,4.13788
1.0157,-0.418168,0.0658848,-0.0140956,0.17632,0.191688,4.13788
0.761354,-0.952139,-0.0700397,0.0199464,0.142513,0.15315,4.13788
0.578136,-1.22146,-0.216433,0.00771622,0.134613,0.0674319,4.13788
0.443745,-1.12432,-0.458482,-0.0600572,0.139802,-0.00653517,4.13788
0.442445,-0.57055,-0.763586,-0.0976797,0.129277,-0.0394179,4.13788
0.565854,-0.0584761,-0.932079,-0.0735521,0.160587,-0.0614436,4.13788
0.575663,0.269467,-0.820401,0.000473633,0.195584,-0.00705546,4.13788
0.413708,0.405256,-0.570721,0.0559529,0.230082,0.124312,4.13788
0.278526,0.328755,-0.346917,0.0778743,0.215209,0.222228,4.13788
0.333557,0.142494,-0.151216,0.0763613,0.184749,0.293863,4.13788
0.437703,-0.191958,-0.0176193,0.0617973,0.17108,0.35285,4.13788
0.437703,-0.191958,-0.0176193,0.0617973,0.17108,0.35285,4.42853
0.510479,-0.420939,0.0169317,0.0499636,0.16873,0.372785,4.42853
0.580272,-0.361273,0.0135176,0.0242755,0.189195,0.387849,4.42853
0.625325,-0.209676,-0.000488677,0.00188809,0.206941,0.410351,4.42853
0.681262,-0.113631,-0.0482475,0.00126854,0.206373,0.418569,4.42853
0.692281,0.039449,-0.13379,-0.00164054,0.211163,0.43223,4.42853
0.589493,0.261582,-0.184271,0.0105683,0.224025,0.455066,4.42853
0.407985,0.371013,-0.133713,0.0539154,0.234715,0.478696,4.42853
0.236973,0.315816,-0.014522,0.0741246,0.219622,0.473259,4.42853
0.0155229,0.192524,0.0764802,0.0764794,0.177029,0.425595,4.42853
-0.25591,0.138507,0.109567,0.0575598,0.101115,0.328724,4.42853
-0.409777,0.0921961,0.0865181,0.0569623,0.0341264,0.196016,4.42853
-0.471687,0.212703,0.0860067,0.05637,0.0108086,0.0941861,4.42853
-0.465229,0.453582,0.195514,0.058169,0.0272276,0.0505006,4.42853
-0.483746,0.419233,0.336105,0.0734797,0.0196557,0.0752926,4.42853
-0.477881,0.132292,0.409334,0.0954476,-0.0257819,0.0757118,4.42853
-0.410258,-0.019401,0.472285,0.111027,-0.0579453,0.0265391,4.42853
-0.349191,0.075254,0.616784,0.0938347,-0.0449652,-0.0152031,4.42853
-0.20428,0.29853,0.790454,0.0862222,-0.0490581,-0.0424151,4.42853
-0.0335944,0.506449,0.90174,0.0618586,-0.063517,-0.0119823,4.42853
0.0265711,0.631867,1.00014,0.053669,-0.0812284,0.0732692,4.42853
-0.0475962,0.550107,1.04952,0.0380775,-0.112545,0.144906,4.42853
-0.135134,0.308551,0.998004,0.017822,-0.16822,0.116276,4.42853
-0.221789,0.113621,0.833429,0.00103861,-0.227647,0.0412536,4.42853
-0.294924,0.140873,0.688614,-0.00656014,-0.231344,-0.0687582,4.42853
-0.317674,0.34128,0.686254,0.0454745,-0.193587,-0.167838,4.42853
-0.216186,0.713696,0.751696,0.0889661,-0.170573,-0.234276,4.42853
-0.117377,0.985035,0.812709,0.107254,-0.145719,-0.20456,4.42853
-0.187402,0.931292,0.900034,0.124976,-0.119774,-0.114087,4.42853
-0.334056,0.591555,0.910911,0.157249,-0.134234,-0.0748664,4.42853
-0.403637,0.322942,0.847865,0.141066,-0.123736,-0.126922,4.42853
-0.347871,0.354959,0.780976,0.0805164,-0.0709642,-0.21858,4.42853
-0.151462,0.41205,0.852783,0.101487,0.00329059,-0.247395,4.42853
0.144684,0.521523,1.02153,0.127217,0.0652772,-0.190734,4.42853
0.303487,0.599122,1.1768,0.11189,0.10147,-0.0559683,4.42853
0.267332,0.692418,1.27045,0.0792009,0.10367,0.080085,4.42853
0.0512355,0.670276,1.25989,0.0589939,0.085698,0.176835,4.42853
-0.111075,0.499325,1.25478,0.0724946,0.0612224,0.162461,4.42853
-0.0815787,0.319744,1.26297,0.092568,0.0709247,0.0645376,4.42853
0.0441986,0.248335,1.31704,0.115828,0.0966425,-0.0358611,4.42853
0.141108,0.341292,1.38955,0.113274,0.118904,-0.0864325,4.42853
0.136722,0.379287,1.39946,0.0720997,0.117858,-0.0832605,4.42853
0.0767689,0.351786,1.27977,0.0286669,0.0838472,-0.0588955,4.42853
0.017347,0.342409,1.10861,0.0107376,0.0638831,-0.0492457,4.42853
-0.0220069,0.332131,1.00599,0.0105054,0.0754963,-0.0373585,4.42853
0.0107592,0.369067,0.980468,0.0215715,0.0922567,-0.033054,4.42853
0.0780981,0.511017,0.954166,0.000357807,0.096916,0.00214624,4.42853
0.118447,0.586312,0.898669,-0.0137604,0.0857923,0.0856442,4.42853
0.0891854,0.539642,0.838592,-0.0206226,0.0687228,0.180813,4.42853
0.0185507,0.388894,0.746346,-0.0435114,0.0490793,0.251785,4.42853
-0.0584246,0.191923,0.616822,-0.0364858,0.0257396,0.271117,4.42853
-0.133457,0.105839,0.509237,-0.0226781,0.0130694,0.248131,4.42853
-0.236415,0.0587403,0.473115,-0.0180383,0.0179015,0.214389,4.42853
-0.266822,-0.0211489,0.45769,0.000258937,-0.00077796,0.161788,4.42853
-0.179455,-0.183354,0.431063,0.00709915,-0.0342634,0.0816376,4.42853
-0.179455,-0.183354,0.431063,0.00709915,-0.0342634,0.0816376,4.76146
-0.047741,-0.220608,0.34801,-0.0205207,-0.0613781,0.0110123,4.76146
-0.0175997,-0.141782,0.214718,-0.0558934,-0.0909722,-0.0191059,4.76146
-0.162892,-0.0706851,0.1032,-0.0489414,-0.112722,-0.0141139,4.76146
-0.351732,0.0305706,0.0291125,-0.0378866,-0.121454,-0.0323896,4.76146
-0.469346,0.086771,-0.0476656,-0.0664849,-0.123277,-0.102968,4.76146
-0.423379,0.0630441,-0.135975,-0.0632819,-0.137849,-0.177605,4.76146
-0.135647,-0.171218,-0.288423,-0.0803252,-0.133876,-0.200076,4.76146
-0.100863,-0.282542,-0.324684,-0.0560227,-0.168481,-0.197244,4.76146
-0.203752,-0.251988,-0.365702,-0.108963,-0.150545,-0.181305,4.76146
-0.259718,-0.203225,-0.550329,-0.166043,-0.147245,-0.182673,4.76146
-0.279198,-0.234072,-0.770737,-0.185852,-0.153175,-0.192082,4.76146
