rotationRate_x,rotationRate_y,rotationRate_z,acceleration_x,acceleration_y,acceleration_z,relativeAltitude,altitude_pressure
-0.47341,0.0244336,0.021562,0.071296,0.00393011,-0.14718,0.001,0.0001
-0.425955,0.187992,-0.00504596,0.0562403,-0.0058834,-0.214505,0.001,0.0001
-0.377178,0.313477,0.0141887,0.0646906,-0.0159222,-0.238232,0.001,0.0001
-0.292848,0.424499,0.0609617,0.0553778,-0.0138692,-0.251986,0.001,0.0001
-0.249514,0.438643,0.101085,0.0420227,-0.0260422,-0.226866,0.001,0.0001
-0.265569,0.371984,0.111868,0.0214305,-0.0533408,-0.203404,0.001,0.0001
-0.30476,0.240596,0.0810611,-0.00137268,-0.0703001,-0.207688,0.001,0.0001
-0.373322,-0.00604693,0.0714641,0.00482386,-0.0788302,-0.22045,0.001,0.0001
-0.406647,-0.175287,0.101932,0.0114319,-0.0662032,-0.263802,0.001,0.0001
-0.418308,-0.304448,0.0708557,-0.0109634,-0.0702351,-0.31766,0.001,0.0001
-0.42188,-0.384229,-0.0275661,-0.0363631,-0.0774233,-0.370028,0.001,0.0001
-0.38705,-0.373696,-0.104041,-0.0425795,-0.0556871,-0.42238,0.001,0.0001
-0.229755,-0.324505,-0.0926649,-0.021839,-0.0156379,-0.462097,0.001,0.0001
0.0417806,-0.122189,-0.056615,-0.0286513,0.0244312,-0.468761,0.001,0.0001
0.358275,0.152947,-0.0158018,-0.0565144,0.0487465,-0.407392,0.001,0.0001
0.580721,0.284232,-0.0442082,-0.0899913,0.0584246,-0.24775,0.001,0.0001
0.727638,0.246463,-0.0809121,-0.103668,0.0668205,-0.0904891,0.001,0.0001
0.793356,0.0717311,-0.152821,-0.127553,0.0954283,0.0257289,0.001,0.0001
0.772373,-0.0834524,-0.252303,-0.148647,0.105463,0.0932071,0.001,0.0001
0.694925,-0.197602,-0.373103,-0.174264,0.1328,0.128518,0.001,0.0001
0.534334,-0.246386,-0.488156,-0.190771,0.156786,0.157122,0.001,0.0001
0.390056,-0.218918,-0.635884,-0.207649,0.163117,0.168321,0.001,0.0001
0.309289,-0.123078,-0.781975,-0.200962,0.169164,0.172971,0.001,0.0001
0.20869,0.0467644,-0.884034,-0.167231,0.173346,0.216255,0.001,0.0001
0.0911329,0.152452,-0.901656,-0.12491,0.176724,0.287384,0.001,0.0001
0.0307933,0.134726,-0.890224,-0.0855016,0.158996,0.336961,0.001,0.0001
0.0298144,0.0536933,-0.906852,-0.0766165,0.132752,0.357155,0.001,0.0001
0.00583373,-0.0930828,-0.904377,-0.0654716,0.119484,0.388115,0.001,0.0001
-0.0109497,-0.213847,-0.854955,-0.0320928,0.112158,0.380136,0.001,0.0001
-0.10529,-0.325197,-0.795419,-0.0133519,0.0991815,0.394543,0.001,0.0001
-0.190588,-0.362206,-0.777668,-0.0067735,0.0683625,0.364626,0.001,0.0001
-0.255974,-0.354125,-0.778989,-0.0101372,0.0528003,0.314405,0.001,0.0001
-0.338502,-0.409511,-0.789084,0.00464582,0.0320981,0.283255,0.001,0.0001
-0.437636,-0.440441,-0.784402,0.0253607,0.00785001,0.238151,0.001,0.0001
-0.550326,-0.481478,-0.799551,0.032928,-0.0147534,0.178491,0.001,0.0001
-0.593153,-0.443037,-0.806383,0.0531126,-0.0466922,0.0725699,0.001,0.0001
-0.618591,-0.401057,-0.77517,0.0764919,-0.0537296,-0.0177128,0.001,0.0001
-0.623738,-0.274717,-0.67479,0.0993445,-0.0662687,-0.107696,0.001,0.0001
-0.584104,-0.162211,-0.611907,0.0980238,-0.0936808,-0.168576,0.001,0.0001
-0.487679,-0.0272923,-0.59032,0.0968475,-0.13581,-0.244306,0.001,0.0001
-0.42628,-0.0209149,-0.542417,0.110809,-0.1496,-0.271866,0.001,0.0001
-0.412789,-0.0806498,-0.450947,0.142901,-0.158844,-0.294311,0.001,0.0001
-0.357333,-0.0935908,-0.332163,0.15296,-0.160327,-0.379523,0.001,0.0001
-0.252944,0.0332251,-0.203464,0.142348,-0.147702,-0.477438,0.001,0.0001
-0.0892283,0.196138,-0.0828035,0.129347,-0.138646,-0.531615,0.001,0.0001
0.0937969,0.348907,0.0245112,0.103674,-0.137111,-0.541158,0.001,0.0001
0.189628,0.330653,0.113492,0.0967233,-0.130698,-0.466373,0.001,0.0001
0.20615,0.270834,0.179493,0.0808275,-0.118719,-0.399868,0.001,0.0001
0.277577,0.249285,0.2669,0.0707251,-0.0825558,-0.373969,0.001,0.0001
0.518239,0.28507,0.42425,0.0884188,-0.0265695,-0.351596,0.001,0.0001
0.732679,0.46122,0.551295,0.0818986,0.0154473,-0.255035,0.001,0.0001
0.732679,0.46122,0.551295,0.0818986,0.0154473,-0.255035,0.0660553,-0.000785828
0.734078,0.632206,0.654212,0.0638272,0.0245443,-0.080543,0.0660553,-0.000785828
0.658224,0.617485,0.748958,0.0637478,0.020394,0.0855998,0.0660553,-0.000785828
0.61596,0.375781,0.807029,0.0620936,0.0264355,0.188306,0.0660553,-0.000785828
0.597518,0.0480561,0.854996,0.0718279,0.0340045,0.234843,0.0660553,-0.000785828
0.530638,-0.180971,0.873751,0.0657409,0.0500966,0.242108,0.0660553,-0.000785828
0.450716,-0.179967,0.87064,0.0555352,0.0706836,0.205501,0.0660553,-0.000785828
0.410195,-0.0128416,0.822107,0.039395,0.0889064,0.16025,0.0660553,-0.000785828
0.407695,0.140418,0.80369,0.0433991,0.107791,0.161462,0.0660553,-0.000785828
0.406416,0.253919,0.824208,0.0762232,0.12335,0.201805,0.0660553,-0.000785828
0.379458,0.270819,0.888284,0.086018,0.146986,0.259836,0.0660553,-0.000785828
0.414571,0.190951,0.93996,0.0914439,0.142655,0.290785,0.0660553,-0.000785828
0.490621,0.126811,0.963486,0.0877031,0.137853,0.304469,0.0660553,-0.000785828
0.474346,0.165974,0.960733,0.0881126,0.137822,0.333018,0.0660553,-0.000785828
0.348153,0.247343,0.939305,0.099762,0.116965,0.356738,0.0660553,-0.000785828
0.193472,0.312846,0.935681,0.133856,0.101653,0.362969,0.0660553,-0.000785828
0.0544491,0.338327,0.946178,0.170152,0.0841605,0.347343,0.0660553,-0.000785828
-0.0574768,0.267877,0.979164,0.198254,0.0556536,0.300497,0.0660553,-0.000785828
-0.10864,0.140924,1.0563,0.225223,0.0374741,0.225108,0.0660553,-0.000785828
-0.0983848,0.0414423,1.12978,0.225588,0.0195477,0.14112,0.0660553,-0.000785828
-0.118956,0.0779687,1.12982,0.207619,-0.0129475,0.0482363,0.0660553,-0.000785828
-0.24619,0.164196,1.08762,0.181189,-0.0407647,-0.0242542,0.0660553,-0.000785828
-0.368935,0.267953,1.03608,0.170483,-0.059249,-0.118662,0.0660553,-0.000785828
-0.370482,0.402989,1.05244,0.16899,-0.0436238,-0.238237,0.0660553,-0.000785828
-0.23194,0.596416,1.16994,0.179024,-0.00841507,-0.33676,0.0660553,-0.000785828
-0.0796912,0.739844,1.29864,0.152581,0.022047,-0.347515,0.0660553,-0.000785828
-0.0297021,0.754713,1.38812,0.113826,0.021069,-0.270362,0.0660553,-0.000785828
-0.0554372,0.68722,1.39714,0.0674549,0.0072127,-0.203831,0.0660553,-0.000785828
-0.137334,0.649443,1.42397,0.050666,0.0198178,-0.178911,0.0660553,-0.000785828
-0.285903,0.681698,1.51559,0.0518398,0.0589716,-0.158566,0.0660553,-0.000785828
-0.382383,0.725702,1.64379,0.0360146,0.0865585,-0.164419,0.0660553,-0.000785828
-0.380956,0.651352,1.70023,0.0163301,0.081045,-0.169794,0.0660553,-0.000785828
-0.495772,0.342685,1.71129,0.00418122,0.0867076,-0.11177,0.0660553,-0.000785828
-0.687065,-0.0697194,1.60888,-0.0119627,0.0786847,-0.0932846,0.0660553,-0.000785828
-0.983819,-0.481014,1.46905,-0.0239815,0.0527368,-0.119144,0.0660553,-0.000785828
-1.08863,-0.565042,1.45999,0.00150298,0.0918982,-0.268649,0.0660553,-0.000785828
-0.762011,-0.340433,1.63366,0.0325308,0.180887,-0.44582,0.0660553,-0.000785828
-0.156063,0.0644098,1.82964,0.0425,0.225116,-0.475724,0.0660553,-0.000785828
0.19884,0.248951,1.86908,-0.00188054,0.204516,-0.294635,0.0660553,-0.000785828
0.244019,0.233156,1.84723,-0.0335718,0.146166,-0.071339,0.0660553,-0.000785828
0.14746,0.0572832,1.74857,-0.0855206,0.126832,0.0791272,0.0660553,-0.000785828
0.070868,-0.0844803,1.59462,-0.12207,0.0970265,0.115836,0.0660553,-0.000785828
0.0654429,-0.0461665,1.37886,-0.158292,0.0791218,0.0931491,0.0660553,-0.000785828
0.083406,0.117873,1.14146,-0.175238,0.0778936,0.0969373,0.0660553,-0.000785828
0.0518114,0.331681,0.926199,-0.168815,0.0727049,0.141178,0.0660553,-0.000785828
-0.0281006,0.469865,0.778315,-0.140302,0.0762091,0.220253,0.0660553,-0.000785828
-0.0768906,0.495324,0.70347,-0.108744,0.0760393,0.27761,0.0660553,-0.000785828
-0.11434,0.330076,0.664126,-0.085905,0.0719259,0.310905,0.0660553,-0.000785828
-0.0873795,0.204353,0.647137,-0.0704518,0.0517229,0.296897,0.0660553,-0.000785828
-0.0214837,0.163334,0.62148,-0.0830845,0.0544822,0.256903,0.0660553,-0.000785828
0.0604906,0.195591,0.619175,-0.0719594,0.0511566,0.222621,0.0660553,-0.000785828
0.0726096,0.191999,0.628424,-0.0639507,0.0529831,0.221722,0.0660553,-0.000785828
0.0726096,0.191999,0.628424,-0.0639507,0.0529831,0.221722,0.0660553,-0.000778198
0.0393736,0.121472,0.6546,-0.0458671,0.0487936,0.224871,0.0660553,-0.000778198
-0.00834696,0.00288014,0.668792,-0.0464408,0.0440761,0.202096,0.0660553,-0.000778198
-0.00977157,-0.0529306,0.657317,-0.0651475,0.0388131,0.133617,0.0660553,-0.000778198
0.0440027,-0.0615799,0.629146,-0.0800684,0.0382016,0.0544745,0.0660553,-0.000778198
0.0911924,0.00927633,0.589464,-0.088545,0.0416154,0.00263077,0.0660553,-0.000778198
0.0826317,0.0943552,0.563079,-0.0934425,0.0481422,-0.0150913,0.0660553,-0.000778198
0.0331437,0.104331,0.525846,-0.0925244,0.0421607,-0.0137198,0.0660553,-0.000778198
-0.000148683,0.0317192,0.497103,-0.0899465,0.0364085,-0.026507,0.0660553,-0.000778198
0.0292507,0.0188419,0.451202,-0.100978,0.0309461,-0.0907011,0.0660553,-0.000778198
0.0499781,0.0422971,0.419251,-0.107247,0.0411005,-0.13006,0.0660553,-0.000778198
0.0301307,0.0825076,0.40387,-0.107957,0.0466705,-0.152374,0.0660553,-0.000778198
-0.0175216,0.0494539,0.3763,-0.106614,0.0395854,-0.158673,0.0660553,-0.000778198
-0.0614456,-0.00797515,0.344762,-0.107058,0.0312961,-0.188639,0.0660553,-0.000778198
-0.0830676,-0.0658706,0.324405,-0.0971951,0.0310812,-0.232132,0.0660553,-0.000778198
0.0128461,0.0192801,0.312891,-0.098227,0.028404,-0.32459,0.0660553,-0.000778198
0.12659,0.143475,0.334765,-0.101716,0.050073,-0.354333,0.0660553,-0.000778198
0.158147,0.180661,0.377486,-0.0864501,0.0434865,-0.302815,0.0660553,-0.000778198
0.0900816,0.0913964,0.381764,-0.091374,0.03111,-0.221471,0.0660553,-0.000778198
-0.0200001,-0.0554109,0.344496,-0.0905848,0.00247991,-0.16555,0.0660553,-0.000778198
-0.11836,-0.126646,0.287102,-0.0817426,-0.00857955,-0.147824,0.0660553,-0.000778198
-0.205648,-0.0647202,0.23034,-0.063531,-0.00551118,-0.143668,0.0660553,-0.000778198
-0.263227,0.039062,0.194291,-0.048429,-0.00149657,-0.111373,0.0660553,-0.000778198
-0.219043,0.0925011,0.21543,-0.00753842,0.00696984,-0.0495886,0.0660553,-0.000778198
-0.0102157,0.087008,0.307308,0.036453,0.0223296,0.00152391,0.0660553,-0.000778198
0.210018,0.0567448,0.396622,0.053206,0.0347914,0.087525,0.0660553,-0.000778198
0.264094,-0.035055,0.45296,0.0614781,0.0128442,0.212864,0.0660553,-0.000778198
0.142943,-0.166312,0.427405,0.0626946,-0.0286462,0.323927,0.0660553,-0.000778198
-0.0840239,-0.209197,0.323377,0.0611903,-0.0705483,0.355926,0.0660553,-0.000778198
-0.295782,-0.21766,0.229766,0.0781923,-0.0863496,0.318558,0.0660553,-0.000778198
-0.3929,-0.236616,0.117541,0.0969013,-0.0931195,0.231674,0.0660553,-0.000778198
-0.419974,-0.274236,0.0230883,0.124141,-0.0844284,0.163087,0.0660553,-0.000778198
-0.462703,-0.35385,-0.0404948,0.153723,-0.0833999,0.116373,0.0660553,-0.000778198
-0.415796,-0.303069,-0.0400725,0.174086,-0.0556116,0.0375733,0.0660553,-0.000778198
-0.302279,-0.114633,-0.0305817,0.180477,-0.038371,-0.0215984,0.0660553,-0.000778198
-0.189396,0.177421,0.022408,0.176268,-0.0216443,-0.0347462,0.0660553,-0.000778198
-0.0728036,0.386819,0.120072,0.172111,-0.00919832,-0.013799,0.0660553,-0.000778198
0.0303339,0.415856,0.204896,0.147073,-0.0113172,0.0386311,0.0660553,-0.000778198
0.145729,0.43928,0.233932,0.0876153,-0.0209674,0.0636659,0.0660553,-0.000778198
0.197435,0.484748,0.207714,0.0297663,-0.0226692,0.100329,0.0660553,-0.000778198
0.158294,0.536921,0.164454,-0.0115075,-0.0203276,0.139661,0.0660553,-0.000778198
0.0786084,0.501359,0.140967,-0.0310932,-0.00563729,0.172555,0.0660553,-0.000778198
0.0597998,0.425612,0.141272,-0.04614,0.00898838,0.165915,0.0660553,-0.000778198
0.0872399,0.298,0.135588,-0.0703747,0.018628,0.14081,0.0660553,-0.000778198
0.137723,0.189395,0.124475,-0.100353,0.0245695,0.106975,0.0660553,-0.000778198
0.137275,0.162828,0.047089,-0.155297,0.0284064,0.0887296,0.0660553,-0.000778198
0.0633188,0.17684,-0.108187,-0.199922,0.0080477,0.0854089,0.0660553,-0.000778198
-0.0399727,0.220499,-0.292231,-0.214135,-0.00563943,0.0824571,0.0660553,-0.000778198
-0.131324,0.327985,-0.438521,-0.204702,-0.00912589,0.0601869,0.0660553,-0.000778198
-0.189728,0.43051,-0.51607,-0.174523,-0.0034131,0.05704,0.0660553,-0.000778198
-0.234336,0.353983,-0.537618,-0.119074,-0.0156278,0.0841858,0.0660553,-0.000778198
-0.234336,0.353983,-0.537618,-0.119074,-0.0156278,0.0841858,0.147964,-0.00173187
-0.257436,0.206739,-0.522534,-0.0790037,-0.035965,0.0916451,0.147964,-0.00173187
-0.267279,0.119642,-0.494439,-0.0392178,-0.0530481,0.078802,0.147964,-0.00173187
-0.314501,0.0627069,-0.445123,0.00532407,-0.0791745,0.0636581,0.147964,-0.00173187
-0.348603,0.0220344,-0.361932,0.0596585,-0.10502,0.0402377,0.147964,-0.00173187
-0.335984,-0.0374311,-0.272233,0.0882373,-0.117602,-0.00506496,0.147964,-0.00173187
-0.275899,-0.143015,-0.161766,0.114426,-0.119306,-0.0653065,0.147964,-0.00173187
-0.150901,-0.200344,-0.0335839,0.134205,-0.114361,-0.155987,0.147964,-0.00173187
-0.087264,-0.160057,0.0787338,0.133108,-0.101984,-0.218412,0.147964,-0.00173187
-0.161147,-0.209081,0.104082,0.0994608,-0.118586,-0.240308,0.147964,-0.00173187
-0.310198,-0.382269,0.0429407,0.0514596,-0.135126,-0.285332,0.147964,-0.00173187
-0.486545,-0.415533,-0.0938292,0.0108794,-0.143714,-0.377162,0.147964,-0.00173187
-0.610575,-0.306461,-0.20217,-0.0113119,-0.118632,-0.475813,0.147964,-0.00173187
-0.624823,-0.153661,-0.261377,-0.00927043,-0.07977,-0.536188,0.147964,-0.00173187
-0.531362,-0.136977,-0.266756,-0.00393809,-0.0388035,-0.542172,0.147964,-0.00173187
-0.27629,-0.172432,-0.218568,-0.000258848,-0.00165506,-0.515644,0.147964,-0.00173187
0.106707,-0.114826,-0.101084,0.0268537,0.0326201,-0.439315,0.147964,-0.00173187
0.483007,0.0745604,0.0856239,0.0645681,0.0676583,-0.289293,0.147964,-0.00173187
0.656599,0.274223,0.241333,0.0493367,0.085707,-0.0689288,0.147964,-0.00173187
0.627746,0.272785,0.299616,0.0123954,0.0544305,0.145164,0.147964,-0.00173187
0.500297,-0.0469884,0.2707,-0.026127,0.0220624,0.286736,0.147964,-0.00173187
0.395362,-0.446897,0.165836,-0.0384238,-0.00337807,0.318499,0.147964,-0.00173187
0.341959,-0.548172,-0.0166023,-0.0652087,-0.00141724,0.252211,0.147964,-0.00173187
0.254853,-0.370397,-0.186382,-0.0619806,0.0147463,0.193519,0.147964,-0.00173187
0.117612,-0.150107,-0.267784,-0.00750053,0.0370623,0.186569,0.147964,-0.00173187
0.0259791,-0.0158685,-0.237759,0.0492774,0.0519742,0.196308,0.147964,-0.00173187
0.0455389,-0.0435813,-0.169306,0.0923159,0.0506598,0.199545,0.147964,-0.00173187
0.101797,-0.0963576,-0.107135,0.11145,0.0295234,0.206252,0.147964,-0.00173187
0.0958489,-0.0931776,-0.060122,0.110339,0.0105167,0.223422,0.147964,-0.00173187
-0.0243082,-0.0767011,-0.00325039,0.120795,-0.0129446,0.252527,0.147964,-0.00173187
-0.130645,-0.0332255,0.0875152,0.138623,-0.0276958,0.231336,0.147964,-0.00173187
-0.14035,0.033092,0.189827,0.142286,-0.0234509,0.169113,0.147964,-0.00173187
-0.0974679,0.100588,0.316103,0.149432,-0.0223785,0.118015,0.147964,-0.00173187
-0.0292936,0.123394,0.457914,0.146578,-0.0230004,0.0876887,0.147964,-0.00173187
0.0202402,0.115974,0.582874,0.133856,-0.0188548,0.078467,0.147964,-0.00173187
0.0215152,0.100283,0.692299,0.109141,-0.0238589,0.071048,0.147964,-0.00173187
0.0193148,0.119543,0.789329,0.0945323,-0.0302199,0.0468401,0.147964,-0.00173187
0.0423126,0.163956,0.865908,0.0748056,-0.024075,0.0155945,0.147964,-0.00173187
0.0732858,0.229168,0.957803,0.0621031,-0.00990727,-0.00747937,0.147964,-0.00173187
0.0840226,0.267573,1.0367,0.0443862,0.0031853,-0.0105395,0.147964,-0.00173187
0.0949007,0.274758,1.13536,0.0457413,0.0127939,-0.0136204,0.147964,-0.00173187
0.127532,0.24221,1.24684,0.0483444,0.0317692,-0.0254794,0.147964,-0.00173187
0.206163,0.199315,1.3785,0.0408714,0.057745,-0.0575017,0.147964,-0.00173187
0.355376,0.209318,1.503,0.0097897,0.0871351,-0.0998642,0.147964,-0.00173187
0.474794,0.239869,1.60047,-0.0221727,0.106378,-0.0929728,0.147964,-0.00173187
0.491269,0.186508,1.64008,-0.0587649,0.0964144,-0.0284758,0.147964,-0.00173187
0.434662,0.0811519,1.5712,-0.115851,0.0733895,0.0322154,0.147964,-0.00173187
0.344464,-0.0269384,1.40795,-0.158256,0.059352,0.0602077,0.147964,-0.00173187
0.229345,-0.077844,1.25795,-0.14002,0.0451989,0.0652246,0.147964,-0.00173187
0.179377,-0.0746847,1.17271,-0.102703,0.0507494,0.0399539,0.147964,-0.00173187
0.198018,-0.142714,1.10238,-0.0669734,0.052986,0.0164083,0.147964,-0.00173187
0.207602,-0.221641,0.979105,-0.0572834,0.03348,0.00570202,0.147964,-0.00173187
0.207602,-0.221641,0.979105,-0.0572834,0.03348,0.00570202,0.200821,-0.00240326
0.109301,-0.236453,0.79204,-0.06549,0.0201575,0.010589,0.200821,-0.00240326
-0.0229143,-0.0985323,0.622597,-0.0345477,0.00877047,-0.00797987,0.200821,-0.00240326
-0.0542078,0.161787,0.510482,-0.00749001,0.0201209,-0.0486352,0.200821,-0.00240326
0.0289348,0.34956,0.486496,0.0384289,0.0328223,-0.0397488,0.200821,-0.00240326
0.131904,0.324343,0.514922,0.0789584,0.0398642,0.0320182,0.200821,-0.00240326
0.184402,0.219925,0.529165,0.0959499,0.0166775,0.111024,0.200821,-0.00240326
0.122675,0.146248,0.493407,0.0901921,-0.0124746,0.170165,0.200821,-0.00240326
-0.0300597,0.10622,0.412356,0.0793699,-0.0434435,0.193607,0.200821,-0.00240326
-0.180487,0.119811,0.332009,0.0875079,-0.0629649,0.166498,0.200821,-0.00240326
-0.205278,0.146398,0.293469,0.0974248,-0.0624737,0.0960197,0.200821,-0.00240326
-0.133937,0.14465,0.279692,0.106493,-0.0559889,0.0341665,0.200821,-0.00240326
-0.0792658,0.146599,0.232554,0.0872517,-0.0650422,-0.000948787,0.200821,-0.00240326
-0.0897229,0.184956,0.161733,0.0635444,-0.0772189,-0.0232799,0.200821,-0.00240326
-0.0979923,0.252294,0.0763491,0.0448854,-0.0761087,-0.0520758,0.200821,-0.00240326
-0.0545632,0.355394,0.0195604,0.0327179,-0.0618743,-0.0805747,0.200821,-0.00240326
0.0263267,0.427119,0.005053,0.0279414,-0.0465837,-0.0852202,0.200821,-0.00240326
0.119422,0.436712,-0.00407984,0.018391,-0.0374685,-0.0562081,0.200821,-0.00240326
0.153024,0.368103,-0.0525397,-0.0174811,-0.0451419,-0.00163537,0.200821,-0.00240326
0.105673,0.272792,-0.137375,-0.0466842,-0.0606124,0.0414553,0.200821,-0.00240326
0.0213766,0.224536,-0.232353,-0.0711666,-0.064874,0.0508826,0.200821,-0.00240326
-0.0377115,0.188879,-0.303016,-0.0820018,-0.0602637,0.0281683,0.200821,-0.00240326
-0.0174504,0.135913,-0.345509,-0.0848657,-0.0496576,-0.0141034,0.200821,-0.00240326
0.0806998,0.0983716,-0.371476,-0.0911147,-0.0370753,-0.0497054,0.200821,-0.00240326
0.146237,0.047613,-0.420922,-0.116311,-0.0320191,-0.0463738,0.200821,-0.00240326
0.115545,-0.0080151,-0.494933,-0.129763,-0.0454317,-0.00554079,0.200821,-0.00240326
0.0469646,-0.0900711,-0.565895,-0.131174,-0.0505681,0.0217907,0.200821,-0.00240326
0.0482402,-0.193825,-0.604076,-0.117264,-0.0460204,0.0136188,0.200821,-0.00240326
0.106557,-0.31476,-0.611827,-0.095612,-0.0404811,-0.00679684,0.200821,-0.00240326
0.152462,-0.437827,-0.630596,-0.0893643,-0.0413044,-0.00873601,0.200821,-0.00240326
0.168851,-0.541518,-0.650198,-0.0757204,-0.0458332,-0.00911403,0.200821,-0.00240326
0.168672,-0.562051,-0.692419,-0.0719712,-0.048017,-0.0207034,0.200821,-0.00240326
0.142931,-0.523295,-0.736658,-0.0475444,-0.0521307,-0.023234,0.200821,-0.00240326
0.0908576,-0.540891,-0.790133,-0.0235643,-0.058752,-0.00543189,0.200821,-0.00240326
0.00552933,-0.642341,-0.840059,-0.00503774,-0.054263,0.0205673,0.200821,-0.00240326
-0.0724393,-0.692331,-0.941741,-0.00523757,-0.0714916,0.00663227,0.200821,-0.00240326
-0.102852,-0.651351,-1.06004,0.00718824,-0.0796698,-0.0410774,0.200821,-0.00240326
-0.109307,-0.571585,-1.11609,0.0420927,-0.0598225,-0.0744759,0.200821,-0.00240326
-0.138296,-0.516584,-1.13562,0.0732184,-0.0440939,-0.0877688,0.200821,-0.00240326
-0.122291,-0.483665,-1.14782,0.0765925,-0.0333902,-0.110202,0.200821,-0.00240326
-0.0152923,-0.388355,-1.16804,0.0638092,-0.00859666,-0.155201,0.200821,-0.00240326
0.188264,-0.1474,-1.13758,0.0567113,0.0307862,-0.186741,0.200821,-0.00240326
0.387542,0.102741,-1.07987,0.0392743,0.071229,-0.119594,0.200821,-0.00240326
0.452339,0.127203,-1.05297,0.0229841,0.0710219,0.0425844,0.200821,-0.00240326
0.375929,-0.0216582,-1.04253,0.0147909,0.0589384,0.180727,0.200821,-0.00240326
0.23533,-0.227839,-1.04415,-0.00963231,0.0633771,0.232952,0.200821,-0.00240326
0.0482523,-0.394396,-1.0839,-0.0336239,0.0649091,0.216345,0.200821,-0.00240326
-0.189578,-0.352075,-1.14275,-0.0656537,0.0777739,0.160354,0.200821,-0.00240326
-0.424317,-0.184063,-1.18712,-0.0725704,0.0839409,0.100425,0.200821,-0.00240326
-0.535542,-0.0505466,-1.15314,-0.033595,0.0864379,0.0395464,0.200821,-0.00240326
-0.440964,-0.0183842,-1.01094,0.0203709,0.0935598,-0.00349689,0.200821,-0.00240326
-0.282985,-0.080985,-0.799039,0.0683916,0.0937225,0.00806552,0.200821,-0.00240326
-0.22014,-0.165048,-0.61178,0.0663366,0.0621974,0.0698349,0.200821,-0.00240326
-0.275608,-0.208873,-0.516205,0.0398189,0.000387296,0.133933,0.200821,-0.00240326
-0.364296,-0.233302,-0.461169,0.0227634,-0.0447319,0.164922,0.200821,-0.00240326
-0.427454,-0.240559,-0.40498,0.0293805,-0.0680847,0.164642,0.200821,-0.00240326
-0.439873,-0.23707,-0.33208,0.0409313,-0.075076,0.160217,0.200821,-0.00240326
-0.451099,-0.280071,-0.270873,0.0532694,-0.0880187,0.15644,0.200821,-0.00240326
-0.47951,-0.323091,-0.215458,0.0724372,-0.114364,0.145547,0.200821,-0.00240326
-0.56187,-0.355186,-0.171021,0.0979234,-0.141828,0.124232,0.200821,-0.00240326
-0.643769,-0.356514,-0.0885413,0.134914,-0.165407,0.0576101,0.200821,-0.00240326
-0.664331,-0.387943,0.00377926,0.160735,-0.173765,-0.0582966,0.200821,-0.00240326
-0.627805,-0.374202,0.108608,0.186945,-0.196608,-0.20975,0.200821,-0.00240326
-0.610722,-0.399598,0.194769,0.184707,-0.205769,-0.352618,0.200821,-0.00240326
-0.589146,-0.401057,0.270162,0.1606,-0.191661,-0.531034,0.200821,-0.00240326
-0.362989,-0.108924,0.416608,0.158474,-0.169831,-0.740722,0.200821,-0.00240326
0.039825,0.441683,0.614611,0.131661,-0.114955,-0.874275,0.200821,-0.00240326
0.293191,0.739968,0.762021,0.0909754,-0.107511,-0.779068,0.200821,-0.00240326
0.333982,0.749965,0.792867,0.0463414,-0.129928,-0.585977,0.200821,-0.00240326
0.305929,0.722467,0.766214,0.0129196,-0.137064,-0.454057,0.200821,-0.00240326
0.360212,0.837311,0.754342,-0.0030603,-0.103524,-0.390524,0.200821,-0.00240326
0.501627,1.07865,0.830128,0.00986004,-0.0438685,-0.305678,0.200821,-0.00240326
0.677421,1.21172,0.97336,0.0198843,0.00807831,-0.154365,0.200821,-0.00240326
0.8511,1.06611,1.1332,0.0301977,0.0280997,0.0358523,0.200821,-0.00240326
0.953185,0.620401,1.24239,0.0295451,0.0209381,0.212882,0.200821,-0.00240326
0.95143,-0.0370355,1.29635,0.0367135,0.0079602,0.309482,0.200821,-0.00240326
0.95143,-0.0370355,1.29635,0.0367135,0.0079602,0.309482,0.190247,-0.00223541
0.8947,-0.56427,1.28447,0.0441011,0.00127873,0.288354,0.190247,-0.00223541
0.90805,-0.593811,1.18551,0.00481666,0.0264271,0.128123,0.190247,-0.00223541
0.908533,-0.478409,0.995263,-0.0165507,0.0510285,0.0182177,0.190247,-0.00223541
0.910706,-0.2166,0.818082,0.00663783,0.0717199,-0.0499353,0.190247,-0.00223541
0.978565,0.13636,0.689987,0.012121,0.132368,-0.070558,0.190247,-0.00223541
1.06478,0.425976,0.584496,0.0174211,0.188524,-0.000989616,0.190247,-0.00223541
1.05987,0.512722,0.474466,0.028259,0.205983,0.145543,0.190247,-0.00223541
0.963512,0.453786,0.356408,0.0326429,0.212908,0.288709,0.190247,-0.00223541
0.825297,0.330418,0.269099,0.0488684,0.223174,0.368567,0.190247,-0.00223541
0.690132,0.257116,0.212196,0.0711209,0.245472,0.383597,0.190247,-0.00223541
0.543016,0.256862,0.148657,0.0827279,0.254828,0.363232,0.190247,-0.00223541
0.406883,0.345702,0.081228,0.0850308,0.255285,0.328106,0.190247,-0.00223541
0.269949,0.421283,0.0291873,0.0938777,0.263088,0.307176,0.190247,-0.00223541
0.125025,0.455025,0.0383732,0.123942,0.268576,0.284929,0.190247,-0.00223541
-0.0124571,0.397512,0.119871,0.155497,0.265805,0.267496,0.190247,-0.00223541
-0.16551,0.29001,0.161889,0.160933,0.239835,0.239143,0.190247,-0.00223541
-0.354009,0.144864,0.208766,0.155475,0.214597,0.183181,0.190247,-0.00223541
-0.494832,0.0694614,0.30733,0.150773,0.198655,0.0752499,0.190247,-0.00223541
-0.618057,0.104447,0.347295,0.104041,0.17522,-0.034035,0.190247,-0.00223541
-0.793633,0.148032,0.360134,0.056163,0.130557,-0.0944951,0.190247,-0.00223541
-1.02996,0.151276,0.349396,0.00637715,0.0885895,-0.134517,0.190247,-0.00223541
-1.20059,0.0840151,0.325336,-0.0363715,0.0380199,-0.206331,0.190247,-0.00223541
-1.22024,-0.196238,0.35072,-0.051674,-0.0115669,-0.313222,0.190247,-0.00223541
-1.09209,-0.415816,0.429527,-0.0680554,-0.0149515,-0.442091,0.190247,-0.00223541
-0.885267,-0.286511,0.501006,-0.107762,-0.00922151,-0.545649,0.190247,-0.00223541
-0.738,-0.0401261,0.471467,-0.16495,-0.0429784,-0.540216,0.190247,-0.00223541
-0.761937,-0.0784599,0.362015,-0.190178,-0.078023,-0.398719,0.190247,-0.00223541
-0.805738,-0.349942,0.203157,-0.194256,-0.113572,-0.299477,0.190247,-0.00223541
-0.716177,-0.486401,0.0164253,-0.21285,-0.115826,-0.314878,0.190247,-0.00223541
-0.451734,-0.206135,-0.142894,-0.2145,-0.0869967,-0.376648,0.190247,-0.00223541
-0.152402,0.133968,-0.157991,-0.170413,-0.0299144,-0.314539,0.190247,-0.00223541
0.0351648,0.202451,-0.165819,-0.144793,-0.00944741,-0.135611,0.190247,-0.00223541
0.134393,-0.0679143,-0.221674,-0.147283,-0.0184628,0.0157195,0.190247,-0.00223541
0.175216,-0.49274,-0.326785,-0.152971,-0.012022,0.0886241,0.190247,-0.00223541
0.121786,-0.796933,-0.469602,-0.157303,0.00224541,0.0993991,0.190247,-0.00223541
0.0443367,-0.698582,-0.643258,-0.182659,0.0448143,0.0380375,0.190247,-0.00223541
-0.0211179,-0.392389,-0.801091,-0.181249,0.0911898,0.00334966,0.190247,-0.00223541
-0.0106667,-0.0919028,-0.860348,-0.130339,0.124479,0.0222459,0.190247,-0.00223541
0.0808645,0.0516977,-0.85039,-0.082503,0.144864,0.102579,0.190247,-0.00223541
0.179803,0.0331182,-0.825808,-0.0553701,0.138438,0.218765,0.190247,-0.00223541
0.23843,-0.0636368,-0.798409,-0.0280726,0.122659,0.324744,0.190247,-0.00223541
0.261146,-0.178904,-0.784236,-0.0194879,0.110142,0.394674,0.190247,-0.00223541
0.245839,-0.261852,-0.795211,-0.0175202,0.103762,0.428261,0.190247,-0.00223541
0.124379,-0.30624,-0.775764,0.002661,0.108904,0.457786,0.190247,-0.00223541
-0.0064325,-0.314048,-0.713276,0.0315785,0.106808,0.457377,0.190247,-0.00223541
-0.115163,-0.394363,-0.676442,0.0373031,0.104005,0.442147,0.190247,-0.00223541
-0.195084,-0.5363,-0.662988,0.0485781,0.0768052,0.408101,0.190247,-0.00223541
-0.280304,-0.734412,-0.652917,0.0738743,0.0560478,0.362384,0.190247,-0.00223541
-0.432475,-0.830443,-0.682472,0.0567977,0.0499392,0.299182,0.190247,-0.00223541
-0.688446,-0.770998,-0.77478,0.0496933,0.0184341,0.216305,0.190247,-0.00223541
-1.00701,-0.700418,-0.862406,0.0745734,-0.0233692,0.120829,0.190247,-0.00223541
-1.21427,-0.54382,-0.798265,0.125639,-0.0167816,-0.0508736,0.190247,-0.00223541
-1.2684,-0.334284,-0.612518,0.186757,-0.00714595,-0.24135,0.190247,-0.00223541
-1.18594,-0.163345,-0.465237,0.201808,-0.0527425,-0.406416,0.190247,-0.00223541
-1.18594,-0.163345,-0.465237,0.201808,-0.0527425,-0.406416,0.0158539,-0.000183105
-0.971743,-0.122354,-0.347667,0.224857,-0.136917,-0.537708,0.0158539,-0.000183105
-0.67364,-0.0945503,-0.210506,0.219708,-0.15438,-0.643419,0.0158539,-0.000183105
-0.410697,0.12766,-0.026516,0.236277,-0.149143,-0.684986,0.0158539,-0.000183105
-0.227135,0.437618,0.184842,0.236593,-0.173711,-0.655819,0.0158539,-0.000183105
-0.130756,0.615192,0.366414,0.197908,-0.179993,-0.553268,0.0158539,-0.000183105
-0.0727718,0.603571,0.431203,0.148599,-0.203696,-0.435827,0.0158539,-0.000183105
0.00556454,0.565347,0.412395,0.108316,-0.221587,-0.360314,0.0158539,-0.000183105
0.130358,0.534082,0.471036,0.133352,-0.193038,-0.298508,0.0158539,-0.000183105
0.264992,0.549224,0.658886,0.191246,-0.125257,-0.249861,0.0158539,-0.000183105
0.41371,0.593678,0.939516,0.224967,-0.069226,-0.201148,0.0158539,-0.000183105
0.594902,0.617092,1.20793,0.222775,-0.041455,-0.135046,0.0158539,-0.000183105
0.722491,0.510034,1.40893,0.198046,-0.0201889,-0.0323039,0.0158539,-0.000183105
0.800084,0.327084,1.54898,0.174098,-0.0125595,0.0595513,0.0158539,-0.000183105
0.856117,0.179851,1.61375,0.145519,-0.000403963,0.110771,0.0158539,-0.000183105
0.913867,0.161864,1.67071,0.142637,0.0215275,0.139453,0.0158539,-0.000183105
0.965709,0.232514,1.74218,0.143534,0.0567305,0.174565,0.0158539,-0.000183105
0.976581,0.252525,1.78605,0.140288,0.0783736,0.245239,0.0158539,-0.000183105
0.934125,0.171426,1.8103,0.136902,0.0799194,0.317695,0.0158539,-0.000183105
0.869362,0.0520439,1.82707,0.146931,0.0870965,0.356338,0.0158539,-0.000183105
0.83018,-0.0223779,1.85171,0.165517,0.0927529,0.351379,0.0158539,-0.000183105
0.815071,-0.0180089,1.88247,0.177382,0.116162,0.330174,0.0158539,-0.000183105
0.773308,-0.0150134,1.87291,0.174816,0.12459,0.315911,0.0158539,-0.000183105
0.734429,-0.045788,1.80356,0.17238,0.113815,0.28161,0.0158539,-0.000183105
0.686006,-0.0326349,1.71906,0.180405,0.114006,0.23126,0.0158539,-0.000183105
0.572879,-0.0397326,1.66388,0.195712,0.139095,0.200076,0.0158539,-0.000183105
0.36132,-0.0332285,1.61474,0.196073,0.160588,0.165478,0.0158539,-0.000183105
0.208838,0.0224636,1.55139,0.181957,0.161132,0.0659221,0.0158539,-0.000183105
0.122809,0.117669,1.40733,0.132889,0.169234,-0.0392538,0.0158539,-0.000183105
-0.0151939,0.266217,1.29028,0.123826,0.175954,-0.0879442,0.0158539,-0.000183105
-0.210955,0.346603,1.19943,0.113749,0.19526,-0.10639,0.0158539,-0.000183105
-0.403196,0.370438,1.07509,0.074138,0.202302,-0.144779,0.0158539,-0.000183105
-0.569348,0.334824,0.942792,0.0402688,0.203951,-0.196777,0.0158539,-0.000183105
-0.724414,0.316776,0.825364,0.00930727,0.217,-0.253816,0.0158539,-0.000183105
-0.874803,0.349443,0.746998,-0.0149,0.221018,-0.309233,0.0158539,-0.000183105
-0.967443,0.438556,0.717896,-0.0415369,0.213733,-0.362238,0.0158539,-0.000183105
-0.976971,0.536594,0.687137,-0.0990078,0.205207,-0.382658,0.0158539,-0.000183105
-1.04208,0.609556,0.498717,-0.213787,0.167587,-0.350436,0.0158539,-0.000183105
-1.27005,0.584911,0.155094,-0.332834,0.082238,-0.303742,0.0158539,-0.000183105
-1.38401,0.57465,-0.210453,-0.389494,0.0267377,-0.348124,0.0158539,-0.000183105
-1.15169,0.65505,-0.465982,-0.378918,0.0244838,-0.457149,0.0158539,-0.000183105
-0.701578,0.761029,-0.503382,-0.332263,0.059431,-0.498675,0.0158539,-0.000183105
-0.228453,0.766983,-0.463861,-0.336441,0.0795813,-0.42281,0.0158539,-0.000183105
0.0466937,0.620817,-0.536236,-0.405762,0.0662336,-0.255072,0.0158539,-0.000183105
0.168239,0.366098,-0.720723,-0.483205,0.031569,-0.101629,0.0158539,-0.000183105
0.290362,0.243439,-0.985249,-0.529861,0.0266836,-0.0219254,0.0158539,-0.000183105
0.42707,0.336359,-1.19356,-0.522827,0.0567235,0.0448813,0.0158539,-0.000183105
0.565265,0.541823,-1.32251,-0.483702,0.0918284,0.142527,0.0158539,-0.000183105
0.666326,0.653969,-1.40098,-0.453247,0.101164,0.277918,0.0158539,-0.000183105
0.752095,0.635489,-1.48402,-0.431975,0.104813,0.419149,0.0158539,-0.000183105
0.83059,0.460091,-1.57366,-0.415989,0.110136,0.527096,0.0158539,-0.000183105
0.826163,0.105323,-1.66236,-0.377265,0.116164,0.627687,0.0158539,-0.000183105
0.760623,-0.16466,-1.7036,-0.32438,0.137697,0.658901,0.0158539,-0.000183105
0.670619,-0.380446,-1.66961,-0.254528,0.162932,0.636719,0.0158539,-0.000183105
0.648141,-0.475053,-1.62494,-0.196112,0.170462,0.571263,0.0158539,-0.000183105
0.648141,-0.475053,-1.62494,-0.196112,0.170462,0.571263,0.190247,-0.00224304
0.610831,-0.550792,-1.61973,-0.16162,0.166749,0.516457,0.190247,-0.00224304
0.423455,-0.804773,-1.58803,-0.0936366,0.140241,0.495909,0.190247,-0.00224304
0.0805786,-1.36388,-1.52511,-0.0185594,0.111782,0.446618,0.190247,-0.00224304
-0.303225,-1.91647,-1.52114,0.0383295,0.0707967,0.285003,0.190247,-0.00224304
-0.727845,-2.02195,-1.50462,0.0957167,0.0514178,0.0367143,0.190247,-0.00224304
-1.21613,-1.78199,-1.56097,0.107991,0.0256192,-0.243177,0.190247,-0.00224304
-1.55273,-1.41747,-1.57296,0.178414,-0.0329849,-0.532886,0.190247,-0.00224304
-1.36275,-0.803138,-1.36749,0.296014,-0.03063,-0.856782,0.190247,-0.00224304
-0.822718,-0.037926,-0.96268,0.367612,0.0139749,-1.02275,0.190247,-0.00224304
-0.354847,0.442235,-0.451211,0.431841,-0.0223988,-0.923345,0.190247,-0.00224304
-0.0845732,0.644189,-0.0766709,0.406275,-0.120233,-0.699455,0.190247,-0.00224304
0.10303,0.793008,0.136204,0.31779,-0.186568,-0.502735,0.190247,-0.00224304
0.283171,0.846221,0.289224,0.259609,-0.214725,-0.318774,0.190247,-0.00224304
0.403125,0.642761,0.443836,0.251154,-0.201318,-0.141555,0.190247,-0.00224304
0.476392,0.34555,0.6183,0.271776,-0.195857,-0.0270295,0.190247,-0.00224304
0.534761,0.157814,0.78068,0.269266,-0.186263,0.0162866,0.190247,-0.00224304
0.6178,0.0766046,0.910797,0.255961,-0.166799,0.0216962,0.190247,-0.00224304
0.670507,-0.000601818,0.989398,0.254679,-0.161721,0.0380822,0.190247,-0.00224304
0.652331,-0.0665693,1.00467,0.238759,-0.15015,0.0608243,0.190247,-0.00224304
0.619871,-0.0991382,0.977615,0.230927,-0.133926,0.0539288,0.190247,-0.00224304
0.607991,-0.0616641,0.943511,0.231078,-0.109041,0.0264107,0.190247,-0.00224304
0.648022,0.0152624,0.967351,0.246506,-0.0577895,0.0140631,0.190247,-0.00224304
0.770141,0.0934305,1.03394,0.256691,-0.000740275,0.0214479,0.190247,-0.00224304
0.926573,0.145594,1.08095,0.243268,0.0434309,0.0617225,0.190247,-0.00224304
1.10645,0.158649,1.15207,0.25125,0.0815368,0.117673,0.190247,-0.00224304
1.24677,0.303687,1.21558,0.242155,0.13735,0.161942,0.190247,-0.00224304
1.1831,0.485853,1.28706,0.234612,0.182637,0.260224,0.190247,-0.00224304
0.970545,0.580423,1.37849,0.240747,0.19377,0.336722,0.190247,-0.00224304
0.83466,0.535212,1.46697,0.242264,0.20881,0.34143,0.190247,-0.00224304
0.795712,0.425051,1.53833,0.249854,0.224959,0.31219,0.190247,-0.00224304
0.727638,0.321031,1.55777,0.260126,0.223894,0.287643,0.190247,-0.00224304
0.548045,0.259585,1.52739,0.276238,0.220424,0.264116,0.190247,-0.00224304
0.306831,0.14057,1.53189,0.305651,0.231888,0.201779,0.190247,-0.00224304
0.121272,0.0953649,1.63222,0.331355,0.258357,0.0671214,0.190247,-0.00224304
0.120258,0.158434,1.80711,0.341722,0.284599,-0.0962688,0.190247,-0.00224304
0.250469,0.394697,1.9685,0.292666,0.300921,-0.242981,0.190247,-0.00224304
0.292898,0.626567,1.99958,0.192072,0.26939,-0.283947,0.190247,-0.00224304
0.114632,0.709217,1.90823,0.108662,0.186419,-0.234899,0.190247,-0.00224304
-0.191114,0.681381,1.70183,0.0221629,0.117532,-0.204477,0.190247,-0.00224304
-0.467624,0.744402,1.46626,-0.0346613,0.0610277,-0.251005,0.190247,-0.00224304
-0.663505,0.785778,1.29068,-0.0630262,0.0336543,-0.300808,0.190247,-0.00224304
-0.792281,0.712334,1.19195,-0.0852893,0.00443131,-0.328295,0.190247,-0.00224304
-0.811966,0.598756,1.09537,-0.133608,-0.0330712,-0.368664,0.190247,-0.00224304
-0.7806,0.602096,0.948358,-0.187714,-0.067394,-0.386998,0.190247,-0.00224304
-0.775551,0.661594,0.719525,-0.230457,-0.104013,-0.366691,0.190247,-0.00224304
-0.772523,0.763126,0.51121,-0.248154,-0.120578,-0.324819,0.190247,-0.00224304
-0.678157,0.880402,0.345628,-0.240409,-0.109151,-0.283454,0.190247,-0.00224304
-0.498943,0.875373,0.304965,-0.197575,-0.0764965,-0.209068,0.190247,-0.00224304
-0.240943,0.794598,0.371572,-0.164259,-0.0455856,-0.139253,0.190247,-0.00224304
0.0428251,0.616216,0.440269,-0.171375,-0.0179353,-0.0616329,0.190247,-0.00224304
0.274386,0.369783,0.46316,-0.186426,-0.0101907,0.0120716,0.190247,-0.00224304
0.354554,0.100899,0.450768,-0.186981,0.00502893,0.110658,0.190247,-0.00224304
0.331078,-0.0977293,0.427788,-0.179737,0.0362473,0.176944,0.190247,-0.00224304
0.305125,-0.211041,0.395203,-0.178673,0.0581366,0.194716,0.190247,-0.00224304
0.305125,-0.211041,0.395203,-0.178673,0.0581366,0.194716,0.190247,-0.0022583
0.277485,-0.26274,0.332304,-0.18118,0.073517,0.219973,0.190247,-0.0022583
0.284915,-0.25363,0.242523,-0.175402,0.0878896,0.239603,0.190247,-0.0022583
0.301632,-0.195475,0.142473,-0.161254,0.0991899,0.266216,0.190247,-0.0022583
0.303728,-0.0975233,0.0793735,-0.128596,0.112266,0.306732,0.190247,-0.0022583
0.293835,-0.0293897,0.0266159,-0.112637,0.122743,0.352304,0.190247,-0.0022583
0.318856,-0.0883597,0.00824805,-0.0764709,0.125195,0.385793,0.190247,-0.0022583
0.359985,-0.231235,0.0309685,-0.0380749,0.138071,0.402548,0.190247,-0.0022583
0.375874,-0.314662,0.0583407,-0.0182525,0.146264,0.392282,0.190247,-0.0022583
0.312941,-0.388057,0.0759275,-0.0119462,0.143106,0.386055,0.190247,-0.0022583
0.182619,-0.444792,0.0647439,-0.0155335,0.124954,0.370069,0.190247,-0.0022583
-0.0573005,-0.47776,-0.0100633,-0.030916,0.107117,0.34624,0.190247,-0.0022583
-0.368973,-0.47406,-0.169367,-0.0619221,0.0737417,0.288799,0.190247,-0.0022583
-0.615335,-0.376051,-0.379398,-0.0780077,0.0353881,0.17764,0.190247,-0.0022583
-0.740937,-0.1899,-0.562379,-0.065308,0.0231855,0.0637788,0.190247,-0.0022583
-0.81401,0.102627,-0.588822,-0.00669164,0.0370332,-0.00905412,0.190247,-0.0022583
-0.853581,0.334491,-0.499167,0.0461286,0.0486754,-0.0188475,0.190247,-0.0022583
-0.820517,0.378611,-0.364303,0.0888719,0.0148671,-0.000122845,0.190247,-0.0022583
-0.686746,0.277784,-0.212269,0.0982128,-0.0254534,0.0145589,0.190247,-0.0022583
-0.519804,0.0602047,-0.111306,0.0744377,-0.0667961,0.0369808,0.190247,-0.0022583
-0.419459,-0.104946,-0.0645967,0.058195,-0.106675,0.0619005,0.190247,-0.0022583
-0.450582,-0.0602689,-0.0437552,0.0304971,-0.123067,0.0737407,0.190247,-0.0022583
-0.533003,0.0407279,-0.0115913,0.0158937,-0.131559,0.0700206,0.190247,-0.0022583
-0.51968,0.14344,0.0133218,0.00354452,-0.137058,0.0392003,0.190247,-0.0022583
-0.427725,0.215319,0.00558148,-0.0199258,-0.154485,0.0156143,0.190247,-0.0022583
-0.301079,0.19795,0.00730909,-0.0138825,-0.170561,0.0105644,0.190247,-0.0022583
-0.182257,0.105528,0.0203374,0.00679616,-0.177874,0.011884,0.190247,-0.0022583
-0.199566,0.0805115,0.0493664,0.0399995,-0.176947,-0.0110776,0.190247,-0.0022583
-0.272083,0.0976373,0.105685,0.0683285,-0.186485,-0.0749986,0.190247,-0.0022583
-0.28359,0.072679,0.160156,0.118875,-0.214332,-0.172576,0.190247,-0.0022583
-0.304524,-0.0519636,0.213478,0.154449,-0.225028,-0.252654,0.190247,-0.0022583
-0.429868,-0.454017,0.14746,0.122073,-0.240806,-0.320343,0.190247,-0.0022583
-0.568199,-0.934958,-0.0115268,0.0894478,-0.246475,-0.480351,0.190247,-0.0022583
-0.470425,-0.825087,-0.0756848,0.0846709,-0.166744,-0.736396,0.190247,-0.0022583
0.00572273,-0.0688932,0.0738577,0.0928122,-0.0338284,-0.87558,0.190247,-0.0022583
0.645133,0.972449,0.347847,0.120442,0.0541504,-0.767666,0.190247,-0.0022583
0.98282,1.63253,0.573923,0.112428,0.0905605,-0.366715,0.190247,-0.0022583
0.989255,1.79587,0.769807,0.099661,0.0751302,0.0835152,0.190247,-0.0022583
0.78918,1.46667,0.938885,0.0880256,0.0531569,0.409961,0.190247,-0.0022583
0.553742,0.790362,1.06696,0.112358,0.00642104,0.566209,0.190247,-0.0022583
0.412407,0.128874,1.17914,0.14658,-0.0176522,0.569328,0.190247,-0.0022583
0.352324,-0.251327,1.3338,0.174657,0.00720786,0.47829,0.190247,-0.0022583
0.28241,-0.433948,1.5197,0.206637,0.0259339,0.379166,0.190247,-0.0022583
0.197064,-0.543461,1.69417,0.220827,0.040158,0.290523,0.190247,-0.0022583
0.106715,-0.647927,1.8233,0.211505,0.0670505,0.204165,0.190247,-0.0022583
0.0545803,-0.614452,1.85796,0.199064,0.0620811,0.107678,0.190247,-0.0022583
1.08897e-05,-0.496791,1.79378,0.195798,0.0355545,0.0294763,0.190247,-0.0022583
-0.0302988,-0.245813,1.75919,0.226059,0.0273755,-0.0472893,0.190247,-0.0022583
-0.0215971,-0.0806611,1.80302,0.262058,0.0371337,-0.0916717,0.190247,-0.0022583
0.128898,-0.0724006,1.90852,0.301611,0.0510166,-0.141244,0.190247,-0.0022583
0.366147,-0.197798,1.99169,0.297398,0.0479779,-0.164836,0.190247,-0.0022583
0.619081,-0.145329,1.95028,0.254333,0.0283894,-0.175326,0.190247,-0.0022583
0.664008,0.154597,1.79821,0.195661,0.0149817,-0.120948,0.190247,-0.0022583
0.503196,0.36314,1.6467,0.185676,-0.00552088,-0.0170082,0.190247,-0.0022583
0.356142,0.333514,1.54384,0.205063,-0.00410086,0.0320765,0.190247,-0.0022583
0.356142,0.333514,1.54384,0.205063,-0.00410086,0.0320765,0.195541,-0.00232697
0.334958,0.273161,1.45743,0.204593,0.00622359,0.0007056,0.195541,-0.00232697
0.356291,0.291205,1.32236,0.177176,0.0139857,-0.0480697,0.195541,-0.00232697
0.3229,0.421478,1.18582,0.160929,0.0288966,-0.0715762,0.195541,-0.00232697
0.190259,0.547395,1.08355,0.154929,0.0491868,-0.06139,0.195541,-0.00232697
0.0303671,0.555914,1.00675,0.148103,0.0558345,-0.066192,0.195541,-0.00232697
-0.110105,0.443697,0.914301,0.133551,0.0483066,-0.0993376,0.195541,-0.00232697
-0.369846,0.190495,0.766281,0.0921545,0.0496447,-0.122699,0.195541,-0.00232697
-0.694613,-0.142148,0.554521,0.0653521,-0.000155985,-0.188274,0.195541,-0.00232697
-0.871385,-0.106623,0.302151,0.0274661,-0.00429213,-0.367393,0.195541,-0.00232697
-0.860737,0.385441,0.249121,0.0445308,0.043103,-0.522591,0.195541,-0.00232697
-0.73007,1.01057,0.314567,0.0235932,0.0968311,-0.557805,0.195541,-0.00232697
-0.761364,1.09449,0.308953,-0.0122334,0.0781341,-0.368295,0.195541,-0.00232697
-0.78917,0.838279,0.244115,-0.0346022,0.00565057,-0.232114,0.195541,-0.00232697
-0.62283,0.645683,0.256099,-0.05395,0.0306409,-0.244917,0.195541,-0.00232697
-0.290941,0.763617,0.41187,-0.0400461,0.0927936,-0.289772,0.195541,-0.00232697
0.0285529,0.940152,0.617597,-0.0567082,0.156648,-0.235884,0.195541,-0.00232697
0.213123,0.886066,0.7873,-0.0989485,0.188065,-0.0991967,0.195541,-0.00232697
0.282688,0.540997,0.87284,-0.164613,0.211109,0.0346142,0.195541,-0.00232697
0.308536,0.0287642,0.976968,-0.198296,0.248469,0.110436,0.195541,-0.00232697
0.384441,-0.332342,1.11137,-0.220099,0.291487,0.10183,0.195541,-0.00232697
0.529591,-0.426404,1.11572,-0.282261,0.28834,0.0615989,0.195541,-0.00232697
0.609055,-0.368314,0.914393,-0.344505,0.250881,0.0644949,0.195541,-0.00232697
0.506564,-0.263843,0.650523,-0.335111,0.212642,0.136774,0.195541,-0.00232697
0.265877,-0.160363,0.410292,-0.281139,0.18392,0.219823,0.195541,-0.00232697
0.0666121,-0.113789,0.219263,-0.227033,0.160593,0.256517,0.195541,-0.00232697
-0.000162265,-0.126358,0.0522594,-0.177356,0.142892,0.253358,0.195541,-0.00232697
-0.00236443,-0.119222,-0.122015,-0.150028,0.120991,0.237912,0.195541,-0.00232697
0.0159418,-0.145262,-0.280163,-0.127138,0.11191,0.232758,0.195541,-0.00232697
0.0740423,-0.190416,-0.410253,-0.0924427,0.10152,0.223375,0.195541,-0.00232697
0.157599,-0.176613,-0.488392,-0.0463494,0.107942,0.212007,0.195541,-0.00232697
0.136221,-0.0244164,-0.54985,-0.032396,0.120452,0.227051,0.195541,-0.00232697
0.0185099,0.25377,-0.615098,-0.0393487,0.0983362,0.257798,0.195541,-0.00232697
-0.103613,0.489058,-0.729905,-0.0493599,0.0597683,0.293663,0.195541,-0.00232697
-0.221365,0.587176,-0.869027,-0.0427032,0.0083209,0.323738,0.195541,-0.00232697
-0.42623,0.453422,-0.913809,0.0251554,-0.0612874,0.35618,0.195541,-0.00232697
-0.654641,0.0390338,-0.835577,0.131282,-0.129998,0.32239,0.195541,-0.00232697
-0.796151,-0.404426,-0.774289,0.166328,-0.163517,0.185431,0.195541,-0.00232697
-0.787013,-0.534649,-0.719832,0.148171,-0.159298,-0.0351131,0.195541,-0.00232697
-0.636738,-0.351747,-0.638657,0.133165,-0.121137,-0.243928,0.195541,-0.00232697
-0.390794,-0.12266,-0.497378,0.148002,-0.0987995,-0.383035,0.195541,-0.00232697
-0.125386,0.0518109,-0.305539,0.142165,-0.0693054,-0.447271,0.195541,-0.00232697
0.0571394,0.196372,-0.112079,0.127864,-0.0634062,-0.435482,0.195541,-0.00232697
0.132573,0.39365,0.0101824,0.0907944,-0.0848887,-0.378604,0.195541,-0.00232697
0.127556,0.589407,0.0286629,0.048439,-0.119518,-0.294692,0.195541,-0.00232697
0.0350146,0.784496,-0.0561615,0.0194978,-0.169367,-0.200695,0.195541,-0.00232697
-0.267986,0.855141,-0.167224,0.0283992,-0.207663,-0.0904189,0.195541,-0.00232697
-0.58082,0.762415,-0.180429,0.0770829,-0.220477,-0.0603748,0.195541,-0.00232697
-0.612766,0.655481,-0.0306785,0.153102,-0.177261,-0.147035,0.195541,-0.00232697
-0.359347,0.607362,0.29229,0.215788,-0.111588,-0.234054,0.195541,-0.00232697
0.0436544,0.513134,0.715094,0.256213,-0.068167,-0.24648,0.195541,-0.00232697
0.401434,0.239978,1.10594,0.249157,-0.0324698,-0.171811,0.195541,-0.00232697
0.661691,-0.0480005,1.37215,0.199635,-0.00962456,-0.0948063,0.195541,-0.00232697
0.876981,-0.192225,1.4805,0.120187,0.0250504,-0.0661262,0.195541,-0.00232697
0.876981,-0.192225,1.4805,0.120187,0.0250504,-0.0661262,0.200806,-0.00236511
0.937228,-0.213798,1.38805,0.0476246,0.033783,-0.0446922,0.200806,-0.00236511
0.856449,-0.221332,1.18604,0.00519136,0.0381447,-0.0321253,0.200806,-0.00236511
0.726997,-0.229696,0.879619,-0.0291849,0.0445328,-0.0388556,0.200806,-0.00236511
0.642935,-0.0338567,0.545685,-0.0398789,0.0520508,-0.0656734,0.200806,-0.00236511
0.549982,0.209328,0.294219,-0.034238,0.0833506,-0.0382481,0.200806,-0.00236511
0.424192,0.33159,0.189011,-0.00342573,0.102466,0.0612983,0.200806,-0.00236511
0.361014,0.322548,0.18514,0.00381018,0.113425,0.145579,0.200806,-0.00236511
0.394646,0.227954,0.223441,-0.0117483,0.118519,0.22595,0.200806,-0.00236511
0.481039,0.21234,0.233992,-0.0331656,0.0996763,0.287139,0.200806,-0.00236511
0.501801,0.208104,0.222257,-0.0315434,0.0888126,0.370164,0.200806,-0.00236511
0.389625,0.117502,0.251638,-0.009923,0.0757298,0.461441,0.200806,-0.00236511
0.236286,-0.161157,0.339614,0.0478583,0.0586924,0.513334,0.200806,-0.00236511
0.202375,-0.487532,0.47119,0.103166,0.0618833,0.452635,0.200806,-0.00236511
0.268408,-0.704283,0.563944,0.119762,0.0819829,0.347484,0.200806,-0.00236511
0.281559,-0.746754,0.672099,0.151196,0.0742694,0.251944,0.200806,-0.00236511
0.193684,-0.704207,0.789271,0.184699,0.0642279,0.167498,0.200806,-0.00236511
0.0144299,-0.751343,0.912648,0.215603,0.0692056,0.0734593,0.200806,-0.00236511
-0.222699,-0.948898,0.994864,0.1799,0.0473322,-0.0426779,0.200806,-0.00236511
-0.372447,-1.12565,1.00834,0.157689,0.0141262,-0.220519,0.200806,-0.00236511
-0.268372,-0.880245,0.876393,0.087356,0.00638324,-0.475072,0.200806,-0.00236511
-0.103951,-0.243091,0.742278,0.0281315,0.0423946,-0.640409,0.200806,-0.00236511
-0.134326,0.236422,0.670593,0.0387592,0.0491155,-0.584099,0.200806,-0.00236511
-0.311277,0.390956,0.565123,0.0619832,0.00658876,-0.415781,0.200806,-0.00236511
-0.407941,0.361688,0.490977,0.0750775,-0.0224952,-0.336226,0.200806,-0.00236511
-0.304675,0.359433,0.45962,0.0857539,-0.0340812,-0.345988,0.200806,-0.00236511
-0.147134,0.364467,0.416856,0.0989949,-0.0495191,-0.309193,0.200806,-0.00236511
-0.168751,0.39219,0.30027,0.0704528,-0.0786027,-0.21412,0.200806,-0.00236511
-0.348431,0.431653,0.152361,0.0429114,-0.0959272,-0.133424,0.200806,-0.00236511
-0.437747,0.457829,-0.0313181,0.00414954,-0.091911,-0.156432,0.200806,-0.00236511
-0.246165,0.343115,-0.113004,0.012785,-0.064856,-0.24688,0.200806,-0.00236511
0.275949,0.353781,-0.0540778,0.00928322,0.0358329,-0.349821,0.200806,-0.00236511
0.780792,0.536979,0.049528,-0.0242665,0.129555,-0.321601,0.200806,-0.00236511
0.939364,0.681497,0.087465,-0.102184,0.167421,-0.145891,0.200806,-0.00236511
0.838508,0.615036,0.0139909,-0.187962,0.173126,0.0389344,0.200806,-0.00236511
0.681159,0.492299,-0.072933,-0.260358,0.211467,0.1308,0.200806,-0.00236511
0.584127,0.466485,-0.147513,-0.322786,0.253693,0.134617,0.200806,-0.00236511
0.519003,0.563315,-0.2388,-0.384464,0.28275,0.134837,0.200806,-0.00236511
0.419943,0.615819,-0.362843,-0.429041,0.283792,0.189251,0.200806,-0.00236511
0.343065,0.5475,-0.485934,-0.443386,0.278244,0.252525,0.200806,-0.00236511
0.253957,0.336877,-0.562135,-0.418272,0.25759,0.335488,0.200806,-0.00236511
0.153425,0.0771345,-0.597668,-0.394775,0.245867,0.402566,0.200806,-0.00236511
0.048683,-0.20837,-0.647576,-0.375712,0.213097,0.439136,0.200806,-0.00236511
-0.0724638,-0.501509,-0.749142,-0.363283,0.168032,0.475004,0.200806,-0.00236511
-0.169283,-0.642221,-0.882018,-0.355357,0.146731,0.471173,0.200806,-0.00236511
-0.292537,-0.78215,-0.990221,-0.309095,0.144717,0.472047,0.200806,-0.00236511
-0.492509,-0.886002,-1.06762,-0.23977,0.141246,0.486307,0.200806,-0.00236511
-0.748414,-1.02112,-1.13684,-0.167424,0.140768,0.475902,0.200806,-0.00236511
-0.909387,-1.07321,-1.16896,-0.0728767,0.140782,0.374371,0.200806,-0.00236511
-0.995351,-0.986798,-1.16076,-0.0153258,0.15693,0.244975,0.200806,-0.00236511
-1.06467,-1.01081,-1.14345,0.0623893,0.145162,0.138136,0.200806,-0.00236511
-1.145,-1.05513,-1.06295,0.154194,0.118119,0.0436535,0.200806,-0.00236511
-1.15515,-1.09411,-0.939499,0.212663,0.0889236,-0.055436,0.200806,-0.00236511
-1.03378,-1.00859,-0.858021,0.222405,0.0520226,-0.164744,0.200806,-0.00236511
-0.957405,-0.81863,-0.768696,0.227052,0.00494431,-0.220106,0.200806,-0.00236511
-0.957405,-0.81863,-0.768696,0.227052,0.00494431,-0.220106,0.235168,-0.00279236
-0.85803,-0.532087,-0.709217,0.20431,-0.0503906,-0.277035,0.235168,-0.00279236
-0.798196,-0.345571,-0.679716,0.172247,-0.0816282,-0.295476,0.235168,-0.00279236
-0.757597,-0.330776,-0.621256,0.175233,-0.125083,-0.314081,0.235168,-0.00279236
-0.722272,-0.329443,-0.553411,0.145192,-0.151466,-0.38458,0.235168,-0.00279236
-0.641957,-0.284588,-0.519875,0.100562,-0.20163,-0.485528,0.235168,-0.00279236
-0.598035,-0.143935,-0.593277,0.0449781,-0.267925,-0.576085,0.235168,-0.00279236
-0.563409,0.0391466,-0.70581,0.0246322,-0.330504,-0.639794,0.235168,-0.00279236
-0.438513,0.178653,-0.791671,0.0190884,-0.332092,-0.652709,0.235168,-0.00279236
-0.275398,0.257513,-0.782903,0.0576795,-0.301481,-0.599127,0.235168,-0.00279236
-0.163614,0.308035,-0.701677,0.10798,-0.290313,-0.491439,0.235168,-0.00279236
-0.0242082,0.465426,-0.537459,0.173843,-0.282842,-0.378594,0.235168,-0.00279236
0.142096,0.602043,-0.345295,0.201883,-0.254189,-0.244264,0.235168,-0.00279236
0.317535,0.554054,-0.0902997,0.232538,-0.228969,-0.0795189,0.235168,-0.00279236
0.541551,0.365396,0.169023,0.27187,-0.200104,0.0501845,0.235168,-0.00279236
0.674905,0.153435,0.435208,0.305171,-0.161161,0.158623,0.235168,-0.00279236
0.717963,-0.0156853,0.690019,0.331257,-0.144055,0.222375,0.235168,-0.00279236
0.707401,-0.188885,0.943054,0.351518,-0.109644,0.245421,0.235168,-0.00279236
0.705115,-0.269889,1.16119,0.350497,-0.0836053,0.220774,0.235168,-0.00279236
0.7736,-0.207048,1.33403,0.328658,-0.0534143,0.160468,0.235168,-0.00279236
0.96533,-0.100204,1.42401,0.291771,-0.0332573,0.0981407,0.235168,-0.00279236
1.16823,0.0627339,1.45626,0.271491,0.00332588,0.0992573,0.235168,-0.00279236
1.22246,0.250421,1.48651,0.2594,0.0487456,0.166546,0.235168,-0.00279236
1.15222,0.428391,1.51788,0.249318,0.0927185,0.258972,0.235168,-0.00279236
1.06361,0.454247,1.53002,0.235216,0.127881,0.30978,0.235168,-0.00279236
0.962719,0.305654,1.56626,0.244383,0.160054,0.341587,0.235168,-0.00279236
0.884625,0.0914303,1.60677,0.247801,0.173824,0.314928,0.235168,-0.00279236
0.870586,0.0062534,1.62224,0.228216,0.194097,0.216127,0.235168,-0.00279236
0.89196,0.174248,1.65908,0.199563,0.224778,0.0963593,0.235168,-0.00279236
0.834012,0.415172,1.59979,0.13285,0.224104,0.0311068,0.235168,-0.00279236
0.627695,0.474694,1.46489,0.0973018,0.168893,0.0128897,0.235168,-0.00279236
0.364741,0.294494,1.25277,0.0506825,0.121862,-0.0436357,0.235168,-0.00279236
0.13701,-0.00942822,1.02865,-0.0120515,0.10198,-0.171372,0.235168,-0.00279236
-0.00419014,-0.120259,0.789742,-0.0654711,0.0836435,-0.340934,0.235168,-0.00279236
-0.0581934,0.0636225,0.502674,-0.18259,0.0900383,-0.494929,0.235168,-0.00279236
-0.178301,0.350175,0.200443,-0.270704,0.0892414,-0.526343,0.235168,-0.00279236
-0.412996,0.633383,-0.0407222,-0.31844,0.0908838,-0.469982,0.235168,-0.00279236
-0.626742,0.701972,-0.220678,-0.356439,0.0810587,-0.398501,0.235168,-0.00279236
-0.568408,0.585715,-0.319676,-0.363226,0.0479824,-0.387786,0.235168,-0.00279236
-0.29422,0.509613,-0.431133,-0.396496,0.0701952,-0.355367,0.235168,-0.00279236
-0.0996424,0.4916,-0.536614,-0.404386,0.102444,-0.239498,0.235168,-0.00279236
-0.112371,0.535786,-0.72544,-0.395806,0.0810957,-0.110319,0.235168,-0.00279236
-0.22708,0.518912,-0.92666,-0.393213,0.0844005,-0.00573844,0.235168,-0.00279236
-0.227748,0.335567,-0.996698,-0.365759,0.130375,0.0290447,0.235168,-0.00279236
0.000731978,-0.042435,-0.965566,-0.319844,0.178405,0.0212259,0.235168,-0.00279236
0.307708,-0.408848,-0.931063,-0.306574,0.221142,0.029129,0.235168,-0.00279236
0.348003,-0.645103,-0.965635,-0.325958,0.240348,0.0972215,0.235168,-0.00279236
0.0237629,-0.82016,-1.11659,-0.348606,0.216103,0.166315,0.235168,-0.00279236
-0.353283,-0.821609,-1.29976,-0.322062,0.153026,0.152078,0.235168,-0.00279236
-0.541177,-0.602204,-1.41289,-0.269983,0.142614,0.107497,0.235168,-0.00279236
-0.589923,-0.477501,-1.43191,-0.206362,0.146436,0.146927,0.235168,-0.00279236
-0.510038,-0.459835,-1.42319,-0.18707,0.139381,0.199582,0.235168,-0.00279236
-0.41907,-0.511018,-1.42207,-0.133909,0.110893,0.261418,0.235168,-0.00279236
-0.29841,-0.512483,-1.34145,-0.0757927,0.0957271,0.296564,0.235168,-0.00279236
-0.117986,-0.529016,-1.22641,-0.0312463,0.0872856,0.326527,0.235168,-0.00279236
-0.117986,-0.529016,-1.22641,-0.0312463,0.0872856,0.326527,0.229889,-0.00273132
0.0963376,-0.544933,-1.10543,0.00569405,0.0769134,0.343225,0.229889,-0.00273132
0.261415,-0.609938,-1.037,0.0312241,0.0583588,0.380406,0.229889,-0.00273132
0.279806,-0.731445,-0.988158,0.0657067,0.0366199,0.412038,0.229889,-0.00273132
0.146645,-0.92541,-0.90385,0.109735,0.0251924,0.418663,0.229889,-0.00273132
-0.0225942,-1.07655,-0.793789,0.154377,-0.00258413,0.344469,0.229889,-0.00273132
-0.142056,-1.0812,-0.734414,0.13907,-0.0176905,0.19695,0.229889,-0.00273132
-0.248797,-1.00789,-0.679795,0.125441,-0.0300429,0.053027,0.229889,-0.00273132
-0.334478,-0.833416,-0.620283,0.118491,-0.0374137,-0.0930732,0.229889,-0.00273132
-0.482751,-0.458963,-0.634122,0.0737188,-0.040729,-0.178166,0.229889,-0.00273132
-0.728995,-0.216146,-0.681368,0.0562051,-0.0643581,-0.217488,0.229889,-0.00273132
-0.933565,-0.118181,-0.736769,0.0785759,-0.0967145,-0.274422,0.229889,-0.00273132
-1.04902,-0.0348294,-0.708452,0.132972,-0.094852,-0.354493,0.229889,-0.00273132
-1.02655,0.137142,-0.544365,0.195694,-0.0939381,-0.451251,0.229889,-0.00273132
-0.742399,0.344959,-0.325228,0.227189,-0.0738147,-0.563861,0.229889,-0.00273132
-0.382204,0.494686,-0.157302,0.216272,-0.0566223,-0.568534,0.229889,-0.00273132
-0.300547,0.421019,-0.0784201,0.198471,-0.0550374,-0.428483,0.229889,-0.00273132
-0.403598,0.366698,0.0088756,0.20633,-0.0507413,-0.309761,0.229889,-0.00273132
-0.384348,0.496126,0.174079,0.222247,-0.0192499,-0.278565,0.229889,-0.00273132
-0.209669,0.606834,0.385661,0.240423,-0.00622454,-0.234212,0.229889,-0.00273132
0.0267367,0.560559,0.560884,0.232826,-0.0232301,-0.163142,0.229889,-0.00273132
0.194425,0.420315,0.663188,0.206969,-0.0449807,-0.091746,0.229889,-0.00273132
0.200711,0.25633,0.727844,0.198123,-0.0720491,-0.0183608,0.229889,-0.00273132
0.108645,0.18296,0.760772,0.193183,-0.0775144,0.0250701,0.229889,-0.00273132
0.0788348,0.241577,0.795807,0.180172,-0.0611734,0.0284047,0.229889,-0.00273132
0.118453,0.308051,0.825979,0.163881,-0.0381354,0.0564363,0.229889,-0.00273132
0.184096,0.321837,0.835437,0.146904,-0.0385828,0.126268,0.229889,-0.00273132
0.218611,0.291522,0.78054,0.118441,-0.0596923,0.203942,0.229889,-0.00273132
0.213937,0.127474,0.703261,0.114655,-0.0666003,0.279448,0.229889,-0.00273132
0.194829,0.0535577,0.707774,0.159913,-0.0574551,0.296239,0.229889,-0.00273132
0.207845,0.0575935,0.808458,0.214055,-0.0231332,0.271293,0.229889,-0.00273132
0.268473,0.0957195,0.956132,0.240452,0.0107086,0.22325,0.229889,-0.00273132
0.374308,0.0699688,1.1012,0.241586,0.0349289,0.172,0.229889,-0.00273132
0.529602,-0.00397742,1.20257,0.201456,0.0691004,0.109655,0.229889,-0.00273132
0.657445,-0.125046,1.22086,0.148254,0.092281,0.0575697,0.229889,-0.00273132
0.723859,-0.171217,1.20269,0.128835,0.0984151,0.0118043,0.229889,-0.00273132
0.678261,-0.0409622,1.17174,0.103421,0.108232,-0.0284634,0.229889,-0.00273132
0.546309,0.0740758,1.14315,0.0936357,0.110947,-0.0457358,0.229889,-0.00273132
0.426635,0.177454,1.05124,0.02676,0.100315,-0.0663168,0.229889,-0.00273132
0.308418,0.167571,0.849312,-0.0250683,0.0652184,-0.0710574,0.229889,-0.00273132
0.08613,0.078653,0.59923,-0.0458663,0.0409234,-0.0536117,0.229889,-0.00273132
-0.264624,-0.0260651,0.364436,-0.0363086,0.0131696,-0.0581341,0.229889,-0.00273132
-0.518314,-0.00235111,0.205433,0.00219799,0.00255641,-0.143881,0.229889,-0.00273132
-0.608319,0.201724,0.141331,0.00380551,0.0298646,-0.265148,0.229889,-0.00273132
-0.581762,0.42366,0.136952,0.0166346,0.0167772,-0.325946,0.229889,-0.00273132
-0.33235,0.428997,0.0819244,0.003381,0.00514299,-0.318833,0.229889,-0.00273132
-0.368655,0.00765193,-0.0444742,-0.027743,-0.0501551,-0.258605,0.229889,-0.00273132
-0.450933,0.203639,-0.163497,-0.0993431,-0.0381618,-0.271113,0.229889,-0.00273132
-0.283414,0.484269,-0.159058,-0.0970971,0.0400093,-0.289854,0.229889,-0.00273132
-0.0291291,0.392251,0.0132488,-0.0546774,0.0939577,-0.216911,0.229889,-0.00273132
0.248137,0.158388,0.0718316,-0.097168,0.0989005,-0.134786,0.229889,-0.00273132
