rotationRate_x,rotationRate_y,rotationRate_z,acceleration_x,acceleration_y,acceleration_z,relativeAltitude,altitude_pressure
0.605141,0.0263084,0.188752,0.191167,0.153152,0.249,0.001,0.0001
0.837032,0.118773,0.228294,0.100613,0.171262,0.25942,0.001,0.0001
0.882042,0.159833,0.011603,-0.0143765,0.139443,0.289887,0.001,0.0001
0.761373,0.271454,-0.248019,-0.0550006,0.0935155,0.30997,0.001,0.0001
0.438657,0.391211,-0.375699,-0.0277675,0.0812811,0.317241,0.001,0.0001
-0.0822473,0.316513,-0.272462,0.024015,0.0671746,0.289056,0.001,0.0001
-0.414017,0.0526848,-0.188638,-0.078537,0.0299837,0.0737129,0.001,0.0001
-0.625421,-0.341184,-0.62357,-0.380803,-0.000237703,-0.2468,0.001,0.0001
-1.02149,-0.469822,-1.4259,-0.551116,-0.0716779,-0.489796,0.001,0.0001
-1.75815,-0.255066,-1.9136,-0.482135,-0.0691968,-0.607366,0.001,0.0001
-1.97924,0.431446,-1.66753,-0.331568,0.11917,-0.826249,0.001,0.0001
-1.4325,0.937297,-1.00122,-0.151475,0.230861,-0.960681,0.001,0.0001
-0.537623,0.618919,-0.301331,-0.00991588,0.137481,-0.850039,0.001,0.0001
0.226963,-0.1963,0.148747,-0.0903799,0.0705804,-0.611248,0.001,0.0001
0.482744,-0.776257,0.0955399,-0.278127,-0.0189562,-0.376284,0.001,0.0001
0.256543,-0.652754,-0.29139,-0.356608,-0.141464,-0.201757,0.001,0.0001
-0.121321,-0.169365,-0.65174,-0.331605,-0.154855,-0.0466961,0.001,0.0001
-0.386119,0.247641,-0.879225,-0.232566,-0.113672,0.056828,0.001,0.0001
-0.444216,0.319582,-0.904612,-0.103636,-0.0612808,0.142087,0.001,0.0001
-0.298811,0.142752,-0.79342,-0.00348803,-0.023424,0.190776,0.001,0.0001
-0.0604653,-0.023432,-0.656014,0.0504258,-0.00490712,0.217853,0.001,0.0001
0.107026,-0.100972,-0.520065,0.0810721,-0.00426981,0.258264,0.001,0.0001
0.134569,-0.113275,-0.394956,0.0945182,-0.0102144,0.317535,0.001,0.0001
0.0595059,-0.163799,-0.272414,0.115633,-0.0206522,0.36543,0.001,0.0001
0.00523768,-0.137317,-0.159599,0.11558,-0.0297786,0.349995,0.001,0.0001
0.034479,-0.0683823,-0.0769966,0.0909455,-0.022311,0.307193,0.001,0.0001
0.157884,0.0491623,-0.014383,0.0779264,-0.0225371,0.256145,0.001,0.0001
0.260916,0.0732882,0.0596017,0.0715881,-0.0127051,0.24946,0.001,0.0001
0.337796,0.13535,0.159586,0.0631323,-0.0133602,0.246634,0.001,0.0001
0.361364,0.202762,0.222037,0.0492864,-0.0248836,0.255174,0.001,0.0001
0.286793,0.164041,0.220637,0.0399351,-0.0703634,0.274266,0.001,0.0001
0.0695016,-0.0999798,0.213836,0.035093,-0.105787,0.29069,0.001,0.0001
-0.129928,-0.442031,0.143855,-0.0426318,-0.0846372,0.20463,0.001,0.0001
-0.0970278,-0.284123,-0.00482686,-0.103247,-0.0687568,0.02218,0.001,0.0001
0.210329,0.240487,-0.155481,-0.134886,-0.020742,-0.109146,0.001,0.0001
0.551738,0.780237,-0.0666716,-0.0794877,0.0396303,-0.0812889,0.001,0.0001
0.638525,0.710351,0.173582,0.00423128,0.0861204,0.120407,0.001,0.0001
0.71244,0.429491,0.381799,0.0205631,0.0645036,0.216324,0.001,0.0001
0.75895,0.0917413,0.43773,0.00327224,0.014937,0.199347,0.001,0.0001
0.605254,-0.21133,0.430976,-0.00399948,-0.0414864,0.124677,0.001,0.0001
0.274531,-0.299595,0.271389,-0.0427782,-0.090874,0.00621778,0.001,0.0001
-0.0663366,-0.274516,-0.0975692,-0.113669,-0.143596,-0.145022,0.001,0.0001
-0.420055,-0.314749,-0.411744,-0.0681106,-0.134554,-0.255213,0.001,0.0001
-0.786017,-0.306582,-0.530005,0.0125317,-0.0772071,-0.367687,0.001,0.0001
-1.16627,-0.620823,-0.550285,0.0562181,-0.0236874,-0.485497,0.001,0.0001
-1.07657,-0.526337,-0.590732,0.0519346,0.0155658,-0.740133,0.001,0.0001
-0.637571,0.0196372,-0.612991,0.024797,0.103302,-0.880382,0.001,0.0001
-0.255962,0.587258,-0.455713,0.0592907,0.162345,-0.780618,0.001,0.0001
-0.0616927,0.748757,-0.239581,0.139657,0.141697,-0.499205,0.001,0.0001
0.120717,0.544456,-0.0698682,0.128934,0.0748292,-0.248632,0.001,0.0001
0.386016,0.0874575,0.0228649,0.0687732,0.0303707,-0.0840438,0.001,0.0001
0.593767,-0.218964,-0.0711543,-0.0256257,0.0231249,0.0360523,0.001,0.0001
0.593767,-0.218964,-0.0711543,-0.0256257,0.0231249,0.0360523,-0.0449219,0.000526428
0.601106,-0.0762542,-0.164878,-0.0417178,0.0156596,0.142046,-0.0449219,0.000526428
0.349654,0.317185,-0.308226,-0.0438953,0.0296197,0.245581,-0.0449219,0.000526428
0.0223648,0.697515,-0.38926,0.00987619,0.0131668,0.319182,-0.0449219,0.000526428
-0.203928,0.719708,-0.324422,0.0653787,0.029259,0.356839,-0.0449219,0.000526428
-0.155442,0.438495,-0.194972,0.0980476,0.0447716,0.334174,-0.0449219,0.000526428
0.0672282,0.0629506,-0.154089,0.0882727,0.0376654,0.284069,-0.0449219,0.000526428
0.165792,-0.294686,-0.175478,0.0753851,0.0275994,0.265551,-0.0449219,0.000526428
0.0666478,-0.443757,-0.193756,0.0809061,0.0173948,0.234218,-0.0449219,0.000526428
-0.126848,-0.465452,-0.215431,0.0918563,0.0191271,0.17917,-0.0449219,0.000526428
-0.320106,-0.392797,-0.212665,0.0940541,0.0230823,0.105963,-0.0449219,0.000526428
-0.378098,-0.325784,-0.171643,0.0975076,0.0354402,0.0164115,-0.0449219,0.000526428
-0.222043,-0.232486,-0.0500325,0.115212,0.0493842,-0.0650346,-0.0449219,0.000526428
0.174237,-0.000654533,0.14808,0.139618,0.0675648,-0.113938,-0.0449219,0.000526428
0.566598,0.209707,0.381054,0.143899,0.0890536,-0.0494785,-0.0449219,0.000526428
0.748534,0.275221,0.562771,0.131165,0.0831953,0.126482,-0.0449219,0.000526428
0.77469,0.22086,0.647535,0.0934085,0.0671391,0.265926,-0.0449219,0.000526428
0.685528,0.0654706,0.641689,0.0620725,0.0482986,0.358204,-0.0449219,0.000526428
0.556055,-0.00864474,0.608246,0.0488146,0.0355531,0.372911,-0.0449219,0.000526428
0.473446,-0.0693734,0.636965,0.0727436,0.037584,0.351766,-0.0449219,0.000526428
0.363473,0.128658,0.654646,0.0635348,0.0381637,0.284302,-0.0449219,0.000526428
0.175765,0.389528,0.636317,0.0184598,0.0163723,0.215216,-0.0449219,0.000526428
-0.118617,0.403801,0.457598,-0.0616327,-0.0510074,0.136326,-0.0449219,0.000526428
-0.308923,0.201834,0.264012,-0.0505204,-0.137026,0.00310552,-0.0449219,0.000526428
-0.24897,-0.144616,0.112362,-0.024006,-0.140308,-0.158821,-0.0449219,0.000526428
-0.0472436,-0.376677,0.0891217,0.00661688,-0.0728077,-0.293035,-0.0449219,0.000526428
-0.0158961,-0.265856,0.14532,-0.0003778,-0.00875953,-0.364857,-0.0449219,0.000526428
-0.304078,-0.146117,0.142579,-0.05568,0.0224923,-0.353454,-0.0449219,0.000526428
-0.725805,-0.232521,-0.00788036,-0.124335,0.00380319,-0.355501,-0.0449219,0.000526428
-0.857343,-0.0975522,-0.0995559,-0.141387,0.0207252,-0.466625,-0.0449219,0.000526428
-0.640322,0.340722,0.00592003,-0.103547,0.0796835,-0.559123,-0.0449219,0.000526428
-0.287773,0.690901,0.289522,-0.0561973,0.123825,-0.501664,-0.0449219,0.000526428
-0.0804621,0.603934,0.520405,-0.0438855,0.0779778,-0.283244,-0.0449219,0.000526428
-0.0181594,0.278921,0.593198,-0.101269,0.00649405,-0.0916879,-0.0449219,0.000526428
-0.0460266,0.00531466,0.485707,-0.175096,-0.075269,0.0121028,-0.0449219,0.000526428
-0.106877,-0.0324924,0.250941,-0.228636,-0.127521,0.0393173,-0.0449219,0.000526428
-0.205497,0.101959,0.0241031,-0.224654,-0.137775,0.0621748,-0.0449219,0.000526428
-0.258204,0.297749,-0.119625,-0.185319,-0.1135,0.0892438,-0.0449219,0.000526428
-0.223666,0.428786,-0.143931,-0.122668,-0.0774054,0.125533,-0.0449219,0.000526428
-0.119994,0.420772,-0.0655698,-0.065445,-0.0411503,0.163929,-0.0449219,0.000526428
0.0558751,0.416878,0.050531,-0.0355013,-0.0220363,0.192409,-0.0449219,0.000526428
0.273442,0.448072,0.15872,-0.0391942,-0.0067226,0.215707,-0.0449219,0.000526428
0.440192,0.455533,0.254912,-0.0397827,0.00602084,0.259961,-0.0449219,0.000526428
0.482624,0.389157,0.361336,-0.0274295,-0.00114839,0.305806,-0.0449219,0.000526428
0.489067,0.230326,0.498052,-0.0193521,0.00647852,0.319298,-0.0449219,0.000526428
0.53974,0.0691099,0.573691,-0.0506271,0.0295,0.291295,-0.0449219,0.000526428
0.681009,-0.0990627,0.5247,-0.128705,0.0546485,0.236132,-0.0449219,0.000526428
0.845456,-0.29004,0.358168,-0.179135,0.0589328,0.185898,-0.0449219,0.000526428
0.923904,-0.372003,0.232924,-0.164722,0.0879482,0.16136,-0.0449219,0.000526428
0.859301,-0.326589,0.123331,-0.142552,0.10896,0.126225,-0.0449219,0.000526428
0.674871,-0.0222102,-0.00688074,-0.122837,0.0771918,0.0463467,-0.0449219,0.000526428
0.674871,-0.0222102,-0.00688074,-0.122837,0.0771918,0.0463467,-0.0449066,0.000526428
0.384845,0.206559,-0.192281,-0.0919577,0.0204673,-0.0342473,-0.0449066,0.000526428
0.145906,0.217675,-0.527727,-0.067787,-0.0628106,-0.092869,-0.0449066,0.000526428
0.00777572,0.0062824,-0.801405,-0.00936155,-0.0926394,-0.155715,-0.0449066,0.000526428
-0.0954142,-0.0648064,-1.00375,-0.0166989,0.000711441,-0.238122,-0.0449066,0.000526428
-0.431318,-0.100835,-1.09453,0.0342262,0.0699089,-0.238142,-0.0449066,0.000526428
-0.873103,-0.304218,-0.897184,0.152339,0.0990245,-0.23659,-0.0449066,0.000526428
-1.02044,-0.764906,-0.55838,0.175711,0.156752,-0.312871,-0.0449066,0.000526428
-0.838302,-1.03247,-0.200794,0.161497,0.18084,-0.444872,-0.0449066,0.000526428
-0.57096,-0.780581,0.131011,0.151827,0.13554,-0.522439,-0.0449066,0.000526428
-0.32682,-0.47732,0.3751,0.138722,0.0694825,-0.451676,-0.0449066,0.000526428
-0.301946,-0.424543,0.481187,0.11774,0.0138131,-0.233486,-0.0449066,0.000526428
-0.407868,-0.339491,0.478407,0.0889643,-0.0570941,-0.0718978,-0.0449066,0.000526428
-0.514854,-0.205398,0.210547,-0.00225121,-0.105189,0.00456643,-0.0449066,0.000526428
-0.562269,0.028238,-0.175614,-0.0403083,-0.146202,0.0263949,-0.0449066,0.000526428
-0.54635,0.417974,-0.414173,-0.0144346,-0.105875,0.0370988,-0.0449066,0.000526428
-0.451697,0.611423,-0.434705,0.0458544,-0.0423945,0.0793964,-0.0449066,0.000526428
-0.27737,0.480776,-0.355386,0.107884,-0.0367703,0.128186,-0.0449066,0.000526428
-0.0742538,0.133463,-0.247454,0.131985,-0.0557474,0.157457,-0.0449066,0.000526428
0.100169,-0.13585,-0.185167,0.0997281,-0.0740045,0.137764,-0.0449066,0.000526428
0.161318,-0.234032,-0.156194,0.0708131,-0.0824613,0.0981336,-0.0449066,0.000526428
0.135535,-0.185273,-0.116646,0.0561605,-0.0775782,0.051138,-0.0449066,0.000526428
0.135712,-0.0497703,-0.100646,0.0377613,-0.0715153,0.00266701,-0.0449066,0.000526428
0.183166,0.0223356,-0.115417,0.0229187,-0.0701036,-0.0229622,-0.0449066,0.000526428
0.250198,-0.000122257,-0.142805,0.0380028,-0.0718679,-0.0192823,-0.0449066,0.000526428
0.266203,0.00105167,-0.199834,0.0501625,-0.0707464,-0.0075562,-0.0449066,0.000526428
0.197137,0.0733612,-0.232156,0.0644126,-0.0440694,0.0240283,-0.0449066,0.000526428
0.137048,3.88667e-05,-0.188366,0.0864289,0.000291631,0.059815,-0.0449066,0.000526428
0.268913,-0.15844,-0.0799784,0.118968,0.0370601,0.0465063,-0.0449066,0.000526428
0.532962,-0.101855,0.0112048,0.126493,0.0735662,0.0281856,-0.0449066,0.000526428
0.667988,0.0958735,0.117897,0.116914,0.116179,0.103053,-0.0449066,0.000526428
0.678674,0.310019,0.252742,0.115304,0.143227,0.228008,-0.0449066,0.000526428
0.700685,0.406962,0.33777,0.0847438,0.165722,0.328999,-0.0449066,0.000526428
0.68464,0.371595,0.379585,0.0508358,0.1776,0.411351,-0.0449066,0.000526428
0.578107,0.198271,0.419509,0.0447743,0.174425,0.476548,-0.0449066,0.000526428
0.447321,-0.0338308,0.463687,0.0478914,0.144023,0.478121,-0.0449066,0.000526428
0.336495,-0.129538,0.475876,0.0382548,0.109601,0.395718,-0.0449066,0.000526428
0.236461,-0.0575867,0.405154,0.00847068,0.0708846,0.272796,-0.0449066,0.000526428
-0.203097,0.00522837,0.25438,0.0131988,-0.016669,0.201302,-0.0449066,0.000526428
-0.775837,0.00627079,0.149277,0.023596,-0.114877,0.0675879,-0.0449066,0.000526428
-0.978814,-0.359355,0.0575755,-0.0187829,-0.101356,-0.190341,-0.0449066,0.000526428
-0.707204,-0.647346,-0.068783,-0.0509103,-0.0672272,-0.493981,-0.0449066,0.000526428
-0.358504,-0.441486,-0.183619,-0.0775895,-0.0276122,-0.701131,-0.0449066,0.000526428
-0.323271,0.0426025,-0.167529,-0.0580079,0.0254435,-0.718336,-0.0449066,0.000526428
-0.490987,0.458261,0.00960623,0.00966752,0.0415908,-0.632274,-0.0449066,0.000526428
-0.489835,0.601251,0.327025,0.0546055,0.0643657,-0.541801,-0.0449066,0.000526428
-0.272261,0.618192,0.56659,0.0162759,0.0573108,-0.459664,-0.0449066,0.000526428
-0.0753519,0.477215,0.653951,-0.0669,-0.012472,-0.324697,-0.0449066,0.000526428
0.0056122,0.27234,0.652055,-0.121042,-0.0812624,-0.165169,-0.0449066,0.000526428
0.000269303,0.181246,0.533539,-0.177454,-0.130847,-0.0363382,-0.0449066,0.000526428
-0.0821631,0.174171,0.337902,-0.21894,-0.150968,0.0760903,-0.0449066,0.000526428
-0.221864,0.163292,0.166944,-0.207199,-0.149413,0.171712,-0.0449066,0.000526428
-0.221864,0.163292,0.166944,-0.207199,-0.149413,0.171712,-0.129486,0.00154114
-0.299631,0.149563,0.0400351,-0.165985,-0.134494,0.227261,-0.129486,0.00154114
-0.27817,0.104644,-0.0072049,-0.115642,-0.0913601,0.254616,-0.129486,0.00154114
-0.169798,0.0625578,0.0581762,-0.0515216,-0.0535983,0.274285,-0.129486,0.00154114
-0.00887251,0.00145103,0.193367,-0.0116771,-0.0166832,0.297903,-0.129486,0.00154114
0.153497,-0.0290457,0.32972,-0.00718027,0.00819905,0.318533,-0.129486,0.00154114
0.244879,-0.000919216,0.398803,-0.0265544,0.0148736,0.341952,-0.129486,0.00154114
0.228047,0.0975363,0.403146,-0.0634936,0.0122527,0.360456,-0.129486,0.00154114
0.183545,0.126067,0.380542,-0.0860935,0.00814247,0.363097,-0.129486,0.00154114
0.20303,0.0505033,0.362523,-0.084721,0.0123011,0.335214,-0.129486,0.00154114
0.290886,-0.012557,0.308214,-0.125753,0.0312868,0.26788,-0.129486,0.00154114
0.405034,-0.0544344,0.1624,-0.179303,0.0372591,0.203523,-0.129486,0.00154114
0.545614,-0.230492,0.0348929,-0.190973,0.0460976,0.161554,-0.129486,0.00154114
0.70085,-0.373526,-0.0812914,-0.164327,0.0604236,0.105127,-0.129486,0.00154114
0.720447,-0.250499,-0.198394,-0.119238,0.0551062,0.0707756,-0.129486,0.00154114
0.488415,-0.0641589,-0.418615,-0.110586,0.00253394,0.0392529,-0.129486,0.00154114
0.0730172,0.0198768,-0.768793,-0.114772,-0.0947842,-0.00285536,-0.129486,0.00154114
-0.432928,-0.189427,-1.0474,-0.111842,-0.12621,-0.0615469,-0.129486,0.00154114
-1.03075,-0.623303,-1.32977,-0.185569,-0.0772573,-0.192817,-0.129486,0.00154114
-1.32159,-0.697891,-1.58907,-0.163581,-0.0802287,-0.451578,-0.129486,0.00154114
-1.08678,-0.430629,-1.40453,-0.00972001,0.00743242,-0.729867,-0.129486,0.00154114
-0.703922,-0.410489,-0.843608,0.108151,0.117894,-0.785097,-0.129486,0.00154114
-0.460586,-0.661669,-0.488292,0.131411,0.113907,-0.683543,-0.129486,0.00154114
-0.310074,-0.563633,-0.376475,0.118545,0.0436983,-0.580796,-0.129486,0.00154114
-0.170748,-0.229838,-0.292783,0.1744,0.0244611,-0.440537,-0.129486,0.00154114
-0.120616,-0.0613086,-0.164414,0.227511,0.0492607,-0.210605,-0.129486,0.00154114
-0.082723,-0.0393244,0.00274634,0.268094,0.054435,-0.0178083,-0.129486,0.00154114
0.0323,-0.0477281,0.116126,0.257834,0.0525668,0.119869,-0.129486,0.00154114
0.164981,-0.00540936,0.114971,0.195407,0.0514612,0.236351,-0.129486,0.00154114
0.206897,0.010822,0.0635725,0.158485,0.0340623,0.351925,-0.129486,0.00154114
0.166319,-0.0175468,-0.0215576,0.146637,0.0173216,0.443546,-0.129486,0.00154114
0.0815964,-0.0730361,-0.110347,0.13827,0.0241906,0.504586,-0.129486,0.00154114
-0.00378224,-0.0666435,-0.145417,0.142287,0.038719,0.523896,-0.129486,0.00154114
0.00157761,0.0245004,-0.103801,0.154858,0.0634937,0.498051,-0.129486,0.00154114
0.104482,0.145435,-0.11855,0.11672,0.0691463,0.45673,-0.129486,0.00154114
0.193035,0.138813,-0.148799,0.0918866,0.050265,0.44853,-0.129486,0.00154114
0.126897,-0.0781416,-0.192481,0.0920263,0.0348888,0.469212,-0.129486,0.00154114
0.0460778,-0.366754,-0.220392,0.0808318,0.0202276,0.418558,-0.129486,0.00154114
0.0746453,-0.525855,-0.221823,0.0816377,0.0441431,0.279954,-0.129486,0.00154114
0.126188,-0.417795,-0.157663,0.0762645,0.0837132,0.145724,-0.129486,0.00154114
0.257323,-0.209652,-0.0638982,0.0645031,0.0681141,-0.0196398,-0.129486,0.00154114
0.219713,-0.275276,-0.0292644,0.0641466,0.00520483,-0.111769,-0.129486,0.00154114
-0.0159176,-0.369218,-0.0186329,0.0518652,-0.0683407,-0.200769,-0.129486,0.00154114
-0.323528,-0.600292,-0.107335,-0.010197,-0.0882679,-0.34305,-0.129486,0.00154114
-0.670962,-0.668913,-0.274667,-0.12568,-0.0570056,-0.546822,-0.129486,0.00154114
-0.930826,-0.532681,-0.389399,-0.156434,-0.0353757,-0.739705,-0.129486,0.00154114
-0.941903,-0.19359,-0.287131,-0.11098,0.0597785,-0.88022,-0.129486,0.00154114
-0.756197,0.322613,0.0825074,-0.0591291,0.157929,-0.905736,-0.129486,0.00154114
-0.339111,0.781433,0.585719,-0.00733241,0.164258,-0.80895,-0.129486,0.00154114
0.191355,0.862307,0.957604,-0.0172388,0.0801029,-0.567992,-0.129486,0.00154114
0.584066,0.636345,1.10568,-0.112979,-0.000188053,-0.275237,-0.129486,0.00154114
0.584066,0.636345,1.10568,-0.112979,-0.000188053,-0.275237,-0.179672,0.00211334
0.71183,0.329424,1.00467,-0.204412,-0.0898018,-0.0133455,-0.179672,0.00211334
0.589079,0.0901471,0.637027,-0.29021,-0.16672,0.178664,-0.179672,0.00211334
0.303938,-0.0133675,0.204376,-0.294713,-0.196531,0.306045,-0.179672,0.00211334
-0.00586937,0.0550302,-0.0653142,-0.222297,-0.162991,0.363672,-0.179672,0.00211334
-0.171572,0.205127,-0.156228,-0.128627,-0.104394,0.356404,-0.179672,0.00211334
-0.156121,0.257308,-0.140878,-0.0651888,-0.0636842,0.332637,-0.179672,0.00211334
-0.0397857,0.164194,-0.101217,-0.0390818,-0.0462729,0.328503,-0.179672,0.00211334
0.0836414,0.0311103,-0.111729,-0.0438442,-0.044666,0.335171,-0.179672,0.00211334
0.151789,0.0180088,-0.144618,-0.0506657,-0.0313622,0.325379,-0.179672,0.00211334
0.180227,0.137666,-0.131056,-0.0360623,-0.00947839,0.307622,-0.179672,0.00211334
0.217239,0.262105,-0.0656103,-0.023377,0.0221556,0.300133,-0.179672,0.00211334
0.253962,0.249115,0.00783384,-0.0344921,0.0455127,0.309096,-0.179672,0.00211334
0.306287,0.0873183,0.0206977,-0.0610163,0.0385405,0.303026,-0.179672,0.00211334
0.387033,-0.032283,-0.028509,-0.0903699,0.0383183,0.267852,-0.179672,0.00211334
0.472158,-0.0577071,-0.0899761,-0.112137,0.0567237,0.218451,-0.179672,0.00211334
0.517618,0.0154375,-0.158225,-0.132352,0.079744,0.18214,-0.179672,0.00211334
0.473071,0.109596,-0.223445,-0.139551,0.0933948,0.151755,-0.179672,0.00211334
0.375013,0.143593,-0.263004,-0.0817972,0.0345625,0.115855,-0.179672,0.00211334
0.207511,0.177379,-0.353172,-0.0397064,-0.0555438,0.0415797,-0.179672,0.00211334
-0.224778,0.0928981,-0.527023,-0.0398282,-0.123794,-0.0208271,-0.179672,0.00211334
-0.721327,-0.400221,-0.78895,-0.0428012,-0.173712,-0.147121,-0.179672,0.00211334
-0.984112,-0.969071,-1.16867,-0.0634284,-0.185934,-0.410661,-0.179672,0.00211334
-0.809453,-0.959499,-1.38647,-0.00370312,-0.123807,-0.764299,-0.179672,0.00211334
-0.373555,-0.285744,-1.27511,0.0930492,0.0222929,-0.992493,-0.179672,0.00211334
-0.0123706,0.390842,-0.853469,0.195175,0.138685,-0.954436,-0.179672,0.00211334
0.114133,0.544273,-0.388252,0.24561,0.160487,-0.695728,-0.179672,0.00211334
0.220651,0.316363,-0.105544,0.183294,0.0929435,-0.453306,-0.179672,0.00211334
0.357587,0.120642,-0.0201629,0.105686,0.0169714,-0.298905,-0.179672,0.00211334
0.469394,0.145754,-0.011079,0.0504588,-0.0163408,-0.169007,-0.179672,0.00211334
0.502155,0.263579,0.0244516,0.0202651,0.0210838,-0.00915307,-0.179672,0.00211334
0.511875,0.312428,0.108589,0.0207626,0.034518,0.157633,-0.179672,0.00211334
0.559455,0.232357,0.146385,-0.00594996,0.0429705,0.285766,-0.179672,0.00211334
0.624396,0.0436659,0.14035,-0.0343441,0.0429327,0.395048,-0.179672,0.00211334
0.655013,-0.147316,0.0412132,-0.073252,0.0378637,0.473631,-0.179672,0.00211334
0.626595,-0.33575,-0.112875,-0.0961572,0.0348141,0.537704,-0.179672,0.00211334
0.567919,-0.398757,-0.284551,-0.101105,0.0525767,0.557882,-0.179672,0.00211334
0.468021,-0.324404,-0.446092,-0.0912013,0.0828834,0.564205,-0.179672,0.00211334
0.358277,-0.219088,-0.546026,-0.0605681,0.130342,0.561846,-0.179672,0.00211334
0.151193,-0.352108,-0.66269,-0.0434062,0.153257,0.583439,-0.179672,0.00211334
-0.138952,-0.592657,-0.79769,-0.0160298,0.137114,0.551592,-0.179672,0.00211334
-0.381054,-0.70584,-0.893432,0.0149164,0.142695,0.413456,-0.179672,0.00211334
-0.491766,-0.713236,-0.870886,0.0601815,0.179724,0.254864,-0.179672,0.00211334
-0.404682,-0.484784,-0.736841,0.129744,0.1751,0.0833365,-0.179672,0.00211334
-0.329876,-0.139223,-0.585419,0.159433,0.140404,-0.0255501,-0.179672,0.00211334
-0.48181,0.0210133,-0.437686,0.18578,0.0538988,-0.0648792,-0.179672,0.00211334
-0.69512,-0.122612,-0.345146,0.158407,-0.0369019,-0.127339,-0.179672,0.00211334
-0.774801,-0.500311,-0.365336,0.108576,-0.0777365,-0.269068,-0.179672,0.00211334
-0.903159,-0.798563,-0.452738,0.0325721,-0.0757995,-0.430662,-0.179672,0.00211334
-1.06974,-0.567427,-0.476146,-0.00267015,-0.0723146,-0.612038,-0.179672,0.00211334
-1.06758,0.0993363,-0.273028,0.01787,-0.0350341,-0.760628,-0.179672,0.00211334
-0.812558,0.673703,0.140893,0.0432847,0.00728287,-0.79388,-0.179672,0.00211334
-0.382648,0.684928,0.505107,0.0279394,-0.0302859,-0.669634,-0.179672,0.00211334
0.0788661,0.473264,0.702841,-0.0663037,-0.0988003,-0.4958,-0.179672,0.00211334
0.444956,0.432337,0.728313,-0.187932,-0.163468,-0.312204,-0.179672,0.00211334
0.661756,0.509272,0.601202,-0.261635,-0.215404,-0.112399,-0.179672,0.00211334
0.694748,0.594915,0.39294,-0.29406,-0.243103,0.112002,-0.179672,0.00211334
0.600963,0.625527,0.200189,-0.28005,-0.256681,0.309172,-0.179672,0.00211334
0.482054,0.567041,0.0547485,-0.261858,-0.255439,0.446175,-0.179672,0.00211334
0.410808,0.441984,-0.176812,-0.285067,-0.272516,0.533409,-0.179672,0.00211334
0.379683,0.312717,-0.479086,-0.304306,-0.289286,0.576747,-0.179672,0.00211334
0.392938,0.138378,-0.765317,-0.279046,-0.285212,0.581455,-0.179672,0.00211334
0.409354,-0.0685323,-0.887427,-0.182707,-0.243374,0.562768,-0.179672,0.00211334
0.354236,-0.243111,-0.871944,-0.0792896,-0.185972,0.516817,-0.179672,0.00211334
0.228173,-0.345608,-0.837632,-0.0149338,-0.148043,0.413295,-0.179672,0.00211334
0.149483,-0.514831,-0.91277,-0.0229787,-0.122652,0.224118,-0.179672,0.00211334
0.194258,-0.685437,-0.940531,0.00901687,-0.052727,-0.00612098,-0.179672,0.00211334
0.341234,-0.37125,-0.926592,0.0270777,0.0136648,-0.275068,-0.179672,0.00211334
0.437536,0.16412,-0.896539,0.0450854,0.061903,-0.484285,-0.179672,0.00211334
0.374203,0.410606,-0.85557,0.0591101,0.0906013,-0.592973,-0.179672,0.00211334
0.324177,0.242455,-0.87143,-0.00395549,0.139135,-0.643005,-0.179672,0.00211334
0.412035,0.0282939,-0.97756,-0.0737472,0.208429,-0.69375,-0.179672,0.00211334
0.581475,0.0772569,-0.937858,-0.0491308,0.269342,-0.703287,-0.179672,0.00211334
0.764035,0.375454,-0.720878,0.0099706,0.312758,-0.599983,-0.179672,0.00211334
0.796172,0.558244,-0.461894,0.0312549,0.330099,-0.360834,-0.179672,0.00211334
0.599308,0.49063,-0.243943,0.0429184,0.281081,-0.107474,-0.179672,0.00211334
0.118973,0.139662,-0.115189,0.0240708,0.212424,0.0880114,-0.179672,0.00211334
0.118973,0.139662,-0.115189,0.0240708,0.212424,0.0880114,-0.216675,0.00256348
-0.477255,-0.39637,-0.0684283,-0.0336028,0.141829,0.17237,-0.216675,0.00256348
-0.950933,-0.839538,-0.0933046,-0.0899811,0.0986252,0.116678,-0.216675,0.00256348
-1.12987,-0.906027,-0.110176,-0.131022,0.0716234,-0.0712329,-0.216675,0.00256348
-0.937951,-0.771697,-0.0743212,-0.1511,0.0502411,-0.232669,-0.216675,0.00256348
-0.436286,-0.55293,-0.0286332,-0.158845,0.0266779,-0.299519,-0.216675,0.00256348
0.0405267,-0.330156,-0.00801565,-0.181072,0.00313681,-0.229824,-0.216675,0.00256348
0.238367,-0.18457,-0.0403366,-0.209374,-0.0304298,-0.0244586,-0.216675,0.00256348
0.269171,-0.10583,-0.184864,-0.246882,-0.0675809,0.178205,-0.216675,0.00256348
0.2636,-0.15354,-0.447583,-0.287345,-0.0908204,0.303571,-0.216675,0.00256348
0.289409,-0.255689,-0.741328,-0.285952,-0.102742,0.370669,-0.216675,0.00256348
0.294583,-0.424936,-1.01063,-0.253283,-0.087434,0.396762,-0.216675,0.00256348
0.209284,-0.6602,-1.23036,-0.191124,-0.0749743,0.407047,-0.216675,0.00256348
0.00930966,-0.90247,-1.37877,-0.11697,-0.0522932,0.380689,-0.216675,0.00256348
-0.237003,-1.11404,-1.49354,-0.0638295,-0.0230851,0.268471,-0.216675,0.00256348
-0.391221,-1.14914,-1.66092,-0.0539246,0.00111353,0.0829149,-0.216675,0.00256348
-0.418747,-0.700585,-1.8584,-0.0524622,0.00453633,-0.148852,-0.216675,0.00256348
-0.571119,-0.252418,-1.9199,0.0164827,0.00917105,-0.25038,-0.216675,0.00256348
-0.782072,-0.593034,-1.92798,0.0611406,0.0342421,-0.253147,-0.216675,0.00256348
-0.810477,-1.02081,-1.94597,0.0927111,0.055955,-0.384356,-0.216675,0.00256348
-0.601912,-0.840173,-1.82092,0.117552,0.0904664,-0.595781,-0.216675,0.00256348
-0.137041,-0.212517,-1.49241,0.139891,0.154804,-0.713981,-0.216675,0.00256348
0.29088,0.377717,-1.10874,0.153079,0.184698,-0.620355,-0.216675,0.00256348
0.471363,0.726242,-0.820036,0.0910097,0.170078,-0.350207,-0.216675,0.00256348
0.613118,0.776217,-0.633692,-0.00654045,0.148233,-0.109256,-0.216675,0.00256348
0.745823,0.588372,-0.488379,-0.0840112,0.14437,0.0748729,-0.216675,0.00256348
0.80962,0.264813,-0.425189,-0.176376,0.125713,0.203319,-0.216675,0.00256348
0.717332,-0.139196,-0.546377,-0.283401,0.110663,0.283166,-0.216675,0.00256348
0.430922,-0.428533,-0.845039,-0.377874,0.0989677,0.323239,-0.216675,0.00256348
0.0338064,-0.517821,-1.18113,-0.41018,0.0934639,0.310971,-0.216675,0.00256348
-0.330637,-0.470012,-1.4308,-0.355657,0.0961228,0.25827,-0.216675,0.00256348
-0.525809,-0.306802,-1.4599,-0.25089,0.124832,0.159475,-0.216675,0.00256348
-0.553554,-0.253574,-1.35442,-0.187827,0.15063,0.0899526,-0.216675,0.00256348
-0.438176,-0.367985,-1.26944,-0.156584,0.111058,0.0422112,-0.216675,0.00256348
-0.291935,-0.49746,-1.26475,-0.141841,0.0487838,0.0136986,-0.216675,0.00256348
-0.237705,-0.474205,-1.26163,-0.128357,0.00663026,0.00608075,-0.216675,0.00256348
-0.269819,-0.291718,-1.2762,-0.11253,-0.023231,0.010424,-0.216675,0.00256348
-0.327878,-0.154605,-1.27254,-0.0922579,-0.0539543,0.0270204,-0.216675,0.00256348
-0.361164,-0.139263,-1.20092,-0.0475519,-0.0822542,0.0402204,-0.216675,0.00256348
-0.30097,-0.188325,-1.09382,-0.0194933,-0.0976952,0.0194413,-0.216675,0.00256348
-0.194692,-0.236661,-1.01252,-0.0162565,-0.115274,-0.014536,-0.216675,0.00256348
-0.120695,-0.201906,-0.918058,0.0017608,-0.123889,-0.033309,-0.216675,0.00256348
-0.0790916,-0.107355,-0.833732,-0.018471,-0.119715,-0.0613327,-0.216675,0.00256348
-0.0134828,-0.0629874,-0.758017,-0.0152912,-0.122744,-0.0925568,-0.216675,0.00256348
0.105236,-0.0371039,-0.673663,-0.0129526,-0.120369,-0.12625,-0.216675,0.00256348
0.280041,0.0197674,-0.599331,-0.0364858,-0.0971206,-0.168087,-0.216675,0.00256348
0.401647,-0.0364218,-0.563177,-0.0580037,-0.0979311,-0.144505,-0.216675,0.00256348
0.375255,-0.239537,-0.642046,-0.107411,-0.102435,-0.105607,-0.216675,0.00256348
0.264507,-0.356315,-0.826901,-0.172407,-0.0925249,-0.121455,-0.216675,0.00256348
0.216447,-0.102674,-1.01595,-0.205628,-0.0541388,-0.198891,-0.216675,0.00256348
0.322758,0.283733,-1.12996,-0.191616,0.00012593,-0.236446,-0.216675,0.00256348
0.550073,0.498407,-1.14066,-0.149022,0.0590607,-0.174018,-0.216675,0.00256348
0.686496,0.41349,-1.06472,-0.106225,0.107927,-0.00682706,-0.216675,0.00256348
0.689338,0.0897592,-0.980392,-0.0876345,0.122762,0.151519,-0.216675,0.00256348
0.689338,0.0897592,-0.980392,-0.0876345,0.122762,0.151519,-0.0607605,0.000747681
0.62872,-0.280474,-0.96695,-0.0998744,0.113674,0.224352,-0.0607605,0.000747681
0.541822,-0.419555,-1.02981,-0.12091,0.0986178,0.21225,-0.0607605,0.000747681
0.388356,-0.390073,-1.17782,-0.145773,0.097146,0.195361,-0.0607605,0.000747681
0.0871299,-0.372855,-1.32588,-0.133886,0.0937897,0.21702,-0.0607605,0.000747681
-0.261771,-0.467103,-1.43707,-0.110844,0.0951704,0.220032,-0.0607605,0.000747681
-0.460619,-0.563605,-1.53377,-0.0800504,0.0900466,0.133598,-0.0607605,0.000747681
-0.484699,-0.551382,-1.60981,-0.0471229,0.100756,0.0194674,-0.0607605,0.000747681
-0.454844,-0.424216,-1.62791,-0.00754973,0.105417,-0.051726,-0.0607605,0.000747681
-0.421629,-0.276323,-1.59311,0.0332045,0.102209,-0.0727051,-0.0607605,0.000747681
-0.365995,-0.168828,-1.48449,0.0815161,0.0835104,-0.0656879,-0.0607605,0.000747681
-0.247347,-0.138244,-1.3867,0.0898149,0.066578,-0.0401573,-0.0607605,0.000747681
-0.114049,-0.184219,-1.37442,0.0692254,0.0293202,0.00706857,-0.0607605,0.000747681
-0.099085,-0.320762,-1.39003,0.0616925,0.00250135,0.0827175,-0.0607605,0.000747681
-0.154435,-0.375984,-1.39654,0.0697585,-0.014924,0.126202,-0.0607605,0.000747681
-0.17947,-0.326684,-1.4145,0.0668807,-0.0177845,0.120011,-0.0607605,0.000747681
-0.165167,-0.327516,-1.44557,0.0638547,-0.0219848,0.117554,-0.0607605,0.000747681
-0.136833,-0.44494,-1.50294,0.0641972,-0.0336522,0.117495,-0.0607605,0.000747681
-0.141522,-0.544858,-1.59846,0.0627588,-0.0489214,0.0999029,-0.0607605,0.000747681
-0.24309,-0.628291,-1.70498,0.0681458,-0.0570309,0.0753154,-0.0607605,0.000747681
-0.38306,-0.640792,-1.79787,0.0639336,-0.0473495,0.0125656,-0.0607605,0.000747681
-0.439236,-0.541025,-1.88935,0.0729894,-0.0515265,-0.097269,-0.0607605,0.000747681
-0.486601,-0.410764,-1.9605,0.0905642,-0.057801,-0.181868,-0.0607605,0.000747681
-0.645932,-0.504095,-1.98621,0.0939185,-0.0532735,-0.210515,-0.0607605,0.000747681
-0.723372,-0.55968,-1.99048,0.0700129,-0.0154177,-0.292355,-0.0607605,0.000747681
-0.478371,-0.222194,-1.87691,0.067513,0.0115145,-0.435691,-0.0607605,0.000747681
0.00991299,0.296838,-1.62281,0.107442,0.0394247,-0.481146,-0.0607605,0.000747681
0.324485,0.397078,-1.28069,0.128269,0.0668108,-0.315646,-0.0607605,0.000747681
0.41776,0.0573261,-1.04284,0.085028,0.0377295,-0.114863,-0.0607605,0.000747681
0.402375,-0.307308,-1.00525,-0.00630452,0.00391228,-0.0349003,-0.0607605,0.000747681
0.322529,-0.30423,-1.03757,-0.111821,0.0175914,-0.044683,-0.0607605,0.000747681
0.240402,-0.0556043,-1.10307,-0.183138,0.0454859,-0.0734915,-0.0607605,0.000747681
0.194311,0.0498002,-1.14072,-0.20018,0.0653324,-0.059455,-0.0607605,0.000747681
0.201589,-0.0309449,-1.10032,-0.178866,0.0881835,-0.0306098,-0.0607605,0.000747681
0.226054,-0.117783,-1.05484,-0.170234,0.0970453,-0.00936615,-0.0607605,0.000747681
0.21331,-0.107296,-1.0384,-0.158632,0.0783702,0.0116241,-0.0607605,0.000747681
0.147866,-0.0763611,-0.984187,-0.127947,0.069671,0.0549482,-0.0607605,0.000747681
0.128137,-0.020098,-0.905676,-0.107331,0.0558886,0.0683075,-0.0607605,0.000747681
0.14859,-0.0657095,-0.769782,-0.0745867,0.0505369,0.0892974,-0.0607605,0.000747681
0.129114,-0.161335,-0.597261,-0.0522032,0.0309614,0.126943,-0.0607605,0.000747681
0.103422,-0.207677,-0.513838,-0.0695198,-0.0198453,0.143433,-0.0607605,0.000747681
0.0670357,-0.202735,-0.535147,-0.0988992,-0.06525,0.147141,-0.0607605,0.000747681
0.0101652,-0.160901,-0.566969,-0.102028,-0.100658,0.137909,-0.0607605,0.000747681
0.000824637,-0.150411,-0.565353,-0.0882894,-0.100358,0.128374,-0.0607605,0.000747681
0.0500239,-0.182696,-0.531198,-0.0615462,-0.0985215,0.115134,-0.0607605,0.000747681
0.147231,-0.205475,-0.464998,-0.0425317,-0.103963,0.095431,-0.0607605,0.000747681
0.247794,-0.200884,-0.447992,-0.0503452,-0.110728,0.0854667,-0.0607605,0.000747681
0.234083,-0.152399,-0.465997,-0.0666066,-0.115589,0.108242,-0.0607605,0.000747681
0.132463,-0.0780738,-0.505119,-0.0737797,-0.12378,0.123316,-0.0607605,0.000747681
0.0348509,0.0209745,-0.541834,-0.071033,-0.123791,0.111596,-0.0607605,0.000747681
-0.00939191,0.0904767,-0.531254,-0.0427616,-0.117896,0.0805372,-0.0607605,0.000747681
0.0151714,0.0798683,-0.455106,-0.00219349,-0.113125,0.0325899,-0.0607605,0.000747681
0.102467,0.0387726,-0.303016,0.0446936,-0.103955,-0.0213344,-0.0607605,0.000747681
0.195463,0.0836224,-0.152631,0.0430142,-0.0879759,-0.0899484,-0.0607605,0.000747681
0.294521,0.17405,-0.0364353,0.0217634,-0.0840634,-0.144359,-0.0607605,0.000747681
0.294521,0.17405,-0.0364353,0.0217634,-0.0840634,-0.144359,-0.251022,0.00297546
0.452188,0.318351,0.0306204,-0.0140037,-0.0886519,-0.195525,-0.251022,0.00297546
0.631516,0.456413,0.0775754,-0.0526424,-0.0791868,-0.210464,-0.251022,0.00297546
0.663503,0.440676,0.101213,-0.0649664,-0.0749703,-0.139832,-0.251022,0.00297546
0.494585,0.259396,0.0504754,-0.111714,-0.0818356,-0.0622465,-0.251022,0.00297546
0.361696,-0.0188876,-0.122327,-0.177722,-0.0882568,-0.0659571,-0.251022,0.00297546
0.466343,0.0810414,-0.391775,-0.201237,-0.0669362,-0.168554,-0.251022,0.00297546
0.623307,0.500359,-0.460573,-0.137564,0.0201542,-0.180431,-0.251022,0.00297546
0.658394,0.776042,-0.31392,-0.0148785,0.103724,-0.0135807,-0.251022,0.00297546
0.621935,0.651531,-0.102546,0.060699,0.121586,0.164262,-0.251022,0.00297546
0.495723,0.173553,0.0196336,0.0820994,0.0875191,0.287955,-0.251022,0.00297546
0.23633,-0.262807,-0.00636944,0.0653396,0.0230193,0.309394,-0.251022,0.00297546
-0.0893274,-0.60485,-0.127247,0.00977468,0.0197786,0.24504,-0.251022,0.00297546
-0.35535,-0.699433,-0.328767,-0.00891882,0.0234844,0.0962635,-0.251022,0.00297546
-0.587122,-0.620025,-0.438479,-0.00147482,0.0765774,-0.0540056,-0.251022,0.00297546
-0.5646,-0.280022,-0.382938,0.0502886,0.121703,-0.230996,-0.251022,0.00297546
-0.292904,0.171446,-0.182496,0.100753,0.164985,-0.341732,-0.251022,0.00297546
0.0784867,0.450306,0.100985,0.127836,0.183002,-0.303963,-0.251022,0.00297546
0.387979,0.431011,0.305551,0.0955295,0.168357,-0.159139,-0.251022,0.00297546
0.50964,0.283413,0.361317,0.0298757,0.124366,0.0115805,-0.251022,0.00297546
0.460148,0.172803,0.29315,-0.0287896,0.0907454,0.13329,-0.251022,0.00297546
0.287727,0.0982308,0.191065,-0.0631582,0.0712677,0.2145,-0.251022,0.00297546
0.0706123,0.00907107,0.0620275,-0.0774608,0.0522614,0.253207,-0.251022,0.00297546
-0.108699,-0.123233,-0.0825426,-0.0725076,0.0312741,0.250489,-0.251022,0.00297546
-0.220236,-0.227918,-0.21119,-0.0545053,0.0219801,0.204742,-0.251022,0.00297546
-0.255786,-0.279715,-0.308539,-0.0297932,0.0227564,0.134913,-0.251022,0.00297546
-0.279597,-0.331422,-0.370946,0.00647277,0.0309928,0.0744433,-0.251022,0.00297546
-0.29465,-0.316388,-0.410169,0.0387085,0.0303155,0.0166708,-0.251022,0.00297546
-0.322653,-0.281777,-0.423597,0.0621717,0.0412004,-0.0263531,-0.251022,0.00297546
-0.303989,-0.171471,-0.408058,0.067338,0.043993,-0.0728259,-0.251022,0.00297546
-0.184374,-0.00730885,-0.392631,0.0716502,0.0327552,-0.118282,-0.251022,0.00297546
-0.0187188,0.139996,-0.360221,0.0816842,0.020519,-0.113778,-0.251022,0.00297546
0.136757,0.211505,-0.257808,0.0939336,0.0287626,-0.0582273,-0.251022,0.00297546
0.224029,0.164305,-0.154867,0.0983307,0.0224545,0.0429515,-0.251022,0.00297546
0.251969,0.104465,-0.107335,0.0700586,0.00284523,0.129038,-0.251022,0.00297546
0.247263,0.0718654,-0.12374,0.0373377,-0.0131722,0.179972,-0.251022,0.00297546
0.214505,0.0349924,-0.11801,0.0366078,-0.0227467,0.227974,-0.251022,0.00297546
0.174328,0.00102283,-0.0602506,0.0472764,-0.0126237,0.272011,-0.251022,0.00297546
0.142618,-0.0566609,-0.0017732,0.0371204,-0.00655887,0.302345,-0.251022,0.00297546
0.140013,-0.0962436,-0.0091024,0.0207779,-0.0349582,0.316429,-0.251022,0.00297546
0.128995,-0.154255,-0.0669784,-0.00435761,-0.0510919,0.330369,-0.251022,0.00297546
0.107054,-0.250889,-0.151112,-0.018536,-0.0633418,0.32907,-0.251022,0.00297546
0.0702628,-0.391217,-0.240138,-0.00696717,-0.0777148,0.308536,-0.251022,0.00297546
0.0754108,-0.390102,-0.284448,0.00854982,-0.0649787,0.219082,-0.251022,0.00297546
0.154955,-0.301911,-0.248815,0.0384936,-0.0398999,0.112425,-0.251022,0.00297546
0.281113,-0.230249,-0.184565,0.0702525,-0.0438551,0.0364053,-0.251022,0.00297546
0.295418,-0.31284,-0.126495,0.0970743,-0.0693596,0.00720882,-0.251022,0.00297546
0.074674,-0.42873,-0.137614,0.0849671,-0.110322,-0.0283617,-0.251022,0.00297546
-0.210274,-0.455092,-0.231997,0.00881001,-0.136303,-0.119259,-0.251022,0.00297546
-0.462304,-0.454093,-0.482155,-0.0823152,-0.124703,-0.249934,-0.251022,0.00297546
-0.819603,-0.451436,-0.631639,-0.104212,-0.0629714,-0.341386,-0.251022,0.00297546
-0.998796,-0.239448,-0.590277,-0.0630754,-0.00394844,-0.484981,-0.251022,0.00297546
-0.871374,0.090988,-0.330122,0.00539361,0.0822802,-0.615745,-0.251022,0.00297546
-0.606526,0.270378,0.0977354,0.053819,0.140677,-0.617195,-0.251022,0.00297546
-0.313009,0.266472,0.452564,0.0285591,0.117427,-0.523279,-0.251022,0.00297546
-0.313009,0.266472,0.452564,0.0285591,0.117427,-0.523279,-0.211395,0.00247192
-0.0702468,0.294266,0.618524,-0.0488109,0.0471511,-0.406575,-0.211395,0.00247192
0.0872858,0.329291,0.673064,-0.127105,-0.00924738,-0.266482,-0.211395,0.00247192
0.188849,0.33619,0.644389,-0.165959,-0.0706599,-0.125873,-0.211395,0.00247192
0.213384,0.343903,0.527277,-0.20116,-0.114321,0.00791788,-0.211395,0.00247192
0.188773,0.309761,0.349791,-0.224193,-0.137692,0.121384,-0.211395,0.00247192
0.186009,0.245271,0.165986,-0.214254,-0.140404,0.191668,-0.211395,0.00247192
0.23564,0.253553,0.0115442,-0.185016,-0.12049,0.23366,-0.211395,0.00247192
0.284703,0.308858,-0.0449344,-0.136952,-0.0774894,0.278543,-0.211395,0.00247192
0.336055,0.381666,-0.0229906,-0.103392,-0.0373823,0.317795,-0.211395,0.00247192
0.354877,0.398996,-0.0260878,-0.0915868,-0.0239019,0.368115,-0.211395,0.00247192
0.315993,0.346325,-0.0539175,-0.0887465,-0.0221545,0.413162,-0.211395,0.00247192
0.231798,0.257153,-0.0871052,-0.088815,-0.0123032,0.429782,-0.211395,0.00247192
0.184494,0.238939,-0.0945673,-0.0739914,-0.00225863,0.393471,-0.211395,0.00247192
0.19975,0.264399,-0.0591032,-0.0652911,0.028543,0.339126,-0.211395,0.00247192
0.259203,0.204462,0.0445471,-0.0389392,0.0612879,0.306926,-0.211395,0.00247192
0.338871,0.0208334,0.160321,-0.0205297,0.0802754,0.266466,-0.211395,0.00247192
0.440458,-0.159221,0.237896,-0.019641,0.0893208,0.18943,-0.211395,0.00247192
0.542564,-0.199539,0.271655,-0.0408979,0.0918632,0.0895141,-0.211395,0.00247192
0.62594,-0.0832954,0.308896,-0.0502045,0.0966589,0.000166953,-0.211395,0.00247192
0.629911,0.0517611,0.310735,-0.0526927,0.0738381,-0.0598375,-0.211395,0.00247192
0.499089,-0.0173105,0.178858,-0.0526557,-0.00145826,-0.0926685,-0.211395,0.00247192
0.135305,-0.22342,-0.143831,-0.061154,-0.0810885,-0.108681,-0.211395,0.00247192
-0.426359,-0.559776,-0.535941,-0.0839988,-0.120422,-0.177841,-0.211395,0.00247192
-0.977893,-0.953361,-0.806003,-0.0691426,-0.0785517,-0.336035,-0.211395,0.00247192
-1.05863,-0.840521,-0.894717,-0.00383662,-0.0320055,-0.644609,-0.211395,0.00247192
-0.698233,-0.179332,-0.7931,0.0429652,0.0653815,-0.88778,-0.211395,0.00247192
-0.354332,0.304819,-0.531124,0.105318,0.138286,-0.836148,-0.211395,0.00247192
-0.188258,0.435977,-0.287888,0.140832,0.129989,-0.602833,-0.211395,0.00247192
-0.0854111,0.413475,-0.0805672,0.168401,0.0650425,-0.366332,-0.211395,0.00247192
0.0101526,0.387554,0.10135,0.149191,0.0329795,-0.18887,-0.211395,0.00247192
0.0452632,0.281987,0.20971,0.12137,-0.00598201,-0.0286288,-0.211395,0.00247192
-0.0152267,0.139889,0.266413,0.0885361,-0.0346438,0.0954739,-0.211395,0.00247192
-0.106666,-0.0488381,0.290348,0.0641668,-0.0594897,0.173614,-0.211395,0.00247192
-0.120711,-0.229622,0.319848,0.0628202,-0.0597757,0.193743,-0.211395,0.00247192
-0.0493797,-0.266737,0.333712,0.0461889,-0.0484121,0.185932,-0.211395,0.00247192
0.0387127,-0.271302,0.360768,0.0454784,-0.0401913,0.20522,-0.211395,0.00247192
0.0959881,-0.296992,0.337324,0.0395665,-0.0460722,0.241112,-0.211395,0.00247192
0.0713773,-0.362168,0.228909,0.00960984,-0.0577408,0.278232,-0.211395,0.00247192
0.035951,-0.404599,0.019426,-0.0209181,-0.0701497,0.26737,-0.211395,0.00247192
-0.0231093,-0.413457,-0.227142,-0.0288191,-0.0662479,0.235453,-0.211395,0.00247192
-0.0355747,-0.218759,-0.363668,0.00817831,-0.0331078,0.1776,-0.211395,0.00247192
0.0303906,-0.0338839,-0.403259,0.0503727,0.0217552,0.142271,-0.211395,0.00247192
0.151755,-0.01915,-0.380771,0.0837533,0.0542509,0.156976,-0.211395,0.00247192
0.28195,-0.117745,-0.363326,0.0975806,0.0628469,0.18212,-0.211395,0.00247192
0.343526,-0.18759,-0.360387,0.0993846,0.0681099,0.210195,-0.211395,0.00247192
0.333233,-0.17198,-0.315635,0.122369,0.0705249,0.230998,-0.211395,0.00247192
0.320085,-0.119375,-0.250142,0.13222,0.0833617,0.228751,-0.211395,0.00247192
0.315434,-0.0779707,-0.222805,0.106628,0.0890214,0.213273,-0.211395,0.00247192
0.323479,-0.0844288,-0.214462,0.0935418,0.0814618,0.208825,-0.211395,0.00247192
0.363076,-0.085355,-0.210421,0.0840129,0.0760417,0.193487,-0.211395,0.00247192
0.361788,-0.117702,-0.141968,0.0902893,0.0895222,0.197881,-0.211395,0.00247192
0.244021,-0.141328,-0.0463914,0.0955356,0.0769387,0.184123,-0.211395,0.00247192
0.0988084,-0.287777,0.00266556,0.0798846,0.0251571,0.114606,-0.211395,0.00247192
-0.0823791,-0.490762,-0.0486875,0.0498864,-0.046574,-0.00932741,-0.211395,0.00247192
-0.0823791,-0.490762,-0.0486875,0.0498864,-0.046574,-0.00932741,-0.13739,0.00163269
-0.254289,-0.532326,-0.122505,0.0346129,-0.111063,-0.187003,-0.13739,0.00163269
-0.447632,-0.310364,-0.193258,0.0134,-0.142205,-0.363394,-0.13739,0.00163269
-0.63185,-0.015871,-0.222626,-0.057924,-0.0988585,-0.487353,-0.13739,0.00163269
-0.702763,0.106505,-0.202303,-0.0886565,-0.0589822,-0.567093,-0.13739,0.00163269
-0.658953,0.0545678,-0.125459,-0.047117,-0.0754627,-0.615823,-0.13739,0.00163269
-0.537026,-0.0370268,0.0429721,0.00297721,-0.079392,-0.635041,-0.13739,0.00163269
-0.371985,0.0862836,0.225182,-0.0427191,-0.024616,-0.638153,-0.13739,0.00163269
-0.15716,0.450369,0.332106,-0.123148,-0.0106872,-0.580632,-0.13739,0.00163269
0.0452292,0.736391,0.403725,-0.137593,-0.0408045,-0.413209,-0.13739,0.00163269
0.227244,0.913995,0.488977,-0.13662,-0.0608849,-0.19211,-0.13739,0.00163269
0.352322,0.828969,0.503872,-0.148886,-0.0670777,0.031786,-0.13739,0.00163269
0.410481,0.5436,0.442554,-0.166842,-0.0884608,0.209958,-0.13739,0.00163269
0.406801,0.20336,0.340402,-0.171288,-0.0950927,0.328793,-0.13739,0.00163269
0.370446,-0.00923068,0.21866,-0.172768,-0.088024,0.390313,-0.13739,0.00163269
0.31434,-0.0279896,0.117372,-0.156289,-0.0626749,0.411362,-0.13739,0.00163269
0.275295,0.0311281,0.0548648,-0.130841,-0.0276833,0.417872,-0.13739,0.00163269
0.277694,0.0971903,0.0652248,-0.0844694,0.00642818,0.413581,-0.13739,0.00163269
0.307251,0.157214,0.125405,-0.0656721,0.0400605,0.402158,-0.13739,0.00163269
0.375427,0.181405,0.197905,-0.0594371,0.0568135,0.396672,-0.13739,0.00163269
0.411684,0.115614,0.24217,-0.047793,0.0595996,0.402257,-0.13739,0.00163269
0.377255,-0.0339995,0.333647,-0.0202083,0.0565674,0.399371,-0.13739,0.00163269
0.34019,-0.279086,0.466854,0.0048794,0.077399,0.363534,-0.13739,0.00163269
0.392258,-0.352499,0.501187,-0.0371421,0.0919027,0.236304,-0.13739,0.00163269
0.475952,-0.285747,0.465093,-0.0715614,0.0949467,0.126725,-0.13739,0.00163269
0.575883,-0.172064,0.43381,-0.0984495,0.113889,0.0391403,-0.13739,0.00163269
0.734378,-0.0574785,0.409739,-0.0907419,0.11895,-0.0307875,-0.13739,0.00163269
0.825719,-0.14897,0.404622,-0.0471849,0.0822858,-0.0603678,-0.13739,0.00163269
0.631801,-0.324334,0.334486,-0.0280268,0.0330607,-0.0566741,-0.13739,0.00163269
0.0909772,-0.445129,0.181526,-0.0167072,-0.0287083,-0.0669777,-0.13739,0.00163269
-0.597629,-0.545943,-0.100492,-0.0539725,-0.0711261,-0.150206,-0.13739,0.00163269
-1.07277,-0.68741,-0.336931,-0.0620242,-0.061394,-0.333791,-0.13739,0.00163269
-1.04164,-0.648263,-0.420878,-0.0143494,-0.0168335,-0.60027,-0.13739,0.00163269
-0.657636,-0.381186,-0.36212,0.0444398,0.0349815,-0.771464,-0.13739,0.00163269
-0.331452,-0.138533,-0.192549,0.11367,0.0660044,-0.727238,-0.13739,0.00163269
-0.33338,-0.013413,-0.0693302,0.119465,0.058396,-0.529323,-0.13739,0.00163269
-0.432854,0.0723719,-0.106443,0.0757048,-0.00267848,-0.354362,-0.13739,0.00163269
-0.46631,0.097899,-0.201487,0.0554502,-0.0367863,-0.229416,-0.13739,0.00163269
-0.426997,0.0971016,-0.198416,0.0750342,-0.0305233,-0.122036,-0.13739,0.00163269
-0.328975,0.0718805,-0.110054,0.108796,0.000797302,-0.0130909,-0.13739,0.00163269
-0.195607,0.0442673,0.00845262,0.10893,0.0178683,0.0933482,-0.13739,0.00163269
-0.111643,0.0381835,0.0873226,0.0908281,0.0213955,0.206721,-0.13739,0.00163269
-0.0781307,0.0350398,0.117943,0.0649558,0.0232105,0.293411,-0.13739,0.00163269
-0.0476077,-0.0567404,0.107388,0.0513425,0.0126072,0.354245,-0.13739,0.00163269
-0.0307745,-0.220973,0.132547,0.0771579,0.00847366,0.394193,-0.13739,0.00163269
0.0222769,-0.297495,0.17527,0.0845332,0.0123887,0.380194,-0.13739,0.00163269
0.0973051,-0.321601,0.168961,0.0653455,0.00314498,0.340175,-0.13739,0.00163269
0.119118,-0.369437,0.0748155,0.0437505,-0.0221481,0.315303,-0.13739,0.00163269
0.101622,-0.348811,-0.0381012,0.0521545,-0.0418026,0.281986,-0.13739,0.00163269
0.0677928,-0.304163,-0.152039,0.0771238,-0.0489888,0.255041,-0.13739,0.00163269
-0.0220467,-0.314314,-0.247688,0.104113,-0.0550353,0.240072,-0.13739,0.00163269
-0.175953,-0.398364,-0.346724,0.10775,-0.0399988,0.205772,-0.13739,0.00163269
-0.274296,-0.423054,-0.434449,0.117098,-0.0173142,0.123286,-0.13739,0.00163269
-0.223966,-0.246441,-0.465742,0.146756,0.0280268,0.0127879,-0.13739,0.00163269
0.0891361,0.252449,-0.409371,0.173636,0.0567533,-0.102801,-0.13739,0.00163269
0.0891361,0.252449,-0.409371,0.173636,0.0567533,-0.102801,-0.166473,0.00198364
0.417369,0.648451,-0.25104,0.185901,0.105832,-0.0805669,-0.166473,0.00198364
0.584062,0.774631,-0.0823679,0.195866,0.0914226,0.0694876,-0.166473,0.00198364
0.561012,0.571672,0.0271958,0.193764,0.044215,0.195952,-0.166473,0.00198364
0.333852,0.34634,0.077988,0.197396,-0.0223442,0.232886,-0.166473,0.00198364
-0.0473115,0.234158,0.15784,0.20613,-0.110536,0.158743,-0.166473,0.00198364
-0.400729,0.120269,0.144438,0.139866,-0.188003,-0.000824988,-0.166473,0.00198364
-0.699779,-0.0514108,-0.0937104,-0.00684217,-0.187516,-0.168089,-0.166473,0.00198364
-1.24296,-0.503218,-0.342438,-0.144969,-0.113028,-0.288296,-0.166473,0.00198364
-1.64486,-0.497058,-0.45456,-0.182464,-0.0644128,-0.542315,-0.166473,0.00198364
-1.42016,0.24177,-0.413968,-0.15166,-0.00930974,-0.878751,-0.166473,0.00198364
-0.990415,0.878047,-0.035673,-0.0974005,0.100558,-0.925896,-0.166473,0.00198364
-0.615022,0.903059,0.408885,-0.0853373,0.113615,-0.727727,-0.166473,0.00198364
-0.240424,0.599036,0.576743,-0.175093,0.0284968,-0.535775,-0.166473,0.00198364
0.185698,0.227388,0.57967,-0.256979,-0.0406927,-0.384594,-0.166473,0.00198364
0.501927,0.188944,0.507919,-0.302423,-0.0622563,-0.237101,-0.166473,0.00198364
0.579583,0.279703,0.420682,-0.29417,-0.0704846,-0.0393695,-0.166473,0.00198364
0.493438,0.266951,0.327795,-0.269621,-0.0729127,0.154585,-0.166473,0.00198364
0.376323,0.163133,0.241431,-0.230858,-0.0697275,0.273957,-0.166473,0.00198364
0.326337,0.0517519,0.139945,-0.207345,-0.0567077,0.33893,-0.166473,0.00198364
0.270736,-0.0440175,0.0383999,-0.177256,-0.0401368,0.376332,-0.166473,0.00198364
0.175269,-0.122891,-0.00580613,-0.12952,-0.0293581,0.404109,-0.166473,0.00198364
0.0753894,-0.1975,0.0245175,-0.0871842,-0.00781409,0.405199,-0.166473,0.00198364
0.045407,-0.256451,0.0995751,-0.0501907,0.00724442,0.361544,-0.166473,0.00198364
0.0774876,-0.239814,0.146147,-0.0461592,0.012062,0.306947,-0.166473,0.00198364
0.0734395,-0.171924,0.186103,-0.062963,0.017364,0.26496,-0.166473,0.00198364
0.0946253,-0.0116475,0.216752,-0.0739811,0.0174782,0.217766,-0.166473,0.00198364
0.186503,0.113655,0.286522,-0.079522,0.0350878,0.177103,-0.166473,0.00198364
0.312437,-0.00268631,0.382949,-0.0456005,0.0325162,0.189918,-0.166473,0.00198364
0.418089,-0.21574,0.47235,-0.0489632,0.0349456,0.204224,-0.166473,0.00198364
0.502258,-0.305523,0.440508,-0.107666,0.0260765,0.177915,-0.166473,0.00198364
0.579064,-0.244068,0.278625,-0.173479,0.0118894,0.137007,-0.166473,0.00198364
0.651289,-0.112822,0.126782,-0.199778,0.02297,0.109069,-0.166473,0.00198364
0.775683,0.0863857,0.0356326,-0.163864,0.0493433,0.0941576,-0.166473,0.00198364
0.766459,0.209722,0.036126,-0.0894699,0.0638211,0.128138,-0.166473,0.00198364
0.629308,0.0133891,0.110886,-0.0102178,0.0485866,0.169527,-0.166473,0.00198364
0.383798,-0.374372,0.114176,0.044962,0.00431189,0.118165,-0.166473,0.00198364
0.0330998,-0.6028,0.0255038,0.0264847,-0.0312859,-0.0316535,-0.166473,0.00198364
-0.422504,-0.859885,-0.121151,-0.0192103,-0.0409052,-0.219566,-0.166473,0.00198364
-0.746728,-0.911993,-0.298268,-0.0738633,-0.0333645,-0.478906,-0.166473,0.00198364
-0.698512,-0.473027,-0.416523,-0.0775031,-0.0220675,-0.764098,-0.166473,0.00198364
-0.391666,0.0652039,-0.418957,-0.0583257,0.021834,-0.884912,-0.166473,0.00198364
-0.20072,0.184923,-0.405036,-0.00480887,0.0195127,-0.745527,-0.166473,0.00198364
-0.173659,0.20005,-0.432872,0.00978366,0.00045082,-0.535106,-0.166473,0.00198364
-0.138102,0.369145,-0.437107,0.0259901,-0.0104686,-0.383744,-0.166473,0.00198364
-0.111311,0.456527,-0.395096,0.0475883,-0.00627738,-0.219056,-0.166473,0.00198364
-0.106674,0.423177,-0.315882,0.0600791,-0.0110891,-0.0479622,-0.166473,0.00198364
-0.145375,0.258725,-0.266348,0.0541968,-0.0195347,0.0998495,-0.166473,0.00198364
-0.217835,0.0890548,-0.236532,0.050471,-0.0351786,0.209173,-0.166473,0.00198364
-0.280476,-0.00402668,-0.19247,0.049532,-0.0304205,0.270897,-0.166473,0.00198364
-0.321234,-0.0810365,-0.130108,0.057778,-0.0220086,0.312276,-0.166473,0.00198364
-0.304811,-0.203951,-0.0727935,0.0620747,-0.0172459,0.317657,-0.166473,0.00198364
-0.223303,-0.399943,-0.0654563,0.0522685,-0.0189204,0.308978,-0.166473,0.00198364
-0.0756789,-0.478263,-0.0681075,0.0521158,-0.0125408,0.252469,-0.166473,0.00198364
-0.0756789,-0.478263,-0.0681075,0.0521158,-0.0125408,0.252469,-0.147964,0.0017395
0.0449559,-0.428181,-0.112315,0.0443211,-0.000380665,0.203958,-0.147964,0.0017395
0.0180836,-0.413951,-0.18861,0.0396294,0.0038954,0.211613,-0.147964,0.0017395
-0.102844,-0.413068,-0.327926,0.0354645,-0.00930567,0.212151,-0.147964,0.0017395
-0.15283,-0.35696,-0.483462,0.0401246,-0.00697768,0.162917,-0.147964,0.0017395
-0.0983867,-0.258259,-0.593637,0.0733103,0.0111289,0.102904,-0.147964,0.0017395
-0.0199321,-0.177319,-0.612934,0.118113,0.0391355,0.0887728,-0.147964,0.0017395
0.0509691,-0.120701,-0.581259,0.142482,0.0650681,0.108372,-0.147964,0.0017395
0.0893549,-0.049413,-0.585905,0.125042,0.0665671,0.138803,-0.147964,0.0017395
0.120541,0.0795503,-0.642037,0.096799,0.063713,0.171913,-0.147964,0.0017395
0.156285,0.195966,-0.648755,0.112666,0.0695171,0.217274,-0.147964,0.0017395
0.184516,0.237912,-0.537654,0.155902,0.088596,0.285698,-0.147964,0.0017395
0.196478,0.210001,-0.351787,0.184278,0.0962596,0.337699,-0.147964,0.0017395
0.168429,0.106745,-0.179461,0.188413,0.0686052,0.360831,-0.147964,0.0017395
0.0735797,-0.0317728,-0.0540028,0.171431,0.026162,0.340108,-0.147964,0.0017395
-0.0792281,-0.254655,0.0313573,0.154719,-0.0282829,0.270109,-0.147964,0.0017395
-0.315346,-0.534318,0.0844117,0.134445,-0.0836338,0.134101,-0.147964,0.0017395
-0.569835,-0.584752,0.137708,0.0932744,-0.150627,-0.082079,-0.147964,0.0017395
-0.718001,-0.422843,0.114169,0.0224347,-0.18983,-0.315845,-0.147964,0.0017395
-0.917482,-0.494866,-0.0598983,-0.138297,-0.166948,-0.495783,-0.147964,0.0017395
-1.14101,-0.643079,-0.222283,-0.209733,-0.157309,-0.649016,-0.147964,0.0017395
-1.04439,-0.379734,-0.283069,-0.208626,-0.128227,-0.877671,-0.147964,0.0017395
-0.675936,0.0534403,-0.171991,-0.197998,-0.0270763,-1.00975,-0.147964,0.0017395
-0.208151,0.375264,0.057321,-0.16593,0.0179563,-0.969606,-0.147964,0.0017395
0.176189,0.548907,0.225463,-0.153097,-0.00337932,-0.769586,-0.147964,0.0017395
0.43775,0.616033,0.33727,-0.175579,-0.0279717,-0.507676,-0.147964,0.0017395
0.624654,0.640652,0.337278,-0.210776,-0.0683783,-0.260257,-0.147964,0.0017395
0.680068,0.585547,0.204257,-0.222643,-0.10994,-0.0238307,-0.147964,0.0017395
0.5937,0.473254,0.0350776,-0.222335,-0.127234,0.185743,-0.147964,0.0017395
0.447763,0.345379,-0.165015,-0.198967,-0.126146,0.335316,-0.147964,0.0017395
0.264459,0.227068,-0.313845,-0.142245,-0.0987732,0.434673,-0.147964,0.0017395
0.107942,0.173654,-0.34262,-0.0596836,-0.0620515,0.485505,-0.147964,0.0017395
0.0577058,0.157392,-0.279883,0.00128815,-0.0121154,0.490428,-0.147964,0.0017395
0.103222,0.134037,-0.153922,0.0360356,0.0349763,0.491732,-0.147964,0.0017395
0.212944,0.0467888,-0.00199562,0.0724414,0.0496101,0.500997,-0.147964,0.0017395
0.320092,-0.00864755,0.0993205,0.0703027,0.0640275,0.518084,-0.147964,0.0017395
0.334799,-0.0545666,0.18183,0.0680748,0.0749034,0.548307,-0.147964,0.0017395
0.247871,-0.0677202,0.255168,0.0795835,0.0666279,0.566041,-0.147964,0.0017395
0.106056,-0.104175,0.351217,0.0965065,0.0706001,0.556462,-0.147964,0.0017395
0.0566003,-0.244926,0.451654,0.101032,0.0694553,0.469855,-0.147964,0.0017395
0.102538,-0.510282,0.557466,0.0973998,0.102039,0.359737,-0.147964,0.0017395
0.110301,-0.668598,0.556041,0.0119741,0.149179,0.221934,-0.147964,0.0017395
0.219548,-0.407003,0.482456,-0.0489132,0.146368,0.015166,-0.147964,0.0017395
0.433244,0.0410165,0.37631,-0.0690516,0.141155,-0.144318,-0.147964,0.0017395
0.376326,0.134814,0.349548,-0.0249772,0.123879,-0.114084,-0.147964,0.0017395
-0.00106148,-0.0954863,0.338204,-0.00566008,0.0746185,-0.0702167,-0.147964,0.0017395
-0.513344,-0.497295,0.0689206,-0.0729865,0.0153787,-0.160215,-0.147964,0.0017395
-0.942039,-0.742364,-0.263618,-0.1523,0.00803018,-0.381942,-0.147964,0.0017395
-1.09758,-0.521035,-0.47935,-0.149042,0.0122753,-0.661916,-0.147964,0.0017395
-0.897518,0.00710006,-0.483148,-0.0898612,0.0586783,-0.884381,-0.147964,0.0017395
-0.595358,0.231477,-0.301013,-0.000990897,0.105819,-0.891273,-0.147964,0.0017395
-0.410398,0.246707,-0.162571,0.0468146,0.0717996,-0.755687,-0.147964,0.0017395
-0.300766,0.361441,-0.0805749,0.057249,0.00325213,-0.593848,-0.147964,0.0017395
-0.224625,0.480835,-0.049862,0.0517319,-0.052869,-0.418367,-0.147964,0.0017395
-0.196934,0.448878,-0.00580099,0.0696901,-0.0929542,-0.23691,-0.147964,0.0017395
-0.196934,0.448878,-0.00580099,0.0696901,-0.0929542,-0.23691,-0.15062,0.00177765
-0.185039,0.320339,0.0420928,0.0830585,-0.127611,-0.0917224,-0.15062,0.00177765
-0.136751,0.259894,0.0615911,0.0712945,-0.143087,-0.00400335,-0.15062,0.00177765
-0.0425643,0.257369,0.0707971,0.0560833,-0.146522,0.0755736,-0.15062,0.00177765
0.0421682,0.217718,0.0795025,0.0524566,-0.141273,0.173425,-0.15062,0.00177765
0.12792,0.161802,0.0760987,0.0439341,-0.130873,0.258994,-0.15062,0.00177765
0.220712,0.0825532,0.0949063,0.0430128,-0.112158,0.329541,-0.15062,0.00177765
0.386807,0.0763229,0.0954895,0.0288814,-0.0928442,0.357798,-0.15062,0.00177765
0.591961,0.0406113,0.0583089,0.00239689,-0.064733,0.39388,-0.15062,0.00177765
0.772826,0.00326454,-0.00234565,-0.00749622,-0.0372862,0.439973,-0.15062,0.00177765
0.891707,-0.0184641,-0.113423,-0.0171567,-0.0155871,0.490147,-0.15062,0.00177765
0.883446,-0.0583584,-0.278929,-0.0226918,0.00512126,0.549005,-0.15062,0.00177765
0.735636,-0.12407,-0.490828,-0.0274811,0.0176381,0.600356,-0.15062,0.00177765
0.378616,-0.297488,-0.73752,-0.0146541,0.0370861,0.634453,-0.15062,0.00177765
0.0318675,-0.399495,-0.903749,0.0287485,0.0778446,0.562849,-0.15062,0.00177765
-0.0665901,-0.307563,-0.936703,0.0696009,0.171881,0.357562,-0.15062,0.00177765
0.0518706,0.0116217,-0.889085,0.0907378,0.230725,0.178375,-0.15062,0.00177765
0.164028,0.0596108,-0.761485,0.137855,0.212549,0.0892479,-0.15062,0.00177765
0.121722,-0.0705686,-0.665729,0.172539,0.145232,0.0384659,-0.15062,0.00177765
-0.165957,-0.228807,-0.631881,0.140679,0.100429,-0.0399762,-0.15062,0.00177765
-0.743852,-0.56302,-0.684132,0.0633796,0.0730195,-0.148466,-0.15062,0.00177765
-1.41653,-0.530345,-0.780185,-0.033007,0.0564359,-0.378529,-0.15062,0.00177765
-1.81334,-0.223968,-0.738748,-0.0796029,0.077968,-0.68965,-0.15062,0.00177765
-1.76577,0.236374,-0.415021,-0.0516,0.139476,-0.961226,-0.15062,0.00177765
-1.30638,0.635023,0.0784304,-0.0608207,0.169075,-1.10343,-0.15062,0.00177765
-0.65257,0.837905,0.47806,-0.0892361,0.0427189,-1.05694,-0.15062,0.00177765
-0.121955,0.757954,0.739161,-0.168103,-0.0903045,-0.818182,-0.15062,0.00177765
0.226542,0.580687,0.790592,-0.301765,-0.195291,-0.543385,-0.15062,0.00177765
0.406869,0.504974,0.595084,-0.413872,-0.302994,-0.321204,-0.15062,0.00177765
0.413676,0.509393,0.14817,-0.514734,-0.359214,-0.120044,-0.15062,0.00177765
0.335335,0.534584,-0.373434,-0.532851,-0.378021,0.0418338,-0.15062,0.00177765
0.258586,0.480118,-0.764643,-0.455992,-0.329995,0.171143,-0.15062,0.00177765
0.20837,0.44477,-0.958329,-0.340275,-0.242793,0.255944,-0.15062,0.00177765
0.219878,0.422456,-0.971289,-0.237807,-0.159053,0.310415,-0.15062,0.00177765
0.305204,0.426449,-0.925897,-0.187333,-0.103708,0.343782,-0.15062,0.00177765
0.390656,0.385252,-0.874501,-0.160423,-0.062868,0.387959,-0.15062,0.00177765
0.473011,0.315081,-0.810154,-0.135845,-0.0329325,0.432252,-0.15062,0.00177765
0.613822,0.227787,-0.725451,-0.0958506,-0.00151661,0.444656,-0.15062,0.00177765
0.734563,0.150973,-0.602032,-0.0603529,0.0423567,0.451953,-0.15062,0.00177765
0.795614,0.0454548,-0.424029,-0.0163097,0.0914759,0.467359,-0.15062,0.00177765
0.841391,-0.0612224,-0.218995,0.00942802,0.120465,0.444552,-0.15062,0.00177765
0.891497,-0.150189,-0.0834249,-0.0113374,0.124704,0.394016,-0.15062,0.00177765
0.812929,-0.382368,-0.108826,-0.0867039,0.122905,0.364187,-0.15062,0.00177765
0.604015,-0.662099,-0.255775,-0.138126,0.103628,0.307965,-0.15062,0.00177765
0.388581,-0.722316,-0.523318,-0.184164,0.0720641,0.158034,-0.15062,0.00177765
0.237804,-0.521407,-0.751636,-0.185362,0.0725862,-0.0405163,-0.15062,0.00177765
0.0150132,-0.211934,-0.88089,-0.136929,0.0825462,-0.16143,-0.15062,0.00177765
-0.502058,-0.351118,-1.07652,-0.123085,0.0509624,-0.163037,-0.15062,0.00177765
-1.09279,-0.733586,-1.43458,-0.186636,0.0345885,-0.267436,-0.15062,0.00177765
-1.24774,-0.884619,-1.6087,-0.172799,0.0853122,-0.544632,-0.15062,0.00177765
-0.734977,-0.36738,-1.55235,-0.127804,0.1727,-0.837413,-0.15062,0.00177765
-0.0539629,0.189605,-1.35984,-0.0576614,0.195357,-0.850005,-0.15062,0.00177765
0.0316596,-0.0404303,-1.28365,-0.0187296,0.150146,-0.495894,-0.15062,0.00177765
-0.426791,-0.67571,-1.30659,-0.0498343,0.07654,-0.224995,-0.15062,0.00177765
-0.808991,-0.897846,-1.38554,-0.115631,0.0545814,-0.258891,-0.15062,0.00177765
-0.808991,-0.897846,-1.38554,-0.115631,0.0545814,-0.258891,-0.195526,0.00231934
-0.709176,-0.401586,-1.5492,-0.157221,0.057662,-0.463971,-0.195526,0.00231934
-0.345237,0.226444,-1.52457,-0.0910187,0.079466,-0.482876,-0.195526,0.00231934
-0.0862122,0.385289,-1.23937,0.0352415,0.106841,-0.259585,-0.195526,0.00231934
0.176735,0.171431,-0.853612,0.0881684,0.102911,-0.0434862,-0.195526,0.00231934
0.482477,-0.202436,-0.606839,0.033718,0.0793369,0.101779,-0.195526,0.00231934
0.759616,-0.597971,-0.496431,-0.00825387,0.0130692,0.18353,-0.195526,0.00231934
0.94148,-0.938896,-0.527363,-0.0496249,0.00237714,0.240181,-0.195526,0.00231934
0.914554,-1.11493,-0.682182,-0.0902898,0.0100818,0.283355,-0.195526,0.00231934
0.69148,-1.13047,-0.856091,-0.0585287,-0.00642191,0.284375,-0.195526,0.00231934
0.427074,-1.01533,-1.04787,-0.0354818,-0.00282156,0.216971,-0.195526,0.00231934
0.230434,-0.73731,-1.28264,-0.0634869,0.0249808,0.107934,-0.195526,0.00231934
0.103923,-0.523239,-1.58517,-0.0893033,0.0275487,0.0274218,-0.195526,0.00231934
0.0138434,-0.53037,-1.91538,-0.0847859,0.0165105,-0.00280088,-0.195526,0.00231934
-0.0577484,-0.617908,-2.15073,-0.0437033,0.0432436,-0.0406765,-0.195526,0.00231934
-0.105754,-0.559901,-2.26469,0.00189171,0.0900018,-0.0970685,-0.195526,0.00231934
-0.103174,-0.374095,-2.28465,0.0501338,0.104805,-0.144313,-0.195526,0.00231934
-0.0510369,-0.19149,-2.24949,0.0760187,0.101714,-0.158364,-0.195526,0.00231934
-0.0496309,-0.281294,-2.26326,0.0767791,0.0654959,-0.0941845,-0.195526,0.00231934
-0.163006,-0.451526,-2.32388,0.0335688,0.0581023,-0.0453267,-0.195526,0.00231934
-0.322711,-0.388191,-2.39934,-0.0062248,0.0583741,-0.0547685,-0.195526,0.00231934
-0.384628,-0.0800831,-2.46002,-0.0339149,0.0425152,-0.104876,-0.195526,0.00231934
-0.367816,0.106844,-2.48463,-0.0388872,0.0463727,-0.0902166,-0.195526,0.00231934
-0.344093,0.130933,-2.4345,-0.00966308,0.0403007,-0.0303741,-0.195526,0.00231934
-0.388687,0.0684306,-2.35529,0.000504751,0.0442042,0.0190481,-0.195526,0.00231934
-0.434809,0.0251085,-2.24049,-0.00712056,0.0517467,0.0290692,-0.195526,0.00231934
-0.325642,-0.0554755,-2.08713,-0.0152813,0.0733234,-0.00624609,-0.195526,0.00231934
-0.0605285,-0.182729,-1.86302,-0.00331442,0.109896,-0.040903,-0.195526,0.00231934
0.16132,-0.306711,-1.60536,-0.0111155,0.140317,-0.0286033,-0.195526,0.00231934
0.256797,-0.398822,-1.38369,-0.0477917,0.153511,0.00535345,-0.195526,0.00231934
0.212444,-0.510322,-1.34072,-0.145447,0.144991,0.0283301,-0.195526,0.00231934
0.0528428,-0.605444,-1.47234,-0.253905,0.128079,0.0222595,-0.195526,0.00231934
-0.143693,-0.611434,-1.64453,-0.307884,0.131753,-0.017581,-0.195526,0.00231934
-0.277574,-0.536717,-1.75168,-0.300318,0.150456,-0.0694423,-0.195526,0.00231934
-0.256073,-0.381229,-1.77439,-0.26645,0.160597,-0.125653,-0.195526,0.00231934
-0.105879,-0.238551,-1.73496,-0.223282,0.156577,-0.141757,-0.195526,0.00231934
0.0591267,-0.203029,-1.67957,-0.193528,0.138933,-0.075263,-0.195526,0.00231934
0.0923213,-0.257931,-1.66383,-0.167709,0.0973592,0.0522536,-0.195526,0.00231934
0.041586,-0.315694,-1.67826,-0.145523,0.0490916,0.145661,-0.195526,0.00231934
-0.0413882,-0.40206,-1.72291,-0.134839,0.0134949,0.202002,-0.195526,0.00231934
-0.118795,-0.457171,-1.75946,-0.107271,-0.0124863,0.2249,-0.195526,0.00231934
-0.20606,-0.507472,-1.80619,-0.0891987,-0.022993,0.214732,-0.195526,0.00231934
-0.280487,-0.502098,-1.80915,-0.0505346,-0.0427518,0.184211,-0.195526,0.00231934
-0.339279,-0.473264,-1.81629,-0.0436577,-0.0443217,0.131727,-0.195526,0.00231934
-0.334504,-0.359431,-1.80512,-0.0166809,-0.0643804,0.0620843,-0.195526,0.00231934
-0.262324,-0.248626,-1.78097,0.00370412,-0.063085,0.00169331,-0.195526,0.00231934
-0.150862,-0.119447,-1.71805,0.0358021,-0.0674166,-0.0376303,-0.195526,0.00231934
0.00387294,-0.0299789,-1.60846,0.0635959,-0.0652209,-0.0755007,-0.195526,0.00231934
0.173718,0.0557682,-1.44693,0.0889681,-0.0610148,-0.0916782,-0.195526,0.00231934
0.263894,0.0611642,-1.29946,0.0909694,-0.0548943,-0.0770538,-0.195526,0.00231934
0.275978,0.0343168,-1.19232,0.0706804,-0.071959,-0.0664548,-0.195526,0.00231934
0.310161,0.0046545,-1.1553,0.0354156,-0.0932976,-0.0954143,-0.195526,0.00231934
0.276729,-0.273982,-1.18976,-0.0056395,-0.107772,-0.113717,-0.195526,0.00231934
0.0951165,-0.591807,-1.36305,-0.065877,-0.0977069,-0.151161,-0.195526,0.00231934
-0.0200157,-0.304602,-1.54371,-0.0929646,-0.0547379,-0.269499,-0.195526,0.00231934
-0.0200157,-0.304602,-1.54371,-0.0929646,-0.0547379,-0.269499,-0.256302,0.0030365
0.157889,0.442448,-1.57615,-0.0394179,0.00505705,-0.364139,-0.256302,0.0030365
0.553738,0.967908,-1.319,0.0554646,0.0983726,-0.288226,-0.256302,0.0030365
0.845049,0.942684,-0.968462,0.116977,0.122895,-0.0497148,-0.256302,0.0030365
0.958083,0.449072,-0.73154,0.107138,0.0707202,0.160907,-0.256302,0.0030365
0.895749,-0.164349,-0.677894,0.0608939,-0.00634001,0.259592,-0.256302,0.0030365
0.669762,-0.534071,-0.839886,-0.00478191,-0.0513113,0.271237,-0.256302,0.0030365
0.231598,-0.544915,-1.04303,-0.0697034,-0.0514941,0.233989,-0.256302,0.0030365
-0.227592,-0.437578,-1.26055,-0.0889978,-0.0499084,0.162055,-0.256302,0.0030365
-0.485107,-0.376044,-1.44502,-0.0718315,-0.0348815,0.034646,-0.256302,0.0030365
-0.50883,-0.309981,-1.45948,-0.00595807,0.012256,-0.0924967,-0.256302,0.0030365
-0.283946,-0.130208,-1.30495,0.0857836,0.040477,-0.188601,-0.256302,0.0030365
0.0855979,0.107876,-1.04978,0.131976,0.0765337,-0.209428,-0.256302,0.0030365
0.306366,0.117868,-0.785654,0.154044,0.0724164,-0.0853997,-0.256302,0.0030365
0.335111,-0.0479731,-0.639262,0.12555,0.021351,0.0766999,-0.256302,0.0030365
0.247919,-0.238996,-0.630535,0.0611575,-0.0144522,0.171204,-0.256302,0.0030365
0.124155,-0.33216,-0.678432,0.0198337,-0.0407268,0.196127,-0.256302,0.0030365
0.019752,-0.357919,-0.72261,0.0152665,-0.0515223,0.177607,-0.256302,0.0030365
-0.0337563,-0.409833,-0.694976,0.0339993,-0.036308,0.156796,-0.256302,0.0030365
0.00275031,-0.491406,-0.67287,0.0494885,-0.0382977,0.109559,-0.256302,0.0030365
0.0547278,-0.622714,-0.672919,0.0620757,-0.0476098,0.0815345,-0.256302,0.0030365
0.0777647,-0.703243,-0.64321,0.0847755,-0.0421343,0.0426409,-0.256302,0.0030365
0.0649537,-0.685319,-0.610127,0.0893046,-0.020599,-0.0102238,-0.256302,0.0030365
0.120557,-0.53466,-0.582902,0.0755234,-0.00679865,-0.0920187,-0.256302,0.0030365
0.216042,-0.386369,-0.5269,0.0783181,-0.00180677,-0.128895,-0.256302,0.0030365
0.140731,-0.47397,-0.50208,0.0838472,-0.0333861,-0.0790091,-0.256302,0.0030365
-0.20349,-0.711084,-0.688864,-0.00807388,-0.0565512,-0.0421132,-0.256302,0.0030365
-0.512341,-0.687303,-1.02458,-0.0999604,-0.0783245,-0.164394,-0.256302,0.0030365
-0.655884,-0.372459,-1.2374,-0.0913252,-0.0224867,-0.316648,-0.256302,0.0030365
-0.527874,0.0754035,-1.15938,-0.0432092,0.101289,-0.426358,-0.256302,0.0030365
-0.248817,0.378171,-0.907413,0.0106953,0.178839,-0.42199,-0.256302,0.0030365
0.00011233,0.485042,-0.645608,0.00558021,0.199064,-0.305434,-0.256302,0.0030365
0.208935,0.422214,-0.419655,-0.02898,0.197136,-0.158968,-0.256302,0.0030365
0.381999,0.258806,-0.257269,-0.0983863,0.193019,-0.0250546,-0.256302,0.0030365
0.443119,0.0757955,-0.16941,-0.160039,0.175316,0.088832,-0.256302,0.0030365
0.374208,-0.080641,-0.167856,-0.222577,0.144283,0.172553,-0.256302,0.0030365
0.258061,-0.111395,-0.321656,-0.277536,0.0967091,0.219973,-0.256302,0.0030365
0.054807,-0.140231,-0.575263,-0.295987,0.0577697,0.268218,-0.256302,0.0030365
-0.182561,-0.224628,-0.784611,-0.253594,0.0310241,0.295554,-0.256302,0.0030365
-0.354804,-0.335313,-0.884712,-0.169792,0.0366307,0.283496,-0.256302,0.0030365
-0.392742,-0.398203,-0.832153,-0.0788981,0.0624656,0.201026,-0.256302,0.0030365
-0.290515,-0.367412,-0.712388,-0.0182405,0.0743405,0.099401,-0.256302,0.0030365
-0.172842,-0.291131,-0.631219,-0.00230597,0.0556705,0.0452694,-0.256302,0.0030365
-0.159914,-0.235504,-0.574749,0.00340261,0.0282904,0.0474334,-0.256302,0.0030365
-0.241596,-0.209234,-0.53091,0.00285932,-0.00199014,0.062817,-0.256302,0.0030365
-0.293446,-0.15344,-0.512048,-0.00150941,-0.0287718,0.0363715,-0.256302,0.0030365
-0.281105,-0.0674962,-0.483804,-0.00823275,-0.034671,-0.0013178,-0.256302,0.0030365
-0.241476,-0.0177933,-0.403433,0.00642808,-0.03059,-0.017541,-0.256302,0.0030365
-0.188675,0.0173971,-0.298922,0.0247374,-0.0324585,-0.0158527,-0.256302,0.0030365
-0.141903,0.0141941,-0.178391,0.0310032,-0.0391437,-0.00277895,-0.256302,0.0030365
-0.119909,-0.0241691,-0.0701266,0.0302879,-0.0519832,0.0168898,-0.256302,0.0030365
-0.1089,-0.00103227,-0.0186233,-0.00279067,-0.0759758,0.00481302,-0.256302,0.0030365
-0.0895246,0.0566041,-0.0276167,-0.041379,-0.0924337,-0.0144494,-0.256302,0.0030365
-0.0444615,0.15503,-0.0487159,-0.062779,-0.0962087,-0.0319586,-0.256302,0.0030365
0.0723317,0.251678,-0.0329594,-0.0565261,-0.0881285,-0.0257148,-0.256302,0.0030365
0.0723317,0.251678,-0.0329594,-0.0565261,-0.0881285,-0.0257148,-0.245743,0.00291443
0.215579,0.349839,0.0371254,-0.0416361,-0.0637389,0.014842,-0.245743,0.00291443
0.349628,0.409265,0.13735,-0.0395847,-0.0443006,0.0853543,-0.245743,0.00291443
0.434123,0.436868,0.188231,-0.0598216,-0.041414,0.173808,-0.245743,0.00291443
0.496443,0.44861,0.167371,-0.0864532,-0.0497201,0.2501,-0.245743,0.00291443
0.495364,0.413811,0.150995,-0.0886297,-0.0426205,0.324248,-0.245743,0.00291443
0.413915,0.315108,0.190607,-0.0662975,-0.0307141,0.379297,-0.245743,0.00291443
0.324861,0.18977,0.256748,-0.0457204,-0.0188026,0.397461,-0.245743,0.00291443
0.296096,0.128046,0.297574,-0.0532393,-0.00406729,0.360478,-0.245743,0.00291443
0.321545,0.0751432,0.258456,-0.0808299,-0.00036259,0.30667,-0.245743,0.00291443
0.400473,0.0189423,0.23726,-0.0706673,0.00440869,0.233788,-0.245743,0.00291443
0.517047,0.0145045,0.311735,-0.0291279,0.0409465,0.145838,-0.245743,0.00291443
0.597889,0.0650175,0.42937,-0.00894778,0.0805626,0.0897605,-0.245743,0.00291443
0.580651,-0.179055,0.506546,0.00422712,0.0602649,0.0687684,-0.245743,0.00291443
0.491186,-0.651812,0.513055,0.0285644,0.0244146,0.00748503,-0.245743,0.00291443
0.171945,-1.20622,0.341509,-0.0250959,0.0202535,-0.101652,-0.245743,0.00291443
-0.322432,-1.44947,0.0928773,-0.0947817,0.00749299,-0.300571,-0.245743,0.00291443
-0.356108,-0.963096,-0.146799,-0.132131,0.0219987,-0.648213,-0.245743,0.00291443
0.0418153,0.0690493,-0.229449,-0.0765048,0.0674952,-0.872676,-0.245743,0.00291443
0.254723,0.802503,-0.0848261,0.0118229,0.107697,-0.752485,-0.245743,0.00291443
0.0892555,0.461807,0.017315,0.0583987,0.0548267,-0.389858,-0.245743,0.00291443
-0.120269,-0.182687,-0.129001,0.0253941,-0.0378418,-0.227373,-0.245743,0.00291443
-0.215543,-0.17993,-0.399442,-0.0298994,-0.0819925,-0.263131,-0.245743,0.00291443
-0.28282,0.250016,-0.513674,-0.00878733,-0.0313277,-0.290256,-0.245743,0.00291443
-0.36364,0.547554,-0.448362,0.0769479,0.0194021,-0.183188,-0.245743,0.00291443
-0.339941,0.579768,-0.339032,0.124669,0.0210511,-0.0727772,-0.245743,0.00291443
-0.196635,0.518891,-0.198445,0.149677,0.00969958,0.0177074,-0.245743,0.00291443
-0.0514965,0.450482,-0.058964,0.145666,0.00600457,0.109325,-0.245743,0.00291443
-0.00808954,0.390225,0.0372787,0.13476,-0.0176036,0.211977,-0.245743,0.00291443
-0.0261044,0.281751,0.121825,0.128725,-0.0283257,0.295396,-0.245743,0.00291443
-0.0859605,0.0586538,0.187767,0.134029,-0.0390874,0.337536,-0.245743,0.00291443
-0.101544,-0.222656,0.304158,0.155088,-0.0341588,0.326874,-0.245743,0.00291443
-0.0705,-0.403857,0.394996,0.157823,-0.0235862,0.263226,-0.245743,0.00291443
-0.00363919,-0.428827,0.42002,0.126774,-0.022539,0.175954,-0.245743,0.00291443
0.0478672,-0.417829,0.37273,0.103037,-0.027459,0.114564,-0.245743,0.00291443
0.090373,-0.374279,0.261913,0.0791241,-0.0325328,0.0595978,-0.245743,0.00291443
0.16959,-0.264832,0.122798,0.0803477,-0.0263515,-0.00593144,-0.245743,0.00291443
0.238231,-0.0397053,0.0148758,0.0879186,0.00955503,-0.0403628,-0.245743,0.00291443
0.322374,0.219383,-0.030514,0.0978277,0.0317467,-0.0445062,-0.245743,0.00291443
0.512475,0.36238,-0.0538339,0.0939399,0.0596472,-0.0042879,-0.245743,0.00291443
0.670294,0.469556,-0.140636,0.0695844,0.0656961,0.0898797,-0.245743,0.00291443
0.680772,0.575884,-0.232631,0.0410477,0.0771155,0.220449,-0.245743,0.00291443
0.606129,0.637371,-0.316238,0.0405803,0.0844752,0.32228,-0.245743,0.00291443
0.46966,0.66384,-0.361182,0.0528928,0.0865338,0.386805,-0.245743,0.00291443
0.30486,0.600794,-0.331175,0.0689411,0.100279,0.417222,-0.245743,0.00291443
0.20667,0.450577,-0.244439,0.0961899,0.0897162,0.396149,-0.245743,0.00291443
0.166126,0.276244,-0.159772,0.109234,0.0704389,0.334021,-0.245743,0.00291443
0.0134885,0.188292,-0.0706743,0.122475,0.0210845,0.265032,-0.245743,0.00291443
-0.256716,-0.188749,0.0425469,0.126308,-0.0217528,0.196183,-0.245743,0.00291443
-0.447715,-0.578956,0.0539332,0.0913824,-0.0852136,0.0115155,-0.245743,0.00291443
-0.733268,-0.958867,-0.113999,-0.0122713,-0.0946837,-0.198261,-0.245743,0.00291443
-1.08675,-0.886158,-0.273966,-0.104631,-0.0747526,-0.451835,-0.245743,0.00291443
-1.11227,-0.162246,-0.327763,-0.124302,-0.0434937,-0.774641,-0.245743,0.00291443
-0.853668,0.38508,-0.0919236,-0.0246518,0.0135128,-0.910889,-0.245743,0.00291443
-0.443634,0.434441,0.339596,0.0321716,0.0871849,-0.85255,-0.245743,0.00291443
-0.443634,0.434441,0.339596,0.0321716,0.0871849,-0.85255,-0.198166,0.00234985
-0.0287416,0.299389,0.659492,-0.0358856,0.0837084,-0.723268,-0.198166,0.00234985
0.281985,0.300736,0.706224,-0.153928,-0.00371353,-0.565267,-0.198166,0.00234985
0.435365,0.450303,0.602444,-0.241667,-0.0766212,-0.37622,-0.198166,0.00234985
0.442194,0.547669,0.438393,-0.275451,-0.112988,-0.180661,-0.198166,0.00234985
0.332338,0.456593,0.224746,-0.296144,-0.12773,0.00210547,-0.198166,0.00234985
0.230576,0.310993,-0.0437941,-0.297815,-0.13873,0.111534,-0.198166,0.00234985
0.17276,0.236133,-0.291204,-0.266981,-0.114775,0.173943,-0.198166,0.00234985
0.121394,0.267835,-0.409778,-0.191815,-0.0616913,0.228982,-0.198166,0.00234985
0.0901518,0.361691,-0.370688,-0.118998,-0.0087536,0.282223,-0.198166,0.00234985
0.100029,0.365444,-0.267618,-0.0796162,0.0282061,0.335615,-0.198166,0.00234985
0.0951157,0.210945,-0.19832,-0.0700998,0.026839,0.383604,-0.198166,0.00234985
0.0885718,0.00721529,-0.170446,-0.0721384,0.00967044,0.397668,-0.198166,0.00234985
0.056226,-0.174135,-0.174545,-0.0776102,0.0104817,0.394891,-0.198166,0.00234985
-0.000316366,-0.170993,-0.207173,-0.0802632,0.0171318,0.349325,-0.198166,0.00234985
-0.0668885,-0.0489778,-0.18059,-0.0583916,0.0397474,0.296762,-0.198166,0.00234985
-0.0461533,0.0448737,-0.0740908,-0.0241888,0.0639785,0.232881,-0.198166,0.00234985
0.0999191,0.0342058,0.070897,-0.0158095,0.0900984,0.17868,-0.198166,0.00234985
0.29375,-0.0590569,0.145861,-0.0380747,0.0863726,0.149526,-0.198166,0.00234985
0.391232,-0.180742,0.159167,-0.0600514,0.0690041,0.161671,-0.198166,0.00234985
0.334247,-0.249776,0.14614,-0.081621,0.0651421,0.178464,-0.198166,0.00234985
0.309803,-0.164901,0.115951,-0.0969481,0.0585373,0.123261,-0.198166,0.00234985
0.439262,-0.0543214,0.0455223,-0.126588,0.0689107,0.0395824,-0.198166,0.00234985
0.669221,0.0724469,-0.0017843,-0.119705,0.0970347,-0.0197149,-0.198166,0.00234985
0.776355,0.064743,0.00738931,-0.0721989,0.100428,0.010631,-0.198166,0.00234985
0.575129,-0.264324,0.0212891,-0.000955686,0.0711673,0.107848,-0.198166,0.00234985
0.144315,-0.771321,-0.0233079,0.0452871,0.0257109,0.105737,-0.198166,0.00234985
-0.313139,-1.16114,-0.252503,-0.0206141,-0.0108114,-0.0669966,-0.198166,0.00234985
-0.764648,-1.16951,-0.616329,-0.0744186,-0.0431731,-0.301727,-0.198166,0.00234985
-0.989116,-0.609372,-0.863462,-0.0589802,-0.0253112,-0.567708,-0.198166,0.00234985
-0.849441,0.0456458,-0.818826,0.0408825,0.0458215,-0.738057,-0.198166,0.00234985
-0.551889,0.118541,-0.585672,0.185012,0.0807634,-0.706815,-0.198166,0.00234985
-0.305007,-0.0572921,-0.39127,0.227645,0.05906,-0.589474,-0.198166,0.00234985
-0.155258,0.0699822,-0.272951,0.192879,0.0341746,-0.487469,-0.198166,0.00234985
-0.117762,0.341695,-0.196179,0.170318,0.00998279,-0.344269,-0.198166,0.00234985
-0.129583,0.489956,-0.108346,0.152006,-0.0104204,-0.176053,-0.198166,0.00234985
-0.138073,0.424002,-0.0243807,0.144292,-0.0322881,-0.030031,-0.198166,0.00234985
-0.111336,0.276277,0.0490249,0.130203,-0.0518075,0.0651588,-0.198166,0.00234985
-0.0732717,0.126118,0.107208,0.115074,-0.0641669,0.122913,-0.198166,0.00234985
-0.0254212,0.0360679,0.195748,0.131109,-0.0793992,0.162638,-0.198166,0.00234985
0.0292733,-0.00197891,0.288326,0.132213,-0.071881,0.181432,-0.198166,0.00234985
0.08965,-0.0101745,0.35314,0.115103,-0.0736665,0.1901,-0.198166,0.00234985
0.145365,-0.0599241,0.356622,0.0965091,-0.0795046,0.200485,-0.198166,0.00234985
0.156286,-0.125491,0.335923,0.0808051,-0.0725608,0.207165,-0.198166,0.00234985
0.155709,-0.203896,0.277532,0.0707903,-0.064312,0.194823,-0.198166,0.00234985
0.150161,-0.255479,0.182927,0.0762629,-0.0677218,0.165078,-0.198166,0.00234985
0.170196,-0.224278,0.117341,0.0879897,-0.0564736,0.109055,-0.198166,0.00234985
0.206986,-0.146083,0.0666981,0.0928733,-0.0333824,0.0726077,-0.198166,0.00234985
0.22628,-0.113855,-0.0221694,0.093492,-0.0251551,0.0661246,-0.198166,0.00234985
0.248566,-0.079434,-0.137651,0.0843447,-0.0179252,0.0701205,-0.198166,0.00234985
0.285926,0.0528956,-0.221683,0.0900386,0.0145276,0.0664208,-0.198166,0.00234985
0.287994,0.238987,-0.223046,0.111821,0.0573524,0.107377,-0.198166,0.00234985
0.359527,0.381916,-0.133034,0.116052,0.0946335,0.155964,-0.198166,0.00234985
0.49801,0.491254,-0.0734719,0.0944861,0.102804,0.222931,-0.198166,0.00234985
0.49801,0.491254,-0.0734719,0.0944861,0.102804,0.222931,-0.166473,0.00197601
0.61717,0.628067,-0.107821,0.0302372,0.100273,0.296616,-0.166473,0.00197601
0.603628,0.64284,-0.0951834,0.00835612,0.102196,0.400534,-0.166473,0.00197601
0.512798,0.466804,-0.0557717,0.00472219,0.116847,0.463693,-0.166473,0.00197601
0.340873,0.152819,-0.013024,0.0192721,0.107138,0.478054,-0.166473,0.00197601
0.234609,-0.0280249,0.077795,0.0514232,0.0979871,0.403081,-0.166473,0.00197601
0.218879,-0.113267,0.170444,0.0678394,0.0784642,0.267322,-0.166473,0.00197601
0.145261,-0.29502,0.240899,0.0863084,0.031966,0.15965,-0.166473,0.00197601
-0.113659,-0.496709,0.167434,0.0679537,-0.0544987,0.0459716,-0.166473,0.00197601
-0.531293,-0.744572,-0.0477784,-0.00388925,-0.106981,-0.0950013,-0.166473,0.00197601
-1.0594,-0.977165,-0.446769,-0.117042,-0.114778,-0.286265,-0.166473,0.00197601
-1.42892,-0.712673,-0.743335,-0.145628,-0.0802975,-0.574346,-0.166473,0.00197601
-1.27304,0.0702036,-0.663279,-0.0826649,0.0429124,-0.889468,-0.166473,0.00197601
-0.700551,0.765705,-0.175376,0.0392908,0.141955,-0.992113,-0.166473,0.00197601
-0.0765032,0.792763,0.38586,0.0860519,0.168558,-0.822419,-0.166473,0.00197601
0.262582,0.367757,0.635576,-0.018683,0.0838333,-0.540873,-0.166473,0.00197601
0.217908,-0.0227185,0.566912,-0.165822,-0.0157162,-0.317789,-0.166473,0.00197601
-0.108362,-0.0863256,0.37471,-0.267649,-0.0827001,-0.184403,-0.166473,0.00197601
-0.407344,0.130167,0.158329,-0.319175,-0.122562,-0.149952,-0.166473,0.00197601
-0.458155,0.326581,-0.0244018,-0.307715,-0.13649,-0.161357,-0.166473,0.00197601
-0.309565,0.446786,-0.124149,-0.2646,-0.120193,-0.137777,-0.166473,0.00197601
-0.0668878,0.432697,-0.162043,-0.216876,-0.0870791,-0.0553159,-0.166473,0.00197601
0.113109,0.309063,-0.160694,-0.161253,-0.0685241,0.0641874,-0.166473,0.00197601
0.181799,0.208729,-0.102125,-0.104413,-0.0573329,0.180818,-0.166473,0.00197601
0.16377,0.0694603,-0.0529321,-0.0763237,-0.0447408,0.271469,-0.166473,0.00197601
0.103543,-0.0128083,0.0114425,-0.0679442,-0.0435991,0.306476,-0.166473,0.00197601
0.0751076,-0.0576272,0.0604709,-0.0714065,-0.0470794,0.304756,-0.166473,0.00197601
0.101668,-0.111179,0.0617224,-0.0784935,-0.043805,0.293895,-0.166473,0.00197601
0.122853,-0.124524,0.0520387,-0.0807038,-0.0435151,0.280591,-0.166473,0.00197601
0.125381,-0.101416,0.0609554,-0.0683278,-0.029213,0.264261,-0.166473,0.00197601
0.152785,-0.0613362,0.0737381,-0.0687989,-0.0109098,0.234854,-0.166473,0.00197601
0.209539,-0.0404128,0.119137,-0.0652822,0.0160466,0.201069,-0.166473,0.00197601
0.31593,-0.0569817,0.156465,-0.0751861,0.0404747,0.18593,-0.166473,0.00197601
0.417472,-0.0522325,0.164874,-0.0894913,0.0469506,0.188364,-0.166473,0.00197601
0.467198,-0.027531,0.144231,-0.101281,0.0540714,0.210978,-0.166473,0.00197601
0.476543,-0.0182685,0.114346,-0.108218,0.0670419,0.229918,-0.166473,0.00197601
0.483532,-0.00655487,0.0945341,-0.104201,0.0817393,0.221087,-0.166473,0.00197601
0.588185,0.0170795,0.128444,-0.0839696,0.103194,0.173422,-0.166473,0.00197601
0.713147,-0.107179,0.213336,-0.0325734,0.112428,0.138236,-0.166473,0.00197601
0.73405,-0.348542,0.275976,0.0127625,0.0772125,0.118808,-0.166473,0.00197601
0.581109,-0.628685,0.209941,0.00367992,0.0181158,0.0725347,-0.166473,0.00197601
0.186811,-0.85216,0.0504687,0.0296433,-0.0527249,0.00132024,-0.166473,0.00197601
-0.366053,-0.878471,-0.217215,-0.00495474,-0.0919224,-0.115787,-0.166473,0.00197601
-0.797278,-0.763199,-0.536166,-0.0598875,-0.0684729,-0.319364,-0.166473,0.00197601
-0.915767,-0.462499,-0.719359,-0.00680028,-0.0417175,-0.546757,-0.166473,0.00197601
-0.682712,-0.0400523,-0.641666,0.104766,0.0216057,-0.701316,-0.166473,0.00197601
-0.319216,0.151078,-0.374008,0.238647,0.0640309,-0.683498,-0.166473,0.00197601
-0.155022,0.053386,-0.0725019,0.301094,0.0700251,-0.513442,-0.166473,0.00197601
-0.14172,0.021292,0.0996567,0.245491,0.0461609,-0.366923,-0.166473,0.00197601
-0.12884,0.197569,0.149534,0.178045,0.0110894,-0.27333,-0.166473,0.00197601
-0.0924578,0.404725,0.217607,0.152584,-0.00438112,-0.171547,-0.166473,0.00197601
-0.0752936,0.467905,0.310857,0.156131,-0.0132831,-0.0406461,-0.166473,0.00197601
-0.0713172,0.371738,0.4085,0.142717,-0.0199609,0.0734482,-0.166473,0.00197601
-0.0591774,0.193034,0.440257,0.114739,-0.0458281,0.145008,-0.166473,0.00197601
-0.0581891,0.0236797,0.460865,0.0976001,-0.0550931,0.188143,-0.166473,0.00197601
-0.0581891,0.0236797,0.460865,0.0976001,-0.0550931,0.188143,-0.179672,0.0021286
-0.0958302,-0.0794857,0.474402,0.0967591,-0.0538665,0.214103,-0.179672,0.0021286
-0.0993237,-0.134157,0.482369,0.0843314,-0.0421439,0.203009,-0.179672,0.0021286
-0.00978439,-0.11082,0.45262,0.0570908,-0.0341566,0.148014,-0.179672,0.0021286
0.152966,-0.0704225,0.405824,0.0449052,-0.0256209,0.106534,-0.179672,0.0021286
0.255303,-0.0910696,0.360319,0.0420195,-0.00749713,0.112897,-0.179672,0.0021286
0.290667,-0.140499,0.285991,0.0515233,-0.00938955,0.129415,-0.179672,0.0021286
0.290995,-0.120533,0.162401,0.043509,-0.00382558,0.118037,-0.179672,0.0021286
0.269286,-0.00355573,0.0490304,0.0396147,0.0112831,0.102204,-0.179672,0.0021286
0.24998,0.104169,-0.0854897,0.0400254,0.0174454,0.107405,-0.179672,0.0021286
0.215929,0.14859,-0.223786,0.0391074,0.0231962,0.137121,-0.179672,0.0021286
0.146642,0.159593,-0.341436,0.0364526,0.0395094,0.183697,-0.179672,0.0021286
0.0563277,0.206927,-0.440295,0.0386154,0.0529957,0.215147,-0.179672,0.0021286
0.00919831,0.290853,-0.494542,0.03856,0.0741971,0.229441,-0.179672,0.0021286
0.0749284,0.320247,-0.445316,0.0616541,0.0987069,0.238795,-0.179672,0.0021286
0.209643,0.331851,-0.361583,0.0761329,0.116292,0.254956,-0.179672,0.0021286
0.260936,0.275065,-0.288,0.0632287,0.12225,0.292207,-0.179672,0.0021286
0.242068,0.183145,-0.226709,0.0676267,0.0973703,0.314647,-0.179672,0.0021286
0.230423,0.162822,-0.12048,0.0877664,0.085858,0.274401,-0.179672,0.0021286
0.271159,0.109811,0.0392633,0.109395,0.0784079,0.199667,-0.179672,0.0021286
0.303862,-0.0160497,0.17283,0.120384,0.0380647,0.113053,-0.179672,0.0021286
0.249305,-0.153419,0.227585,0.107425,-0.0370085,0.0156319,-0.179672,0.0021286
0.0524307,-0.271721,0.263629,0.0941394,-0.0993409,-0.0768956,-0.179672,0.0021286
-0.20371,-0.306808,0.192689,-0.00435451,-0.119079,-0.187213,-0.179672,0.0021286
-0.571448,-0.422886,-0.111508,-0.153693,-0.119166,-0.29062,-0.179672,0.0021286
-0.96615,-0.352762,-0.429258,-0.207806,-0.116598,-0.431726,-0.179672,0.0021286
-1.11973,0.0139423,-0.465758,-0.126742,-0.0556479,-0.606594,-0.179672,0.0021286
-0.917416,0.316205,-0.205237,-0.0225637,0.0340598,-0.724684,-0.179672,0.0021286
-0.513219,0.263103,0.167489,0.0143818,0.0919774,-0.712558,-0.179672,0.0021286
-0.175665,0.133763,0.430438,-0.0260072,0.0693505,-0.60142,-0.179672,0.0021286
-0.0289849,0.14166,0.472524,-0.12967,-0.000838041,-0.445323,-0.179672,0.0021286
-0.0160589,0.297546,0.388454,-0.206796,-0.076195,-0.284189,-0.179672,0.0021286
-0.0296607,0.443574,0.264455,-0.241295,-0.114977,-0.146959,-0.179672,0.0021286
-0.0320011,0.466061,0.111833,-0.251628,-0.128792,-0.0157028,-0.179672,0.0021286
-0.0197853,0.372591,-0.0561298,-0.243061,-0.132701,0.094168,-0.179672,0.0021286
0.00303623,0.226862,-0.196457,-0.198581,-0.123585,0.181524,-0.179672,0.0021286
-0.023789,0.0840815,-0.263986,-0.140584,-0.0837058,0.252623,-0.179672,0.0021286
-0.107969,-0.0407849,-0.226974,-0.0794386,-0.0410341,0.304855,-0.179672,0.0021286
-0.120614,-0.10879,-0.121131,-0.0364933,-0.00434563,0.2889,-0.179672,0.0021286
-0.029621,-0.0520138,-0.01477,-0.0284015,0.0213411,0.227782,-0.179672,0.0021286
0.0959254,0.0310521,0.0480771,-0.0500457,0.0345092,0.197896,-0.179672,0.0021286
0.1526,0.0512015,0.0842432,-0.0504105,0.0321284,0.225484,-0.179672,0.0021286
0.148445,0.049315,0.143653,-0.0428141,0.0435089,0.2582,-0.179672,0.0021286
0.169079,0.0719369,0.220877,-0.0386643,0.058735,0.256875,-0.179672,0.0021286
0.255138,0.099764,0.316105,-0.0421247,0.0784577,0.235928,-0.179672,0.0021286
0.366487,0.0926811,0.396445,-0.0518907,0.0817708,0.244854,-0.179672,0.0021286
0.431498,-0.0300551,0.426967,-0.0711146,0.0739849,0.284516,-0.179672,0.0021286
0.393824,-0.240921,0.414853,-0.0880567,0.0696387,0.31456,-0.179672,0.0021286
0.346607,-0.268341,0.301178,-0.14162,0.0657332,0.264025,-0.179672,0.0021286
0.347621,-0.162111,0.142656,-0.170755,0.0718452,0.169103,-0.179672,0.0021286
0.466895,0.0214909,0.0646209,-0.134976,0.0908175,0.0795221,-0.179672,0.0021286
0.600293,0.163118,0.140176,-0.0662989,0.134766,0.0543326,-0.179672,0.0021286
0.66149,0.0493778,0.213872,-0.0128071,0.105812,0.0700666,-0.179672,0.0021286
0.539037,-0.403975,0.159613,0.0162345,0.0176554,0.0914932,-0.179672,0.0021286
0.164264,-0.72234,-0.0319207,0.0245624,-0.0687181,0.00466621,-0.179672,0.0021286
0.164264,-0.72234,-0.0319207,0.0245624,-0.0687181,0.00466621,-0.166473,0.00196075
-0.450078,-0.886624,-0.243497,0.0400838,-0.119771,-0.121226,-0.166473,0.00196075
-0.944234,-0.82807,-0.501407,-0.00874992,-0.0958247,-0.355487,-0.166473,0.00196075
-0.957383,-0.456525,-0.638457,0.00690366,-0.0541507,-0.67074,-0.166473,0.00196075
-0.546998,0.0814255,-0.545879,0.080219,0.0129886,-0.85155,-0.166473,0.00196075
-0.121591,0.340731,-0.357695,0.142792,0.0476701,-0.784005,-0.166473,0.00196075
0.00177172,0.307458,-0.229151,0.151854,0.0163681,-0.531322,-0.166473,0.00196075
-0.083327,0.248916,-0.240248,0.082891,-0.0121364,-0.31642,-0.166473,0.00196075
-0.198447,0.283096,-0.269716,0.0528755,-0.0266595,-0.197314,-0.166473,0.00196075
-0.239638,0.352807,-0.212399,0.077281,-0.0175219,-0.116545,-0.166473,0.00196075
-0.223353,0.352229,-0.0826185,0.0977539,0.00110167,-0.0321794,-0.166473,0.00196075
-0.202169,0.245382,0.0610966,0.101059,0.00619549,0.0586404,-0.166473,0.00196075
-0.188346,0.0912764,0.157573,0.0837507,-0.00958657,0.13281,-0.166473,0.00196075
-0.168146,-0.100463,0.183198,0.0520613,-0.032598,0.189299,-0.166473,0.00196075
-0.153649,-0.243523,0.19157,0.036596,-0.040264,0.205063,-0.166473,0.00196075
-0.118864,-0.320283,0.225604,0.0396444,-0.0323356,0.188883,-0.166473,0.00196075
-0.0302806,-0.346209,0.263966,0.0266053,-0.00863725,0.153142,-0.166473,0.00196075
0.089394,-0.339808,0.227569,-0.00146451,-0.0013544,0.118862,-0.166473,0.00196075
0.149006,-0.346851,0.110405,-0.0269709,-0.00372219,0.1201,-0.166473,0.00196075
0.16371,-0.311477,-0.0269823,-0.0265047,0.00164688,0.1147,-0.166473,0.00196075
0.162303,-0.230547,-0.141924,0.00086249,0.0183701,0.111449,-0.166473,0.00196075
0.171685,-0.13964,-0.200317,0.0338954,0.0417958,0.108437,-0.166473,0.00196075
0.15734,-0.110995,-0.249217,0.047921,0.0583183,0.137157,-0.166473,0.00196075
0.111815,-0.118078,-0.316425,0.0544293,0.051911,0.16666,-0.166473,0.00196075
0.030952,-0.126986,-0.413995,0.0499967,0.0524219,0.18883,-0.166473,0.00196075
-0.0288572,-0.101753,-0.462284,0.0651912,0.0678057,0.193381,-0.166473,0.00196075
0.0390008,-0.26901,-0.406503,0.103079,0.100728,0.197215,-0.166473,0.00196075
0.289059,-0.349414,-0.28542,0.144426,0.131135,0.168439,-0.166473,0.00196075
0.514609,-0.316009,-0.11784,0.150241,0.170203,0.204582,-0.166473,0.00196075
0.561797,-0.174811,-0.0101732,0.12663,0.15435,0.305997,-0.166473,0.00196075
0.377005,-0.0290793,0.0274765,0.105657,0.13596,0.417759,-0.166473,0.00196075
0.066455,0.0951777,0.0388343,0.0941093,0.0964983,0.463086,-0.166473,0.00196075
-0.190222,0.13449,0.0948864,0.094085,0.0769209,0.430001,-0.166473,0.00196075
-0.259892,0.00172165,0.190869,0.0940132,0.0690799,0.320464,-0.166473,0.00196075
-0.161498,-0.287094,0.321273,0.13352,0.00609347,0.153834,-0.166473,0.00196075
-0.0890982,-0.479628,0.413676,0.105478,-0.0374278,-0.020778,-0.166473,0.00196075
-0.210172,-0.558416,0.412002,0.0473815,-0.116024,-0.159561,-0.166473,0.00196075
-0.415528,-0.448249,0.187832,-0.0678782,-0.194864,-0.323536,-0.166473,0.00196075
-0.724731,-0.400853,-0.186643,-0.220232,-0.18956,-0.460504,-0.166473,0.00196075
-0.900879,-0.0811042,-0.500134,-0.251756,-0.172463,-0.642016,-0.166473,0.00196075
-0.81978,0.234006,-0.596505,-0.183348,-0.117055,-0.767124,-0.166473,0.00196075
-0.533125,0.356263,-0.417908,-0.0941237,-0.0242492,-0.785461,-0.166473,0.00196075
-0.212377,0.39931,-0.139514,-0.0713616,0.0441153,-0.705449,-0.166473,0.00196075
-0.0309916,0.369597,-0.0164746,-0.124208,0.0268692,-0.550743,-0.166473,0.00196075
-0.0150415,0.297462,-0.0386994,-0.193719,-0.0188364,-0.378218,-0.166473,0.00196075
-0.0600572,0.29174,-0.12014,-0.236111,-0.0554447,-0.248347,-0.166473,0.00196075
-0.102263,0.26721,-0.225592,-0.244731,-0.0734722,-0.146277,-0.166473,0.00196075
-0.101036,0.20283,-0.35046,-0.24393,-0.0869224,-0.071198,-0.166473,0.00196075
-0.0466224,0.117451,-0.449429,-0.228257,-0.0839399,-0.0141095,-0.166473,0.00196075
0.0596529,0.0217814,-0.486989,-0.186478,-0.0550293,0.0371718,-0.166473,0.00196075
0.201658,-0.0131991,-0.490477,-0.132746,-0.0283877,0.080657,-0.166473,0.00196075
0.281613,-0.0106097,-0.490154,-0.102344,-0.00646396,0.149123,-0.166473,0.00196075
0.265981,-0.0186036,-0.487801,-0.0879389,-0.000975251,0.224611,-0.166473,0.00196075
0.190347,-0.0704022,-0.474377,-0.0672069,-0.00274855,0.276371,-0.166473,0.00196075
0.152272,-0.128347,-0.436542,-0.0673399,0.00627115,0.283351,-0.166473,0.00196075
0.152272,-0.128347,-0.436542,-0.0673399,0.00627115,0.283351,-0.161179,0.00190735
0.179741,-0.195318,-0.457208,-0.0903936,0.00341803,0.260607,-0.161179,0.00190735
0.210511,-0.162078,-0.558676,-0.123921,-0.0128492,0.233109,-0.161179,0.00190735
0.186764,-0.074419,-0.648716,-0.132931,-0.000919372,0.235882,-0.161179,0.00190735
0.123315,-0.061022,-0.67008,-0.103377,0.0184067,0.260294,-0.161179,0.00190735
0.0733211,-0.179156,-0.649546,-0.0827781,0.0338417,0.252865,-0.161179,0.00190735
0.137373,-0.256136,-0.624727,-0.0887241,0.0456689,0.176392,-0.161179,0.00190735
0.291563,-0.203397,-0.608371,-0.104017,0.0746092,0.104585,-0.161179,0.00190735
0.4374,-0.00115577,-0.599701,-0.110846,0.0854652,0.100055,-0.161179,0.00190735
0.516145,0.0916505,-0.582772,-0.118268,0.0954599,0.179212,-0.161179,0.00190735
0.543669,0.0174372,-0.576464,-0.116324,0.0911906,0.28047,-0.161179,0.00190735
0.540815,-0.19394,-0.596347,-0.113255,0.0826611,0.336284,-0.161179,0.00190735
0.535156,-0.33118,-0.644326,-0.115838,0.0779447,0.306947,-0.161179,0.00190735
0.537061,-0.306398,-0.69947,-0.109327,0.0838464,0.238073,-0.161179,0.00190735
0.513759,-0.388337,-0.689354,-0.0588904,0.0780886,0.168445,-0.161179,0.00190735
0.417858,-0.789316,-0.632781,0.0107954,0.0605064,0.105133,-0.161179,0.00190735
0.241571,-1.20755,-0.678537,0.0245184,0.0105819,-0.0307474,-0.161179,0.00190735
-0.0764638,-1.41146,-0.877849,-0.00153817,-0.0249552,-0.209973,-0.161179,0.00190735
-0.578168,-1.31444,-1.1844,-0.0678517,-0.0154382,-0.390853,-0.161179,0.00190735
-0.956112,-0.83918,-1.40645,-0.0548373,0.00550959,-0.6188,-0.161179,0.00190735
-0.907849,-0.252654,-1.38535,0.0515543,0.0639079,-0.819754,-0.161179,0.00190735
-0.515563,0.106864,-1.12897,0.161756,0.124599,-0.871704,-0.161179,0.00190735
-0.186097,0.082582,-0.850145,0.235095,0.126974,-0.704969,-0.161179,0.00190735
-0.114787,0.0611773,-0.679988,0.224933,0.0784183,-0.465339,-0.161179,0.00190735
-0.174567,0.2162,-0.584606,0.187967,0.0332639,-0.275246,-0.161179,0.00190735
-0.261359,0.354388,-0.479935,0.172619,0.0208891,-0.10829,-0.161179,0.00190735
-0.296996,0.374974,-0.37286,0.159993,0.00697806,0.0264328,-0.161179,0.00190735
-0.24931,0.338182,-0.251874,0.160148,-0.0104847,0.120488,-0.161179,0.00190735
-0.168617,0.28076,-0.114714,0.142012,-0.00826842,0.197315,-0.161179,0.00190735
-0.120765,0.121607,0.0511492,0.141662,-0.0180483,0.270009,-0.161179,0.00190735
-0.0751568,-0.106359,0.195748,0.144299,-0.0536259,0.308054,-0.161179,0.00190735
-0.0063212,-0.291437,0.289984,0.10491,-0.0661176,0.28811,-0.161179,0.00190735
0.0636559,-0.479014,0.360455,0.0737265,-0.0695999,0.250713,-0.161179,0.00190735
0.160895,-0.601673,0.35906,0.0432259,-0.0861109,0.180036,-0.161179,0.00190735
0.188916,-0.630514,0.237657,0.0176925,-0.117165,0.111366,-0.161179,0.00190735
0.0838481,-0.619719,-0.00344564,-0.0178553,-0.148908,0.0463176,-0.161179,0.00190735
-0.0525762,-0.647857,-0.359083,-0.0672346,-0.155507,-0.0571095,-0.161179,0.00190735
-0.151384,-0.651941,-0.717329,-0.0813368,-0.1152,-0.17745,-0.161179,0.00190735
-0.138831,-0.322816,-0.963128,-0.0423237,-0.0480119,-0.299744,-0.161179,0.00190735
0.0159012,0.180073,-1.04258,0.00520487,0.0376552,-0.346895,-0.161179,0.00190735
0.259216,0.542066,-1.00441,0.0735941,0.0858702,-0.272267,-0.161179,0.00190735
0.352829,0.645966,-0.934739,0.0994484,0.11111,-0.0694236,-0.161179,0.00190735
0.351972,0.657232,-0.860629,0.102841,0.09942,0.107188,-0.161179,0.00190735
0.304054,0.568887,-0.824583,0.101034,0.0793973,0.236278,-0.161179,0.00190735
0.23031,0.456704,-0.748652,0.112989,0.071566,0.316549,-0.161179,0.00190735
0.120709,0.273795,-0.575992,0.150339,0.0740409,0.375124,-0.161179,0.00190735
0.0455026,0.00139632,-0.343523,0.169257,0.0778136,0.398275,-0.161179,0.00190735
0.0128415,-0.266386,-0.124365,0.150752,0.0788654,0.366686,-0.161179,0.00190735
0.0356106,-0.390718,0.0240635,0.0854503,0.0689099,0.298227,-0.161179,0.00190735
0.159687,-0.484632,-0.00573211,-0.0229934,0.0401371,0.218475,-0.161179,0.00190735
0.351598,-0.470849,-0.157386,-0.105169,0.0202893,0.142818,-0.161179,0.00190735
0.53095,-0.322208,-0.257514,-0.12304,0.0343565,0.102652,-0.161179,0.00190735
0.605154,-0.264227,-0.257602,-0.107041,0.0706866,0.133112,-0.161179,0.00190735
0.642865,-0.297882,-0.268751,-0.0991413,0.0572037,0.154586,-0.161179,0.00190735
0.606668,-0.249292,-0.446178,-0.137549,0.0184626,0.127129,-0.161179,0.00190735
0.606668,-0.249292,-0.446178,-0.137549,0.0184626,0.127129,-0.20874,0.00247192
0.382631,-0.368716,-0.648726,-0.17166,-0.0189034,0.108445,-0.20874,0.00247192
0.139729,-0.826261,-0.828158,-0.139105,-0.0573522,0.0403365,-0.20874,0.00247192
-0.0216708,-1.1271,-1.0043,-0.151906,-0.00169644,-0.144676,-0.20874,0.00247192
-0.295338,-1.09497,-1.23259,-0.253651,0.0662316,-0.306456,-0.20874,0.00247192
-0.605583,-0.796959,-1.41047,-0.262667,0.0695783,-0.440383,-0.20874,0.00247192
-0.738955,-0.223589,-1.46232,-0.211366,0.0758375,-0.560001,-0.20874,0.00247192
-0.791155,0.220206,-1.33437,-0.149287,0.115265,-0.577051,-0.20874,0.00247192
-0.777678,0.181684,-1.05329,-0.0639323,0.104194,-0.486218,-0.20874,0.00247192
-0.645262,-0.0646932,-0.815454,-0.0694253,0.0742331,-0.418273,-0.20874,0.00247192
-0.476355,-0.0693586,-0.717491,-0.146499,0.0209824,-0.384921,-0.20874,0.00247192
-0.328229,0.136545,-0.688168,-0.184861,-0.0522846,-0.304137,-0.20874,0.00247192
-0.216109,0.294188,-0.655746,-0.172339,-0.0950124,-0.171447,-0.20874,0.00247192
-0.129333,0.24925,-0.616954,-0.14823,-0.122923,-0.010989,-0.20874,0.00247192
-0.0432123,0.121319,-0.658131,-0.157824,-0.152535,0.106011,-0.20874,0.00247192
0.0022775,-0.162868,-0.751937,-0.163877,-0.159983,0.202111,-0.20874,0.00247192
0.00914532,-0.411155,-0.857166,-0.150732,-0.176597,0.2508,-0.20874,0.00247192
0.0232967,-0.449413,-0.968086,-0.14894,-0.153421,0.241457,-0.20874,0.00247192
0.0428444,-0.343714,-1.06688,-0.146668,-0.121623,0.20618,-0.20874,0.00247192
0.0181849,-0.278272,-1.10051,-0.112905,-0.0918113,0.200617,-0.20874,0.00247192
0.00857933,-0.277533,-1.0811,-0.0824973,-0.053443,0.170759,-0.20874,0.00247192
0.103909,-0.262652,-1.12641,-0.102016,-0.0403655,0.0918812,-0.20874,0.00247192
0.207824,-0.232784,-1.20344,-0.128245,-0.0271307,0.0277033,-0.20874,0.00247192
0.211528,-0.186358,-1.21321,-0.107373,-0.00467446,-0.00094521,-0.20874,0.00247192
0.168625,-0.0932027,-1.17945,-0.101057,0.0225731,-0.0182025,-0.20874,0.00247192
0.140358,-0.036699,-1.15143,-0.112162,0.0366817,-0.0513596,-0.20874,0.00247192
0.150145,-0.012981,-1.1842,-0.151079,0.0335964,-0.0846828,-0.20874,0.00247192
0.106941,-0.0337839,-1.22897,-0.16208,0.0227394,-0.0790425,-0.20874,0.00247192
0.0484046,0.0259749,-1.23743,-0.148337,0.014117,-0.0716748,-0.20874,0.00247192
0.0264513,0.0828502,-1.23617,-0.130664,-0.00586814,-0.0627288,-0.20874,0.00247192
-0.0157316,-0.0127264,-1.21306,-0.0943553,-0.0361694,-0.0202847,-0.20874,0.00247192
-0.0624924,-0.162939,-1.19825,-0.0787903,-0.0643394,0.00469279,-0.20874,0.00247192
-0.0946938,-0.304923,-1.23649,-0.0780081,-0.0848866,-0.0102267,-0.20874,0.00247192
-0.108344,-0.317886,-1.2767,-0.0810852,-0.0934284,-0.055872,-0.20874,0.00247192
-0.0363816,-0.190052,-1.28208,-0.0710844,-0.0773188,-0.112126,-0.20874,0.00247192
0.153637,-0.0584479,-1.24858,-0.0521689,-0.0575681,-0.143133,-0.20874,0.00247192
0.295433,-0.0960273,-1.18119,-0.0211173,-0.0380078,-0.0774801,-0.20874,0.00247192
0.364254,-0.183879,-1.13124,-0.0160781,-0.0405168,-0.00171423,-0.20874,0.00247192
0.39124,-0.264823,-1.17342,-0.0362535,-0.0454215,0.0300823,-0.20874,0.00247192
0.348869,-0.285845,-1.22753,-0.0365393,-0.0484737,0.0387769,-0.20874,0.00247192
0.288174,-0.250386,-1.25425,-0.0272339,-0.0201299,0.0202054,-0.20874,0.00247192
0.247552,-0.265554,-1.26793,-0.0232082,0.00214747,-0.0027377,-0.20874,0.00247192
0.282455,-0.349219,-1.26831,-0.00734553,0.0271895,-0.0553939,-0.20874,0.00247192
0.352365,-0.403871,-1.26422,-0.0143042,0.0665194,-0.114293,-0.20874,0.00247192
0.423712,-0.345121,-1.22869,-0.0191093,0.106451,-0.172292,-0.20874,0.00247192
0.500852,-0.258815,-1.17614,-0.0125268,0.141446,-0.192991,-0.20874,0.00247192
0.571733,-0.162922,-1.0951,-0.00835975,0.171037,-0.178525,-0.20874,0.00247192
0.605184,-0.192282,-1.001,-0.01946,0.199474,-0.119921,-0.20874,0.00247192
0.579246,-0.326164,-0.984301,-0.0567555,0.200238,-0.0568054,-0.20874,0.00247192
0.45431,-0.404326,-1.05556,-0.102819,0.195293,-0.0123892,-0.20874,0.00247192
0.251293,-0.392235,-1.12474,-0.116958,0.203274,0.0141131,-0.20874,0.00247192
0.0398955,-0.308009,-1.16199,-0.102254,0.207703,0.0260221,-0.20874,0.00247192
-0.0845059,-0.243894,-1.14914,-0.0867657,0.209011,0.0262414,-0.20874,0.00247192
-0.101344,-0.320116,-1.118,-0.054061,0.199312,0.0336025,-0.20874,0.00247192
-0.101344,-0.320116,-1.118,-0.054061,0.199312,0.0336025,-0.240448,0.00285339
-0.0794769,-0.411465,-1.04939,-0.0156258,0.180415,0.041748,-0.240448,0.00285339
-0.0717975,-0.453905,-0.947681,0.015101,0.168461,0.0503896,-0.240448,0.00285339
-0.111904,-0.520908,-0.883637,0.0161171,0.144616,0.0717524,-0.240448,0.00285339
-0.182244,-0.61077,-0.845287,0.0141913,0.110006,0.0873826,-0.240448,0.00285339
-0.206058,-0.636272,-0.818909,0.0123778,0.0889716,0.0661421,-0.240448,0.00285339
-0.136535,-0.619638,-0.835998,-0.00408249,0.0732564,0.0233358,-0.240448,0.00285339
-0.105832,-0.622138,-0.886136,-0.00754026,0.0499892,0.0288028,-0.240448,0.00285339
-0.211397,-0.695949,-0.913553,0.00728258,0.0370761,0.0730914,-0.240448,0.00285339
-0.331298,-0.754973,-1.00536,-0.00852578,0.0277862,0.0669363,-0.240448,0.00285339
-0.368493,-0.734207,-1.11517,-0.00474445,0.0131158,0.00936812,-0.240448,0.00285339
-0.354159,-0.641043,-1.17127,0.010483,0.0221486,-0.0477927,-0.240448,0.00285339
-0.344854,-0.588612,-1.1772,0.0388094,0.0270474,-0.0606236,-0.240448,0.00285339
-0.299133,-0.543493,-1.19872,0.053763,0.00822558,-0.0714581,-0.240448,0.00285339
-0.261202,-0.554801,-1.24062,0.0494757,-0.00518066,-0.0706015,-0.240448,0.00285339
-0.244446,-0.552169,-1.29732,0.0512545,-0.0225811,-0.070117,-0.240448,0.00285339
-0.254294,-0.489281,-1.31881,0.0641408,-0.0254708,-0.0761194,-0.240448,0.00285339
-0.197983,-0.381346,-1.28866,0.0866196,-0.0227687,-0.0963722,-0.240448,0.00285339
-0.0227115,-0.297596,-1.23047,0.101474,-0.0169615,-0.118509,-0.240448,0.00285339
0.134698,-0.338744,-1.16187,0.108569,-0.0155398,-0.0773672,-0.240448,0.00285339
0.21126,-0.45911,-1.11361,0.108586,-0.0315976,-0.0174908,-0.240448,0.00285339
0.206604,-0.545861,-1.09507,0.0953209,-0.0418957,0.0133634,-0.240448,0.00285339
0.123721,-0.549893,-1.11513,0.0723221,-0.0544546,0.00904077,-0.240448,0.00285339
0.0492096,-0.437417,-1.21853,0.0187744,-0.0557691,-0.0299583,-0.240448,0.00285339
-0.056116,-0.393807,-1.35044,-0.0016405,-0.0630277,-0.0465927,-0.240448,0.00285339
-0.160068,-0.396917,-1.44011,0.000599018,-0.0438737,-0.0604274,-0.240448,0.00285339
-0.179822,-0.274555,-1.48127,0.00276413,-0.0169805,-0.11131,-0.240448,0.00285339
-0.100764,-0.0715055,-1.47283,0.0101982,0.0114645,-0.140765,-0.240448,0.00285339
0.00876758,0.0498267,-1.38037,0.0283092,0.0330822,-0.0921428,-0.240448,0.00285339
0.0814854,-0.000987745,-1.26759,0.0366409,0.0406464,0.00790012,-0.240448,0.00285339
0.102116,-0.0761667,-1.18264,0.0186668,0.0252362,0.0760725,-0.240448,0.00285339
0.105705,-0.0833613,-1.13457,-0.0297391,0.0204054,0.0954143,-0.240448,0.00285339
0.1514,-0.130084,-1.06212,-0.0407073,0.0228405,0.0961924,-0.240448,0.00285339
0.164956,-0.215364,-0.965033,-0.0513589,0.0366716,0.102392,-0.240448,0.00285339
0.134188,-0.271364,-0.911274,-0.0855943,0.0306089,0.0911964,-0.240448,0.00285339
0.0600603,-0.309384,-0.944283,-0.125353,0.0131136,0.0727583,-0.240448,0.00285339
-0.0243173,-0.313726,-0.978202,-0.130924,-0.00168636,0.0433918,-0.240448,0.00285339
-0.0648724,-0.322986,-0.987214,-0.119522,-0.00414059,0.0107871,-0.240448,0.00285339
-0.0603872,-0.325484,-0.95401,-0.103539,-0.00447547,-0.0203907,-0.240448,0.00285339
-0.0396618,-0.318592,-0.908047,-0.0792066,-0.0143974,-0.028988,-0.240448,0.00285339
-0.0488031,-0.268056,-0.872522,-0.0779542,-0.0253119,-0.0280103,-0.240448,0.00285339
-0.020642,-0.153949,-0.844635,-0.0810577,-0.0371438,-0.0183881,-0.240448,0.00285339
0.0366451,-0.0711671,-0.819851,-0.0798302,-0.0474057,-0.003254,-0.240448,0.00285339
0.0562037,-0.0369975,-0.779638,-0.0629743,-0.0545582,0.044196,-0.240448,0.00285339
0.0639613,-0.0152922,-0.719486,-0.0572409,-0.0609015,0.0734589,-0.240448,0.00285339
0.0557297,0.000986601,-0.65515,-0.0564584,-0.0616348,0.0897518,-0.240448,0.00285339
0.0557619,-0.0149486,-0.598095,-0.0639551,-0.0698954,0.0972494,-0.240448,0.00285339
0.057997,-0.0443278,-0.558906,-0.0667207,-0.0756184,0.0886017,-0.240448,0.00285339
0.108302,-0.023784,-0.532413,-0.0684637,-0.0778848,0.0594823,-0.240448,0.00285339
0.160344,-0.0012072,-0.489214,-0.0458159,-0.0787254,0.0319884,-0.240448,0.00285339
0.141604,-0.0651861,-0.371142,-0.00294334,-0.0730894,0.0343735,-0.240448,0.00285339
0.0814792,-0.230043,-0.242065,0.0145019,-0.0716426,0.0230533,-0.240448,0.00285339
0.0125442,-0.420447,-0.232645,-0.0344987,-0.0801691,-0.0395775,-0.240448,0.00285339
-0.0558621,-0.398712,-0.319801,-0.0755542,-0.0733291,-0.124523,-0.240448,0.00285339
-0.0619602,-0.0283476,-0.392358,-0.0708053,-0.0598444,-0.181593,-0.240448,0.00285339
-0.0619602,-0.0283476,-0.392358,-0.0708053,-0.0598444,-0.181593,-0.216675,0.00254822
0.0903159,0.360144,-0.385263,-0.0110299,-0.0286186,-0.1845,-0.216675,0.00254822
0.267542,0.444417,-0.24598,0.0456242,0.0131904,-0.0770002,-0.216675,0.00254822
0.31166,0.184933,-0.0945867,0.0792376,0.00911537,0.0886363,-0.216675,0.00254822
0.262858,-0.0638397,-0.0729171,0.0585749,-0.0237112,0.169167,-0.216675,0.00254822
0.108525,-0.056934,-0.156946,-0.000537876,-0.0299555,0.166978,-0.216675,0.00254822
-0.0733473,0.106518,-0.205349,-0.0121653,-0.00860202,0.133819,-0.216675,0.00254822
-0.101246,0.229026,-0.170716,0.0163215,0.0266843,0.0752874,-0.216675,0.00254822
-0.0189329,0.109546,-0.045587,0.0743353,0.0563799,0.0598568,-0.216675,0.00254822
0.0679905,-0.156005,0.131847,0.122301,0.0562104,0.0699477,-0.216675,0.00254822
0.101769,-0.407561,0.23858,0.118614,0.0329106,0.0514328,-0.216675,0.00254822
0.0344189,-0.515157,0.219329,0.0706226,0.00583753,0.0114462,-0.216675,0.00254822
-0.123027,-0.505408,0.115378,0.0173502,-0.0113392,-0.0500932,-0.216675,0.00254822
-0.302315,-0.466765,-0.0397945,-0.0280017,-0.00553884,-0.127234,-0.216675,0.00254822
-0.341561,-0.250605,-0.145242,-0.0249696,0.00262176,-0.243086,-0.216675,0.00254822
-0.183954,0.0850549,-0.172702,-0.0144131,0.0391359,-0.310681,-0.216675,0.00254822
0.0930879,0.34851,-0.128394,0.00917076,0.0602807,-0.273314,-0.216675,0.00254822
0.313503,0.404411,-0.0447247,0.0277806,0.0698726,-0.123029,-0.216675,0.00254822
0.356761,0.280862,-0.0279955,0.0117673,0.0515424,0.0628191,-0.216675,0.00254822
0.285923,0.151729,-0.066939,0.0016321,0.0149795,0.188681,-0.216675,0.00254822
0.128341,0.0260491,-0.109963,0.0019324,0.00382024,0.259326,-0.216675,0.00254822
-0.046391,-0.125485,-0.130239,0.0341982,-0.0133197,0.28827,-0.216675,0.00254822
-0.182979,-0.274262,-0.149179,0.0466817,-0.0177299,0.256908,-0.216675,0.00254822
-0.283555,-0.396554,-0.178765,0.055275,-0.0248991,0.203729,-0.216675,0.00254822
-0.33999,-0.39044,-0.208485,0.0618794,-0.0280281,0.115518,-0.216675,0.00254822
-0.323174,-0.377789,-0.224034,0.0712757,-0.0260243,0.0348821,-0.216675,0.00254822
-0.222293,-0.355147,-0.210989,0.0862467,-0.0243327,-0.0235728,-0.216675,0.00254822
-0.0769735,-0.301015,-0.209841,0.075644,-0.0117404,-0.0729711,-0.216675,0.00254822
0.0590981,-0.205424,-0.218698,0.0667615,-0.0152175,-0.0971619,-0.216675,0.00254822
0.157575,-0.0746503,-0.236169,0.0580887,-0.00994815,-0.0718288,-0.216675,0.00254822
0.240696,0.055804,-0.242285,0.052627,-5.57303e-06,-0.00806969,-0.216675,0.00254822
0.315064,0.117413,-0.244391,0.0465226,0.00932175,0.0866502,-0.216675,0.00254822
0.342206,0.123626,-0.255846,0.0372519,0.0121164,0.193454,-0.216675,0.00254822
0.342333,0.114647,-0.264004,0.035897,0.0123736,0.284726,-0.216675,0.00254822
0.306774,0.0656334,-0.27995,0.0392931,0.018352,0.369058,-0.216675,0.00254822
0.231012,0.0103532,-0.274876,0.0483278,0.0239499,0.426413,-0.216675,0.00254822
0.152432,-0.0526439,-0.280445,0.0555482,0.0258725,0.449796,-0.216675,0.00254822
0.0943479,-0.110179,-0.289425,0.0619778,0.0238031,0.42694,-0.216675,0.00254822
0.086641,-0.18679,-0.251314,0.0910594,0.0350945,0.36343,-0.216675,0.00254822
0.158388,-0.206593,-0.202776,0.103624,0.0380613,0.26237,-0.216675,0.00254822
0.226306,-0.193924,-0.132025,0.139036,0.0253344,0.183071,-0.216675,0.00254822
0.185772,-0.199855,-0.0323823,0.167944,-0.00581694,0.128006,-0.216675,0.00254822
-0.0694081,-0.306082,0.00899073,0.162483,-0.0614211,0.0894063,-0.216675,0.00254822
-0.49626,-0.573568,-0.0922999,0.0998365,-0.144914,-0.00580633,-0.216675,0.00254822
-1.03732,-0.941616,-0.369215,-0.0432006,-0.150061,-0.199203,-0.216675,0.00254822
-1.35917,-0.671744,-0.606881,-0.129424,-0.128709,-0.537296,-0.216675,0.00254822
-1.22765,0.0522073,-0.66988,-0.126233,-0.0614256,-0.847047,-0.216675,0.00254822
-0.797425,0.526382,-0.412761,-0.051079,0.0472136,-0.919588,-0.216675,0.00254822
-0.356653,0.675548,0.0493959,0.00375394,0.116795,-0.787589,-0.216675,0.00254822
0.0317009,0.716784,0.344995,-0.00179965,0.0644743,-0.585458,-0.216675,0.00254822
0.281674,0.685717,0.534912,-0.0523627,0.00733821,-0.354896,-0.216675,0.00254822
0.340579,0.507972,0.632165,-0.0996961,-0.0326497,-0.133184,-0.216675,0.00254822
0.22883,0.17016,0.652912,-0.129378,-0.0919611,0.0288436,-0.216675,0.00254822
0.0451195,-0.137162,0.582035,-0.167538,-0.135812,0.0964062,-0.216675,0.00254822
-0.0838203,-0.127912,0.393516,-0.23594,-0.155418,0.0657742,-0.216675,0.00254822
-0.0838203,-0.127912,0.393516,-0.23594,-0.155418,0.0657742,-0.171753,0.00203705
-0.097426,0.102901,0.16112,-0.26849,-0.144862,0.0102492,-0.171753,0.00203705
-0.0376967,0.25565,-0.0129349,-0.218947,-0.124367,0.0241081,-0.171753,0.00203705
0.0244526,0.302647,-0.0588465,-0.139687,-0.0832883,0.0948209,-0.171753,0.00203705
0.0728847,0.256771,0.0109201,-0.0772562,-0.0428365,0.169905,-0.171753,0.00203705
0.114742,0.14499,0.082571,-0.0451427,-0.030672,0.232303,-0.171753,0.00203705
0.140756,0.0523893,0.10895,-0.0531112,-0.0368336,0.270955,-0.171753,0.00203705
0.146325,0.0207173,0.10712,-0.0703179,-0.0381128,0.278956,-0.171753,0.00203705
0.129548,0.0584259,0.103457,-0.0804631,-0.0334621,0.27941,-0.171753,0.00203705
0.094838,0.118168,0.0973384,-0.0857893,-0.0274322,0.286103,-0.171753,0.00203705
0.0307921,0.131642,0.106477,-0.0869297,-0.0132185,0.296245,-0.171753,0.00203705
0.0129686,0.0963527,0.131549,-0.084539,-0.000869632,0.286461,-0.171753,0.00203705
0.115092,0.0886115,0.179144,-0.0871162,0.0162345,0.2431,-0.171753,0.00203705
0.308559,0.0811567,0.240275,-0.0860808,0.0313794,0.21369,-0.171753,0.00203705
0.501203,0.0185164,0.318496,-0.0761768,0.0505375,0.234917,-0.171753,0.00203705
0.637105,-0.0163758,0.399101,-0.0723302,0.0624786,0.248189,-0.171753,0.00203705
0.67746,-0.0684789,0.42557,-0.0964172,0.0800043,0.259653,-0.171753,0.00203705
0.684005,-0.123357,0.389153,-0.118849,0.0719223,0.225736,-0.171753,0.00203705
0.737237,-0.0466058,0.315883,-0.121058,0.0651516,0.126906,-0.171753,0.00203705
0.72357,-0.0216521,0.289276,-0.0805578,0.0646016,0.0514008,-0.171753,0.00203705
0.551833,-0.284244,0.284454,-0.0114324,0.0402021,0.0235599,-0.171753,0.00203705
0.210232,-0.694178,0.167841,0.00711003,-0.00954872,-0.0599539,-0.171753,0.00203705
-0.223418,-1.01643,-0.0440119,-0.0287069,-0.0321142,-0.224352,-0.171753,0.00203705
-0.6623,-0.952517,-0.234465,-0.0584847,-0.0172995,-0.43437,-0.171753,0.00203705
-0.909308,-0.717301,-0.343086,-0.0304024,-0.0317584,-0.640876,-0.171753,0.00203705
-0.866749,-0.511726,-0.364119,-0.00179845,0.00452051,-0.791,-0.171753,0.00203705
-0.541543,-0.014287,-0.266132,0.0298922,0.0712008,-0.857089,-0.171753,0.00203705
-0.208167,0.504806,-0.0900173,0.0817581,0.0755,-0.742052,-0.171753,0.00203705
-0.0742399,0.596206,0.0467197,0.125305,0.0227325,-0.422726,-0.171753,0.00203705
-0.0898056,0.429553,0.139088,0.123645,-0.0121787,-0.146587,-0.171753,0.00203705
-0.215804,0.243106,0.192204,0.113627,-0.0475578,0.029393,-0.171753,0.00203705
-0.358705,0.162445,0.181857,0.0888274,-0.0793375,0.119921,-0.171753,0.00203705
-0.470791,0.147624,0.185759,0.0953742,-0.098065,0.168288,-0.171753,0.00203705
-0.500583,0.0318353,0.244232,0.102916,-0.0872401,0.18789,-0.171753,0.00203705
-0.420887,-0.153305,0.330336,0.122702,-0.0936083,0.185561,-0.171753,0.00203705
-0.2191,-0.24386,0.369865,0.115002,-0.0897141,0.145136,-0.171753,0.00203705
-0.0325635,-0.262618,0.399724,0.0968898,-0.0734334,0.126837,-0.171753,0.00203705
0.0373167,-0.317175,0.420769,0.0940718,-0.0612486,0.148731,-0.171753,0.00203705
0.0499541,-0.305984,0.365079,0.0623328,-0.0598418,0.138609,-0.171753,0.00203705
0.0783831,-0.256641,0.213815,0.0204976,-0.0664603,0.101916,-0.171753,0.00203705
0.154354,-0.164682,0.0501604,0.0135439,-0.0637478,0.0632201,-0.171753,0.00203705
0.264138,-0.0371159,-0.0504574,0.0302235,-0.0326542,0.045578,-0.171753,0.00203705
0.341923,0.0292347,-0.118959,0.0360383,0.00596955,0.0866141,-0.171753,0.00203705
0.351692,0.0153223,-0.237738,0.027984,0.0148623,0.147205,-0.171753,0.00203705
0.296778,-0.0215444,-0.378587,0.0254102,0.0185636,0.206874,-0.171753,0.00203705
0.213419,-0.0267454,-0.470001,0.0465991,0.0409032,0.233275,-0.171753,0.00203705
0.156163,0.0530313,-0.515207,0.0704011,0.0667722,0.229804,-0.171753,0.00203705
0.142433,0.167363,-0.525019,0.0849892,0.0896672,0.217217,-0.171753,0.00203705
0.17808,0.254125,-0.54811,0.0791756,0.0962522,0.214453,-0.171753,0.00203705
0.190031,0.225426,-0.524699,0.0832795,0.108082,0.253364,-0.171753,0.00203705
0.187084,0.169147,-0.466926,0.0895374,0.109256,0.285567,-0.171753,0.00203705
0.213681,0.167236,-0.395712,0.091384,0.107526,0.289234,-0.171753,0.00203705
0.275355,0.275858,-0.335761,0.081367,0.10274,0.265811,-0.171753,0.00203705
0.220116,0.242957,-0.242699,0.0790027,0.0844562,0.278657,-0.171753,0.00203705
0.042247,-0.100861,-0.113267,0.121915,0.0373318,0.291695,-0.171753,0.00203705
0.042247,-0.100861,-0.113267,0.121915,0.0373318,0.291695,-0.132111,0.00156403
-0.144575,-0.46867,-0.0118788,0.13453,-0.0274175,0.179643,-0.132111,0.00156403
-0.336742,-0.655408,0.0467404,0.10062,-0.0652584,-0.0145352,-0.132111,0.00156403
-0.610973,-0.623971,-0.0220551,0.00205449,-0.095715,-0.210058,-0.132111,0.00156403
-1.10912,-0.683087,-0.237774,-0.161689,-0.0851171,-0.363987,-0.132111,0.00156403
-1.41139,-0.433345,-0.489272,-0.23279,-0.0995439,-0.612251,-0.132111,0.00156403
-1.22172,0.211339,-0.529656,-0.189147,-0.0456853,-0.861709,-0.132111,0.00156403
-0.730831,0.563962,-0.164365,-0.0419854,0.0416009,-0.902581,-0.132111,0.00156403
-0.215808,0.405943,0.329389,0.0289031,0.0779063,-0.758569,-0.132111,0.00156403
0.137251,0.112025,0.561727,-0.0514085,0.0257661,-0.578133,-0.132111,0.00156403
0.303775,0.148291,0.493027,-0.194054,-0.0703092,-0.439725,-0.132111,0.00156403
0.309093,0.396156,0.356203,-0.254436,-0.123095,-0.280636,-0.132111,0.00156403
0.244725,0.572109,0.266177,-0.248366,-0.127392,-0.11326,-0.132111,0.00156403
0.208219,0.588487,0.151448,-0.235989,-0.133353,0.0280645,-0.132111,0.00156403
0.237786,0.480482,0.00974582,-0.216685,-0.135431,0.137097,-0.132111,0.00156403
0.285129,0.346645,-0.117316,-0.186537,-0.113173,0.22217,-0.132111,0.00156403
0.282596,0.258162,-0.160735,-0.130731,-0.0771666,0.305136,-0.132111,0.00156403
0.246205,0.218297,-0.1128,-0.0828245,-0.0277188,0.376719,-0.132111,0.00156403
0.240536,0.216056,-0.0265318,-0.052158,0.003611,0.418725,-0.132111,0.00156403
0.28115,0.231883,0.0694852,-0.0455299,0.0275993,0.441027,-0.132111,0.00156403
0.374264,0.27027,0.134797,-0.0511348,0.0444413,0.4539,-0.132111,0.00156403
0.472651,0.246544,0.168344,-0.0580884,0.050643,0.48105,-0.132111,0.00156403
0.516287,0.100563,0.198504,-0.0398566,0.057761,0.510306,-0.132111,0.00156403
0.446087,-0.0530748,0.247284,-0.0189915,0.0798048,0.537788,-0.132111,0.00156403
0.289033,-0.238147,0.32823,0.00761854,0.0891221,0.517878,-0.132111,0.00156403
0.221057,-0.438988,0.436454,0.0237769,0.109148,0.409137,-0.132111,0.00156403
0.309012,-0.55395,0.458932,-0.0252311,0.142505,0.223044,-0.132111,0.00156403
0.538511,-0.338726,0.420669,-0.0665023,0.15376,0.0398344,-0.132111,0.00156403
0.719589,-0.0357965,0.332436,-0.0941732,0.163878,-0.0453214,-0.132111,0.00156403
0.644907,-0.0771785,0.345059,-0.00916776,0.127251,0.0021376,-0.132111,0.00156403
0.326054,-0.422155,0.305822,0.0238818,0.0682741,0.0284429,-0.132111,0.00156403
-0.193925,-0.856758,0.015809,-0.0624869,-0.00725517,-0.0569655,-0.132111,0.00156403
-0.819168,-1.21952,-0.453959,-0.172711,-0.0543053,-0.253822,-0.132111,0.00156403
-1.13566,-0.896254,-0.834535,-0.168315,-0.0750866,-0.591683,-0.132111,0.00156403
-1.02121,-0.108184,-0.883666,-0.0912445,0.000688493,-0.854187,-0.132111,0.00156403
-0.694412,0.36168,-0.670178,0.016589,0.0849726,-0.869018,-0.132111,0.00156403
-0.518278,0.303415,-0.480846,0.0803648,0.0680629,-0.66056,-0.132111,0.00156403
-0.537461,0.142194,-0.42903,0.089409,-0.0227247,-0.440751,-0.132111,0.00156403
-0.593714,0.170808,-0.419961,0.0901151,-0.0814187,-0.315497,-0.132111,0.00156403
-0.620006,0.304253,-0.333168,0.112295,-0.0939339,-0.226101,-0.132111,0.00156403
-0.630541,0.300671,-0.19628,0.139697,-0.102524,-0.115515,-0.132111,0.00156403
-0.581821,0.179424,-0.0337563,0.17002,-0.127598,-0.0328943,-0.132111,0.00156403
-0.415848,0.0802374,0.131385,0.173473,-0.135933,-0.00145793,-0.132111,0.00156403
-0.208833,0.0256317,0.281411,0.154601,-0.138485,0.0427729,-0.132111,0.00156403
0.00254976,0.0052407,0.41282,0.141068,-0.136854,0.0904377,-0.132111,0.00156403
0.202349,-0.100556,0.51879,0.12625,-0.122782,0.138593,-0.132111,0.00156403
0.379694,-0.332202,0.608228,0.124012,-0.118052,0.170152,-0.132111,0.00156403
0.496399,-0.545794,0.629139,0.0976591,-0.107184,0.186464,-0.132111,0.00156403
0.520727,-0.542817,0.509487,0.036026,-0.0929049,0.160442,-0.132111,0.00156403
0.448172,-0.420073,0.286901,-0.00724052,-0.0837589,0.135854,-0.132111,0.00156403
0.374837,-0.239121,0.064213,-0.00681871,-0.0681162,0.116822,-0.132111,0.00156403
0.405483,-0.162842,-0.125315,0.00517585,-0.0260673,0.0975761,-0.132111,0.00156403
0.548027,-0.157769,-0.268342,0.0306714,0.0139771,0.0941361,-0.132111,0.00156403
0.630698,-0.138346,-0.383215,0.0623005,0.0472178,0.131656,-0.132111,0.00156403
0.578323,-0.0810538,-0.482962,0.080202,0.0744728,0.206089,-0.132111,0.00156403
0.578323,-0.0810538,-0.482962,0.080202,0.0744728,0.206089,-0.142685,0.00170898
0.45108,0.00491322,-0.579244,0.0903674,0.0963341,0.264723,-0.142685,0.00170898
0.370065,0.163837,-0.668414,0.0989199,0.123021,0.279656,-0.142685,0.00170898
0.378439,0.365794,-0.664988,0.11866,0.160907,0.289999,-0.142685,0.00170898
0.428461,0.458632,-0.611322,0.137496,0.191908,0.333739,-0.142685,0.00170898
0.428457,0.427549,-0.534828,0.13941,0.198788,0.381793,-0.142685,0.00170898
0.420308,0.371266,-0.396787,0.149961,0.195734,0.384226,-0.142685,0.00170898
0.414623,0.254304,-0.25038,0.169114,0.177283,0.354524,-0.142685,0.00170898
0.296104,0.0110968,-0.114236,0.184308,0.133218,0.320563,-0.142685,0.00170898
0.112704,-0.304817,0.0827262,0.223888,0.0428202,0.211772,-0.142685,0.00170898
-0.177546,-0.532545,0.122793,0.123527,-0.00785738,0.0342579,-0.142685,0.00170898
-0.870561,-0.900045,-0.0481991,-0.0360548,-0.0337455,-0.116218,-0.142685,0.00170898
-1.64196,-0.913465,-0.377484,-0.185926,-0.10042,-0.401709,-0.142685,0.00170898
-1.8537,-0.344214,-0.58401,-0.221919,-0.0910327,-0.853263,-0.142685,0.00170898
-1.42112,0.40256,-0.283212,-0.126279,0.0726935,-1.16605,-0.142685,0.00170898
-0.61536,0.826332,0.38379,-0.0209504,0.160377,-1.20257,-0.142685,0.00170898
0.174255,0.882922,0.810281,-0.0631145,0.0652858,-1.00007,-0.142685,0.00170898
0.629227,0.661528,0.862719,-0.222876,-0.0634044,-0.661623,-0.142685,0.00170898
0.767815,0.346579,0.711591,-0.304922,-0.167192,-0.335065,-0.142685,0.00170898
0.627101,0.130136,0.441698,-0.356962,-0.214742,-0.0774688,-0.142685,0.00170898
0.345906,0.105355,0.0956699,-0.379939,-0.232463,0.0819566,-0.142685,0.00170898
0.0695956,0.171146,-0.293937,-0.365014,-0.225191,0.177406,-0.142685,0.00170898
-0.0758577,0.222636,-0.54017,-0.278248,-0.166646,0.213361,-0.142685,0.00170898
-0.0450249,0.18343,-0.569282,-0.143787,-0.0804228,0.227372,-0.142685,0.00170898
0.12656,0.0784337,-0.422556,-0.0314881,0.00552174,0.23995,-0.142685,0.00170898
0.305947,-0.0519879,-0.212193,0.038074,0.0616474,0.271235,-0.142685,0.00170898
0.370561,-0.0993401,-0.0309709,0.0610394,0.0772952,0.3186,-0.142685,0.00170898
0.331804,-0.110728,0.078504,0.045403,0.073126,0.358778,-0.142685,0.00170898
0.223976,-0.0940398,0.0978988,0.00493323,0.0687099,0.364976,-0.142685,0.00170898
0.123322,-0.0410311,0.105687,-0.0147217,0.0633661,0.333611,-0.142685,0.00170898
0.124879,0.0717116,0.126202,-0.0117804,0.0623343,0.283519,-0.142685,0.00170898
0.175004,0.159106,0.178036,0.00882793,0.0610378,0.264118,-0.142685,0.00170898
0.0947331,-0.0359142,0.277333,0.044872,0.0542165,0.31849,-0.142685,0.00170898
-0.0834715,-0.293645,0.30657,0.00743207,0.0517696,0.328901,-0.142685,0.00170898
-0.200215,-0.334686,0.202374,-0.0833895,0.0580415,0.223798,-0.142685,0.00170898
-0.225464,-0.0803005,0.093413,-0.108645,0.0550066,0.127868,-0.142685,0.00170898
-0.0140327,0.322018,0.128915,-0.0796819,0.0918491,0.0729185,-0.142685,0.00170898
0.337841,0.517038,0.3012,-0.0300328,0.117187,0.125289,-0.142685,0.00170898
0.599418,0.320408,0.470725,-0.0134551,0.121931,0.282505,-0.142685,0.00170898
0.740605,-0.110025,0.517681,-0.033063,0.0922783,0.387011,-0.142685,0.00170898
0.740705,-0.298089,0.517129,-0.0423073,0.0710889,0.355171,-0.142685,0.00170898
0.653242,-0.404643,0.495782,-0.0348454,0.0448892,0.265929,-0.142685,0.00170898
0.467331,-0.655887,0.365382,-0.0404454,0.00187236,0.151761,-0.142685,0.00170898
0.0454517,-0.968233,0.131431,-0.0561265,-0.0351058,-0.00897408,-0.142685,0.00170898
-0.703341,-1.43382,-0.200339,-0.0806879,-0.0491743,-0.206625,-0.142685,0.00170898
-1.22079,-1.21836,-0.470832,-0.103332,-0.0636114,-0.578515,-0.142685,0.00170898
-1.05656,-0.344476,-0.595131,-0.0990705,-0.00467479,-1.00226,-0.142685,0.00170898
-0.508832,0.337246,-0.462823,-0.0208723,0.0675063,-1.11956,-0.142685,0.00170898
-0.0549692,0.372744,-0.319371,0.0473763,0.060501,-0.917399,-0.142685,0.00170898
0.0607456,0.286962,-0.295284,0.0391348,0.00211513,-0.624512,-0.142685,0.00170898
0.0428132,0.444363,-0.261087,0.0484238,-0.0578508,-0.407737,-0.142685,0.00170898
-0.0224327,0.555002,-0.1889,0.0482472,-0.0681071,-0.207464,-0.142685,0.00170898
-0.119787,0.465335,-0.120636,0.0506555,-0.0893846,-0.0319466,-0.142685,0.00170898
-0.213197,0.280612,-0.141378,0.0354293,-0.121588,0.0891509,-0.142685,0.00170898
-0.213197,0.280612,-0.141378,0.0354293,-0.121588,0.0891509,-0.142685,0.00167084
-0.284633,0.128433,-0.208786,0.0364039,-0.141599,0.156749,-0.142685,0.00167084
-0.342182,0.031789,-0.188841,0.0767654,-0.123256,0.19462,-0.142685,0.00167084
-0.288588,-0.0348148,-0.0696957,0.129472,-0.0934579,0.188975,-0.142685,0.00167084
-0.136258,-0.111168,0.103182,0.173404,-0.061774,0.180665,-0.142685,0.00167084
0.0321548,-0.199449,0.273146,0.190769,-0.0517967,0.188754,-0.142685,0.00167084
0.156683,-0.279392,0.377206,0.161632,-0.0439666,0.209779,-0.142685,0.00167084
0.168094,-0.407639,0.360009,0.108919,-0.0581153,0.234425,-0.142685,0.00167084
0.155724,-0.469928,0.244688,0.079857,-0.0865443,0.210066,-0.142685,0.00167084
0.165126,-0.42772,0.143121,0.0951692,-0.0752131,0.146681,-0.142685,0.00167084
0.240034,-0.315961,0.0921902,0.115041,-0.0372149,0.0806105,-0.142685,0.00167084
0.32732,-0.246407,0.0392976,0.136194,-0.0155007,0.0599297,-0.142685,0.00167084
0.404155,-0.203068,-0.0462968,0.129406,0.00384474,0.0728525,-0.142685,0.00167084
0.413375,-0.160164,-0.148508,0.131822,0.0173959,0.109945,-0.142685,0.00167084
0.370028,-0.0337267,-0.243598,0.137957,0.0352158,0.1514,-0.142685,0.00167084
0.333337,0.166649,-0.321679,0.13879,0.0647049,0.185922,-0.142685,0.00167084
0.329912,0.354706,-0.372828,0.147452,0.0892536,0.240879,-0.142685,0.00167084
0.319083,0.434569,-0.389714,0.154683,0.105182,0.316433,-0.142685,0.00167084
0.278741,0.368198,-0.381479,0.155021,0.111347,0.366527,-0.142685,0.00167084
0.319511,0.397775,-0.351924,0.159489,0.109215,0.321593,-0.142685,0.00167084
