rotationRate_x,rotationRate_y,rotationRate_z,acceleration_x,acceleration_y,acceleration_z,relativeAltitude
-0.539644,0.0298697,0.176798,0.0186546,0.126889,0.103667,2.67139
-0.684474,-0.367391,0.129315,0.00992946,0.108472,0.041317,2.67139
-0.613734,-0.0852705,-0.0083023,0.000253007,0.0769729,0.0973231,2.67139
-0.520668,0.28864,-0.223507,0.0109137,0.072014,0.06967,2.67139
-0.462364,0.429737,-0.359816,0.0777705,0.0641368,0.0583138,2.67139
-0.431551,0.272672,-0.268335,0.107899,0.00764972,0.0269883,2.67139
-0.498677,0.0543399,-0.147406,0.112377,-0.00806019,0.0190011,2.67139
-0.613356,0.0592294,-0.0858385,0.1062,-0.0160055,0.0310955,2.67139
-0.653824,0.0621764,-0.024279,0.0924081,-0.0282678,-0.00693262,2.67139
-0.58522,-0.0151299,0.0322875,0.0591755,-0.0173702,-0.0511047,2.67139
-0.401498,-0.0611381,0.0770646,0.0171473,0.00141269,-0.0678607,2.67139
-0.177765,-0.176486,0.0630775,-0.00997491,0.0159051,-0.0695222,2.67139
0.0363655,-0.21315,0.0353107,-0.0240577,0.0166417,-0.0265634,2.67139
0.180841,-0.175466,0.046779,-0.0331199,0.0156941,0.0291923,2.67139
0.210675,-0.11971,0.158915,-0.0465968,0.00183076,0.101094,2.67139
0.154662,0.0330339,0.319589,-0.0500144,-0.0205517,0.177895,2.67139
0.0228234,0.238094,0.504208,-0.0495809,-0.0447722,0.235244,2.67139
-0.222734,0.409759,0.665508,-0.0393546,-0.0678017,0.252479,2.67139
-0.526333,0.479519,0.740099,-0.0169548,-0.094208,0.23458,2.67139
-0.797006,0.451559,0.704372,0.0321564,-0.132845,0.198646,2.67139
-0.964562,0.232957,0.549962,0.0917791,-0.160669,0.120013,2.67139
-0.967662,0.02676,0.324642,0.13901,-0.176387,0.0791227,2.67139
-0.840206,-0.102363,0.100681,0.162815,-0.189305,0.0349727,2.67139
-0.658868,-0.103326,-0.0732045,0.153323,-0.186258,0.0194636,2.67139
-0.570277,-0.0990961,-0.16779,0.124526,-0.144692,-0.00103205,2.67139
-0.493801,-0.124395,-0.155771,0.110827,-0.109404,-0.0289778,2.67139
-0.447643,-0.12655,-0.0681648,0.0998942,-0.0780119,-0.0524161,2.67139
-0.421823,-0.00857574,0.162779,0.0828285,-0.0537414,-0.0892322,2.67139
-0.410908,0.272607,0.486528,0.0499599,-0.0172529,-0.115622,2.67139
-0.465097,0.694326,0.831601,0.0317666,0.0587312,-0.147076,2.67139
-0.556972,1.19794,1.20485,0.0242253,0.179656,-0.169639,2.67139
-0.793169,1.31757,1.46464,0.017535,0.311375,-0.265473,2.67139
-1.15168,1.03624,1.18248,0.0463639,0.323094,-0.351276,2.67139
-1.3447,0.790811,0.47171,-0.000579774,0.319767,-0.323042,2.67139
-1.32326,0.796572,-0.21652,-0.0210102,0.281766,-0.231083,2.67139
-1.28402,0.936196,-0.503307,0.0205311,0.165093,-0.125646,2.67139
-1.28939,0.896818,-0.346025,0.0541236,0.00806193,-0.0857831,2.67139
-1.41485,0.563977,-0.0552448,0.0315373,-0.0781091,-0.155586,2.67139
-1.46513,0.11509,0.153636,-0.0335668,-0.136567,-0.190033,2.67139
-1.23244,-0.564933,0.157445,-0.0681771,-0.187096,-0.265132,2.67139
-0.778183,-1.14022,0.029508,-0.0892878,-0.182246,-0.326469,2.67139
-0.147777,-1.29823,-0.00455929,-0.0870358,-0.164003,-0.305366,2.67139
0.583034,-1.47773,0.048405,-0.062417,-0.202391,-0.274554,2.67139
1.02843,-1.56208,-0.0261593,-0.0633722,-0.178976,-0.180157,2.67139
1.09157,-1.4003,-0.232437,-0.0729442,-0.161662,-0.0524851,2.67139
1.10641,-1.20209,-0.472886,-0.0826544,-0.137217,0.0322132,2.67139
0.952887,-0.794147,-0.701082,-0.0556262,-0.089859,0.103127,2.67139
0.736591,-0.329455,-0.834166,-0.0383135,-0.0448731,0.0974556,2.67139
0.794866,0.0642996,-0.768528,-0.021821,0.000195608,0.129014,2.67139
1.33029,-0.189601,-0.523622,0.00685298,0.0317246,0.0352992,2.67139
1.40043,0.0723541,-0.50809,0.0796199,0.0433477,0.105324,2.67139
1.15781,0.181103,-0.41733,0.0190811,0.0875886,0.125017,2.67139
0.850662,0.32971,-0.307734,0.024006,0.0740261,0.164327,2.67139
0.850662,0.32971,-0.307734,0.024006,0.0740261,0.164327,0
0.582032,0.564802,-0.248156,0.0361539,0.0680835,0.189589,0
0.379499,0.671182,-0.126948,0.0260961,0.0827941,0.161489,0
0.309063,0.684523,0.0653805,0.0268647,0.0816452,0.134022,0
0.312716,0.54315,0.267268,0.0354937,0.0706155,0.0737769,0
0.293173,0.353054,0.458563,0.0551012,0.0490385,0.033244,0
0.220141,0.276874,0.72898,0.0547422,0.0088969,0.0196364,0
0.0523049,0.198989,0.989979,0.0585211,-0.0441427,-0.00871575,0
-0.269173,-0.0765228,1.07777,0.0610815,-0.076739,-0.0718049,0
-0.672894,-0.71121,0.94289,0.0650881,-0.0937899,-0.196607,0
-0.979598,-1.46771,0.583858,0.0996912,-0.0721073,-0.354346,0
-0.96365,-1.55912,0.357432,0.119945,-0.0177906,-0.389388,0
-0.543097,-0.931381,0.516519,0.103175,0.0844298,-0.344151,0
0.113256,-0.0715445,0.9491,0.100587,0.117049,-0.23071,0
0.541881,0.587635,1.41472,0.0931871,0.0732815,-0.122484,0
0.528881,0.79867,1.5996,0.0830397,0.0359127,-0.0510925,0
0.281455,0.707923,1.4692,0.0901917,-0.029762,0.0205039,0
0.0267319,0.414937,1.2142,0.0760138,-0.0568555,0.0613842,0
-0.115188,0.139492,0.993824,0.0694312,-0.0610754,0.115475,0
-0.157582,0.0145177,0.852763,0.0802068,-0.055011,0.17231,0
-0.116592,0.062045,0.811811,0.0823145,-0.0363485,0.226957,0
-0.0310411,0.090406,0.830255,0.0842701,-0.0232266,0.257894,0
0.0414779,0.0447503,0.814255,0.088573,-0.0193307,0.275419,0
0.0375892,-0.0675059,0.743093,0.101882,-0.0299938,0.280581,0
-0.0966317,-0.198725,0.629517,0.139219,-0.0355018,0.242161,0
-0.263414,-0.133538,0.543745,0.175461,0.00692005,0.185466,0
-0.0469615,-0.161664,0.601399,0.202823,0.015152,0.159378,0
0.30978,-0.199476,0.747397,0.230337,0.0244531,0.125373,0
0.585555,-0.176227,0.899974,0.23576,0.0331994,0.102577,0
0.644266,-0.087624,0.947314,0.223088,0.0497767,0.0859691,0
0.49108,0.0362496,0.851719,0.202241,0.0477674,0.0684634,0
0.210767,0.209783,0.646045,0.154337,0.0597477,0.0518764,0
-0.0522178,0.493438,0.359999,0.109494,0.0809937,0.0404796,0
-0.20651,0.828759,0.122233,0.0588772,0.108208,0.0236275,0
-0.244975,1.04297,-0.0222842,0.012123,0.131132,-0.00953633,0
-0.193115,1.15435,-0.118279,-0.0195345,0.151575,-0.03713,0
-0.128862,1.15967,-0.181552,-0.0381258,0.141044,-0.0527118,0
-0.138555,1.01756,-0.194877,-0.0124168,0.0874052,-0.0781722,0
-0.142139,0.71976,-0.0991198,0.00682618,0.0239792,-0.121997,0
-0.0293576,0.246393,0.0830136,-0.00118977,-0.00115141,-0.16731,0
0.248612,-0.365707,0.251463,-0.0259337,-0.00493097,-0.207957,0
0.589812,-0.800531,0.275063,-0.0327354,-0.0036878,-0.168146,0
0.646933,-1.05096,0.186481,-0.0298657,-0.0402702,-0.139751,0
0.117117,-1.13242,-0.0710748,-0.0412167,-0.0629863,-0.142867,0
-0.887261,-1.06142,-0.568141,-0.0638542,-0.0454556,-0.239693,0
-1.5825,-0.744831,-1.10116,-0.113075,0.0438833,-0.360356,0
-1.25024,-0.359346,-1.35782,-0.134827,0.137257,-0.485963,0
-0.187965,0.148999,-1.23992,-0.149024,0.22619,-0.426143,0
0.610605,0.447869,-0.822627,-0.149001,0.229694,-0.317479,0
0.784695,0.410661,-0.381899,-0.139794,0.164756,-0.218677,0
0.613054,0.210939,-0.216607,-0.132002,0.099072,-0.117829,0
0.404188,0.0263174,-0.345776,-0.140063,0.0556881,-0.0320154,0
0.31173,-0.0895113,-0.556676,-0.159276,0.0479382,0.03922,0
0.31173,-0.0895113,-0.556676,-0.159276,0.0479382,0.03922,0.0396423
0.368397,-0.116066,-0.67088,-0.151989,0.048597,0.122621,0.0396423
0.488212,-0.0987266,-0.606748,-0.125646,0.0330596,0.202881,0.0396423
0.599277,-0.173491,-0.440775,-0.102312,0.03181,0.265784,0.0396423
0.638532,-0.384724,-0.297399,-0.0770608,0.0260374,0.313284,0.0396423
0.5748,-0.641463,-0.235962,-0.051725,0.0233149,0.363243,0.0396423
0.422594,-0.90519,-0.238256,-0.027312,0.0210104,0.415472,0.0396423
0.156732,-1.1295,-0.278931,-0.010192,0.019902,0.445742,0.0396423
-0.158946,-1.13304,-0.404288,0.0220138,0.0272157,0.46037,0.0396423
-0.370125,-0.949607,-0.542833,0.0532236,0.0408236,0.429659,0.0396423
-0.362615,-0.722318,-0.599264,0.0675045,0.0519936,0.372051,0.0396423
-0.234308,-0.464869,-0.59746,0.104021,0.0403622,0.32206,0.0396423
-0.220288,-0.337761,-0.57482,0.138138,0.0245638,0.249358,0.0396423
-0.411957,-0.295741,-0.57202,0.149939,0.0360784,0.167974,0.0396423
-0.643792,-0.226775,-0.539577,0.142039,0.0383465,0.107058,0.0396423
-0.743257,-0.229337,-0.450732,0.1385,0.0225098,0.0235983,0.0396423
-0.644247,-0.163477,-0.306091,0.120735,0.00688085,-0.0232757,0.0396423
-0.449735,0.002383,-0.0975336,0.110275,-0.0351433,-0.034179,0.0396423
-0.389827,0.218178,0.120905,0.0835663,-0.0872425,-0.0440859,0.0396423
-0.492673,0.413657,0.2214,0.0509313,-0.124914,-0.0564485,0.0396423
-0.649608,0.422822,0.203121,0.0176584,-0.165059,-0.120968,0.0396423
-0.664914,0.256952,0.135573,-0.0212326,-0.175029,-0.202365,0.0396423
-0.465477,-0.0105602,0.157969,-0.0430596,-0.200019,-0.289259,0.0396423
-0.170149,-0.192228,0.307792,-0.066426,-0.22953,-0.323364,0.0396423
-0.10661,-0.163328,0.350853,-0.082598,-0.216292,-0.319683,0.0396423
-0.415594,0.248436,0.175275,-0.0967748,-0.177902,-0.276299,0.0396423
-0.94135,0.714125,-0.0926712,-0.105991,-0.105915,-0.283494,0.0396423
-1.20403,0.917655,-0.261552,-0.0978368,-0.000743479,-0.322531,0.0396423
-0.933139,0.9591,-0.181232,-0.0736349,0.0652721,-0.302761,0.0396423
-0.286729,0.90094,0.172439,-0.0252501,0.0537517,-0.223517,0.0396423
0.253059,0.60696,0.616881,0.011105,0.0094164,-0.172115,0.0396423
0.416539,0.382881,0.859196,0.0219349,-0.0211234,-0.0897086,0.0396423
0.210548,0.278116,0.760347,0.0232591,-0.0232081,-0.05933,0.0396423
-0.0572325,0.223843,0.411114,0.0312466,0.00309777,-0.0638585,0.0396423
-0.0916881,0.18108,0.0668169,0.0614191,0.027162,-0.0591446,0.0396423
0.0756884,0.138864,-0.0669628,0.106015,0.0210375,-0.0142124,0.0396423
0.252653,0.113632,-0.0195617,0.128216,0.0366746,0.0451112,0.0396423
0.362799,0.137184,0.155403,0.132663,0.0449656,0.101443,0.0396423
0.415191,0.204068,0.362401,0.125018,0.057074,0.140025,0.0396423
0.489021,0.259737,0.51037,0.118503,0.0669041,0.14689,0.0396423
0.662443,0.288311,0.584523,0.111776,0.0754621,0.157769,0.0396423
0.890615,0.246914,0.618864,0.103248,0.0837405,0.156895,0.0396423
1.11265,0.225185,0.630792,0.0897474,0.087326,0.1732,0.0396423
1.28423,0.352784,0.61904,0.0711843,0.0913603,0.202995,0.0396423
1.20947,0.67494,0.595293,0.0716831,0.0851502,0.253087,0.0396423
0.783857,1.05739,0.583244,0.0541322,0.0700239,0.29591,0.0396423
0.119967,1.3387,0.493226,0.0285442,0.0688852,0.314558,0.0396423
-0.542872,1.37408,0.277212,0.0212992,0.0708001,0.287476,0.0396423
-0.75447,1.05898,0.098091,-0.00828457,0.069996,0.19994,0.0396423
-0.52261,0.934017,0.00899487,-0.0340641,0.0730188,0.202526,0.0396423
-0.211427,0.838588,-0.0146636,-0.0466945,0.0778537,0.174811,0.0396423
-0.0810426,0.821198,0.0240804,-0.0586524,0.0592854,0.178156,0.0396423
-0.0810426,0.821198,0.0240804,-0.0586524,0.0592854,0.178156,0.0819092
-0.213444,0.849001,0.0909357,-0.0755531,0.0453669,0.19256,0.0819092
-0.51496,0.749115,0.129023,-0.0839611,0.0173978,0.153547,0.0819092
-0.713974,0.649011,0.158658,-0.108162,-0.00448409,0.135846,0.0819092
-0.78371,0.469345,0.155571,-0.131078,-0.0148278,0.0857457,0.0819092
-0.68982,0.279029,0.103362,-0.136657,-0.0360455,0.0235222,0.0819092
-0.563764,0.111818,0.0381006,-0.136625,-0.030661,-0.0382128,0.0819092
-0.685195,0.073797,0.0167516,-0.157044,0.00370476,-0.113103,0.0819092
-1.12422,0.52942,-0.038054,-0.196085,0.059209,-0.157167,0.0819092
-1.54013,1.17125,-0.246698,-0.233554,0.148661,-0.226407,0.0819092
-1.53202,1.69085,-0.667286,-0.226963,0.245289,-0.237562,0.0819092
-1.32534,1.67269,-1.20653,-0.14918,0.229618,-0.247688,0.0819092
-1.29031,0.945422,-1.66236,-0.0152222,0.106619,-0.32016,0.0819092
-1.4535,-0.226154,-2.01069,0.0915911,0.0381716,-0.41932,0.0819092
-1.60843,-1.46682,-2.27813,0.203052,0.0416875,-0.528028,0.0819092
-1.4231,-2.36129,-2.08571,0.263649,-0.00188513,-0.555146,0.0819092
-0.789634,-2.76785,-1.46173,0.232384,0.0228854,-0.522226,0.0819092
0.110616,-2.60802,-0.59795,0.167992,0.0314947,-0.441508,0.0819092
0.697313,-2.0799,0.0627252,0.147269,-0.0180984,-0.368382,0.0819092
0.800396,-1.388,0.300669,0.121104,-0.0796562,-0.282438,0.0819092
0.648648,-0.770929,0.156544,0.0790857,-0.10553,-0.215003,0.0819092
0.542673,-0.367263,-0.250923,0.0653594,-0.106167,-0.18347,0.0819092
0.625461,-0.0875068,-0.71071,0.0742619,-0.0759044,-0.143724,0.0819092
0.848782,0.204556,-0.927758,0.075162,-0.0385872,-0.070207,0.0819092
1.09115,0.528691,-0.833376,0.0691462,0.00149449,0.0278507,0.0819092
1.28569,0.747997,-0.532367,0.0536836,0.0159139,0.121046,0.0819092
1.44055,0.807687,-0.198529,0.0268902,0.0219542,0.207465,0.0819092
1.54037,0.69742,0.0334146,-0.0161908,0.0405767,0.27366,0.0819092
1.55308,0.503396,0.145042,-0.0586885,0.0557595,0.326673,0.0819092
1.4608,0.307518,0.179702,-0.0947892,0.0657683,0.368543,0.0819092
1.2678,0.122479,0.146041,-0.124305,0.0867706,0.378349,0.0819092
1.07551,-0.0138047,0.0746776,-0.144528,0.102581,0.390391,0.0819092
0.882502,-0.0858838,-0.0279697,-0.154042,0.12029,0.393914,0.0819092
0.703742,-0.119573,-0.134515,-0.152119,0.120363,0.400624,0.0819092
0.478445,-0.190208,-0.249005,-0.12819,0.10294,0.38809,0.0819092
0.173756,-0.275969,-0.350778,-0.0946679,0.0834675,0.37516,0.0819092
-0.20031,-0.348703,-0.405697,-0.0696682,0.0573205,0.353877,0.0819092
-0.622546,-0.43957,-0.453943,-0.0254336,0.0428386,0.288238,0.0819092
-0.873373,-0.47815,-0.399049,-0.0127652,0.0401047,0.228209,0.0819092
-0.879627,-0.533573,-0.263738,0.0167245,0.0286324,0.148795,0.0819092
-0.704814,-0.703265,-0.0923606,0.0362887,0.00253175,0.0624918,0.0819092
-0.447966,-0.809874,0.0679763,0.032214,-0.0111422,0.0271683,0.0819092
-0.255728,-0.924771,0.162288,0.0387922,-0.0377759,7.39098e-06,0.0819092
-0.181752,-0.984945,0.212229,0.0362601,-0.0673899,-0.00190103,0.0819092
-0.13051,-1.0205,0.264518,0.0463655,-0.0777228,-0.00329542,0.0819092
-0.0460678,-1.04613,0.349663,0.0465773,-0.0975291,-0.00608474,0.0819092
0.0532389,-0.991279,0.407349,0.0328201,-0.115189,0.0020873,0.0819092
0.0070345,-0.965982,0.366105,0.0264709,-0.133108,0.0202083,0.0819092
-0.126162,-0.973929,0.296979,0.0336797,-0.156706,-0.0123239,0.0819092
-0.237243,-0.953939,0.2371,0.0237972,-0.158888,-0.0578673,0.0819092
-0.311253,-0.839811,0.0335346,-0.0158057,-0.131856,-0.194966,0.0819092
-0.3897,-0.269466,-0.113432,0.0393278,-0.15765,-0.261261,0.0819092
-0.361615,0.303484,0.116782,0.129423,-0.202593,-0.358,0.0819092
-0.361615,0.303484,0.116782,0.129423,-0.202593,-0.358,0.221954
-0.193103,0.926767,0.572702,0.153722,-0.209381,-0.371528,0.221954
-0.24705,1.39178,0.988167,0.118819,-0.211697,-0.294581,0.221954
-0.474335,1.28639,1.06206,0.113392,-0.185701,-0.300544,0.221954
-0.641493,0.889744,0.906212,0.138222,-0.165561,-0.27985,0.221954
-0.629696,0.503754,0.692053,0.130305,-0.110397,-0.277119,0.221954
-0.428935,0.396031,0.583435,0.0915652,-0.0306073,-0.224577,0.221954
-0.133965,0.359886,0.550083,0.0614218,0.0585972,-0.194476,0.221954
0.105517,0.502024,0.591102,0.0289306,0.127038,-0.185521,0.221954
0.00203781,0.685863,0.489312,-0.0242199,0.170844,-0.163769,0.221954
-0.274618,0.932512,0.130811,-0.0233374,0.189338,-0.163498,0.221954
-0.417393,1.22129,-0.252394,0.0040697,0.177771,-0.134951,0.221954
-0.342893,1.48598,-0.347061,0.0266175,0.153863,-0.100136,0.221954
-0.11844,1.59481,-0.157622,0.0386511,0.124595,-0.0448773,0.221954
0.111458,1.52391,0.160323,0.0590277,0.0870296,0.0206478,0.221954
0.262457,1.27316,0.49514,0.0657088,0.0531478,0.0917342,0.221954
0.355381,0.830772,0.786937,0.060413,0.0288888,0.14557,0.221954
0.474416,0.278849,1.02672,0.0578144,0.0175413,0.184168,0.221954
0.647414,-0.223305,1.2672,0.0537609,0.00400661,0.227357,0.221954
0.793836,-0.549318,1.49182,0.041506,-0.00143657,0.277554,0.221954
0.818501,-0.729667,1.67761,0.0352051,-0.00329244,0.316457,0.221954
0.689258,-0.750977,1.81169,0.0454227,-0.0188063,0.335869,0.221954
0.489368,-0.69852,1.85982,0.0535855,-0.0256338,0.333315,0.221954
0.308739,-0.685702,1.77877,0.0617248,-0.0268716,0.299381,0.221954
0.188889,-0.668985,1.61941,0.0846801,-0.0304344,0.267901,0.221954
0.0534559,-0.498758,1.52034,0.0975367,-0.0328187,0.261926,0.221954
-0.137726,-0.427389,1.44739,0.12101,-0.0347268,0.254705,0.221954
-0.262753,-0.316728,1.29991,0.120745,-0.0127147,0.214745,0.221954
-0.329213,-0.205359,1.11767,0.124668,0.00791249,0.201989,0.221954
-0.322771,-0.0618767,1.01077,0.131079,0.0234438,0.177036,0.221954
-0.294884,0.126705,1.04823,0.135225,0.0246085,0.157546,0.221954
-0.380425,0.220614,1.10248,0.135391,0.0200492,0.133272,0.221954
-0.418242,0.276662,1.12583,0.139001,0.0253601,0.0736219,0.221954
-0.358809,0.315315,1.14721,0.126569,0.0181576,0.0412415,0.221954
-0.295942,0.34094,1.14685,0.101701,0.0139284,0.00434166,0.221954
-0.250542,0.331273,1.17926,0.0822351,-0.00454906,0.00953412,0.221954
-0.246732,0.222723,1.22795,0.0626331,-0.0297795,0.00687021,0.221954
-0.247517,0.0970662,1.20859,0.0334122,-0.032768,-0.0098322,0.221954
-0.270471,0.0723275,1.16534,0.0218498,-0.0388408,-0.0331822,0.221954
-0.328376,0.0155979,1.0939,0.0298963,-0.0777775,-0.0712997,0.221954
-0.468673,-0.399866,0.879161,0.0733975,-0.0989472,-0.129778,0.221954
-0.802115,-1.05957,0.502905,0.154494,-0.120112,-0.251845,0.221954
-1.16615,-1.36644,0.185086,0.194292,-0.061069,-0.312486,0.221954
-1.02101,-1.10295,0.313094,0.184616,0.0529099,-0.338552,0.221954
-0.358125,-0.535022,0.945179,0.143,0.143839,-0.265492,0.221954
0.261772,-0.35685,1.72257,0.135695,0.186921,-0.199206,0.221954
0.595103,-0.492883,2.30363,0.12764,0.19459,-0.148463,0.221954
0.790243,-0.577432,2.56171,0.0780084,0.216089,-0.0927818,0.221954
0.947308,-0.486781,2.61238,0.0102005,0.216922,-0.0267063,0.221954
0.959944,-0.235999,2.48517,-0.0659003,0.198684,0.0424427,0.221954
0.842507,0.0714317,2.17407,-0.103743,0.163003,0.105265,0.221954
0.667373,0.382537,1.74912,-0.115793,0.116205,0.153594,0.221954
0.667373,0.382537,1.74912,-0.115793,0.116205,0.153594,0.332932
0.447918,0.608025,1.29112,-0.114566,0.0624929,0.201665,0.332932
0.180483,0.681662,0.834122,-0.104925,0.0335619,0.219295,0.332932
-0.0479076,0.658215,0.453911,-0.076005,0.0169173,0.219611,0.332932
-0.273747,0.682077,0.246826,-0.0448197,0.00435022,0.24393,0.332932
-0.558778,0.725542,0.178252,-0.0342709,0.0142984,0.265059,0.332932
-0.809773,0.72445,0.212071,-0.0163955,0.0198361,0.246713,0.332932
-0.974379,0.682623,0.32694,-0.0108377,0.00400098,0.227591,0.332932
-1.018,0.489468,0.450551,-0.0163376,0.00769036,0.173815,0.332932
-0.821823,0.139472,0.619574,0.0157881,-0.0004839,0.0655791,0.332932
-0.567769,-0.126758,0.821796,-0.000179224,-0.0121862,0.0157556,0.332932
-0.437842,-0.314141,0.911196,-0.0285897,0.0031942,-0.0322645,0.332932
-0.381249,-0.446965,0.869554,-0.0287373,-0.0284219,-0.069141,0.332932
-0.234918,-0.44511,0.772001,-0.0233151,-0.0447479,-0.110019,0.332932
0.00276911,-0.213231,0.731899,-0.0509108,-0.0310986,-0.0896845,0.332932
0.143189,0.0586569,0.733339,-0.0649411,-0.0369962,-0.0307499,0.332932
0.13592,0.165066,0.708008,-0.0471894,-0.070657,0.0215124,0.332932
0.0941372,0.095171,0.596601,-0.0364717,-0.083809,0.0359889,0.332932
0.140211,-0.0146597,0.487116,-0.0323793,-0.0763727,0.0469244,0.332932
0.168029,-0.145009,0.40587,-0.0138592,-0.08171,0.0328841,0.332932
0.18333,-0.260243,0.40528,0.0287924,-0.086183,-0.0202866,0.332932
0.0689163,-0.392321,0.472477,0.0521525,-0.0922275,-0.0666705,0.332932
-0.0908485,-0.643335,0.453146,0.0681162,-0.0765457,-0.152584,0.332932
-0.0790173,-1.03327,0.416441,0.11202,-0.0415228,-0.251478,0.332932
0.0531398,-1.37723,0.527135,0.152224,0.0123799,-0.32719,0.332932
0.148333,-1.5021,0.862215,0.165697,0.0632901,-0.363472,0.332932
0.0523695,-1.55296,1.20238,0.143865,0.0906002,-0.392462,0.332932
0.0401796,-1.67403,1.45554,0.157837,0.121027,-0.390208,0.332932
0.303513,-1.76216,1.70812,0.151661,0.141798,-0.344648,0.332932
0.605687,-1.3364,1.85018,0.100893,0.150187,-0.245648,0.332932
0.690833,-0.463402,1.76744,0.0392621,0.157958,-0.1233,0.332932
0.515936,0.61508,1.48912,0.0150368,0.144257,-0.0119671,0.332932
0.124253,1.38762,1.16109,0.0111955,0.113926,0.0514804,0.332932
-0.274537,1.62177,0.819157,0.00968033,0.0843815,0.044754,0.332932
-0.408638,1.32809,0.420721,0.0357164,0.0748154,-0.00409001,0.332932
-0.233635,0.926178,0.214281,0.0997289,0.0672858,-0.0371748,0.332932
0.0131977,0.704708,0.325022,0.102083,0.0686808,-0.0030818,0.332932
0.155391,0.729235,0.578337,0.0999621,0.0798432,0.0653285,0.332932
0.167733,0.843731,0.829725,0.0947358,0.0581714,0.1367,0.332932
0.130273,0.94759,0.946246,0.0811054,0.0227627,0.197126,0.332932
0.116673,0.87996,0.879493,0.054599,-0.00230576,0.229893,0.332932
0.0967112,0.585187,0.687039,0.0310856,-0.0140211,0.231184,0.332932
-0.0443274,0.178028,0.428686,0.0207107,-0.017517,0.211599,0.332932
-0.221119,0.0180622,0.252557,0.0415394,-0.00470994,0.199381,0.332932
-0.306045,0.192496,0.265522,0.0385444,-0.000310093,0.220227,0.332932
-0.284298,0.480492,0.361432,0.040828,0.00905664,0.211511,0.332932
-0.229998,0.738795,0.460035,0.0431838,-0.000969477,0.194245,0.332932
-0.279801,0.835801,0.470088,0.0416074,-0.0147374,0.17293,0.332932
-0.37022,0.686898,0.434792,0.0438295,-0.0233422,0.136165,0.332932
-0.384555,0.426541,0.407331,0.0455568,-0.0340488,0.0837743,0.332932
-0.301829,0.177812,0.473252,0.0598032,-0.0512019,0.0491901,0.332932
-0.22874,-0.0261237,0.564174,0.0594331,-0.068326,0.0169063,0.332932
-0.139975,-0.228538,0.576867,0.0529023,-0.0704225,-0.0174212,0.332932
-0.139975,-0.228538,0.576867,0.0529023,-0.0704225,-0.0174212,0.472977
0.00122382,-0.332458,0.530216,0.0592,-0.0785678,-0.0571209,0.472977
0.102771,-0.253136,0.494252,0.0537618,-0.0815606,-0.0873935,0.472977
0.0331217,-0.173788,0.468724,0.0532007,-0.0645927,-0.0880284,0.472977
-0.0811767,-0.105894,0.491114,0.0469381,-0.0258799,-0.116083,0.472977
-0.0633632,-7.60285e-05,0.5885,0.0343595,0.0096842,-0.141682,0.472977
-0.080668,0.109441,0.686051,0.0277859,0.0291561,-0.146709,0.472977
-0.319617,0.324667,0.678405,0.0128262,0.0294352,-0.136901,0.472977
-0.816794,0.777614,0.51043,-0.00455267,-0.0190781,-0.111634,0.472977
-1.44064,0.944609,0.0700213,-0.0273386,-0.0723394,-0.172098,0.472977
-1.64266,0.78644,-0.703762,-0.026663,-0.0688224,-0.384618,0.472977
-1.20333,0.554626,-1.29041,0.0369722,-0.0472791,-0.499377,0.472977
-0.450769,0.626591,-1.25058,0.045733,0.0264255,-0.53647,0.472977
0.157605,0.916135,-0.777079,0.0193173,0.0954599,-0.421499,0.472977
0.415573,1.09811,-0.217171,-0.000181869,0.11466,-0.325876,0.472977
0.516436,1.10068,0.0566531,-0.0224995,0.0770788,-0.258128,0.472977
0.659055,0.892222,0.0100872,-0.037267,0.0519013,-0.169919,0.472977
0.772055,0.621548,-0.198935,-0.0607026,0.0374952,-0.0999023,0.472977
0.768205,0.427641,-0.40984,-0.0710029,0.0373133,-0.00963891,0.472977
0.670444,0.394098,-0.510816,-0.0689862,0.0366405,0.0708753,0.472977
0.565476,0.390023,-0.505804,-0.0689527,0.0447058,0.152317,0.472977
0.501757,0.286154,-0.44107,-0.0657631,0.0459692,0.188361,0.472977
0.491913,0.151995,-0.372562,-0.0680921,0.0375151,0.225335,0.472977
0.530848,-0.0303955,-0.305882,-0.0731942,0.0399195,0.238342,0.472977
0.59739,-0.185554,-0.231811,-0.0795325,0.0441016,0.258767,0.472977
0.676385,-0.333291,-0.144399,-0.0770682,0.0523375,0.263146,0.472977
0.683151,-0.481173,-0.0400722,-0.0776406,0.0655783,0.276757,0.472977
0.608426,-0.7356,0.0490622,-0.0839346,0.0815055,0.266979,0.472977
0.528535,-0.932727,0.0588003,-0.081294,0.0984962,0.227823,0.472977
0.508279,-0.950701,0.0244393,-0.0670129,0.110023,0.231673,0.472977
0.515817,-0.757081,-0.00214564,-0.0652309,0.117935,0.227922,0.472977
0.449022,-0.545468,-0.0356207,-0.0676421,0.119425,0.247392,0.472977
0.287926,-0.303114,-0.0995613,-0.0746739,0.114345,0.23204,0.472977
0.0889408,-0.159513,-0.187473,-0.0548168,0.0889914,0.242079,0.472977
-0.121064,-0.111294,-0.26377,-0.0416133,0.0602275,0.22656,0.472977
-0.292506,-0.0509375,-0.332198,-0.0347432,0.034968,0.191931,0.472977
-0.44567,0.0272837,-0.361959,-0.0198416,-0.0137288,0.178936,0.472977
-0.593149,-0.0195913,-0.463927,-0.00718401,-0.0565679,0.0826273,0.472977
-0.629202,-0.102282,-0.576424,0.0522232,-0.0904877,-0.0458754,0.472977
-0.578347,-0.227974,-0.616959,0.0795876,-0.134517,-0.157335,0.472977
-0.377764,-0.402258,-0.535296,0.113673,-0.129146,-0.272196,0.472977
-0.154515,-0.464664,-0.298943,0.115721,-0.115188,-0.322599,0.472977
-0.0770699,-0.442502,-0.0251028,0.0931769,-0.11559,-0.314263,0.472977
-0.210979,-0.548451,0.132224,0.0938529,-0.157254,-0.313324,0.472977
-0.477553,-0.795496,0.144772,0.0824823,-0.184019,-0.31918,0.472977
-0.7219,-0.895304,-0.0701725,0.0665692,-0.177734,-0.369189,0.472977
-0.649184,-0.734699,-0.296449,0.0558306,-0.153052,-0.38023,0.472977
-0.29436,-0.359093,-0.350135,0.0617477,-0.138597,-0.334548,0.472977
0.104185,0.0384761,-0.158934,0.0746919,-0.111406,-0.254984,0.472977
0.327757,0.223013,0.132483,0.0761268,-0.100692,-0.172472,0.472977
0.327757,0.223013,0.132483,0.0761268,-0.100692,-0.172472,0.583954
0.370143,0.220668,0.326737,0.0818244,-0.0955432,-0.112238,0.583954
0.29922,0.177109,0.40531,0.0737216,-0.0844243,-0.0501182,0.583954
0.246249,0.149279,0.385938,0.0658168,-0.0760567,-0.0101887,0.583954
0.241811,0.27669,0.388709,0.0605785,-0.0623092,0.029322,0.583954
0.260405,0.49177,0.437652,0.0358948,-0.0488172,0.0776692,0.583954
0.281037,0.676073,0.484646,0.0109558,-0.0279478,0.129395,0.583954
0.320075,0.698003,0.514785,0.0178206,-0.0210391,0.166412,0.583954
0.394526,0.620745,0.572846,0.0383319,-0.0210516,0.19196,0.583954
0.517017,0.406537,0.663346,0.0433176,-0.00227533,0.198567,0.583954
0.697948,0.163488,0.779917,0.0532124,0.0186849,0.212177,0.583954
0.892249,-0.130794,0.874403,0.0727221,0.0283149,0.211065,0.583954
1.08343,-0.488871,0.927096,0.0970244,0.0484463,0.190985,0.583954
1.1995,-0.981235,0.865605,0.127035,0.0638118,0.136813,0.583954
1.33785,-1.41269,0.723612,0.183972,0.0882615,0.0709974,0.583954
1.46544,-1.42479,0.66607,0.22098,0.104938,0.0754237,0.583954
1.35141,-0.963206,0.677239,0.203906,0.119858,0.11999,0.583954
0.989886,-0.200327,0.68966,0.161234,0.133921,0.166346,0.583954
0.577759,0.597849,0.659083,0.120119,0.126104,0.207421,0.583954
0.284697,1.09819,0.561681,0.0989624,0.113044,0.225401,0.583954
0.0999248,1.23755,0.447323,0.0791451,0.102007,0.209091,0.583954
-0.0607191,1.14828,0.334704,0.0574432,0.0892333,0.206239,0.583954
-0.289978,0.930404,0.199978,0.0469729,0.0721821,0.170492,0.583954
-0.491938,0.749725,0.158976,0.0410531,0.0607494,0.107715,0.583954
-0.672124,0.487284,0.268993,0.0203087,0.0468924,0.0227222,0.583954
-0.802233,0.0258375,0.389964,0.00388617,0.0406356,-0.132819,0.583954
-0.629897,-0.431732,0.513066,0.0365702,0.0139179,-0.268381,0.583954
-0.242452,-0.649452,0.753471,0.0644562,-0.0264191,-0.313666,0.583954
-0.254902,-0.667786,0.992354,0.0528856,-0.0661403,-0.250506,0.583954
-0.914169,-0.779467,1.00803,0.0604056,-0.11128,-0.234381,0.583954
-1.58192,-0.925215,0.644795,0.0441962,-0.111792,-0.348897,0.583954
-1.55933,-0.808367,0.156496,-0.0323803,0.0254707,-0.440449,0.583954
-0.858663,-0.226625,-0.132246,-0.0952834,0.135246,-0.463046,0.583954
-0.122132,0.457613,-0.0282619,-0.10129,0.169101,-0.340205,0.583954
0.156265,0.792034,0.365642,-0.0943578,0.150845,-0.18029,0.583954
0.00679291,0.484784,0.725975,-0.0838939,0.113951,-0.108853,0.583954
-0.164889,-0.258921,0.694804,-0.0733632,0.0769247,-0.140047,0.583954
-0.122509,-0.790596,0.290753,-0.0582158,0.0531482,-0.158869,0.583954
-0.0578544,-0.797065,-0.114837,-0.0822418,0.0301876,-0.107799,0.583954
-0.109383,-0.357155,-0.361923,-0.120874,0.0237096,0.00951266,0.583954
-0.203097,0.238972,-0.497456,-0.140424,0.0217803,0.123236,0.583954
-0.19881,0.62437,-0.566685,-0.130611,0.0103135,0.206252,0.583954
-0.107387,0.62627,-0.59863,-0.109552,-0.00942572,0.254969,0.583954
0.00772412,0.344784,-0.601006,-0.0933141,-0.0251825,0.30253,0.583954
0.0926864,-0.082176,-0.609659,-0.0823386,-0.0326536,0.337292,0.583954
0.158318,-0.435835,-0.638935,-0.0673944,-0.0287175,0.354391,0.583954
0.220952,-0.59176,-0.650176,-0.0520855,-0.00925073,0.371309,0.583954
0.263003,-0.623048,-0.65265,-0.0536645,0.0078207,0.376213,0.583954
0.276832,-0.490209,-0.701454,-0.0436991,0.0271896,0.367438,0.583954
0.276832,-0.490209,-0.701454,-0.0436991,0.0271896,0.367438,0.634155
0.209042,-0.294214,-0.723414,-0.0229116,0.0399227,0.354996,0.634155
-0.069992,-0.204996,-0.737668,-0.00896189,0.0253923,0.334687,0.634155
-0.485462,-0.148304,-0.807584,0.0085453,0.034589,0.257178,0.634155
-0.773011,-0.0212248,-0.828329,0.0175052,0.033909,0.18101,0.634155
-0.89223,-0.000366101,-0.832815,0.0360491,0.0102844,0.0927643,0.634155
-0.80212,0.121346,-0.773958,0.0543606,0.0158206,0.0322114,0.634155
-0.552598,0.313785,-0.527753,0.0384919,0.0279155,0.00512993,0.634155
-0.327753,0.441611,-0.196404,0.0279067,-0.00667629,0.00791258,0.634155
-0.274679,0.487635,-0.0153158,0.0241515,-0.0517405,0.000636935,0.634155
-0.390127,0.449407,-0.0046414,0.00466944,-0.10172,0.00902742,0.634155
-0.516818,0.410757,-0.112847,-0.021648,-0.124281,-0.010118,0.634155
-0.519312,0.347711,-0.253844,-0.0346431,-0.142796,-0.0465512,0.634155
-0.357005,0.220444,-0.318476,-0.0362008,-0.159542,-0.099771,0.634155
-0.103344,-0.00176404,-0.319215,-0.0274905,-0.166691,-0.164078,0.634155
0.0409165,-0.566477,-0.320028,-0.00672278,-0.166281,-0.28842,0.634155
0.105708,-1.47509,-0.38476,0.0420131,-0.163253,-0.430564,0.634155
0.251491,-2.11709,-0.385491,0.0673386,-0.17432,-0.486604,0.634155
0.44563,-2.14071,-0.228924,0.0376497,-0.174658,-0.501594,0.634155
0.476658,-1.49412,-0.0342852,-0.0295259,-0.113296,-0.466466,0.634155
0.36094,-0.587511,0.162985,-0.0933042,-0.0484882,-0.411378,0.634155
0.270147,0.119324,0.281866,-0.103072,-0.00329085,-0.360099,0.634155
0.363298,0.548862,0.270336,-0.0513066,0.00145192,-0.272646,0.634155
0.540992,0.871494,0.232114,-0.00372498,-0.0105912,-0.151478,0.634155
0.667975,1.06609,0.253784,0.0182626,-0.00926274,-0.0231164,0.634155
0.647983,0.992281,0.287323,0.0246133,-0.00327365,0.0669159,0.634155
0.239096,1.00493,0.175585,0.0544979,-0.0120231,0.144163,0.634155
-0.166787,0.907096,-0.0180383,0.0665932,-0.0387499,0.173403,0.634155
-0.478229,0.933191,-0.198711,0.0694113,-0.0384343,0.222873,0.634155
-0.633285,1.01983,-0.343157,0.0715131,-0.0162661,0.254384,0.634155
-0.587479,0.978549,-0.422751,0.103038,-0.00382835,0.258296,0.634155
-0.395717,0.716259,-0.378602,0.133767,0.000692271,0.247479,0.634155
-0.137257,0.249851,-0.22804,0.163772,0.00262687,0.230574,0.634155
0.119144,-0.276043,0.0118557,0.195537,-0.00472458,0.213382,0.634155
0.327999,-0.709436,0.298602,0.214756,-0.00564422,0.194807,0.634155
0.428764,-0.914984,0.586932,0.196949,0.0174175,0.158348,0.634155
0.381065,-0.769047,0.753435,0.151587,0.0369729,0.136222,0.634155
0.261722,-0.377938,0.727681,0.140098,0.025012,0.109743,0.634155
0.209044,0.109566,0.612446,0.124298,0.0143216,0.087621,0.634155
0.240775,0.495487,0.488,0.109747,0.0247914,0.0576817,0.634155
0.280568,0.718569,0.390129,0.1164,0.0366086,0.0607053,0.634155
0.209558,0.791026,0.374675,0.133066,0.0295689,0.0724897,0.634155
0.0945572,0.861839,0.456899,0.119448,0.0311245,0.108197,0.634155
0.000925297,0.965676,0.573118,0.111626,0.0284867,0.136687,0.634155
-0.0642544,1.07366,0.694031,0.0993711,0.0111759,0.154647,0.634155
-0.15044,1.05702,0.756127,0.083592,0.0115273,0.13908,0.634155
-0.214995,0.972262,0.767404,0.0613447,0.0163072,0.129729,0.634155
-0.242893,0.965338,0.77964,0.0449369,0.0186875,0.112241,0.634155
-0.221852,1.07969,0.850119,0.0327239,0.00222766,0.0969222,0.634155
-0.221852,1.07969,0.850119,0.0327239,0.00222766,0.0969222,0.808548
-0.326869,1.14689,0.93163,0.0431135,-0.038641,0.061169,0.808548
-0.555527,1.00737,0.924628,0.0614708,-0.0701471,-0.0269812,0.808548
-0.636424,0.762195,0.822477,0.0777808,-0.0638407,-0.126387,0.808548
-0.527436,0.596866,0.72812,0.0670747,-0.0293776,-0.166926,0.808548
-0.599093,0.536173,0.67448,0.0795348,-0.013507,-0.185592,0.808548
-1.06996,0.69851,0.732522,0.109675,-0.055998,-0.189707,0.808548
-1.94752,0.61868,0.651607,0.106549,-0.0773441,-0.341506,0.808548
-2.4577,0.205069,0.0672999,0.107164,0.0169456,-0.535198,0.808548
-2.07137,-0.0958124,-0.394313,0.0109649,0.175397,-0.610163,0.808548
-1.1355,-0.152576,-0.389356,-0.0827218,0.280889,-0.58415,0.808548
-0.15065,0.110896,-0.0576928,-0.0751116,0.23794,-0.433565,0.808548
0.292858,0.394614,0.485732,-0.0845894,0.118282,-0.277536,0.808548
0.154995,0.489804,0.709402,-0.0958518,0.0827365,-0.167808,0.808548
-0.0122309,0.287397,0.587929,-0.10525,0.023728,-0.124018,0.808548
0.0920874,-0.084969,0.28651,-0.110592,-0.0137975,-0.0925711,0.808548
0.385046,-0.426619,-0.031236,-0.0979603,-0.0232838,-0.0311951,0.808548
0.640111,-0.572916,-0.197565,-0.0706627,-0.0385533,0.0498065,0.808548
0.787893,-0.524289,-0.179113,-0.0531855,-0.0365517,0.13771,0.808548
0.860865,-0.341709,-0.0575639,-0.0443595,-0.0276957,0.214885,0.808548
0.96075,-0.0905527,0.134522,-0.0446584,-0.0277097,0.29633,0.808548
1.01169,0.000730003,0.320528,-0.040772,-0.0322999,0.326266,0.808548
1.05325,-0.0272939,0.425129,-0.0290524,-0.0284483,0.3672,0.808548
1.09493,-0.165161,0.504891,-0.0235486,-0.0415726,0.406138,0.808548
0.973376,-0.450694,0.47872,-0.019143,-0.025373,0.383221,0.808548
0.809489,-0.724521,0.335572,0.00563301,-0.0131218,0.357992,0.808548
0.684763,-0.809049,0.218304,0.0354352,-0.0270069,0.343799,0.808548
0.439377,-0.867724,0.134239,0.0526326,0.00806165,0.256596,0.808548
0.207813,-0.775594,0.0913193,0.0549733,0.0425348,0.199264,0.808548
0.0420036,-0.487243,0.113307,0.0624162,0.0460971,0.166804,0.808548
-0.102129,-0.177753,0.185258,0.0573266,0.0517365,0.136981,0.808548
-0.240938,0.00986448,0.259737,0.0530581,0.0554857,0.120782,0.808548
-0.411981,-0.0247398,0.336178,0.0563255,0.0454647,0.0995315,0.808548
-0.555676,-0.274403,0.451319,0.0522131,0.0246961,0.0967849,0.808548
-0.627152,-0.625006,0.620189,0.0279529,-0.00593396,0.124463,0.808548
-0.725185,-0.974251,0.760081,-0.0165357,-0.0249029,0.152499,0.808548
-0.847518,-1.03445,0.814794,-0.0593972,-0.0602861,0.165343,0.808548
-0.835715,-0.602214,0.743819,-0.0895096,-0.0866111,0.18,0.808548
-0.666721,0.033823,0.624911,-0.0925297,-0.114387,0.18411,0.808548
-0.550535,0.480733,0.575282,-0.0732261,-0.158901,0.134479,0.808548
-0.515114,0.607252,0.531989,-0.0317788,-0.193729,0.0524544,0.808548
-0.464721,0.341978,0.484062,0.029339,-0.211176,-0.0679917,0.808548
-0.360238,-0.105642,0.52078,0.0635827,-0.211605,-0.176749,0.808548
-0.172935,-0.382489,0.650885,0.0522415,-0.192468,-0.251872,0.808548
0.1063,-0.285096,0.872303,0.0647631,-0.222189,-0.268722,0.808548
0.183545,-0.00127029,1.11495,0.0764661,-0.24623,-0.274612,0.808548
-0.13344,0.128265,1.24497,0.0394267,-0.194905,-0.30748,0.808548
-0.590447,-0.170744,1.10485,-0.000155222,-0.0817292,-0.434976,0.808548
-0.590447,-0.170744,1.10485,-0.000155222,-0.0817292,-0.434976,1.00409
-0.403771,-0.330628,0.894545,0.0385202,-0.0291314,-0.432799,1.00409
0.397839,-0.0896194,0.967632,0.0504074,0.010373,-0.308832,1.00409
1.04584,0.388164,1.36455,0.0630743,0.00908248,-0.10056,1.00409
1.08504,0.677359,1.84027,0.108785,-0.0627276,0.0517182,1.00409
0.704152,0.74,2.11307,0.119634,-0.104388,0.139541,1.00409
0.203962,0.504036,2.07479,0.116393,-0.105013,0.147553,1.00409
-0.092922,0.0860599,1.78524,0.1176,-0.0998336,0.132369,1.00409
-0.0894245,-0.343374,1.4008,0.126221,-0.0890137,0.108746,1.00409
0.143413,-0.602422,1.07233,0.149989,-0.0595303,0.113399,1.00409
0.339729,-0.712633,0.94007,0.191097,-0.0506151,0.126313,1.00409
0.351386,-0.613732,0.989686,0.232571,-0.0506576,0.153468,1.00409
0.196819,-0.445853,1.10144,0.262462,-0.0499853,0.153584,1.00409
-0.0058453,-0.450466,1.15662,0.27888,-0.0192106,0.0690881,1.00409
0.00373695,-0.497683,1.09993,0.276242,0.034397,-0.00381589,1.00409
0.217157,-0.551427,0.993488,0.276739,0.0633157,-0.0593809,1.00409
0.531152,-0.417444,0.944681,0.272601,0.0740287,-0.0607744,1.00409
0.775523,-0.0360814,0.987988,0.256827,0.0809341,-0.0160174,1.00409
0.768393,0.370359,1.07458,0.234616,0.0734953,0.0332876,1.00409
0.594889,0.63074,1.11565,0.201734,0.0650145,0.0608422,1.00409
0.466491,0.772838,1.04596,0.16512,0.0664731,0.0665317,1.00409
0.443879,0.876083,0.904398,0.141915,0.0547623,0.0807191,1.00409
0.39201,0.888252,0.768408,0.121559,0.0431743,0.0675151,1.00409
0.24365,0.89894,0.651587,0.103262,0.0287177,0.0567855,1.00409
-0.0414432,0.876545,0.51651,0.0637138,0.0308698,-0.00970197,1.00409
-0.273433,0.900584,0.277731,-0.0374859,0.0848542,-0.0988007,1.00409
-0.17818,0.831047,-0.128245,-0.184506,0.166831,-0.200288,1.00409
0.172092,0.755492,-0.725211,-0.225574,0.207477,-0.232475,1.00409
0.40055,0.858687,-1.05796,-0.185435,0.152542,-0.16253,1.00409
0.208393,1.13371,-0.967957,-0.165816,0.10683,-0.051328,1.00409
-0.39128,1.40453,-0.887418,-0.116145,0.0547248,-0.0107691,1.00409
-1.15726,1.29091,-1.11233,-0.0572098,0.0175349,-0.1024,1.00409
-1.57163,0.710285,-1.53853,-0.0361377,0.0689557,-0.23438,1.00409
-1.3596,-0.0513416,-1.74289,-0.0169198,0.12811,-0.308687,1.00409
-0.709631,-0.700622,-1.50555,0.0248091,0.131583,-0.289862,1.00409
-0.201094,-0.838162,-0.900494,0.0418719,0.104483,-0.200872,1.00409
-0.203741,-0.559623,-0.256828,0.0402455,0.0842406,-0.124113,1.00409
-0.495852,-0.284034,0.199019,0.0139345,0.0547831,-0.110958,1.00409
-0.661414,-0.208403,0.290768,0.00130443,0.0249163,-0.13333,1.00409
-0.466672,-0.272618,0.0836715,-0.00269808,0.00574538,-0.147816,1.00409
-0.146418,-0.367081,-0.146267,-0.00862069,0.00410467,-0.109895,1.00409
0.0953422,-0.32178,-0.171597,-0.0203689,-0.0190075,-0.0256345,1.00409
0.279999,-0.12813,-0.0595437,-0.0129605,-0.040077,0.0705851,1.00409
0.393235,0.0385611,0.0674218,-0.00564769,-0.0555167,0.131235,1.00409
0.435709,0.0827346,0.12301,-0.0153053,-0.0564253,0.163998,1.00409
0.4623,-0.0299816,0.0625667,-0.0121558,-0.0434108,0.167074,1.00409
0.551522,-0.227083,-0.0191107,-0.00869671,-0.0311345,0.170309,1.00409
0.685074,-0.421706,-0.0626149,-0.00321436,0.0119491,0.162361,1.00409
0.843231,-0.47872,-0.0330929,-0.00641777,0.0350676,0.196454,1.00409
0.843231,-0.47872,-0.0330929,-0.00641777,0.0350676,0.196454,1.20226
0.827489,-0.471425,-0.00950345,-0.00628193,0.0554952,0.21384,1.20226
0.615057,-0.353103,-0.0086787,0.00616342,0.0572203,0.227901,1.20226
0.346849,-0.146666,0.0160269,0.00489257,0.0437738,0.243282,1.20226
0.0530665,0.0229523,-0.0297516,0.00306742,0.0551549,0.216964,1.20226
-0.0881336,0.141619,-0.0490311,0.0100736,0.0354986,0.203246,1.20226
-0.0488174,0.254463,-0.0121242,-0.00309189,0.0323481,0.195493,1.20226
0.0391407,0.343776,0.0699561,-0.0188233,0.0210444,0.186953,1.20226
0.0474324,0.254952,0.122402,-2.96533e-06,-0.0190785,0.15864,1.20226
-0.0660573,0.0211356,0.138196,0.0239722,-0.0467028,0.102587,1.20226
-0.210773,-0.226506,0.164081,0.0181878,-0.0494767,0.0413322,1.20226
-0.237913,-0.430962,0.225468,0.0218921,-0.0615313,-0.0351903,1.20226
-0.0745295,-0.55474,0.309547,0.0172835,-0.0650368,-0.107573,1.20226
0.21669,-0.565616,0.395978,0.0294522,-0.0654206,-0.147314,1.20226
0.435557,-0.598049,0.521225,0.0687079,-0.106949,-0.188834,1.20226
0.498993,-0.498836,0.661161,0.0938986,-0.128644,-0.176756,1.20226
0.208595,-0.253666,0.795561,0.106046,-0.157903,-0.169474,1.20226
-0.448483,-0.211474,0.709242,0.0953977,-0.118785,-0.298821,1.20226
-0.815645,-0.278303,0.412974,0.104201,-0.0643582,-0.416537,1.20226
-0.46553,-0.250845,0.274784,0.104568,-0.00474966,-0.45642,1.20226
0.207629,-0.157059,0.453544,0.103663,0.0505813,-0.405825,1.20226
0.680661,0.00300908,0.87072,0.116848,0.0309392,-0.29385,1.20226
0.726558,0.196844,1.26637,0.112888,0.00414045,-0.191129,1.20226
0.546405,0.344509,1.47667,0.0846549,-0.0056985,-0.119257,1.20226
0.359254,0.416213,1.48373,0.0548823,-0.0102628,-0.0668674,1.20226
0.255877,0.464607,1.36723,0.0316902,-0.00963512,-0.00445133,1.20226
0.199021,0.498236,1.23838,0.0194992,-0.010693,0.0560331,1.20226
0.134058,0.592841,1.1457,0.0190263,-0.0119842,0.118372,1.20226
0.022924,0.661515,1.1065,0.0229132,-0.00852379,0.153312,1.20226
-0.082405,0.650768,1.10259,0.033693,-0.000674054,0.174117,1.20226
-0.128,0.512139,1.14566,0.0385529,0.00847083,0.177445,1.20226
-0.0493747,0.28527,1.19404,0.0401938,0.0190394,0.183869,1.20226
0.0943204,0.0153839,1.20299,0.0351788,0.0322056,0.177485,1.20226
0.29692,-0.162024,1.16176,0.0408867,0.0445713,0.187181,1.20226
0.438585,-0.219744,1.11252,0.0397948,0.0489313,0.20204,1.20226
0.465383,-0.0947174,1.0293,0.0378847,0.0424097,0.231795,1.20226
0.351619,0.111872,0.890769,0.0407184,0.0417602,0.240629,1.20226
0.17086,0.327576,0.720001,0.045366,0.034088,0.235635,1.20226
0.0108265,0.493441,0.535797,0.0519563,0.0353507,0.216761,1.20226
-0.123954,0.544553,0.346568,0.0596067,0.0467902,0.17437,1.20226
-0.145091,0.461089,0.221764,0.0729334,0.0559768,0.0962657,1.20226
-0.0602018,0.407592,0.165967,0.0497848,0.0916771,0.0431452,1.20226
0.0495571,0.329165,0.129951,0.0286283,0.118318,-0.0340917,1.20226
0.0595565,0.375097,0.11635,0.00372601,0.129725,-0.0435631,1.20226
-0.0673068,0.436054,0.103102,-0.0298199,0.137519,-0.0442159,1.20226
-0.163865,0.499304,0.100901,-0.0548147,0.141554,-0.0318381,1.20226
-0.262444,0.423756,0.0747788,-0.0768131,0.151774,-0.0549244,1.20226
-0.322081,0.395514,-0.0133945,-0.087455,0.154899,-0.0666276,1.20226
-0.348049,0.407202,-0.0702696,-0.0842446,0.14131,-0.0646753,1.20226
-0.348049,0.407202,-0.0702696,-0.0842446,0.14131,-0.0646753,1.44534
-0.32134,0.35292,-0.0409775,-0.0567504,0.0824922,-0.0477564,1.44534
-0.341568,0.220625,0.0428338,-0.00485681,-0.00145227,-0.019039,1.44534
-0.818335,-0.307913,0.076276,0.0370504,-0.0904506,0.00370365,1.44534
-1.58117,-0.958217,-0.098318,0.0907344,-0.191407,-0.182509,1.44534
-1.87475,-1.02356,-0.414392,0.106085,-0.223549,-0.280883,1.44534
-1.3773,-0.66059,-0.610933,0.0714844,-0.125613,-0.385305,1.44534
-0.430326,0.0696673,-0.510913,0.0211759,-0.0111516,-0.41474,1.44534
0.2986,0.734507,-0.135565,0.0149935,0.0254821,-0.342264,1.44534
0.552952,1.1617,0.413511,0.0173564,-0.0108825,-0.25114,1.44534
0.461208,1.20578,0.882342,-0.00670226,-0.0828062,-0.131812,1.44534
0.294705,0.747363,0.999762,-0.0218379,-0.117927,-0.0890282,1.44534
0.301271,-0.041374,0.786031,-0.0462677,-0.107526,-0.0921675,1.44534
0.588166,-0.76125,0.408554,-0.0907232,-0.079238,-0.0820203,1.44534
0.95111,-1.16853,0.0756972,-0.11488,-0.0347389,-0.0198547,1.44534
1.15759,-1.02469,-0.0530804,-0.125468,0.00117993,0.101303,1.44534
1.09202,-0.621983,-0.0333843,-0.130389,0.0177723,0.221203,1.44534
0.848942,-0.22318,0.0240266,-0.121093,0.0163465,0.312586,1.44534
0.554563,-0.13892,0.00137182,-0.0879661,-0.0131231,0.341983,1.44534
0.375865,-0.253886,-0.165018,-0.0631912,-0.0187659,0.303204,1.44534
0.300268,-0.348306,-0.407589,-0.0485092,-0.00844094,0.257182,1.44534
0.333413,-0.38642,-0.580866,-0.0386528,0.0139971,0.204242,1.44534
0.398834,-0.306391,-0.632678,-0.0307006,0.0273321,0.17383,1.44534
0.318889,-0.101435,-0.629401,-0.0183467,0.034966,0.136585,1.44534
0.108336,0.161705,-0.623836,-0.0180066,0.0385058,0.0974576,1.44534
-0.0696708,0.332807,-0.64453,-0.0176797,0.0454386,0.0376118,1.44534
-0.0195036,0.311776,-0.60942,-0.0171119,0.0317494,-0.0250558,1.44534
0.157795,0.297734,-0.480763,-0.02018,0.010036,-0.0386394,1.44534
0.167315,0.275203,-0.340262,-0.0196555,-0.0099204,-0.0704194,1.44534
0.0581031,0.145955,-0.266546,0.0110196,-0.0330469,-0.128431,1.44534
0.02228,0.00632439,-0.134232,0.043869,-0.0728868,-0.161778,1.44534
0.0555335,-0.281412,0.109084,0.070123,-0.0966667,-0.241146,1.44534
0.142023,-0.691532,0.362337,0.100323,-0.113844,-0.304271,1.44534
0.0152986,-1.18627,0.480042,0.0848455,-0.0817993,-0.413012,1.44534
-0.154314,-0.933748,0.424769,0.0497024,-0.0218925,-0.35535,1.44534
-0.0822846,0.0433775,0.445267,0.00310405,0.00689614,-0.222712,1.44534
0.10928,0.97469,0.612973,-0.00229552,0.000725657,-0.0949243,1.44534
0.123423,1.32226,0.789399,0.0347497,-0.0373078,-0.0234832,1.44534
0.0248752,1.09673,0.860687,0.0470119,-0.0578072,0.0208015,1.44534
0.0180149,0.524379,0.860361,0.037843,-0.0690693,0.041419,1.44534
0.107239,-0.0101775,0.823603,0.0109176,-0.050197,0.0769284,1.44534
0.156121,-0.289319,0.758425,-0.000831433,-0.0202857,0.109058,1.44534
0.102556,-0.177286,0.722122,-5.91129e-05,-0.00383818,0.153469,1.44534
0.00279566,0.126549,0.729228,0.00153954,0.0135771,0.17317,1.44534
-0.0461753,0.450995,0.719616,0.00552096,0.023773,0.181334,1.44534
-0.0453558,0.63699,0.644796,0.0135438,0.0303327,0.193778,1.44534
-0.0371269,0.568899,0.499079,0.0277086,0.0343199,0.18692,1.44534
-0.0082893,0.342759,0.349493,0.0437701,0.0317144,0.189482,1.44534
-0.0082893,0.342759,0.349493,0.0437701,0.0317144,0.189482,1.7043
0.00245068,0.114954,0.254394,0.049851,0.0332918,0.208675,1.7043
-0.0471527,-0.00208033,0.226342,0.0567045,0.0340829,0.225805,1.7043
-0.140713,-0.0176503,0.241707,0.0637594,0.0242816,0.229642,1.7043
-0.202099,0.0560651,0.240914,0.062494,0.020292,0.215179,1.7043
-0.186151,0.167373,0.173713,0.058073,0.0227721,0.183608,1.7043
-0.113163,0.250923,0.0796668,0.0563613,0.0147172,0.158215,1.7043
-0.0906018,0.319161,-0.00365337,0.0615401,0.0124024,0.134535,1.7043
-0.13165,0.354601,-0.00758799,0.0809958,0.00791073,0.103985,1.7043
-0.209796,0.30842,0.0827518,0.0850634,0.00978309,0.0595743,1.7043
-0.241409,0.235653,0.163462,0.0888819,0.0117761,0.00942397,1.7043
-0.144521,0.229182,0.255285,0.0884427,-0.0041678,-0.015895,1.7043
-0.022452,0.305825,0.386565,0.0780738,-0.0399999,-0.0182653,1.7043
-0.0307829,0.292374,0.423421,0.0827967,-0.0944265,-0.0339066,1.7043
-0.205088,0.0920147,0.339607,0.0781201,-0.102998,-0.0598263,1.7043
-0.436577,-0.132995,0.381975,0.0388689,-0.0697905,-0.101846,1.7043
-0.557466,-0.256381,0.774129,-0.0232938,-0.0647528,-0.13201,1.7043
-0.614655,-0.469281,1.00846,-0.106128,-0.0777792,-0.244959,1.7043
-0.606839,-0.621471,0.422163,-0.0983327,-0.0895269,-0.303905,1.7043
-0.627717,-1.05056,-0.361111,-0.0460453,-0.1401,-0.354435,1.7043
-0.670567,-1.02937,-0.553958,-0.0406407,-0.0908951,-0.243584,1.7043
-0.776485,-0.325451,-0.44659,-0.0162922,-0.0145365,-0.168771,1.7043
-0.711543,0.534138,-0.333518,0.00485122,0.0422002,-0.159607,1.7043
-0.347021,1.09961,-0.175748,0.0240095,0.0631074,-0.161368,1.7043
0.0303812,1.01989,0.0360743,0.0568387,0.0322818,-0.170204,1.7043
0.133189,0.52235,0.200422,0.0842579,-0.0121597,-0.140879,1.7043
0.013797,-0.0151181,0.283799,0.0815677,-0.0376419,-0.092588,1.7043
-0.0697262,-0.41823,0.275616,0.0684542,-0.0500279,-0.0562796,1.7043
-0.0299212,-0.601063,0.243186,0.053588,-0.0543862,-0.0132257,1.7043
0.0801903,-0.640677,0.1862,0.0301153,-0.0523358,0.0360211,1.7043
0.163684,-0.692387,0.0917248,0.00595326,-0.0641781,0.0925182,1.7043
0.193304,-0.966603,-0.0720877,-0.00964191,-0.0796565,0.12875,1.7043
0.156714,-1.33512,-0.349687,-0.00926166,-0.0712908,0.0805532,1.7043
0.324684,-1.18,-0.630243,0.00370816,-0.0164833,0.0872003,1.7043
0.580768,-0.666782,-0.535172,-0.016554,0.0192053,0.0774243,1.7043
0.80101,-0.122899,-0.142299,-0.0413493,0.0321936,0.0896839,1.7043
0.832581,0.316886,0.204451,-0.0458483,0.0299649,0.122649,1.7043
0.649581,0.4897,0.333982,-0.0402808,0.00253524,0.0954335,1.7043
0.43848,0.395801,0.206534,-0.0300857,-0.003122,0.0162809,1.7043
0.348567,0.153873,0.0370468,-0.0637689,0.02857,-0.0410688,1.7043
0.43998,-0.175287,-0.0744528,-0.0863185,0.0615866,-0.0907811,1.7043
0.724257,-0.167155,-0.0919055,-0.0863479,0.0269617,-0.0408704,1.7043
0.846924,0.125086,-0.037443,-0.0793302,-0.0209041,-0.00297356,1.7043
0.722937,0.584496,-0.0533427,-0.0701829,-0.0524784,0.0125735,1.7043
0.534519,0.833069,-0.135717,-0.0420295,-0.0465965,-0.0375919,1.7043
0.445189,0.755692,-0.148313,-0.0254103,-0.0139193,-0.0779752,1.7043
0.403315,0.515886,-0.043689,0.0122907,0.00437239,-0.0808145,1.7043
0.377326,0.36135,0.143674,0.0481793,-0.00847709,-0.0624744,1.7043
0.300614,0.435501,0.261844,0.0546993,0.00657907,-0.0157785,1.7043
0.300614,0.435501,0.261844,0.0546993,0.00657907,-0.0157785,1.94211
0.0661208,0.36664,0.197561,0.0787267,0.00373268,-0.0361356,1.94211
-0.232798,0.180507,0.043586,0.10143,0.00343513,-0.0328633,1.94211
-0.555851,-0.0928129,-0.0925811,0.115713,0.0100369,-0.0318937,1.94211
-0.760449,-0.404232,-0.190616,0.138639,0.0239432,-0.0477276,1.94211
-0.739563,-0.618071,-0.250478,0.135324,0.0610385,-0.0529416,1.94211
-0.492403,-0.650901,-0.264293,0.118975,0.0930625,-0.0269541,1.94211
-0.142104,-0.665997,-0.297218,0.100669,0.0926999,-0.00151801,1.94211
0.0957776,-0.513542,-0.338193,0.0907365,0.0941937,0.0651237,1.94211
-0.207563,-0.579524,-0.355523,0.0492405,0.111731,0.00709289,1.94211
-0.555044,0.329279,-0.106177,0.0120111,0.0341595,0.341749,1.94211
-0.789553,1.15956,0.2664,0.0528973,0.00083518,0.314679,1.94211
-0.976866,1.27972,0.544524,0.0729411,0.0244558,0.236941,1.94211
-0.929957,1.03026,0.654939,0.0787107,0.0280185,0.218163,1.94211
-0.571021,0.634747,0.563028,0.0844041,0.0421234,0.201421,1.94211
-0.0950001,0.195282,0.395382,0.0553349,0.0431551,0.208242,1.94211
0.22552,-0.0675959,0.217605,0.0269432,0.0239944,0.221034,1.94211
0.31332,0.00959155,0.0720668,0.0208695,0.0162899,0.228108,1.94211
0.335186,0.303597,-0.0408867,0.00994673,-0.0369923,0.243519,1.94211
0.285953,0.216257,-0.200475,0.00315426,-0.0325363,0.212607,1.94211
0.031551,-0.833823,-0.159211,0.0432259,0.163606,0.0402597,1.94211
-0.281498,-1.04637,0.442063,0.00904692,-0.0155596,0.1734,1.94211
-0.373159,-0.0928508,1.51006,-0.166944,-0.193469,0.185053,1.94211
-0.328473,0.913035,1.59622,0.00475752,-0.00447664,0.128629,1.94211
-0.39621,0.931057,0.305277,0.19077,-0.031234,-0.0714926,1.94211
-0.333998,0.299188,-0.380747,-0.0216886,-0.21786,-0.136281,1.94211
0.030612,-0.379511,-0.722653,-0.000656679,-0.109056,-0.146148,1.94211
0.679411,-0.642487,-0.766379,0.084042,-0.10081,-0.154007,1.94211
1.37341,-0.75211,-0.656392,0.051258,-0.116881,-0.133716,1.94211
1.6658,-1.21565,-0.668731,-0.0017311,-0.0648296,-0.114812,1.94211
0.905132,-0.879078,-0.322511,-0.0631334,-0.12188,-0.0618414,1.94211
0.190933,-0.322675,0.205742,-0.0838416,-0.0804492,0.0201428,1.94211
-0.290595,0.0932113,0.350648,0.0125385,-0.0877913,-0.081535,1.94211
-0.638829,0.458929,0.249304,0.0212626,-0.0774293,-0.125646,1.94211
-0.80375,0.752372,0.211345,0.0157145,-0.0786764,-0.143619,1.94211
-0.863662,0.582396,0.180678,0.0357698,-0.0668923,-0.206382,1.94211
-0.729212,0.0789677,-0.0209674,0.0883838,-0.0300408,-0.233975,1.94211
-0.532918,-0.488824,-0.273322,0.0674858,0.00203103,-0.267964,1.94211
-0.41385,-0.752916,-0.432758,0.0196682,0.0224735,-0.252599,1.94211
-0.334244,-0.416052,-0.49783,0.0050315,0.0605012,-0.158846,1.94211
-0.344847,0.021774,-0.429258,0.0198499,0.0886834,-0.109455,1.94211
-0.464778,0.216374,-0.260054,0.027504,0.0869559,-0.0996376,1.94211
-0.725831,-0.0351127,-0.248932,0.0155165,0.140215,-0.172671,1.94211
-0.720966,-0.281407,-0.356156,0.0186094,0.176407,-0.211456,1.94211
-0.261218,-0.150273,-0.336919,-0.00142395,0.18942,-0.150453,1.94211
0.374027,0.0363778,-0.0872168,-0.0235695,0.155937,-0.0434516,1.94211
0.852658,0.0247893,0.220429,-0.0243338,0.100011,0.0739411,1.94211
0.989214,-0.211295,0.422832,-0.0156911,0.0888825,0.17392,1.94211
0.823644,-0.419939,0.570175,-0.0104171,0.0994021,0.255679,1.94211
0.823644,-0.419939,0.570175,-0.0104171,0.0994021,0.255679,2.18784
0.548874,-0.471423,0.75743,-0.0189462,0.121969,0.290836,2.18784
0.420295,-0.38673,0.908068,-0.052421,0.133657,0.310406,2.18784
0.525849,-0.197447,0.970068,-0.06281,0.124559,0.337297,2.18784
0.729872,-0.164609,0.937974,-0.0366387,0.0959841,0.345647,2.18784
0.817872,-0.248014,0.870449,-0.0151827,0.0276962,0.351176,2.18784
0.63966,-0.289204,0.691897,0.000477433,-0.0238216,0.348657,2.18784
0.290167,-0.202334,0.425441,-0.0160663,-0.0735237,0.312105,2.18784
-0.102573,-0.0625372,0.141677,-0.0157664,-0.100144,0.25709,2.18784
-0.314003,-0.082418,-0.0521949,0.0234927,-0.13864,0.129117,2.18784
-0.24443,-0.140253,-0.092137,0.034742,-0.14261,0.0515311,2.18784
-0.0792149,-0.185999,-0.0179744,0.0242158,-0.144841,0.00639457,2.18784
0.0269644,-0.170372,0.0539923,0.00514013,-0.144855,0.0039624,2.18784
-0.0147747,-0.18006,0.0732017,-0.0121028,-0.140834,-0.00761575,2.18784
-0.151618,-0.181586,0.086161,-0.0251399,-0.146092,-0.00727051,2.18784
-0.242122,-0.139072,0.153061,-0.0515503,-0.141001,-0.0363842,2.18784
-0.115704,0.115683,0.260376,-0.077992,-0.142931,-0.016558,2.18784
0.160564,0.392765,0.320296,-0.0854688,-0.124237,-0.017855,2.18784
0.369722,0.539953,0.290358,-0.0515035,-0.123867,0.00457829,2.18784
0.370812,0.514126,0.146673,-0.00108191,-0.126325,0.0296043,2.18784
0.1943,0.496941,-0.0323881,0.036553,-0.132767,0.0504737,2.18784
-0.0465182,0.504594,-0.154855,0.068937,-0.121743,0.0443977,2.18784
-0.163537,0.480412,-0.0930878,0.0818717,-0.109652,0.0100255,2.18784
-0.00858599,0.531398,0.130087,0.0857477,-0.104392,-0.00758511,2.18784
0.271618,0.674485,0.438496,0.0755895,-0.1148,0.0241684,2.18784
0.178422,0.540788,0.564271,0.071516,-0.0943491,-0.0113563,2.18784
-0.0917344,0.474096,0.51737,0.0917007,-0.133919,-0.0159604,2.18784
-0.330258,0.445017,0.382084,0.0986153,-0.0996452,-0.0580413,2.18784
-0.273254,0.514503,0.377499,0.0675986,-0.0551796,-0.0785137,2.18784
0.0278017,0.686518,0.500492,0.0526329,-0.0107234,-0.0569144,2.18784
0.37084,0.823413,0.667295,0.079918,-0.00604075,-0.0179163,2.18784
0.552563,0.869791,0.761957,0.102974,0.00562689,0.0396532,2.18784
0.494042,0.767555,0.751675,0.12791,0.00920817,0.0764176,2.18784
0.26972,0.627026,0.644091,0.14805,0.0218841,0.0965495,2.18784
0.0484265,0.480216,0.442557,0.17623,0.0414147,0.100942,2.18784
-0.026779,0.311199,0.376645,0.168206,0.0277096,0.0976081,2.18784
-0.113068,0.062293,0.454717,0.145788,0.0309965,0.0844674,2.18784
-0.261197,-0.0705874,0.520326,0.11186,0.0515333,0.0917087,2.18784
-0.437194,0.0344489,0.49965,0.0571045,0.0799779,0.0956876,2.18784
-0.537617,0.351165,0.437665,0.0195997,0.0948335,0.0816137,2.18784
-0.495953,0.595516,0.463669,0.00838715,0.090536,0.0607777,2.18784
-0.372673,0.598127,0.548785,0.017901,0.0857436,0.0361111,2.18784
-0.219196,0.454342,0.682924,0.00242218,0.0651068,0.0384796,2.18784
-0.0841402,0.26401,0.757546,-0.0101786,0.0359468,0.0465064,2.18784
0.0242558,0.220587,0.708607,-0.0322884,0.0162333,0.0774155,2.18784
0.0802273,0.25232,0.593805,-0.0368153,-0.00195965,0.0866065,2.18784
0.0766143,0.26755,0.496072,-0.0303808,-0.0296048,0.0743727,2.18784
0.080161,0.168179,0.410004,-0.0273056,-0.0297724,0.0489765,2.18784
0.0980516,0.133002,0.354307,-0.0326263,-0.0350607,0.0387602,2.18784
0.0980516,0.133002,0.354307,-0.0326263,-0.0350607,0.0387602,2.4415
0.176069,0.12661,0.248547,-0.0288108,-0.0240223,0.0285316,2.4415
0.137602,-0.0594193,0.11632,-0.0286292,-0.0311686,-0.0301335,2.4415
-0.0234807,0.0303197,-0.0069969,-0.0479006,-0.035046,-0.0259823,2.4415
-0.26037,0.285126,-0.159017,-0.0596829,-0.0127253,-0.0604925,2.4415
-0.405744,0.6333,-0.231077,-0.0399592,-0.00432611,-0.0703879,2.4415
-0.362906,0.593172,-0.0947045,-0.000212282,-0.0471534,-0.124555,2.4415
