rotationRate_x,rotationRate_y,rotationRate_z,acceleration_x,acceleration_y,acceleration_z,relativeAltitude,altitude_pressure
0.104678,0.362014,0.135362,0.0695,0.18349,0.109207,0.001,0.0001
0.166527,0.326541,0.084997,0.0443348,0.142565,0.161101,0.001,0.0001
0.193522,0.304863,0.084069,0.0611319,0.130419,0.201524,0.001,0.0001
0.135878,0.296168,0.159692,0.0874564,0.12857,0.2411,0.001,0.0001
0.0336713,0.257671,0.215896,0.0641392,0.143971,0.270087,0.001,0.0001
-0.126462,0.134565,0.211347,0.0402457,0.137282,0.280617,0.001,0.0001
-0.23212,0.114524,0.228541,0.027312,0.137745,0.233137,0.001,0.0001
-0.285107,0.149767,0.264512,0.0128279,0.15739,0.177828,0.001,0.0001
-0.349794,0.118198,0.346336,0.0130074,0.168157,0.160011,0.001,0.0001
-0.394016,0.0629744,0.460781,0.016755,0.163267,0.148768,0.001,0.0001
-0.398913,0.0070701,0.538516,0.00722726,0.132052,0.132553,0.001,0.0001
-0.429425,-0.0302398,0.559775,-0.0235068,0.0850905,0.130536,0.001,0.0001
-0.532527,-0.0643331,0.515092,-0.0475009,0.0297095,0.145047,0.001,0.0001
-0.693666,-0.0991945,0.437834,-0.0481482,-0.0237803,0.136705,0.001,0.0001
-0.795059,-0.100208,0.332397,-0.0560842,-0.0585841,0.0977288,0.001,0.0001
-0.831153,-0.164448,0.24779,-0.0237356,-0.0851757,0.0524786,0.001,0.0001
-0.877918,-0.134811,0.215464,0.019479,-0.10989,0.00152767,0.001,0.0001
-0.908696,-0.102298,0.203873,0.0666759,-0.116092,-0.0420287,0.001,0.0001
-0.936277,-0.150379,0.179748,0.0977131,-0.113896,-0.0851677,0.001,0.0001
-0.961273,-0.334912,0.161583,0.136281,-0.1067,-0.147785,0.001,0.0001
-0.94207,-0.562001,0.184805,0.179668,-0.0969508,-0.259979,0.001,0.0001
-0.834587,-0.67729,0.411321,0.28361,-0.0662058,-0.385921,0.001,0.0001
-0.536159,-0.496586,0.791188,0.346752,-0.0405449,-0.523694,0.001,0.0001
-0.210424,-0.176119,1.00461,0.249473,-0.0532393,-0.580834,0.001,0.0001
-0.0872658,-0.0249173,0.887011,0.0899994,-0.131473,-0.502334,0.001,0.0001
-0.152338,-0.160921,0.671513,0.0333579,-0.192485,-0.364539,0.001,0.0001
-0.230839,-0.307897,0.563625,0.0625613,-0.158942,-0.279135,0.001,0.0001
-0.178817,-0.281986,0.653743,0.0725544,-0.0633991,-0.276292,0.001,0.0001
-0.0386096,-0.168612,0.721727,0.047006,0.0276773,-0.267931,0.001,0.0001
-0.04219,0.16457,0.668212,-0.0320888,0.0654695,-0.227856,0.001,0.0001
-0.0512494,0.511798,0.541195,-0.0999521,0.078806,-0.168303,0.001,0.0001
0.120818,0.659914,0.432398,-0.118215,0.087894,-0.11854,0.001,0.0001
0.374121,0.414406,0.512556,-0.0508163,0.124952,-0.0282404,0.001,0.0001
0.594471,0.154696,0.728228,-0.0174946,0.161963,0.0240245,0.001,0.0001
0.765948,0.168587,0.768677,-0.107648,0.147459,0.00443798,0.001,0.0001
0.841081,0.349266,0.569276,-0.25471,0.111893,0.00982612,0.001,0.0001
0.814605,0.453674,0.29787,-0.31297,0.0743619,0.0715195,0.001,0.0001
0.705693,0.400112,0.107229,-0.29363,0.0581302,0.1578,0.001,0.0001
0.578568,0.263272,0.00625567,-0.237827,0.046139,0.213067,0.001,0.0001
0.486064,0.108187,-0.0862964,-0.213055,0.0426771,0.230489,0.001,0.0001
0.466278,0.0864303,-0.211663,-0.207559,0.0204919,0.203772,0.001,0.0001
0.48722,0.207648,-0.36516,-0.229078,0.0239158,0.169295,0.001,0.0001
0.387746,0.236801,-0.45066,-0.191662,0.040373,0.209809,0.001,0.0001
0.308597,0.197833,-0.39861,-0.139047,0.0669713,0.232282,0.001,0.0001
0.330277,0.0792717,-0.301335,-0.101453,0.0994313,0.218914,0.001,0.0001
0.383079,0.0617779,-0.245305,-0.0995483,0.100467,0.20128,0.001,0.0001
0.327509,0.0706984,-0.243396,-0.116503,0.101983,0.231239,0.001,0.0001
0.180161,0.0687818,-0.24263,-0.107683,0.0792245,0.261623,0.001,0.0001
-0.0145698,0.00339922,-0.259118,-0.0799549,0.0456931,0.274556,0.001,0.0001
-0.152858,-0.0254374,-0.230135,-0.0661066,0.0325719,0.251195,0.001,0.0001
-0.229516,-0.0824218,-0.233973,-0.0661264,0.00518976,0.217355,0.001,0.0001
-0.301612,-0.220121,-0.312869,-0.0635969,-0.0420737,0.193255,0.001,0.0001
-0.301612,-0.220121,-0.312869,-0.0635969,-0.0420737,0.193255,0.0317078,-0.00037384
-0.385655,-0.321905,-0.422742,-0.0565502,-0.0945052,0.153439,0.0317078,-0.00037384
-0.495654,-0.337922,-0.482913,-0.0312975,-0.114624,0.0940952,0.0317078,-0.00037384
-0.584801,-0.28986,-0.470046,-0.00578862,-0.113258,0.0199459,0.0317078,-0.00037384
-0.589387,-0.205754,-0.465365,-0.00110884,-0.125267,-0.0726711,0.0317078,-0.00037384
-0.451121,-0.13804,-0.464368,-0.000928909,-0.134483,-0.173027,0.0317078,-0.00037384
-0.244651,-0.0467618,-0.434987,0.00762497,-0.13592,-0.249968,0.0317078,-0.00037384
-0.0459416,0.0282827,-0.376037,0.0268213,-0.129248,-0.285223,0.0317078,-0.00037384
0.0589301,0.0731794,-0.306475,0.0352229,-0.109632,-0.287983,0.0317078,-0.00037384
0.079051,0.0292033,-0.220715,0.0462191,-0.104542,-0.281709,0.0317078,-0.00037384
0.111128,-0.0594926,-0.114941,0.0500658,-0.0981651,-0.305544,0.0317078,-0.00037384
0.150453,-0.141179,-0.0676426,0.0281924,-0.103677,-0.343402,0.0317078,-0.00037384
0.123067,-0.218559,-0.157994,-0.0381257,-0.120205,-0.369893,0.0317078,-0.00037384
-0.000418971,-0.189196,-0.366593,-0.105307,-0.129653,-0.396764,0.0317078,-0.00037384
-0.110877,-0.0557514,-0.537808,-0.114652,-0.107248,-0.425953,0.0317078,-0.00037384
-0.07598,0.125682,-0.573299,-0.076978,-0.0483998,-0.440751,0.0317078,-0.00037384
0.131002,0.263631,-0.485531,-0.0215113,-0.0086187,-0.400178,0.0317078,-0.00037384
0.519714,0.238302,-0.310648,0.032216,0.00225495,-0.309339,0.0317078,-0.00037384
0.975859,0.252179,-0.144963,0.0702219,-0.0147033,-0.173318,0.0317078,-0.00037384
1.27258,0.309741,-0.0323354,0.0859295,-0.0403436,0.000475466,0.0317078,-0.00037384
1.20332,0.281963,-0.056056,0.0558431,-0.057697,0.195549,0.0317078,-0.00037384
0.850708,0.00823789,-0.192458,0.0299086,-0.0712318,0.339442,0.0317078,-0.00037384
0.541336,-0.337242,-0.384771,0.016428,-0.0271677,0.333089,0.0317078,-0.00037384
0.452883,-0.409014,-0.450813,0.0154475,0.114709,0.183912,0.0317078,-0.00037384
0.526959,-0.289647,-0.270473,0.085095,0.261782,0.0850398,0.0317078,-0.00037384
0.628851,-0.0688612,0.0634723,0.135574,0.350091,0.0620714,0.0317078,-0.00037384
0.723573,0.00733581,0.378905,0.16125,0.353714,0.0981969,0.0317078,-0.00037384
0.751641,-0.0656024,0.542593,0.124837,0.304896,0.170089,0.0317078,-0.00037384
0.697386,-0.0242719,0.566711,0.0574135,0.247078,0.232741,0.0317078,-0.00037384
0.555607,0.177861,0.443509,-0.0298213,0.188176,0.267419,0.0317078,-0.00037384
0.341721,0.366618,0.191804,-0.0891493,0.141992,0.317017,0.0317078,-0.00037384
0.107529,0.414892,-0.153457,-0.131145,0.109498,0.355387,0.0317078,-0.00037384
-0.108768,0.266798,-0.463811,-0.100086,0.0943012,0.370876,0.0317078,-0.00037384
-0.328968,0.165432,-0.559934,-0.00535706,0.137756,0.353103,0.0317078,-0.00037384
-0.504444,0.256815,-0.494686,0.0615902,0.186198,0.288405,0.0317078,-0.00037384
-0.552236,0.298077,-0.419284,0.103404,0.19255,0.234027,0.0317078,-0.00037384
-0.534806,0.206567,-0.285311,0.151926,0.192637,0.211364,0.0317078,-0.00037384
-0.58784,0.0479904,0.0086761,0.211668,0.223224,0.215424,0.0317078,-0.00037384
-0.715497,-0.0882085,0.40146,0.242482,0.241558,0.212541,0.0317078,-0.00037384
-0.809064,-0.160761,0.669666,0.183455,0.199965,0.156909,0.0317078,-0.00037384
-0.788761,-0.0843063,0.740138,0.0594808,0.1131,0.0575769,0.0317078,-0.00037384
-0.755136,0.0258733,0.683669,-0.0307956,0.0165068,0.00980222,0.0317078,-0.00037384
-0.790134,0.0549123,0.555228,-0.081888,-0.0796832,0.00869054,0.0317078,-0.00037384
-0.870101,0.0284686,0.372088,-0.0996368,-0.164355,0.00628752,0.0317078,-0.00037384
-0.958498,0.00476105,0.16172,-0.100269,-0.221694,-0.0293501,0.0317078,-0.00037384
-0.936871,0.0333475,0.0348346,-0.0589722,-0.252874,-0.10227,0.0317078,-0.00037384
-0.830577,0.034754,0.0236242,0.014148,-0.253299,-0.174994,0.0317078,-0.00037384
-0.694037,-0.0630062,0.0648883,0.0686017,-0.252722,-0.221049,0.0317078,-0.00037384
-0.51151,-0.242244,0.157034,0.122064,-0.255161,-0.281101,0.0317078,-0.00037384
-0.351937,-0.454865,0.217749,0.140083,-0.224863,-0.335067,0.0317078,-0.00037384
-0.291072,-0.549676,0.230799,0.143371,-0.193854,-0.400858,0.0317078,-0.00037384
-0.291072,-0.549676,0.230799,0.143371,-0.193854,-0.400858,0.0317078,-0.00037384
-0.257511,-0.488496,0.251499,0.156851,-0.169235,-0.492813,0.0317078,-0.00037384
-0.166733,-0.307333,0.329452,0.17599,-0.124871,-0.572126,0.0317078,-0.00037384
-0.0189736,-0.148515,0.381333,0.165711,-0.0877585,-0.605978,0.0317078,-0.00037384
0.0864626,-0.0677439,0.338834,0.104327,-0.039677,-0.58757,0.0317078,-0.00037384
0.125687,-0.20932,0.319128,0.102156,-0.0195825,-0.511761,0.0317078,-0.00037384
0.214567,-0.311294,0.331983,0.105326,0.012524,-0.485798,0.0317078,-0.00037384
0.415824,-0.0858481,0.345635,0.0694118,0.0434486,-0.519161,0.0317078,-0.00037384
0.743445,0.394943,0.444168,0.0581367,0.0540257,-0.510269,0.0317078,-0.00037384
1.07452,0.799175,0.572346,0.0244893,0.0700119,-0.370751,0.0317078,-0.00037384
1.3502,0.949281,0.630744,-0.0292566,0.057551,-0.15882,0.0317078,-0.00037384
1.48191,0.84811,0.577883,-0.0979744,0.0598107,0.0556068,0.0317078,-0.00037384
1.36876,0.596353,0.385102,-0.177675,0.0746865,0.247258,0.0317078,-0.00037384
1.06436,0.278696,0.147373,-0.236462,0.101328,0.36893,0.0317078,-0.00037384
0.771602,0.0471011,-0.0484298,-0.251078,0.141261,0.39818,0.0317078,-0.00037384
0.59091,-0.0582362,-0.179359,-0.237034,0.207325,0.371252,0.0317078,-0.00037384
0.518088,-0.0439119,-0.165738,-0.181293,0.253121,0.335777,0.0317078,-0.00037384
0.51402,-0.028828,-0.0614903,-0.137136,0.292864,0.330515,0.0317078,-0.00037384
0.557987,-0.0455075,0.0463172,-0.126597,0.298952,0.352223,0.0317078,-0.00037384
0.577592,-0.0961072,0.0944602,-0.133344,0.284239,0.392741,0.0317078,-0.00037384
0.520326,-0.151332,0.0797978,-0.138691,0.257179,0.431768,0.0317078,-0.00037384
0.356356,-0.216865,0.0153788,-0.137899,0.233383,0.455665,0.0317078,-0.00037384
0.0988276,-0.275691,-0.0449765,-0.0988729,0.205328,0.449169,0.0317078,-0.00037384
-0.189724,-0.33328,-0.0649938,-0.0432781,0.173916,0.411213,0.0317078,-0.00037384
-0.374042,-0.396627,-0.0222741,0.021848,0.148295,0.317182,0.0317078,-0.00037384
-0.44073,-0.392622,0.00916466,0.043904,0.13393,0.194286,0.0317078,-0.00037384
-0.504262,-0.400472,0.0684402,0.0641612,0.105877,0.111422,0.0317078,-0.00037384
-0.574372,-0.437769,0.155455,0.077031,0.0742258,0.044048,0.0317078,-0.00037384
-0.589882,-0.40511,0.217533,0.0649412,0.035459,-0.0326151,0.0317078,-0.00037384
-0.536487,-0.242298,0.262091,0.0438197,-0.00866488,-0.109936,0.0317078,-0.00037384
-0.44196,0.00569729,0.264691,0.00538346,-0.0499254,-0.151937,0.0317078,-0.00037384
-0.340611,0.170651,0.255156,-0.0344848,-0.0856774,-0.131019,0.0317078,-0.00037384
-0.267711,0.180562,0.229511,-0.0636518,-0.121253,-0.0636461,0.0317078,-0.00037384
-0.181683,0.165662,0.133334,-0.119477,-0.155724,-0.00804991,0.0317078,-0.00037384
-0.138709,0.144539,-0.089367,-0.188647,-0.183038,0.0408349,0.0317078,-0.00037384
-0.183429,0.0545037,-0.304054,-0.198495,-0.200107,0.0928124,0.0317078,-0.00037384
-0.337439,-0.111065,-0.420524,-0.150293,-0.196657,0.125511,0.0317078,-0.00037384
-0.416438,-0.14255,-0.457727,-0.103766,-0.18324,0.0622863,0.0317078,-0.00037384
-0.348937,-0.10241,-0.454112,-0.0741841,-0.161586,-0.0471787,0.0317078,-0.00037384
-0.217299,-0.0768396,-0.40502,-0.0136769,-0.160468,-0.120582,0.0317078,-0.00037384
-0.150186,-0.21553,-0.371371,0.0336098,-0.16751,-0.162711,0.0317078,-0.00037384
-0.146737,-0.338294,-0.328862,0.0958546,-0.185011,-0.251619,0.0317078,-0.00037384
-0.086541,-0.32986,-0.265356,0.12861,-0.19751,-0.389873,0.0317078,-0.00037384
0.0903895,-0.208245,-0.155289,0.153543,-0.200794,-0.534109,0.0317078,-0.00037384
0.298049,-0.0173633,-0.0615725,0.132145,-0.186002,-0.60572,0.0317078,-0.00037384
0.39757,0.0835063,-0.0943172,0.0481236,-0.160157,-0.566455,0.0317078,-0.00037384
0.310489,0.135945,-0.227146,-0.0188982,-0.134748,-0.455917,0.0317078,-0.00037384
0.248658,0.26132,-0.365825,-0.0704395,-0.0927185,-0.391647,0.0317078,-0.00037384
0.327542,0.300947,-0.394126,-0.0407747,-0.0427279,-0.311497,0.0317078,-0.00037384
0.526444,0.229718,-0.303856,0.0055244,0.00504383,-0.207462,0.0317078,-0.00037384
0.682671,0.20714,-0.250823,-0.0063225,0.0405148,-0.0971562,0.0317078,-0.00037384
0.777856,0.243987,-0.207553,-0.0249436,0.0704213,0.0156553,0.0317078,-0.00037384
0.777856,0.243987,-0.207553,-0.0249436,0.0704213,0.0156553,0.121552,-0.00144958
0.818646,0.345738,-0.184012,-0.032609,0.101403,0.111008,0.121552,-0.00144958
0.739218,0.423895,-0.191577,-0.0358922,0.13108,0.20416,0.121552,-0.00144958
0.573721,0.301508,-0.183046,-0.0277426,0.158787,0.293963,0.121552,-0.00144958
0.441569,0.0848087,-0.17158,-0.00513425,0.186427,0.330832,0.121552,-0.00144958
0.400749,-0.0274872,-0.14054,-0.000646204,0.225181,0.312462,0.121552,-0.00144958
0.405014,0.0101659,-0.114239,-0.0152365,0.259512,0.278425,0.121552,-0.00144958
0.384328,0.0148404,-0.0874878,-0.00749147,0.271536,0.284102,0.121552,-0.00144958
0.264932,-0.0647697,-0.106626,-0.0120221,0.263954,0.307945,0.121552,-0.00144958
0.0852155,-0.0346571,-0.149129,0.00766626,0.238737,0.283696,0.121552,-0.00144958
-0.0701273,0.142789,-0.133506,0.041727,0.231694,0.215842,0.121552,-0.00144958
-0.131585,0.309892,-0.0168966,0.0946186,0.232506,0.16802,0.121552,-0.00144958
-0.188131,0.309772,0.140025,0.136524,0.219373,0.172136,0.121552,-0.00144958
-0.282974,0.132967,0.274465,0.14618,0.178255,0.193884,0.121552,-0.00144958
-0.393967,-0.164114,0.322,0.127214,0.123135,0.180267,0.121552,-0.00144958
-0.429462,-0.275079,0.37085,0.131607,0.0749663,0.098718,0.121552,-0.00144958
-0.43823,-0.129152,0.431909,0.113146,0.0553585,0.0123487,0.121552,-0.00144958
-0.42703,0.0695521,0.468163,0.0684315,0.0263057,-0.0292099,0.121552,-0.00144958
-0.357745,0.190735,0.431463,0.0146402,-0.0137677,-0.0358403,0.121552,-0.00144958
-0.300465,0.277011,0.325601,-0.0377408,-0.0402973,-0.0035094,0.121552,-0.00144958
-0.333596,0.310347,0.187294,-0.0752636,-0.0453691,0.0709585,0.121552,-0.00144958
-0.454124,0.27501,0.0963829,-0.0773435,-0.0393878,0.149937,0.121552,-0.00144958
-0.57453,0.18982,0.0736959,-0.0671638,-0.0330531,0.181268,0.121552,-0.00144958
-0.63565,0.0623452,0.078481,-0.0532804,-0.0253652,0.168049,0.121552,-0.00144958
-0.634923,0.00061271,0.0855993,-0.0481174,-0.0283652,0.116886,0.121552,-0.00144958
-0.624589,-0.0450007,0.1049,-0.0314046,-0.0390097,0.0747157,0.121552,-0.00144958
-0.621891,-0.118735,0.147732,-0.00507887,-0.0522288,0.0458893,0.121552,-0.00144958
-0.63043,-0.151118,0.212712,0.0153855,-0.0633277,0.00499874,0.121552,-0.00144958
-0.622348,-0.208145,0.262732,0.0218593,-0.0888973,-0.0447431,0.121552,-0.00144958
-0.550581,-0.321369,0.260439,0.028715,-0.123346,-0.115827,0.121552,-0.00144958
-0.474472,-0.457627,0.251373,0.0569322,-0.144184,-0.184322,0.121552,-0.00144958
-0.465508,-0.455887,0.272663,0.102382,-0.152128,-0.267961,0.121552,-0.00144958
-0.49681,-0.315534,0.255577,0.120358,-0.167387,-0.354241,0.121552,-0.00144958
-0.563139,-0.140804,0.110941,0.0983741,-0.188709,-0.432672,0.121552,-0.00144958
-0.759355,-0.044743,-0.0985859,0.0999468,-0.197681,-0.471013,0.121552,-0.00144958
-0.95331,-0.0789391,-0.251689,0.117989,-0.166792,-0.523624,0.121552,-0.00144958
-0.927583,-0.146766,-0.246075,0.154792,-0.104512,-0.629856,0.121552,-0.00144958
-0.589467,-0.124238,-0.154715,0.135158,-0.0380822,-0.731139,0.121552,-0.00144958
-0.0497244,0.0123326,-0.0835859,0.0807675,0.00685878,-0.765557,0.121552,-0.00144958
0.496661,0.369283,0.0611525,0.0540603,0.0290106,-0.693517,0.121552,-0.00144958
0.929884,0.718324,0.247195,0.00459224,0.0818003,-0.486159,0.121552,-0.00144958
1.23697,0.863414,0.390635,-0.0585396,0.102142,-0.214131,0.121552,-0.00144958
1.41591,0.805172,0.41507,-0.13133,0.105873,0.0213341,0.121552,-0.00144958
1.44038,0.515383,0.328398,-0.200041,0.115204,0.217772,0.121552,-0.00144958
1.31175,0.140033,0.170066,-0.245245,0.138851,0.353315,0.121552,-0.00144958
1.05019,-0.100324,-0.00784515,-0.260133,0.162817,0.422961,0.121552,-0.00144958
0.732075,-0.102052,-0.181272,-0.25809,0.173431,0.427306,0.121552,-0.00144958
0.512545,-0.0267895,-0.343265,-0.224287,0.182085,0.405804,0.121552,-0.00144958
0.446984,-0.0470801,-0.454332,-0.161426,0.194078,0.386735,0.121552,-0.00144958
0.480336,0.0162254,-0.491131,-0.113548,0.218001,0.358904,0.121552,-0.00144958
0.44449,0.0178045,-0.4171,-0.0529332,0.255373,0.386011,0.121552,-0.00144958
0.44449,0.0178045,-0.4171,-0.0529332,0.255373,0.386011,0.13739,-0.00162506
0.348265,0.0469319,-0.219885,0.0198243,0.27357,0.408587,0.13739,-0.00162506
0.258484,0.077785,-0.0301451,0.030212,0.272553,0.410042,0.13739,-0.00162506
0.171466,-0.0980935,0.142567,0.0159911,0.237758,0.418512,0.13739,-0.00162506
0.0789258,-0.357797,0.249204,0.018233,0.184331,0.390314,0.13739,-0.00162506
-0.0981208,-0.497583,0.260782,-0.00482467,0.131873,0.341109,0.13739,-0.00162506
-0.365766,-0.549002,0.191833,-0.016129,0.0837983,0.288283,0.13739,-0.00162506
-0.658058,-0.485013,0.0957594,-0.00505006,0.0459711,0.219162,0.13739,-0.00162506
-0.941981,-0.324963,0.121268,0.0385523,0.0443352,0.13366,0.13739,-0.00162506
-1.15779,-0.169344,0.195076,0.0457316,0.050254,0.0475397,0.13739,-0.00162506
-1.14515,-0.122166,0.256212,0.0320285,0.0131132,-0.0628361,0.13739,-0.00162506
-0.852151,-0.169547,0.300494,0.0109768,-0.0282044,-0.168129,0.13739,-0.00162506
-0.486398,-0.160865,0.341937,0.000284702,-0.068739,-0.221675,0.13739,-0.00162506
-0.291226,-0.00340909,0.348956,-0.0229054,-0.113353,-0.190663,0.13739,-0.00162506
-0.274519,0.241451,0.243824,-0.0827162,-0.152106,-0.111293,0.13739,-0.00162506
-0.329125,0.3383,0.0858282,-0.123479,-0.183917,-0.0231822,0.13739,-0.00162506
-0.365871,0.237463,-0.0297738,-0.121703,-0.198834,0.0324683,0.13739,-0.00162506
-0.324659,0.114498,-0.079055,-0.104571,-0.187728,0.0343156,0.13739,-0.00162506
-0.218769,0.103232,-0.082741,-0.109938,-0.159596,-0.00282836,0.13739,-0.00162506
-0.14309,0.125482,-0.13362,-0.121211,-0.15845,-0.0214986,0.13739,-0.00162506
-0.121476,0.123899,-0.189834,-0.108705,-0.166515,-0.0246784,0.13739,-0.00162506
-0.10108,0.105075,-0.236282,-0.0869651,-0.165345,-0.0547299,0.13739,-0.00162506
-0.024967,0.0380579,-0.236941,-0.0458367,-0.153444,-0.108947,0.13739,-0.00162506
0.070165,-0.0377849,-0.207437,0.00544502,-0.148482,-0.177682,0.13739,-0.00162506
0.169954,-0.0258747,-0.151544,0.0341381,-0.137246,-0.246579,0.13739,-0.00162506
0.227261,0.0825641,-0.143985,0.0346093,-0.134614,-0.297325,0.13739,-0.00162506
0.22138,0.132578,-0.226958,0.00233559,-0.146647,-0.334753,0.13739,-0.00162506
0.239826,0.100271,-0.317045,0.0294198,-0.151531,-0.37005,0.13739,-0.00162506
0.23445,0.100118,-0.327664,0.0743126,-0.106005,-0.378954,0.13739,-0.00162506
0.136925,0.0408853,-0.316412,0.113846,-0.0739676,-0.367742,0.13739,-0.00162506
-0.0298916,0.046755,-0.283447,0.141391,-0.0457156,-0.354088,0.13739,-0.00162506
-0.160022,0.0982597,-0.182918,0.155729,-0.0149968,-0.37313,0.13739,-0.00162506
-0.0925979,0.23456,-0.0393442,0.142551,0.0073438,-0.414555,0.13739,-0.00162506
0.205177,0.451589,0.117348,0.109399,0.0147547,-0.433891,0.13739,-0.00162506
0.60511,0.558481,0.24561,0.0665616,0.0275342,-0.350544,0.13739,-0.00162506
0.947946,0.548697,0.360431,0.0283067,0.0451106,-0.181478,0.13739,-0.00162506
1.14434,0.505038,0.403502,-0.014361,0.0685264,0.00888926,0.13739,-0.00162506
1.12128,0.393396,0.377237,-0.0515059,0.0827109,0.198145,0.13739,-0.00162506
0.946139,0.225971,0.309254,-0.0736411,0.098262,0.333003,0.13739,-0.00162506
0.753919,0.0904674,0.217047,-0.0926859,0.136273,0.392182,0.13739,-0.00162506
0.591481,0.0329651,0.0937119,-0.112046,0.189266,0.406383,0.13739,-0.00162506
0.37324,0.118918,-0.0303067,-0.102505,0.220465,0.397552,0.13739,-0.00162506
0.179933,0.233344,-0.0574515,-0.0808624,0.256301,0.385976,0.13739,-0.00162506
0.0949203,0.268694,-0.0768168,-0.0712465,0.270484,0.371699,0.13739,-0.00162506
0.0601791,0.220898,-0.0917599,-0.0638252,0.264353,0.363823,0.13739,-0.00162506
-0.0470133,0.0727975,-0.101022,-0.0353664,0.267947,0.379401,0.13739,-0.00162506
-0.189227,0.0400519,-0.177349,-0.0407154,0.243586,0.345453,0.13739,-0.00162506
-0.299253,0.0965693,-0.235511,-0.0168442,0.212944,0.284154,0.13739,-0.00162506
-0.415614,0.124253,-0.159491,0.0482349,0.209063,0.242979,0.13739,-0.00162506
-0.537919,0.022646,0.0217082,0.108106,0.19687,0.213029,0.13739,-0.00162506
-0.645335,-0.0869622,0.179327,0.115726,0.161068,0.15773,0.13739,-0.00162506
-0.686629,-0.119514,0.284261,0.0746959,0.116185,0.0781932,0.13739,-0.00162506
-0.658983,-0.155859,0.355652,0.0468039,0.0587905,0.0223184,0.13739,-0.00162506
-0.593359,-0.131015,0.374925,0.0198824,0.00780043,-0.0158615,0.13739,-0.00162506
-0.529276,-0.0264696,0.276199,-0.0441476,-0.0554236,-0.0406396,0.13739,-0.00162506
-0.545539,0.0460352,0.138181,-0.0653843,-0.129315,-0.0228926,0.13739,-0.00162506
-0.565979,0.0449748,0.0119457,-0.0721329,-0.169754,-0.00641555,0.13739,-0.00162506
-0.538283,-0.0264891,-0.0804511,-0.0545549,-0.184829,-0.0124665,0.13739,-0.00162506
-0.483739,-0.0439363,-0.123199,-0.03089,-0.188094,-0.0365496,0.13739,-0.00162506
-0.410071,-0.0292464,-0.1223,-0.0065532,-0.187096,-0.0593473,0.13739,-0.00162506
-0.318448,-0.0577592,-0.102711,0.0171116,-0.1773,-0.0678879,0.13739,-0.00162506
-0.223329,-0.0811049,-0.069115,0.0343102,-0.159711,-0.0771868,0.13739,-0.00162506
-0.136849,-0.146222,-0.0288952,0.053577,-0.146164,-0.0760104,0.13739,-0.00162506
-0.0794828,-0.196472,0.0149277,0.0854793,-0.131676,-0.0748947,0.13739,-0.00162506
-0.114214,-0.197824,0.0479948,0.112318,-0.122334,-0.0761442,0.13739,-0.00162506
-0.269063,-0.0538746,0.0160964,0.122919,-0.136516,-0.118449,0.13739,-0.00162506
-0.396909,-0.0380876,0.0210426,0.14655,-0.136742,-0.193776,0.13739,-0.00162506
-0.380928,-0.41557,-0.0206789,0.18388,-0.1234,-0.275578,0.13739,-0.00162506
-0.265098,-0.756332,-0.0567632,0.211493,-0.0932688,-0.403982,0.13739,-0.00162506
-0.171186,-0.742279,-0.0552607,0.213138,-0.0476125,-0.521576,0.13739,-0.00162506
-0.071517,-0.295979,0.00584282,0.200403,0.0015692,-0.623348,0.13739,-0.00162506
-0.0041306,0.108906,0.116223,0.181115,0.040292,-0.61673,0.13739,-0.00162506
0.0348107,0.41446,0.0706439,0.110952,0.0164785,-0.545484,0.13739,-0.00162506
0.108761,0.436434,-0.064799,0.0168009,-0.00566077,-0.446829,0.13739,-0.00162506
0.432512,0.355438,-0.0591214,0.0100382,0.0284162,-0.37354,0.13739,-0.00162506
0.845918,0.510483,-0.00588233,-0.0273637,0.10631,-0.276991,0.13739,-0.00162506
1.02874,0.674833,0.040317,-0.0863532,0.155085,-0.0817629,0.13739,-0.00162506
1.02874,0.674833,0.040317,-0.0863532,0.155085,-0.0817629,0.137405,-0.00162506
0.944291,0.705478,-0.0112585,-0.160524,0.162775,0.121469,0.137405,-0.00162506
0.687698,0.634692,-0.199342,-0.254831,0.14867,0.276795,0.137405,-0.00162506
0.355031,0.463151,-0.392527,-0.274702,0.133209,0.369762,0.137405,-0.00162506
0.13922,0.199485,-0.446871,-0.226311,0.129679,0.385146,0.137405,-0.00162506
0.144659,-0.0433071,-0.415579,-0.171364,0.154545,0.333569,0.137405,-0.00162506
0.231899,-0.124325,-0.341206,-0.13521,0.176095,0.288714,0.137405,-0.00162506
0.274009,-0.101062,-0.215589,-0.10967,0.178441,0.290081,0.137405,-0.00162506
0.271851,-0.0871591,-0.0641125,-0.0796529,0.163489,0.320925,0.137405,-0.00162506
0.270024,-0.110524,0.111298,-0.0626967,0.145276,0.344425,0.137405,-0.00162506
0.289339,-0.141325,0.221165,-0.0793601,0.135245,0.341156,0.137405,-0.00162506
0.27015,-0.141498,0.183232,-0.130861,0.100333,0.339593,0.137405,-0.00162506
0.128077,-0.180633,0.0957851,-0.132019,0.066252,0.360457,0.137405,-0.00162506
-0.0949823,-0.187998,0.0281283,-0.088962,0.0464649,0.355364,0.137405,-0.00162506
-0.33413,-0.228655,0.0239695,-0.0265634,0.0425139,0.332723,0.137405,-0.00162506
-0.589468,-0.416467,0.019326,0.00044179,0.0438376,0.304086,0.137405,-0.00162506
-0.853635,-0.724106,0.00398675,0.0100904,0.0223637,0.234388,0.137405,-0.00162506
-0.983945,-1.0268,0.00560765,0.0205092,0.00435416,0.0940849,0.137405,-0.00162506
-0.953261,-0.975129,0.00155796,0.00202891,-0.00523263,-0.123297,0.137405,-0.00162506
-0.827306,-0.551416,0.0506769,-0.0114423,-0.0237092,-0.313414,0.137405,-0.00162506
-0.538607,-0.0652837,0.180808,-0.0136194,-0.047378,-0.421228,0.137405,-0.00162506
-0.122336,0.23191,0.283861,-0.0300995,-0.0868898,-0.419616,0.137405,-0.00162506
0.247854,0.363965,0.31077,-0.0794455,-0.133305,-0.294966,0.137405,-0.00162506
0.434576,0.425246,0.244357,-0.13539,-0.169148,-0.124525,0.137405,-0.00162506
0.415578,0.432751,0.10178,-0.172338,-0.201821,0.0410541,0.137405,-0.00162506
0.27102,0.380025,-0.108404,-0.209164,-0.21165,0.168095,0.137405,-0.00162506
0.100172,0.20179,-0.309643,-0.21073,-0.188278,0.245478,0.137405,-0.00162506
-0.0234641,-0.0744937,-0.423735,-0.147351,-0.154171,0.264068,0.137405,-0.00162506
-0.0985082,-0.212083,-0.421774,-0.0751599,-0.109161,0.217499,0.137405,-0.00162506
-0.164782,-0.163139,-0.399755,-0.0381548,-0.0739062,0.127321,0.137405,-0.00162506
-0.226709,-0.187302,-0.389272,0.0108039,-0.0825756,0.0439162,0.137405,-0.00162506
-0.174508,-0.197726,-0.330846,0.0872544,-0.0903174,-0.0644886,0.137405,-0.00162506
-0.0666388,-0.276146,-0.22106,0.153168,-0.0804919,-0.16239,0.137405,-0.00162506
0.0017708,-0.380664,-0.141656,0.189839,-0.0805991,-0.250437,0.137405,-0.00162506
-0.0308468,-0.384484,-0.118098,0.200404,-0.0840853,-0.340672,0.137405,-0.00162506
-0.0271779,-0.109702,-0.0269236,0.225074,-0.0705503,-0.461268,0.137405,-0.00162506
0.137572,0.285218,0.180607,0.246738,-0.0116047,-0.551691,0.137405,-0.00162506
0.341147,0.382187,0.413123,0.254829,0.0309551,-0.511266,0.137405,-0.00162506
0.338889,0.157766,0.47777,0.209603,0.0110772,-0.368996,0.137405,-0.00162506
0.0740947,0.0462826,0.34782,0.120777,-0.027263,-0.280699,0.137405,-0.00162506
-0.230683,0.233965,0.16336,0.0396343,-0.0371246,-0.304741,0.137405,-0.00162506
-0.270928,0.600257,0.103889,0.0378065,-0.00905105,-0.376136,0.137405,-0.00162506
-0.0718936,0.866287,0.17909,0.061445,0.0356145,-0.364026,0.137405,-0.00162506
0.203057,0.969246,0.321746,0.0606673,0.0611313,-0.258574,0.137405,-0.00162506
0.495894,0.926574,0.439907,0.0207636,0.0777007,-0.108004,0.137405,-0.00162506
0.697736,0.77273,0.481085,-0.0239782,0.075361,0.0438,0.137405,-0.00162506
0.727955,0.504994,0.472821,-0.0451978,0.067814,0.19334,0.137405,-0.00162506
0.629052,0.272466,0.443792,-0.0634251,0.0797262,0.288326,0.137405,-0.00162506
0.493045,0.229422,0.359075,-0.113323,0.103153,0.320496,0.137405,-0.00162506
0.367985,0.220527,0.222025,-0.17471,0.144244,0.326214,0.137405,-0.00162506
0.225632,0.234904,0.0644352,-0.211521,0.181416,0.330634,0.137405,-0.00162506
0.191443,0.119441,-0.00262149,-0.20055,0.218601,0.329819,0.137405,-0.00162506
0.257896,0.0904666,-0.00708791,-0.14514,0.250982,0.31283,0.137405,-0.00162506
0.18145,0.183799,0.0693514,-0.10427,0.288305,0.33645,0.137405,-0.00162506
0.044438,0.266738,0.208069,-0.0514247,0.270113,0.366979,0.137405,-0.00162506
0.044438,0.266738,0.208069,-0.0514247,0.270113,0.366979,0.058136,-0.000709534
-0.0120692,0.216363,0.278784,-0.024739,0.229754,0.380317,0.058136,-0.000709534
-0.0710705,0.0853076,0.342529,-0.00684077,0.21568,0.392236,0.058136,-0.000709534
-0.227302,-0.152343,0.399109,0.0213987,0.196677,0.413411,0.058136,-0.000709534
-0.522653,-0.415767,0.416978,0.0317059,0.17603,0.39744,0.058136,-0.000709534
-0.807467,-0.505965,0.450116,0.029247,0.152681,0.294713,0.058136,-0.000709534
-0.962379,-0.479458,0.432605,0.0290022,0.117028,0.145208,0.058136,-0.000709534
-1.01256,-0.412396,0.4404,0.0427586,0.0716138,0.00886786,0.058136,-0.000709534
-0.97168,-0.347019,0.443347,0.0523544,0.0178331,-0.103319,0.058136,-0.000709534
-0.80335,-0.280888,0.412214,0.055926,-0.0488717,-0.203709,0.058136,-0.000709534
-0.565299,-0.179409,0.424752,0.0726868,-0.097684,-0.259753,0.058136,-0.000709534
-0.403223,0.050096,0.472324,0.0876529,-0.118555,-0.252189,0.058136,-0.000709534
-0.317847,0.26383,0.488841,0.0565474,-0.130572,-0.193603,0.058136,-0.000709534
-0.263983,0.307946,0.448325,0.0235789,-0.145843,-0.0868673,0.058136,-0.000709534
-0.23677,0.280437,0.353442,-0.00317487,-0.150143,-0.00439405,0.058136,-0.000709534
-0.369849,0.257956,0.223117,-0.0226287,-0.140403,0.067404,0.058136,-0.000709534
-0.520127,0.265694,0.188774,0.00841725,-0.113058,0.0898208,0.058136,-0.000709534
-0.565862,0.229335,0.161968,0.0172434,-0.0746405,0.0689625,0.058136,-0.000709534
-0.534455,0.122733,0.151102,0.0458894,-0.0621626,0.0427753,0.058136,-0.000709534
-0.531193,0.032935,0.131892,0.0691703,-0.0586367,0.0143222,0.058136,-0.000709534
-0.615911,-0.108722,0.066105,0.0804069,-0.0638744,-0.00926858,0.058136,-0.000709534
-0.814227,-0.346499,-0.00596179,0.123656,-0.0608934,-0.039695,0.058136,-0.000709534
-1.05344,-0.509961,0.00313682,0.170016,-0.0384139,-0.125591,0.058136,-0.000709534
-1.25059,-0.553598,0.142429,0.214206,-0.00650713,-0.265411,0.058136,-0.000709534
-1.18323,-0.337785,0.432907,0.237586,0.0143288,-0.445064,0.058136,-0.000709534
-0.798654,-0.0881853,0.689086,0.189846,0.0125788,-0.582869,0.058136,-0.000709534
-0.312605,-0.088234,0.717436,0.07957,-0.06766,-0.593798,0.058136,-0.000709534
-0.0646867,-0.206622,0.501122,0.0127296,-0.193133,-0.476302,0.058136,-0.000709534
-0.160653,-0.245018,0.212843,-0.0221607,-0.237233,-0.338429,0.058136,-0.000709534
-0.292273,-0.125942,0.083934,0.0110529,-0.20162,-0.282413,0.058136,-0.000709534
-0.144902,0.0730145,0.155031,0.0659416,-0.111923,-0.309559,0.058136,-0.000709534
0.259996,0.219396,0.338124,0.0962409,-0.0551542,-0.327382,0.058136,-0.000709534
0.710317,0.226657,0.486725,0.0651857,-0.027915,-0.265933,0.058136,-0.000709534
1.10761,0.16593,0.535294,0.0136216,-0.0224507,-0.169136,0.058136,-0.000709534
1.30759,0.0356626,0.538781,-0.0267964,0.017119,-0.0486112,0.058136,-0.000709534
1.31254,-0.0239235,0.523531,-0.0479232,0.0602195,0.0502663,0.058136,-0.000709534
1.24538,0.0385556,0.487555,-0.0699193,0.105487,0.0989343,0.058136,-0.000709534
1.19987,0.155377,0.382053,-0.123687,0.162552,0.119583,0.058136,-0.000709534
1.17236,0.225995,0.249785,-0.156553,0.209719,0.159563,0.058136,-0.000709534
1.14392,0.338624,0.131105,-0.157274,0.244782,0.214628,0.058136,-0.000709534
1.01851,0.366534,0.0982547,-0.117996,0.268688,0.306539,0.058136,-0.000709534
0.821456,0.36794,0.179131,-0.0693322,0.289293,0.392174,0.058136,-0.000709534
0.594135,0.249185,0.297246,-0.0254195,0.281662,0.458241,0.058136,-0.000709534
0.355498,0.071013,0.351785,-0.0129759,0.249346,0.491546,0.058136,-0.000709534
0.0925295,-0.107095,0.307083,-0.0127307,0.212791,0.490902,0.058136,-0.000709534
-0.205861,-0.196618,0.230544,0.00202775,0.18542,0.460435,0.058136,-0.000709534
-0.474582,-0.160322,0.260218,0.0440655,0.198602,0.392707,0.058136,-0.000709534
-0.655031,-0.122692,0.376695,0.0828483,0.211751,0.317464,0.058136,-0.000709534
-0.733924,-0.132989,0.511088,0.102065,0.199961,0.245665,0.058136,-0.000709534
-0.773839,-0.166848,0.606036,0.0864161,0.178666,0.179397,0.058136,-0.000709534
-0.776307,-0.261448,0.650098,0.05818,0.15033,0.121263,0.058136,-0.000709534
-0.741426,-0.409237,0.687982,0.0554152,0.11519,0.0586162,0.058136,-0.000709534
-0.699524,-0.395838,0.747002,0.0495357,0.0920168,-0.0348854,0.058136,-0.000709534
-0.661162,-0.233623,0.837959,0.0344813,0.0657116,-0.119553,0.058136,-0.000709534
-0.661162,-0.233623,0.837959,0.0344813,0.0657116,-0.119553,0.198166,-0.00231934
-0.622732,-0.0498282,0.91757,0.0039347,0.0343918,-0.17173,0.198166,-0.00231934
-0.573255,0.0272941,0.947776,-0.0324579,-0.015596,-0.187043,0.198166,-0.00231934
-0.476233,0.0565402,0.954737,-0.0694465,-0.0689128,-0.199029,0.198166,-0.00231934
-0.332866,0.0952767,0.949721,-0.107933,-0.106351,-0.197326,0.198166,-0.00231934
-0.206398,0.133698,0.918459,-0.150018,-0.133345,-0.161258,0.198166,-0.00231934
-0.132612,0.181134,0.814732,-0.1989,-0.165274,-0.107469,0.198166,-0.00231934
-0.0550462,0.236931,0.643527,-0.244137,-0.188114,-0.055003,0.198166,-0.00231934
0.0207804,0.203418,0.444457,-0.251376,-0.199047,0.0122442,0.198166,-0.00231934
0.0474241,0.0929648,0.250813,-0.230621,-0.195683,0.0784135,0.198166,-0.00231934
-0.0155646,0.00886943,0.0715825,-0.190463,-0.183955,0.135782,0.198166,-0.00231934
-0.16371,-0.0400822,-0.0682849,-0.14332,-0.162382,0.168547,0.198166,-0.00231934
-0.220925,-0.0404327,-0.142725,-0.0907203,-0.125368,0.131168,0.198166,-0.00231934
-0.161654,-0.0289196,-0.128934,-0.0240289,-0.0791153,0.0689045,0.198166,-0.00231934
-0.0861728,-0.00555526,-0.0674339,0.0286558,-0.0511185,0.0258776,0.198166,-0.00231934
-0.0175153,-0.00515531,-0.00469123,0.0596101,-0.0364766,0.00069046,0.198166,-0.00231934
0.0101358,0.0201376,0.0345552,0.088847,-0.0453036,-0.0198489,0.198166,-0.00231934
0.0272124,0.0914072,0.096844,0.115016,-0.0539167,-0.0481439,0.198166,-0.00231934
0.0584982,0.15797,0.157147,0.135505,-0.0510319,-0.0734712,0.198166,-0.00231934
0.0933836,0.214063,0.214201,0.142203,-0.0425376,-0.0963052,0.198166,-0.00231934
0.146728,0.265678,0.241958,0.125455,-0.0235687,-0.121399,0.198166,-0.00231934
0.201151,0.404007,0.31141,0.136436,-0.0035087,-0.133937,0.198166,-0.00231934
0.235973,0.58597,0.453162,0.135465,0.0244725,-0.128312,0.198166,-0.00231934
0.310522,0.681245,0.5719,0.115962,0.0210495,-0.106754,0.198166,-0.00231934
0.398084,0.626489,0.596199,0.0838409,-0.0137488,-0.0613176,0.198166,-0.00231934
0.373022,0.488125,0.538782,0.0768588,-0.0533719,0.00174367,0.198166,-0.00231934
0.119227,0.279275,0.401632,0.068769,-0.0567861,0.060211,0.198166,-0.00231934
-0.229939,0.20616,0.336147,0.0818813,-0.0374828,0.0391983,0.198166,-0.00231934
-0.320993,0.351548,0.38386,0.0881674,0.0179065,-0.101282,0.198166,-0.00231934
-0.0443355,0.582078,0.520026,0.0834039,0.0670547,-0.228638,0.198166,-0.00231934
0.331248,0.691533,0.668892,0.0578559,0.100966,-0.225514,0.198166,-0.00231934
0.446572,0.618431,0.720993,0.0239813,0.0851814,-0.0877385,0.198166,-0.00231934
0.324841,0.587521,0.713381,-0.0143815,0.0568587,0.0351593,0.198166,-0.00231934
0.173521,0.638087,0.70752,-0.0439491,0.051782,0.0922573,0.198166,-0.00231934
0.161056,0.646426,0.729389,-0.0518672,0.0579797,0.116389,0.198166,-0.00231934
0.189155,0.496438,0.711234,-0.0720617,0.0668926,0.151359,0.198166,-0.00231934
0.0929136,0.247417,0.673068,-0.0747502,0.0544181,0.20492,0.198166,-0.00231934
-0.133535,0.0446179,0.587259,-0.067522,0.0228336,0.220661,0.198166,-0.00231934
-0.26025,0.157265,0.491038,-0.0515028,-0.0202616,0.129865,0.198166,-0.00231934
-0.20854,0.425212,0.386244,-0.0299785,-0.0334601,0.0387083,0.198166,-0.00231934
-0.115567,0.434253,0.316677,0.0278286,-0.0326105,0.0451469,0.198166,-0.00231934
-0.148553,0.227818,0.280974,0.0921662,-0.0189909,0.0901119,0.198166,-0.00231934
-0.221301,0.164599,0.288795,0.150571,0.00694418,0.0809597,0.198166,-0.00231934
-0.288086,0.276586,0.321561,0.180735,0.0524943,0.0409629,0.198166,-0.00231934
-0.332483,0.391777,0.326869,0.163554,0.0947206,0.0273232,0.198166,-0.00231934
-0.42732,0.339646,0.426346,0.201793,0.143455,0.0657932,0.198166,-0.00231934
-0.561354,0.355694,0.67639,0.237227,0.201341,0.0834283,0.198166,-0.00231934
-0.615585,0.502549,0.974383,0.236721,0.234184,0.0733404,0.198166,-0.00231934
-0.701403,0.50646,1.1437,0.18361,0.239679,0.110099,0.198166,-0.00231934
-0.748656,0.452053,1.19182,0.124592,0.188297,0.134566,0.198166,-0.00231934
-0.782362,0.3829,1.18825,0.106837,0.152049,0.151288,0.198166,-0.00231934
-0.907766,0.2909,1.21205,0.11094,0.143287,0.18437,0.198166,-0.00231934
-1.06824,0.220728,1.2477,0.130047,0.119262,0.189657,0.198166,-0.00231934
-1.13468,0.226697,1.22585,0.107987,0.089346,0.126393,0.198166,-0.00231934
-1.14096,0.240997,1.16009,0.0846393,0.0745129,0.0639668,0.198166,-0.00231934
-1.14096,0.240997,1.16009,0.0846393,0.0745129,0.0639668,0.190247,-0.00226593
-1.19813,0.177653,1.09961,0.0909428,0.063264,0.0483852,0.190247,-0.00226593
-1.2713,0.064049,1.08333,0.111201,0.0580192,0.0205078,0.190247,-0.00226593
-1.30877,0.00401965,1.14781,0.126307,0.0749694,-0.04426,0.190247,-0.00226593
-1.2083,0.0833737,1.28963,0.12663,0.0774018,-0.126437,0.190247,-0.00226593
-0.956859,0.230195,1.42969,0.094928,0.067286,-0.194383,0.190247,-0.00226593
-0.675733,0.290392,1.50812,0.0559027,0.0243306,-0.188785,0.190247,-0.00226593
-0.512602,0.237749,1.52016,0.0124566,-0.0226485,-0.108417,0.190247,-0.00226593
-0.498269,0.149222,1.4898,-0.0225734,-0.0579582,-0.0223687,0.190247,-0.00226593
-0.509323,0.0978249,1.42099,-0.0451783,-0.0923809,0.00848752,0.190247,-0.00226593
-0.506764,0.0578271,1.29516,-0.0695057,-0.116241,0.00493026,0.190247,-0.00226593
-0.438921,0.0126007,1.14387,-0.0716742,-0.140288,-0.0325617,0.190247,-0.00226593
-0.299469,-0.0412439,1.0026,-0.0507404,-0.141715,-0.0647449,0.190247,-0.00226593
-0.183532,-0.0755699,0.929496,-0.00478345,-0.1285,-0.0735116,0.190247,-0.00226593
-0.107369,-0.0516031,0.914355,0.0474251,-0.108596,-0.0724444,0.190247,-0.00226593
-0.0672661,-0.0673818,0.885361,0.0710519,-0.101754,-0.0734668,0.190247,-0.00226593
-0.0552299,-0.148665,0.831298,0.0825674,-0.0992886,-0.083976,0.190247,-0.00226593
-0.0415537,-0.193376,0.782701,0.0807,-0.0719986,-0.118257,0.190247,-0.00226593
-0.0478443,-0.225179,0.755937,0.0868696,-0.0318576,-0.155129,0.190247,-0.00226593
-0.0696338,-0.277091,0.750532,0.0992123,-0.00326087,-0.18103,0.190247,-0.00226593
-0.0989298,-0.279955,0.725281,0.0889106,0.0379621,-0.209948,0.190247,-0.00226593
-0.0723036,-0.111548,0.753658,0.0741481,0.0868977,-0.235175,0.190247,-0.00226593
0.0879264,0.135957,0.884856,0.0868592,0.111124,-0.23035,0.190247,-0.00226593
0.310391,0.194773,1.02251,0.104546,0.0912459,-0.138095,0.190247,-0.00226593
0.531775,0.0904068,1.0893,0.096484,0.0345672,-0.0154662,0.190247,-0.00226593
0.764165,-0.181745,1.12171,0.063914,0.0212706,0.0822496,0.190247,-0.00226593
0.96623,-0.438204,1.05461,0.0100453,0.0514608,0.154102,0.190247,-0.00226593
0.980001,-0.442258,0.940524,-0.032793,0.0961244,0.216742,0.190247,-0.00226593
0.792514,-0.271091,0.867962,-0.0188493,0.134316,0.282234,0.190247,-0.00226593
0.424478,-0.0628799,0.773918,-0.00471275,0.164753,0.344006,0.190247,-0.00226593
-0.141153,0.09918,0.626442,-0.00267774,0.180331,0.379249,0.190247,-0.00226593
-0.72207,-0.0246664,0.553416,0.0225271,0.198144,0.368939,0.190247,-0.00226593
-1.1033,-0.342646,0.540144,0.0772316,0.221514,0.246411,0.190247,-0.00226593
-1.2255,-0.572476,0.58135,0.105054,0.240377,0.0533681,0.190247,-0.00226593
-1.05962,-0.476719,0.723934,0.118581,0.265709,-0.172146,0.190247,-0.00226593
-0.796786,-0.242892,1.01623,0.14876,0.286756,-0.296651,0.190247,-0.00226593
-0.455557,0.0587203,1.36463,0.161996,0.253889,-0.32824,0.190247,-0.00226593
-0.139729,0.291156,1.5892,0.0880202,0.202605,-0.273558,0.190247,-0.00226593
-0.0063059,0.358573,1.64583,-0.00256293,0.118034,-0.116991,0.190247,-0.00226593
-0.0903831,0.351414,1.57333,-0.0812014,0.0325081,0.0208445,0.190247,-0.00226593
-0.293358,0.334823,1.38935,-0.151861,-0.0261295,0.114692,0.190247,-0.00226593
-0.467807,0.303476,1.17704,-0.192392,-0.0701582,0.147083,0.190247,-0.00226593
-0.56604,0.187186,0.975234,-0.198459,-0.0783706,0.150458,0.190247,-0.00226593
-0.559522,0.11864,0.851544,-0.176712,-0.071651,0.109578,0.190247,-0.00226593
-0.473152,0.0949786,0.754541,-0.158873,-0.0598103,0.0535378,0.190247,-0.00226593
-0.338237,0.0988658,0.733513,-0.113313,-0.0402457,0.0118958,0.190247,-0.00226593
-0.219332,0.153634,0.751513,-0.0727241,-0.0116018,0.0075736,0.190247,-0.00226593
-0.28293,0.0466672,0.713578,-0.0629818,-0.00241907,0.0739828,0.190247,-0.00226593
-0.438531,-0.0673519,0.648119,-0.0431482,-0.015867,0.0982036,0.190247,-0.00226593
-0.547965,-0.0379152,0.606063,-0.0274478,0.00571036,0.0476103,0.190247,-0.00226593
-0.565598,0.0506511,0.618753,0.00235388,0.0123643,-0.0260574,0.190247,-0.00226593
-0.437851,0.126619,0.675388,0.041021,-0.00719163,-0.0836158,0.190247,-0.00226593
-0.213206,0.202739,0.730784,0.0649428,-0.0347791,-0.106376,0.190247,-0.00226593
-0.08972,0.266934,0.739681,0.0684329,-0.074974,-0.0630432,0.190247,-0.00226593
-0.119929,0.325801,0.738074,0.0741094,-0.114974,0.0186951,0.190247,-0.00226593
-0.119929,0.325801,0.738074,0.0741094,-0.114974,0.0186951,0.163834,-0.00192261
-0.216906,0.373028,0.759385,0.0843464,-0.125023,0.0832762,0.163834,-0.00192261
-0.329178,0.349386,0.756452,0.0715066,-0.129175,0.12054,0.163834,-0.00192261
-0.487884,0.243416,0.704703,0.0487123,-0.139795,0.131868,0.163834,-0.00192261
-0.642458,0.214965,0.620689,0.0314412,-0.139494,0.102244,0.163834,-0.00192261
-0.62089,0.350143,0.686486,0.0753777,-0.100618,0.0238753,0.163834,-0.00192261
-0.504746,0.459236,0.858698,0.120171,-0.048433,0.000847042,0.163834,-0.00192261
-0.414675,0.394578,0.96224,0.126721,-0.0699989,0.0284132,0.163834,-0.00192261
-0.407311,0.334534,0.89271,0.0867089,-0.111595,0.0378625,0.163834,-0.00192261
-0.444182,0.464728,0.803665,0.0715774,-0.110389,0.0103666,0.163834,-0.00192261
-0.493136,0.63083,0.779572,0.0840503,-0.0833886,-0.0167611,0.163834,-0.00192261
-0.560301,0.634441,0.797921,0.104081,-0.0665296,-0.0297908,0.163834,-0.00192261
-0.607233,0.648402,0.844475,0.0998615,-0.0458614,-0.080052,0.163834,-0.00192261
-0.623626,0.520435,0.874128,0.0455395,-0.0180309,-0.139161,0.163834,-0.00192261
-0.554155,0.234745,0.93306,0.0183762,-0.0109696,-0.197012,0.163834,-0.00192261
-0.451193,0.0141744,0.954363,-0.0297005,-0.013336,-0.28189,0.163834,-0.00192261
-0.38495,-0.0458324,0.92502,-0.0859842,-0.0528592,-0.369183,0.163834,-0.00192261
-0.392275,-0.00982729,0.80665,-0.124812,-0.118014,-0.430793,0.163834,-0.00192261
-0.437233,0.0335748,0.65228,-0.145657,-0.152682,-0.473312,0.163834,-0.00192261
-0.390499,0.0614255,0.470365,-0.153654,-0.158782,-0.523988,0.163834,-0.00192261
-0.18105,0.177215,0.24151,-0.147601,-0.150779,-0.582165,0.163834,-0.00192261
0.124773,0.368154,0.0894443,-0.10868,-0.102661,-0.586783,0.163834,-0.00192261
0.388042,0.468804,0.0582002,-0.044291,-0.0336608,-0.481681,0.163834,-0.00192261
0.546002,0.436814,0.0672771,0.00346205,0.00637843,-0.333608,0.163834,-0.00192261
0.810556,0.258825,0.0747464,0.0101954,0.0510058,-0.221978,0.163834,-0.00192261
1.18367,0.178075,0.0486258,0.0318548,0.084953,-0.139774,0.163834,-0.00192261
1.41104,0.281095,0.0881481,0.0634789,0.144127,-0.00900704,0.163834,-0.00192261
1.3506,0.454995,0.177241,0.0993906,0.184157,0.158718,0.163834,-0.00192261
1.01147,0.525174,0.238045,0.115263,0.201382,0.313222,0.163834,-0.00192261
0.587368,0.468441,0.257914,0.107068,0.193675,0.389138,0.163834,-0.00192261
0.401295,0.380507,0.26412,0.0900734,0.194368,0.360777,0.163834,-0.00192261
0.475009,0.339889,0.262595,0.0762671,0.233922,0.300037,0.163834,-0.00192261
0.529282,0.273896,0.294398,0.0917852,0.270956,0.30963,0.163834,-0.00192261
0.346037,0.0929037,0.337854,0.123231,0.278602,0.382867,0.163834,-0.00192261
0.0475837,-0.00374223,0.366262,0.155358,0.246789,0.392687,0.163834,-0.00192261
-0.270941,0.00970835,0.367985,0.165218,0.23541,0.356472,0.163834,-0.00192261
-0.436708,0.162456,0.397177,0.174846,0.23904,0.259225,0.163834,-0.00192261
-0.523174,0.378808,0.456981,0.195643,0.235826,0.193704,0.163834,-0.00192261
-0.600527,0.433942,0.569559,0.228564,0.227652,0.178145,0.163834,-0.00192261
-0.695727,0.195596,0.700578,0.243131,0.214466,0.179345,0.163834,-0.00192261
-0.680714,-0.141404,0.899141,0.256283,0.199031,0.118958,0.163834,-0.00192261
-0.589367,-0.300654,1.05723,0.219333,0.198453,0.020577,0.163834,-0.00192261
-0.550643,-0.107317,1.15937,0.140119,0.181932,-0.0570743,0.163834,-0.00192261
-0.596735,0.084405,1.24881,0.079134,0.160091,-0.0663557,0.163834,-0.00192261
-0.613676,0.137594,1.33337,0.047751,0.1151,-0.0458962,0.163834,-0.00192261
-0.567908,0.0901996,1.40937,0.00353205,0.0777275,-0.0226678,0.163834,-0.00192261
-0.466061,0.0638692,1.4112,-0.0670381,0.0338904,-0.0146098,0.163834,-0.00192261
-0.39469,0.0703235,1.26377,-0.149536,-0.0229011,0.00231576,0.163834,-0.00192261
-0.318872,0.113837,1.06858,-0.170299,-0.0837216,0.0114325,0.163834,-0.00192261
-0.269141,0.109947,0.864157,-0.165277,-0.107069,0.0349628,0.163834,-0.00192261
-0.279747,0.0862034,0.688269,-0.125418,-0.1225,0.0689462,0.163834,-0.00192261
-0.333357,-0.0134546,0.550058,-0.0707869,-0.128538,0.0891036,0.163834,-0.00192261
-0.365636,-0.0957647,0.421114,-0.0342363,-0.123112,0.0599585,0.163834,-0.00192261
-0.362491,-0.134069,0.297401,-0.0131847,-0.104863,0.00423533,0.163834,-0.00192261
-0.343326,-0.200651,0.198,0.0369686,-0.100642,-0.0475931,0.163834,-0.00192261
-0.343326,-0.200651,0.198,0.0369686,-0.100642,-0.0475931,0.126831,-0.00152588
-0.313998,-0.16095,0.118517,0.0829125,-0.0892059,-0.118828,0.126831,-0.00152588
-0.411701,0.0737959,0.0184001,0.10759,-0.0592108,-0.170625,0.126831,-0.00152588
-0.702655,0.287373,-0.0367122,0.155169,-0.0509075,-0.191503,0.126831,-0.00152588
-0.93088,0.207832,-0.0126447,0.22223,-0.0129868,-0.231829,0.126831,-0.00152588
-0.894321,-0.0597726,0.120153,0.279701,0.0327771,-0.348835,0.126831,-0.00152588
-0.60879,-0.2401,0.340151,0.291048,0.104475,-0.495336,0.126831,-0.00152588
-0.172324,-0.17564,0.538467,0.23551,0.154973,-0.589262,0.126831,-0.00152588
0.220989,0.157291,0.725333,0.191472,0.167668,-0.581146,0.126831,-0.00152588
0.452901,0.583921,0.932582,0.143276,0.187684,-0.452765,0.126831,-0.00152588
0.559091,0.918574,1.06998,0.0603514,0.197203,-0.254958,0.126831,-0.00152588
0.583808,1.21458,1.08605,-0.0362539,0.179728,-0.100858,0.126831,-0.00152588
0.503847,1.22258,0.996496,-0.165433,0.166921,0.0526114,0.126831,-0.00152588
0.400304,0.867144,0.731605,-0.257373,0.124959,0.176334,0.126831,-0.00152588
0.278904,0.344834,0.401901,-0.276552,0.0927437,0.240575,0.126831,-0.00152588
0.0742991,0.133264,0.215035,-0.214165,0.101481,0.24215,0.126831,-0.00152588
-0.139199,0.216834,0.241782,-0.172966,0.171767,0.190595,0.126831,-0.00152588
-0.29577,0.200817,0.40052,-0.151405,0.211638,0.157018,0.126831,-0.00152588
-0.262116,0.0903015,0.627509,-0.125786,0.204107,0.115834,0.126831,-0.00152588
-0.113126,-0.00573991,0.810003,-0.158317,0.209207,0.0856016,0.126831,-0.00152588
0.025679,0.0632016,0.879709,-0.230331,0.173076,0.0740501,0.126831,-0.00152588
0.0148143,0.0370187,0.838531,-0.288586,0.121368,0.139755,0.126831,-0.00152588
-0.0444535,-0.0274366,0.745366,-0.290186,0.0458126,0.203921,0.126831,-0.00152588
-0.0283431,-0.0464735,0.69689,-0.267844,-0.00443822,0.220588,0.126831,-0.00152588
0.0210185,-0.0135285,0.686416,-0.262252,-0.0255672,0.233127,0.126831,-0.00152588
0.0472768,-0.0886748,0.608897,-0.266902,-0.0561966,0.270347,0.126831,-0.00152588
-0.0579524,-0.3552,0.415103,-0.268722,-0.0837025,0.322089,0.126831,-0.00152588
-0.207951,-0.640772,0.205641,-0.238575,-0.103344,0.321706,0.126831,-0.00152588
-0.428648,-0.820688,0.0302585,-0.18819,-0.0712499,0.277948,0.126831,-0.00152588
-0.713508,-0.80978,-0.119956,-0.14956,-0.0459258,0.187554,0.126831,-0.00152588
-0.878521,-0.66602,-0.228515,-0.0951095,-0.0369959,0.0572522,0.126831,-0.00152588
-0.810645,-0.462185,-0.219329,-0.0369296,0.00893877,-0.0828083,0.126831,-0.00152588
-0.604037,-0.309259,-0.0628137,0.023736,0.0492249,-0.151916,0.126831,-0.00152588
-0.375119,-0.181621,0.124347,0.0595346,0.0444214,-0.163583,0.126831,-0.00152588
-0.226676,-0.0595813,0.242245,0.0386161,0.00414345,-0.132722,0.126831,-0.00152588
-0.172815,0.0232857,0.29706,0.00240415,-0.0415718,-0.0676855,0.126831,-0.00152588
-0.197525,0.0681533,0.300011,-0.0346519,-0.0806951,-0.0108663,0.126831,-0.00152588
-0.259274,0.0494256,0.262956,-0.0683442,-0.111965,0.016652,0.126831,-0.00152588
-0.296484,0.00576777,0.180033,-0.0954939,-0.152739,0.00338137,0.126831,-0.00152588
-0.26521,0.00551781,0.0719403,-0.12165,-0.172353,-0.050059,0.126831,-0.00152588
-0.229145,0.0135128,-0.0486152,-0.130729,-0.178899,-0.0951061,0.126831,-0.00152588
-0.253172,-0.00417764,-0.125774,-0.113552,-0.182875,-0.130605,0.126831,-0.00152588
-0.247436,-0.0925705,-0.137857,-0.076406,-0.176709,-0.188723,0.126831,-0.00152588
-0.164093,-0.163875,-0.117322,-0.0365948,-0.166177,-0.280742,0.126831,-0.00152588
-0.0908451,-0.194422,-0.0715023,-0.00928736,-0.154766,-0.356815,0.126831,-0.00152588
-0.000446917,-0.159698,0.00960854,0.0079309,-0.144278,-0.430145,0.126831,-0.00152588
0.166875,-0.0618064,0.0345208,0.0112538,-0.149311,-0.503397,0.126831,-0.00152588
0.314588,0.0163861,-0.040507,-0.00216007,-0.16245,-0.533832,0.126831,-0.00152588
0.317338,0.0230862,-0.141591,0.00212538,-0.179078,-0.494892,0.126831,-0.00152588
0.364024,0.223663,-0.257065,-0.00186683,-0.1684,-0.49386,0.126831,-0.00152588
0.46102,0.390632,-0.327216,-0.0130343,-0.100135,-0.451831,0.126831,-0.00152588
0.65338,0.549047,-0.254549,0.0149281,-0.0402622,-0.375203,0.126831,-0.00152588
0.974946,0.674926,-0.161109,-0.0071522,0.0383599,-0.267581,0.126831,-0.00152588
1.30992,0.644197,-0.0331457,-0.0224648,0.102395,-0.0971728,0.126831,-0.00152588
1.54932,0.545476,0.0561168,-0.0318161,0.143958,0.085272,0.126831,-0.00152588
1.54932,0.545476,0.0561168,-0.0318161,0.143958,0.085272,0.100403,-0.00117493
1.58262,0.47336,0.0762251,-0.0416405,0.159196,0.262107,0.100403,-0.00117493
1.36962,0.4223,0.04384,-0.0465634,0.16486,0.41036,0.100403,-0.00117493
1.02732,0.223108,-0.0277574,-0.0464502,0.180305,0.51494,0.100403,-0.00117493
0.62914,-0.137486,-0.163822,-0.0356902,0.185271,0.557812,0.100403,-0.00117493
0.208152,-0.295247,-0.353902,-0.0427695,0.182863,0.515041,0.100403,-0.00117493
-0.151116,-0.233323,-0.58458,-0.0559957,0.194642,0.398645,0.100403,-0.00117493
-0.400977,-0.132399,-0.746704,-0.0180219,0.215938,0.305767,0.100403,-0.00117493
-0.46483,-0.0148964,-0.722607,0.0602594,0.25516,0.203195,0.100403,-0.00117493
-0.325681,0.146239,-0.497925,0.152769,0.291187,0.10768,0.100403,-0.00117493
-0.0727212,0.435719,-0.201685,0.178912,0.302406,0.0400501,0.100403,-0.00117493
0.0982792,0.611187,0.01651,0.153979,0.289609,0.0634611,0.100403,-0.00117493
0.112137,0.49368,0.076221,0.107329,0.220103,0.156007,0.100403,-0.00117493
0.0723199,0.367557,0.0580026,0.081838,0.169238,0.204246,0.100403,-0.00117493
-0.0737208,0.349876,0.0351127,0.050144,0.17763,0.229509,0.100403,-0.00117493
-0.313277,0.323359,0.122522,0.0810688,0.166883,0.255734,0.100403,-0.00117493
-0.583185,0.225878,0.230239,0.0923566,0.160108,0.27214,0.100403,-0.00117493
-0.808281,0.0492293,0.314643,0.0785431,0.128239,0.245144,0.100403,-0.00117493
-0.887944,-0.106161,0.331205,0.0407699,0.0802955,0.164008,0.100403,-0.00117493
-0.870858,-0.123906,0.313661,0.0183559,0.0259747,0.0696927,0.100403,-0.00117493
-0.865544,-0.0938833,0.330159,0.018179,-0.0228393,0.0121039,0.100403,-0.00117493
-0.858134,-0.016491,0.324192,0.00709379,-0.0747131,-0.0403252,0.100403,-0.00117493
-0.784674,0.116275,0.302177,-0.0100113,-0.117704,-0.101748,0.100403,-0.00117493
-0.665312,0.215619,0.297747,-0.0248202,-0.131235,-0.127971,0.100403,-0.00117493
-0.571464,0.198925,0.308483,-0.0329824,-0.14821,-0.0979059,0.100403,-0.00117493
-0.515637,0.117181,0.302044,-0.0417587,-0.18166,-0.0613227,0.100403,-0.00117493
-0.476749,0.021962,0.278387,-0.056279,-0.20233,-0.0501326,0.100403,-0.00117493
-0.447012,-0.04782,0.255401,-0.0565422,-0.212413,-0.0680292,0.100403,-0.00117493
-0.462172,-0.224831,0.225016,-0.0522234,-0.210864,-0.075552,0.100403,-0.00117493
-0.489482,-0.362123,0.113038,-0.0470537,-0.230103,-0.122273,0.100403,-0.00117493
-0.468882,-0.450335,0.00099943,-0.0223819,-0.222644,-0.207184,0.100403,-0.00117493
-0.399028,-0.523158,-0.0465142,0.0376563,-0.183908,-0.291763,0.100403,-0.00117493
-0.313011,-0.475024,-0.101688,0.0741649,-0.132168,-0.364422,0.100403,-0.00117493
-0.269513,-0.282182,-0.147636,0.117318,-0.120702,-0.420667,0.100403,-0.00117493
-0.23604,-0.0966092,-0.155382,0.158661,-0.0720422,-0.442419,0.100403,-0.00117493
-0.182181,-0.0544703,-0.130519,0.204941,-0.0469191,-0.440709,0.100403,-0.00117493
-0.128113,-0.191329,-0.148261,0.1988,-0.00576704,-0.417067,0.100403,-0.00117493
-0.0193235,-0.32386,-0.192962,0.159289,0.0308129,-0.431793,0.100403,-0.00117493
0.203132,-0.34696,-0.169742,0.133614,0.0946866,-0.456897,0.100403,-0.00117493
0.517402,0.0394475,-0.0184934,0.118117,0.141078,-0.463683,0.100403,-0.00117493
0.871296,0.552984,0.231351,0.0891958,0.166444,-0.374208,0.100403,-0.00117493
1.16205,0.901022,0.364637,0.00401491,0.141065,-0.187661,0.100403,-0.00117493
1.32072,0.983689,0.296173,-0.107872,0.124406,0.0265658,0.100403,-0.00117493
1.20152,0.665064,0.07472,-0.205884,0.140041,0.258215,0.100403,-0.00117493
0.742737,0.27321,-0.251472,-0.24769,0.141976,0.4195,0.100403,-0.00117493
0.192775,0.0837907,-0.423527,-0.2234,0.147508,0.458051,0.100403,-0.00117493
0.00463427,0.0584195,-0.378433,-0.143437,0.197627,0.357589,0.100403,-0.00117493
0.127683,0.0328903,-0.207988,-0.0801815,0.241756,0.274071,0.100403,-0.00117493
0.298429,-0.135051,0.0291599,-0.0377279,0.229529,0.283567,0.100403,-0.00117493
0.328794,-0.346967,0.165699,-0.0511463,0.179708,0.325514,0.100403,-0.00117493
0.241492,-0.373026,0.190164,-0.0967724,0.127745,0.329313,0.100403,-0.00117493
0.122834,-0.274228,0.201306,-0.122996,0.0997316,0.299862,0.100403,-0.00117493
0.0458991,-0.178479,0.215876,-0.135304,0.0879252,0.258121,0.100403,-0.00117493
0.083396,-0.187551,0.258075,-0.12521,0.0722408,0.214268,0.100403,-0.00117493
0.083396,-0.187551,0.258075,-0.12521,0.0722408,0.214268,0.0924835,-0.00108337
0.171628,-0.312065,0.259393,-0.118124,0.0493486,0.189046,0.0924835,-0.00108337
0.189771,-0.411666,0.174148,-0.133981,0.0186516,0.172001,0.0924835,-0.00108337
0.0339548,-0.415507,-0.00814482,-0.152493,-0.0205993,0.166438,0.0924835,-0.00108337
-0.237596,-0.353276,-0.153417,-0.123338,-0.0500738,0.14566,0.0924835,-0.00108337
-0.452655,-0.316664,-0.246497,-0.0927517,-0.0597619,0.0958507,0.0924835,-0.00108337
-0.52523,-0.377311,-0.208678,-0.0227553,-0.0599543,0.0313284,0.0924835,-0.00108337
-0.504608,-0.390647,-0.107456,0.00460374,-0.0558105,-0.0382758,0.0924835,-0.00108337
-0.409422,-0.356541,-0.140606,-0.0423388,-0.0945048,-0.0987349,0.0924835,-0.00108337
-0.294436,-0.229427,-0.293045,-0.0964831,-0.144094,-0.135131,0.0924835,-0.00108337
-0.155979,-0.00565857,-0.434671,-0.103942,-0.165252,-0.139513,0.0924835,-0.00108337
-0.0625724,0.162927,-0.489764,-0.0667042,-0.154754,-0.0768884,0.0924835,-0.00108337
-0.0244324,0.194092,-0.496667,-0.0305286,-0.143671,0.00802404,0.0924835,-0.00108337
0.0294931,0.109261,-0.516066,-0.0088774,-0.13864,0.0525652,0.0924835,-0.00108337
0.0291122,-0.00124847,-0.469491,0.0277814,-0.118214,0.0868231,0.0924835,-0.00108337
-0.0148064,-0.0390803,-0.363516,0.0577018,-0.0824022,0.0889576,0.0924835,-0.00108337
-0.0507796,0.0242168,-0.284374,0.0571227,-0.0837711,0.0422191,0.0924835,-0.00108337
-0.0695966,0.0259041,-0.268868,0.0509196,-0.104872,-0.00206041,0.0924835,-0.00108337
-0.0984854,-0.147438,-0.227445,0.0863648,-0.117119,-0.032534,0.0924835,-0.00108337
-0.127855,-0.320698,-0.197365,0.120426,-0.121356,-0.109577,0.0924835,-0.00108337
-0.239854,-0.354406,-0.213768,0.130634,-0.118566,-0.219094,0.0924835,-0.00108337
-0.331683,-0.236656,-0.201159,0.154597,-0.125322,-0.355235,0.0924835,-0.00108337
-0.291627,-0.0937945,-0.0941254,0.183738,-0.0795293,-0.479192,0.0924835,-0.00108337
-0.0917714,-0.0283066,0.0817219,0.184228,-0.0329456,-0.564868,0.0924835,-0.00108337
0.131247,0.0222714,0.148772,0.130866,-0.0115,-0.591622,0.0924835,-0.00108337
0.232398,0.166083,0.130703,0.0695022,-0.00536765,-0.553818,0.0924835,-0.00108337
0.237914,0.343769,0.0990208,0.0389439,-0.00512743,-0.466502,0.0924835,-0.00108337
0.287509,0.373897,0.103679,0.0392074,-0.00979337,-0.352325,0.0924835,-0.00108337
0.453332,0.287444,0.197075,0.0558908,0.0105366,-0.249123,0.0924835,-0.00108337
0.742208,0.296063,0.367279,0.0658442,0.048787,-0.16736,0.0924835,-0.00108337
1.01365,0.426443,0.532763,0.02238,0.0756168,-0.0603938,0.0924835,-0.00108337
1.11211,0.519305,0.647573,-0.0217515,0.0886002,0.101734,0.0924835,-0.00108337
1.03149,0.532897,0.679304,-0.0754265,0.0789623,0.26198,0.0924835,-0.00108337
0.845151,0.315712,0.63181,-0.108283,0.0780104,0.383887,0.0924835,-0.00108337
0.695056,-0.0324084,0.535891,-0.115831,0.0832702,0.431974,0.0924835,-0.00108337
0.592256,-0.258054,0.384213,-0.126924,0.105202,0.417592,0.0924835,-0.00108337
0.475703,-0.230969,0.244636,-0.126352,0.145595,0.36274,0.0924835,-0.00108337
0.302709,-0.0893285,0.124602,-0.106648,0.190171,0.327014,0.0924835,-0.00108337
0.107339,-0.0153965,0.0981307,-0.0532631,0.21393,0.309811,0.0924835,-0.00108337
-0.0220078,-0.0416875,0.138547,-0.0153831,0.241502,0.266798,0.0924835,-0.00108337
-0.0627709,-0.0602329,0.195242,0.00488722,0.253109,0.203904,0.0924835,-0.00108337
-0.0756077,-0.0175567,0.234905,0.012639,0.234259,0.143684,0.0924835,-0.00108337
-0.121436,0.0780448,0.20452,-0.00292224,0.19379,0.102347,0.0924835,-0.00108337
-0.207367,0.054531,0.164411,-0.0020332,0.159747,0.101935,0.0924835,-0.00108337
-0.24298,0.060824,0.14657,0.00901556,0.132025,0.0761773,0.0924835,-0.00108337
-0.264438,0.113814,0.165191,0.00976092,0.116001,0.0594879,0.0924835,-0.00108337
-0.303481,0.134173,0.214662,-0.00127009,0.084251,0.0627932,0.0924835,-0.00108337
-0.300575,0.191039,0.209341,-0.03941,0.0346168,0.0595515,0.0924835,-0.00108337
-0.291557,0.237671,0.176535,-0.068288,-0.0180995,0.0743334,0.0924835,-0.00108337
-0.322901,0.232961,0.113902,-0.0947071,-0.0545614,0.109917,0.0924835,-0.00108337
-0.368821,0.172615,0.00863436,-0.110132,-0.0960355,0.123704,0.0924835,-0.00108337
-0.404739,0.0995075,-0.063959,-0.100619,-0.119116,0.118641,0.0924835,-0.00108337
-0.400371,0.0832362,-0.126779,-0.10869,-0.12263,0.0810055,0.0924835,-0.00108337
-0.373666,0.106958,-0.215506,-0.111498,-0.138529,0.0394368,0.0924835,-0.00108337
-0.387808,0.10659,-0.30005,-0.103677,-0.142385,0.0211381,0.0924835,-0.00108337
-0.387808,0.10659,-0.30005,-0.103677,-0.142385,0.0211381,0.118896,-0.00141144
-0.370378,0.0765402,-0.351873,-0.0656919,-0.152649,-0.011094,0.118896,-0.00141144
-0.32749,0.0255632,-0.366631,-0.0163404,-0.139786,-0.0429477,0.118896,-0.00141144
-0.341563,-0.0602926,-0.369653,0.0257267,-0.135096,-0.0607919,0.118896,-0.00141144
-0.386956,-0.169409,-0.365354,0.0765747,-0.151211,-0.0992739,0.118896,-0.00141144
-0.396612,-0.32812,-0.265334,0.150408,-0.134217,-0.159908,0.118896,-0.00141144
-0.323295,-0.483502,-0.111135,0.211172,-0.114529,-0.255319,0.118896,-0.00141144
-0.213354,-0.474746,0.027539,0.231825,-0.121249,-0.359987,0.118896,-0.00141144
-0.214816,-0.523353,-0.00943037,0.181502,-0.134068,-0.420685,0.118896,-0.00141144
-0.337363,-0.62532,-0.231268,0.093465,-0.130696,-0.455291,0.118896,-0.00141144
-0.454448,-0.539838,-0.39731,0.0603247,-0.067074,-0.503781,0.118896,-0.00141144
-0.347274,-0.260831,-0.397689,0.0666338,0.0365376,-0.556396,0.118896,-0.00141144
-0.0184445,-0.0467665,-0.204758,0.0896797,0.120698,-0.536838,0.118896,-0.00141144
0.427456,0.113133,-0.0559301,0.0563292,0.142099,-0.449412,0.118896,-0.00141144
0.834667,0.2397,-0.0989718,-0.0549016,0.127953,-0.284734,0.118896,-0.00141144
1.01124,0.400843,-0.32682,-0.154717,0.127385,-0.0677328,0.118896,-0.00141144
0.820963,0.469296,-0.494887,-0.168903,0.146793,0.158107,0.118896,-0.00141144
0.510251,0.325447,-0.542476,-0.136094,0.183329,0.302592,0.118896,-0.00141144
0.246621,-0.0709498,-0.536917,-0.1085,0.204298,0.352615,0.118896,-0.00141144
0.124398,-0.451798,-0.500703,-0.0677322,0.200021,0.305288,0.118896,-0.00141144
0.12742,-0.577027,-0.476693,-0.047318,0.203989,0.193888,0.118896,-0.00141144
0.193017,-0.448692,-0.411342,-0.034142,0.207251,0.121372,0.118896,-0.00141144
0.301406,-0.258757,-0.235877,0.0238301,0.198556,0.100163,0.118896,-0.00141144
0.359021,-0.1649,0.0119192,0.0755769,0.177225,0.152371,0.118896,-0.00141144
0.336511,-0.191516,0.209392,0.0817775,0.134346,0.227552,0.118896,-0.00141144
0.344236,-0.129781,0.255839,0.0337567,0.0902626,0.252696,0.118896,-0.00141144
0.307821,-0.0529311,0.202585,-0.00913987,0.0646016,0.275635,0.118896,-0.00141144
0.187134,-0.0852169,0.153794,-0.00829855,0.0498572,0.309976,0.118896,-0.00141144
0.0637503,-0.185893,0.176995,0.0369141,0.0417133,0.325038,0.118896,-0.00141144
-0.0140294,-0.225409,0.257365,0.0528514,0.0606158,0.29168,0.118896,-0.00141144
-0.118259,-0.298636,0.266872,0.0265912,0.0582638,0.252988,0.118896,-0.00141144
-0.277859,-0.387855,0.192744,0.000925362,0.0278314,0.201926,0.118896,-0.00141144
-0.438027,-0.386977,0.145237,0.00244555,0.0187942,0.126042,0.118896,-0.00141144
-0.559213,-0.350255,0.174012,0.0099628,0.0250661,0.0453514,0.118896,-0.00141144
-0.544807,-0.255353,0.242898,0.013672,0.0118631,-0.0514919,0.118896,-0.00141144
-0.440486,-0.14924,0.320537,-0.00104509,-0.0174431,-0.124411,0.118896,-0.00141144
-0.27907,-0.0338317,0.378616,-0.0289769,-0.0538533,-0.144563,0.118896,-0.00141144
-0.151318,0.0337618,0.359873,-0.0793011,-0.0947654,-0.108546,0.118896,-0.00141144
-0.0976492,0.0869537,0.245755,-0.125769,-0.144562,-0.0330021,0.118896,-0.00141144
-0.106966,0.147891,0.0909194,-0.151225,-0.178528,0.0382829,0.118896,-0.00141144
-0.154728,0.127005,-0.0476609,-0.150408,-0.181183,0.0965414,0.118896,-0.00141144
-0.229062,0.06248,-0.198845,-0.146423,-0.175669,0.129583,0.118896,-0.00141144
-0.285901,0.00837909,-0.3059,-0.12849,-0.159074,0.127464,0.118896,-0.00141144
-0.295874,-0.00563121,-0.331074,-0.0836161,-0.125576,0.0954983,0.118896,-0.00141144
-0.286606,0.00700674,-0.292453,-0.0424773,-0.0853088,0.0658595,0.118896,-0.00141144
-0.324049,-0.0394881,-0.237087,-0.0127446,-0.0681248,0.0548222,0.118896,-0.00141144
-0.360117,-0.106335,-0.192852,0.0126069,-0.0773669,0.0229948,0.118896,-0.00141144
-0.365887,-0.135695,-0.158689,0.0355194,-0.0850317,-0.0417738,0.118896,-0.00141144
-0.334242,-0.0637424,-0.108832,0.0491828,-0.083946,-0.119902,0.118896,-0.00141144
-0.236613,0.0682253,-0.112859,0.0435591,-0.101443,-0.19986,0.118896,-0.00141144
-0.110256,0.229106,-0.114503,0.0569867,-0.12141,-0.25347,0.118896,-0.00141144
0.0408226,0.295004,-0.0443961,0.0930893,-0.12192,-0.266901,0.118896,-0.00141144
0.139087,0.228915,-0.00425044,0.102397,-0.108946,-0.239489,0.118896,-0.00141144
0.11338,0.136415,-0.00795564,0.101635,-0.109753,-0.207779,0.118896,-0.00141144
-0.0428804,0.098346,-0.0785001,0.0960968,-0.104131,-0.199311,0.118896,-0.00141144
-0.0428804,0.098346,-0.0785001,0.0960968,-0.104131,-0.199311,0.113632,-0.00136566
-0.248703,0.0664179,-0.167516,0.10114,-0.0654195,-0.218189,0.113632,-0.00136566
-0.540336,0.0237083,-0.298659,0.102508,-0.0326184,-0.241451,0.113632,-0.00136566
-0.832255,-0.0706765,-0.352281,0.159131,-0.0346487,-0.298336,0.113632,-0.00136566
-0.899905,0.00601758,-0.213057,0.204952,0.0250363,-0.429341,0.113632,-0.00136566
-0.631508,0.304216,0.0772414,0.216507,0.0766515,-0.547486,0.113632,-0.00136566
-0.0850899,0.685143,0.406593,0.166924,0.0826727,-0.573946,0.113632,-0.00136566
0.524567,0.908239,0.655916,0.0787668,0.0709367,-0.440809,0.113632,-0.00136566
0.929477,0.903294,0.776403,-0.0277708,0.0572572,-0.190748,0.113632,-0.00136566
1.12152,0.745423,0.708038,-0.12756,0.0351015,0.0396398,0.113632,-0.00136566
1.09326,0.519172,0.490841,-0.202967,0.0213167,0.217011,0.113632,-0.00136566
0.846295,0.279707,0.218666,-0.233769,0.0276238,0.351478,0.113632,-0.00136566
0.49156,0.111753,-0.00605993,-0.226613,0.0603869,0.419149,0.113632,-0.00136566
0.206993,0.0200762,-0.13282,-0.192854,0.115893,0.404709,0.113632,-0.00136566
0.103636,-0.0494082,-0.163027,-0.132421,0.171842,0.330565,0.113632,-0.00136566
0.167319,-0.0471458,-0.0962439,-0.0803259,0.218301,0.253985,0.113632,-0.00136566
0.253923,0.0206451,0.0450092,-0.0361687,0.2462,0.223994,0.113632,-0.00136566
0.271406,-0.014706,0.239175,0.0112812,0.242134,0.251531,0.113632,-0.00136566
0.216575,-0.154742,0.366588,0.0195869,0.20129,0.281309,0.113632,-0.00136566
0.11954,-0.203284,0.39809,-0.0119271,0.161793,0.260622,0.113632,-0.00136566
0.0257379,-0.134275,0.416552,-0.0232966,0.130216,0.218508,0.113632,-0.00136566
-0.0627795,-0.0513063,0.440647,-0.0298096,0.11587,0.193984,0.113632,-0.00136566
-0.132071,-0.0443368,0.436648,-0.0418294,0.0892094,0.197645,0.113632,-0.00136566
-0.203892,-0.146478,0.410423,-0.04658,0.0578585,0.215162,0.113632,-0.00136566
-0.308747,-0.185204,0.321891,-0.0815062,0.030341,0.223991,0.113632,-0.00136566
-0.425743,-0.202649,0.193622,-0.109741,0.00175308,0.219133,0.113632,-0.00136566
-0.527687,-0.155748,0.0323079,-0.127522,-0.029324,0.201426,0.113632,-0.00136566
-0.609329,-0.166089,-0.116681,-0.127695,-0.0416119,0.185855,0.113632,-0.00136566
-0.614036,-0.19917,-0.199307,-0.102899,-0.044103,0.142841,0.113632,-0.00136566
-0.508475,-0.190633,-0.268486,-0.0785758,-0.0309543,0.0953844,0.113632,-0.00136566
-0.48099,0.0398526,-0.335082,-0.0633771,-0.0310788,0.083838,0.113632,-0.00136566
-0.64963,0.280869,-0.398989,-0.0476616,-0.0469377,0.118866,0.113632,-0.00136566
-0.87191,0.133933,-0.442398,0.00493202,-0.0727537,0.169676,0.113632,-0.00136566
-0.98746,-0.207995,-0.444193,0.0717481,-0.0868359,0.106342,0.113632,-0.00136566
-0.95294,-0.4478,-0.296511,0.149368,-0.0556115,-0.0452639,0.113632,-0.00136566
-0.929315,-0.654153,-0.124609,0.199922,-0.033121,-0.181757,0.113632,-0.00136566
-0.948245,-0.778507,0.0286681,0.218744,-0.0463959,-0.328826,0.113632,-0.00136566
-0.767749,-0.58189,0.143784,0.217773,-0.0942549,-0.540079,0.113632,-0.00136566
-0.440103,-0.126951,0.220236,0.175294,-0.0916204,-0.689388,0.113632,-0.00136566
-0.282102,0.0776948,0.259879,0.139858,-0.100274,-0.637268,0.113632,-0.00136566
-0.235435,0.109231,0.206263,0.0990965,-0.13542,-0.543521,0.113632,-0.00136566
-0.13643,0.0700971,0.0833393,0.0557729,-0.147361,-0.494291,0.113632,-0.00136566
0.000687174,0.00176174,-0.0398724,0.0495991,-0.133757,-0.451666,0.113632,-0.00136566
0.0676344,-0.0669746,-0.176353,0.0276699,-0.101037,-0.394907,0.113632,-0.00136566
0.126711,-0.0311821,-0.264168,0.0240545,-0.0296856,-0.341329,0.113632,-0.00136566
0.209775,0.136666,-0.259098,0.0470347,0.0491212,-0.287439,0.113632,-0.00136566
0.388919,0.423154,-0.173481,0.0584724,0.11228,-0.227869,0.113632,-0.00136566
0.675122,0.559449,-0.114797,0.0212203,0.148414,-0.134695,0.113632,-0.00136566
0.901824,0.45796,-0.132675,-0.0308056,0.168656,8.23736e-05,0.113632,-0.00136566
0.84778,0.270536,-0.225321,-0.0588906,0.168327,0.131772,0.113632,-0.00136566
0.605716,0.099478,-0.271632,-0.0657535,0.184352,0.209193,0.113632,-0.00136566
0.402537,0.0384289,-0.238593,-0.032875,0.213154,0.203694,0.113632,-0.00136566
0.334985,0.0674158,-0.148592,-0.0244951,0.247714,0.144898,0.113632,-0.00136566
0.315132,0.0509764,0.0632553,0.00965646,0.258189,0.124425,0.113632,-0.00136566
0.37026,-0.0251956,0.329023,0.0256327,0.238324,0.11854,0.113632,-0.00136566
0.37026,-0.0251956,0.329023,0.0256327,0.238324,0.11854,0.150604,-0.00177765
0.481148,-0.0766634,0.444942,-0.0333565,0.175085,0.121314,0.150604,-0.00177765
0.499915,-0.117688,0.454914,-0.1062,0.111872,0.161637,0.150604,-0.00177765
0.416912,-0.0519615,0.450192,-0.160408,0.0725763,0.191715,0.150604,-0.00177765
0.359684,0.0373366,0.422558,-0.205035,0.0472245,0.211185,0.150604,-0.00177765
0.343657,0.0515771,0.34281,-0.236045,0.0217024,0.236744,0.150604,-0.00177765
0.324058,-0.015786,0.196839,-0.245004,-0.00784606,0.265252,0.150604,-0.00177765
0.209943,-0.101124,0.059227,-0.233603,-0.0166059,0.291371,0.150604,-0.00177765
0.0711166,-0.188268,-0.0714156,-0.212016,-0.0334753,0.29613,0.150604,-0.00177765
0.00528613,-0.216807,-0.170443,-0.184971,-0.0411966,0.254668,0.150604,-0.00177765
-0.0335851,-0.18332,-0.274871,-0.163126,-0.044729,0.210596,0.150604,-0.00177765
-0.111793,-0.138614,-0.363694,-0.136351,-0.0560982,0.183259,0.150604,-0.00177765
-0.218971,-0.204496,-0.426685,-0.0971629,-0.0544607,0.169805,0.150604,-0.00177765
-0.334007,-0.24958,-0.460405,-0.0603772,-0.0560569,0.127575,0.150604,-0.00177765
-0.439994,-0.217576,-0.494939,-0.0510427,-0.0592011,0.0673987,0.150604,-0.00177765
-0.459359,-0.170908,-0.474104,-0.025932,-0.0684494,-0.00691146,0.150604,-0.00177765
-0.369783,-0.115349,-0.411627,-0.00644767,-0.0741215,-0.0751417,0.150604,-0.00177765
-0.223533,-0.0270244,-0.328723,0.00612757,-0.0881264,-0.114327,0.150604,-0.00177765
-0.0976277,0.0830368,-0.291062,-0.0165495,-0.108266,-0.11872,0.150604,-0.00177765
-0.0406652,0.116985,-0.299224,-0.0367164,-0.139681,-0.0879025,0.150604,-0.00177765
-0.0238656,0.100114,-0.292426,-0.0362079,-0.146726,-0.0599946,0.150604,-0.00177765
0.0388726,0.112588,-0.246351,-0.0273596,-0.147384,-0.0676277,0.150604,-0.00177765
0.172814,0.110317,-0.207673,-0.0413845,-0.14075,-0.0896645,0.150604,-0.00177765
0.324729,0.0699342,-0.220863,-0.0684527,-0.143135,-0.0950896,0.150604,-0.00177765
0.451867,0.0998254,-0.269895,-0.0879668,-0.134829,-0.0899989,0.150604,-0.00177765
0.50686,0.249186,-0.325243,-0.103501,-0.119152,-0.0684927,0.150604,-0.00177765
0.504639,0.363532,-0.388588,-0.103139,-0.111451,-0.0148035,0.150604,-0.00177765
0.484861,0.313335,-0.482138,-0.100728,-0.101858,0.0459456,0.150604,-0.00177765
0.509512,0.198187,-0.594357,-0.0877848,-0.0864362,0.0581143,0.150604,-0.00177765
0.561849,0.252716,-0.652079,-0.0617445,-0.0549234,0.03452,0.150604,-0.00177765
0.647061,0.387609,-0.618458,-0.00880802,-0.0136971,0.0303722,0.150604,-0.00177765
0.659853,0.473701,-0.633632,0.0116474,0.00799948,0.077307,0.150604,-0.00177765
0.458687,0.36954,-0.700382,0.0240895,0.00175986,0.158423,0.150604,-0.00177765
0.0142724,-0.0286801,-0.803758,0.0627924,-0.00477795,0.229846,0.150604,-0.00177765
-0.427577,-0.509571,-0.896163,0.114147,0.0131627,0.141626,0.150604,-0.00177765
-0.652879,-0.856763,-0.946628,0.14723,0.0810376,-0.0831397,0.150604,-0.00177765
-0.417018,-0.985702,-0.796174,0.253866,0.136253,-0.365646,0.150604,-0.00177765
-0.0154965,-0.66323,-0.415612,0.3763,0.190617,-0.551188,0.150604,-0.00177765
0.16067,-0.2041,0.1794,0.44331,0.216045,-0.53403,0.150604,-0.00177765
0.066215,0.0217676,0.580239,0.37305,0.132476,-0.430491,0.150604,-0.00177765
-0.0853837,-0.043478,0.629295,0.185364,0.000784643,-0.349234,0.150604,-0.00177765
0.0160049,-0.0906791,0.462537,0.00392351,-0.111188,-0.397595,0.150604,-0.00177765
0.313851,-0.0202708,0.212475,-0.0847705,-0.168982,-0.44976,0.150604,-0.00177765
0.618189,0.00423918,-0.00666329,-0.109762,-0.181323,-0.4009,0.150604,-0.00177765
0.821876,0.0241163,-0.215267,-0.0863534,-0.160242,-0.274328,0.150604,-0.00177765
0.813701,0.161089,-0.39336,-0.0577531,-0.0985807,-0.128194,0.150604,-0.00177765
0.608888,0.301882,-0.474168,-0.0120242,-0.01719,0.0109979,0.150604,-0.00177765
0.439487,0.142833,-0.425438,0.0467657,0.0738393,0.0969368,0.150604,-0.00177765
0.47726,-0.0792378,-0.285167,0.11369,0.152539,0.0849693,0.150604,-0.00177765
0.65069,-0.144487,-0.138712,0.135599,0.211244,0.0411945,0.150604,-0.00177765
0.779908,-0.0740019,-0.00194059,0.162094,0.228845,0.0444049,0.150604,-0.00177765
0.780252,-0.0180491,0.167846,0.209853,0.219651,0.10227,0.150604,-0.00177765
0.707485,0.0363036,0.342762,0.214833,0.218057,0.16374,0.150604,-0.00177765
0.642224,0.0639357,0.462025,0.177874,0.214813,0.211854,0.150604,-0.00177765
0.578245,0.100117,0.509535,0.126967,0.192195,0.255591,0.150604,-0.00177765
0.578245,0.100117,0.509535,0.126967,0.192195,0.255591,0.190247,-0.00225067
0.54086,0.14171,0.580239,0.103842,0.179545,0.291497,0.190247,-0.00225067
0.497233,0.174463,0.636416,0.0699534,0.177869,0.328204,0.190247,-0.00225067
0.395279,0.128931,0.674113,0.0348544,0.174824,0.377599,0.190247,-0.00225067
0.262737,0.0125511,0.691744,-0.00563923,0.172999,0.421204,0.190247,-0.00225067
0.0962009,-0.144903,0.665416,-0.0436614,0.183949,0.448186,0.190247,-0.00225067
-0.122801,-0.297933,0.626893,-0.0604638,0.202263,0.462319,0.190247,-0.00225067
-0.368625,-0.374009,0.607743,-0.057884,0.223925,0.454135,0.190247,-0.00225067
-0.587813,-0.495207,0.591466,-0.0465127,0.216288,0.414058,0.190247,-0.00225067
-0.790737,-0.616367,0.533349,-0.0458529,0.187612,0.349087,0.190247,-0.00225067
-0.994842,-0.703234,0.501404,-0.0283154,0.151346,0.250145,0.190247,-0.00225067
-1.052,-0.630483,0.55173,0.0187024,0.128556,0.104329,0.190247,-0.00225067
-0.978093,-0.403219,0.560538,0.024333,0.0980814,-0.0330888,0.190247,-0.00225067
-0.91484,-0.286443,0.513079,0.0213605,0.0258912,-0.107213,0.190247,-0.00225067
-0.828518,-0.189054,0.41798,0.0300562,-0.0585895,-0.171573,0.190247,-0.00225067
-0.754203,-0.133623,0.323749,0.0475255,-0.106226,-0.206262,0.190247,-0.00225067
-0.763765,-0.171651,0.249748,0.0724832,-0.140515,-0.221548,0.190247,-0.00225067
-0.749759,-0.169658,0.217385,0.0983968,-0.181304,-0.28727,0.190247,-0.00225067
-0.637142,-0.117878,0.176922,0.113885,-0.202241,-0.376822,0.190247,-0.00225067
-0.564121,-0.173315,0.109119,0.121365,-0.193821,-0.399031,0.190247,-0.00225067
-0.556351,-0.24981,0.0692795,0.128931,-0.175586,-0.411289,0.190247,-0.00225067
-0.488406,-0.275382,0.100069,0.127803,-0.147657,-0.469833,0.190247,-0.00225067
-0.268737,-0.136364,0.190401,0.119049,-0.0981468,-0.533465,0.190247,-0.00225067
-0.106101,0.0170823,0.281755,0.0918764,-0.0533111,-0.495154,0.190247,-0.00225067
-0.0325532,0.227439,0.239657,0.0149887,-0.0524082,-0.412234,0.190247,-0.00225067
-0.00428768,0.515919,0.178383,-0.0500938,-0.0607611,-0.326857,0.190247,-0.00225067
0.164797,0.666618,0.169406,-0.0834866,-0.029308,-0.236879,0.190247,-0.00225067
0.45288,0.608858,0.0952628,-0.152433,0.00918455,-0.145425,0.190247,-0.00225067
0.660793,0.352399,0.0278804,-0.163673,0.0370135,-0.00756276,0.190247,-0.00225067
0.600455,0.0729007,-0.037633,-0.156558,0.0718252,0.124672,0.190247,-0.00225067
0.277903,-0.0201256,-0.0660474,-0.160626,0.112252,0.191875,0.190247,-0.00225067
-0.0644686,0.0601607,0.0205399,-0.145964,0.135689,0.161989,0.190247,-0.00225067
-0.11316,-0.0616009,0.127561,-0.155231,0.147207,0.077869,0.190247,-0.00225067
0.216932,-0.289098,0.118603,-0.174457,0.131257,-0.0111241,0.190247,-0.00225067
0.629267,-0.244409,0.0728689,-0.188167,0.130967,-0.0376408,0.190247,-0.00225067
0.744591,-0.155671,0.119799,-0.145491,0.1502,0.0762796,0.190247,-0.00225067
0.612825,-0.0949619,0.186466,-0.100839,0.126192,0.234958,0.190247,-0.00225067
0.437704,-0.0520329,0.202189,-0.0969678,0.110125,0.321906,0.190247,-0.00225067
0.332743,-0.13586,0.181407,-0.0841732,0.101434,0.3674,0.190247,-0.00225067
0.30939,-0.224569,0.148162,-0.0591618,0.0935743,0.364568,0.190247,-0.00225067
0.265639,-0.322823,0.113656,-0.0392791,0.100996,0.350345,0.190247,-0.00225067
0.135019,-0.327049,0.0982288,0.00192392,0.115582,0.334675,0.190247,-0.00225067
-0.00845411,-0.244328,0.101734,0.0391797,0.117892,0.296156,0.190247,-0.00225067
-0.0898286,-0.212212,0.141247,0.105621,0.107761,0.242378,0.190247,-0.00225067
-0.148475,-0.164821,0.277905,0.170263,0.138302,0.185395,0.190247,-0.00225067
-0.246738,-0.100729,0.523262,0.213905,0.173292,0.146202,0.190247,-0.00225067
-0.302937,-0.0714904,0.679497,0.189613,0.152703,0.0859209,0.190247,-0.00225067
-0.271021,0.00130207,0.766562,0.150542,0.10803,0.0119627,0.190247,-0.00225067
-0.228142,0.114836,0.819149,0.0926218,0.0679802,-0.03619,0.190247,-0.00225067
-0.255972,0.190742,0.799733,0.0406996,0.00217019,-0.0363402,0.190247,-0.00225067
-0.374649,0.261607,0.70771,-0.00667941,-0.0521954,-0.0180948,0.190247,-0.00225067
-0.50304,0.332386,0.588802,-0.0608093,-0.0873941,-0.0263848,0.190247,-0.00225067
-0.533425,0.402817,0.520487,-0.074804,-0.110037,-0.0618268,0.190247,-0.00225067
-0.428627,0.454145,0.551415,-0.0599575,-0.11055,-0.0961483,0.190247,-0.00225067
-0.428627,0.454145,0.551415,-0.0599575,-0.11055,-0.0961483,0.179672,-0.00213623
-0.376045,0.599857,0.588013,-0.0814949,-0.111978,-0.0986521,0.179672,-0.00213623
-0.210111,0.747124,0.64899,-0.123323,-0.126782,-0.0941066,0.179672,-0.00213623
0.470029,-0.0826635,0.58323,-0.102413,-0.0981036,-0.0477128,0.179672,-0.00213623
0.267962,-0.292011,0.578151,-0.0994429,-0.152434,0.080992,0.179672,-0.00213623
-0.169003,0.0808008,0.433596,-0.196517,-0.140963,0.0807284,0.179672,-0.00213623
-0.543041,0.518767,0.303482,-0.165639,-0.129688,0.0366493,0.179672,-0.00213623
-0.46902,0.429934,0.348933,-0.0630027,-0.0447387,0.00473964,0.179672,-0.00213623
-0.209429,-0.315977,0.564605,0.0456758,-0.0370687,0.0173513,0.179672,-0.00213623
0.131484,-0.541938,0.65976,0.0284805,-0.00885537,-0.0383751,0.179672,-0.00213623
0.316976,-0.334757,0.616485,-0.0594772,-0.0104501,-0.0820096,0.179672,-0.00213623
0.292556,0.00737301,0.48723,-0.116445,-0.0366296,-0.0479138,0.179672,-0.00213623
