rotationRate_x,rotationRate_y,rotationRate_z,acceleration_x,acceleration_y,acceleration_z,relativeAltitude
-0.0567298,-0.0157807,0.257835,0.0351645,-0.0267536,-0.017707,0
-0.153095,-0.0861887,0.219102,0.0201032,-0.0353075,0.0218055,0
-0.166835,-0.0964134,0.178424,-2.17482e-05,-0.0342695,0.00352269,0
-0.0741557,-0.0245957,0.123364,-0.0143365,-0.0209847,-0.0392743,0
0.0320984,0.0969498,0.0386272,-0.0466677,-0.0155807,-0.0734991,0
0.134337,0.139891,-0.0811784,-0.0710773,-0.0110988,-0.116174,0
0.139293,0.0907629,-0.17825,-0.0659634,-0.00809059,-0.142317,0
0.0189118,0.0134846,-0.234587,-0.0410741,-0.0225008,-0.148033,0
-0.0679955,-0.0465565,-0.203993,-0.0113241,-0.0291124,-0.175517,0
-0.113192,-0.146171,-0.133653,0.0282361,-0.0220265,-0.259574,0
-0.240573,-0.251071,-0.112406,0.0331106,-0.00413643,-0.285506,0
-0.395305,-0.316142,-0.118354,-0.000154719,-0.00977969,-0.260322,0
-0.397768,-0.357241,-0.159781,-0.0230956,-0.00239898,-0.269945,0
-0.30016,-0.227351,-0.202942,-0.0300958,0.0265767,-0.278198,0
-0.150019,-0.0764114,-0.298574,-0.0571175,0.0315227,-0.248478,0
0.251148,0.0063468,-0.427949,-0.065897,0.0709769,-0.225308,0
0.676623,-0.0336419,-0.556026,-0.0679566,0.0947237,-0.197178,0
0.755762,-0.0985763,-0.673912,-0.0875613,0.0749465,-0.0604113,0
0.388598,-0.179251,-0.671479,-0.0734216,0.0206883,0.107916,0
0.0544159,-0.216493,-0.580517,-0.0456885,-0.0216264,0.178355,0
0.0224269,-0.277983,-0.467536,-0.01513,0.008074,0.0869401,0
0.106211,-0.374685,-0.442907,0.00154394,0.0660878,0.0189037,0
0.142393,-0.462492,-0.42553,-0.00752074,0.0893522,0.0407695,0
0.118397,-0.494812,-0.351827,0.00948689,0.0849178,0.0939435,0
0.178779,-0.31064,-0.276711,0.00382198,0.0901764,0.138318,0
0.358685,-0.0832333,-0.292313,-0.0363115,0.117336,0.136864,0
0.444254,-0.0013967,-0.344893,-0.0542793,0.140079,0.190501,0
0.414269,0.0509557,-0.343662,-0.0440557,0.129853,0.288981,0
0.372188,0.0238589,-0.375956,-0.0478295,0.131125,0.311898,0
0.215621,-0.0126335,-0.369208,-0.0403832,0.131553,0.357728,0
0.0858885,0.0206467,-0.300558,-0.0279875,0.10628,0.383586,0
-0.012347,0.00538293,-0.29034,-0.034321,0.104779,0.339868,0
-0.140462,-0.00572036,-0.26427,-0.0401628,0.0985727,0.307113,0
-0.25403,0.0587114,-0.231803,-0.0343431,0.0785643,0.237627,0
-0.324865,0.153425,-0.1988,-0.0292926,0.0602195,0.137442,0
-0.393139,0.211133,-0.160869,-0.0196773,0.0434763,0.0502225,0
-0.451561,0.233592,-0.110461,0.00460814,0.0294184,-0.0207944,0
-0.490269,0.296366,-0.062434,0.0183159,0.0251278,-0.105227,0
-0.486759,0.362365,0.0365368,0.0591052,0.0154683,-0.190637,0
-0.543808,0.342939,0.106831,0.0682422,-0.0124658,-0.249548,0
-0.678278,0.306762,0.133803,0.0543643,-0.0258421,-0.262213,0
-0.720377,0.240292,0.161057,0.039758,-0.026107,-0.328782,0
-0.596609,0.157568,0.224397,0.0832123,0.00821259,-0.407824,0
-0.417233,0.0992536,0.251854,0.0957929,0.0320171,-0.474883,0
-0.351865,0.182229,0.231872,0.073843,0.0402951,-0.437971,0
-0.442933,0.280254,0.321207,0.0989487,0.0104816,-0.385439,0
-0.586726,0.29021,0.45296,0.136432,-0.00722571,-0.33894,0
-0.652971,0.236522,0.556422,0.155507,-0.0183727,-0.314387,0
-0.471677,0.140562,0.620756,0.155728,0.00350622,-0.306563,0
-0.118924,-0.0176288,0.572487,0.128063,0.039919,-0.289762,0
0.14888,-0.0978135,0.510152,0.091127,0.045384,-0.169867,0
0.14888,-0.0978135,0.510152,0.091127,0.045384,-0.169867,0.0607605
0.270693,-0.0735275,0.561213,0.0816538,0.00854091,-0.0165883,0.0607605
0.267834,-0.012315,0.651237,0.0863338,-0.0149899,0.0939858,0.0607605
0.146837,0.112752,0.675723,0.0534869,-0.0237911,0.172883,0.0607605
0.035712,0.242931,0.662457,0.0295077,-0.0123105,0.198263,0.0607605
0.00823897,0.302649,0.662882,0.0424084,0.0257576,0.164701,0.0607605
0.0313142,0.257904,0.721497,0.0694033,0.0476253,0.143765,0.0607605
0.0968413,0.0680503,0.761793,0.07249,0.0574937,0.138439,0.0607605
0.123728,-0.146961,0.757871,0.0446299,0.0748544,0.190084,0.0607605
0.169894,-0.288457,0.744687,-0.00300366,0.0763889,0.245176,0.0607605
0.168477,-0.350346,0.62776,-0.0666878,0.0806216,0.274011,0.0607605
0.116916,-0.325265,0.483835,-0.121551,0.0752062,0.319158,0.0607605
0.165598,-0.193505,0.283216,-0.154205,0.0735889,0.321344,0.0607605
0.370504,-0.0748112,0.108617,-0.158317,0.07406,0.261232,0.0607605
0.516734,-0.037127,0.0572511,-0.110946,0.0574466,0.23449,0.0607605
0.446794,-0.0168867,0.0985622,-0.0748534,0.0140465,0.272336,0.0607605
0.268048,-0.0585733,0.165945,-0.0446271,-0.0227025,0.28611,0.0607605
0.0101512,-0.142397,0.202705,-0.0291827,-0.0467484,0.285296,0.0607605
-0.281862,-0.240036,0.19604,-0.0254927,-0.0597458,0.269294,0.0607605
-0.491706,-0.316043,0.200193,-0.0117453,-0.0584838,0.220273,0.0607605
-0.542792,-0.322439,0.242729,0.00181481,-0.056054,0.157489,0.0607605
-0.489374,-0.249439,0.237243,0.00425433,-0.0409106,0.0754136,0.0607605
-0.429252,-0.151969,0.127407,-0.0352689,-0.0233956,0.00846267,0.0607605
-0.427681,-0.0374907,-0.0435369,-0.067238,-0.0153353,-0.0306231,0.0607605
-0.343659,0.0667564,-0.245792,-0.0910707,-0.0186405,-0.111131,0.0607605
-0.00861235,0.0193916,-0.576085,-0.115053,0.025032,-0.265099,0.0607605
0.293384,-0.0243367,-0.921612,-0.121541,0.0492125,-0.390479,0.0607605
0.381307,0.0884053,-1.01172,-0.102156,0.00302196,-0.37835,0.0607605
0.309068,0.214071,-0.836922,0.0082119,-0.0694164,-0.392933,0.0607605
0.132757,0.0584213,-0.666373,0.0869461,-0.0928239,-0.420439,0.0607605
-0.0627905,-0.383236,-0.631176,0.0981651,-0.0915585,-0.457337,0.0607605
-0.299028,-0.767946,-0.557853,0.127987,-0.0877693,-0.453083,0.0607605
-0.581287,-0.799322,-0.364979,0.133557,-0.126272,-0.40099,0.0607605
-0.736092,-0.617978,-0.249474,0.102243,-0.136492,-0.36269,0.0607605
-0.468724,-0.376936,-0.308019,0.0392999,-0.0551837,-0.413507,0.0607605
0.001602,-0.221737,-0.491145,-0.0078131,0.0315012,-0.426959,0.0607605
0.52307,-0.233345,-0.686882,-0.0239493,0.0801155,-0.350856,0.0607605
0.856788,-0.276162,-0.776824,0.0126446,0.0898006,-0.188717,0.0607605
0.955085,-0.26064,-0.746729,0.0306649,0.0622735,0.0115079,0.0607605
0.874493,-0.14964,-0.608389,0.0528155,0.035351,0.164563,0.0607605
0.724753,-0.09553,-0.475915,0.0389746,0.0201201,0.252651,0.0607605
0.62899,-0.0996089,-0.384266,0.0336958,0.0425564,0.259704,0.0607605
0.608806,-0.131282,-0.294818,0.0384772,0.0798487,0.248442,0.0607605
0.634866,-0.205901,-0.203724,0.0478533,0.114081,0.247047,0.0607605
0.591461,-0.318793,-0.116349,0.0448584,0.121123,0.287516,0.0607605
0.471478,-0.433937,-0.0672403,0.034524,0.12224,0.348575,0.0607605
0.319612,-0.395927,-0.01277,0.00486464,0.120128,0.40091,0.0607605
0.28562,-0.267994,-0.0195603,-0.0267159,0.123431,0.391266,0.0607605
0.366758,-0.19166,-0.106833,-0.0559493,0.157818,0.331802,0.0607605
0.349874,-0.196691,-0.160511,-0.0555125,0.161713,0.307362,0.0607605
0.199294,-0.247054,-0.101038,-0.0163838,0.12749,0.308414,0.0607605
0.0507616,-0.282499,-0.0248128,0.0151919,0.0990217,0.268509,0.0607605
0.0507616,-0.282499,-0.0248128,0.0151919,0.0990217,0.268509,0.118896
-0.0631453,-0.264834,0.0358685,-0.00554917,0.0800811,0.203307,0.118896
-0.209859,-0.222635,0.0707113,-0.0198814,0.0528065,0.179822,0.118896
-0.262378,-0.0929446,0.0486491,-0.0439291,0.0359077,0.143864,0.118896
-0.236987,0.132174,0.0314982,-0.0563466,0.0329936,0.0875295,0.118896
-0.305792,0.33025,0.0160643,-0.0576478,0.00716685,0.0792351,0.118896
-0.418414,0.410907,0.0395166,-0.0356901,-0.0181102,0.0790772,0.118896
-0.4634,0.364306,0.067036,0.00192359,-0.0178661,0.0224082,0.118896
-0.427006,0.23726,0.0530657,0.0207311,-0.00887313,-0.0350758,0.118896
-0.322134,0.113816,-0.051224,0.00733079,0.00354032,-0.0762789,0.118896
-0.204024,0.0402198,-0.122893,-0.00559513,-0.00119199,-0.0973259,0.118896
-0.0754065,0.0296968,-0.118731,0.00858449,-0.022459,-0.100387,0.118896
-0.0953365,0.0948036,-0.124878,-0.00710013,-0.0470451,-0.0897436,0.118896
-0.221916,0.170367,-0.113711,-0.0404878,-0.0810355,-0.0744351,0.118896
-0.296862,0.250462,-0.0529928,-0.0358392,-0.0885439,-0.146922,0.118896
-0.406352,0.303976,-0.00605502,-0.0241657,-0.090014,-0.215386,0.118896
-0.47661,0.341357,0.0605743,-0.0210424,-0.0645349,-0.318881,0.118896
-0.414086,0.270896,0.17678,0.0111378,-0.0303368,-0.450222,0.118896
-0.398464,0.0882579,0.303873,0.0433172,0.000210091,-0.526569,0.118896
-0.504317,-0.101858,0.393117,0.0442125,0.00285807,-0.513703,0.118896
-0.486525,-0.238396,0.409626,0.0220108,0.0190518,-0.481024,0.118896
-0.296874,-0.279242,0.438072,0.0222391,0.0429216,-0.464977,0.118896
-0.0856383,-0.243663,0.463027,0.0189854,0.0368087,-0.379419,0.118896
0.128781,-0.179441,0.445816,0.00321251,0.0254808,-0.270469,0.118896
0.26411,-0.100942,0.396091,-0.0126152,0.0174257,-0.122054,0.118896
0.37248,-0.039399,0.330549,-0.00503719,0.00768466,0.00406373,0.118896
0.42973,0.0796818,0.292027,0.00760458,0.00720976,0.118543,0.118896
0.414296,0.218659,0.226557,0.0257735,0.0111625,0.200769,0.118896
0.354063,0.344905,0.212896,0.050403,0.0203221,0.228288,0.118896
0.270884,0.470215,0.284054,0.0997384,0.0224105,0.217818,0.118896
0.231459,0.496277,0.388577,0.150721,0.0448806,0.162828,0.118896
0.240883,0.424932,0.470686,0.166318,0.0810486,0.12712,0.118896
0.248323,0.269895,0.495871,0.158668,0.102682,0.110787,0.118896
0.285972,0.0749608,0.499812,0.139937,0.112296,0.140039,0.118896
0.330097,-0.068412,0.508247,0.112909,0.101622,0.188595,0.118896
0.339924,-0.0979182,0.543139,0.0824618,0.0848483,0.259319,0.118896
0.286379,-0.0660757,0.563939,0.0542256,0.0622215,0.3317,0.118896
0.214801,-0.0268128,0.527514,0.0189064,0.0524462,0.376856,0.118896
0.153242,0.049096,0.463915,-0.0102622,0.0459976,0.384504,0.118896
0.0657009,0.155326,0.450021,-0.0190692,0.036776,0.372484,0.118896
-0.0159568,0.23635,0.441437,-0.0163712,0.0211651,0.347536,0.118896
-0.107469,0.303578,0.407431,-0.0363076,0.0110999,0.313697,0.118896
-0.196658,0.316697,0.432688,-0.0389719,0.000480145,0.269799,0.118896
-0.278924,0.334229,0.551762,0.00103415,-0.0075098,0.215581,0.118896
-0.469047,0.281083,0.580248,-0.000671372,-0.0188312,0.149895,0.118896
-0.700934,0.188248,0.570318,-0.0386398,-0.0348237,0.140355,0.118896
-0.786509,0.0977452,0.571765,-0.0366959,-0.0454962,0.0594819,0.118896
-0.753436,0.105851,0.512941,-0.037808,-0.0319848,-0.0246809,0.118896
-0.509647,0.115907,0.401621,-0.0512709,-0.0128682,-0.122507,0.118896
-0.208415,0.0255787,0.261112,-0.042635,0.00996834,-0.204013,0.118896
-0.0427752,0.0304356,0.141439,-0.0312848,-0.00484919,-0.190995,0.118896
-0.0427752,0.0304356,0.141439,-0.0312848,-0.00484919,-0.190995,0.322357
0.0510416,0.241542,0.0750641,-0.044866,-0.0375731,-0.164231,0.322357
0.115393,0.399189,-0.0108709,-0.0489747,-0.050579,-0.187774,0.322357
0.0374432,0.446877,-0.12461,-0.0372224,-0.0757457,-0.228804,0.322357
-0.0599365,0.386006,-0.215674,-0.0263238,-0.0971024,-0.2886,0.322357
-0.0500383,0.20204,-0.224169,0.0221775,-0.0799957,-0.420578,0.322357
0.0343944,-0.000939065,-0.179317,0.0660681,-0.0552492,-0.523079,0.322357
0.102917,-0.321061,-0.121847,0.094823,-0.0358163,-0.545467,0.322357
-0.061135,-0.640065,-0.131324,0.101793,-0.0387881,-0.469776,0.322357
-0.376007,-0.701015,-0.0732758,0.0532362,-0.0709343,-0.32593,0.322357
-0.582058,-0.590944,0.0445265,0.0508143,-0.0873431,-0.274346,0.322357
-0.516275,-0.468125,-0.00785245,-0.00383446,-0.0544547,-0.285157,0.322357
-0.196767,-0.408728,-0.20151,-0.0612487,0.0118955,-0.315066,0.322357
0.232756,-0.390978,-0.422094,-0.0805187,0.0564994,-0.280874,0.322357
0.622442,-0.354369,-0.58719,-0.0729223,0.0728952,-0.171945,0.322357
0.795965,-0.288362,-0.639434,-0.0551661,0.0585984,-0.0177019,0.322357
0.777513,-0.173391,-0.582693,-0.0249267,0.0357775,0.1147,0.322357
0.724206,-0.137804,-0.543008,-0.0209249,0.0384146,0.158152,0.322357
0.703572,-0.195601,-0.512163,-0.00964303,0.064591,0.148078,0.322357
0.698711,-0.223008,-0.411935,0.0194368,0.0676711,0.16383,0.322357
0.692826,-0.219058,-0.285062,0.0277043,0.0742745,0.197043,0.322357
0.639364,-0.215097,-0.171154,0.0297808,0.0880526,0.246827,0.322357
0.607599,-0.210172,-0.0838612,0.0222744,0.109513,0.257146,0.322357
0.607017,-0.225476,-0.0332643,0.0221238,0.139502,0.268089,0.322357
0.530983,-0.197169,-0.000563019,0.00511049,0.141759,0.301312,0.322357
0.392286,-0.126662,0.0360338,-0.00710513,0.144007,0.309727,0.322357
0.315053,-0.0995672,0.0239622,-0.0187944,0.157659,0.271081,0.322357
0.322836,-0.0987155,0.0220683,-0.00717429,0.170653,0.213911,0.322357
0.342637,-0.0778926,0.0348139,-0.0127743,0.167819,0.182567,0.322357
0.326836,-0.0721467,0.0555489,-0.00682854,0.15087,0.168797,0.322357
0.194177,-0.0714824,0.0740522,-0.0050985,0.122869,0.183163,0.322357
0.0104701,-0.0661113,0.103038,0.0107938,0.101377,0.170476,0.322357
-0.0800006,-0.0129937,0.180098,0.0429661,0.0958727,0.126032,0.322357
-0.072692,0.0249405,0.244848,0.0531927,0.0969208,0.071936,0.322357
-0.109867,0.0237084,0.249145,0.0472819,0.0847911,0.0891044,0.322357
-0.257223,0.0205896,0.287401,0.0466943,0.046403,0.115149,0.322357
-0.451053,-0.0150653,0.326504,0.0443115,0.0234103,0.127609,0.322357
-0.557851,0.0235368,0.362377,0.0246798,0.00928862,0.0856765,0.322357
-0.583046,0.116484,0.34617,-0.00582686,0.00680335,0.0385254,0.322357
-0.531253,0.171359,0.288951,-0.0310883,-0.00412808,-0.00236124,0.322357
-0.465775,0.18657,0.206466,-0.0401425,-0.0230975,-0.0309855,0.322357
-0.435638,0.248253,0.197296,-0.0357189,-0.0578647,-0.0461999,0.322357
-0.403764,0.276048,0.188881,-0.0463752,-0.0777725,-0.075931,0.322357
-0.374858,0.268679,0.180863,-0.0538994,-0.088543,-0.100919,0.322357
-0.360599,0.250018,0.144935,-0.0752226,-0.0957148,-0.134387,0.322357
-0.257088,0.276058,0.107757,-0.0870804,-0.0894385,-0.190888,0.322357
-0.114873,0.380796,0.0880263,-0.0907142,-0.0768267,-0.230868,0.322357
-0.0740676,0.528893,0.0672267,-0.09354,-0.075254,-0.236428,0.322357
-0.163809,0.617178,0.0806226,-0.0563349,-0.0739818,-0.231186,0.322357
-0.321432,0.653612,0.16263,0.00896449,-0.036879,-0.266177,0.322357
-0.473734,0.620051,0.29583,0.0765148,0.00600783,-0.318886,0.322357
-0.473734,0.620051,0.29583,0.0765148,0.00600783,-0.318886,0.504669
-0.543522,0.467081,0.421056,0.121194,0.043491,-0.379542,0.504669
-0.579614,0.216301,0.516443,0.143723,0.0618405,-0.375096,0.504669
-0.693545,0.0296862,0.598722,0.143349,0.0512722,-0.305374,0.504669
-0.705073,0.0119259,0.678245,0.141604,0.0577063,-0.252857,0.504669
-0.563141,0.13904,0.754168,0.114876,0.0645331,-0.197221,0.504669
-0.292572,0.181055,0.736086,0.0729283,0.0706415,-0.137019,0.504669
0.0253513,0.0683841,0.626602,0.0297554,0.0613049,-0.0530798,0.504669
0.195908,-0.0220444,0.54376,0.0207289,0.0209391,0.072471,0.504669
0.145378,0.081097,0.537073,0.0156102,-0.0226929,0.171597,0.504669
-0.0161915,0.270962,0.564748,0.0130965,-0.0560063,0.192007,0.504669
-0.0798401,0.383781,0.601163,0.0438472,-0.0325271,0.123334,0.504669
0.0596827,0.33899,0.613142,0.0716958,0.0164471,0.0359771,0.504669
0.19438,0.198514,0.62729,0.0791356,0.0276674,0.039197,0.504669
0.284234,0.0171935,0.663204,0.0788517,0.0252006,0.0847789,0.504669
0.307978,-0.120696,0.687859,0.0528837,0.0226993,0.15613,0.504669
0.352824,-0.208391,0.687496,0.0191673,0.0286625,0.218949,0.504669
0.453553,-0.267298,0.653278,-0.0137775,0.0300701,0.271784,0.504669
0.494058,-0.258463,0.60005,-0.0356208,0.0309653,0.3377,0.504669
0.453254,-0.203908,0.576477,-0.0511333,0.00883004,0.386014,0.504669
0.344746,-0.0983933,0.566767,-0.0559044,0.00639089,0.386784,0.504669
0.127743,0.0060265,0.585765,-0.0501408,-0.00434421,0.38088,0.504669
-0.055599,0.0543464,0.615696,-0.0372883,-0.00318165,0.300438,0.504669
-0.133407,0.0489633,0.663388,-0.00777541,0.0110541,0.200737,0.504669
-0.170365,0.0335588,0.685737,-2.95714e-05,0.012004,0.135861,0.504669
-0.269779,0.00844824,0.680454,-0.0019392,0.00540003,0.0999144,0.504669
-0.431163,-0.0530831,0.690909,0.015745,-0.00463961,0.0754384,0.504669
-0.583532,-0.0912131,0.71504,0.0134559,-0.012612,0.0222648,0.504669
-0.600926,-0.118038,0.702387,0.010561,-0.00927716,-0.052604,0.504669
-0.429336,-0.145745,0.586174,-0.0171857,-0.00140554,-0.122608,0.504669
-0.168681,-0.127456,0.469859,-0.0123543,-0.0226108,-0.125143,0.504669
0.00346756,-0.0729482,0.41361,0.0080449,-0.0642137,-0.0619712,0.504669
0.0146029,-0.025559,0.392796,0.0166564,-0.11027,0.0320876,0.504669
-0.00830508,0.0157679,0.37929,0.0218877,-0.134021,0.0741288,0.504669
-0.00688729,-0.00481121,0.375744,0.0397189,-0.147874,0.0919188,0.504669
-0.0546353,-0.0697638,0.411995,0.0623722,-0.165526,0.109392,0.504669
-0.158617,-0.113409,0.478923,0.0804793,-0.185388,0.116595,0.504669
-0.203131,-0.0948327,0.567991,0.0841197,-0.195705,0.0734254,0.504669
-0.133329,-0.0663459,0.622685,0.0759073,-0.180439,0.00303984,0.504669
-0.042149,-0.0995229,0.642354,0.0662727,-0.171852,-0.0275682,0.504669
-0.0557823,-0.106091,0.680336,0.0483428,-0.184667,-0.028135,0.504669
-0.0972333,-0.148523,0.714552,0.0327337,-0.185184,-0.0552374,0.504669
-0.0682059,-0.217738,0.718911,0.0279447,-0.164522,-0.117625,0.504669
0.0650608,-0.301168,0.718779,0.027289,-0.126201,-0.174832,0.504669
0.284867,-0.413314,0.617985,-0.00529154,-0.0758116,-0.216842,0.504669
0.526338,-0.490317,0.496177,-0.0267387,-0.0621729,-0.213905,0.504669
0.604538,-0.465435,0.39683,-0.0509138,-0.0775096,-0.155783,0.504669
0.523139,-0.288958,0.385359,-0.0273474,-0.0752139,-0.127666,0.504669
0.287861,0.0306466,0.486559,0.00974458,-0.070684,-0.137293,0.504669
0.105776,0.174798,0.614471,0.0683054,-0.00774082,-0.215837,0.504669
0.118247,-0.0169013,0.627967,0.0940097,0.082889,-0.300128,0.504669
0.273301,-0.324618,0.602403,0.116831,0.125828,-0.31909,0.504669
0.363032,-0.502382,0.622871,0.12682,0.114341,-0.232897,0.504669
0.367945,-0.458595,0.653861,0.0971672,0.102756,-0.121103,0.504669
0.509865,-0.243953,0.623135,0.0648704,0.118799,-0.0896183,0.504669
0.753579,-0.0276112,0.525405,0.0564271,0.13852,-0.0421703,0.504669
0.943189,0.137458,0.457692,0.0716181,0.13141,0.0267558,0.504669
0.972385,0.221961,0.456427,0.0891322,0.109186,0.107971,0.504669
0.759594,0.290706,0.512319,0.0931828,0.0876537,0.181439,0.504669
0.477671,0.264553,0.57675,0.0988156,0.0774775,0.171199,0.504669
0.253137,0.204118,0.655546,0.112529,0.0969886,0.126642,0.504669
0.152507,0.162203,0.741732,0.126306,0.129392,0.0531409,0.504669
0.117767,0.13478,0.79113,0.117199,0.152995,0.0211922,0.504669
0.0474841,0.0870981,0.789405,0.100624,0.162978,0.0177488,0.504669
0.00174296,0.0298046,0.770587,0.0941646,0.170312,0.00510621,0.504669
0.0643872,0.00239938,0.707986,0.0726323,0.175697,-0.00670266,0.504669
0.172999,0.0917412,0.633609,0.0457976,0.176789,-0.000770748,0.504669
0.265978,0.218075,0.532455,0.0139529,0.161312,0.0356672,0.504669
0.32511,0.370681,0.508496,0.0246355,0.137779,0.0737941,0.504669
0.22618,0.436394,0.509314,0.0173614,0.097853,0.146173,0.504669
-0.039959,0.367312,0.511195,0.0140414,0.0630459,0.188113,0.504669
-0.169684,0.296812,0.505906,0.00405,0.0564855,0.126256,0.504669
-0.147109,0.335569,0.529446,0.00569617,0.0548644,0.0653552,0.504669
-0.100164,0.425441,0.519891,-0.0201711,0.049331,0.0495726,0.504669
-0.0902787,0.494762,0.482085,-0.0386068,0.0521609,0.0464755,0.504669
-0.116844,0.498549,0.442191,-0.0349756,0.0465477,0.0484086,0.504669
-0.22934,0.471423,0.468094,-0.0232781,0.0218092,0.0586874,0.504669
-0.22934,0.471423,0.468094,-0.0232781,0.0218092,0.0586874,0.718704
-0.258579,0.382906,0.49353,-0.0221112,0.0186471,0.0190206,0.718704
-0.221415,0.389096,0.469554,-0.0539964,0.0200505,-0.00217611,0.718704
-0.23621,0.427114,0.41062,-0.0708249,-0.00226699,0.00375718,0.718704
-0.287536,0.429101,0.416761,-0.046343,-0.0268408,-0.00206339,0.718704
-0.256437,0.346891,0.440703,-0.0315825,-0.0327572,-0.040747,0.718704
-0.191513,0.310247,0.437915,-0.0400663,-0.0320509,-0.0449632,0.718704
-0.163801,0.365448,0.409583,-0.0705308,-0.0508116,-0.0275215,0.718704
-0.124641,0.450373,0.375672,-0.0704165,-0.060454,-0.0475406,0.718704
-0.118883,0.437947,0.365841,-0.0501028,-0.0756632,-0.0638031,0.718704
-0.174916,0.337666,0.385622,-0.0332721,-0.0945709,-0.0717969,0.718704
-0.255156,0.363638,0.469675,-0.0306954,-0.111117,-0.0989513,0.718704
-0.266275,0.364901,0.496376,-0.0467061,-0.0949852,-0.169245,0.718704
-0.235107,0.316797,0.469249,-0.0546459,-0.0654494,-0.223961,0.718704
-0.135377,0.278432,0.46054,-0.0274327,-0.041211,-0.300015,0.718704
-0.120095,0.272308,0.520501,0.0126081,-0.0247796,-0.315725,0.718704
-0.235655,0.225204,0.536919,0.00828477,-0.0216359,-0.31266,0.718704
-0.328251,0.210951,0.532371,0.00706789,-0.000343703,-0.307402,0.718704
-0.306399,0.318888,0.554664,0.0168088,0.0227688,-0.298249,0.718704
-0.223041,0.459444,0.523838,0.0302403,0.0694541,-0.234897,0.718704
-0.169362,0.623931,0.446547,0.0467042,0.103674,-0.138221,0.718704
-0.283942,0.707519,0.390306,0.0699422,0.102844,-0.0147599,0.718704
-0.485269,0.595174,0.424668,0.123393,0.103728,0.0424312,0.718704
-0.527187,0.146128,0.496773,0.148733,0.114214,0.00228018,0.718704
-0.434597,-0.293083,0.485558,0.105974,0.117106,-0.00591046,0.718704
-0.366946,-0.466481,0.44664,0.0555956,0.0918338,0.0241343,0.718704
-0.305959,-0.329867,0.433377,0.0289548,0.07375,0.0351327,0.718704
-0.215636,0.0340344,0.4061,0.0182441,0.0764397,0.00948477,0.718704
-0.0961783,0.417328,0.333218,0.0168819,0.0961856,-0.0230442,0.718704
0.110579,0.552848,0.310258,0.0822406,0.101887,-0.0565654,0.718704
0.255327,0.453492,0.336204,0.114323,0.0765117,-0.0233814,0.718704
0.245248,0.22795,0.344874,0.103222,0.0409272,0.0681875,0.718704
0.112623,-0.0267481,0.385506,0.0964881,0.00277349,0.160673,0.718704
0.062243,-0.195726,0.407928,0.0739325,-0.0102756,0.194112,0.718704
0.114914,-0.193627,0.430833,0.0340781,-0.0150658,0.203072,0.718704
0.272261,-0.15878,0.399625,0.00203159,-0.00266621,0.196239,0.718704
0.40786,-0.111915,0.32272,-0.0144886,0.00640602,0.210161,0.718704
0.51479,-0.0697465,0.274344,-0.00855142,0.00739413,0.200761,0.718704
0.520381,-0.0492477,0.281298,0.01364,0.00572422,0.204332,0.718704
0.456881,-0.123089,0.310191,0.0250796,5.08428e-05,0.189221,0.718704
0.332556,-0.260756,0.352496,0.0415325,0.000489116,0.168742,0.718704
0.201692,-0.306369,0.386499,0.0521966,-0.00731055,0.129438,0.718704
0.140548,-0.221055,0.446386,0.0598896,-0.00136581,0.0808609,0.718704
0.12259,-0.0996097,0.507061,0.0785053,0.0047996,0.0559479,0.718704
0.039413,-0.0478932,0.569859,0.0803946,0.00408697,0.0685737,0.718704
-0.0951298,-0.0557574,0.569845,0.0676419,0.0161459,0.0759547,0.718704
-0.19721,-0.018333,0.588708,0.0686548,0.0194837,0.0536216,0.718704
-0.231879,0.0102014,0.553222,0.0450543,0.02922,0.0450256,0.718704
-0.220443,0.0158696,0.485813,0.0281518,0.038259,0.0415289,0.718704
-0.150321,-0.0120066,0.393689,0.0224982,0.0402487,0.0398651,0.718704
-0.108454,0.0024774,0.324991,0.0233275,0.0286672,0.0648764,0.718704
-0.157377,0.0736856,0.291563,0.0200839,-0.00370228,0.105674,0.718704
-0.179465,0.125703,0.297485,0.0419725,-0.0167756,0.0887386,0.718704
-0.168135,0.153051,0.342946,0.0567098,-0.0304055,0.0565063,0.718704
-0.185936,0.135243,0.344268,0.0550983,-0.036687,0.0361126,0.718704
-0.185936,0.135243,0.344268,0.0550983,-0.036687,0.0361126,0.745132
-0.205081,0.0484332,0.327963,0.0523355,-0.0468129,0.0116587,0.745132
-0.208636,-0.0492663,0.305613,0.0546391,-0.0478478,-0.0195096,0.745132
-0.238709,-0.00521458,0.317932,0.0420913,-0.0609393,-0.0352115,0.745132
-0.252331,0.11313,0.280266,0.00438013,-0.0611898,-0.0871671,0.745132
-0.222089,0.173421,0.179098,-0.00447781,-0.0425737,-0.165274,0.745132
-0.158067,0.172614,0.0896685,0.00555296,-0.0371544,-0.242245,0.745132
-0.00253473,0.0765217,-0.031279,0.00081563,-0.0271643,-0.324933,0.745132
0.166602,-0.0496264,-0.138742,-0.000125863,-0.01758,-0.324371,0.745132
0.196813,-0.127958,-0.195617,-0.000853345,-0.0415428,-0.264814,0.745132
0.169356,-0.141978,-0.20883,-0.00107824,-0.054661,-0.233203,0.745132
0.164074,-0.131745,-0.249376,-0.00457527,-0.0473523,-0.223168,0.745132
0.0719502,-0.130085,-0.254377,0.00241315,-0.0603904,-0.193263,0.745132
-0.135848,-0.138806,-0.202518,0.0222227,-0.0716801,-0.143798,0.745132
-0.380024,-0.0858345,-0.143113,0.0138885,-0.06982,-0.137064,0.745132
-0.477544,0.00823156,-0.133094,0.00585507,-0.0253936,-0.202119,0.745132
-0.38093,0.0104026,-0.185697,0.0105811,0.0271469,-0.26176,0.745132
-0.167973,-0.0861635,-0.262803,0.027662,0.05715,-0.255193,0.745132
0.0432673,-0.179919,-0.313525,0.0390918,0.0611441,-0.221805,0.745132
0.243558,-0.234746,-0.346717,0.033767,0.0596018,-0.126293,0.745132
0.410574,-0.309487,-0.443386,0.0124806,0.0700574,-0.0327368,0.745132
0.497288,-0.275146,-0.496461,-0.00592331,0.0609155,0.0509216,0.745132
0.453492,-0.174906,-0.438047,0.000293173,0.0313045,0.127839,0.745132
0.396378,-0.053193,-0.310841,0.0227626,0.0209527,0.160498,0.745132
0.387144,0.0281703,-0.21134,0.0323189,0.0298406,0.145069,0.745132
0.457409,0.02148,-0.166952,0.0291112,0.0669752,0.110127,0.745132
0.526549,-0.0428497,-0.0788977,0.0412337,0.0843347,0.0974792,0.745132
0.520814,-0.144677,-0.00282167,0.0502331,0.0850219,0.126047,0.745132
0.47542,-0.220346,0.0442158,0.0282163,0.0831024,0.181895,0.745132
0.442013,-0.248279,0.0761848,0.00881767,0.0881657,0.204135,0.745132
0.41605,-0.186983,0.11622,-0.00996448,0.0947196,0.224158,0.745132
0.371867,-0.124936,0.114583,-0.0278211,0.0967743,0.226959,0.745132
0.292779,-0.144012,0.094335,-0.0514505,0.100395,0.212113,0.745132
0.190721,-0.179305,0.137515,-0.0254843,0.100795,0.199179,0.745132
0.12889,-0.143089,0.160985,-0.0333152,0.086827,0.147599,0.745132
0.103275,-0.102927,0.150851,-0.054282,0.0998853,0.115024,0.745132
0.0843699,-0.0361692,0.131555,-0.0606252,0.0996077,0.0869994,0.745132
-0.00179171,0.00375612,0.13591,-0.0554831,0.0911885,0.0648517,0.745132
-0.0962165,0.0443571,0.146839,-0.0525595,0.0768733,0.0662797,0.745132
-0.137758,0.0227511,0.155707,-0.029325,0.0894357,-0.000331044,0.745132
-0.168288,-0.0448653,0.145184,-0.0336662,0.0927177,-0.02336,0.745132
-0.205532,-0.147157,0.0918297,-0.038525,0.0972872,-0.0220248,0.745132
-0.262483,-0.214972,0.0225238,-0.0505622,0.0865418,-0.00741786,0.745132
-0.287669,-0.198378,-0.00876466,-0.0480273,0.0741712,0.000176609,0.745132
-0.309884,-0.121481,-0.0527857,-0.0586326,0.0643888,0.022498,0.745132
-0.285676,-0.060267,-0.128714,-0.0664166,0.0623813,0.0189607,0.745132
-0.263361,-0.0574335,-0.220138,-0.0604229,0.0566048,0.0393268,0.745132
-0.262437,-0.0474079,-0.281117,-0.0456684,0.0298472,0.0616806,0.745132
-0.301302,-0.0389279,-0.286986,-0.0210654,0.00596336,0.0923317,0.745132
-0.359455,-0.0491944,-0.317847,-0.0335241,-0.00985728,0.106325,0.745132
-0.400339,-0.0549953,-0.363305,-0.0422704,-0.0154688,0.101233,0.745132
-0.375502,0.00227841,-0.421479,-0.0502701,-0.0218981,0.0715585,0.745132
-0.339469,0.104875,-0.426504,-0.0372851,-0.0339833,0.0500665,0.745132
-0.323746,0.156289,-0.43929,-0.0399517,-0.0439054,0.0238956,0.745132
-0.352682,0.146751,-0.456586,-0.0270212,-0.052054,0.017216,0.745132
-0.352682,0.146751,-0.456586,-0.0270212,-0.052054,0.017216,0.945938
-0.378822,0.125889,-0.438677,-0.0113734,-0.0706244,-0.00401068,0.945938
-0.3807,0.0957506,-0.406373,-0.00211337,-0.0761746,-0.0240811,0.945938
-0.342209,0.076292,-0.391327,-0.00459103,-0.08063,-0.0447096,0.945938
-0.290298,0.0915718,-0.366064,-0.000498671,-0.0899063,-0.0447515,0.945938
-0.275662,0.106569,-0.331836,-0.00917209,-0.105654,-0.0275379,0.945938
-0.224076,0.0780675,-0.320475,-0.0118877,-0.100346,-0.0378389,0.945938
-0.180129,0.0381939,-0.315403,-0.0180254,-0.101007,-0.0195286,0.945938
-0.132349,0.0260232,-0.292195,-0.0275382,-0.112759,0.00343359,0.945938
-0.0966832,0.0170959,-0.280253,-0.037738,-0.113098,0.0258299,0.945938
-0.0854461,0.0730082,-0.269076,-0.0485102,-0.110702,0.0310051,0.945938
-0.129785,0.109409,-0.238269,-0.0457691,-0.122028,0.0313643,0.945938
-0.182995,0.0864669,-0.237981,-0.0472526,-0.115353,-0.0127063,0.945938
-0.263795,-0.00358309,-0.179744,-0.0204916,-0.124753,-0.052249,0.945938
-0.398452,-0.0609946,-0.0894581,-0.0193001,-0.140124,-0.0954236,0.945938
-0.490816,-0.0497767,-0.0139141,-0.023191,-0.116461,-0.177827,0.945938
-0.478839,0.0101691,0.00228492,-0.0387952,-0.0734009,-0.279619,0.945938
-0.222008,0.157036,-0.0246435,-0.0462674,-0.00561388,-0.416665,0.945938
0.144282,0.304574,-0.108772,-0.0520789,0.0355286,-0.461602,0.945938
0.355332,0.302965,-0.146605,-0.00489232,0.0268107,-0.426008,0.945938
0.43722,0.186014,-0.0919387,0.0329657,0.00987268,-0.350847,0.945938
0.447219,0.0337505,-0.0471256,0.0303968,-8.8647e-05,-0.27987,0.945938
0.317716,-0.0704491,-0.0370827,0.0198272,-0.0176224,-0.184701,0.945938
0.115227,0.00816655,0.0192785,0.0286613,-0.0268353,-0.151893,0.945938
-0.0457577,0.211307,0.11204,0.0437691,-0.0160872,-0.175455,0.945938
-0.142371,0.362126,0.184898,0.0576284,0.00760935,-0.215409,0.945938
-0.170287,0.387432,0.221279,0.0813346,0.0518385,-0.252579,0.945938
-0.0363534,0.213414,0.210257,0.103469,0.102604,-0.287847,0.945938
0.264182,-0.0677308,0.172939,0.12305,0.135607,-0.258653,0.945938
0.472263,-0.261325,0.178904,0.118009,0.106984,-0.0998394,0.945938
0.457851,-0.323968,0.196149,0.0957919,0.0744054,0.0954444,0.945938
0.315746,-0.203428,0.239713,0.0845096,0.0482875,0.214878,0.945938
0.203951,0.034034,0.263826,0.0843111,0.0515957,0.2221,0.945938
0.14551,0.28427,0.284653,0.103538,0.08104,0.201083,0.945938
0.122209,0.396666,0.277122,0.127817,0.0960625,0.181537,0.945938
0.0631861,0.406986,0.283338,0.139489,0.0944493,0.18123,0.945938
-0.0179239,0.262229,0.302021,0.14174,0.0843911,0.192627,0.945938
-0.0208463,0.0305486,0.275824,0.102232,0.0824722,0.205223,0.945938
0.0738415,-0.170603,0.237488,0.070786,0.0801367,0.231927,0.945938
0.350536,-0.233226,0.18698,0.0400879,0.0906254,0.210463,0.945938
0.530581,-0.138145,0.0979191,0.0115075,0.0842824,0.279043,0.945938
0.592596,-0.0280279,0.0523258,0.00351526,0.0554464,0.321283,0.945938
0.557717,0.00823494,0.0453409,0.0232808,0.0436726,0.331959,0.945938
0.508615,-0.0160283,0.0787588,0.0255491,0.0315653,0.293039,0.945938
0.416185,-0.0553361,0.104607,0.0281461,0.0336561,0.261805,0.945938
0.367751,-0.0672954,0.129615,0.022061,0.0318126,0.19316,0.945938
0.251675,-0.0522844,0.15396,0.0278124,0.0283844,0.177888,0.945938
0.0382899,0.0404921,0.24272,0.0461513,0.00189072,0.16923,0.945938
-0.261977,0.146641,0.397941,0.0687683,-0.0238873,0.152126,0.945938
-0.504803,0.154651,0.562944,0.100535,-0.0196959,0.0998538,0.945938
-0.646584,0.0944037,0.693979,0.108134,-0.0107241,0.0243874,0.945938
-0.668624,-0.0719044,0.726764,0.0843774,0.0116048,-0.0431254,0.945938
-0.547206,-0.246725,0.64968,0.054947,0.0226991,-0.0969764,0.945938
-0.384492,-0.289044,0.536937,0.0189628,0.00360322,-0.0946323,0.945938
-0.232495,-0.180952,0.436408,0.00408049,-0.0262115,-0.0658872,0.945938
-0.232495,-0.180952,0.436408,0.00408049,-0.0262115,-0.0658872,1.12299
-0.123691,-0.0434487,0.352166,0.00844512,-0.0605247,-0.0347416,1.12299
-0.0683725,0.0219405,0.301188,0.0418688,-0.0880976,-0.00764394,1.12299
-0.0352434,0.00825668,0.276439,0.0695942,-0.102835,-0.0139377,1.12299
0.0138849,0.00137944,0.284614,0.0873554,-0.108371,-0.0130872,1.12299
0.071831,0.0421776,0.311052,0.088877,-0.121537,-0.0121058,1.12299
0.0732517,0.083744,0.32119,0.0740507,-0.127288,-0.00246119,1.12299
0.0727732,0.0689975,0.294288,0.0682294,-0.119747,-0.0201561,1.12299
0.0269502,-0.0198175,0.292876,0.0810222,-0.12173,-0.0289966,1.12299
-0.0155153,-0.080228,0.314298,0.067413,-0.108497,-0.0424197,1.12299
0.00452853,-0.0454205,0.286441,0.0234186,-0.0882787,-0.0868641,1.12299
-0.0113696,-0.0103983,0.200073,-0.0139386,-0.0676921,-0.117524,1.12299
0.0689888,-0.00759316,0.0830993,-0.0273698,-0.0437702,-0.192323,1.12299
0.289547,0.00814289,-0.0677038,-0.0343873,0.0083074,-0.292457,1.12299
0.375004,0.0371251,-0.222875,-0.0366052,0.0207416,-0.287166,1.12299
0.267816,0.0289272,-0.247276,0.00335401,-0.0101769,-0.269218,1.12299
-0.0069892,-0.0167909,-0.153747,0.0347559,-0.0316363,-0.235532,1.12299
-0.32847,-0.0745888,-0.0608715,0.0378268,-0.0353679,-0.232509,1.12299
-0.553699,-0.12201,-0.00934176,0.0155428,-0.00513419,-0.256001,1.12299
-0.504017,-0.176787,-0.048583,0.00171995,0.0621982,-0.308108,1.12299
-0.27933,-0.14954,-0.0837154,0.0058929,0.0843197,-0.311533,1.12299
-0.0670626,-0.0988001,-0.123704,0.00657733,0.0880474,-0.239184,1.12299
0.126763,-0.0286644,-0.21039,-0.0196117,0.0932893,-0.148701,1.12299
0.311759,-0.0683251,-0.297874,-0.0115656,0.0924513,-0.0371799,1.12299
0.379193,-0.200247,-0.343929,-0.00571465,0.062598,0.0831915,1.12299
0.334666,-0.283326,-0.337999,0.00825405,0.0416394,0.158872,1.12299
0.267347,-0.244344,-0.284609,0.00496882,0.0252147,0.190998,1.12299
0.21947,-0.0865803,-0.221818,-0.0010103,0.0303481,0.180501,1.12299
0.247517,-0.0120233,-0.174452,0.014115,0.047204,0.139976,1.12299
0.258856,-0.0565091,-0.114098,0.0398791,0.0612658,0.134328,1.12299
0.267922,-0.155837,-0.0521373,0.0492937,0.0663463,0.142736,1.12299
0.314727,-0.204047,0.00729952,0.0360786,0.0736224,0.153346,1.12299
0.378011,-0.182804,0.0486769,0.00673123,0.0825279,0.17127,1.12299
0.436587,-0.169938,0.0437387,-0.0164144,0.0880501,0.192469,1.12299
0.398509,-0.195639,0.0503172,-0.0224453,0.0763501,0.237588,1.12299
0.299518,-0.212859,0.0733766,-0.0280345,0.0679691,0.257629,1.12299
0.189993,-0.166415,0.119861,-0.0317072,0.0625892,0.236768,1.12299
0.111282,-0.129574,0.159185,-0.0366724,0.0703509,0.193992,1.12299
0.053739,-0.145941,0.18496,-0.0376685,0.0748456,0.153188,1.12299
0.0149835,-0.1191,0.213944,-0.0415147,0.0753609,0.112936,1.12299
-0.0353691,-0.0500714,0.217529,-0.0533508,0.083996,0.0821232,1.12299
-0.0847835,-0.022371,0.249092,-0.0395029,0.0762045,0.0548207,1.12299
-0.178597,-0.0939778,0.21719,-0.0595284,0.0683871,0.0413231,1.12299
-0.23627,-0.169171,0.167235,-0.058721,0.0699706,0.0254657,1.12299
-0.229225,-0.200084,0.126199,-0.0543802,0.0621327,0.00750124,1.12299
-0.21207,-0.128468,0.0950478,-0.0613137,0.0481078,0.0160245,1.12299
-0.189046,-0.0143765,0.0320963,-0.078661,0.036679,0.0174493,1.12299
-0.218397,0.0478401,-0.0497673,-0.0733136,0.022443,0.0318931,1.12299
-0.236392,0.0684045,-0.0670932,-0.0311655,0.00848414,0.0182284,1.12299
-0.287245,0.00852301,-0.0798933,-0.0191645,-0.00668979,0.0221139,1.12299
-0.349066,-0.0578577,-0.102102,-0.0188905,-0.018475,0.0192527,1.12299
-0.328099,-0.0784603,-0.117594,-0.00732364,-0.0214545,5.47171e-05,1.12299
-0.299178,-0.00198326,-0.124058,-0.016922,-0.0341369,0.001993,1.12299
-0.247209,0.123107,-0.159366,-0.0248627,-0.033261,0.00352204,1.12299
-0.18571,0.16627,-0.191406,-0.0155935,-0.0402984,0.00112355,1.12299
-0.18571,0.16627,-0.191406,-0.0155935,-0.0402984,0.00112355,1.29208
-0.200611,0.10366,-0.215967,-0.000688892,-0.0537338,0.0251477,1.29208
-0.248054,0.0201394,-0.218291,-0.000458088,-0.0683751,0.0411733,1.29208
-0.215926,0.000356393,-0.217184,-0.00849674,-0.0656007,0.0420322,1.29208
-0.155904,0.0786899,-0.205375,-0.02014,-0.0686963,0.0493998,1.29208
-0.103797,0.168082,-0.228795,-0.042371,-0.0709697,0.0520936,1.29208
-0.144592,0.16799,-0.246328,-0.0298499,-0.0779499,0.0678093,1.29208
-0.197707,0.157269,-0.268001,-0.0346672,-0.0925725,0.047059,1.29208
-0.248769,0.140313,-0.249015,-0.0177386,-0.0951542,0.0149245,1.29208
-0.32925,0.132991,-0.176736,-0.00654249,-0.107251,-0.0123399,1.29208
-0.383597,0.15308,-0.101906,-0.0143212,-0.101534,-0.0754857,1.29208
-0.382012,0.202597,-0.0748902,-0.0397256,-0.0863098,-0.147548,1.29208
-0.343816,0.249683,-0.0714657,-0.0490704,-0.0660806,-0.235656,1.29208
-0.246979,0.278854,-0.0542137,-0.0312056,-0.0431213,-0.331716,1.29208
-0.0738734,0.309272,-0.0295849,-0.0320102,-0.0246538,-0.411845,1.29208
0.0909874,0.316067,-0.0404439,-0.0350976,-0.000245739,-0.44369,1.29208
0.204503,0.204481,-0.0445753,-0.00228216,0.00367855,-0.421735,1.29208
0.216573,0.0754598,0.0141979,0.0166899,-0.0131084,-0.353523,1.29208
0.150268,0.0201645,0.0579781,0.00402069,-0.0259838,-0.272862,1.29208
0.0724573,0.0796019,0.0891367,-0.00574375,-0.0224871,-0.22667,1.29208
-0.00951206,0.180816,0.12339,-0.00355082,-0.0170455,-0.190482,1.29208
-0.08682,0.260107,0.139883,-0.00243845,-0.00808315,-0.166665,1.29208
-0.157338,0.323681,0.164759,0.00849566,0.00536886,-0.151136,1.29208
-0.183558,0.326351,0.170168,0.0197522,0.0288373,-0.147634,1.29208
-0.118964,0.278123,0.167902,0.0353152,0.0539717,-0.14221,1.29208
0.00856825,0.294007,0.148893,0.0278924,0.0649318,-0.10307,1.29208
0.258062,0.260816,0.0759059,0.0266234,0.0964556,-0.0898812,1.29208
0.512831,0.169307,0.00159616,0.0456996,0.109928,-0.0302565,1.29208
0.513948,0.169055,-0.0172808,0.0473809,0.072457,0.105279,1.29208
0.443033,0.305403,-0.0170328,0.046499,0.0685746,0.140952,1.29208
0.513337,0.431447,-0.0728271,0.0466626,0.106855,0.0941471,1.29208
0.711245,0.462692,-0.160995,0.0620364,0.140384,0.0735415,1.29208
0.896622,0.410802,-0.207162,0.082614,0.140281,0.112528,1.29208
0.959255,0.265764,-0.21014,0.087603,0.114431,0.202256,1.29208
0.870486,0.0823913,-0.197428,0.0774002,0.0855531,0.299512,1.29208
0.724778,-0.06693,-0.158328,0.0660179,0.0624046,0.365008,1.29208
0.558539,-0.149995,-0.109242,0.0618311,0.0473373,0.394106,1.29208
0.424897,-0.182122,-0.00661671,0.0691671,0.0422324,0.384642,1.29208
0.325826,-0.136891,0.05424,0.0433826,0.0311356,0.350277,1.29208
0.185916,-0.0350671,0.180522,0.0508635,0.0131058,0.295992,1.29208
0.131287,-0.126208,0.251693,0.0523497,0.0204125,0.19415,1.29208
0.0241852,-0.349133,0.285373,0.0578687,0.014383,0.149012,1.29208
-0.128729,-0.552063,0.360058,0.0612881,-0.0040269,0.127416,1.29208
-0.20195,-0.620253,0.453135,0.051566,0.0070267,0.0959496,1.29208
-0.312677,-0.443452,0.504936,0.0108263,-0.00435647,0.116019,1.29208
-0.426735,-0.104643,0.515032,-0.023868,-0.00868893,0.107214,1.29208
-0.404888,0.132532,0.456496,-0.0242703,0.0216744,0.0428388,1.29208
-0.353017,0.18932,0.391691,0.00673014,0.0294978,0.0232765,1.29208
-0.336333,0.127443,0.350976,0.0325827,0.0172077,0.0216809,1.29208
-0.363172,0.00928528,0.304396,0.0380154,0.000246912,0.0263335,1.29208
-0.386528,-0.0656356,0.25712,0.0412795,-0.0203494,0.0164371,1.29208
-0.33668,-0.0401661,0.228648,0.0382915,-0.0371449,0.00711823,1.29208
-0.23323,0.0097981,0.164899,0.0359542,-0.0406734,-0.0149928,1.29208
-0.158803,0.0460683,0.114573,0.0542721,-0.0594449,0.00545532,1.29208
-0.156836,0.0209069,0.140777,0.0866768,-0.0884578,0.0427357,1.29208
-0.156836,0.0209069,0.140777,0.0866768,-0.0884578,0.0427357,1.45062
-0.208219,-0.0311722,0.198183,0.0992064,-0.103566,0.0610889,1.45062
-0.247268,-0.0509706,0.276011,0.10723,-0.109018,0.0649931,1.45062
-0.270187,-0.0628595,0.286087,0.0942598,-0.109278,0.0357777,1.45062
-0.27492,-0.0227339,0.265829,0.0742054,-0.112678,0.0103246,1.45062
-0.197688,0.0800819,0.261325,0.0686148,-0.104568,-0.0463478,1.45062
-0.186025,0.196699,0.259337,0.0739959,-0.107825,-0.0974585,1.45062
-0.245873,0.29501,0.135308,0.0526328,-0.109506,-0.128211,1.45062
-0.314175,0.494898,-0.0386517,-0.00234339,-0.103199,-0.223028,1.45062
-0.163067,0.667665,-0.136916,0.0260279,-0.0806492,-0.388609,1.45062
0.178166,0.641707,-0.0809262,0.107426,-0.0380641,-0.540415,1.45062
0.437007,0.393622,0.0414992,0.166309,-0.0334344,-0.577969,1.45062
0.318103,-0.0134842,0.134552,0.182495,-0.0622334,-0.483284,1.45062
-0.120019,-0.454347,0.206007,0.160705,-0.117793,-0.31288,1.45062
-0.451367,-0.605397,0.330289,0.15258,-0.138324,-0.220748,1.45062
-0.492827,-0.533436,0.447881,0.123861,-0.110349,-0.229409,1.45062
-0.329934,-0.426238,0.456039,0.0834825,-0.0434515,-0.240109,1.45062
0.0174128,-0.379463,0.324409,0.0277015,0.0290037,-0.230163,1.45062
0.432221,-0.354476,0.180049,-0.012996,0.0793966,-0.184018,1.45062
0.649741,-0.294542,0.14124,-0.0159907,0.0761744,-0.07544,1.45062
0.543705,-0.223067,0.194394,-0.0106016,0.0376252,0.0877373,1.45062
0.233051,-0.0995285,0.289446,-0.0121574,-0.00554158,0.2152,1.45062
0.147438,0.059305,0.379626,-0.027633,-0.00240135,0.198279,1.45062
0.339279,0.192072,0.463009,-0.000551138,0.0786135,0.0467516,1.45062
0.48986,0.172031,0.531823,0.023568,0.125968,0.00412863,1.45062
0.53542,0.0306392,0.575267,0.0365429,0.140364,0.0690711,1.45062
0.534707,-0.120444,0.617958,0.0351716,0.142686,0.143315,1.45062
0.538242,-0.246991,0.6542,0.0313886,0.144154,0.234392,1.45062
0.553391,-0.317163,0.678036,0.0253513,0.15022,0.323438,1.45062
0.404581,-0.300652,0.665523,0.0106426,0.141443,0.411966,1.45062
0.247136,-0.199186,0.63191,-0.0120495,0.141463,0.482413,1.45062
0.17416,-0.0807095,0.570549,-0.0269135,0.140532,0.482496,1.45062
0.142821,-0.035169,0.52743,-0.0228406,0.145202,0.415217,1.45062
-0.0301702,-0.0540847,0.525903,-0.00255536,0.111474,0.343276,1.45062
-0.177552,0.000501679,0.622708,0.00901523,0.0821042,0.244907,1.45062
-0.196356,0.0752168,0.788472,0.0467837,0.0655873,0.0958328,1.45062
-0.188015,0.106678,0.846129,0.0364991,0.0683554,-0.0199755,1.45062
-0.184594,0.0544881,0.762908,-0.00060387,0.07188,-0.0552363,1.45062
-0.200568,0.0560248,0.706498,-0.0103294,0.0628984,-0.0647083,1.45062
-0.230971,0.124531,0.701225,0.00538236,0.0322998,-0.0401494,1.45062
-0.288999,0.193328,0.744128,0.0243078,0.00868167,-0.0079264,1.45062
-0.323822,0.186189,0.754192,0.0327812,0.000176325,0.016559,1.45062
-0.305081,0.103745,0.71853,0.0282259,0.00675371,0.0192143,1.45062
-0.303923,0.0816221,0.685869,0.0175892,-0.00284769,0.0409145,1.45062
-0.342527,0.137419,0.660909,-0.00337215,-0.0287494,0.0789602,1.45062
-0.36169,0.188858,0.665126,-0.00933013,-0.0453528,0.0878946,1.45062
-0.318742,0.161772,0.618012,-0.00168495,-0.0473347,0.0661482,1.45062
-0.240646,0.159437,0.542913,-0.0166966,-0.036547,0.0474045,1.45062
-0.187629,0.249062,0.541946,-0.0224431,-0.0505378,0.047774,1.45062
-0.200283,0.356095,0.560882,-0.0266584,-0.0844875,0.0569025,1.45062
-0.252156,0.366645,0.597253,-0.0275403,-0.105872,0.0516996,1.45062
-0.316464,0.343159,0.624743,-0.0277687,-0.119102,0.0335268,1.45062
-0.303808,0.310976,0.641589,-0.0296176,-0.120358,-0.0101893,1.45062
-0.223075,0.303888,0.654449,-0.0376448,-0.112241,-0.0563108,1.45062
-0.108485,0.266447,0.655074,-0.0427039,-0.109892,-0.112755,1.45062
-0.108485,0.266447,0.655074,-0.0427039,-0.109892,-0.112755,1.61446
-0.070746,0.264166,0.656597,-0.0465913,-0.112247,-0.093964,1.61446
0.00533221,0.244835,0.644612,-0.0509824,-0.112639,-0.104308,1.61446
0.136592,0.22163,0.600226,-0.0541465,-0.0938767,-0.11352,1.61446
0.288428,0.205628,0.553638,-0.0476923,-0.0837348,-0.111839,1.61446
0.329186,0.210603,0.528531,-0.0497665,-0.0846157,-0.106474,1.61446
0.151437,0.19953,0.573084,-0.0373134,-0.116789,-0.0673455,1.61446
-0.0502603,0.270941,0.700088,0.0138635,-0.131486,-0.0416324,1.61446
-0.171717,0.456858,0.845247,0.04148,-0.140988,-0.0909051,1.61446
-0.260042,0.553267,0.951823,0.0679385,-0.0956705,-0.115957,1.61446
-0.283775,0.521772,1.07386,0.0918421,-0.0604486,-0.129658,1.61446
-0.311035,0.361001,1.11287,0.110809,-0.0310109,-0.127088,1.61446
-0.388804,0.24014,1.13287,0.105643,-0.00490063,-0.0802259,1.61446
-0.35951,0.198536,1.17002,0.0975598,0.0027648,-0.073016,1.61446
-0.193263,0.215499,1.13264,0.0962429,0.0433591,-0.0778789,1.61446
0.124598,0.202516,1.00345,0.0578479,0.0775911,-0.0816312,1.61446
0.47559,0.163873,0.905602,0.0588245,0.106069,-0.0714134,1.61446
0.683173,0.126444,0.884809,0.0811037,0.107909,-0.0149382,1.61446
0.60366,0.146711,0.886648,0.0771483,0.0748729,0.0967168,1.61446
0.343487,0.27733,0.901487,0.0560767,0.0455,0.172279,1.61446
0.15409,0.3982,0.973274,0.0679874,0.0299538,0.161393,1.61446
0.0840318,0.39566,1.05627,0.114774,0.068309,0.0377635,1.61446
-0.0367632,0.330321,1.14295,0.137762,0.0988667,-0.0189026,1.61446
-0.148534,0.189237,1.15065,0.119875,0.114235,-0.0623502,1.61446
-0.144935,0.0165385,1.1128,0.0999485,0.13576,-0.109868,1.61446
0.00201459,-0.138772,1.02524,0.0789141,0.147506,-0.138535,1.61446
0.138221,-0.217968,0.937819,0.0557244,0.143152,-0.0872682,1.61446
0.162871,-0.20271,0.867654,0.0300023,0.112204,0.0121343,1.61446
0.0696043,-0.108945,0.803848,0.00559244,0.0638631,0.124419,1.61446
0.0540963,-0.0673654,0.75233,0.00359546,0.0401431,0.162393,1.61446
0.0679247,-0.0329141,0.684993,0.00539724,0.0334224,0.148331,1.61446
0.0210449,-0.00968923,0.637662,0.00304204,0.0136051,0.166124,1.61446
-0.019304,-0.025113,0.609307,0.0183778,-0.0110128,0.15817,1.61446
0.0192549,-0.0703626,0.561562,0.0207011,-0.00961159,0.115645,1.61446
0.046457,-0.0454635,0.49594,0.0117508,-0.00723541,0.0865619,1.61446
0.032332,0.0403947,0.469104,0.00654672,-0.0154082,0.0943617,1.61446
-0.0842735,0.11146,0.472071,0.0192838,-0.0374831,0.113001,1.61446
-0.307474,0.11231,0.477518,0.0141671,-0.0635943,0.148386,1.61446
-0.395138,0.0418661,0.472189,0.0159198,-0.0677724,0.122775,1.61446
-0.305086,-0.0358686,0.461345,0.0327153,-0.0502252,0.0398457,1.61446
-0.203334,-0.0712174,0.401914,0.0139318,-0.0441021,-0.00125802,1.61446
-0.159658,-0.0415997,0.374536,0.00914881,-0.0572907,0.00546193,1.61446
-0.182397,0.00327075,0.390062,0.0150696,-0.0876643,0.0188946,1.61446
-0.210072,0.00145509,0.367621,0.002001,-0.0949767,0.0115342,1.61446
-0.255935,0.00156695,0.348311,0.00540055,-0.0885664,-0.0399306,1.61446
-0.278289,0.0796921,0.325973,0.00330937,-0.0929498,-0.0847645,1.61446
-0.21734,0.123698,0.274494,0.00472567,-0.0696875,-0.182353,1.61446
-0.201,0.0719474,0.277699,0.0348911,-0.0554724,-0.226107,1.61446
-0.275324,-0.017579,0.301362,0.0540992,-0.0673169,-0.236888,1.61446
-0.391449,-0.0898214,0.328339,0.0744996,-0.058263,-0.228309,1.61446
-0.572503,-0.0665397,0.345756,0.0732135,-0.0538259,-0.223184,1.61446
-0.772703,-0.00489738,0.388723,0.0805136,-0.0527321,-0.203695,1.61446
-0.836652,0.0270688,0.401261,0.0801507,-0.0269546,-0.253453,1.61446
-0.753293,0.0257365,0.339083,0.0672074,0.0181922,-0.304476,1.61446
-0.535935,0.0123689,0.236917,0.0389884,0.0489033,-0.33802,1.61446
-0.535935,0.0123689,0.236917,0.0389884,0.0489033,-0.33802,1.79677
-0.259101,-0.0515264,0.15706,0.0253024,0.0589602,-0.326901,1.79677
0.0341111,-0.126738,0.0592603,0.00721714,0.0492432,-0.249868,1.79677
0.248503,-0.148565,-0.0502351,-0.0216919,0.0298456,-0.142391,1.79677
0.358938,-0.114413,-0.116608,-0.0437341,0.0106351,-0.00262833,1.79677
0.395548,0.00861903,-0.0601715,-0.0137801,-0.00929516,0.0424139,1.79677
0.367031,0.120148,-0.0133005,-0.00880537,-0.0288275,0.0686176,1.79677
0.372237,0.210163,-0.0119224,-0.018086,0.00777367,0.0422467,1.79677
0.520876,0.18002,0.000734027,-0.00111467,0.0546403,-0.0307131,1.79677
0.655821,0.0745208,0.030787,0.0369531,0.107329,-0.0650164,1.79677
0.646818,-0.00641883,0.0563495,0.0292236,0.10299,-0.00126302,1.79677
0.586796,0.0134886,0.0852777,-0.000763297,0.0913439,0.0831881,1.79677
0.531097,0.0941147,0.103621,-0.0198952,0.0838373,0.120783,1.79677
0.488142,0.171576,0.117993,-0.0372732,0.0853337,0.149545,1.79677
0.486575,0.167976,0.110231,-0.0301684,0.0969358,0.134119,1.79677
0.396179,0.123328,0.0878307,-0.026517,0.100609,0.151176,1.79677
0.270188,0.0600103,0.103238,-0.012857,0.0902785,0.186267,1.79677
0.179167,0.00972557,0.149671,0.00918898,0.083974,0.18791,1.79677
0.13617,0.0228324,0.189203,0.00863343,0.0824183,0.190208,1.79677
0.15848,0.0524096,0.146552,-0.00554661,0.0863516,0.159872,1.79677
0.249596,0.0987457,0.0471861,-0.0498317,0.101264,0.123769,1.79677
0.297972,0.158147,-0.0399327,-0.0589394,0.0977629,0.115115,1.79677
0.295071,0.206265,-0.094827,-0.0534721,0.0868583,0.130995,1.79677
0.224325,0.223062,-0.0761016,-0.0359698,0.0697888,0.128356,1.79677
0.0972818,0.209208,0.0127345,0.00437264,0.0448927,0.119002,1.79677
-0.111495,0.183248,0.0950465,0.00560708,0.0233649,0.125879,1.79677
-0.289863,0.165566,0.179691,0.0135925,0.00554666,0.110266,1.79677
-0.346815,0.146167,0.240805,0.0131914,0.00446407,0.0595132,1.79677
-0.36247,0.123569,0.286864,0.0102934,0.0132284,0.0135043,1.79677
-0.386081,0.0540305,0.303607,0.00818247,0.00235726,0.00487071,1.79677
-0.393765,0.00677231,0.299802,-0.000487477,-0.00146826,0.0132496,1.79677
-0.372246,0.0187319,0.280938,-0.0245014,-0.00357153,0.011693,1.79677
-0.272818,0.03009,0.230847,-0.0457241,-0.00338826,0.0103634,1.79677
-0.20177,0.0552185,0.222361,-0.0558363,-0.0157801,0.0220999,1.79677
-0.188599,0.0537475,0.245731,-0.0437559,-0.0554705,0.0466725,1.79677
-0.244747,0.0101241,0.232467,-0.0435423,-0.0807906,0.0647768,1.79677
-0.333934,-0.0139972,0.156466,-0.068603,-0.0965837,0.0536974,1.79677
-0.32052,0.0211881,0.104316,-0.0871375,-0.0994003,0.0161192,1.79677
-0.227119,0.0582716,0.124483,-0.0703586,-0.107456,-0.0429733,1.79677
-0.248634,0.0655941,0.138816,-0.0725737,-0.113153,-0.0642224,1.79677
-0.29679,0.0873785,0.132501,-0.0930655,-0.126158,-0.0613877,1.79677
-0.228708,0.0807142,0.0850633,-0.0989591,-0.111291,-0.128709,1.79677
-0.096733,0.0739538,-0.0241488,-0.10753,-0.0665277,-0.205509,1.79677
-0.062197,0.169255,-0.091942,-0.109016,-0.0617243,-0.217274,1.79677
-0.152065,0.35775,-0.0663905,-0.0733061,-0.0765971,-0.207777,1.79677
-0.34,0.597076,0.0100138,-0.0224316,-0.0826971,-0.223515,1.79677
-0.510535,0.646729,0.0659593,0.0244303,-0.0706341,-0.283566,1.79677
-0.517691,0.499955,0.0798894,0.0786049,-0.0307728,-0.359269,1.79677
-0.241398,0.210302,0.076821,0.135539,0.0232664,-0.484233,1.79677
-0.057775,0.0982209,0.0855708,0.16283,0.0265691,-0.447977,1.79677
-0.0269867,0.19307,0.13366,0.136327,-0.0267748,-0.293598,1.79677
-0.0472284,0.300985,0.216409,0.156913,-0.0459126,-0.195885,1.79677
-0.0550279,0.243476,0.271796,0.166495,-0.0610141,-0.140923,1.79677
0.0745932,-0.00771329,0.28072,0.176011,-0.0403168,-0.122686,1.79677
0.319232,-0.194332,0.305715,0.18884,-0.0122357,-0.106919,1.79677
0.319232,-0.194332,0.305715,0.18884,-0.0122357,-0.106919,1.93945
0.442651,-0.21163,0.382374,0.182317,-0.0163413,-0.0129745,1.93945
0.437156,-0.18482,0.471594,0.162868,-0.022519,0.095165,1.93945
0.357721,-0.186111,0.546748,0.146812,-0.0116729,0.162959,1.93945
0.283729,-0.179635,0.600908,0.138121,0.0231426,0.164151,1.93945
0.161534,-0.0683436,0.654995,0.119969,0.0463335,0.168606,1.93945
0.0624414,0.0182919,0.692188,0.0988624,0.0571344,0.167442,1.93945
0.0319154,-0.00704247,0.660827,0.0777792,0.082207,0.151118,1.93945
0.102825,-0.095204,0.591472,0.0561847,0.109798,0.122181,1.93945
0.224561,-0.141982,0.511626,0.0384189,0.123525,0.118504,1.93945
0.349529,-0.187919,0.414677,0.0133951,0.125908,0.151228,1.93945
0.400667,-0.161641,0.373203,0.00577859,0.108615,0.195871,1.93945
0.377791,-0.135028,0.329488,0.00046517,0.0830071,0.243731,1.93945
0.418559,-0.159464,0.259846,-0.0109666,0.08042,0.253185,1.93945
0.466717,-0.146334,0.207863,-0.0075855,0.0906673,0.224183,1.93945
0.425561,-0.0995577,0.236533,0.00386045,0.0690232,0.24453,1.93945
0.33424,-0.0434486,0.257099,0.01696,0.0447579,0.255889,1.93945
0.260728,9.79705e-05,0.28131,0.023397,0.030882,0.233358,1.93945
0.155942,-0.00973712,0.324802,0.0418035,0.0168067,0.200159,1.93945
-0.00855875,-0.079106,0.388604,0.0540164,0.00355415,0.184244,1.93945
-0.198209,-0.114634,0.476928,0.0694056,-0.020089,0.184277,1.93945
-0.358047,-0.109292,0.528315,0.064016,-0.0417943,0.138838,1.93945
-0.458997,-0.0104197,0.618599,0.0625602,-0.060792,0.118119,1.93945
-0.490051,0.0379793,0.664879,0.0631237,-0.0646433,0.0547321,1.93945
-0.616126,-0.122125,0.623224,0.0475342,-0.067973,0.0381958,1.93945
-0.605066,-0.341565,0.585755,0.0558705,-0.0643798,0.00960648,1.93945
-0.431074,-0.415368,0.576936,0.0785028,-0.0516484,-0.0741046,1.93945
-0.200497,-0.27557,0.531253,0.0621585,-0.0496986,-0.102356,1.93945
0.00813231,-0.100755,0.413442,-0.000691403,-0.0523527,-0.0937707,1.93945
0.141157,-0.00746713,0.323304,-0.00243319,-0.0615129,-0.0701424,1.93945
0.183882,0.0876507,0.281419,0.00798282,-0.0729126,-0.0590985,1.93945
0.0763348,0.0953848,0.249815,0.00194222,-0.0770229,-0.0528108,1.93945
-0.12283,0.052067,0.330771,0.0292227,-0.077093,-0.0680081,1.93945
-0.216667,-0.129438,0.422834,0.0559857,-0.0616401,-0.171686,1.93945
-0.1595,-0.457956,0.404577,0.0525225,0.000326142,-0.287245,1.93945
-0.0844337,-0.615988,0.287868,0.0225592,0.0513231,-0.341143,1.93945
-0.0944102,-0.542224,0.160437,-0.0302352,0.0517488,-0.308235,1.93945
-0.183057,-0.36615,0.0825712,-0.0453994,0.0316299,-0.258144,1.93945
-0.386097,-0.159822,0.086895,-0.0308598,0.00456923,-0.220883,1.93945
-0.619559,-0.0793681,0.113075,-0.00890309,-0.00999716,-0.211837,1.93945
-0.670732,-0.139445,0.0795739,0.0185905,0.00855067,-0.259588,1.93945
-0.586613,-0.301267,-0.0933995,-0.00839933,0.0422132,-0.289195,1.93945
-0.395999,-0.35805,-0.28197,-0.0329374,0.0602349,-0.256983,1.93945
-0.116459,-0.323554,-0.401075,-0.0359374,0.0569176,-0.181837,1.93945
0.104199,-0.230483,-0.498064,-0.0308019,0.0405891,-0.0744146,1.93945
0.24067,-0.0784148,-0.602875,-0.0560589,0.0395869,0.0424134,1.93945
0.340263,0.0940944,-0.646443,-0.0710818,0.0277784,0.105357,1.93945
0.496706,0.158655,-0.627821,-0.0517529,0.0446177,0.0914861,1.93945
0.535617,0.186402,-0.55694,-0.0248066,0.0478094,0.0893527,1.93945
0.402755,0.171797,-0.41668,-0.0254528,0.0129316,0.1622,1.93945
0.332727,0.0540461,-0.285144,-0.00724758,0.00665843,0.175959,1.93945
0.276482,-0.0309994,-0.167027,-0.00941222,0.014875,0.201992,1.93945
0.210798,-0.0997099,-0.105307,-0.0285807,0.00952446,0.234192,1.93945
0.183307,-0.123647,-0.0968792,-0.0543765,0.0204171,0.262741,1.93945
0.197575,-0.105577,-0.132387,-0.0739893,0.0322756,0.281275,1.93945
0.197575,-0.105577,-0.132387,-0.0739893,0.0322756,0.281275,2.07686
0.185206,-0.0179643,-0.177557,-0.0888728,0.0412545,0.303122,2.07686
0.117732,0.0991583,-0.211194,-0.0951496,0.049521,0.318678,2.07686
0.0624118,0.168354,-0.197658,-0.0818341,0.0516327,0.285822,2.07686
-0.00404064,0.15306,-0.184028,-0.0565237,0.0580762,0.219955,2.07686
-0.101043,0.114557,-0.221641,-0.064538,0.0459478,0.19035,2.07686
-0.16502,0.124139,-0.264381,-0.0740299,0.0475984,0.136633,2.07686
-0.211442,0.248281,-0.279134,-0.0748609,0.0290788,0.0978807,2.07686
-0.220172,0.317867,-0.238738,-0.0596911,0.0164644,0.0514717,2.07686
-0.264182,0.254509,-0.213721,-0.0372017,0.00748031,0.0196299,2.07686
-0.293164,0.153248,-0.234748,-0.0494243,0.0064282,-0.00451994,2.07686
-0.262319,0.13599,-0.259308,-0.0562115,0.00521433,-0.0337141,2.07686
-0.223253,0.201161,-0.249746,-0.0589481,-0.00987435,-0.0238866,2.07686
-0.274315,0.246251,-0.244382,-0.0608653,-0.0329846,0.0074805,2.07686
-0.30197,0.227357,-0.213524,-0.0414963,-0.040345,0.0021863,2.07686
-0.195598,0.205154,-0.1756,-0.0278494,-0.0280349,-0.0418174,2.07686
-0.125231,0.176465,-0.17368,-0.0409288,-0.0440121,-0.0143231,2.07686
-0.248563,0.22215,-0.138165,-0.0404992,-0.0772954,0.0379384,2.07686
-0.306501,0.204056,-0.037956,-0.0191251,-0.0844954,-0.00672883,2.07686
-0.258482,0.105099,-0.00944195,-0.0456588,-0.0692027,-0.0524834,2.07686
-0.252074,0.0892667,-0.0272396,-0.0971862,-0.0765713,-0.0581543,2.07686
-0.17607,0.118536,-0.0630097,-0.113335,-0.0745578,-0.114602,2.07686
-0.115846,0.234828,-0.0901238,-0.0935766,-0.0650095,-0.171208,2.07686
-0.0595055,0.297686,-0.0701125,-0.0335481,-0.0336207,-0.247208,2.07686
-0.0141868,0.235591,-0.0266291,0.015588,-0.00258933,-0.291616,2.07686
-0.0260384,0.122589,0.0532279,0.0522176,0.00886504,-0.313856,2.07686
-0.0115836,-0.0660292,0.119647,0.0414658,0.0166982,-0.33137,2.07686
0.0707339,-0.182076,0.149497,0.0285308,0.0441131,-0.32553,2.07686
0.109354,-0.100406,0.169735,0.000223786,0.0360158,-0.267404,2.07686
0.0245005,0.100296,0.177941,-0.0250167,0.0164389,-0.206113,2.07686
-0.0504168,0.306313,0.172316,-0.0135036,0.0257169,-0.206388,2.07686
-0.125967,0.481907,0.108146,-0.00552299,0.0295006,-0.192406,2.07686
-0.0797795,0.482978,0.0214703,0.0242632,0.0405981,-0.207631,2.07686
0.146327,0.341646,-0.0456235,0.0650677,0.0558301,-0.205119,2.07686
0.360745,0.178873,-0.0609293,0.0833928,0.0357404,-0.108917,2.07686
0.394775,0.0501199,-0.010205,0.103497,0.0028915,0.0380782,2.07686
0.332495,0.00657379,0.00833957,0.0879459,-0.00518477,0.107795,2.07686
0.41073,-0.016587,-0.00802335,0.0897437,0.0226716,0.0553052,2.07686
0.501597,-0.0681247,0.0398047,0.135255,0.0284819,0.0322995,2.07686
0.369368,-0.0442649,0.127515,0.141992,-0.000450797,0.0894379,2.07686
0.120525,0.0247158,0.264863,0.164804,-0.00750224,0.107024,2.07686
-0.0920515,0.0444931,0.375139,0.157573,0.00995037,0.10638,2.07686
-0.126734,-0.0799466,0.422003,0.146653,0.0475828,0.0764475,2.07686
-0.0596655,-0.198279,0.394948,0.0899799,0.0606767,0.0943033,2.07686
0.0321605,-0.215961,0.320954,0.0289608,0.0538782,0.154263,2.07686
0.0949619,-0.133775,0.270637,0.000630878,0.0272194,0.220052,2.07686
0.0475742,0.0294764,0.212606,-0.0302691,-0.00141144,0.294362,2.07686
0.00777003,0.159909,0.118593,-0.0444304,-0.0137677,0.298822,2.07686
0.138912,0.189091,0.0419943,-0.0167705,0.0126419,0.222863,2.07686
0.330743,0.176945,-0.0452544,-0.0164872,0.0128128,0.206873,2.07686
0.343396,0.151599,-0.086012,-0.0051498,-0.0109051,0.247279,2.07686
0.219657,0.107058,-0.0520893,0.0102448,-0.0389638,0.253986,2.07686
0.0942548,0.0715474,0.0193587,0.010813,-0.0420593,0.214558,2.07686
-0.00775089,0.0377542,0.0337613,8.76337e-05,-0.0359086,0.179452,2.07686
-0.00775089,0.0377542,0.0337613,8.76337e-05,-0.0359086,0.179452,2.25125
-0.0600503,0.0441106,0.0175501,-0.00896464,-0.0231518,0.120237,2.25125
-0.0454417,0.0523219,-0.00833376,0.00557902,-0.0129958,0.0627962,2.25125
-0.106518,0.0331791,-0.0014201,0.0189779,-0.0262972,0.0730005,2.25125
-0.224238,0.00761125,0.0502645,0.0349976,-0.0463333,0.0901249,2.25125
-0.295303,-0.0427245,0.0905813,0.044027,-0.0401966,0.0674224,2.25125
-0.288695,-0.101728,0.0934883,0.0352223,-0.0333984,0.0399759,2.25125
-0.223568,-0.1003,0.0541728,0.0217388,-0.0234626,0.00618923,2.25125
-0.145793,-0.0563317,0.0126534,0.0163948,-0.0302452,0.003016,2.25125
-0.14997,0.016738,-0.0319735,0.0090772,-0.0508602,0.0127822,2.25125
-0.174482,0.0427472,-0.050925,0.0260459,-0.0575239,0.00883812,2.25125
-0.216448,0.00312219,-0.0303453,0.0567182,-0.0608415,-0.0124987,2.25125
-0.275321,0.00250915,0.00359442,0.0606044,-0.0696778,-0.0446352,2.25125
-0.220424,0.0288844,-0.0225934,0.0472278,-0.0588888,-0.126466,2.25125
-0.0862186,0.0897524,-0.0896995,0.0493755,-0.0497565,-0.190393,2.25125
0.0501321,0.141947,-0.104634,0.0827939,-0.0618277,-0.232057,2.25125
0.0762463,0.173565,-0.0440808,0.115848,-0.0813144,-0.224898,2.25125
0.0295774,0.150308,-0.0234639,0.109781,-0.083727,-0.24151,2.25125
-0.0229973,0.0189007,-0.0458061,0.120903,-0.063372,-0.274784,2.25125
-0.054268,-0.161819,-0.0135531,0.146191,-0.0509199,-0.28638,2.25125
-0.103015,-0.239336,0.0753613,0.138354,-0.0537834,-0.290577,2.25125
-0.283464,-0.277091,0.121033,0.0905497,-0.0505594,-0.215102,2.25125
-0.438933,-0.301682,0.116035,0.0575935,-0.040529,-0.211753,2.25125
-0.386879,-0.332511,0.133798,0.0670449,0.00660956,-0.241765,2.25125
-0.189848,-0.214553,0.0957433,0.0161147,0.0328188,-0.227003,2.25125
0.00209574,-0.112264,-0.039279,-0.0349762,0.0445121,-0.163121,2.25125
0.169515,-0.0930452,-0.176671,-0.0534484,0.0372115,-0.0876182,2.25125
0.335712,-0.170145,-0.26829,-0.0499039,0.0328084,-0.00627977,2.25125
0.366352,-0.271674,-0.31312,-0.0536865,0.00693683,0.111374,2.25125
0.278126,-0.256701,-0.266775,-0.0542265,-0.00948979,0.180382,2.25125
0.138717,-0.126161,-0.201982,-0.0770152,-0.0192153,0.206725,2.25125
0.00749368,0.0459983,-0.119446,-0.0796967,-0.00778996,0.170581,2.25125
-0.000975023,0.0986857,-0.0726418,-0.0636165,0.029216,0.0963034,2.25125
0.0848536,0.0579613,-0.0465729,-0.0530721,0.0607321,0.0489761,2.25125
0.22237,-0.0790207,-0.0444597,-0.0406707,0.0774664,0.0425426,2.25125
0.292967,-0.222478,-0.0458423,-0.037933,0.0703205,0.083508,2.25125
0.285461,-0.258607,-0.03002,-0.0433756,0.0550746,0.14011,2.25125
0.334114,-0.259145,-0.0187106,-0.0511343,0.0591447,0.15126,2.25125
0.387258,-0.189887,-0.0619805,-0.0716233,0.0660395,0.173793,2.25125
0.384948,-0.195712,-0.0942814,-0.058437,0.0548664,0.199344,2.25125
0.301987,-0.228563,-0.0711062,-0.043259,0.0327267,0.222769,2.25125
0.178431,-0.239192,-0.0249729,-0.0358904,0.01476,0.221279,2.25125
0.0201746,-0.206737,0.00941904,-0.0580329,0.0025382,0.201345,2.25125
-0.0913603,-0.263083,-0.00609259,-0.05651,0.0121886,0.128093,2.25125
-0.0105584,-0.310164,-0.0635873,-0.065392,0.043832,0.0211014,2.25125
0.229831,-0.28351,-0.063122,-0.0373524,0.05716,-0.0553498,2.25125
0.325941,-0.231441,-0.0918021,-0.065587,0.0378296,-0.0124041,2.25125
0.196376,-0.187932,-0.16221,-0.075179,0.00591098,0.0525976,2.25125
0.0389903,-0.0893341,-0.130366,-0.0432146,-0.0257835,0.0656567,2.25125
-0.0969749,-0.00181908,-0.0814471,-0.0282865,-0.0335781,0.0716791,2.25125
-0.157548,0.0283459,-0.0603957,-0.0204266,-0.0284717,0.0529777,2.25125
-0.143526,0.00699803,-0.028485,-0.000738315,-0.0185082,0.0377652,2.25125
-0.0867529,-0.0593222,-0.0157724,0.0054622,-0.0152136,0.028582,2.25125
-0.0421934,-0.0413552,-0.0424681,-0.0198746,-0.0064833,0.0262582,2.25125
-0.00889656,0.0127769,-0.0480462,-0.0187006,-0.00834362,0.0253958,2.25125
-0.00889656,0.0127769,-0.0480462,-0.0187006,-0.00834362,0.0253958,2.41771
-0.0251002,0.0477167,-0.0360938,-0.0214366,-0.0235028,0.0226412,2.41771
-0.0784175,0.0100893,-0.0443926,-0.027542,-0.0311603,0.0054335,2.41771
-0.0966129,0.0143468,-0.029474,-0.0256995,-0.0375366,-0.036707,2.41771
-0.0989895,0.0586114,-0.0255016,-0.0423406,-0.0382059,-0.0655524,2.41771
-0.091945,0.0623602,-0.0568048,-0.0530758,-0.0331306,-0.10175,2.41771
-0.12144,0.0742377,-0.0539222,-0.051587,-0.0422729,-0.113828,2.41771
-0.155705,0.103813,0.0108984,-0.0341284,-0.0430027,-0.149057,2.41771
-0.179928,0.129137,0.0565587,-0.0414229,-0.0412433,-0.200083,2.41771
-0.213831,0.120777,0.070991,-0.0446368,-0.0360407,-0.222417,2.41771
-0.257123,0.104644,0.107527,-0.0203117,-0.033308,-0.246384,2.41771
-0.275594,0.0563219,0.160697,0.0103061,-0.0226493,-0.268495,2.41771
-0.29434,0.0811004,0.211322,0.0267147,-0.0160274,-0.257614,2.41771
-0.254007,0.165385,0.266157,0.0415812,-0.00308722,-0.265467,2.41771
-0.222471,0.209392,0.295502,0.0513439,0.00739066,-0.23753,2.41771
-0.200343,0.228743,0.314473,0.0534106,0.00497049,-0.208487,2.41771
-0.156548,0.227833,0.311653,0.0565371,0.00572894,-0.194206,2.41771
-0.116437,0.236172,0.300651,0.0544805,0.00841721,-0.154606,2.41771
0.0142497,0.279598,0.292619,0.0574359,0.0232693,-0.141799,2.41771
0.226049,0.244578,0.239837,0.05362,0.0489174,-0.10191,2.41771
0.351095,0.161494,0.184526,0.048941,0.0359616,-0.00823277,2.41771
0.318385,0.110176,0.190077,0.0569511,0.00389056,0.0975446,2.41771
0.205996,0.0574738,0.222154,0.0741286,-0.0130869,0.155978,2.41771
0.0969966,0.0580328,0.306022,0.0819888,-0.0199762,0.176684,2.41771
0.0569463,0.106054,0.322549,0.0570964,0.0131151,0.157435,2.41771
0.125453,0.156797,0.289783,0.0460893,0.0439785,0.122473,2.41771
0.186198,0.168739,0.269697,0.0530206,0.0530635,0.131362,2.41771
0.193839,0.0915736,0.287703,0.0677812,0.04957,0.160558,2.41771
0.165014,-0.0311922,0.277868,0.0448192,0.0488061,0.195997,2.41771
0.141617,-0.072504,0.253277,0.0169248,0.0439288,0.208902,2.41771
0.101956,-0.0216452,0.20447,-0.0180232,0.0296836,0.209244,2.41771
0.110873,0.101639,0.185991,-0.0205683,0.0299353,0.172052,2.41771
0.224951,0.132857,0.162689,-0.00760131,0.0386968,0.121123,2.41771
0.315168,0.107163,0.115925,-0.000950418,0.0404362,0.123821,2.41771
0.304453,0.0955162,0.11525,0.0219608,0.0224025,0.151019,2.41771
0.142093,0.0980807,0.176008,0.0384389,-0.0132515,0.195281,2.41771
-0.0822743,0.0591689,0.26628,0.0530496,-0.0325223,0.190379,2.41771
-0.221166,-0.023477,0.356064,0.0567662,-0.028481,0.140908,2.41771
-0.221809,-0.0776183,0.366539,0.0348067,-0.00999641,0.0780326,2.41771
-0.197245,-0.0483328,0.336022,0.00892612,-0.0145853,0.0717913,2.41771
-0.213879,0.00950923,0.311921,0.00638905,-0.0288299,0.0789317,2.41771
-0.252415,0.00651326,0.284833,0.0139426,-0.0389607,0.0789656,2.41771
-0.292713,0.0154112,0.245926,0.00633694,-0.0560013,0.0689237,2.41771
-0.278967,0.0166637,0.191908,0.0157624,-0.0582128,0.0267316,2.41771
-0.209858,0.0322803,0.153183,0.025575,-0.0685095,0.00841331,2.41771
-0.142795,0.0823263,0.11728,0.0302142,-0.0850979,0.00475341,2.41771
-0.0467181,0.134123,0.120114,0.0390084,-0.103861,-0.0130882,2.41771
-0.0275601,0.116906,0.112212,0.0479581,-0.117601,0.00267959,2.41771
-0.124147,0.055371,0.136421,0.0628983,-0.147587,0.0237029,2.41771
-0.23852,-0.0270459,0.181369,0.0737238,-0.158785,0.00853431,2.41771
-0.269186,-0.0896837,0.205402,0.0620391,-0.149382,-0.0446266,2.41771
-0.208809,-0.0328634,0.16202,0.0323815,-0.137975,-0.103608,2.41771
-0.123804,0.103774,0.0965478,0.0406344,-0.110779,-0.157812,2.41771
-0.070026,0.130345,0.081547,0.0918609,-0.114529,-0.214122,2.41771
-0.206825,0.0560144,0.0777457,0.102627,-0.119341,-0.217234,2.41771
-0.206825,0.0560144,0.0777457,0.102627,-0.119341,-0.217234,2.5921
-0.28299,-0.0639524,0.0605797,0.113966,-0.0933062,-0.279269,2.5921
-0.262951,-0.0932799,0.106042,0.123918,-0.0812712,-0.335381,2.5921
-0.355628,-0.0379972,0.152702,0.108343,-0.0836736,-0.3266,2.5921
-0.544955,-0.0653088,0.198395,0.118676,-0.0698129,-0.321198,2.5921
-0.609711,-0.14666,0.242604,0.11447,-0.0259046,-0.37189,2.5921
-0.466395,-0.165586,0.255512,0.0861577,0.0267239,-0.380673,2.5921
-0.211717,-0.0929537,0.22852,0.0430111,0.0493712,-0.347531,2.5921
0.0914232,-0.229146,0.107922,0.00828343,0.0765335,-0.252299,2.5921
0.392764,-0.411505,0.0107093,-0.00394189,0.0786084,-0.132636,2.5921
0.593735,-0.477394,-0.0715489,-0.038209,0.067779,-0.00687844,2.5921
0.658626,-0.353438,-0.111379,-0.0663171,0.0522075,0.0836071,2.5921
0.58516,-0.166614,-0.074405,-0.0656358,0.0406592,0.133978,2.5921
0.534513,-0.0518973,0.031851,-0.027861,0.0544738,0.101626,2.5921
0.474053,-0.0344712,0.116412,-0.0204071,0.0750964,0.0931183,2.5921
0.431801,-0.0534364,0.19809,-0.00508251,0.0976061,0.0913712,2.5921
0.393115,-0.0342479,0.298929,0.00696445,0.107358,0.110496,2.5921
0.437458,-0.105003,0.331664,0.00862526,0.134704,0.112804,2.5921
0.504394,-0.219418,0.315293,0.00820122,0.148712,0.165616,2.5921
0.550984,-0.249322,0.315749,0.00785841,0.137772,0.237776,2.5921
0.534459,-0.227353,0.330995,0.00899483,0.127974,0.308029,2.5921
0.470273,-0.182673,0.350246,0.00522294,0.126282,0.326251,2.5921
0.376094,-0.164367,0.334284,-0.0194907,0.106255,0.350681,2.5921
0.269989,-0.130917,0.310841,-0.0242932,0.106394,0.328155,2.5921
0.276434,-0.0483728,0.342239,-0.0106701,0.0982013,0.260027,2.5921
0.303282,0.0757805,0.374507,-0.0125643,0.086461,0.206736,2.5921
0.265509,0.192095,0.355014,-0.0220595,0.0815334,0.196933,2.5921
0.126728,0.264554,0.296835,-0.0391131,0.0605367,0.162002,2.5921
-0.217527,0.43932,0.298871,-0.0268922,0.0242798,0.160531,2.5921
-0.55559,0.608023,0.385547,-0.00819199,-0.0244812,0.114741,2.5921
-0.661115,0.68866,0.456062,0.0548819,-0.0118389,-0.00292599,2.5921
-0.549945,0.608362,0.444179,0.0633619,0.0430329,-0.134688,2.5921
-0.387995,0.487927,0.374615,0.0764589,0.0742681,-0.188805,2.5921
-0.312874,0.426703,0.391849,0.0737485,0.0662394,-0.13686,2.5921
-0.268987,0.328209,0.390239,0.0621163,0.031032,-0.0771419,2.5921
-0.166111,0.143152,0.377128,0.0468992,0.0056825,-0.0328639,2.5921
-0.0585675,-0.0239648,0.411275,0.0456607,-0.0210073,-0.00223315,2.5921
-0.0186639,-0.159656,0.507357,0.0403246,-0.0709847,0.0558025,2.5921
-0.0199374,-0.2642,0.624212,0.0291344,-0.101491,0.11763,2.5921
-0.0780146,-0.291306,0.731271,-0.00690094,-0.126727,0.172332,2.5921
-0.114036,-0.224665,0.808224,-0.0430713,-0.146093,0.185506,2.5921
-0.14399,-0.15948,0.890462,-0.0522421,-0.150999,0.156919,2.5921
-0.112389,-0.151323,0.924103,-0.0502008,-0.14593,0.112326,2.5921
-0.0819159,-0.0196521,0.926356,-0.0549438,-0.121933,0.0732945,2.5921
-0.0736135,0.250286,0.917934,-0.0631434,-0.115955,0.0422097,2.5921
-0.0620575,0.450057,0.974975,-0.025987,-0.101694,-0.0140495,2.5921
-0.00317805,0.479205,1.02245,0.0171979,-0.0807145,-0.0654385,2.5921
0.172853,0.429654,1.02295,0.0256922,-0.0231324,-0.14164,2.5921
0.37305,0.35468,1.05245,0.0539978,0.012375,-0.151991,2.5921
0.473119,0.334962,1.07039,0.0190001,-0.00550362,-0.0728775,2.5921
0.44044,0.35478,1.08076,0.00146917,-0.0222734,-0.0161072,2.5921
0.13481,0.278017,1.15935,0.0296789,-0.0667982,0.0563769,2.5921
-0.339953,0.164053,1.32787,0.0668132,-0.106756,0.0700966,2.5921
-0.755967,0.195785,1.46097,0.0601581,-0.0790662,0.0121827,2.5921
-0.841178,0.356061,1.50033,0.0533535,-0.0126181,-0.137525,2.5921
-0.841178,0.356061,1.50033,0.0533535,-0.0126181,-0.137525,2.785
-0.609157,0.482485,1.30195,0.0131895,0.050668,-0.265211,2.785
-0.229854,0.45448,1.02268,0.0419399,0.0776684,-0.305621,2.785
0.0347771,0.3993,0.866391,0.0881081,0.0349636,-0.241726,2.785
0.16763,0.390581,0.797612,0.0855379,0.0188899,-0.129791,2.785
0.309651,0.311642,0.710774,0.0843345,0.0440171,-0.0734524,2.785
0.518389,0.289544,0.608802,0.0566575,0.062005,-0.0518669,2.785
0.722762,0.310985,0.51037,0.0500602,0.0810976,0.00388789,2.785
0.733058,0.392929,0.517596,0.0803237,0.0693426,0.0898652,2.785
0.607554,0.402234,0.600671,0.0958561,0.0580583,0.118248,2.785
0.41944,0.318721,0.740485,0.12534,0.0683941,0.103569,2.785
0.230651,0.167796,0.897632,0.105287,0.0713209,0.0710042,2.785
0.0499006,-0.00167083,0.968613,0.0587769,0.0952719,0.0690323,2.785
-0.00839854,-0.0139786,0.984866,-0.00350747,0.0889691,0.0305584,2.785
-0.0871907,0.0883336,0.940351,-0.0432844,0.0753286,0.0475634,2.785
-0.12657,0.27374,0.89988,-0.0643307,0.067094,0.0555103,2.785
-0.0833548,0.423642,0.854021,-0.0606234,0.0666896,0.0326627,2.785
-0.0856603,0.448393,0.804811,-0.0518235,0.0702995,0.0572625,2.785
-0.106134,0.364746,0.747663,-0.0500906,0.0686836,0.0654987,2.785
-0.113679,0.189857,0.683478,-0.032261,0.0819762,0.0875545,2.785
-0.136745,0.113943,0.682679,-0.0241254,0.0538223,0.121126,2.785
-0.208087,0.170293,0.779465,0.00560002,0.0327761,0.15765,2.785
-0.206928,0.0940931,0.840509,0.0105327,0.0247675,0.120408,2.785
-0.240059,-0.0726762,0.764239,-0.0139069,0.0350578,0.130195,2.785
-0.23403,-0.0668916,0.710927,-0.00375766,0.0161365,0.113167,2.785
-0.214918,0.0819808,0.742187,0.0284551,-0.0137834,0.106885,2.785
-0.251265,0.142287,0.747686,0.0432083,-0.024513,0.106798,2.785
-0.265109,0.0785294,0.765178,0.0726772,-0.0263684,0.0905496,2.785
-0.25407,-0.0191244,0.804755,0.0865206,-0.0278904,0.0716976,2.785
-0.282903,-0.0200458,0.853551,0.0696115,-0.0582079,0.0739306,2.785
-0.330112,-0.0423425,0.903906,0.0681352,-0.0781326,0.0711513,2.785
-0.334354,-0.068135,0.909911,0.0465376,-0.092461,0.0366644,2.785
-0.304823,-0.0220434,0.903174,0.0242365,-0.105179,0.0212248,2.785
-0.281165,0.0663072,0.903469,0.0147758,-0.114739,0.0278063,2.785
-0.298186,0.211464,0.896299,-0.00597502,-0.134343,0.0198725,2.785
-0.25631,0.336704,0.861577,-0.0311687,-0.123452,-0.0293715,2.785
-0.222729,0.327003,0.781775,-0.0400452,-0.123516,-0.0641368,2.785
-0.303066,0.111612,0.752264,-0.0155457,-0.131984,-0.0611079,2.785
-0.485724,-0.120397,0.791244,-0.0285839,-0.161672,-0.0575963,2.785
-0.703197,-0.264381,0.872004,-0.0426722,-0.165889,-0.0826119,2.785
-0.840657,-0.206246,0.927067,-0.0939609,-0.163457,-0.128047,2.785
-0.717435,0.0194298,0.87626,-0.126652,-0.0984285,-0.237917,2.785
-0.371016,0.25803,0.752017,-0.134757,-0.0491062,-0.316169,2.785
-0.130088,0.347601,0.60506,-0.11344,-0.0383797,-0.28964,2.785
0.0592158,0.30174,0.512618,-0.079828,-0.0337972,-0.253991,2.785
0.216331,0.151542,0.42813,-0.0653734,-0.0282504,-0.19799,2.785
0.320723,-0.0692083,0.311105,-0.0662062,-0.0214984,-0.104948,2.785
0.343965,-0.206814,0.229801,-0.0759262,-0.0457325,-0.0103486,2.785
0.272506,-0.27743,0.123726,-0.0968522,-0.0529701,0.0521706,2.785
0.231475,-0.221087,0.0279386,-0.102559,-0.0495168,0.0525866,2.785
0.208877,-0.0602595,-0.0506261,-0.0969423,-0.0450727,0.0434363,2.785
0.147643,0.152936,-0.160595,-0.0934536,-0.0386629,0.0297999,2.785
0.0515285,0.295971,-0.225958,-0.0420111,-0.0358719,0.00411481,2.785
0.0108624,0.398238,-0.197412,0.0342155,-0.0169182,-0.0801356,2.785
0.0813219,0.437366,-0.142096,0.0779698,0.012413,-0.177765,2.785
0.0813219,0.437366,-0.142096,0.0779698,0.012413,-0.177765,2.99638
0.2004,0.350458,-0.133424,0.1025,0.0363376,-0.207877,2.99638
0.249437,0.198147,-0.0661761,0.129988,0.0220699,-0.143821,2.99638
0.168686,0.0164912,0.0534154,0.14285,0.00624028,-0.025081,2.99638
0.0816317,-0.0559642,0.185554,0.118029,0.00127116,0.0540748,2.99638
0.151863,-0.155782,0.238327,0.0916676,0.042919,0.0533994,2.99638
0.352355,-0.20833,0.168776,0.0525725,0.0743162,0.0537831,2.99638
0.463638,-0.0794858,0.144445,0.0432876,0.0436213,0.106195,2.99638
0.485787,0.0413245,0.23173,0.0678914,0.0152032,0.146426,2.99638
0.37485,0.0209119,0.34397,0.0773651,-0.00631471,0.172705,2.99638
0.231874,-0.0564635,0.425312,0.0520677,-0.00296088,0.160325,2.99638
0.200843,-0.0443867,0.496153,0.0381137,0.0280582,0.0983014,2.99638
0.21368,-0.0261124,0.515546,-0.0031126,0.052558,0.0625881,2.99638
0.209939,-0.0367063,0.501806,-0.0188287,0.0687734,0.0406461,2.99638
0.223004,-0.0541285,0.504178,-0.0258259,0.0766417,0.0182032,2.99638
0.323648,0.0600925,0.489438,-0.0539353,0.0983841,-0.0278761,2.99638
0.555413,0.121416,0.40311,-0.0662469,0.124527,-0.0701194,2.99638
0.523085,0.0780649,0.373346,-0.0297577,0.0915186,-0.00496286,2.99638
0.144498,0.0862428,0.379386,-0.0179792,0.0366257,0.0898714,2.99638
-0.177781,0.227037,0.44645,0.0180806,-0.0157007,0.0484715,2.99638
-0.316485,0.385755,0.551704,0.0624999,-0.0186136,-0.0191675,2.99638
-0.289786,0.547616,0.606446,0.0815533,-0.00190645,-0.0771837,2.99638
-0.238055,0.57081,0.616249,0.110315,-0.0039026,-0.0959096,2.99638
-0.207707,0.399901,0.573029,0.124414,0.00215679,-0.100328,2.99638
-0.0953685,0.159017,0.518179,0.135548,0.0120318,-0.0878079,2.99638
0.0600465,-0.102349,0.477317,0.135466,0.00809664,-0.0219672,2.99638
0.0391384,-0.231968,0.471088,0.103544,-0.0192139,0.114237,2.99638
-0.0813118,-0.223993,0.456879,0.0615432,-0.0418247,0.193583,2.99638
-0.229477,-0.223778,0.407788,0.0571789,-0.0411247,0.206122,2.99638
-0.224248,-0.158564,0.408859,0.081334,-0.0347136,0.12824,2.99638
-0.101965,-0.0637173,0.421135,0.0979806,-0.0211805,0.0588084,2.99638
-0.0104991,0.0552469,0.463624,0.10758,-0.0309489,0.0448307,2.99638
-0.0783479,0.21499,0.509917,0.0978772,-0.0519698,0.0674884,2.99638
-0.275167,0.316988,0.54417,0.102279,-0.0625691,0.0687087,2.99638
-0.399104,0.289913,0.608127,0.12788,-0.0510258,0.00799954,2.99638
-0.421128,0.170817,0.579125,0.120671,-0.0232922,-0.0522123,2.99638
-0.37229,0.0622951,0.52655,0.107399,-0.0197607,-0.0626411,2.99638
-0.238513,-0.0167734,0.532587,0.110129,-0.0334292,-0.0442879,2.99638
-0.155085,-0.0476662,0.52131,0.0689922,-0.0513025,0.0347009,2.99638
-0.173368,-0.0878758,0.446817,0.0304544,-0.0674704,0.122461,2.99638
-0.165972,-0.116214,0.409277,0.0324922,-0.0762047,0.155155,2.99638
-0.133328,-0.117922,0.365747,0.0176087,-0.0832454,0.174176,2.99638
-0.105387,-0.0665823,0.296822,-2.4125e-05,-0.0868483,0.191402,2.99638
-0.0689538,0.0442488,0.241415,-0.015197,-0.0992542,0.176987,2.99638
-0.0191862,0.0949467,0.202254,-0.0069529,-0.100823,0.136692,2.99638
0.00342282,0.0929565,0.13121,-0.0274481,-0.104848,0.0907188,2.99638
-0.00538134,0.0653193,0.0385462,-0.0440167,-0.102291,0.043927,2.99638
0.00740065,0.0654333,-0.0992956,-0.065748,-0.0907611,-0.0254216,2.99638
0.152246,0.111542,-0.204388,-0.0338095,-0.0684545,-0.126026,2.99638
0.265122,0.169136,-0.274435,-0.00305963,-0.0628649,-0.201993,2.99638
0.198511,0.108205,-0.247625,0.046391,-0.0709353,-0.201081,2.99638
0.00169007,0.00699947,0.013559,0.123988,-0.12501,-0.214269,2.99638
-0.321824,0.0561128,0.28504,0.0965459,-0.138398,-0.199666,2.99638
-0.742584,0.15709,0.390391,0.0483329,-0.0969053,-0.182206,2.99638
-0.807138,0.0355192,0.502396,0.0699324,-0.0358103,-0.284211,2.99638
-0.807138,0.0355192,0.502396,0.0699324,-0.0358103,-0.284211,3.14171
-0.520817,-0.311902,0.440486,0.0351618,0.0456308,-0.321085,3.14171
-0.193435,-0.578713,0.275954,-0.0121758,0.0421313,-0.204011,3.14171
0.0279286,-0.639632,0.111726,-0.0402334,0.0141798,-0.0352092,3.14171
0.159436,-0.564188,-0.0431745,-0.0547294,-0.0135257,0.111745,3.14171
0.258188,-0.39155,-0.160551,-0.0620101,-0.0345451,0.186865,3.14171
0.276921,-0.182781,-0.293382,-0.0721588,-0.0445056,0.230136,3.14171
0.241667,0.000967483,-0.359814,-0.0437218,-0.0544941,0.213755,3.14171
0.354357,0.31712,-0.355476,-0.0152502,-0.025045,0.109052,3.14171
0.431208,0.569749,-0.328369,0.00180734,0.00214508,0.0504435,3.14171
0.366499,0.5992,-0.24109,0.0510268,0.0098836,0.0137002,3.14171
0.221137,0.435663,-0.0894572,0.102426,0.0181101,-0.0323917,3.14171
-0.0459586,0.270775,0.154499,0.121004,0.00733246,-0.0302319,3.14171
-0.234051,0.0945522,0.328861,0.0920777,0.0329124,-0.0779508,3.14171
-0.253296,-0.169351,0.412836,0.0731504,0.0745793,-0.106922,3.14171
-0.125585,-0.387055,0.491146,0.0722614,0.092976,-0.0991514,3.14171
-0.0407039,-0.489295,0.525357,0.0349133,0.0866821,-0.00923008,3.14171
-0.0548383,-0.426015,0.533581,0.0003285,0.0690537,0.0866986,3.14171
-0.0272641,-0.224642,0.498098,-0.0307856,0.0692219,0.124739,3.14171
0.058153,-0.0253228,0.427458,-0.0367229,0.0776735,0.140696,3.14171
0.142718,0.0826946,0.406432,-0.00111203,0.0736074,0.151897,3.14171
0.109162,0.0795686,0.448592,0.0355495,0.0491357,0.185893,3.14171
-0.03769,0.0418871,0.545538,0.0435981,0.0230762,0.203775,3.14171
-0.187058,-0.0363949,0.578069,0.0228033,0.0250895,0.189004,3.14171
-0.263605,-0.0650282,0.642486,0.0182394,0.0118541,0.135076,3.14171
-0.273699,-0.0457582,0.636157,-0.0103732,0.0164756,0.0722617,3.14171
-0.205217,0.025428,0.579363,-0.0350079,0.020453,-0.00556415,3.14171
-0.0343168,0.0850973,0.554473,-0.0159109,0.020944,-0.0766616,3.14171
-0.00115982,0.103263,0.53411,-0.0194414,-0.00229028,-0.0583861,3.14171
0.0199217,0.119512,0.533858,-0.0092302,-0.0154593,-0.0905361,3.14171
0.147402,0.0642706,0.510111,0.00692864,-0.0256321,-0.13201,3.14171
0.185282,0.0863958,0.498029,0.0383678,-0.0464406,-0.117639,3.14171
-0.109343,0.328537,0.703288,0.12013,-0.0948883,-0.0488228,3.14171
-0.579447,0.577872,0.973607,0.166675,-0.13599,-0.0730182,3.14171
-0.957345,0.508909,1.22737,0.197084,-0.0818398,-0.159805,3.14171
-0.897313,0.13206,1.32612,0.212985,0.00315593,-0.320091,3.14171
-0.543228,-0.166759,1.31924,0.167264,0.061066,-0.359848,3.14171
-0.210703,-0.234215,1.25239,0.106969,0.059549,-0.257446,3.14171
-0.00997477,-0.147039,1.16971,0.0798042,0.0362112,-0.125332,3.14171
0.101603,-0.0172209,1.08549,0.0662879,0.0350519,-0.0185094,3.14171
0.191946,0.0836969,1.04016,0.0856985,0.0387106,0.0439898,3.14171
0.222878,0.113721,1.02323,0.0955132,0.0326009,0.0845841,3.14171
0.232105,0.134558,1.01429,0.106196,0.0492972,0.0871027,3.14171
0.221772,0.182865,1.02757,0.115849,0.066594,0.0750875,3.14171
0.222943,0.30509,1.06008,0.104062,0.0837199,0.0560418,3.14171
0.197407,0.329518,1.04943,0.0832203,0.094539,0.0516495,3.14171
0.11355,0.320841,1.04944,0.0710621,0.0905039,0.0598404,3.14171
0.0530775,0.362297,1.01981,0.0357612,0.0856612,0.0583963,3.14171
0.0675335,0.386895,0.961066,0.0186621,0.0909857,0.0577262,3.14171
0.0364129,0.37526,0.864938,-0.00101446,0.0713749,0.0962821,3.14171
-0.0413402,0.401034,0.83737,0.00509216,0.0671443,0.139175,3.14171
-0.0587373,0.236837,0.96117,0.0718012,0.0744429,0.119327,3.14171
-0.102454,0.0200614,0.885815,0.0200743,0.040123,0.130783,3.14171
0.0969291,-0.0377868,0.840663,0.0270939,0.0113385,0.0183793,3.14171
0.0130251,-0.323255,0.598354,-0.0466612,0.0209522,0.193262,3.14171
0.0130251,-0.323255,0.598354,-0.0466612,0.0209522,0.193262,3.27647
-0.183731,0.0611024,0.577357,-0.0143352,-0.0762652,0.127789,3.27647
-0.0107571,0.162317,0.675044,0.0459171,-0.0749419,0.0345652,3.27647
-0.0582001,0.0204586,0.767076,0.100326,-0.0304115,0.103949,3.27647
-0.11395,0.0465003,0.795189,0.0554239,-0.0801656,0.0634142,3.27647
-0.0995667,0.264096,0.727001,-0.0169582,-0.0953382,0.0316293,3.27647
0.0608687,0.546991,0.683228,-0.035632,-0.0918428,-0.0678346,3.27647
0.145531,0.233961,0.569227,0.082527,-0.0946794,-0.0712874,3.27647
-0.216879,-0.192903,0.65353,0.164077,-0.0975113,0.00917453,3.27647
-0.227444,-0.662487,0.579441,0.208421,-0.0893788,-0.143113,3.27647
0.113513,-0.633606,0.460101,0.16163,-0.0788579,-0.250631,3.27647
0.453956,-0.443219,0.436181,0.168556,-0.0763893,-0.244975,3.27647
0.354698,-0.350441,0.574454,0.245588,-0.0699055,-0.107895,3.27647
-0.0321178,-0.109677,0.696106,0.201342,-0.139069,-0.143168,3.27647
-0.128324,0.0358121,0.816716,0.249013,-0.0527774,-0.303614,3.27647
0.0990094,-0.10532,0.948752,0.298233,0.091397,-0.379818,3.27647
0.548064,-0.277734,0.969618,0.240878,0.162789,-0.338756,3.27647
0.876212,-0.205155,0.86386,0.142195,0.179523,-0.187627,3.27647
1.0173,-0.0194449,0.712283,0.101697,0.145043,-0.0285196,3.27647
1.04831,0.141874,0.625317,0.106691,0.148565,0.0889097,3.27647
1.07189,0.272794,0.735048,0.16486,0.11251,0.11075,3.27647
0.902328,0.379335,1.09638,0.222984,0.0989081,0.193697,3.27647
0.379809,0.371471,1.66243,0.24886,0.222826,0.288242,3.27647
-0.212044,0.266604,1.90381,0.169048,0.372614,0.256963,3.27647
-0.538055,0.0116618,1.77785,0.109775,0.425376,0.150257,3.27647
-0.594128,-0.170947,1.64349,0.147787,0.445997,0.102754,3.27647
-0.569914,-0.107356,1.63291,0.103133,0.325614,0.0954533,3.27647
-0.523497,0.202236,1.58118,-0.0178434,0.18294,0.0713471,3.27647
-0.271575,0.483574,1.47521,-0.0448299,0.148402,-0.0628111,3.27647
-0.155466,0.62239,1.22369,-0.0785246,0.152041,-0.0303675,3.27647
0.147612,0.751873,1.03312,-0.0738336,0.136954,-0.121803,3.27647
0.361762,0.789639,0.961993,-0.0574951,0.120077,-0.103673,3.27647
0.366162,0.550293,1.05489,-0.013992,0.0691016,-0.026372,3.27647
0.112132,0.255753,1.15885,-0.0325917,0.0294251,0.0850085,3.27647
-0.185755,0.204627,1.20273,-0.104907,0.00905131,0.129493,3.27647
-0.270223,0.414868,1.16289,-0.168036,0.00888529,0.0652589,3.27647
-0.232252,0.593707,1.04387,-0.193921,0.00457178,0.0139322,3.27647
-0.237361,0.638579,0.927169,-0.187935,-0.0186736,0.00563335,3.27647
-0.259059,0.647283,0.834472,-0.187523,-0.034813,-0.00277007,3.27647
-0.276568,0.620407,0.788809,-0.146754,-0.0374298,0.000222087,3.27647
-0.330785,0.498094,0.762907,-0.121629,-0.0555362,-0.00288963,3.27647
-0.406885,0.295437,0.714937,-0.0994145,-0.0481525,0.000444114,3.27647
-0.413944,0.196617,0.641088,-0.107917,-0.0517252,-0.029134,3.27647
-0.374147,0.0411614,0.580246,-0.0989226,-0.0602678,-0.0167651,3.27647
-0.367864,-0.0243401,0.519414,-0.107544,-0.0770153,-0.0166279,3.27647
-0.335984,-0.105602,0.474056,-0.0971244,-0.0973439,-0.0333323,3.27647
-0.261457,-0.173924,0.435222,-0.11139,-0.0998593,-0.0395135,3.27647
-0.241192,-0.245578,0.362814,-0.137126,-0.100192,-0.011452,3.27647
-0.250381,-0.326045,0.29087,-0.162077,-0.111855,-0.0211683,3.27647
-0.234368,-0.301719,0.162083,-0.201859,-0.129107,-0.0423385,3.27647
-0.21761,-0.219336,0.00222069,-0.236638,-0.13634,-0.0682451,3.27647
-0.115874,0.0394343,-0.100703,-0.21942,-0.135921,-0.0924035,3.27647
-0.103896,0.316793,-0.247492,-0.250714,-0.111187,-0.103704,3.27647
-0.0276593,0.508968,-0.32527,-0.197721,-0.116288,-0.172767,3.27647
-0.0567006,0.531785,-0.332963,-0.141088,-0.1151,-0.173854,3.27647
-0.0567006,0.531785,-0.332963,-0.141088,-0.1151,-0.173854,3.3663
-0.178117,0.371487,-0.276959,-0.0888507,-0.124967,-0.205048,3.3663
-0.430863,0.00787708,-0.222608,-0.0776437,-0.108834,-0.196984,3.3663
-0.53638,-0.125104,-0.211462,-0.0939025,-0.0982538,-0.262072,3.3663
-0.399176,-0.0401565,-0.31842,-0.146062,-0.0330384,-0.306151,3.3663
-0.156224,-0.0425419,-0.530549,-0.168032,-0.00511257,-0.309612,3.3663
0.0467621,0.095705,-0.601565,-0.0750913,-0.03285,-0.234285,3.3663
-0.0589849,0.236136,-0.506072,0.0276512,-0.0731862,-0.140244,3.3663
-0.305551,0.16526,-0.375311,0.0880722,-0.0894278,-0.117528,3.3663
-0.281972,-0.162483,-0.446914,0.074597,-0.0218668,-0.234833,3.3663
0.0543337,-0.461048,-0.498431,0.137894,0.0229365,-0.320784,3.3663
0.352988,-0.63614,-0.4605,0.160094,0.0176204,-0.240007,3.3663
0.50856,-0.590308,-0.338909,0.197661,0.0227442,-0.141895,3.3663
0.538589,-0.452996,-0.26245,0.175532,0.0448684,-0.0538471,3.3663
0.540149,-0.3296,-0.229751,0.166268,0.0777914,0.00573397,3.3663
0.471358,-0.24141,-0.185436,0.146727,0.0764187,0.0834764,3.3663
0.343304,-0.0997826,-0.159082,0.0998919,0.073972,0.16312,3.3663
0.339563,0.0820823,-0.217345,0.0596659,0.109734,0.129441,3.3663
0.359634,0.364044,-0.252809,0.058175,0.128908,0.167327,3.3663
0.483575,0.653386,-0.239255,0.0636853,0.152466,0.139422,3.3663
0.659567,0.595848,-0.271651,0.0720945,0.19538,0.148778,3.3663
0.724172,0.268109,-0.201706,0.123495,0.192384,0.195679,3.3663
0.604105,-0.159141,-0.0632759,0.128037,0.154061,0.265252,3.3663
0.350915,-0.423573,0.0166748,0.0687324,0.152386,0.317392,3.3663
0.121592,-0.623269,0.00478903,0.0246977,0.144453,0.309567,3.3663
-0.0598498,-0.672429,-0.011628,0.0158456,0.116511,0.277231,3.3663
-0.106483,-0.506278,0.00981669,0.00631059,0.106207,0.204142,3.3663
0.0815366,-0.226715,0.0269543,-0.00752021,0.123197,0.103173,3.3663
0.238138,-0.0267922,-0.0952786,-0.0524247,0.132448,0.0808817,3.3663
0.188545,0.0323546,-0.251977,-0.034753,0.0907373,0.10999,3.3663
0.0369976,0.0845401,-0.212783,0.043064,0.0283846,0.124214,3.3663
-0.157883,0.0542508,-0.138861,0.0645442,0.00280172,0.116422,3.3663
-0.375538,-0.00671299,-0.161611,0.034127,-0.00384051,0.111279,3.3663
-0.390122,-0.0253714,-0.0718436,0.0567778,0.0137164,0.0160512,3.3663
-0.28464,-0.0348684,-0.108487,0.0272419,0.024338,0.00777537,3.3663
-0.247334,0.059999,-0.167711,0.00710642,0.0115432,0.0236826,3.3663
-0.226564,0.129522,-0.234772,0.00402404,0.00189367,0.0263153,3.3663
-0.198347,0.112086,-0.2852,0.0203227,-0.0111094,0.0203295,3.3663
-0.152372,0.0621469,-0.290991,0.0501405,-0.028469,0.0100273,3.3663
-0.140292,0.0473507,-0.246332,0.0667938,-0.059573,0.00242084,3.3663
-0.157233,0.0665668,-0.241116,0.0499054,-0.0755692,-0.0191653,3.3663
-0.107998,0.0977486,-0.209762,0.055782,-0.0824916,-0.0588322,3.3663
-0.0290092,0.157441,-0.161994,0.0655845,-0.0910885,-0.128077,3.3663
0.0289634,0.0906048,-0.213705,0.047926,-0.0858807,-0.17487,3.3663
0.0842318,-0.0202914,-0.257926,0.0613632,-0.0861946,-0.226827,3.3663
0.0815693,-0.0476324,-0.222469,0.068643,-0.107205,-0.229059,3.3663
-0.0572792,-0.0912636,-0.154783,0.0702391,-0.121703,-0.213311,3.3663
-0.335404,-0.112312,-0.0664511,0.0522749,-0.135239,-0.159405,3.3663
-0.607636,-0.0656249,0.0415894,0.0401969,-0.110196,-0.160008,3.3663
-0.745006,0.100675,0.0824979,-0.000462733,-0.045962,-0.204649,3.3663
-0.74022,0.315283,0.0785454,-0.00977096,0.02745,-0.262265,3.3663
-0.637944,0.397331,0.0613801,-0.000600254,0.0837944,-0.303141,3.3663
-0.437525,0.289485,0.0243324,0.000894682,0.113506,-0.302671,3.3663
-0.234116,0.124994,-0.10011,-0.0463369,0.122313,-0.240483,3.3663
0.0595607,-0.173748,-0.329918,-0.078312,0.135232,-0.201721,3.3663
0.0595607,-0.173748,-0.329918,-0.078312,0.135232,-0.201721,3.40858
0.166022,-0.453249,-0.45372,-0.0479927,0.0968963,-0.0482259,3.40858
0.139202,-0.455623,-0.438939,-0.0619141,0.0337257,0.0652243,3.40858
0.089481,-0.265369,-0.444772,-0.088048,0.0305934,0.106235,3.40858
0.117231,-0.0617536,-0.50065,-0.09871,0.047678,0.0953036,3.40858
0.234586,0.00483157,-0.56499,-0.0656291,0.0745157,0.0782371,3.40858
0.352992,-0.0273512,-0.589254,-0.0267157,0.0791028,0.107698,3.40858
0.459696,-0.0399668,-0.608056,-0.0206418,0.0768188,0.151671,3.40858
0.458891,-0.0644685,-0.63356,-0.0153737,0.0619638,0.229961,3.40858
0.339364,-0.113496,-0.572712,0.0261766,0.0433913,0.285278,3.40858
0.235976,-0.0952157,-0.473029,0.0284328,0.0381459,0.277548,3.40858
0.23887,-0.0463077,-0.406179,0.00742315,0.0461388,0.235264,3.40858
0.320402,-0.00140287,-0.408223,-0.0154931,0.0590894,0.19352,3.40858
0.341938,0.00965342,-0.425526,-0.0195087,0.0492648,0.197149,3.40858
0.264949,0.00919008,-0.427858,-0.0148323,0.0333538,0.204013,3.40858
0.124785,0.0969456,-0.309751,0.0108641,0.00792193,0.193233,3.40858
0.0303895,0.158663,-0.206615,0.00440656,0.0124919,0.113818,3.40858
-0.01847,0.117627,-0.22235,-0.0177875,0.0427357,0.0417548,3.40858
0.0250711,0.0979054,-0.230772,-0.00416525,0.0467103,-0.0265271,3.40858
0.113792,0.0513837,-0.172412,0.0273804,0.041712,-0.0558369,3.40858
0.0624975,-0.0106203,-0.128284,0.0128738,0.0167121,0.00176263,3.40858
-0.126072,-0.026228,-0.0850343,-0.00337715,-0.0104904,0.0524315,3.40858
-0.2447,0.0113848,-0.0440399,-0.0213391,-0.00738455,0.0248032,3.40858
-0.185875,0.00853475,-0.0727649,-0.0301308,0.0213561,-0.0381427,3.40858
-0.0613504,0.0131802,-0.0974052,-0.0380194,0.015533,-0.053555,3.40858
-0.0237731,-0.0254103,-0.0855515,-0.0192706,-0.00687864,-0.00263876,3.40858
-0.100393,-0.00779369,-0.0386367,-0.0295305,-0.0458961,0.0481873,3.40858
-0.148881,-0.0171362,-0.00954269,-0.033216,-0.0421802,0.0301822,3.40858
-0.132384,-0.0807052,0.0121044,-0.0336535,-0.0336471,-0.00224996,3.40858
-0.168119,-0.0727378,-0.0102227,-0.0606917,-0.0398343,-0.00211138,3.40858
-0.146571,0.00816605,-0.0140421,-0.065618,-0.0366445,-0.0644971,3.40858
-0.106502,0.150903,-0.0238095,-0.0722279,-0.0299092,-0.115969,3.40858
-0.0464591,0.198761,-0.064082,-0.0693859,-0.0159649,-0.17834,3.40858
0.0316872,0.220615,-0.137114,-0.0539548,0.00669807,-0.251532,3.40858
0.0789074,0.240557,-0.148085,-0.0172359,-0.0030043,-0.283349,3.40858
0.0451585,0.255733,-0.044767,0.0288649,-0.0245631,-0.281248,3.40858
-0.0474294,0.231388,0.120533,0.0723544,-0.0385406,-0.276671,3.40858
-0.244333,0.158531,0.27092,0.0845962,-0.0429839,-0.234629,3.40858
-0.425179,0.0778154,0.396688,0.0920801,-0.0263861,-0.209814,3.40858
-0.517371,0.110149,0.454572,0.0737553,0.00479327,-0.191886,3.40858
-0.522303,0.282483,0.489145,0.0770574,0.0175501,-0.185972,3.40858
-0.30451,0.455424,0.519866,0.102718,0.0483529,-0.220775,3.40858
-0.0993884,0.462889,0.531485,0.123333,0.0497252,-0.171161,3.40858
0.0429711,0.218219,0.531872,0.129193,0.0451029,-0.103871,3.40858
0.142569,-0.110662,0.552454,0.133956,0.0288188,-0.00928277,3.40858
0.106293,-0.156148,0.579061,0.0810343,-0.0048068,0.102618,3.40858
0.131808,-0.0225672,0.593887,0.0507977,-0.00260498,0.109966,3.40858
0.232028,0.114386,0.586393,0.0412706,0.0145022,0.105105,3.40858
0.313485,0.129156,0.54069,0.0429567,0.0307069,0.12911,3.40858
0.337681,0.0788731,0.544971,0.0663926,0.0258879,0.165545,3.40858
0.279966,0.0157411,0.61975,0.0749804,0.0165349,0.219167,3.40858
0.184951,-0.024137,0.676081,0.0450403,0.0183622,0.257176,3.40858
0.138481,-0.024403,0.666168,0.00473904,0.0413784,0.249076,3.40858
0.198707,0.055262,0.589694,-0.0270131,0.0698823,0.202188,3.40858
0.198707,0.055262,0.589694,-0.0270131,0.0698823,0.202188,3.45615
0.31526,0.117948,0.528453,-0.0203331,0.0810473,0.149271,3.45615
0.332647,0.0542228,0.463552,-0.0114321,0.0636709,0.171466,3.45615
0.238108,0.000220741,0.440988,-0.000268698,0.0266875,0.167847,3.45615
0.158697,-0.0612909,0.452681,0.0212777,0.0162229,0.15643,3.45615
0.0709846,-0.0545756,0.443377,0.00308141,0.00161842,0.164008,3.45615
-0.0155921,0.00391203,0.419279,-0.0126116,-0.00224853,0.162978,3.45615
-0.0806717,0.0212809,0.419444,-0.0033405,-0.00341982,0.13843,3.45615
-0.124853,-0.0431905,0.333873,-0.0284921,0.0120344,0.121644,3.45615
-0.14104,0.0303402,0.259549,-0.0363373,-0.000643328,0.106274,3.45615
-0.113962,0.180045,0.23877,-0.0258132,-0.0101642,0.0790576,3.45615
-0.149781,0.183786,0.242327,0.00361164,-0.0201142,0.0574534,3.45615
-0.230073,0.052773,0.185618,-0.00835096,-0.0315111,0.0450744,3.45615
-0.252795,-0.0308964,0.0939343,-0.0244919,-0.0233056,0.01556,3.45615
-0.124583,-0.0227248,0.0258821,-0.0282877,-0.0184768,-0.0444616,3.45615
-0.0135112,0.022503,-0.015109,-0.0333526,-0.0393149,-0.0371987,3.45615
0.00170911,0.00297255,-0.0709066,-0.0427885,-0.0503278,-0.0111864,3.45615
-0.0320405,-0.0501547,-0.120557,-0.0446963,-0.0657466,-0.025221,3.45615
-0.142826,-0.0709826,-0.137484,-0.0440518,-0.0822444,-0.0284665,3.45615
-0.235136,0.0240886,-0.126321,-0.0421505,-0.082425,-0.104158,3.45615
-0.186503,0.0226206,-0.170886,-0.0176229,-0.0464572,-0.237954,3.45615
-0.0532782,-0.0815528,-0.269884,-0.0071753,-0.041355,-0.329994,3.45615
0.0175707,-0.209854,-0.362119,0.0117206,-0.0503415,-0.34156,3.45615
0.0130104,-0.3464,-0.398912,0.0302891,-0.0835506,-0.321744,3.45615
-0.0561104,-0.34552,-0.377035,0.0249664,-0.10849,-0.301064,3.45615
-0.166694,-0.240475,-0.304929,0.0278544,-0.114895,-0.27296,3.45615
-0.361602,-0.0804346,-0.197032,0.0403783,-0.122341,-0.243659,3.45615
-0.486954,-0.0414403,-0.132113,0.0453468,-0.0836691,-0.276087,3.45615
-0.283745,-0.143523,-0.136104,0.0574034,-0.000194296,-0.353671,3.45615
0.141482,-0.254721,-0.305966,-0.00684549,0.0550279,-0.338142,3.45615
0.423072,-0.354905,-0.47616,-0.0289914,0.0472289,-0.170082,3.45615
0.367338,-0.419022,-0.503928,-0.016863,-0.00542501,0.0535418,3.45615
0.152167,-0.354774,-0.435742,-0.0210356,-0.0442813,0.177672,3.45615
-0.0207242,-0.263907,-0.416649,-0.0546833,-0.0346557,0.190662,3.45615
-0.0600019,-0.142061,-0.446846,-0.0744933,0.00726669,0.148522,3.45615
0.0566337,0.0632267,-0.500615,-0.0967352,0.0420425,0.0950264,3.45615
0.209785,0.200769,-0.512979,-0.0696336,0.060973,0.092458,3.45615
0.315827,0.203953,-0.471044,-0.038416,0.0537419,0.125907,3.45615
0.329298,0.109196,-0.434172,-0.029835,0.0577757,0.18961,3.45615
0.310752,-0.0203491,-0.413091,-0.0314602,0.056226,0.235569,3.45615
0.32015,-0.132886,-0.427523,-0.0526198,0.0738439,0.259312,3.45615
0.377597,-0.175834,-0.48172,-0.0726994,0.0920536,0.285383,3.45615
0.386678,-0.0831178,-0.49564,-0.0872438,0.0853988,0.320447,3.45615
0.337425,0.0191055,-0.527726,-0.104977,0.0798634,0.335404,3.45615
0.23742,0.0887766,-0.561625,-0.107492,0.0748,0.311614,3.45615
0.149875,0.0604979,-0.540346,-0.0789588,0.0745358,0.235755,3.45615
0.0625674,0.0681188,-0.505989,-0.0794968,0.0695788,0.172376,3.45615
-0.0485822,0.114522,-0.449376,-0.077068,0.059425,0.113837,3.45615
-0.0935848,0.145854,-0.399231,-0.0685832,0.0743909,0.0353444,3.45615
-0.0867912,0.129082,-0.388976,-0.0639383,0.0870647,-0.0212522,3.45615
-0.1324,0.0642602,-0.394486,-0.042424,0.0687909,-0.0220309,3.45615
-0.249514,0.0174647,-0.351867,-0.0196736,0.0378257,-0.00938839,3.45615
-0.270539,-0.0827072,-0.315745,0.000940472,0.0375519,-0.0435085,3.45615
-0.21888,-0.146142,-0.280326,0.00734995,0.0377919,-0.0472393,3.45615
-0.159615,-0.148959,-0.212355,0.0102454,0.0231255,-0.0348845,3.45615
-0.206418,-0.167883,-0.174963,0.0109811,0.00213127,0.019202,3.45615
-0.206418,-0.167883,-0.174963,0.0109811,0.00213127,0.019202,3.53014
-0.286478,-0.16026,-0.175133,-0.0146542,-0.0211172,0.0879315,3.53014
-0.285443,-0.125998,-0.152158,-0.0173533,-0.0271874,0.0835027,3.53014
-0.230293,-0.065071,-0.14658,-0.0217018,-0.0322662,0.0692851,3.53014
-0.183682,-0.000836928,-0.168899,-0.0361281,-0.0359809,0.0368671,3.53014
-0.183208,-0.0563857,-0.175954,-0.043656,-0.0512604,-0.0181683,3.53014
-0.156795,-0.161881,-0.192754,-0.0325698,-0.0596139,-0.110701,3.53014
-0.200271,-0.104459,-0.13882,-0.0366536,-0.0787078,-0.188678,3.53014
-0.302377,-0.0789421,0.00187626,-0.0139147,-0.110431,-0.258052,3.53014
-0.368055,-0.0830129,0.149166,0.0303645,-0.112942,-0.355409,3.53014
-0.379744,0.00786306,0.278289,0.0325483,-0.0981283,-0.423721,3.53014
-0.240062,0.0490283,0.341811,0.0197754,-0.0584951,-0.465681,3.53014
-0.122685,-0.0601713,0.347116,0.0254033,-0.0155126,-0.469849,3.53014
-0.142151,-0.11799,0.437246,0.0562909,-0.0192091,-0.385008,3.53014
-0.331312,-0.076774,0.634826,0.0933018,-0.060261,-0.266858,3.53014
-0.602857,-0.0390549,0.850838,0.121043,-0.0981414,-0.174789,3.53014
-0.609917,-0.144448,0.988377,0.151956,-0.0781359,-0.165047,3.53014
-0.311441,-0.329471,0.963103,0.148521,0.00486345,-0.234633,3.53014
0.0447985,-0.371867,0.866988,0.116587,0.0542579,-0.208482,3.53014
0.298196,-0.286829,0.815617,0.101636,0.0369776,-0.0243897,3.53014
0.373685,-0.121812,0.788526,0.0931707,0.0147012,0.0978841,3.53014
0.304292,0.0541205,0.710061,0.0795362,0.0112854,0.178297,3.53014
0.224938,0.202621,0.609717,0.0879354,0.0251433,0.193381,3.53014
0.232804,0.321317,0.618438,0.14985,0.0422448,0.159399,3.53014
0.265963,0.326132,0.705917,0.180891,0.0416132,0.152406,3.53014
0.261694,0.257832,0.764404,0.152125,0.045245,0.18909,3.53014
0.271662,0.0954912,0.770752,0.120325,0.0508921,0.215349,3.53014
0.27943,-0.0374568,0.736422,0.0774966,0.0551553,0.265971,3.53014
0.258057,-0.000406102,0.664923,0.0364721,0.0552084,0.298782,3.53014
0.365703,0.134766,0.589069,0.0296786,0.0719559,0.268797,3.53014
0.460408,0.244809,0.545432,0.034821,0.0636689,0.265387,3.53014
0.422186,0.222895,0.538175,0.0510607,0.0543171,0.287661,3.53014
0.314468,0.108416,0.567497,0.0639459,0.0349646,0.268867,3.53014
0.157702,0.0640667,0.642217,0.0546923,0.00884931,0.242465,3.53014
0.0173574,0.0551922,0.717271,0.0444901,-0.00237499,0.18877,3.53014
-0.179466,0.00263066,0.744554,0.0172342,-0.0159544,0.14368,3.53014
-0.221747,-0.0330417,0.720382,0.00847708,0.00456852,0.0334355,3.53014
-0.0888002,0.0646276,0.716826,0.0158414,-0.0102419,-0.0506128,3.53014
-0.0675749,0.104573,0.738761,0.0376975,-0.0459125,-0.0193339,3.53014
-0.262391,0.0395864,0.827498,0.0610191,-0.100581,0.0367338,3.53014
-0.486594,-0.084409,0.931032,0.0542264,-0.132173,0.0292192,3.53014
-0.593783,-0.146878,0.929082,0.0090473,-0.113209,-0.0456892,3.53014
-0.524748,-0.199589,0.827173,-0.0397884,-0.0844079,-0.135986,3.53014
-0.297867,-0.220071,0.697695,-0.0344935,-0.0715587,-0.198095,3.53014
-0.0894929,-0.192213,0.55513,-0.0407211,-0.0724499,-0.206366,3.53014
0.00616429,-0.119918,0.454385,-0.0155174,-0.0791417,-0.198849,3.53014
-0.0130726,-0.0349144,0.340727,-0.0155557,-0.0922559,-0.173863,3.53014
-0.101345,0.0765673,0.277235,-0.00276766,-0.121069,-0.228742,3.53014
-0.227849,0.0516983,0.186213,0.0230836,-0.118276,-0.242227,3.53014
-0.297352,0.0318282,0.136302,0.0716371,-0.117593,-0.307502,3.53014
-0.250859,0.0734335,0.146166,0.119317,-0.0807412,-0.355682,3.53014
-0.120885,0.167866,0.11503,0.101124,-0.0462263,-0.381375,3.53014
-0.0365708,0.12614,0.0572663,0.0963639,-0.0175703,-0.324865,3.53014
0.0334043,-0.00453725,0.000989402,0.100211,0.00822859,-0.250568,3.53014
0.0334043,-0.00453725,0.000989402,0.100211,0.00822859,-0.250568,3.63582
0.11389,-0.188872,0.00938779,0.100529,0.0241385,-0.155973,3.63582
0.288613,-0.356162,-0.0174315,0.0691927,0.0463238,-0.0739133,3.63582
0.356426,-0.299891,-0.0312296,0.0250617,0.0256013,0.049046,3.63582
0.297647,-0.0726888,0.0390187,0.0233246,-0.000537984,0.143717,3.63582
0.291516,0.221089,0.163718,0.0202572,0.00857438,0.123963,3.63582
0.332511,0.3805,0.245139,0.0208698,0.0458638,0.0925554,3.63582
0.370728,0.30199,0.299664,0.0401196,0.0662767,0.0842985,3.63582
0.405667,0.119224,0.397301,0.0676997,0.0718492,0.0925056,3.63582
0.433715,-0.0551576,0.445669,0.0433726,0.0665758,0.131867,3.63582
0.451097,-0.172285,0.462675,0.0258131,0.0701476,0.188796,3.63582
0.47938,-0.195156,0.47115,0.0134431,0.0694274,0.249007,3.63582
0.475645,-0.141281,0.477156,0.000353314,0.067934,0.306009,3.63582
0.417088,-0.0466647,0.481772,-0.0100008,0.0801147,0.334806,3.63582
0.431449,-0.0307931,0.45122,-0.0101995,0.108489,0.291413,3.63582
0.362282,-0.0491448,0.412221,-0.0109404,0.111082,0.303015,3.63582
0.280236,-0.052536,0.393031,-0.00865464,0.107477,0.265322,3.63582
0.242476,0.0228215,0.39072,-0.00819379,0.0931952,0.227088,3.63582
0.130038,0.175245,0.441213,0.0024726,0.0567769,0.217882,3.63582
-0.108579,0.248002,0.511858,0.0141212,0.0252394,0.195747,3.63582
-0.245271,0.227161,0.557855,0.025035,0.0361628,0.0954072,3.63582
-0.273214,0.178345,0.56104,0.0264708,0.0517647,0.032113,3.63582
-0.258867,0.153394,0.549062,0.0244109,0.043198,0.00314867,3.63582
-0.236177,0.19421,0.560443,0.0334113,0.0273799,-0.00512248,3.63582
-0.204314,0.19389,0.583723,0.0414793,0.0136103,0.000803769,3.63582
-0.240788,0.128743,0.607906,0.0464316,-0.0112269,0.042293,3.63582
-0.304353,0.0784814,0.657973,0.0423774,-0.036347,0.0622882,3.63582
-0.318324,0.00881137,0.684466,0.0342818,-0.047066,0.0623519,3.63582
-0.282404,0.0609328,0.749134,0.0345783,-0.0700566,0.0561561,3.63582
-0.249765,0.18679,0.815236,0.0334795,-0.106417,0.0673208,3.63582
-0.261128,0.235445,0.882137,0.0513786,-0.128115,0.0815237,3.63582
-0.270193,0.216399,1.00568,0.0757618,-0.140558,0.0698692,3.63582
-0.261669,0.192885,1.14556,0.0707573,-0.141714,0.0508099,3.63582
-0.256968,0.174826,1.20437,0.0318049,-0.13059,0.028296,3.63582
-0.271043,0.235495,1.272,0.0163886,-0.127762,-0.005566,3.63582
-0.266397,0.285179,1.3462,0.00594338,-0.113809,-0.0478514,3.63582
-0.199997,0.317375,1.3568,-0.0231442,-0.0734186,-0.10618,3.63582
-0.0988369,0.316569,1.30124,-0.0475332,-0.0469016,-0.152263,3.63582
-0.0124855,0.214506,1.26963,-0.0310398,-0.0498222,-0.17796,3.63582
-0.0610637,0.189404,1.26374,-0.0234699,-0.0405955,-0.161841,3.63582
-0.167347,0.442415,1.2969,-0.0363461,-0.0246163,-0.169683,3.63582
-0.225247,0.641609,1.27811,-0.0373665,0.0165768,-0.217897,3.63582
-0.216629,0.667281,1.18746,-0.0210912,0.058076,-0.24759,3.63582
-0.212342,0.624058,1.1775,0.0300688,0.0117147,-0.275062,3.63582
-0.185734,0.389994,1.20206,0.0828389,-0.00134906,-0.270705,3.63582
-0.0466626,0.126104,1.19185,0.0857813,0.0153698,-0.266177,3.63582
0.234147,-0.157311,1.072,0.0562677,0.039812,-0.205991,3.63582
0.516667,-0.278559,0.943397,0.0351865,0.0407158,-0.105181,3.63582
0.714532,-0.216791,0.885395,0.03819,0.0243726,0.0114957,3.63582
0.766319,-0.0731614,0.805821,0.0197744,0.0260068,0.0835742,3.63582
0.77524,0.143894,0.716115,0.0244998,0.0417859,0.0838581,3.63582
0.812539,0.358277,0.727181,0.0903751,0.0768677,0.0403279,3.63582
0.817991,0.443867,0.817877,0.154276,0.10349,0.019445,3.63582
0.675507,0.41387,0.905128,0.174887,0.0956733,0.0409864,3.63582
0.543843,0.311265,1.03655,0.206454,0.0906414,0.00897402,3.63582
0.543843,0.311265,1.03655,0.206454,0.0906414,0.00897402,3.77322
0.372775,0.0621354,1.17878,0.225405,0.0989262,0.0270134,3.77322
0.187465,-0.168375,1.28495,0.199446,0.110239,0.0689511,3.77322
0.0513162,-0.270032,1.33544,0.1485,0.120573,0.109735,3.77322
-0.00388253,-0.226,1.3348,0.0952537,0.124347,0.139801,3.77322
-0.00904609,-0.10962,1.2763,0.0554806,0.122552,0.166551,3.77322
-0.0606366,0.0210688,1.21378,0.0286152,0.101874,0.205662,3.77322
-0.177959,0.0624917,1.11712,0.00611616,0.0824215,0.21947,3.77322
-0.250228,0.0379606,1.00238,0.00604746,0.0664673,0.181268,3.77322
-0.283395,0.029893,0.934112,0.0080654,0.047519,0.157232,3.77322
-0.292152,0.0488236,0.866246,-0.0130871,0.0312075,0.147714,3.77322
-0.275889,0.133717,0.746092,-0.0557221,0.0130177,0.115139,3.77322
-0.268863,0.240654,0.611963,-0.079357,-0.0109498,0.109184,3.77322
-0.223738,0.345484,0.52333,-0.0678515,-0.0311606,0.0592008,3.77322
-0.260175,0.426889,0.488151,-0.0595266,-0.0696551,0.0410832,3.77322
-0.390808,0.344677,0.399145,-0.0670952,-0.0740358,-0.00787318,3.77322
-0.458376,0.268105,0.298355,-0.0699179,-0.0830362,-0.120027,3.77322
-0.474489,0.314799,0.179356,-0.0981458,-0.083233,-0.24863,3.77322
-0.404216,0.234006,0.100865,-0.0412704,-0.0709276,-0.372354,3.77322
-0.406127,0.170701,0.171295,0.0223901,-0.0920645,-0.427979,3.77322
-0.48681,0.105066,0.277637,0.0279274,-0.0928403,-0.437602,3.77322
-0.562531,-0.0617494,0.275232,0.0121576,-0.0788683,-0.449479,3.77322
-0.554907,-0.101104,0.195956,-0.015063,-0.056907,-0.456631,3.77322
-0.452223,-0.0338724,0.12887,-0.0102085,-0.0380246,-0.447056,3.77322
-0.225592,-0.0107867,0.107636,0.0103221,-0.0149855,-0.404323,3.77322
0.076482,-0.131394,0.0248986,-0.0243523,0.000305429,-0.28502,3.77322
0.266096,-0.32638,-0.0842313,-0.0450336,-0.0180108,-0.11579,3.77322
0.201306,-0.446215,-0.13919,-0.0564948,-0.0541129,0.0612977,3.77322
0.0405193,-0.40755,-0.184389,-0.0840261,-0.0616863,0.125397,3.77322
-0.0136383,-0.307446,-0.210168,-0.0625999,-0.0405032,0.0674763,3.77322
0.0857148,-0.17141,-0.195876,-0.0353639,0.008916,-0.0023421,3.77322
0.27996,-0.0661069,-0.226466,-0.0308351,0.0588128,-0.0407802,3.77322
0.385848,-0.00319129,-0.24306,-0.0119567,0.0732838,0.0113009,3.77322
0.474954,0.021923,-0.233083,0.0168842,0.0893213,0.0539,3.77322
0.562117,-0.0524055,-0.224115,0.0368437,0.106112,0.138485,3.77322
0.607486,-0.0625087,-0.223178,0.0249657,0.105099,0.238133,3.77322
0.577545,-0.0340509,-0.20938,0.024647,0.104291,0.330136,3.77322
0.521327,0.0581753,-0.237629,-0.00736335,0.112365,0.37445,3.77322
0.533242,0.113752,-0.286869,-0.00298793,0.126154,0.355152,3.77322
0.434663,0.114261,-0.316483,-0.00291979,0.107434,0.366798,3.77322
0.26584,0.0928194,-0.293005,0.00524526,0.0902958,0.345574,3.77322
0.226798,0.0612577,-0.165603,0.0404488,0.0788439,0.229754,3.77322
0.178521,0.0685339,-0.0793688,0.0180327,0.0734346,0.178303,3.77322
0.0400186,0.116931,-0.106271,-0.0348568,0.0637136,0.156927,3.77322
-0.0748734,0.202779,-0.0834615,-0.0152389,0.0520425,0.0963563,3.77322
-0.123764,0.329057,-0.0208435,-0.00448736,0.0476535,0.0358219,3.77322
-0.223682,0.391049,0.0801841,0.0243838,0.0386903,-0.00222802,3.77322
-0.285926,0.254219,0.138089,0.0381527,0.0416622,-0.0551246,3.77322
-0.258576,-0.00161999,0.0901847,0.0178533,0.0482032,-0.106056,3.77322
-0.234213,-0.0795725,0.0922114,0.00889586,0.0273405,-0.105819,3.77322
-0.225456,-0.0005278,0.129153,-0.016101,-0.00265677,-0.105842,3.77322
-0.187194,0.131794,0.138184,-0.0299575,-0.00290368,-0.143329,3.77322
-0.171914,0.244059,0.169732,-0.0218669,-0.0165446,-0.18727,3.77322
-0.155553,0.2516,0.14822,-0.0167301,-0.00397274,-0.250022,3.77322
-0.19122,0.338957,0.156828,0.00190423,-0.00027886,-0.284136,3.77322
-0.19122,0.338957,0.156828,0.00190423,-0.00027886,-0.284136,3.97668
-0.25836,0.416938,0.263999,0.0592557,-0.00712602,-0.308409,3.97668
-0.364272,0.470672,0.380249,0.0925905,0.00597456,-0.325907,3.97668
-0.322476,0.419684,0.421418,0.0978746,0.0428175,-0.368282,3.97668
-0.188952,0.288287,0.418054,0.108836,0.0602171,-0.324427,3.97668
-0.17143,0.273968,0.455126,0.10956,0.0263225,-0.171264,3.97668
-0.240495,0.437892,0.576303,0.115484,-0.00658603,-0.0586664,3.97668
-0.333942,0.623065,0.658961,0.100528,0.00158498,-0.00773114,3.97668
-0.248164,0.436793,0.620825,0.0934004,0.0365751,-0.0504939,3.97668
-0.0932288,0.0966273,0.54115,0.081284,0.0539131,-0.0425909,3.97668
0.020964,-0.0511443,0.535639,0.0685823,0.0249253,0.00974584,3.97668
0.0137576,0.0684073,0.535865,0.0100969,-0.00654044,0.075528,3.97668
0.0437638,0.218966,0.44245,-0.00867531,0.0137166,0.0500157,3.97668
0.211324,0.298254,0.343296,0.0170658,0.0424807,-0.00772905,3.97668
0.409244,0.271779,0.342597,0.07516,0.05666,-0.0180948,3.97668
0.455546,0.169452,0.419159,0.0908381,0.0323979,0.0543316,3.97668
0.306133,0.00706428,0.500884,0.0671438,0.00854531,0.142381,3.97668
0.166483,-0.0938944,0.588292,0.0409549,0.0107569,0.166611,3.97668
0.16163,-0.129036,0.616461,-0.00145373,0.0366227,0.159457,3.97668
0.175403,-0.106502,0.607754,-0.0348312,0.054241,0.210108,3.97668
0.178963,-0.0860174,0.587443,-0.0489791,0.0495534,0.251401,3.97668
0.177266,-0.116523,0.520496,-0.0585528,0.0482013,0.285633,3.97668
0.152408,-0.130931,0.433616,-0.0546168,0.0412696,0.303182,3.97668
0.136851,-0.134338,0.395082,-0.0412536,0.0265507,0.286375,3.97668
0.13379,-0.0809431,0.424912,-0.0195464,0.0131435,0.259315,3.97668
0.110741,-0.0636929,0.365317,-0.0539776,0.00820115,0.217446,3.97668
-0.0156987,-0.0910777,0.244661,-0.0590456,-0.000576958,0.220119,3.97668
-0.145261,-0.0306026,0.193191,-0.0332392,-0.0243705,0.171148,3.97668
-0.218194,0.0441454,0.204516,0.00452605,-0.0217379,0.0982145,3.97668
-0.305295,0.0761236,0.191012,0.00424381,-0.031553,0.0647277,3.97668
-0.359968,-0.00365256,0.168617,0.0304942,-0.027122,0.026114,3.97668
-0.313963,-0.107546,0.0873042,0.0227354,-0.0157818,-0.0214911,3.97668
-0.173498,-0.124993,-0.0135569,0.0156553,-0.018695,-0.0316179,3.97668
-0.0397463,-0.0026306,-0.0687476,0.0195459,-0.0605294,-0.00365901,3.97668
0.00908412,0.121442,-0.0733975,0.0442062,-0.103942,0.018092,3.97668
0.0353558,0.0908566,-0.101893,0.0757699,-0.121051,-0.0276906,3.97668
0.0625937,0.126885,-0.119545,0.0825926,-0.153233,-0.0884449,3.97668
0.0621031,0.11846,-0.0601382,0.0833356,-0.162538,-0.110745,3.97668
0.0215121,0.100835,-0.0144744,0.102821,-0.154275,-0.141871,3.97668
-0.00373418,0.0753672,-0.0292315,0.0796222,-0.1441,-0.192712,3.97668
-0.0541105,0.179096,0.0792175,0.0807465,-0.126961,-0.228059,3.97668
-0.113934,0.171578,0.157902,0.0923228,-0.12528,-0.285032,3.97668
-0.154982,-0.0296237,0.140403,0.0807903,-0.0790596,-0.331713,3.97668
-0.118836,-0.332771,0.0693949,0.051917,-0.0285186,-0.381467,3.97668
-0.0842268,-0.441889,0.0229567,0.0274134,0.00290845,-0.359785,3.97668
-0.153048,-0.29014,-0.00558016,-0.0226588,-0.00910392,-0.287137,3.97668
-0.288638,-0.0887959,-0.0758675,-0.0646011,-0.0251505,-0.216783,3.97668
-0.293829,-0.0359418,-0.17213,-0.062826,0.00409026,-0.201673,3.97668
-0.110947,-0.159294,-0.267128,-0.0152315,0.0563561,-0.251878,3.97668
0.0819269,-0.243903,-0.377498,-0.0026134,0.0769872,-0.180839,3.97668
0.259776,-0.298483,-0.503925,-0.0248414,0.0761821,-0.075294,3.97668
0.34362,-0.308729,-0.606664,-0.0362789,0.0760001,0.0339105,3.97668
0.327402,-0.252438,-0.659683,-0.0364492,0.0504081,0.142883,3.97668
0.321459,-0.0723687,-0.698175,-0.0569231,0.0393769,0.194797,3.97668
0.369757,0.0782621,-0.684882,-0.0484401,0.0471226,0.15428,3.97668
0.369757,0.0782621,-0.684882,-0.0484401,0.0471226,0.15428,4.16165
0.438036,0.072792,-0.65518,-0.0197777,0.053696,0.11055,4.16165
0.460668,-0.0290261,-0.575705,0.00995496,0.0576984,0.094772,4.16165
0.383838,-0.137634,-0.470448,0.030166,0.0410952,0.13266,4.16165
0.321419,-0.208648,-0.374674,0.023643,0.0334537,0.184913,4.16165
0.375351,-0.23256,-0.31256,-0.00117172,0.0515908,0.192598,4.16165
0.464616,-0.250034,-0.295986,-0.0223112,0.0584617,0.223499,4.16165
0.472552,-0.22966,-0.291633,-0.035167,0.0474924,0.270876,4.16165
0.356566,-0.14047,-0.22329,-0.0269638,0.0324812,0.315329,4.16165
0.19256,-0.00786946,-0.123748,-0.0232582,0.0157452,0.312509,4.16165
-0.0203899,0.0121166,-0.0871783,-0.0541109,0.0145785,0.303809,4.16165
-0.184098,-0.0353119,-0.080087,-0.0351464,0.0507772,0.227847,4.16165
-0.209295,-0.00957174,-0.0496443,-0.0232965,0.0610009,0.148704,4.16165
-0.196339,0.0632374,-0.00570202,-0.0130545,0.0674679,0.102932,4.16165
-0.255259,0.106698,-0.0242721,-0.0365933,0.0644763,0.0934033,4.16165
-0.375363,0.0873922,-0.0320717,-0.0310134,0.045252,0.0878801,4.16165
-0.476754,0.0112337,-0.045395,-0.0278492,0.0415236,0.0616144,4.16165
-0.541402,0.0181722,-0.0250173,-0.02531,0.0390562,0.0366232,4.16165
-0.531614,0.0401676,-0.0121331,-0.0238967,0.0283117,0.00615638,4.16165
-0.506729,-0.0123482,-0.015991,-0.0181184,0.0156771,-0.020385,4.16165
-0.481257,-0.0634716,-0.034354,-0.0351189,-0.00520238,-0.0361182,4.16165
-0.492061,-0.101636,-0.0237068,-0.0319523,-0.0318824,-0.0444708,4.16165
-0.555897,-0.130654,-0.0140587,-0.0549402,-0.0545112,-0.0517739,4.16165
-0.547412,-0.150131,-0.038489,-0.064848,-0.0435115,-0.10673,4.16165
-0.447488,-0.0275083,-0.0796004,-0.0931261,-0.0394557,-0.174135,4.16165
-0.318422,0.146068,-0.1354,-0.0958152,-0.043885,-0.229097,4.16165
-0.233923,0.322761,-0.155552,-0.0712926,-0.0404252,-0.266799,4.16165
-0.21186,0.497547,-0.0981833,-0.0201764,-0.0418429,-0.306659,4.16165
-0.285687,0.558114,-0.00591975,0.0292148,-0.0288594,-0.339873,4.16165
-0.352,0.457371,0.0808554,0.0690479,-0.0151608,-0.399224,4.16165
-0.379173,0.305388,0.182677,0.100531,-0.00559179,-0.407578,4.16165
-0.298722,0.160705,0.264294,0.116769,0.00929105,-0.402859,4.16165
-0.2555,0.126751,0.332704,0.110532,-0.00648979,-0.315418,4.16165
-0.243259,0.145102,0.454355,0.128016,-0.0224557,-0.233061,4.16165
-0.298955,0.150055,0.554583,0.124063,-0.0259498,-0.161648,4.16165
-0.265719,0.0442542,0.551756,0.102086,0.00022747,-0.138266,4.16165
-0.012577,-0.145242,0.508197,0.105581,0.0393478,-0.1262,4.16165
0.294128,-0.236785,0.43843,0.0764173,0.0505193,-0.050231,4.16165
0.456909,-0.206223,0.355722,0.0419302,0.0358663,0.0833164,4.16165
0.48887,-0.00384077,0.281148,0.0301608,0.025355,0.174675,4.16165
0.457384,0.26532,0.261929,0.0513562,0.0224753,0.202339,4.16165
0.39612,0.404558,0.335003,0.107477,0.0338839,0.177103,4.16165
0.370202,0.308997,0.444364,0.15238,0.0672127,0.127621,4.16165
0.307779,0.0961137,0.545806,0.146354,0.0858948,0.132313,4.16165
0.258094,-0.0841351,0.58439,0.0996579,0.0977902,0.147887,4.16165
0.239456,-0.126428,0.598759,0.048132,0.0974178,0.165644,4.16165
0.247939,-0.107855,0.585709,0.00296324,0.0929289,0.178615,4.16165
0.284076,-0.0863624,0.528367,-0.0185495,0.0969769,0.197162,4.16165
0.315295,-0.0659237,0.493483,-0.0212577,0.0834868,0.206541,4.16165
0.256396,-0.0897412,0.47913,-0.0150018,0.0723682,0.235198,4.16165
0.154174,-0.0878892,0.503288,-0.00661802,0.0460156,0.241016,4.16165
0.0212424,-0.0861106,0.521892,-0.0116936,0.0305078,0.227804,4.16165
-0.0531636,-0.0899594,0.491717,-0.0243216,0.0378275,0.186725,4.16165
-0.0902546,-0.0547116,0.442839,-0.0312247,0.0327611,0.156662,4.16165
-0.165972,0.03274,0.411381,-0.0228119,0.0140067,0.146861,4.16165
-0.165972,0.03274,0.411381,-0.0228119,0.0140067,0.146861,4.34926
-0.308567,0.0846918,0.407003,-0.000883952,-0.0193372,0.132509,4.34926
-0.444518,-0.0194237,0.45365,0.0371404,-0.0312827,0.0962596,4.34926
-0.481028,-0.242211,0.445893,0.0421031,-0.030599,0.0498425,4.34926
-0.462395,-0.371784,0.371372,0.0159717,-0.0391037,0.0481787,4.34926
-0.296985,-0.268633,0.280468,-0.0135203,-0.0508429,0.0178838,4.34926
-0.121662,-0.0659555,0.17728,-0.0279977,-0.0705538,0.041689,4.34926
-0.0976458,0.0759893,0.0938708,-0.00591167,-0.112829,0.0962486,4.34926
-0.163578,0.101468,0.128954,0.0541854,-0.14896,0.108006,4.34926
-0.178574,0.0161598,0.203249,0.0880575,-0.150569,0.0693374,4.34926
-0.196626,-0.0620394,0.229672,0.06938,-0.145758,0.0620319,4.34926
-0.234116,-0.118337,0.233126,0.0516751,-0.150412,0.0442281,4.34926
-0.265866,-0.112282,0.241844,0.0378975,-0.143332,0.0108872,4.34926
-0.229887,-0.116774,0.197267,0.0151005,-0.117586,-0.0571771,4.34926
-0.164021,-0.184151,0.12612,0.00234877,-0.104634,-0.0948117,4.34926
-0.0905462,-0.231576,0.0652083,-0.00324896,-0.0977172,-0.127867,4.34926
-0.0118856,-0.19724,-0.061502,-0.0443565,-0.0857876,-0.143996,4.34926
0.0541795,-0.0108669,-0.178293,-0.0438214,-0.0827008,-0.180227,4.34926
0.180426,0.112309,-0.252117,-0.00732738,-0.0527649,-0.265656,4.34926
0.265401,0.118717,-0.29866,0.0386776,-0.037395,-0.302777,4.34926
0.185596,0.0851231,-0.220682,0.0892833,-0.0652141,-0.294878,4.34926
-0.0557583,-0.0172352,-0.0586311,0.121346,-0.0829456,-0.275462,4.34926
-0.370839,-0.134991,0.0944808,0.113766,-0.0768107,-0.272721,4.34926
-0.56768,-0.185052,0.162756,0.0770589,-0.0288603,-0.322887,4.34926
-0.553625,-0.176364,0.170787,0.0536006,0.0283591,-0.365953,4.34926
-0.425255,-0.121556,0.179404,0.0476187,0.0558778,-0.358455,4.34926
-0.228552,-0.0701473,0.112248,0.00714545,0.0763421,-0.294889,4.34926
-0.0253596,-0.137703,0.0216661,-0.00462226,0.0717705,-0.187111,4.34926
0.151696,-0.312034,-0.0787622,-0.0192556,0.0626801,-0.0601855,4.34926
0.225739,-0.423124,-0.205998,-0.0494882,0.0493739,0.067619,4.34926
0.190431,-0.261273,-0.303885,-0.0893999,0.022428,0.167428,4.34926
0.203594,-0.00494426,-0.32813,-0.0708127,0.0188247,0.152405,4.34926
0.336583,0.287227,-0.339166,-0.0802481,0.0366535,0.107924,4.34926
0.442375,0.437835,-0.318912,-0.0466219,0.0540909,0.0961719,4.34926
0.484668,0.349395,-0.272321,-0.0176066,0.0573893,0.104172,4.34926
0.441949,0.107431,-0.164468,0.0207786,0.0500644,0.133198,4.34926
0.371978,-0.101211,-0.0657291,0.010328,0.0421902,0.171778,4.34926
0.371438,-0.211379,-0.0246524,-0.0210677,0.0563697,0.195657,4.34926
0.439687,-0.209226,-0.00711642,-0.0426131,0.0653763,0.218244,4.34926
0.434619,-0.065206,0.0284742,-0.0642327,0.0620378,0.261565,4.34926
0.39886,0.0202522,0.0403429,-0.0809423,0.066169,0.263335,4.34926
0.388978,-0.0197733,0.00343099,-0.0897133,0.0857598,0.227754,4.34926
0.376495,-0.076692,-0.0354637,-0.0883447,0.0841024,0.214024,4.34926
0.300352,-0.0710842,-0.0179553,-0.0844557,0.0647365,0.203563,4.34926
0.232697,-0.0555753,-0.0255392,-0.0939499,0.0600857,0.164861,4.34926
0.145421,-0.0276242,-0.0661783,-0.111787,0.0537386,0.144676,4.34926
0.0644158,0.0369681,-0.0886356,-0.0966885,0.0463376,0.121884,4.34926
-0.0189408,0.142864,-0.105869,-0.089151,0.0261468,0.101627,4.34926
-0.116191,0.210634,-0.0669084,-0.0494406,0.0182655,0.0892707,4.34926
-0.1921,0.182427,0.108688,0.0156318,0.00175622,0.0364664,4.34926
-0.393001,0.0460969,0.209554,0.00225335,-0.0112108,0.0410866,4.34926
-0.595381,-0.0789031,0.225777,-0.0315192,-0.00691006,0.0167555,4.34926
-0.61337,-0.141345,0.203362,-0.0418327,0.0119405,-0.0441174,4.34926
-0.408988,-0.0661973,0.120874,-0.0647998,0.0306005,-0.088465,4.34926
-0.119728,0.0610752,0.00703734,-0.0688019,0.0291661,-0.0939717,4.34926
-0.119728,0.0610752,0.00703734,-0.0688019,0.0291661,-0.0939717,4.55006
0.0333859,0.11355,-0.0576222,-0.038754,-0.00212692,-0.0207003,4.55006
0.00917836,0.0886224,-0.0354876,-0.00320857,-0.0520092,0.0575327,4.55006
-0.132195,0.0729528,0.00314232,-0.0104505,-0.0874421,0.0903251,4.55006
-0.203016,0.0741625,0.0453925,-0.0154617,-0.0905565,0.0427909,4.55006
-0.123161,0.0227464,0.0624256,-0.0203209,-0.0710026,-0.0413532,4.55006
-0.0145889,0.0145261,0.0444045,-0.0503233,-0.0688132,-0.0810355,4.55006
0.0969621,-0.00438378,0.0270696,-0.0642771,-0.0695779,-0.120036,4.55006
0.0419618,0.0683892,-0.0218347,-0.0983538,-0.0823655,-0.110726,4.55006
-0.023468,0.216123,-0.07549,-0.0867729,-0.0638718,-0.158619,4.55006
0.0171986,0.366837,-0.0727508,-0.0458865,-0.0264543,-0.26502,4.55006
0.186719,0.344756,-0.0499917,0.00148601,0.000776887,-0.344406,4.55006
0.181535,0.285869,0.0201098,0.0183812,-0.0394747,-0.309359,4.55006
-0.0797556,0.272262,0.165469,0.0466477,-0.0855865,-0.239794,4.55006
-0.346214,0.25651,0.366575,0.095387,-0.0747396,-0.241021,4.55006
-0.470683,0.237171,0.529752,0.0985161,-0.032778,-0.270623,4.55006
-0.498663,0.289573,0.588091,0.0731641,0.00608359,-0.272492,4.55006
-0.465981,0.412224,0.640171,0.0755543,0.0164398,-0.269762,4.55006
-0.40577,0.447968,0.686081,0.0917045,0.0224562,-0.249965,4.55006
-0.279889,0.307917,0.733418,0.131029,0.0437907,-0.218973,4.55006
-0.0767451,0.0973364,0.819921,0.151422,0.0489901,-0.170915,4.55006
0.0892172,-0.145217,0.828724,0.127809,0.0615242,-0.0636477,4.55006
0.142283,-0.247945,0.801825,0.0887247,0.0467005,0.0533803,4.55006
0.142962,-0.162709,0.784628,0.0720342,0.0338652,0.112953,4.55006
0.134364,0.0231845,0.752635,0.0751401,0.0441779,0.122539,4.55006
0.125034,0.178428,0.734784,0.096377,0.0680582,0.117522,4.55006
0.219013,0.261681,0.740854,0.132238,0.0979135,0.067987,4.55006
0.28097,0.223796,0.768025,0.146327,0.105916,0.0780193,4.55006
0.260281,0.0760511,0.791461,0.136861,0.102684,0.128853,4.55006
0.256352,-0.0873237,0.802524,0.113454,0.0993618,0.179931,4.55006
0.28355,-0.159511,0.804936,0.0694204,0.0899436,0.24107,4.55006
0.291394,-0.121404,0.788092,0.0202354,0.0744056,0.301825,4.55006
0.287202,-0.0194943,0.801803,0.00566369,0.0612707,0.340345,4.55006
0.30043,0.05321,0.817917,-0.00197294,0.0666809,0.339269,4.55006
0.30098,0.0555119,0.814809,-0.00215062,0.0714966,0.342635,4.55006
0.222094,0.0397889,0.816564,-0.0121312,0.0554651,0.35664,4.55006
0.0517554,0.0198859,0.831857,-0.00957935,0.0416541,0.353957,4.55006
-0.159641,-0.0615306,0.88054,-0.00387946,0.0232863,0.328625,4.55006
-0.357145,-0.170189,0.885757,-0.015852,0.0299753,0.266177,4.55006
-0.556493,-0.236413,0.938292,0.008892,0.00928386,0.213215,4.55006
-0.655568,-0.159991,0.966786,0.00326669,-0.00390019,0.134902,4.55006
-0.646562,-0.00309528,0.939855,-0.00201393,-0.0103051,0.0363098,4.55006
-0.635143,0.108336,0.895668,0.00119721,-0.0262214,-0.00142902,4.55006
-0.553749,0.11008,0.841099,0.0167751,-0.0338686,-0.055378,4.55006
-0.495928,0.00281452,0.734874,0.00708086,-0.054592,-0.0449021,4.55006
-0.469087,-0.0506563,0.608752,-0.00270957,-0.0887296,-0.0207781,4.55006
-0.446438,-0.00117236,0.531764,0.00341472,-0.130879,0.00287896,4.55006
-0.391027,0.0981996,0.465773,0.013979,-0.161023,0.00836694,4.55006
-0.274616,0.136724,0.431426,0.0526007,-0.175466,-0.00887001,4.55006
-0.168475,0.0788607,0.376793,0.0654665,-0.184133,-0.0162277,4.55006
-0.106176,0.0239051,0.361308,0.090152,-0.204723,-0.00254107,4.55006
-0.119781,-0.0158493,0.452699,0.112993,-0.233346,0.0208286,4.55006
-0.172792,-0.169361,0.554945,0.118166,-0.22525,0.0241029,4.55006
-0.180849,-0.319975,0.598954,0.0791456,-0.205661,0.0154788,4.55006
-0.134929,-0.335364,0.578672,0.0171227,-0.175611,0.00055027,4.55006
-0.134929,-0.335364,0.578672,0.0171227,-0.175611,0.00055027,4.72446
-0.0283243,-0.20325,0.545173,-0.0221929,-0.153407,-0.0297306,4.72446
0.0673413,-0.113238,0.4518,-0.045158,-0.123209,-0.0653186,4.72446
0.155836,-0.140909,0.32413,-0.0379497,-0.0956397,-0.125121,4.72446
0.293999,-0.234558,0.190218,-0.0144379,-0.0661447,-0.183471,4.72446
0.420371,-0.366183,0.0982649,0.0083062,-0.0572244,-0.17961,4.72446
0.394207,-0.411129,0.0947631,0.0236031,-0.0834068,-0.126853,4.72446
0.261882,-0.233825,0.244763,0.0413622,-0.111108,-0.110608,4.72446
0.0587748,-0.0141548,0.434552,0.0461884,-0.121403,-0.127458,4.72446
-0.116678,0.0259447,0.520542,0.0584911,-0.0726829,-0.155329,4.72446
-0.065216,-0.190572,0.576287,0.109611,-0.0117568,-0.229327,4.72446
0.124035,-0.486619,0.566116,0.0961336,0.0240446,-0.211311,4.72446
0.179143,-0.568515,0.533339,0.0512038,0.00492918,-0.0773973,4.72446
0.0768709,-0.407306,0.542391,0.00623231,-0.0348777,0.0357273,4.72446
-0.012695,-0.201593,0.528934,-0.00773093,-0.026412,0.0414494,4.72446
0.0933746,-0.0776957,0.424498,-0.0102378,0.0177023,-0.0429208,4.72446
0.385184,-0.100812,0.333465,0.0416461,0.0751364,-0.122803,4.72446
0.515813,-0.232414,0.27547,0.0551005,0.0756285,-0.0386047,4.72446
