rotationRate_x,rotationRate_y,rotationRate_z,acceleration_x,acceleration_y,acceleration_z,relativeAltitude,altitude_pressure
-0.22109,-0.119064,-0.125865,-0.00481231,-0.0250041,0.0370448,0.001,0.0001
-0.192942,-0.120978,-0.0987875,0.000582747,-0.0453819,0.0458023,0.001,0.0001
-0.149591,-0.0643277,-0.0313081,0.00745551,-0.0609305,0.0591605,0.001,0.0001
-0.158877,-0.031799,-0.00997028,0.0173443,-0.0736179,0.049974,0.001,0.0001
-0.188374,-0.128912,-0.00656027,0.0196802,-0.10286,0.0358711,0.001,0.0001
-0.204874,-0.224296,-0.016931,0.01104,-0.113088,0.0301862,0.001,0.0001
-0.288831,-0.19091,0.0085466,0.00867382,-0.117547,0.0219514,0.001,0.0001
-0.365933,-0.0325373,0.102128,0.00659743,-0.120394,0.0391434,0.001,0.0001
-0.535836,0.15666,0.274221,-0.0123211,-0.14613,0.0375442,0.001,0.0001
-0.748632,0.215389,0.431197,-0.0255384,-0.142489,0.0403534,0.001,0.0001
-0.916348,0.000849483,0.420502,0.00589543,-0.134614,-0.0123121,0.001,0.0001
-0.912689,-0.174668,0.246009,0.0234248,-0.138743,0.00449115,0.001,0.0001
-0.659039,-0.275751,-0.0738481,0.0393673,-0.11258,0.0110346,0.001,0.0001
-0.30842,-0.451194,-0.451292,0.0519908,-0.0730788,-0.0617079,0.001,0.0001
0.0485883,-0.431589,-0.587286,0.0513934,-0.0953984,-0.0649579,0.001,0.0001
0.243205,-0.320744,-0.461983,0.0614358,-0.0699085,-0.0266919,0.001,0.0001
0.0642283,-0.563332,-0.397214,0.0769185,-0.0195179,-0.106827,0.001,0.0001
-0.262414,-0.602708,-0.381302,0.050277,-0.00027734,-0.108452,0.001,0.0001
-0.430666,-0.234963,-0.337654,-0.00763722,0.0564926,-0.0885634,0.001,0.0001
-0.383128,0.162233,-0.176141,-0.0362304,0.0866724,-0.112622,0.001,0.0001
-0.18154,0.423378,-0.12074,-0.0219887,0.110888,-0.141541,0.001,0.0001
0.0158623,0.451135,-0.214838,-0.0387657,0.127161,-0.18307,0.001,0.0001
0.118215,0.305172,-0.376222,-0.0504064,0.128944,-0.194943,0.001,0.0001
0.216867,0.0539924,-0.547597,-0.0646761,0.130477,-0.206492,0.001,0.0001
0.336026,-0.130581,-0.642823,-0.0645437,0.107719,-0.183374,0.001,0.0001
0.415601,-0.0838005,-0.660477,-0.0368949,0.106421,-0.0647889,0.001,0.0001
0.409538,-0.426832,-0.667186,0.0117798,0.0739405,-0.055472,0.001,0.0001
0.292029,-1.12586,-0.726154,0.0492878,0.0559641,-0.0360278,0.001,0.0001
0.0155117,-1.63358,-0.798957,0.0451919,0.0593049,0.0154364,0.001,0.0001
-0.140047,-1.13265,-0.83685,-0.000819072,0.0688074,0.166344,0.001,0.0001
0.0297271,-0.256612,-0.719079,-0.0663265,0.0799288,0.225455,0.001,0.0001
0.373696,0.62358,-0.367138,-0.0433324,0.0437102,0.273141,0.001,0.0001
0.386928,0.411955,-0.0151669,0.0268087,0.0236253,0.0724213,0.001,0.0001
0.417564,-0.208168,0.572923,0.066769,0.0504785,0.0921283,0.001,0.0001
0.477559,-0.491722,0.719349,0.0809771,-0.0615106,0.0806134,0.001,0.0001
0.357908,-0.525913,0.217723,0.0793261,0.015949,0.104324,0.001,0.0001
0.154652,-0.465228,-0.194063,0.024037,0.00288743,0.137232,0.001,0.0001
-0.075446,-0.377177,-0.172884,0.00583522,-0.0730621,0.132581,0.001,0.0001
-0.286574,-0.136632,-0.0709306,0.0218562,-0.0992205,0.127698,0.001,0.0001
-0.484412,0.1953,0.0345631,0.0201636,-0.10913,0.109273,0.001,0.0001
-0.872837,1.07856,0.292242,-0.0310922,-0.126364,0.14541,0.001,0.0001
-0.784688,1.08493,0.484839,-0.017794,-0.16254,0.0267961,0.001,0.0001
-0.629482,0.711392,0.411248,-0.00943337,-0.155523,-0.0892333,0.001,0.0001
-0.485757,0.151442,0.255011,-0.0340437,-0.15301,-0.158136,0.001,0.0001
-0.532994,-0.241665,0.023415,-0.0543197,-0.139334,-0.239201,0.001,0.0001
-0.510349,-0.076878,-0.181652,-0.092633,-0.111485,-0.288755,0.001,0.0001
-0.201807,0.478075,-0.210241,-0.0786616,-0.081403,-0.302101,0.001,0.0001
0.286547,0.885908,0.00703503,-0.0197695,-0.126509,-0.340412,0.001,0.0001
0.726568,0.920453,0.237459,0.0134269,-0.155935,-0.354191,0.001,0.0001
0.914772,0.72834,0.233682,0.0233027,-0.131126,-0.353388,0.001,0.0001
0.850228,0.301166,0.126946,0.0199466,-0.0997296,-0.343831,0.001,0.0001
0.339411,-0.358032,-0.0961141,-0.017269,0.0357006,-0.356405,0.001,0.0001
0.339411,-0.358032,-0.0961141,-0.017269,0.0357006,-0.356405,0.0158539,-0.000190735
-0.0893112,-0.648042,-0.204028,-0.034929,0.142801,-0.25236,0.0158539,-0.000190735
0.024643,-0.429971,-0.0703791,-0.00343181,0.17295,-0.118328,0.0158539,-0.000190735
0.457173,-0.115443,0.221377,0.037385,0.1446,-0.0336506,0.0158539,-0.000190735
0.618214,-0.153002,0.422954,0.06024,0.11727,-0.0124959,0.0158539,-0.000190735
0.37943,-0.371774,0.373893,0.0159754,0.12624,-0.00656343,0.0158539,-0.000190735
0.146775,-0.334453,0.181044,-0.0337233,0.164636,0.0395272,0.0158539,-0.000190735
0.151826,-0.150636,0.0581643,-0.035709,0.171115,0.0526499,0.0158539,-0.000190735
0.339434,0.0228364,0.039711,-0.0244391,0.177876,0.0852415,0.0158539,-0.000190735
0.505799,0.164886,0.080532,-0.0120476,0.177406,0.137531,0.0158539,-0.000190735
0.560814,0.189788,0.133841,0.0125817,0.166609,0.184627,0.0158539,-0.000190735
0.480458,0.0941161,0.169447,0.0283599,0.148596,0.223818,0.0158539,-0.000190735
0.26264,-0.0540296,0.181345,0.0372718,0.135932,0.236464,0.0158539,-0.000190735
0.0620386,-0.135585,0.187827,0.0304358,0.130219,0.231196,0.0158539,-0.000190735
-0.0144489,-0.0316086,0.208248,0.00919642,0.125211,0.212023,0.0158539,-0.000190735
-0.0151883,0.162509,0.2226,0.00083682,0.12641,0.172897,0.0158539,-0.000190735
0.0117029,0.304642,0.19423,-0.00755647,0.110912,0.144303,0.0158539,-0.000190735
0.00372234,0.235805,0.122107,0.00126056,0.0872523,0.0951682,0.0158539,-0.000190735
0.00178968,0.108612,0.0515216,0.00279534,0.0545825,0.0692227,0.0158539,-0.000190735
0.0181271,0.0225113,0.0242124,-0.00496364,0.0284814,0.053849,0.0158539,-0.000190735
0.0127659,0.0550275,0.00828792,-0.0121141,0.0148953,0.0414453,0.0158539,-0.000190735
0.0427516,0.182799,0.00937647,-0.0227511,-0.00562835,0.0152727,0.0158539,-0.000190735
0.115384,0.256913,0.00595482,-0.0151407,-0.0222601,-0.0237179,0.0158539,-0.000190735
0.128807,0.259615,0.040168,-0.0171828,-0.0364623,-0.0647259,0.0158539,-0.000190735
0.0412303,0.11543,0.0301536,-0.0148122,-0.0500093,-0.121311,0.0158539,-0.000190735
-0.0501719,-0.0266563,-0.0299059,-0.0367733,-0.0421384,-0.144137,0.0158539,-0.000190735
-0.139142,0.0415385,-0.102621,-0.0882758,-0.0176775,-0.144203,0.0158539,-0.000190735
-0.152909,0.0501286,-0.297472,-0.0923907,0.0156408,-0.1655,0.0158539,-0.000190735
-0.124928,-0.279957,-0.604427,-0.0481741,0.0231104,-0.181123,0.0158539,-0.000190735
-0.132346,-0.705337,-0.653433,0.00837296,0.000742018,-0.143184,0.0158539,-0.000190735
-0.27663,-0.831072,-0.554035,-0.0246464,0.0279382,-0.0496934,0.0158539,-0.000190735
-0.632214,-0.790847,-0.691401,-0.0995718,0.109551,-0.0428014,0.0158539,-0.000190735
-1.01182,-0.511881,-0.88269,-0.156486,0.152426,-0.0689708,0.0158539,-0.000190735
-1.14675,-0.164546,-0.98483,-0.153534,0.128477,-0.110939,0.0158539,-0.000190735
-0.943461,-0.103593,-0.930068,-0.084569,0.0700618,-0.154847,0.0158539,-0.000190735
-0.648731,-0.525536,-0.912112,-0.0340069,0.064697,-0.198195,0.0158539,-0.000190735
-0.432294,-0.871322,-0.886928,-0.0295288,-0.0227476,-0.159822,0.0158539,-0.000190735
-0.259532,-0.667044,-0.769028,-0.0470737,-0.0242192,-0.055365,0.0158539,-0.000190735
-0.161827,-0.237711,-0.501235,-0.0423083,-0.0435633,-0.0286573,0.0158539,-0.000190735
-0.18413,-0.246962,-0.256077,-0.0246119,-0.0361517,-0.0656273,0.0158539,-0.000190735
-0.300453,-0.800846,-0.223483,-0.00642841,-0.004059,-0.100716,0.0158539,-0.000190735
-0.309138,-1.33359,-0.351318,-0.0121907,0.0370571,-0.0391625,0.0158539,-0.000190735
-0.137966,-1.45648,-0.483825,0.00526926,0.0220667,0.0766119,0.0158539,-0.000190735
0.0862271,-1.26593,-0.574857,-0.00218859,0.0327278,0.145212,0.0158539,-0.000190735
0.119934,-0.938974,-0.55492,0.0152306,0.0228621,0.194936,0.0158539,-0.000190735
-0.0865453,-0.670919,-0.340026,0.0466762,-0.0203401,0.221283,0.0158539,-0.000190735
-0.384021,-0.442312,-0.0651253,0.0646411,-0.0413671,0.227697,0.0158539,-0.000190735
-0.517091,-0.23158,0.152568,0.0793337,-0.0329977,0.235306,0.0158539,-0.000190735
-0.408985,0.129545,0.159341,0.112898,-0.0583756,0.256576,0.0158539,-0.000190735
-0.314223,0.323072,0.0941771,0.0624359,-0.0918234,0.183045,0.0158539,-0.000190735
-0.581273,0.277615,-0.0336562,0.0252342,-0.0576237,0.0988021,0.0158539,-0.000190735
-1.03196,0.183717,-0.10367,-0.0117014,-0.0273122,0.0704919,0.0158539,-0.000190735
-1.03196,0.183717,-0.10367,-0.0117014,-0.0273122,0.0704919,0.0158539,-0.000190735
-1.58518,0.0171745,-0.130379,-0.0290382,-0.0118462,0.0109289,0.0158539,-0.000190735
-1.68872,0.183879,-0.0607363,-0.00852139,-0.118704,-0.00780004,0.0158539,-0.000190735
-0.814855,0.592926,0.228991,-0.0173873,-0.265381,-0.0541662,0.0158539,-0.000190735
0.55654,0.666681,0.802521,-0.0534546,-0.298214,-0.167419,0.0158539,-0.000190735
1.21511,0.559231,1.40603,-0.074019,-0.123302,-0.170503,0.0158539,-0.000190735
0.871852,0.436733,1.49817,-0.0239713,0.0474755,-0.176213,0.0158539,-0.000190735
0.311183,0.496974,0.951427,-0.0220481,0.0379263,-0.162553,0.0158539,-0.000190735
0.123129,0.324426,0.366119,-0.0274096,-0.0906625,-0.243271,0.0158539,-0.000190735
0.00594141,0.126686,0.167298,0.00431492,-0.181116,-0.280227,0.0158539,-0.000190735
-0.314028,0.187161,0.377107,0.027781,-0.166235,-0.235405,0.0158539,-0.000190735
-0.622236,0.521009,0.794722,0.0120552,-0.0590048,-0.17944,0.0158539,-0.000190735
-0.621982,0.940028,1.23089,-0.0196692,0.0840687,-0.150572,0.0158539,-0.000190735
-0.304511,1.22553,1.50251,0.00177009,0.187788,-0.152943,0.0158539,-0.000190735
0.112555,1.19929,1.59028,0.0542611,0.194259,-0.131818,0.0158539,-0.000190735
0.392783,0.940184,1.50303,0.111244,0.14848,-0.0821812,0.0158539,-0.000190735
0.533832,0.57597,1.33598,0.12348,0.10518,-4.05312e-06,0.0158539,-0.000190735
0.650963,0.353029,1.23169,0.109653,0.0694917,0.122443,0.0158539,-0.000190735
0.756053,0.359864,1.31313,0.0822051,0.0220717,0.236657,0.0158539,-0.000190735
0.755511,0.6597,1.57772,0.0547795,-0.0315881,0.331265,0.0158539,-0.000190735
0.537621,1.00734,1.7966,0.0385281,-0.04115,0.332628,0.0158539,-0.000190735
-0.000464997,1.03461,1.6398,0.0435251,0.045146,0.194233,0.0158539,-0.000190735
-0.391185,0.844109,1.24195,0.0359413,0.167785,0.13966,0.0158539,-0.000190735
-0.316322,0.573993,0.886994,0.0179997,0.195955,0.125654,0.0158539,-0.000190735
0.0987016,0.302194,0.697899,0.0134944,0.144987,0.144935,0.0158539,-0.000190735
0.349933,0.0887893,0.612272,0.0182384,0.103815,0.165953,0.0158539,-0.000190735
0.341514,-0.0214876,0.554741,0.00510599,0.0760268,0.177984,0.0158539,-0.000190735
0.224381,-0.119398,0.439752,-0.0147995,0.0647931,0.153461,0.0158539,-0.000190735
0.171447,-0.167974,0.286234,-0.03833,0.0626726,0.150743,0.0158539,-0.000190735
0.169845,-0.0936502,0.167532,-0.0257409,0.0380481,0.149994,0.0158539,-0.000190735
0.197442,0.14102,0.137439,-0.000614338,-0.0102227,0.158505,0.0158539,-0.000190735
0.10948,0.334558,0.214184,0.00694194,-0.0524057,0.119673,0.0158539,-0.000190735
-0.121089,0.429315,0.279976,0.00256108,-0.0542786,0.0657672,0.0158539,-0.000190735
-0.317888,0.496335,0.288164,-0.00957508,-0.0303454,0.0212079,0.0158539,-0.000190735
-0.321082,0.514297,0.217182,-0.0172238,-0.00700308,-0.0384336,0.0158539,-0.000190735
-0.223375,0.444242,0.105628,-0.0013698,-0.00125346,-0.0917913,0.0158539,-0.000190735
-0.145294,0.28908,0.0594919,0.0346266,-0.0303736,-0.133468,0.0158539,-0.000190735
-0.101137,0.141222,0.0965289,0.0491856,-0.0632164,-0.187315,0.0158539,-0.000190735
-0.0631521,0.118556,0.157528,0.024304,-0.0318619,-0.23867,0.0158539,-0.000190735
0.0484489,0.092599,0.200542,-0.00529484,0.0135732,-0.326547,0.0158539,-0.000190735
0.26798,-0.0414076,0.176066,-0.0356391,0.0661372,-0.405121,0.0158539,-0.000190735
0.425591,-0.185965,0.143676,-0.0372256,0.0597661,-0.395033,0.0158539,-0.000190735
0.34613,-0.242056,0.0987364,-0.0367633,-0.00196713,-0.323271,0.0158539,-0.000190735
-0.0146715,-0.0416338,0.00432338,-0.0383446,-0.0307685,-0.272277,0.0158539,-0.000190735
-0.527662,0.328459,-0.16305,-0.0422253,-0.067043,-0.188253,0.0158539,-0.000190735
-0.865587,0.555303,-0.32614,-0.0423315,-0.0406191,-0.19112,0.0158539,-0.000190735
-0.686134,0.413059,-0.414321,-0.0321372,0.0479109,-0.244808,0.0158539,-0.000190735
-0.0184488,-0.0615408,-0.374457,-0.0339545,0.141466,-0.274408,0.0158539,-0.000190735
0.707981,-0.562218,-0.283132,-0.0397046,0.15184,-0.233323,0.0158539,-0.000190735
1.03055,-0.886501,-0.256676,-0.0400868,0.0993391,-0.118294,0.0158539,-0.000190735
1.00966,-0.9804,-0.243255,-0.0482368,0.042499,-0.0133272,0.0158539,-0.000190735
0.893545,-0.832177,-0.308122,-0.0692151,0.0111069,0.0898201,0.0158539,-0.000190735
0.893545,-0.832177,-0.308122,-0.0692151,0.0111069,0.0898201,0.171753,-0.00203705
0.730377,-0.555466,-0.406316,-0.104274,0.0188163,0.166903,0.171753,-0.00203705
0.505936,-0.223469,-0.455877,-0.108834,0.01902,0.237581,0.171753,-0.00203705
0.323988,0.0178138,-0.478567,-0.0932261,0.0194013,0.28584,0.171753,-0.00203705
0.22824,0.0572582,-0.482203,-0.06362,0.0195013,0.298123,0.171753,-0.00203705
0.105496,-0.0174397,-0.453509,-0.0287468,0.0101845,0.307924,0.171753,-0.00203705
-0.0256767,-0.090764,-0.446474,-0.00583535,-0.000861287,0.322025,0.171753,-0.00203705
-0.142048,-0.154024,-0.403135,0.0127043,0.00316906,0.321798,0.171753,-0.00203705
-0.207317,-0.161282,-0.398196,0.0268989,-0.000995368,0.309041,0.171753,-0.00203705
-0.188848,-0.183583,-0.342818,0.0280117,0.0393945,0.249447,0.171753,-0.00203705
-0.133212,-0.197101,-0.238017,0.0146868,0.0636195,0.198763,0.171753,-0.00203705
-0.0560398,-0.205989,-0.185704,0.00448284,0.078837,0.148836,0.171753,-0.00203705
0.0253653,-0.219882,-0.164522,-0.00668666,0.0846515,0.12863,0.171753,-0.00203705
0.0567326,-0.265579,-0.107672,-0.00567767,0.0555604,0.11801,0.171753,-0.00203705
0.000719589,-0.358056,-0.0130061,0.00848243,0.00700493,0.116965,0.171753,-0.00203705
-0.154738,-0.496159,0.0998692,0.0203232,-0.0454769,0.11434,0.171753,-0.00203705
-0.41522,-0.794,0.195135,0.0244898,-0.0827149,0.105483,0.171753,-0.00203705
-0.632466,-1.19168,-0.0151929,0.0512527,-0.0877282,-0.00832111,0.171753,-0.00203705
-0.499496,-1.45912,-0.348696,0.0392445,0.0165389,-0.0843316,0.171753,-0.00203705
-0.15479,-1.60486,-0.407816,-0.00565789,0.0320846,-0.164969,0.171753,-0.00203705
0.0416601,-1.29714,-0.141119,-0.018089,-0.0345211,-0.184031,0.171753,-0.00203705
0.105736,-0.68425,0.314163,-0.0180554,-0.0883764,-0.155809,0.171753,-0.00203705
0.140441,-0.159945,0.714698,-0.0140083,-0.163841,-0.17067,0.171753,-0.00203705
-0.0694162,0.234248,0.911475,0.0253456,-0.21955,-0.191223,0.171753,-0.00203705
-0.731096,0.628509,0.883251,0.0339438,-0.232634,-0.212074,0.171753,-0.00203705
-1.31143,1.22942,0.647069,0.0540326,-0.135401,-0.238052,0.171753,-0.00203705
-1.2809,1.51662,0.611983,0.0943286,0.00456571,-0.255242,0.171753,-0.00203705
-0.775038,1.31088,0.880529,0.141461,0.0968938,-0.294538,0.171753,-0.00203705
-0.222896,0.798552,1.19476,0.180966,0.0952117,-0.288021,0.171753,-0.00203705
0.00377609,0.298984,1.21837,0.193383,0.0476999,-0.229031,0.171753,-0.00203705
-0.0416761,0.066054,1.0754,0.173289,-0.00369356,-0.146072,0.171753,-0.00203705
-0.173152,0.119383,0.960574,0.146662,-0.0460419,-0.0524562,0.171753,-0.00203705
-0.229443,0.324326,0.934831,0.128638,-0.0491976,0.0246974,0.171753,-0.00203705
-0.165276,0.476649,1.00217,0.110675,-0.0349388,0.0654041,0.171753,-0.00203705
-0.055159,0.512301,1.07419,0.109432,-0.0273778,0.100066,0.171753,-0.00203705
0.0332395,0.43668,1.02924,0.11015,-0.0305712,0.133453,0.171753,-0.00203705
0.153829,0.364851,0.954597,0.0999218,-0.0231864,0.158943,0.171753,-0.00203705
0.193746,0.311671,0.957349,0.102315,-0.0437573,0.204539,0.171753,-0.00203705
0.127946,0.365056,0.949795,0.107569,-0.064798,0.255919,0.171753,-0.00203705
0.0579639,0.435436,0.931265,0.104401,-0.0705122,0.271785,0.171753,-0.00203705
-0.0123985,0.444687,0.956607,0.106179,-0.0702061,0.271564,0.171753,-0.00203705
-0.0896722,0.438111,0.995534,0.106859,-0.0640016,0.2593,0.171753,-0.00203705
-0.11523,0.404071,1.07103,0.112537,-0.0541742,0.232979,0.171753,-0.00203705
-0.159288,0.368728,1.09299,0.114703,-0.0480832,0.204229,0.171753,-0.00203705
-0.130608,0.330918,1.02289,0.103048,-0.0158453,0.155879,0.171753,-0.00203705
-0.057343,0.232548,1.06844,0.0999256,0.0142189,0.093141,0.171753,-0.00203705
-0.0677292,0.182968,1.09124,0.112628,0.00285631,0.0744846,0.171753,-0.00203705
-0.0428085,0.173624,1.06374,0.114131,0.0128671,0.0500669,0.171753,-0.00203705
-0.0166805,0.124466,1.13042,0.116568,0.0178779,0.0150962,0.171753,-0.00203705
-0.0608226,0.169534,1.13531,0.121698,-0.00742462,-0.00573903,0.171753,-0.00203705
0.0474745,0.292693,1.16384,0.123688,0.0246219,-0.0735476,0.171753,-0.00203705
0.295543,0.211275,1.29159,0.121016,0.0410624,-0.177321,0.171753,-0.00203705
0.295543,0.211275,1.29159,0.121016,0.0410624,-0.177321,0.147964,-0.00174713
0.37623,-0.00104253,1.23374,0.121791,0.0310418,-0.238593,0.147964,-0.00174713
0.327847,-0.162069,1.02577,0.116554,0.0105285,-0.253427,0.147964,-0.00174713
0.287076,-0.324888,0.758114,0.109142,-0.00968062,-0.277831,0.147964,-0.00174713
0.31356,-0.556809,0.614185,0.0802728,0.0311941,-0.322542,0.147964,-0.00174713
0.434145,-0.736314,0.524617,0.0496992,0.0490611,-0.334001,0.147964,-0.00174713
0.347751,-0.698411,0.380624,0.020067,0.0212007,-0.286536,0.147964,-0.00174713
-0.0692203,-0.404857,0.257216,0.00574126,-0.0480784,-0.213201,0.147964,-0.00174713
-0.640263,0.0578048,0.110923,-0.0129202,-0.0957579,-0.163563,0.147964,-0.00174713
-0.902794,0.372179,0.00695937,-0.0313947,-0.0383195,-0.153163,0.147964,-0.00174713
-0.691163,0.483594,-0.00616505,-0.045024,0.0560935,-0.179662,0.147964,-0.00174713
-0.149792,0.306168,0.1854,-0.0298002,0.132443,-0.178145,0.147964,-0.00174713
0.275124,-0.0421367,0.433401,-0.0118399,0.122288,-0.167404,0.147964,-0.00174713
0.368746,-0.233848,0.509223,0.0196942,0.0799791,-0.0942078,0.147964,-0.00174713
0.222009,-0.351523,0.488881,0.0140897,0.0294735,-0.0364995,0.147964,-0.00174713
-0.101431,-0.26107,0.365912,-0.0172209,0.0327502,0.00127554,0.147964,-0.00174713
-0.28094,0.102787,0.219552,-0.0444858,0.0622137,0.028915,0.147964,-0.00174713
-0.10914,0.44493,0.262692,-0.074595,0.123536,0.0357777,0.147964,-0.00174713
0.230871,0.60058,0.500974,-0.074965,0.143785,0.0484285,0.147964,-0.00174713
0.447844,0.5557,0.674637,-0.0383709,0.104212,0.096288,0.147964,-0.00174713
0.507067,0.324996,0.722829,-0.00707749,0.0623999,0.158613,0.147964,-0.00174713
0.459572,0.0713357,0.671409,0.0036801,0.0233915,0.213876,0.147964,-0.00174713
0.374323,-0.0563288,0.589525,0.012817,0.0106277,0.258887,0.147964,-0.00174713
0.330765,-0.0642854,0.567756,0.0013239,0.021274,0.291175,0.147964,-0.00174713
0.285089,0.0113905,0.598609,0.000810325,0.0478109,0.310402,0.147964,-0.00174713
0.308278,0.107197,0.676829,0.00857012,0.0745597,0.319781,0.147964,-0.00174713
0.374248,0.16632,0.77838,0.0193807,0.0947807,0.33205,0.147964,-0.00174713
0.447802,0.161759,0.863543,0.0176571,0.0962724,0.327647,0.147964,-0.00174713
0.433759,0.0607903,0.900595,0.0136149,0.0845819,0.327648,0.147964,-0.00174713
0.31897,-0.010224,0.859,0.00625686,0.0609309,0.318611,0.147964,-0.00174713
0.23856,-0.0618607,0.772582,-0.0105341,0.0272266,0.309691,0.147964,-0.00174713
0.0248246,-0.120433,0.720635,-0.0331781,-0.0248799,0.288885,0.147964,-0.00174713
-0.322104,-0.00918498,0.590175,-0.0462173,-0.0766755,0.27255,0.147964,-0.00174713
-0.565058,0.13754,0.503739,-0.068824,-0.0995713,0.221039,0.147964,-0.00174713
-0.781042,0.285554,0.445451,-0.11277,-0.115882,0.16361,0.147964,-0.00174713
-0.907376,0.471137,0.269024,-0.113824,-0.105387,0.0765525,0.147964,-0.00174713
-0.766513,0.53226,0.236574,-0.119883,-0.0576322,-0.030419,0.147964,-0.00174713
-0.500674,0.448692,0.459736,-0.104799,-0.050257,-0.112458,0.147964,-0.00174713
-0.133498,0.296408,0.776616,-0.0795084,-0.0575545,-0.170964,0.147964,-0.00174713
0.198923,0.0106218,0.986223,-0.0469836,-0.0849171,-0.221224,0.147964,-0.00174713
0.226703,-0.305537,0.966145,-0.0324083,-0.106465,-0.249086,0.147964,-0.00174713
0.029743,-0.371904,0.862649,-0.0201913,-0.151337,-0.248762,0.147964,-0.00174713
-0.302,-0.348807,0.733757,0.0234218,-0.201896,-0.230869,0.147964,-0.00174713
-0.573403,-0.425723,0.601733,0.0944152,-0.164586,-0.248819,0.147964,-0.00174713
-0.57716,-0.633117,0.590387,0.159201,-0.0370713,-0.273026,0.147964,-0.00174713
-0.22252,-0.840749,0.789467,0.178794,0.077739,-0.274252,0.147964,-0.00174713
0.346272,-0.913999,1.13921,0.188323,0.139092,-0.194709,0.147964,-0.00174713
0.814294,-0.813129,1.47447,0.188636,0.129213,-0.0668895,0.147964,-0.00174713
0.891659,-0.54835,1.72127,0.209243,0.0598942,0.0836365,0.147964,-0.00174713
0.578026,-0.20244,1.90389,0.235406,-0.0612054,0.189819,0.147964,-0.00174713
0.0694477,0.139245,1.93581,0.256258,-0.156127,0.229672,0.147964,-0.00174713
-0.314065,0.381816,1.73743,0.229135,-0.143585,0.179047,0.147964,-0.00174713
-0.314065,0.381816,1.73743,0.229135,-0.143585,0.179047,0.190247,-0.00226593
-0.425898,0.466359,1.52396,0.178044,-0.0742637,0.108193,0.190247,-0.00226593
-0.407662,0.51039,1.39084,0.152741,-0.0249573,0.069313,0.190247,-0.00226593
-0.268949,0.534687,1.35657,0.141608,0.0103824,0.0451125,0.190247,-0.00226593
-0.116545,0.500858,1.45097,0.13819,0.0214957,0.0478977,0.190247,-0.00226593
-0.0523605,0.435071,1.45831,0.140812,0.00210309,0.0584916,0.190247,-0.00226593
-0.0201871,0.347396,1.33209,0.126447,-0.00518522,0.0554906,0.190247,-0.00226593
-0.0237422,0.376107,1.16837,0.0906208,-0.013667,0.0520087,0.190247,-0.00226593
-0.0765937,0.456917,1.05173,0.0730318,-0.0375337,0.0472016,0.190247,-0.00226593
-0.0843168,0.451522,0.985638,0.062191,-0.0366933,0.0101699,0.190247,-0.00226593
-0.049951,0.361968,0.889878,0.0462095,-0.0177476,-0.0392752,0.190247,-0.00226593
0.0546024,0.189528,0.753122,0.031668,0.0158914,-0.0888739,0.190247,-0.00226593
0.18203,0.0724481,0.594705,0.0106432,0.0375509,-0.120189,0.190247,-0.00226593
0.307622,0.0680803,0.484593,-0.00727406,0.0447863,-0.129289,0.190247,-0.00226593
0.358702,0.13785,0.410545,-0.0202165,0.0282494,-0.140343,0.190247,-0.00226593
0.352526,0.257074,0.323237,-0.0178529,0.0214731,-0.150037,0.190247,-0.00226593
0.321077,0.321068,0.267945,-0.0156131,0.0199766,-0.172952,0.190247,-0.00226593
0.249945,0.28249,0.186921,0.00324814,0.0299961,-0.20487,0.190247,-0.00226593
0.245786,0.0923076,0.0953902,0.0179132,0.0706956,-0.231702,0.190247,-0.00226593
0.246391,-0.177192,-0.00678203,0.0192046,0.105236,-0.254721,0.190247,-0.00226593
0.187996,-0.406611,-0.157559,0.0254475,0.13161,-0.249679,0.190247,-0.00226593
0.129049,-0.55889,-0.235247,0.0195227,0.140572,-0.2416,0.190247,-0.00226593
-0.0620492,-0.495417,-0.281355,0.0133868,0.111353,-0.183815,0.190247,-0.00226593
-0.392773,-0.310194,-0.427412,1.40704e-05,0.084415,-0.115088,0.190247,-0.00226593
-0.661933,-0.124074,-0.647493,-0.0120118,0.084772,-0.105527,0.190247,-0.00226593
-0.657311,-0.0846511,-0.778008,-0.0150583,0.131391,-0.118938,0.190247,-0.00226593
-0.408964,-0.141251,-0.789016,-0.0127739,0.178437,-0.122418,0.190247,-0.00226593
-0.163189,-0.168888,-0.72382,-0.00701881,0.181984,-0.0949876,0.190247,-0.00226593
-0.0519647,-0.071438,-0.68558,-0.001989,0.156079,-0.0428777,0.190247,-0.00226593
-0.0258335,-0.0190994,-0.612567,-0.00155598,0.120138,-0.00484103,0.190247,-0.00226593
-0.0747718,0.0419829,-0.571703,-0.004725,0.0893719,0.0247428,0.190247,-0.00226593
-0.0614456,0.107654,-0.538439,-0.0112805,0.0725081,0.0625305,0.190247,-0.00226593
0.0165739,0.142095,-0.43766,-0.0173551,0.0593493,0.101406,0.190247,-0.00226593
0.092587,0.141337,-0.326772,-0.00487834,0.0261963,0.15559,0.190247,-0.00226593
0.124332,0.0423714,-0.267766,0.00852909,0.00150131,0.201922,0.190247,-0.00226593
0.0725629,-0.0938945,-0.265683,0.0226604,-0.028505,0.236081,0.190247,-0.00226593
0.0171404,-0.197176,-0.265798,0.0353455,-0.0423704,0.260624,0.190247,-0.00226593
-0.0278823,-0.211209,-0.236633,0.0375501,-0.041781,0.271742,0.190247,-0.00226593
-0.00706708,-0.132417,-0.200363,0.0406193,-0.021424,0.279456,0.190247,-0.00226593
0.0455945,-0.119794,-0.109742,0.0385695,0.00170438,0.236826,0.190247,-0.00226593
0.0518939,-0.143427,-0.0731731,0.0506779,0.00843916,0.210376,0.190247,-0.00226593
0.0906106,-0.221208,-0.069874,0.0568904,0.0278138,0.16906,0.190247,-0.00226593
0.0984773,-0.258654,-0.0779936,0.0522241,0.0163212,0.141252,0.190247,-0.00226593
0.0676334,-0.169678,-0.0802383,0.0467531,-0.0125751,0.135017,0.190247,-0.00226593
0.0166855,0.0129846,-0.0638787,0.028902,-0.0481483,0.111844,0.190247,-0.00226593
-0.0711291,0.188511,-0.0249058,0.0308997,-0.0865597,0.0558437,0.190247,-0.00226593
-0.153641,0.247161,0.0761938,0.0406483,-0.1176,-0.0228603,0.190247,-0.00226593
-0.186162,0.267629,0.147022,0.0533716,-0.12775,-0.103791,0.190247,-0.00226593
-0.0419522,0.205647,0.18119,0.0346734,-0.0925176,-0.207349,0.190247,-0.00226593
0.233677,0.0353883,0.294048,0.00864342,-0.0317606,-0.302986,0.190247,-0.00226593
0.233677,0.0353883,0.294048,0.00864342,-0.0317606,-0.302986,0.240448,-0.00283813
0.509686,-0.142299,0.412388,-0.00715902,-0.0138523,-0.346841,0.240448,-0.00283813
0.645703,-0.216239,0.5054,-0.0139581,-0.0334579,-0.325704,0.240448,-0.00283813
0.440387,-0.111826,0.535787,-0.0152115,-0.0941214,-0.257671,0.240448,-0.00283813
-0.185126,0.294262,0.406598,-0.0326109,-0.124984,-0.212374,0.240448,-0.00283813
-0.664161,0.837899,0.256345,-0.0201682,-0.0853926,-0.189198,0.240448,-0.00283813
-0.609626,1.08782,0.293652,-0.00506008,0.0356958,-0.202467,0.240448,-0.00283813
-0.170372,1.11265,0.591244,0.045261,0.130417,-0.177672,0.240448,-0.00283813
0.208539,0.950584,0.934869,0.0924103,0.0955226,-0.114422,0.240448,-0.00283813
0.18086,0.702235,0.955151,0.126281,0.0266328,-0.0186107,0.240448,-0.00283813
-0.102743,0.570846,0.707808,0.118222,-0.0414166,0.0447791,0.240448,-0.00283813
-0.373364,0.531633,0.459684,0.107084,-0.0681654,0.0796221,0.240448,-0.00283813
-0.430646,0.508878,0.342854,0.0878473,-0.0447982,0.0813047,0.240448,-0.00283813
-0.332472,0.512836,0.338111,0.0627769,0.00346155,0.0682044,0.240448,-0.00283813
-0.177774,0.544627,0.393554,0.0556676,0.0212849,0.0745236,0.240448,-0.00283813
-0.084945,0.56557,0.440136,0.0527846,0.020057,0.0988609,0.240448,-0.00283813
-0.0419124,0.557243,0.458014,0.0455968,0.00633419,0.13169,0.240448,-0.00283813
-0.00859251,0.501294,0.485309,0.0389045,-0.00326909,0.154567,0.240448,-0.00283813
0.0645588,0.354922,0.546685,0.042054,-0.00625829,0.174197,0.240448,-0.00283813
0.139549,0.170506,0.594844,0.0361265,-0.00379094,0.185996,0.240448,-0.00283813
0.249572,0.0101248,0.600213,0.017569,0.0111418,0.186455,0.240448,-0.00283813
0.376807,-0.140199,0.615412,0.00163651,0.0129772,0.193169,0.240448,-0.00283813
0.427783,-0.180565,0.552178,-0.0144767,0.00609934,0.208735,0.240448,-0.00283813
0.527892,-0.236012,0.491848,-0.0192148,0.0154641,0.171623,0.240448,-0.00283813
0.461152,-0.241731,0.500202,-0.0155771,-0.0100992,0.166849,0.240448,-0.00283813
0.170251,-0.0427643,0.377599,-0.0125253,-0.0598046,0.179066,0.240448,-0.00283813
0.054989,0.071795,0.258367,0.00768059,-0.0461756,0.0830756,0.240448,-0.00283813
0.105202,0.132507,0.292173,0.00952868,-0.012057,-0.0325425,0.240448,-0.00283813
0.22706,0.196491,0.394667,0.0573018,0.00138937,-0.12664,0.240448,-0.00283813
0.299702,0.0987172,0.47633,0.0744968,0.0346662,-0.212713,0.240448,-0.00283813
0.216022,0.0527825,0.39816,0.0714223,0.0447088,-0.240803,0.240448,-0.00283813
0.0696198,0.0446576,0.267302,0.0694014,0.0381941,-0.24401,0.240448,-0.00283813
-0.0999648,-0.0176264,0.120677,0.0548329,0.0588452,-0.261851,0.240448,-0.00283813
-0.196138,-0.117839,0.0548337,0.0497942,0.0722861,-0.272492,0.240448,-0.00283813
-0.459665,0.0268401,-0.0289672,0.0300148,0.0150155,-0.236843,0.240448,-0.00283813
-0.937591,0.408284,-0.205746,0.0417419,-0.036833,-0.183857,0.240448,-0.00283813
-1.13407,0.718447,-0.37162,0.05147,-0.0107106,-0.167303,0.240448,-0.00283813
-0.853948,0.716568,-0.375312,0.0551985,0.0753224,-0.177503,0.240448,-0.00283813
-0.249995,0.343036,-0.122423,0.0673289,0.138182,-0.182374,0.240448,-0.00283813
0.187727,-0.245501,0.138645,0.0657237,0.112938,-0.166239,0.240448,-0.00283813
0.263653,-0.633651,0.125578,0.0490523,0.0688338,-0.0914778,0.240448,-0.00283813
0.126932,-0.764367,-0.0367736,-0.00637609,0.0292493,-0.0080573,0.240448,-0.00283813
-0.0264276,-0.588895,-0.226724,-0.0552317,0.0166193,0.0750849,0.240448,-0.00283813
-0.0385073,-0.231753,-0.316925,-0.0864604,0.0387679,0.145821,0.240448,-0.00283813
0.0512714,0.103939,-0.256447,-0.104466,0.0600932,0.173026,0.240448,-0.00283813
0.161768,0.242407,-0.151923,-0.0800517,0.0652442,0.193504,0.240448,-0.00283813
0.235696,0.171863,-0.0905335,-0.049448,0.0451187,0.208952,0.240448,-0.00283813
0.273848,-0.0183405,-0.09216,-0.026625,0.027576,0.229977,0.240448,-0.00283813
0.252008,-0.234443,-0.119454,-0.0217909,0.0207711,0.248073,0.240448,-0.00283813
0.252008,-0.234443,-0.119454,-0.0217909,0.0207711,0.248073,0.00265503,-2.28882e-05
0.230975,-0.301643,-0.176639,-0.0289803,0.0304321,0.269759,0.00265503,-2.28882e-05
0.225746,-0.274036,-0.151386,-0.0338344,0.0247632,0.278117,0.00265503,-2.28882e-05
0.181024,-0.259386,-0.0941283,-0.0325581,0.0243916,0.260996,0.00265503,-2.28882e-05
0.140304,-0.251469,-0.110143,-0.0318868,0.0251385,0.228858,0.00265503,-2.28882e-05
0.102037,-0.213561,-0.16618,-0.0415522,0.0144218,0.191547,0.00265503,-2.28882e-05
0.0582097,-0.0913497,-0.240102,-0.0509318,0.00683153,0.158334,0.00265503,-2.28882e-05
-0.0367066,0.0770361,-0.271553,-0.0478859,-0.0194457,0.127654,0.00265503,-2.28882e-05
-0.155475,0.239941,-0.268066,-0.0297143,-0.0499743,0.0888033,0.00265503,-2.28882e-05
-0.177337,0.236823,-0.205268,-0.00218745,-0.061368,0.0207009,0.00265503,-2.28882e-05
-0.111597,0.0685848,-0.146629,0.0216148,-0.0669031,-0.0583791,0.00265503,-2.28882e-05
-0.03045,-0.183131,-0.0609063,0.037147,-0.0709047,-0.123346,0.00265503,-2.28882e-05
0.0241542,-0.312514,0.0272032,0.0510412,-0.0940654,-0.169765,0.00265503,-2.28882e-05
0.17324,-0.309469,0.174891,0.057165,-0.103593,-0.212319,0.00265503,-2.28882e-05
0.365868,-0.225296,0.414108,0.0508047,-0.105539,-0.262521,0.00265503,-2.28882e-05
0.458213,-0.145832,0.648167,0.049878,-0.132824,-0.30165,0.00265503,-2.28882e-05
0.434748,-0.074456,0.736441,0.0431997,-0.163863,-0.350679,0.00265503,-2.28882e-05
0.229011,-0.107963,0.695913,0.0341089,-0.183551,-0.372916,0.00265503,-2.28882e-05
-0.0430304,-0.143719,0.522057,0.0199687,-0.143611,-0.38472,0.00265503,-2.28882e-05
-0.1297,-0.111253,0.332196,0.0180076,-0.051052,-0.370258,0.00265503,-2.28882e-05
0.0846829,-0.0244978,0.316902,0.0301729,0.0608567,-0.296946,0.00265503,-2.28882e-05
0.437848,-0.01302,0.564103,0.0509737,0.0957733,-0.18988,0.00265503,-2.28882e-05
0.604251,-0.0214886,0.811582,0.06222,0.0847799,-0.0690452,0.00265503,-2.28882e-05
0.469372,0.128157,0.8417,0.0825175,0.0123392,0.0482821,0.00265503,-2.28882e-05
0.179941,0.255383,0.722814,0.0801598,-0.0498999,0.11954,0.00265503,-2.28882e-05
-0.117898,0.35472,0.483764,0.0821806,-0.0668671,0.14996,0.00265503,-2.28882e-05
-0.332119,0.418875,0.30537,0.0909361,-0.0514365,0.157676,0.00265503,-2.28882e-05
-0.423213,0.477271,0.269743,0.099178,-0.0252282,0.182335,0.00265503,-2.28882e-05
-0.372063,0.495812,0.370308,0.102783,-0.000302777,0.211431,0.00265503,-2.28882e-05
-0.266383,0.445562,0.486761,0.0981307,0.0185803,0.242352,0.00265503,-2.28882e-05
-0.185304,0.313884,0.540179,0.0896527,0.0228387,0.264998,0.00265503,-2.28882e-05
-0.180497,0.157122,0.506203,0.0805318,0.0112291,0.298479,0.00265503,-2.28882e-05
-0.212376,0.111704,0.423224,0.0816703,-0.00151935,0.324923,0.00265503,-2.28882e-05
-0.192457,0.108156,0.389256,0.0753285,-0.00204533,0.328475,0.00265503,-2.28882e-05
-0.119832,0.11097,0.437205,0.0662722,0.0217923,0.298267,0.00265503,-2.28882e-05
-0.0364084,0.118331,0.505948,0.0594155,0.0228218,0.276315,0.00265503,-2.28882e-05
0.0117304,0.164038,0.544602,0.0577762,0.0113308,0.245171,0.00265503,-2.28882e-05
-0.0127519,0.308716,0.563342,0.0469024,-0.00286372,0.219555,0.00265503,-2.28882e-05
-0.127903,0.543475,0.501734,0.0268951,-0.0279525,0.191592,0.00265503,-2.28882e-05
-0.262301,0.785408,0.455977,0.0296533,-0.0361443,0.150078,0.00265503,-2.28882e-05
-0.391678,0.845262,0.426095,0.0396969,-0.0366593,0.0819768,0.00265503,-2.28882e-05
-0.419037,0.671256,0.340468,0.0481961,0.0022836,-0.0128691,0.00265503,-2.28882e-05
-0.266962,0.447776,0.265615,0.0481593,0.0288227,-0.107052,0.00265503,-2.28882e-05
-0.12048,0.281213,0.281293,0.0382729,0.0220377,-0.149715,0.00265503,-2.28882e-05
-0.102413,0.208906,0.29609,0.0412566,-0.00911918,-0.151356,0.00265503,-2.28882e-05
-0.195675,0.237563,0.265855,0.0426378,-0.0489712,-0.14804,0.00265503,-2.28882e-05
-0.316458,0.272252,0.202021,0.0508754,-0.0622413,-0.161353,0.00265503,-2.28882e-05
-0.320817,0.144805,0.215187,0.0688078,-0.0573282,-0.208932,0.00265503,-2.28882e-05
-0.320817,0.144805,0.215187,0.0688078,-0.0573282,-0.208932,0.184952,-0.00221252
-0.27671,-0.163116,0.286086,0.0837801,-0.0403602,-0.252883,0.184952,-0.00221252
-0.332726,-0.344176,0.302389,0.0859191,-0.0254103,-0.235766,0.184952,-0.00221252
-0.492027,-0.152563,0.325189,0.0551489,-0.0462145,-0.159446,0.184952,-0.00221252
-0.81886,0.296343,0.245777,0.0313244,-0.0603498,-0.081475,0.184952,-0.00221252
-1.10815,0.644772,0.0625418,0.0390355,-0.0336263,-0.0832326,0.184952,-0.00221252
-1.17124,0.618308,0.0160667,0.073068,0.00546037,-0.112509,0.184952,-0.00221252
-0.997203,0.209123,0.145183,0.106707,0.033768,-0.152864,0.184952,-0.00221252
-0.674046,-0.256484,0.291951,0.0985233,0.0543209,-0.156344,0.184952,-0.00221252
-0.451816,-0.530223,0.236641,0.0530613,0.0637486,-0.136435,0.184952,-0.00221252
-0.39314,-0.437079,0.0433763,0.0262718,0.0482219,-0.0826187,0.184952,-0.00221252
-0.286956,-0.196054,-0.0633468,0.0148229,0.0521524,-0.0557453,0.184952,-0.00221252
-0.0440756,-0.1082,0.00895623,0.0079755,0.0671267,-0.0631952,0.184952,-0.00221252
0.230433,-0.0758069,0.0554654,0.00854509,0.0861334,-0.0540594,0.184952,-0.00221252
0.504783,-0.109224,0.0785166,0.000643536,0.0905198,-0.0270625,0.184952,-0.00221252
0.679815,-0.157675,0.0861662,-0.00502424,0.0756859,0.0340366,0.184952,-0.00221252
0.769983,-0.104012,0.0792864,-0.0154795,0.0570711,0.125322,0.184952,-0.00221252
0.829334,-0.0199982,0.0671959,-0.0391882,0.0483544,0.190262,0.184952,-0.00221252
0.837098,-0.00806951,0.0898667,-0.0468906,0.0332027,0.256927,0.184952,-0.00221252
0.747859,-0.0712942,0.0884938,-0.0486912,0.00993456,0.307702,0.184952,-0.00221252
0.584448,-0.165297,0.0178488,-0.0534998,-0.00609419,0.333731,0.184952,-0.00221252
0.338673,-0.282754,-0.0793454,-0.066851,-0.024064,0.330677,0.184952,-0.00221252
0.072567,-0.288808,-0.26355,-0.0728244,-0.0371503,0.307619,0.184952,-0.00221252
-0.0618844,-0.196423,-0.36134,-0.0750701,-0.0314101,0.26267,0.184952,-0.00221252
-0.160789,-0.055142,-0.344623,-0.07017,-0.0324599,0.218766,0.184952,-0.00221252
-0.208184,0.0774398,-0.180276,-0.0363864,-0.0464261,0.161896,0.184952,-0.00221252
-0.240428,0.0995216,0.0245219,-0.0134365,-0.0626698,0.106536,0.184952,-0.00221252
-0.300887,-0.010659,0.109227,0.00208469,-0.0681155,0.0542541,0.184952,-0.00221252
-0.332393,-0.187659,0.12735,0.0111683,-0.0679475,0.0215026,0.184952,-0.00221252
-0.292737,-0.318482,0.191037,0.0108074,-0.0711352,0.0122918,0.184952,-0.00221252
-0.271193,-0.392338,0.318186,-0.00337759,-0.0813841,0.00597948,0.184952,-0.00221252
-0.292333,-0.347035,0.430206,-0.0133243,-0.0871296,0.00621057,0.184952,-0.00221252
-0.287271,-0.322123,0.538526,-0.0163201,-0.0946253,-0.00389785,0.184952,-0.00221252
-0.242262,-0.343601,0.563375,-0.0172998,-0.0752017,0.00291628,0.184952,-0.00221252
-0.154676,-0.317339,0.54502,-0.018292,-0.0310345,0.00864851,0.184952,-0.00221252
-0.0995889,-0.309235,0.671077,-0.00101791,-0.0350751,0.0122908,0.184952,-0.00221252
-0.169984,-0.342384,0.802631,0.0274418,-0.0748795,0.00193244,0.184952,-0.00221252
-0.265002,-0.413317,0.836413,0.0512214,-0.100243,-0.0328426,0.184952,-0.00221252
-0.303026,-0.517547,0.825989,0.0572785,-0.106847,-0.0683019,0.184952,-0.00221252
-0.222781,-0.552562,0.843908,0.0656198,-0.10836,-0.0934722,0.184952,-0.00221252
-0.190233,-0.532942,0.89415,0.0582709,-0.137117,-0.106022,0.184952,-0.00221252
-0.302976,-0.337394,0.902423,0.0595224,-0.161838,-0.0910904,0.184952,-0.00221252
-0.418676,-0.0994836,0.93864,0.0698295,-0.188975,-0.0939577,0.184952,-0.00221252
-0.44762,0.014219,0.968171,0.0895123,-0.16862,-0.107181,0.184952,-0.00221252
-0.230145,-0.0318775,1.03996,0.110492,-0.0913891,-0.122135,0.184952,-0.00221252
0.178166,-0.231072,1.23038,0.130956,-0.0601685,-0.109027,0.184952,-0.00221252
0.380827,-0.396878,1.39739,0.160736,-0.102321,-0.0609625,0.184952,-0.00221252
0.27659,-0.401491,1.44461,0.193809,-0.180967,0.00354689,0.184952,-0.00221252
0.0658177,-0.224506,1.39854,0.204375,-0.22962,0.00804341,0.184952,-0.00221252
0.0658177,-0.224506,1.39854,0.204375,-0.22962,0.00804341,0.211395,-0.00249481
-0.0157295,-0.0136501,1.40603,0.209613,-0.214178,-0.00555295,0.211395,-0.00249481
0.0303057,0.114728,1.47099,0.202314,-0.131601,-0.0437089,0.211395,-0.00249481
0.179391,0.147784,1.56364,0.212968,-0.0637521,-0.0649969,0.211395,-0.00249481
0.34489,0.0850652,1.67611,0.236344,-0.0283851,-0.0773317,0.211395,-0.00249481
0.461787,-0.0331672,1.73606,0.251325,-0.00282585,-0.0708921,0.211395,-0.00249481
0.55788,-0.24013,1.74292,0.253621,0.00891273,-0.0639073,0.211395,-0.00249481
0.597673,-0.421347,1.65391,0.242518,0.0269824,-0.0533763,0.211395,-0.00249481
0.620113,-0.461148,1.52089,0.214624,0.0394533,-0.0331149,0.211395,-0.00249481
0.574721,-0.314947,1.41778,0.179158,0.0411748,0.00475353,0.211395,-0.00249481
0.53309,-0.0281407,1.33241,0.139803,0.0583979,0.0391096,0.211395,-0.00249481
0.472334,0.202464,1.27679,0.10381,0.0626392,0.0572775,0.211395,-0.00249481
0.399689,0.369305,1.14578,0.0884806,0.0737465,0.0642853,0.211395,-0.00249481
0.456295,0.417307,0.988544,0.0692402,0.0943658,0.0400881,0.211395,-0.00249481
0.571241,0.415797,0.864014,0.0466177,0.125129,0.0198491,0.211395,-0.00249481
0.58779,0.456959,0.773453,0.0404399,0.116977,0.0162402,0.211395,-0.00249481
0.502036,0.545957,0.698619,0.0434676,0.087892,0.0195753,0.211395,-0.00249481
0.352503,0.603549,0.616608,0.0401798,0.0691553,0.00486606,0.211395,-0.00249481
0.123682,0.636576,0.49262,0.0330086,0.0635085,-0.0312865,0.211395,-0.00249481
-0.128581,0.563894,0.333183,0.0391375,0.0619854,-0.0807659,0.211395,-0.00249481
-0.306245,0.432963,0.151013,0.0371846,0.0849811,-0.151677,0.211395,-0.00249481
-0.350931,0.288134,0.0786819,0.0277464,0.114366,-0.195174,0.211395,-0.00249481
-0.477129,0.271572,0.0560199,0.00910245,0.0823841,-0.17244,0.211395,-0.00249481
-0.805945,0.372205,-0.0735806,-0.00388979,0.0331125,-0.113385,0.211395,-0.00249481
-1.09426,0.382872,-0.257648,-0.0139485,0.0189184,-0.108218,0.211395,-0.00249481
-1.10133,0.238909,-0.351769,-0.0174508,0.0550734,-0.137303,0.211395,-0.00249481
-0.865744,0.0950844,-0.314815,-0.0190624,0.099816,-0.147411,0.211395,-0.00249481
-0.564649,-0.013399,-0.145251,-0.0137924,0.111976,-0.14568,0.211395,-0.00249481
-0.361268,-0.106288,0.0498358,0.000534654,0.110128,-0.140349,0.211395,-0.00249481
-0.257266,-0.169747,0.158555,-0.0019698,0.097629,-0.122638,0.211395,-0.00249481
-0.1658,-0.189783,0.17049,-0.0174298,0.0897365,-0.0925043,0.211395,-0.00249481
-0.0112972,-0.172844,0.161836,-0.0340669,0.0927665,-0.0448583,0.211395,-0.00249481
0.160517,-0.127896,0.189737,-0.0398158,0.0812346,0.0311229,0.211395,-0.00249481
0.341,-0.0832346,0.23757,-0.0225778,0.0660117,0.117822,0.211395,-0.00249481
0.498429,-0.146944,0.279916,-0.00841846,0.0528127,0.168741,0.211395,-0.00249481
0.530222,-0.275585,0.272836,0.0182664,0.0261456,0.225233,0.211395,-0.00249481
0.414531,-0.360024,0.210301,0.040439,-0.00395387,0.271574,0.211395,-0.00249481
0.221558,-0.329508,0.117993,0.0446249,-0.0199938,0.301355,0.211395,-0.00249481
0.0706855,-0.291509,0.0358163,0.0355147,-0.0286647,0.296328,0.211395,-0.00249481
-0.11009,-0.245255,-0.0681581,0.0210135,-0.0278935,0.268908,0.211395,-0.00249481
-0.286306,-0.131853,-0.242337,0.00114372,-0.00485557,0.223488,0.211395,-0.00249481
-0.390795,0.0410116,-0.420472,-0.0158296,0.0224815,0.146729,0.211395,-0.00249481
-0.347782,0.193711,-0.489471,-0.0206447,0.0679836,0.0857607,0.211395,-0.00249481
-0.208108,0.309059,-0.444893,-0.018783,0.0937254,0.0423853,0.211395,-0.00249481
-0.0274012,0.364808,-0.323687,-0.00196374,0.108801,0.0199427,0.211395,-0.00249481
0.120948,0.294083,-0.128455,0.0132734,0.0773893,0.0203171,0.211395,-0.00249481
0.176965,0.165536,0.0386118,0.0254646,0.0173474,0.0469869,0.211395,-0.00249481
0.137534,0.0454748,0.159471,0.0295025,-0.063921,0.0952807,0.211395,-0.00249481
0.137534,0.0454748,0.159471,0.0295025,-0.063921,0.0952807,0.192886,-0.00228119
-0.0137879,-0.0697178,0.259073,0.0286328,-0.133442,0.116019,0.192886,-0.00228119
-0.298273,-0.128842,0.254971,0.0261196,-0.186539,0.0888764,0.192886,-0.00228119
-0.55798,-0.0394597,0.135676,0.0216787,-0.200697,-0.0124792,0.192886,-0.00228119
-0.580127,0.178158,0.272982,0.0621583,-0.235395,-0.101754,0.192886,-0.00228119
-0.388618,0.164627,0.730466,0.132496,-0.199512,-0.17612,0.192886,-0.00228119
-0.0337877,-0.150901,1.16571,0.174975,-0.140362,-0.264004,0.192886,-0.00228119
0.219743,-0.596812,1.26049,0.177956,-0.111512,-0.340419,0.192886,-0.00228119
0.130006,-0.822918,1.12685,0.165298,-0.148947,-0.343003,0.192886,-0.00228119
-0.336573,-0.660947,0.990487,0.128562,-0.199964,-0.293585,0.192886,-0.00228119
-0.941832,-0.0895433,0.736813,0.0621141,-0.154532,-0.276126,0.192886,-0.00228119
-0.969442,0.636017,0.482451,0.00430019,0.0214718,-0.303292,0.192886,-0.00228119
-0.242193,0.915755,0.587453,0.00540425,0.213773,-0.328653,0.192886,-0.00228119
0.60691,0.579973,1.022,0.0664964,0.255886,-0.3088,0.192886,-0.00228119
0.951369,0.158943,1.25934,0.126434,0.187569,-0.216497,0.192886,-0.00228119
0.865157,0.0203031,1.15509,0.143759,0.0956666,-0.0640514,0.192886,-0.00228119
0.622892,0.0606185,0.92228,0.10538,0.0495724,0.0228243,0.192886,-0.00228119
0.487583,0.233555,0.75155,0.0621951,0.0596867,0.0678181,0.192886,-0.00228119
0.522207,0.403428,0.710786,0.0324426,0.0829993,0.0958768,0.192886,-0.00228119
0.670146,0.43825,0.731333,0.0217985,0.105663,0.123841,0.192886,-0.00228119
0.837219,0.314631,0.764268,0.0210029,0.100617,0.169519,0.192886,-0.00228119
0.876399,0.113753,0.733294,0.0164859,0.0720178,0.234458,0.192886,-0.00228119
0.683428,-0.00501613,0.615627,0.00718535,0.0431122,0.299776,0.192886,-0.00228119
0.363225,0.0709523,0.480346,0.000362605,-0.00281596,0.362977,0.192886,-0.00228119
0.0165173,0.289446,0.370842,-0.0135792,-0.0326011,0.395519,0.192886,-0.00228119
-0.221602,0.508529,0.303877,-0.0262142,-0.0314447,0.387341,0.192886,-0.00228119
-0.359427,0.565867,0.302507,-0.0282159,-0.0127757,0.331544,0.192886,-0.00228119
-0.42714,0.515596,0.327865,-0.0152036,0.000386238,0.272469,0.192886,-0.00228119
-0.430726,0.372978,0.356295,-0.0114807,-0.000609174,0.216192,0.192886,-0.00228119
-0.41115,0.209854,0.344912,-0.0123635,0.00108184,0.167893,0.192886,-0.00228119
-0.405335,0.109592,0.320018,-0.0134815,-0.0142715,0.144073,0.192886,-0.00228119
-0.442524,0.11974,0.294115,-0.00649687,-0.0419277,0.126398,0.192886,-0.00228119
-0.536115,0.197737,0.329175,-0.00597869,-0.0740355,0.108481,0.192886,-0.00228119
-0.582953,0.356076,0.272664,0.0162073,-0.092929,0.0750224,0.192886,-0.00228119
-0.432365,0.266877,0.326548,0.031088,-0.065745,-0.0388805,0.192886,-0.00228119
-0.32644,0.106299,0.438085,0.0433783,-0.067971,-0.106306,0.192886,-0.00228119
-0.250808,0.0736456,0.499383,0.0715735,-0.0921435,-0.141977,0.192886,-0.00228119
-0.162037,-0.18239,0.538517,0.0735691,-0.0860336,-0.216341,0.192886,-0.00228119
0.00313254,-0.866131,0.556047,0.0535711,0.0168308,-0.373543,0.192886,-0.00228119
0.426482,-1.69689,0.300749,0.0230331,0.0254345,-0.603115,0.192886,-0.00228119
1.00401,-2.25139,-0.143005,-0.0768237,0.12828,-0.684694,0.192886,-0.00228119
1.42593,-2.35247,-0.324873,-0.160573,0.124984,-0.573824,0.192886,-0.00228119
1.12873,-1.76582,-0.381867,-0.182573,-0.00199105,-0.33591,0.192886,-0.00228119
0.21801,-0.79808,-0.5907,-0.16528,-0.0991244,-0.135797,0.192886,-0.00228119
-0.507318,0.0291199,-0.970946,-0.15547,-0.0680253,-0.0894003,0.192886,-0.00228119
-0.655177,0.414615,-1.33623,-0.120876,0.0750367,-0.110572,0.192886,-0.00228119
-0.313034,0.408941,-1.41236,-0.0447003,0.208891,-0.137934,0.192886,-0.00228119
0.128383,0.135685,-1.13243,0.0345566,0.235241,-0.11727,0.192886,-0.00228119
0.128383,0.135685,-1.13243,0.0345566,0.235241,-0.11727,0.158539,-0.0018692
0.271887,-0.0984696,-0.832784,0.106474,0.177959,-0.0561882,0.158539,-0.0018692
0.121208,-0.243084,-0.701957,0.149182,0.0810659,0.0272715,0.158539,-0.0018692
-0.200216,-0.24528,-0.744141,0.135032,0.0189142,0.0755638,0.158539,-0.0018692
-0.395876,-0.0719649,-0.789295,0.102463,0.0160202,0.109788,0.158539,-0.0018692
-0.371724,0.206788,-0.714438,0.0804189,0.0363405,0.162291,0.158539,-0.0018692
-0.195859,0.422734,-0.51613,0.0680746,0.041916,0.193367,0.158539,-0.0018692
-0.0463143,0.541909,-0.335628,0.0782939,0.0249251,0.242317,0.158539,-0.0018692
-0.0160482,0.537309,-0.220972,0.0918034,-0.0087211,0.297376,0.158539,-0.0018692
-0.0823456,0.422562,-0.167123,0.0961492,-0.036894,0.33631,0.158539,-0.0018692
-0.194275,0.287301,-0.203198,0.0954476,-0.0536549,0.360392,0.158539,-0.0018692
-0.244236,0.169298,-0.286649,0.0975287,-0.0461941,0.363306,0.158539,-0.0018692
-0.175664,-0.00107851,-0.2915,0.0842321,-0.0236063,0.320779,0.158539,-0.0018692
-0.128173,-0.133399,-0.231111,0.0722175,-0.0159215,0.287963,0.158539,-0.0018692
-0.128555,-0.167388,-0.197983,0.070406,-0.0286475,0.254179,0.158539,-0.0018692
-0.161785,-0.122167,-0.151489,0.0559941,-0.0358887,0.202331,0.158539,-0.0018692
-0.233799,0.018458,-0.145251,0.0389462,-0.0416588,0.158515,0.158539,-0.0018692
-0.254441,0.19252,-0.132098,0.0352747,-0.0320972,0.0790325,0.158539,-0.0018692
-0.249987,0.322117,-0.0285751,0.0357896,-0.0344337,0.0201811,0.158539,-0.0018692
-0.237288,0.375061,0.087231,0.0403581,-0.0483461,-0.0466914,0.158539,-0.0018692
-0.252946,0.279833,0.148244,0.0408172,-0.0504301,-0.120115,0.158539,-0.0018692
-0.284129,0.0359001,0.152004,0.0289787,-0.0387032,-0.210869,0.158539,-0.0018692
-0.248181,-0.153364,0.107692,0.00590557,-0.0222645,-0.221654,0.158539,-0.0018692
-0.331897,-0.296162,0.107987,-0.0144774,-0.0304083,-0.227278,0.158539,-0.0018692
-0.433875,-0.27536,0.13922,-0.0225198,-0.0277681,-0.214642,0.158539,-0.0018692
-0.398236,-0.0854015,0.262478,-0.039972,-0.0356352,-0.20102,0.158539,-0.0018692
-0.317028,0.185116,0.500543,-0.0393506,-0.0360055,-0.18705,0.158539,-0.0018692
-0.332206,0.450568,0.805815,-0.00992701,-0.0438193,-0.163509,0.158539,-0.0018692
-0.406689,0.566219,1.02605,0.0153374,-0.00671189,-0.149773,0.158539,-0.0018692
-0.368357,0.40971,1.08896,0.0327103,0.0383725,-0.159206,0.158539,-0.0018692
-0.156175,0.113016,1.08748,0.043472,0.0388772,-0.142673,0.158539,-0.0018692
-0.0236429,-0.208447,1.08078,0.0529655,0.0149568,-0.111102,0.158539,-0.0018692
-0.0162774,-0.442804,1.00735,0.0462212,-0.00722906,-0.0852374,0.158539,-0.0018692
-0.0243421,-0.57952,0.807741,0.0273466,-0.0011267,-0.0863169,0.158539,-0.0018692
-0.000154995,-0.595315,0.518374,0.0242848,0.0176493,-0.0675058,0.158539,-0.0018692
-0.0239185,-0.454011,0.335063,0.0389292,0.0351077,-0.0175278,0.158539,-0.0018692
-0.0650298,-0.234808,0.396208,0.0568338,0.0280822,0.0399643,0.158539,-0.0018692
-0.0533003,0.00883995,0.599033,0.0769235,0.0189459,0.0907893,0.158539,-0.0018692
0.0386198,0.103866,0.818322,0.0741084,0.00712738,0.116239,0.158539,-0.0018692
0.172559,0.0266114,0.898286,0.0551155,-0.00177888,0.129818,0.158539,-0.0018692
0.295028,-0.119962,0.830166,0.0279293,-0.0282504,0.157616,0.158539,-0.0018692
0.338428,-0.201401,0.662956,-0.00370001,-0.049756,0.185657,0.158539,-0.0018692
0.331196,-0.162058,0.522991,-0.0223543,-0.0873708,0.214381,0.158539,-0.0018692
0.263062,-0.0217671,0.435734,-0.0308232,-0.111261,0.238548,0.158539,-0.0018692
0.144389,0.222615,0.364731,-0.0332104,-0.103447,0.229921,0.158539,-0.0018692
0.163279,0.379524,0.363218,-0.0330646,-0.101014,0.195724,0.158539,-0.0018692
0.197824,0.443917,0.349692,-0.0180647,-0.0850453,0.174255,0.158539,-0.0018692
0.232604,0.39736,0.303843,-0.00341268,-0.0880371,0.144065,0.158539,-0.0018692
0.26808,0.277704,0.271667,0.00711093,-0.0989613,0.126711,0.158539,-0.0018692
0.26808,0.277704,0.271667,0.00711093,-0.0989613,0.126711,0.177032,-0.00208282
0.237609,0.161463,0.231478,0.00847331,-0.112971,0.12096,0.177032,-0.00208282
0.150638,0.102412,0.152201,0.009161,-0.122648,0.0970683,0.177032,-0.00208282
0.0715344,0.0637053,0.0376255,0.00829674,-0.112985,0.0446722,0.177032,-0.00208282
-0.00646989,0.0770331,-0.0678365,0.00253307,-0.0999571,-0.0145624,0.177032,-0.00208282
-0.102448,0.0733031,-0.138506,0.00353984,-0.0840889,-0.0811639,0.177032,-0.00208282
-0.317881,-0.00867377,-0.243756,-0.00871631,-0.0569317,-0.152089,0.177032,-0.00208282
-0.804798,-0.161685,-0.498524,-0.0460045,0.0202733,-0.225724,0.177032,-0.00208282
-1.34476,-0.388684,-1.02544,-0.0802162,0.167753,-0.316084,0.177032,-0.00208282
-1.50252,-0.726447,-1.64417,-0.0903019,0.328523,-0.4094,0.177032,-0.00208282
-1.15106,-1.12592,-1.9389,-0.0850309,0.366723,-0.396614,0.177032,-0.00208282
-0.560563,-1.24616,-1.7929,-0.0747447,0.230148,-0.26557,0.177032,-0.00208282
-0.301441,-0.997462,-1.41587,-0.0317514,0.0566369,-0.144013,0.177032,-0.00208282
-0.658374,-0.659985,-1.06632,0.00668786,-0.00453805,-0.123055,0.177032,-0.00208282
-1.07603,-0.340973,-0.75827,-0.00372221,0.0308551,-0.118822,0.177032,-0.00208282
-0.95834,-0.108965,-0.455922,-0.0329097,0.0658205,-0.129452,0.177032,-0.00208282
-0.368591,0.00867418,-0.192719,-0.0168092,0.0902582,-0.114424,0.177032,-0.00208282
0.25275,-0.115259,0.0771395,0.0110145,0.0449215,-0.109715,0.177032,-0.00208282
0.552681,-0.318748,0.268519,0.0266433,-0.0196161,-0.084958,0.177032,-0.00208282
0.53739,-0.431307,0.27923,-0.00617923,-0.0401592,-0.050443,0.177032,-0.00208282
0.37994,-0.327878,0.136232,-0.0324651,-0.0178245,0.0102301,0.177032,-0.00208282
0.260583,-0.0110809,-0.0191028,-0.0554203,0.00909833,0.0951636,0.177032,-0.00208282
0.249765,0.320498,-0.12302,-0.0489973,0.0455899,0.174165,0.177032,-0.00208282
0.310969,0.51209,-0.175651,-0.0154415,0.049352,0.227079,0.177032,-0.00208282
0.391426,0.546305,-0.217353,0.0266643,0.04484,0.274792,0.177032,-0.00208282
0.458174,0.46471,-0.285116,0.0540546,0.0355294,0.316663,0.177032,-0.00208282
0.47881,0.362871,-0.346998,0.0753982,0.00323323,0.358456,0.177032,-0.00208282
0.447434,0.216345,-0.377625,0.0928135,-0.037694,0.373957,0.177032,-0.00208282
0.370723,0.0643346,-0.42281,0.0721715,-0.0523975,0.361312,0.177032,-0.00208282
0.268753,-0.022674,-0.484461,0.0573618,-0.0795455,0.332656,0.177032,-0.00208282
0.111439,0.0736189,-0.547277,0.0760144,-0.105524,0.306899,0.177032,-0.00208282
-0.0207896,0.329384,-0.560097,0.0923201,-0.150257,0.253931,0.177032,-0.00208282
-0.0950316,0.58559,-0.485727,0.0801773,-0.17642,0.196775,0.177032,-0.00208282
-0.189901,0.560932,-0.379986,0.0230833,-0.20964,0.0618353,0.177032,-0.00208282
-0.389296,0.282878,-0.450254,0.0223733,-0.196906,-0.107642,0.177032,-0.00208282
-0.363119,0.0239484,-0.621437,0.0491881,-0.176872,-0.180044,0.177032,-0.00208282
0.0496752,-0.33987,-0.75111,0.0248627,-0.158354,-0.28126,0.177032,-0.00208282
0.685042,-1.07736,-1.08846,0.0337974,-0.117835,-0.38292,0.177032,-0.00208282
1.2422,-1.74067,-1.37081,0.042639,-0.0495817,-0.390016,0.177032,-0.00208282
1.60748,-1.88723,-1.12011,0.0492088,-0.099289,-0.257905,0.177032,-0.00208282
1.29126,-1.28087,-0.494595,0.0184034,-0.22546,-0.178886,0.177032,-0.00208282
0.1219,-1.02401,-0.0645956,-0.0153702,-0.17233,-0.307282,0.177032,-0.00208282
-0.421846,-0.104866,0.16105,-0.0462539,-0.17186,-0.0919522,0.177032,-0.00208282
-0.549227,0.881332,0.277969,-0.0720403,-0.0896079,-0.0819103,0.177032,-0.00208282
-0.670501,1.02988,0.342968,-0.0737822,0.00297964,-0.190432,0.177032,-0.00208282
-0.71078,1.65418,0.521484,-0.111667,0.00992736,0.0587512,0.177032,-0.00208282
-0.57747,2.66923,0.513176,0.00373305,0.218686,0.0927937,0.177032,-0.00208282
-0.344769,2.81335,0.470213,0.0449269,0.237788,-0.0570747,0.177032,-0.00208282
-0.344769,2.81335,0.470213,0.0449269,0.237788,-0.0570747,0.171753,-0.00203705
-0.323478,-0.703989,0.811395,0.0941272,0.0299578,-0.868882,0.171753,-0.00203705
0.704478,0.0611815,0.979432,-0.00755548,0.162984,0.130202,0.171753,-0.00203705
1.09592,-0.121797,0.610102,0.00278278,0.27081,-0.0102399,0.171753,-0.00203705
1.18132,-0.0791628,0.397605,0.0328204,0.157211,0.0905865,0.171753,-0.00203705
0.999448,0.199348,0.405472,0.0577411,0.151254,0.18437,0.171753,-0.00203705
0.75751,0.550718,0.522597,0.0684174,0.116908,0.25868,0.171753,-0.00203705
0.560069,0.587686,0.566561,0.0730243,0.0939116,0.273994,0.171753,-0.00203705
0.461889,0.316534,0.493722,0.0502837,0.0806315,0.261683,0.171753,-0.00203705
0.447339,-0.0248251,0.313277,0.0417709,0.0756532,0.2476,0.171753,-0.00203705
0.459876,-0.0917164,0.154303,0.0472761,0.0505151,0.264361,0.171753,-0.00203705
0.329575,0.0690937,0.0915164,0.042834,0.0233574,0.254222,0.171753,-0.00203705
0.113173,0.294955,0.132457,0.0519464,-0.00139014,0.221472,0.171753,-0.00203705
-0.0218353,0.397441,0.278527,0.0704001,-0.0311668,0.167989,0.171753,-0.00203705
-0.0366686,0.364201,0.452051,0.0742125,-0.050561,0.125876,0.171753,-0.00203705
-0.0294145,0.292199,0.514863,0.0689977,-0.0494085,0.101075,0.171753,-0.00203705
-0.04769,0.290435,0.529669,0.0538448,-0.068372,0.0829632,0.171753,-0.00203705
-0.0455787,0.356468,0.477568,0.0556942,-0.0722112,0.0647288,0.171753,-0.00203705
-0.0717384,0.378694,0.393468,0.0659482,-0.0767859,0.0239938,0.171753,-0.00203705
-0.128537,0.345241,0.310546,0.0691123,-0.0887085,-0.00656527,0.171753,-0.00203705
-0.158164,0.336455,0.237495,0.0562971,-0.0919287,-0.0352936,0.171753,-0.00203705
-0.162604,0.304662,0.156626,0.0595417,-0.0843268,-0.0731417,0.171753,-0.00203705
-0.161094,0.179445,0.130905,0.0670174,-0.0770923,-0.122274,0.171753,-0.00203705
-0.125811,0.0395637,0.1614,0.0684053,-0.0561884,-0.159768,0.171753,-0.00203705
-0.0442367,-0.0864895,0.224661,0.0894753,-0.0659836,-0.201186,0.171753,-0.00203705
0.0926363,-0.235512,0.28138,0.102888,-0.0805559,-0.242701,0.171753,-0.00203705
0.213838,-0.45709,0.309606,0.109502,-0.0859689,-0.266376,0.171753,-0.00203705
0.265511,-0.588266,0.351102,0.0896003,-0.0895958,-0.225859,0.171753,-0.00203705
0.0614892,-0.618513,0.331395,0.0545073,-0.0903971,-0.160423,0.171753,-0.00203705
-0.534794,-0.639004,0.158092,0.0010508,-0.0411719,-0.147029,0.171753,-0.00203705
-1.1458,-0.62494,-0.0476553,-0.0219767,-0.00847726,-0.19434,0.171753,-0.00203705
-1.32418,-0.555901,-0.136925,-0.0478204,0.0612201,-0.261437,0.171753,-0.00203705
-0.99281,-0.3885,-0.0823827,-0.0575432,0.126724,-0.308355,0.171753,-0.00203705
-0.361008,-0.0113869,0.0931906,-0.0496172,0.153757,-0.25266,0.171753,-0.00203705
0.359927,0.165926,0.254547,-0.0210702,0.145967,-0.129345,0.171753,-0.00203705
0.726728,0.082657,0.240814,0.00858908,0.147265,-0.0415007,0.171753,-0.00203705
0.813455,0.0540562,0.18343,0.00833643,0.125103,0.0872938,0.171753,-0.00203705
0.727465,0.143858,0.162562,0.00633484,0.0999367,0.19195,0.171753,-0.00203705
0.540389,0.294208,0.178893,0.00588575,0.0653601,0.257206,0.171753,-0.00203705
0.393414,0.374206,0.190166,0.0115729,0.0489786,0.285014,0.171753,-0.00203705
0.378939,0.390737,0.160813,0.0135728,0.0520823,0.30215,0.171753,-0.00203705
0.440822,0.403903,0.107007,0.0111998,0.0510177,0.324407,0.171753,-0.00203705
0.481095,0.380129,0.0321577,0.00692335,0.0415596,0.332194,0.171753,-0.00203705
0.473637,0.295737,-0.0313231,0.0159435,0.0220159,0.324856,0.171753,-0.00203705
0.436466,0.184583,-0.0568687,0.0258294,-0.00422481,0.304376,0.171753,-0.00203705
0.390944,0.123841,-0.0166855,0.0234933,-0.020316,0.293559,0.171753,-0.00203705
0.256146,0.0872099,0.0489051,0.0141014,-0.0321386,0.26834,0.171753,-0.00203705
0.0385771,0.070934,0.0770576,0.0113668,-0.0566463,0.232527,0.171753,-0.00203705
0.0385771,0.070934,0.0770576,0.0113668,-0.0566463,0.232527,0.179672,-0.00213623
-0.314885,0.126393,0.0512028,-0.0142251,-0.0533707,0.145703,0.179672,-0.00213623
-0.328078,0.132507,0.041824,-0.0203546,-0.0456589,0.101204,0.179672,-0.00213623
-0.276757,0.0856439,0.0769331,-0.0211925,-0.0517118,0.0611422,0.179672,-0.00213623
-0.187547,0.110776,0.142423,-0.0265017,-0.0569111,0.0520484,0.179672,-0.00213623
-0.0994046,0.172159,0.199124,-0.01994,-0.0811047,0.0572583,0.179672,-0.00213623
-0.0541031,0.132355,0.258628,-0.0115715,-0.101899,0.0533963,0.179672,-0.00213623
-0.0510702,0.0162249,0.297202,-0.018633,-0.112239,0.0438331,0.179672,-0.00213623
-0.0612361,-0.0553495,0.300621,-0.0295629,-0.12214,0.0302107,0.179672,-0.00213623
-0.0382766,0.014903,0.289768,-0.0466453,-0.127773,0.0232577,0.179672,-0.00213623
0.0192386,0.110002,0.261728,-0.04176,-0.137989,0.0032565,0.179672,-0.00213623
0.0359593,0.175454,0.248195,-0.0396052,-0.150434,-0.0183687,0.179672,-0.00213623
-0.0272956,0.267345,0.198008,-0.0209585,-0.166629,-0.020401,0.179672,-0.00213623
-0.137385,0.304177,0.123571,-0.00836386,-0.16492,-0.0546854,0.179672,-0.00213623
-0.167208,0.256715,0.0633349,0.0119525,-0.138732,-0.0929292,0.179672,-0.00213623
-0.0219587,0.196176,0.0746198,0.0570183,-0.142746,-0.111692,0.179672,-0.00213623
0.125323,-0.030717,0.0971294,0.0950428,-0.125348,-0.129203,0.179672,-0.00213623
0.146336,-0.230726,0.0792223,0.105063,-0.0837553,-0.0981106,0.179672,-0.00213623
0.0977374,-0.350639,0.096576,0.122415,-0.0748609,-0.078177,0.179672,-0.00213623
0.146206,-0.387661,0.207601,0.130545,-0.0664459,-0.0639857,0.179672,-0.00213623
0.285425,-0.291326,0.318205,0.132378,-0.0487842,-0.0469384,0.179672,-0.00213623
0.267705,0.00772758,0.430822,0.132054,-0.0405293,-0.00624621,0.179672,-0.00213623
0.105446,0.395311,0.563915,0.136132,-0.0321089,0.0243034,0.179672,-0.00213623
-0.0721399,0.62865,0.686952,0.161778,-0.011084,0.0178782,0.179672,-0.00213623
-0.0345212,0.580831,0.836223,0.188285,0.0121638,-0.00535637,0.179672,-0.00213623
0.0743975,0.42213,0.956493,0.203478,0.0483896,-0.00650936,0.179672,-0.00213623
0.21372,0.288014,1.09927,0.200644,0.0389076,0.0138911,0.179672,-0.00213623
0.188125,0.202006,1.14258,0.196584,0.0564259,0.0276546,0.179672,-0.00213623
-0.0153586,0.119668,1.14767,0.19455,0.0570121,0.0289379,0.179672,-0.00213623
-0.216042,-0.0138851,1.14216,0.195369,0.077433,0.00347072,0.179672,-0.00213623
-0.270402,-0.0917086,1.16083,0.18855,0.100851,-0.0191907,0.179672,-0.00213623
-0.176451,-0.0458764,1.22485,0.171818,0.118182,-0.0328615,0.179672,-0.00213623
-0.0322907,0.0985984,1.31612,0.144669,0.127401,-0.0293122,0.179672,-0.00213623
0.0589492,0.320289,1.40122,0.110116,0.115604,0.00183362,0.179672,-0.00213623
0.113625,0.520395,1.40552,0.086999,0.086404,0.0337918,0.179672,-0.00213623
0.0890171,0.617053,1.31321,0.0676621,0.0658595,0.050136,0.179672,-0.00213623
-0.00562055,0.627818,1.19146,0.0604436,0.0424013,0.0583062,0.179672,-0.00213623
-0.0697967,0.580768,1.10376,0.0568811,0.0326066,0.0574331,0.179672,-0.00213623
-0.0966101,0.505025,1.06713,0.0446737,0.029897,0.0592068,0.179672,-0.00213623
-0.104369,0.400527,1.00851,0.0359719,0.023084,0.0547591,0.179672,-0.00213623
-0.0886724,0.36595,0.922659,0.0207342,0.0224331,0.0533197,0.179672,-0.00213623
-0.0329188,0.378814,0.837635,0.0140752,0.0105343,0.0508454,0.179672,-0.00213623
-0.0161797,0.372963,0.780802,0.0107379,-0.00773276,0.0407135,0.179672,-0.00213623
-0.0542177,0.312534,0.762353,0.0130255,-0.026648,0.0256835,0.179672,-0.00213623
-0.168128,0.259675,0.743869,0.00593247,-0.0309198,0.0108463,0.179672,-0.00213623
-0.245512,0.163425,0.725332,0.00437805,-0.0292611,-0.0240147,0.179672,-0.00213623
-0.204793,0.0129251,0.709446,-0.00100543,-0.0223808,-0.0417003,0.179672,-0.00213623
-0.0911674,-0.0121498,0.652742,-0.00079453,-0.0398581,-0.0544515,0.179672,-0.00213623
-0.0911674,-0.0121498,0.652742,-0.00079453,-0.0398581,-0.0544515,0.214035,-0.00253296
-0.00258542,0.301505,0.504957,-0.0234337,-0.0334096,-0.0361987,0.214035,-0.00253296
0.00671656,0.682105,0.382519,-0.013345,-0.0452248,-0.0250313,0.214035,-0.00253296
-0.0370374,0.639811,0.420561,0.0240537,-0.0940104,-0.0577542,0.214035,-0.00253296
