rotationRate_x,rotationRate_y,rotationRate_z,acceleration_x,acceleration_y,acceleration_z,relativeAltitude,altitude_pressure
0.144727,0.579174,0.674572,0.170739,0.0330915,0.241753,0.001,0.0001
-0.019791,0.19877,0.739105,0.173647,0.0159283,0.226332,0.001,0.0001
-0.0210348,-0.0874807,0.780323,0.150503,0.0370398,0.119856,0.001,0.0001
0.0365265,-0.170544,0.81558,0.111767,0.0646596,0.0246163,0.001,0.0001
0.0842555,-0.106645,0.781508,0.0595944,0.0732887,-0.0138502,0.001,0.0001
0.0964306,-0.0120613,0.70694,0.0279039,0.0783739,0.00218928,0.001,0.0001
0.0821658,0.122963,0.647703,0.0156148,0.086761,0.0453542,0.001,0.0001
0.0667936,0.288396,0.573706,0.0101723,0.0980612,0.113237,0.001,0.0001
0.10378,0.444463,0.530491,-0.00344104,0.104181,0.174215,0.001,0.0001
0.260844,0.494709,0.432385,-0.0150122,0.102073,0.22217,0.001,0.0001
0.4202,0.407756,0.377037,0.022763,0.117736,0.287023,0.001,0.0001
0.38198,0.294454,0.334874,0.0243518,0.134574,0.369253,0.001,0.0001
0.148393,0.179372,0.274295,0.0405063,0.109056,0.407649,0.001,0.0001
-0.105961,0.0314932,0.221023,0.0727925,0.0856454,0.355235,0.001,0.0001
-0.277947,-0.00258867,0.235794,0.10406,0.0821457,0.238625,0.001,0.0001
-0.424573,-0.133938,0.307415,0.13528,0.0579565,0.126471,0.001,0.0001
-0.489437,-0.327238,0.357518,0.122066,0.0128933,-0.0208687,0.001,0.0001
-0.455111,-0.440161,0.312423,0.0808598,-0.0174307,-0.177728,0.001,0.0001
-0.503549,-0.458453,0.284803,0.0621938,-0.0296695,-0.310516,0.001,0.0001
-0.434167,-0.304658,0.248915,0.0221388,-0.0433294,-0.444862,0.001,0.0001
-0.295566,-0.276041,0.193315,0.00448142,-0.0302404,-0.466555,0.001,0.0001
-0.322371,-0.386636,0.228402,0.0112108,-0.0238948,-0.429076,0.001,0.0001
-0.38865,-0.350186,0.234626,-0.0296211,-0.0279786,-0.450515,0.001,0.0001
-0.403257,-0.193644,0.170645,-0.0622888,-0.0492947,-0.456318,0.001,0.0001
-0.373366,-0.126007,0.0686323,-0.0895969,-0.0404108,-0.420693,0.001,0.0001
-0.237025,-0.0755218,-0.0460585,-0.132183,-0.0127423,-0.382266,0.001,0.0001
-0.0535309,0.0510608,-0.17428,-0.143812,0.0166106,-0.312247,0.001,0.0001
0.128015,0.273601,-0.216431,-0.115096,0.0520987,-0.195305,0.001,0.0001
0.269381,0.333156,-0.217678,-0.115032,0.0688137,-0.0569932,0.001,0.0001
0.361498,0.162858,-0.217239,-0.108228,0.0537943,0.0423589,0.001,0.0001
0.429656,-0.109405,-0.244852,-0.117586,0.0625719,0.108322,0.001,0.0001
0.404265,-0.258193,-0.315621,-0.137804,0.0848072,0.15348,0.001,0.0001
0.253259,-0.220697,-0.426288,-0.14702,0.0913993,0.194061,0.001,0.0001
0.0802719,-0.0812457,-0.525004,-0.122229,0.0971157,0.219949,0.001,0.0001
-0.0108407,0.0371946,-0.536302,-0.077608,0.112188,0.242477,0.001,0.0001
0.0104421,0.0919738,-0.494637,-0.0518627,0.112533,0.2728,0.001,0.0001
0.115577,0.0588602,-0.471164,-0.0497125,0.0972981,0.320812,0.001,0.0001
0.163808,-0.0538516,-0.501313,-0.0532984,0.0765283,0.387747,0.001,0.0001
0.0662533,-0.240839,-0.546539,-0.0341962,0.0586772,0.42716,0.001,0.0001
-0.109234,-0.308171,-0.556675,-0.014664,0.0634235,0.408266,0.001,0.0001
-0.29098,-0.27789,-0.507917,-0.00463217,0.058218,0.346748,0.001,0.0001
-0.378966,-0.225432,-0.37991,0.0152672,0.026647,0.280867,0.001,0.0001
-0.321656,-0.223223,-0.328776,-0.0215196,0.00904506,0.206442,0.001,0.0001
-0.209904,-0.308596,-0.314034,-0.0200263,-0.0412488,0.142536,0.001,0.0001
-0.142262,-0.475676,-0.28454,0.0176911,-0.082046,0.0885946,0.001,0.0001
-0.136928,-0.643129,-0.254513,0.0338131,-0.0983304,0.00548822,0.001,0.0001
-0.128616,-0.574384,-0.234537,0.0420043,-0.113005,-0.0967124,0.001,0.0001
-0.11056,-0.332931,-0.20566,0.0460831,-0.114287,-0.157699,0.001,0.0001
-0.127379,-0.175273,-0.193058,0.0192865,-0.10591,-0.183807,0.001,0.0001
-0.12674,-0.0675061,-0.0806647,0.0459793,-0.141703,-0.214323,0.001,0.0001
-0.0813523,-0.123514,-0.00856412,0.0330743,-0.138867,-0.2635,0.001,0.0001
-0.0813523,-0.123514,-0.00856412,0.0330743,-0.138867,-0.2635,0.058136,-0.000709534
0.0981154,-0.0797695,-0.0696611,-0.00872951,-0.123287,-0.334675,0.058136,-0.000709534
0.224946,0.00955522,-0.0306538,0.0131866,-0.155929,-0.35626,0.058136,-0.000709534
0.17326,0.0661434,-0.0302124,-0.00876924,-0.148253,-0.332457,0.058136,-0.000709534
0.0929659,0.245183,-0.0677775,-0.022929,-0.120064,-0.32847,0.058136,-0.000709534
0.0929183,0.454643,-0.0817934,-0.0231652,-0.0963462,-0.322187,0.058136,-0.000709534
0.137952,0.494551,-0.0554278,-0.0079521,-0.0762268,-0.262189,0.058136,-0.000709534
0.16376,0.342979,-0.054543,0.00617123,-0.0808519,-0.208025,0.058136,-0.000709534
0.109942,0.348198,-0.107343,0.000403702,-0.0527195,-0.164421,0.058136,-0.000709534
0.0100519,0.559239,-0.115271,0.0196715,-0.0163964,-0.132152,0.058136,-0.000709534
0.0576155,0.807197,-0.0373981,0.0717247,0.026234,-0.0815437,0.058136,-0.000709534
0.214696,0.784542,0.076367,0.07896,0.0668499,0.0140906,0.058136,-0.000709534
0.41264,0.558505,0.219672,0.102337,0.0695365,0.102555,0.058136,-0.000709534
0.537119,0.24339,0.304451,0.0865136,0.0701147,0.166451,0.058136,-0.000709534
0.520251,0.0526329,0.325789,0.0681378,0.0733095,0.210074,0.058136,-0.000709534
0.396292,0.0976384,0.297763,0.0294601,0.0863278,0.230864,0.058136,-0.000709534
0.285717,0.269994,0.269657,0.0105447,0.108876,0.245618,0.058136,-0.000709534
0.236424,0.302011,0.251867,0.00820889,0.12127,0.276391,0.058136,-0.000709534
0.247631,0.122688,0.263801,0.0205502,0.120135,0.28244,0.058136,-0.000709534
0.335656,-0.0474777,0.288529,0.0269343,0.123517,0.242229,0.058136,-0.000709534
0.462561,-0.0716154,0.301421,-0.0106365,0.13076,0.198736,0.058136,-0.000709534
0.514768,0.00651632,0.280115,-0.0180288,0.110865,0.200203,0.058136,-0.000709534
0.398557,0.0818492,0.239919,-0.0168966,0.0835163,0.211071,0.058136,-0.000709534
0.219776,0.219464,0.187508,-0.0171955,0.0525085,0.210914,0.058136,-0.000709534
0.0101956,0.2284,0.123353,-0.0195324,0.0261084,0.194384,0.058136,-0.000709534
-0.174687,0.0309058,0.0550321,-0.00629914,-0.00904241,0.149705,0.058136,-0.000709534
-0.193824,-0.285525,0.0327958,0.0142442,-0.0182074,0.0511011,0.058136,-0.000709534
-0.120502,-0.397066,-0.0217528,-0.0145155,-0.0189728,-0.0283983,0.058136,-0.000709534
-0.0956907,-0.205734,-0.0458656,-0.0205122,-0.0314364,-0.0783069,0.058136,-0.000709534
-0.123419,0.0905763,-0.0410485,-0.0153114,-0.0466945,-0.0890872,0.058136,-0.000709534
-0.141293,0.0958077,-0.0283402,0.00846101,-0.0758717,-0.112563,0.058136,-0.000709534
-0.0709051,0.0554352,-0.0544021,0.0189577,-0.0930538,-0.153543,0.058136,-0.000709534
-0.0168246,0.0633605,-0.0500527,0.0504756,-0.0933628,-0.177514,0.058136,-0.000709534
-0.0183523,0.0728921,0.0345607,0.0905672,-0.0869564,-0.195056,0.058136,-0.000709534
-0.0720839,0.0265074,0.157015,0.108824,-0.0767442,-0.203383,0.058136,-0.000709534
-0.145845,-0.178341,0.249662,0.0977285,-0.0763041,-0.224332,0.058136,-0.000709534
-0.171151,-0.373291,0.290533,0.0587189,-0.065786,-0.280485,0.058136,-0.000709534
-0.127191,-0.457281,0.299242,0.019482,-0.0505585,-0.345223,0.058136,-0.000709534
-0.0331819,-0.29234,0.330341,-0.00791468,-0.0139133,-0.343229,0.058136,-0.000709534
-0.0316875,-0.236822,0.311183,-0.0648572,0.000715256,-0.279186,0.058136,-0.000709534
-0.094136,-0.228134,0.164728,-0.117533,-0.0197766,-0.210625,0.058136,-0.000709534
-0.183423,-0.27554,-0.023905,-0.121013,-0.0088526,-0.15489,0.058136,-0.000709534
-0.18373,-0.264054,-0.104944,-0.0882776,0.0366617,-0.144173,0.058136,-0.000709534
-0.0746189,-0.0366773,-0.138993,-0.0808117,0.0863193,-0.120578,0.058136,-0.000709534
0.0450514,0.191326,-0.148106,-0.0678723,0.103145,-0.043681,0.058136,-0.000709534
0.141489,0.201324,-0.124686,-0.0554303,0.111071,0.0568289,0.058136,-0.000709534
0.161241,-0.0372754,-0.11115,-0.0517812,0.119837,0.148817,0.058136,-0.000709534
0.111326,-0.346164,-0.128599,-0.0590496,0.112944,0.178963,0.058136,-0.000709534
0.0847701,-0.46149,-0.14349,-0.0601328,0.123302,0.146308,0.058136,-0.000709534
0.118755,-0.375424,-0.122144,-0.0537771,0.148247,0.114411,0.058136,-0.000709534
0.203555,-0.0518273,-0.108797,-0.0466588,0.152729,0.135701,0.058136,-0.000709534
0.176789,0.217654,-0.128917,-0.0448891,0.149462,0.228585,0.058136,-0.000709534
0.176789,0.217654,-0.128917,-0.0448891,0.149462,0.228585,0.0607605,-0.000701904
0.0655947,0.242726,-0.162022,-0.0544476,0.126361,0.318155,0.0607605,-0.000701904
0.0150039,0.143734,-0.324647,-0.0830469,0.0809896,0.341622,0.0607605,-0.000701904
-0.0125859,0.10707,-0.493441,-0.0564419,0.0725612,0.341949,0.0607605,-0.000701904
-0.098196,0.131009,-0.523635,0.00484359,0.0931299,0.346657,0.0607605,-0.000701904
-0.207226,0.143957,-0.40448,0.0475743,0.0918819,0.335528,0.0607605,-0.000701904
-0.250802,0.0468626,-0.328355,0.0238571,0.0373739,0.305428,0.0607605,-0.000701904
-0.228083,-0.184401,-0.363183,-0.0197543,-0.00956535,0.228912,0.0607605,-0.000701904
-0.163775,-0.302092,-0.41369,-0.0172688,-0.0302932,0.138835,0.0607605,-0.000701904
-0.11211,-0.281583,-0.401804,0.0207411,-0.0205533,0.062449,0.0607605,-0.000701904
-0.0999605,-0.0825252,-0.271175,0.0649094,-0.00517619,0.0310437,0.0607605,-0.000701904
-0.162963,0.174539,-0.11955,0.06672,-0.0118046,0.0317767,0.0607605,-0.000701904
-0.287791,0.372207,-0.000837971,0.0631747,-0.0632633,0.0248809,0.0607605,-0.000701904
-0.404153,0.348335,0.0719761,0.0264717,-0.104891,-0.0215952,0.0607605,-0.000701904
-0.404545,0.189071,0.0766935,-0.0263009,-0.148376,-0.112269,0.0607605,-0.000701904
-0.277137,-0.118127,0.0427972,-0.00305517,-0.183436,-0.223436,0.0607605,-0.000701904
-0.16932,-0.328416,0.00938159,0.0278887,-0.179246,-0.316077,0.0607605,-0.000701904
-0.178508,-0.270812,0.0550078,0.0294272,-0.168671,-0.399993,0.0607605,-0.000701904
-0.189034,-0.00165822,0.0533307,0.0132397,-0.171375,-0.469792,0.0607605,-0.000701904
-0.137458,0.309413,0.0439384,0.0337721,-0.163698,-0.484582,0.0607605,-0.000701904
-0.0191494,0.500139,0.0671386,0.0631298,-0.14211,-0.425206,0.0607605,-0.000701904
0.0828838,0.423179,0.0867691,0.0700964,-0.128052,-0.303775,0.0607605,-0.000701904
0.0806517,0.107493,0.0729755,0.0587728,-0.105676,-0.202984,0.0607605,-0.000701904
0.0545261,-0.0685633,0.0507758,0.0516487,-0.061621,-0.167139,0.0607605,-0.000701904
0.0621701,0.169457,0.0505429,0.0477542,0.0079889,-0.144618,0.0607605,-0.000701904
0.128952,0.615583,0.105014,0.0881888,0.0466643,-0.0660622,0.0607605,-0.000701904
0.187351,0.938746,0.199456,0.121666,0.0742974,0.0511642,0.0607605,-0.000701904
0.279684,0.90006,0.384334,0.146963,0.0850482,0.141393,0.0607605,-0.000701904
0.434693,0.578815,0.567841,0.160741,0.0727873,0.189056,0.0607605,-0.000701904
0.548915,0.11689,0.694985,0.135939,0.0868089,0.221074,0.0607605,-0.000701904
0.577127,-0.0865364,0.739268,0.0834782,0.08603,0.204764,0.0607605,-0.000701904
0.499788,0.0211821,0.688043,0.0376986,0.0947235,0.181473,0.0607605,-0.000701904
0.383448,0.247192,0.624624,0.0187882,0.103772,0.1774,0.0607605,-0.000701904
0.330667,0.353572,0.548189,-0.00118965,0.0999219,0.174611,0.0607605,-0.000701904
0.369495,0.364054,0.478481,-0.00262293,0.102606,0.197062,0.0607605,-0.000701904
0.367788,0.242803,0.443175,0.00988509,0.110346,0.232253,0.0607605,-0.000701904
0.310036,0.195936,0.423471,0.00176547,0.114317,0.247584,0.0607605,-0.000701904
0.204965,0.207651,0.36767,-0.0101286,0.096918,0.242961,0.0607605,-0.000701904
0.0810003,0.243438,0.29471,-0.0132951,0.0837709,0.240586,0.0607605,-0.000701904
-0.0365674,0.152463,0.265451,0.00362402,0.0873272,0.221239,0.0607605,-0.000701904
-0.0989988,0.0642539,0.287436,0.016986,0.0892714,0.173276,0.0607605,-0.000701904
-0.0961234,0.0606938,0.34525,0.0271195,0.0731314,0.118912,0.0607605,-0.000701904
-0.0968801,0.0633494,0.395258,0.00741844,0.0333984,0.0878296,0.0607605,-0.000701904
-0.162128,-0.0166471,0.415824,0.00601086,-0.0172134,0.0729041,0.0607605,-0.000701904
-0.314438,-0.155253,0.411452,-0.00503968,-0.0623412,0.0172643,0.0607605,-0.000701904
-0.388358,-0.139421,0.337071,-0.0402937,-0.0912282,-0.0867231,0.0607605,-0.000701904
-0.361001,-0.0324726,0.287464,-0.0320028,-0.10176,-0.17548,0.0607605,-0.000701904
-0.270987,0.139401,0.283533,-0.0289466,-0.0949257,-0.209841,0.0607605,-0.000701904
-0.20931,0.187952,0.291878,-0.0134702,-0.103215,-0.188666,0.0607605,-0.000701904
-0.184023,0.12092,0.307745,-0.00418696,-0.114897,-0.171987,0.0607605,-0.000701904
-0.131571,-0.0218228,0.314285,0.00629073,-0.120382,-0.165135,0.0607605,-0.000701904
-0.108415,-0.284098,0.333459,0.0250337,-0.127029,-0.185394,0.0607605,-0.000701904
-0.108415,-0.284098,0.333459,0.0250337,-0.127029,-0.185394,0.192902,-0.00228119
-0.153002,-0.474279,0.41316,0.0499202,-0.123668,-0.227144,0.192902,-0.00228119
-0.206231,-0.528116,0.461032,0.0567998,-0.104891,-0.293463,0.192902,-0.00228119
-0.303745,-0.587451,0.411817,-0.000714317,-0.0737857,-0.341583,0.192902,-0.00228119
-0.379465,-0.623112,0.283864,-0.0507364,-0.0694338,-0.388162,0.192902,-0.00228119
-0.31725,-0.558284,0.208912,-0.0686375,-0.0551949,-0.444186,0.192902,-0.00228119
-0.0807,-0.451971,0.244219,-0.0456083,-0.00629377,-0.462452,0.192902,-0.00228119
0.243519,-0.314038,0.25777,-0.0526337,0.0308895,-0.420438,0.192902,-0.00228119
0.494537,-0.128949,0.130532,-0.109844,0.0443767,-0.310275,0.192902,-0.00228119
0.523619,0.0677053,-0.0697427,-0.14816,0.0434113,-0.148497,0.192902,-0.00228119
0.387619,0.162679,-0.228285,-0.142293,0.0540984,0.00786549,0.192902,-0.00228119
0.250642,0.036355,-0.316939,-0.119334,0.0875967,0.115978,0.192902,-0.00228119
0.19638,-0.277543,-0.339412,-0.0973875,0.114747,0.15312,0.192902,-0.00228119
0.224906,-0.497517,-0.356864,-0.101761,0.145595,0.127218,0.192902,-0.00228119
0.252195,-0.467123,-0.421273,-0.129669,0.164086,0.084527,0.192902,-0.00228119
0.252966,-0.238571,-0.518996,-0.144999,0.160677,0.082321,0.192902,-0.00228119
0.222525,-0.0291515,-0.622637,-0.140986,0.145772,0.142222,0.192902,-0.00228119
0.136687,0.148411,-0.736579,-0.118705,0.131483,0.237242,0.192902,-0.00228119
0.0148716,0.209113,-0.782876,-0.0866036,0.113051,0.312485,0.192902,-0.00228119
-0.0116702,0.166159,-0.759309,-0.0571857,0.10559,0.34228,0.192902,-0.00228119
0.0607221,0.0267037,-0.717003,-0.0272593,0.0817095,0.3347,0.192902,-0.00228119
0.127835,-0.110361,-0.714736,-0.0258366,0.0522341,0.317458,0.192902,-0.00228119
0.120821,-0.186705,-0.727756,-0.0158076,0.034582,0.310668,0.192902,-0.00228119
0.0155437,-0.239903,-0.748577,0.000514269,0.0193389,0.306075,0.192902,-0.00228119
-0.160116,-0.368008,-0.74037,0.00322409,0.00376251,0.276629,0.192902,-0.00228119
-0.303939,-0.441014,-0.755582,0.000741005,-0.0228923,0.201475,0.192902,-0.00228119
-0.275358,-0.533947,-0.704359,0.0347639,-0.0381058,0.0767154,0.192902,-0.00228119
-0.105335,-0.505639,-0.612373,0.0488953,-0.0304318,-0.0215787,0.192902,-0.00228119
0.0478287,-0.257679,-0.529041,0.0427595,-0.0218869,-0.060892,0.192902,-0.00228119
-0.00477009,-0.101727,-0.475369,0.047541,-0.0552119,-0.0558118,0.192902,-0.00228119
-0.114986,-0.223657,-0.411901,0.0618461,-0.0839058,-0.101501,0.192902,-0.00228119
-0.109088,-0.0774418,-0.426349,0.0407178,-0.0883058,-0.189778,0.192902,-0.00228119
-0.122089,0.109955,-0.399976,0.0705616,-0.0829667,-0.225263,0.192902,-0.00228119
-0.173,0.170396,-0.326224,0.0910302,-0.070506,-0.234268,0.192902,-0.00228119
-0.198257,0.174097,-0.273081,0.103111,-0.0666703,-0.274836,0.192902,-0.00228119
-0.185816,0.217392,-0.165006,0.129698,-0.0515631,-0.297697,0.192902,-0.00228119
-0.121726,0.20949,-0.029274,0.142204,-0.0293124,-0.281886,0.192902,-0.00228119
-0.00660842,0.140529,0.116337,0.139728,-0.0141901,-0.258166,0.192902,-0.00228119
0.108779,0.0441423,0.175441,0.114303,-0.0218885,-0.224272,0.192902,-0.00228119
0.114873,0.100057,0.16921,0.100813,-0.00951374,-0.169634,0.192902,-0.00228119
-0.0363729,0.318504,0.161959,0.0862683,0.0280662,-0.117216,0.192902,-0.00228119
-0.178202,0.700078,0.181803,0.105117,0.0473709,-0.0798623,0.192902,-0.00228119
-0.142404,0.905577,0.280036,0.148957,0.0747142,-0.0258449,0.192902,-0.00228119
0.0769261,0.813716,0.46524,0.184488,0.0986098,0.0511913,0.192902,-0.00228119
0.312852,0.470957,0.667593,0.184418,0.0934637,0.134353,0.192902,-0.00228119
0.390426,0.112663,0.735731,0.133179,0.0450451,0.180469,0.192902,-0.00228119
0.299124,0.083834,0.660091,0.0693312,0.0105174,0.17312,0.192902,-0.00228119
0.128638,0.296711,0.518208,0.059742,0.00409532,0.15914,0.192902,-0.00228119
-0.0536979,0.541239,0.449829,0.087593,0.0392748,0.162504,0.192902,-0.00228119
-0.125563,0.670741,0.486498,0.130049,0.061524,0.168876,0.192902,-0.00228119
-0.0724601,0.641473,0.535968,0.144715,0.063229,0.180443,0.192902,-0.00228119
-0.0724601,0.641473,0.535968,0.144715,0.063229,0.180443,0.192886,-0.00228882
-0.00626384,0.489324,0.599376,0.142763,0.05657,0.186727,0.192886,-0.00228882
0.0818406,0.311209,0.671797,0.118114,0.0593971,0.152368,0.192886,-0.00228882
0.209518,0.301973,0.699779,0.0825161,0.0669028,0.104696,0.192886,-0.00228882
0.321459,0.398895,0.670201,0.0527414,0.0729529,0.0876207,0.192886,-0.00228882
0.359388,0.435575,0.651364,0.0444597,0.0840368,0.105139,0.192886,-0.00228882
0.347109,0.458263,0.726147,0.0420135,0.0948476,0.110471,0.192886,-0.00228882
0.33166,0.502962,0.791515,0.0263766,0.0766076,0.12078,0.192886,-0.00228882
0.274264,0.308305,0.812066,-0.00381935,0.0590369,0.151001,0.192886,-0.00228882
0.148677,0.0590575,0.810308,-0.0185684,0.0299312,0.148309,0.192886,-0.00228882
0.00918524,-0.120778,0.730853,-0.0403238,-0.0224321,0.0798308,0.192886,-0.00228882
-0.14146,-0.0957526,0.583951,-0.0541563,-0.0446224,0.0150486,0.192886,-0.00228882
-0.222488,-0.0287664,0.537399,-0.0205053,-0.039231,-0.0462483,0.192886,-0.00228882
-0.189054,0.00175811,0.553624,0.00695282,-0.0423339,-0.102206,0.192886,-0.00228882
-0.077987,0.0403443,0.541068,0.0149337,-0.0600456,-0.137526,0.192886,-0.00228882
0.0197818,0.109557,0.521514,0.0234249,-0.0732478,-0.137036,0.192886,-0.00228882
0.0341584,0.0628775,0.503203,0.0422558,-0.0845411,-0.133385,0.192886,-0.00228882
-0.0537899,-0.0112859,0.52033,0.0712371,-0.0865705,-0.126309,0.192886,-0.00228882
-0.197822,-0.14488,0.55508,0.0929128,-0.0880203,-0.137703,0.192886,-0.00228882
-0.29988,-0.324777,0.575963,0.0930723,-0.0955843,-0.194791,0.192886,-0.00228882
-0.30172,-0.440812,0.608564,0.0977083,-0.073849,-0.269694,0.192886,-0.00228882
-0.258901,-0.377397,0.647522,0.0762369,-0.043372,-0.321126,0.192886,-0.00228882
-0.227647,-0.212794,0.651054,0.0445101,-0.0226528,-0.314218,0.192886,-0.00228882
-0.2527,-0.0773245,0.622174,0.0230872,-0.000495076,-0.258312,0.192886,-0.00228882
-0.305508,-0.0554864,0.608285,0.0317638,0.0102281,-0.194514,0.192886,-0.00228882
-0.275344,-0.135089,0.602688,0.0235632,0.0182791,-0.164051,0.192886,-0.00228882
-0.137076,-0.0913033,0.597698,0.0167963,0.0422164,-0.13337,0.192886,-0.00228882
0.00397689,0.0184899,0.594819,0.00168978,0.0638327,-0.0832493,0.192886,-0.00228882
0.136363,0.0776447,0.603657,-0.0262786,0.065896,-0.0378901,0.192886,-0.00228882
0.230673,0.176319,0.54364,-0.0732913,0.076948,0.0315911,0.192886,-0.00228882
0.199987,0.016436,0.446168,-0.101549,0.0857316,0.0790257,0.192886,-0.00228882
0.149027,-0.0753004,0.381322,-0.102977,0.0942603,0.0995176,0.192886,-0.00228882
0.116073,-0.00212381,0.324832,-0.106448,0.119431,0.116886,0.192886,-0.00228882
0.114537,0.260805,0.30564,-0.099608,0.14353,0.158199,0.192886,-0.00228882
0.112934,0.481401,0.288511,-0.104201,0.14807,0.239644,0.192886,-0.00228882
0.0925054,0.513218,0.229562,-0.109954,0.122907,0.328061,0.192886,-0.00228882
-0.0516306,0.43335,0.111422,-0.109634,0.0698105,0.396251,0.192886,-0.00228882
-0.281525,0.273852,-0.0458154,-0.119183,0.0328156,0.430225,0.192886,-0.00228882
-0.420403,0.0626502,-0.196705,-0.09408,0.0239375,0.39407,0.192886,-0.00228882
-0.39525,-0.0503212,-0.224348,-0.037972,0.0470529,0.327535,0.192886,-0.00228882
-0.322845,-0.0128568,-0.185785,-0.010666,0.053459,0.284917,0.192886,-0.00228882
-0.28137,-0.000325744,-0.0900885,0.0207682,0.0352835,0.277414,0.192886,-0.00228882
-0.268123,-0.1096,-0.0241045,0.0227759,0.00532958,0.272722,0.192886,-0.00228882
-0.294221,-0.226943,-0.00470222,0.00485677,-0.0284948,0.248898,0.192886,-0.00228882
-0.360743,-0.339,0.0267751,0.00987324,-0.0523484,0.211497,0.192886,-0.00228882
-0.431597,-0.403095,0.0954118,0.0133754,-0.0685579,0.153111,0.192886,-0.00228882
-0.45442,-0.42796,0.136204,-0.0260213,-0.0943517,0.0659604,0.192886,-0.00228882
-0.410401,-0.335854,0.115784,-0.0579312,-0.130054,-0.0113312,0.192886,-0.00228882
-0.3389,-0.295523,0.0577452,-0.0567668,-0.167823,-0.0654103,0.192886,-0.00228882
-0.310452,-0.211182,0.0385629,-0.027976,-0.176148,-0.081327,0.192886,-0.00228882
-0.368053,-0.0950441,0.0499126,-0.0165072,-0.179022,-0.0686072,0.192886,-0.00228882
-0.481932,-0.0178214,0.0676266,-0.0136575,-0.205743,-0.0744985,0.192886,-0.00228882
-0.599071,-0.00138905,0.0137575,-0.0396073,-0.23745,-0.103984,0.192886,-0.00228882
-0.697077,-0.065035,-0.113896,-0.0432483,-0.275386,-0.166659,0.192886,-0.00228882
-0.746587,-0.218226,-0.278273,-0.031852,-0.290913,-0.25736,0.192886,-0.00228882
-0.700159,-0.308281,-0.377154,0.0166664,-0.260078,-0.361287,0.192886,-0.00228882
-0.55312,-0.177931,-0.336913,0.0858912,-0.206713,-0.448126,0.192886,-0.00228882
-0.379832,0.158038,-0.155044,0.144469,-0.154453,-0.478171,0.192886,-0.00228882
-0.254506,0.377519,0.0561798,0.167451,-0.130631,-0.444992,0.192886,-0.00228882
-0.162945,0.332926,0.201795,0.14689,-0.133214,-0.384478,0.192886,-0.00228882
-0.0581192,0.0930653,0.250984,0.119169,-0.123321,-0.337835,0.192886,-0.00228882
0.129006,-0.0967924,0.305204,0.132568,-0.0756519,-0.315862,0.192886,-0.00228882
0.386986,0.0427318,0.419796,0.176997,-0.0182367,-0.28579,0.192886,-0.00228882
0.623233,0.458002,0.574081,0.214788,0.0424923,-0.175559,0.192886,-0.00228882
0.714738,0.796834,0.740564,0.23001,0.0798424,-0.01566,0.192886,-0.00228882
0.757381,0.747405,0.907315,0.233366,0.084473,0.10174,0.192886,-0.00228882
0.757929,0.379703,1.03094,0.243457,0.0698731,0.164156,0.192886,-0.00228882
0.700098,0.0158089,1.03441,0.223588,0.0707595,0.170682,0.192886,-0.00228882
0.600448,-0.13274,0.997692,0.196135,0.0944092,0.119487,0.192886,-0.00228882
0.610171,0.0284158,0.948656,0.179512,0.122541,0.0253542,0.192886,-0.00228882
0.687583,0.191518,0.926953,0.199347,0.158892,-0.00165766,0.192886,-0.00228882
0.73507,0.245298,0.99538,0.237122,0.187988,0.0190752,0.192886,-0.00228882
0.753057,0.234935,1.06264,0.225644,0.201784,0.0347896,0.192886,-0.00228882
0.739519,0.259163,1.06342,0.199552,0.195808,0.0487124,0.192886,-0.00228882
0.667634,0.33964,1.00803,0.193398,0.185695,0.0705417,0.192886,-0.00228882
0.553156,0.535257,0.945582,0.192682,0.194405,0.0956877,0.192886,-0.00228882
0.553156,0.535257,0.945582,0.192682,0.194405,0.0956877,0.216675,-0.00258636
0.416716,0.761982,0.901798,0.203776,0.21421,0.124146,0.216675,-0.00258636
0.276599,0.81468,0.923164,0.226158,0.226135,0.156578,0.216675,-0.00258636
0.218701,0.643469,1.00998,0.237105,0.234221,0.162788,0.216675,-0.00258636
0.197815,0.378676,1.07211,0.210507,0.23723,0.148274,0.216675,-0.00258636
0.143301,0.205086,1.08125,0.184844,0.212442,0.113058,0.216675,-0.00258636
0.092222,0.259374,1.06459,0.158379,0.202976,0.0685361,0.216675,-0.00258636
0.108114,0.374288,1.07905,0.156453,0.206014,0.0332522,0.216675,-0.00258636
0.125871,0.458107,1.12663,0.146372,0.206992,0.0343294,0.216675,-0.00258636
0.0907142,0.4467,1.159,0.129796,0.180418,0.0397351,0.216675,-0.00258636
0.0399712,0.4175,1.1652,0.118864,0.143918,0.0418664,0.216675,-0.00258636
-0.00579584,0.438722,1.14803,0.103133,0.118018,0.0402673,0.216675,-0.00258636
-0.0462292,0.466664,1.15597,0.10395,0.0989372,0.0484154,0.216675,-0.00258636
-0.0752069,0.432645,1.16005,0.09224,0.0778067,0.0516663,0.216675,-0.00258636
-0.108662,0.370045,1.14746,0.0764073,0.0460907,0.0372294,0.216675,-0.00258636
-0.138123,0.313554,1.14074,0.0830355,0.0227699,0.0218415,0.216675,-0.00258636
-0.0734315,0.282464,1.14464,0.0870344,0.00225538,-0.0179947,0.216675,-0.00258636
0.0572293,0.317882,1.16235,0.0812748,-0.0192528,-0.0368438,0.216675,-0.00258636
0.147895,0.300615,1.17219,0.06711,-0.0421063,-0.0236319,0.216675,-0.00258636
0.151726,0.306164,1.12889,0.0436388,-0.0695136,-0.00153548,0.216675,-0.00258636
0.111327,0.331121,1.04377,0.0380097,-0.0851468,0.0168239,0.216675,-0.00258636
0.057001,0.315343,0.951061,0.039851,-0.0856434,0.0336986,0.216675,-0.00258636
-0.00704206,0.21505,0.888774,0.0650743,-0.0859306,0.0372758,0.216675,-0.00258636
-0.036977,0.167606,0.846651,0.0736959,-0.0709724,0.00509381,0.216675,-0.00258636
-0.028023,0.198904,0.839254,0.0944453,-0.0505207,-0.0328785,0.216675,-0.00258636
-0.0211399,0.286388,0.879627,0.125801,-0.0410867,-0.0490504,0.216675,-0.00258636
-0.0538059,0.420403,0.918382,0.126751,-0.0390206,-0.0524548,0.216675,-0.00258636
-0.185608,0.4704,0.96187,0.143292,-0.053714,-0.0543354,0.216675,-0.00258636
-0.530951,0.193723,0.913058,0.0857065,-0.0352677,-0.0599599,0.216675,-0.00258636
-0.986046,-0.190969,0.738561,0.0426508,-0.0560538,-0.188632,0.216675,-0.00258636
-1.03722,-0.166316,0.606777,0.0476354,-0.00678283,-0.425544,0.216675,-0.00258636
-0.616219,0.285327,0.73771,0.117592,0.120986,-0.572498,0.216675,-0.00258636
0.0332023,1.02155,1.12012,0.170833,0.224808,-0.528449,0.216675,-0.00258636
0.606414,1.30384,1.48633,0.139777,0.264285,-0.343432,0.216675,-0.00258636
0.960767,0.921893,1.66601,0.0904361,0.203021,-0.184281,0.216675,-0.00258636
1.14629,0.42828,1.69395,0.00551406,0.172362,-0.0804369,0.216675,-0.00258636
1.1803,0.220127,1.53013,-0.0643879,0.162097,-0.0195277,0.216675,-0.00258636
1.0311,0.299869,1.32857,-0.075091,0.174551,0.0241006,0.216675,-0.00258636
0.824469,0.46989,1.1819,-0.0430255,0.195406,0.0496351,0.216675,-0.00258636
0.678633,0.521854,1.09665,0.00043688,0.199852,0.0705088,0.216675,-0.00258636
0.58709,0.442616,1.07127,0.0244162,0.188493,0.0985656,0.216675,-0.00258636
0.51072,0.367351,0.992368,0.0120969,0.160052,0.122418,0.216675,-0.00258636
0.333976,0.348825,0.835737,-0.00759633,0.126469,0.15536,0.216675,-0.00258636
0.0537789,0.414544,0.623576,-0.00220439,0.0953248,0.174978,0.216675,-0.00258636
-0.222472,0.513691,0.460501,0.039158,0.103858,0.168729,0.216675,-0.00258636
-0.405415,0.589894,0.458813,0.0975097,0.142613,0.156242,0.216675,-0.00258636
-0.453979,0.588221,0.584004,0.142028,0.158361,0.139153,0.216675,-0.00258636
-0.382333,0.501385,0.742955,0.164221,0.144936,0.136691,0.216675,-0.00258636
-0.289588,0.352969,0.914518,0.182971,0.12644,0.143848,0.216675,-0.00258636
-0.271476,0.18111,1.09654,0.186779,0.110291,0.153604,0.216675,-0.00258636
-0.368079,0.0187226,1.25873,0.179489,0.0856064,0.140674,0.216675,-0.00258636
-0.428121,-0.0360894,1.38141,0.147867,0.0596844,0.0606109,0.216675,-0.00258636
-0.345245,0.0765739,1.42802,0.113699,0.0406601,-0.0187349,0.216675,-0.00258636
-0.211012,0.233142,1.4757,0.133185,0.0221817,-0.0378255,0.216675,-0.00258636
-0.153389,0.192269,1.55695,0.15348,0.00670537,-0.00379062,0.216675,-0.00258636
-0.153389,0.192269,1.55695,0.15348,0.00670537,-0.00379062,0.0581207,-0.000671387
-0.133512,0.0427448,1.62806,0.161823,-0.0216456,-0.00274134,0.0581207,-0.000671387
-0.119839,-0.0253723,1.67506,0.13866,-0.0394555,-0.0511505,0.0581207,-0.000671387
-0.0732327,0.0889893,1.69886,0.107753,-0.0565735,-0.122116,0.0581207,-0.000671387
-0.00425681,0.290184,1.68011,0.0830978,-0.0780326,-0.158845,0.0581207,-0.000671387
0.088956,0.481483,1.64648,0.0878437,-0.0887917,-0.154609,0.0581207,-0.000671387
0.140605,0.577706,1.62152,0.0925007,-0.0914896,-0.119102,0.0581207,-0.000671387
0.130604,0.602168,1.59352,0.0928686,-0.103716,-0.103633,0.0581207,-0.000671387
0.0667287,0.562064,1.57126,0.105271,-0.114012,-0.108494,0.0581207,-0.000671387
-0.0115532,0.573811,1.56419,0.0890651,-0.105073,-0.144302,0.0581207,-0.000671387
-0.0513446,0.571254,1.53456,0.054746,-0.0889271,-0.192369,0.0581207,-0.000671387
-0.0359612,0.520477,1.46987,0.0646321,-0.0896053,-0.239333,0.0581207,-0.000671387
-0.050113,0.561322,1.42601,0.0757335,-0.0554147,-0.278339,0.0581207,-0.000671387
-0.109365,0.742792,1.42839,0.091524,-0.0106162,-0.304087,0.0581207,-0.000671387
-0.24415,0.859655,1.44188,0.0776087,0.0124412,-0.317654,0.0581207,-0.000671387
-0.357822,0.770682,1.44365,0.0327638,0.0520845,-0.354097,0.0581207,-0.000671387
-0.221222,0.577358,1.41734,0.00234204,0.120826,-0.423933,0.0581207,-0.000671387
0.187408,0.637801,1.42684,0.0136572,0.197344,-0.442882,0.0581207,-0.000671387
0.612013,1.04882,1.51594,0.0652132,0.26923,-0.315156,0.0581207,-0.000671387
0.755314,1.27275,1.66874,0.09382,0.291885,-0.0886001,0.0581207,-0.000671387
0.683791,1.02485,1.81077,0.0975047,0.279483,0.00904161,0.0581207,-0.000671387
0.555463,0.511402,1.79804,0.0769642,0.21765,0.124081,0.0581207,-0.000671387
0.417257,0.117664,1.60231,0.00105023,0.161352,0.141953,0.0581207,-0.000671387
0.318279,0.075079,1.30432,-0.0432027,0.106089,0.0725893,0.0581207,-0.000671387
0.23028,0.195992,1.09062,-0.0462476,0.116061,0.00687283,0.0581207,-0.000671387
0.202464,0.290542,1.03752,0.000156604,0.153596,-0.0273324,0.0581207,-0.000671387
0.321276,0.307744,1.10682,0.0749537,0.187641,-0.0628725,0.0581207,-0.000671387
0.553509,0.378543,1.24195,0.104857,0.226683,-0.0859262,0.0581207,-0.000671387
0.799076,0.462229,1.34772,0.100527,0.246262,-0.0595798,0.0581207,-0.000671387
0.935497,0.488188,1.37094,0.0762054,0.234064,0.0351191,0.0581207,-0.000671387
0.883943,0.445568,1.33762,0.069378,0.20674,0.166631,0.0581207,-0.000671387
0.695554,0.34963,1.27276,0.0624241,0.18649,0.270232,0.0581207,-0.000671387
0.426322,0.222588,1.17864,0.0659165,0.149044,0.321186,0.0581207,-0.000671387
0.163799,0.103707,1.08051,0.0780498,0.111561,0.322125,0.0581207,-0.000671387
-0.0190195,0.0363981,0.967767,0.0716001,0.0983617,0.255223,0.0581207,-0.000671387
-0.11779,-0.00563851,0.880944,0.0724992,0.09464,0.160274,0.0581207,-0.000671387
-0.1204,0.0362389,0.825809,0.073637,0.0876009,0.0420097,0.0581207,-0.000671387
-0.0628825,0.125333,0.791619,0.0675143,0.0824704,-0.0504418,0.0581207,-0.000671387
-0.0239283,0.181802,0.803183,0.0622688,0.0797901,-0.0971172,0.0581207,-0.000671387
-0.0122545,0.228477,0.796834,0.0440717,0.068396,-0.115053,0.0581207,-0.000671387
0.0120695,0.294629,0.738123,0.014249,0.0481856,-0.137936,0.0581207,-0.000671387
-0.00923493,0.317859,0.661877,-0.0129174,0.0413226,-0.139184,0.0581207,-0.000671387
-0.100135,0.300643,0.60554,-0.0135652,0.0310497,-0.111469,0.0581207,-0.000671387
-0.24146,0.237546,0.566341,-0.0035346,0.0314792,-0.100812,0.0581207,-0.000671387
-0.370873,0.157117,0.515213,0.0044065,0.0154053,-0.133242,0.0581207,-0.000671387
-0.466315,0.108281,0.475986,-0.00311562,0.0159155,-0.185643,0.0581207,-0.000671387
-0.482304,0.0258007,0.462546,-0.00916487,0.0115317,-0.24929,0.0581207,-0.000671387
-0.381778,-0.0423929,0.467026,-0.0400926,0.0145254,-0.297409,0.0581207,-0.000671387
-0.225189,-0.0952547,0.377516,-0.110935,0.0145788,-0.288585,0.0581207,-0.000671387
-0.213177,-0.0638828,0.172195,-0.15233,-0.0201228,-0.24333,0.0581207,-0.000671387
-0.336165,0.0198068,-0.0335633,-0.155115,-0.0389017,-0.201417,0.0581207,-0.000671387
-0.332848,0.115132,-0.130788,-0.151892,-0.0144867,-0.226399,0.0581207,-0.000671387
-0.111756,0.274056,-0.15274,-0.182328,0.0251025,-0.230569,0.0581207,-0.000671387
0.139357,0.330303,-0.191784,-0.217205,0.0311219,-0.158782,0.0581207,-0.000671387
0.342342,0.282597,-0.276665,-0.242492,0.0187882,-0.0587864,0.0581207,-0.000671387
0.342342,0.282597,-0.276665,-0.242492,0.0187882,-0.0587864,0.214035,-0.00252533
0.402078,0.148109,-0.432523,-0.263386,0.0261623,0.0621074,0.214035,-0.00252533
0.307937,-0.137832,-0.577847,-0.228572,0.025908,0.142995,0.214035,-0.00252533
0.221276,-0.344205,-0.636203,-0.19282,0.0665646,0.152936,0.214035,-0.00252533
0.177768,-0.389995,-0.644343,-0.165249,0.120125,0.133888,0.214035,-0.00252533
0.154348,-0.253561,-0.641693,-0.129986,0.120009,0.128298,0.214035,-0.00252533
0.123631,-0.0797988,-0.657915,-0.0943773,0.118076,0.158761,0.214035,-0.00252533
0.109962,-0.00137379,-0.647349,-0.0546135,0.128282,0.211318,0.214035,-0.00252533
0.143561,-0.0531801,-0.62578,-0.00769766,0.128282,0.255535,0.214035,-0.00252533
0.174231,-0.174122,-0.594681,0.0182791,0.132111,0.297941,0.214035,-0.00252533
0.145601,-0.28469,-0.570371,0.0464206,0.125761,0.331565,0.214035,-0.00252533
0.027667,-0.328538,-0.526978,0.0612914,0.114205,0.349289,0.214035,-0.00252533
-0.0639345,-0.395338,-0.452083,0.0748997,0.0994721,0.321827,0.214035,-0.00252533
-0.0496091,-0.410811,-0.404194,0.0758524,0.0749183,0.266446,0.214035,-0.00252533
-0.00995254,-0.403567,-0.367258,0.0889383,0.0435671,0.21774,0.214035,-0.00252533
-0.0622952,-0.33499,-0.369328,0.0929545,0.00903112,0.187444,0.214035,-0.00252533
-0.203849,-0.32364,-0.332275,0.134996,-0.021983,0.135584,0.214035,-0.00252533
-0.329234,-0.323714,-0.250476,0.160319,-0.0359375,0.0509841,0.214035,-0.00252533
-0.430332,-0.301624,-0.10327,0.155216,-0.0443814,-0.0233894,0.214035,-0.00252533
-0.586673,-0.380956,-0.00753138,0.14092,-0.0942623,-0.110341,0.214035,-0.00252533
-0.73921,-0.35162,0.00613223,0.10634,-0.158787,-0.245531,0.214035,-0.00252533
-0.831912,-0.15492,-0.0852106,0.0531555,-0.186518,-0.376415,0.214035,-0.00252533
-0.899442,0.12382,-0.210148,0.0470981,-0.199207,-0.471965,0.214035,-0.00252533
-0.877677,0.417047,-0.204871,0.111457,-0.191022,-0.547074,0.214035,-0.00252533
-0.60109,0.823468,-0.0473329,0.157029,-0.148938,-0.589606,0.214035,-0.00252533
-0.137818,1.2083,0.15379,0.164467,-0.116667,-0.502804,0.214035,-0.00252533
0.25596,1.14831,0.297703,0.166409,-0.152488,-0.314864,0.214035,-0.00252533
0.416892,0.784966,0.31987,0.123028,-0.158229,-0.137713,0.214035,-0.00252533
0.375976,0.399602,0.319512,0.100493,-0.133153,-0.0442951,0.214035,-0.00252533
0.42349,0.265352,0.361657,0.0963621,-0.0760038,-0.0489215,0.214035,-0.00252533
0.612659,0.375901,0.431569,0.0972452,-0.0136668,-0.0485334,0.214035,-0.00252533
0.709536,0.49566,0.50849,0.110908,0.00255367,0.011703,0.214035,-0.00252533
0.605973,0.460643,0.553527,0.0983308,-0.00178447,0.0825142,0.214035,-0.00252533
0.482183,0.320882,0.529627,0.0555748,-0.00153339,0.0911683,0.214035,-0.00252533
0.483837,0.216887,0.407017,0.0146173,0.0117396,0.0341856,0.214035,-0.00252533
0.549926,0.181816,0.348469,0.0163807,0.0615358,0.0092845,0.214035,-0.00252533
0.674638,0.249673,0.339771,0.0245069,0.103653,0.0124019,0.214035,-0.00252533
0.802157,0.402344,0.344564,0.0261957,0.137954,0.0515311,0.214035,-0.00252533
0.809264,0.584331,0.338044,0.0217295,0.152209,0.139284,0.214035,-0.00252533
0.708119,0.639922,0.334643,0.010014,0.162642,0.241705,0.214035,-0.00252533
0.562323,0.611809,0.3134,0.00283021,0.168658,0.310451,0.214035,-0.00252533
0.402642,0.454932,0.289818,0.00978731,0.168475,0.345458,0.214035,-0.00252533
0.228195,0.294781,0.263583,0.0134346,0.161848,0.341436,0.214035,-0.00252533
0.0709888,0.0962671,0.261519,0.0392279,0.165038,0.28258,0.214035,-0.00252533
0.0234994,0.0481932,0.365407,0.06539,0.17909,0.175828,0.214035,-0.00252533
0.0707373,0.114343,0.487433,0.0689918,0.154136,0.0886492,0.214035,-0.00252533
0.0886387,0.0126143,0.598295,0.0782992,0.103789,0.0489395,0.214035,-0.00252533
0.0451282,-0.224887,0.619597,0.0100506,0.0510601,-0.0101749,0.214035,-0.00252533
-0.00218279,-0.414935,0.568131,-0.0186819,-0.00449359,-0.115925,0.214035,-0.00252533
-0.120608,-0.402067,0.456,-0.0517421,-0.0167405,-0.192867,0.214035,-0.00252533
-0.368894,-0.212113,0.318353,-0.0908984,-0.0297876,-0.234625,0.214035,-0.00252533
-0.576332,-0.0922878,0.183251,-0.0950896,-0.0339579,-0.267977,0.214035,-0.00252533
-0.582479,-0.162022,0.103654,-0.0734098,-0.0147736,-0.311732,0.214035,-0.00252533
-0.384396,-0.284107,0.125996,-0.0408352,0.00690043,-0.342311,0.214035,-0.00252533
-0.067623,-0.22962,0.190993,-0.0375807,0.0150689,-0.343977,0.214035,-0.00252533
-0.067623,-0.22962,0.190993,-0.0375807,0.0150689,-0.343977,0.177032,-0.00209808
0.117335,-0.0730008,0.202266,-0.0726158,0.0178493,-0.240343,0.177032,-0.00209808
0.0298592,-0.0634773,0.141395,-0.104227,-0.0108786,-0.0999086,0.177032,-0.00209808
-0.181272,-0.186201,0.0082429,-0.13707,-0.0265315,-0.0257545,0.177032,-0.00209808
-0.345678,-0.306897,-0.172732,-0.164224,-0.0254901,-0.0425291,0.177032,-0.00209808
-0.345909,-0.294365,-0.287872,-0.156156,0.0169763,-0.103733,0.177032,-0.00209808
-0.206071,-0.270297,-0.277125,-0.129881,0.0659341,-0.140899,0.177032,-0.00209808
0.0416585,-0.200636,-0.187124,-0.124454,0.0960005,-0.140656,0.177032,-0.00209808
0.268322,-0.121496,-0.145168,-0.150581,0.109346,-0.0711338,0.177032,-0.00209808
0.326814,-0.145544,-0.202674,-0.176659,0.0941664,0.0449998,0.177032,-0.00209808
0.265537,-0.161901,-0.317293,-0.180723,0.0886132,0.136103,0.177032,-0.00209808
0.203429,-0.0871519,-0.427199,-0.154329,0.114803,0.205477,0.177032,-0.00209808
0.17917,-0.0237206,-0.454756,-0.107831,0.144184,0.273801,0.177032,-0.00209808
0.150308,-0.0281081,-0.427265,-0.0691828,0.150916,0.344439,0.177032,-0.00209808
0.100402,-0.161035,-0.411221,-0.0573867,0.131709,0.396358,0.177032,-0.00209808
0.00800924,-0.296835,-0.475425,-0.0738281,0.0857915,0.407253,0.177032,-0.00209808
-0.0671379,-0.44154,-0.588998,-0.0708409,0.056871,0.372584,0.177032,-0.00209808
-0.0817265,-0.524759,-0.68139,-0.0352225,0.0532473,0.316431,0.177032,-0.00209808
-0.101602,-0.475915,-0.679529,0.0205859,0.0620562,0.275095,0.177032,-0.00209808
-0.238204,-0.339834,-0.664177,0.041086,0.0387486,0.223208,0.177032,-0.00209808
-0.426537,-0.358002,-0.622038,0.0452813,0.00341105,0.165169,0.177032,-0.00209808
-0.553276,-0.513311,-0.583501,0.062239,-0.04758,0.0617927,0.177032,-0.00209808
-0.482596,-0.622778,-0.533235,0.0848918,-0.0757637,-0.0792884,0.177032,-0.00209808
-0.310849,-0.520046,-0.438018,0.096408,-0.0796719,-0.182895,0.177032,-0.00209808
-0.181855,-0.263404,-0.31398,0.095404,-0.0834344,-0.228797,0.177032,-0.00209808
-0.240994,-0.141964,-0.216411,0.110569,-0.125108,-0.201205,0.177032,-0.00209808
-0.417282,-0.171002,-0.162229,0.0918587,-0.157867,-0.212169,0.177032,-0.00209808
-0.496196,-0.159103,-0.19057,0.0479901,-0.176256,-0.288897,0.177032,-0.00209808
-0.425422,-0.05818,-0.241779,0.0480755,-0.174694,-0.363612,0.177032,-0.00209808
-0.276911,0.140874,-0.206609,0.0902894,-0.142922,-0.394303,0.177032,-0.00209808
-0.12152,0.426657,-0.0708276,0.124096,-0.106999,-0.367797,0.177032,-0.00209808
0.0225256,0.604991,0.0912251,0.144799,-0.0911854,-0.272391,0.177032,-0.00209808
0.103335,0.509006,0.179774,0.135156,-0.114588,-0.164187,0.177032,-0.00209808
0.10099,0.30187,0.182786,0.112565,-0.125466,-0.078643,0.177032,-0.00209808
-0.0281787,0.152757,0.140054,0.099406,-0.113798,-0.0388566,0.177032,-0.00209808
-0.136299,0.121109,0.152244,0.124292,-0.0626337,-0.0574598,0.177032,-0.00209808
-0.0345209,0.301838,0.227468,0.141955,-0.00161362,-0.0970724,0.177032,-0.00209808
0.198364,0.591472,0.352447,0.161447,0.0448049,-0.0677343,0.177032,-0.00209808
0.411463,0.716176,0.534519,0.187851,0.0643121,0.0349727,0.177032,-0.00209808
0.553862,0.529537,0.700567,0.189315,0.0571248,0.140379,0.177032,-0.00209808
0.632548,0.257135,0.757364,0.155401,0.0465673,0.195911,0.177032,-0.00209808
0.594192,0.0656625,0.750953,0.14516,0.0352015,0.222687,0.177032,-0.00209808
0.445522,0.105784,0.691672,0.115719,0.0667109,0.208342,0.177032,-0.00209808
0.307522,0.283243,0.691444,0.11779,0.100029,0.177647,0.177032,-0.00209808
0.293021,0.362691,0.71507,0.122035,0.120354,0.157109,0.177032,-0.00209808
0.389538,0.277149,0.756533,0.127151,0.125206,0.155923,0.177032,-0.00209808
0.497959,0.181577,0.775452,0.109169,0.126182,0.158476,0.177032,-0.00209808
0.488519,0.179699,0.728418,0.0810747,0.114584,0.168213,0.177032,-0.00209808
0.36364,0.282999,0.657102,0.0795976,0.108303,0.166654,0.177032,-0.00209808
0.231677,0.367849,0.632897,0.0793401,0.124363,0.16039,0.177032,-0.00209808
0.165723,0.377698,0.662123,0.0734229,0.119626,0.134866,0.177032,-0.00209808
0.147963,0.299773,0.64762,0.0383676,0.104706,0.11055,0.177032,-0.00209808
0.15351,0.23213,0.60928,0.0144001,0.0802429,0.0831992,0.177032,-0.00209808
0.126845,0.236737,0.561647,-0.00635162,0.0697162,0.0571994,0.177032,-0.00209808
0.07022,0.319762,0.519447,-0.0103244,0.0586648,0.04163,0.177032,-0.00209808
0.07022,0.319762,0.519447,-0.0103244,0.0586648,0.04163,0.195526,-0.00233459
-0.0370711,0.27769,0.487767,0.0016596,0.0343078,0.0354033,0.195526,-0.00233459
-0.135816,0.143096,0.463756,0.00183068,0.0147025,0.0112712,0.195526,-0.00233459
-0.235052,-0.0365369,0.385543,-0.0191682,-0.00532287,-0.0402657,0.195526,-0.00233459
-0.314785,-0.0904271,0.320789,-0.0167242,-0.0275506,-0.116596,0.195526,-0.00233459
-0.41646,-0.0505929,0.309102,-0.0126909,-0.0219594,-0.158341,0.195526,-0.00233459
-0.537562,-0.110767,0.338637,2.65986e-05,-0.0340633,-0.18099,0.195526,-0.00233459
-0.575395,-0.306959,0.373098,-0.00941366,-0.053347,-0.235248,0.195526,-0.00233459
-0.49692,-0.458067,0.353357,-0.0553118,-0.0646596,-0.318212,0.195526,-0.00233459
-0.428513,-0.410197,0.276251,-0.0802365,-0.0858727,-0.367141,0.195526,-0.00233459
-0.514247,-0.411496,0.187764,-0.109353,-0.0808212,-0.354797,0.195526,-0.00233459
-0.613684,-0.439687,0.0694685,-0.150188,-0.0886694,-0.385232,0.195526,-0.00233459
-0.528762,-0.310411,-0.0883064,-0.175607,-0.0857574,-0.448275,0.195526,-0.00233459
-0.261808,-0.0741668,-0.185245,-0.177462,-0.0497398,-0.45837,0.195526,-0.00233459
0.140355,0.161785,-0.178141,-0.165249,-0.00535274,-0.376477,0.195526,-0.00233459
0.472429,0.251561,-0.167162,-0.176704,0.0140929,-0.205289,0.195526,-0.00233459
0.568307,0.219374,-0.231253,-0.221833,0.0184956,-0.0269446,0.195526,-0.00233459
0.438683,0.104187,-0.370979,-0.256755,0.0204469,0.105228,0.195526,-0.00233459
0.223278,-0.0606295,-0.533118,-0.255441,0.0460428,0.176297,0.195526,-0.00233459
0.0674215,-0.176436,-0.635707,-0.240543,0.0908754,0.16753,0.195526,-0.00233459
0.113915,-0.154528,-0.643222,-0.222441,0.146251,0.126436,0.195526,-0.00233459
0.268221,-0.0142143,-0.637749,-0.20444,0.168428,0.139903,0.195526,-0.00233459
0.387513,0.0495731,-0.628616,-0.179707,0.161602,0.213364,0.195526,-0.00233459
0.45154,0.0404603,-0.643824,-0.17225,0.157699,0.30245,0.195526,-0.00233459
0.45424,-0.068262,-0.70804,-0.166839,0.160525,0.384087,0.195526,-0.00233459
0.358417,-0.216956,-0.775469,-0.136236,0.175548,0.442607,0.195526,-0.00233459
0.159253,-0.343922,-0.781999,-0.0945362,0.184395,0.456961,0.195526,-0.00233459
-0.0141636,-0.397469,-0.713654,-0.0543985,0.18528,0.413422,0.195526,-0.00233459
-0.0539058,-0.466531,-0.658608,-0.0565751,0.177044,0.355958,0.195526,-0.00233459
-0.0644167,-0.566512,-0.635705,-0.0551326,0.142186,0.304767,0.195526,-0.00233459
-0.105425,-0.641893,-0.607744,-0.0435142,0.119956,0.257842,0.195526,-0.00233459
-0.205571,-0.698496,-0.602351,-0.0417586,0.10287,0.232861,0.195526,-0.00233459
-0.402508,-0.804913,-0.58971,-0.018066,0.0727978,0.195566,0.195526,-0.00233459
-0.59106,-0.783151,-0.569827,-0.0156672,0.036135,0.0974297,0.195526,-0.00233459
-0.639017,-0.58375,-0.57531,-0.00986908,0.00554419,-0.0129802,0.195526,-0.00233459
-0.584533,-0.472054,-0.528604,0.0458711,-0.0330502,-0.0854927,0.195526,-0.00233459
-0.541739,-0.372198,-0.455619,0.0516504,-0.0745212,-0.130121,0.195526,-0.00233459
-0.622181,-0.232223,-0.462508,0.0504845,-0.140348,-0.159102,0.195526,-0.00233459
-0.763622,-0.212566,-0.455887,0.0792664,-0.193025,-0.215354,0.195526,-0.00233459
-0.740169,-0.222953,-0.434631,0.0671263,-0.202543,-0.337724,0.195526,-0.00233459
-0.53883,-0.340507,-0.411656,0.0662136,-0.209279,-0.463806,0.195526,-0.00233459
-0.256052,-0.267,-0.35492,0.0854791,-0.208043,-0.57111,0.195526,-0.00233459
0.0410673,0.165366,-0.23469,0.0822614,-0.181244,-0.610365,0.195526,-0.00233459
0.22778,0.572533,-0.163536,0.0486288,-0.169789,-0.502448,0.195526,-0.00233459
0.198673,0.534883,-0.165322,0.0518232,-0.186039,-0.329391,0.195526,-0.00233459
0.106539,0.296234,-0.185569,0.0531127,-0.17721,-0.240916,0.195526,-0.00233459
0.117246,0.187756,-0.147685,0.0621531,-0.123501,-0.243836,0.195526,-0.00233459
0.288388,0.297483,-0.0783923,0.0617624,-0.0517093,-0.235506,0.195526,-0.00233459
0.479292,0.492138,0.0240626,0.0726587,0.0068475,-0.140795,0.195526,-0.00233459
0.580418,0.66548,0.145919,0.0907819,0.044047,0.00579864,0.195526,-0.00233459
0.609328,0.767228,0.27039,0.0959396,0.0587509,0.15409,0.195526,-0.00233459
0.572185,0.673894,0.331257,0.0809747,0.0572926,0.285194,0.195526,-0.00233459
0.452654,0.332508,0.346284,0.0758052,0.0491236,0.367714,0.195526,-0.00233459
0.307198,-0.0278587,0.334363,0.0740682,0.0571746,0.369777,0.195526,-0.00233459
0.307198,-0.0278587,0.334363,0.0740682,0.0571746,0.369777,0.200821,-0.00237274
0.209907,-0.191692,0.35477,0.094107,0.0868198,0.302057,0.200821,-0.00237274
0.170611,-0.125521,0.414522,0.0849264,0.137386,0.223776,0.200821,-0.00237274
0.186427,0.0635674,0.465966,0.0763272,0.153448,0.17774,0.200821,-0.00237274
0.231666,0.224165,0.462811,0.059271,0.141496,0.171323,0.200821,-0.00237274
0.289173,0.233412,0.435748,0.0607178,0.143254,0.204222,0.200821,-0.00237274
0.297441,0.150732,0.423246,0.0643691,0.147843,0.223137,0.200821,-0.00237274
0.25735,0.108274,0.420029,0.0802281,0.151177,0.247073,0.200821,-0.00237274
0.138981,0.106051,0.426244,0.0740841,0.158066,0.250205,0.200821,-0.00237274
0.00740281,0.0782264,0.453267,0.076187,0.146956,0.2414,0.200821,-0.00237274
-0.0834582,0.0775748,0.417721,0.0561846,0.119538,0.193077,0.200821,-0.00237274
-0.165145,0.0604453,0.382505,0.0410621,0.0824932,0.147769,0.200821,-0.00237274
-0.21907,0.0171608,0.357426,0.0263959,0.0608125,0.108281,0.200821,-0.00237274
-0.258964,-0.00602244,0.317606,0.0054211,0.032663,0.0571042,0.200821,-0.00237274
-0.292099,0.0675743,0.276886,-0.000620738,-0.00316042,0.0104952,0.200821,-0.00237274
-0.271809,0.207416,0.212468,-0.0216235,-0.0331416,-0.0419528,0.200821,-0.00237274
-0.258255,0.241342,0.191755,-0.0175023,-0.0539415,-0.0659449,0.200821,-0.00237274
-0.263042,0.108746,0.236135,0.00887474,-0.0647926,-0.0552148,0.200821,-0.00237274
-0.215135,-0.0201861,0.233506,-0.00982353,-0.0804717,-0.0879165,0.200821,-0.00237274
-0.20715,-0.0384795,0.187284,-0.0417631,-0.102303,-0.153521,0.200821,-0.00237274
-0.295853,-0.00148271,0.181191,-0.046552,-0.108794,-0.187331,0.200821,-0.00237274
-0.36407,0.0162285,0.183931,-0.0461338,-0.11498,-0.218022,0.200821,-0.00237274
-0.331838,-0.0563533,0.163603,-0.0487611,-0.128162,-0.266249,0.200821,-0.00237274
-0.273567,-0.304937,0.130683,-0.0545705,-0.129066,-0.288457,0.200821,-0.00237274
-0.235104,-0.475632,0.116145,-0.0529082,-0.13196,-0.312745,0.200821,-0.00237274
-0.229405,-0.497211,0.0867496,-0.056881,-0.109527,-0.346494,0.200821,-0.00237274
-0.254888,-0.459499,0.0597311,-0.0855694,-0.0800207,-0.360189,0.200821,-0.00237274
-0.233033,-0.521268,0.025338,-0.114651,-0.0596161,-0.361842,0.200821,-0.00237274
-0.0635116,-0.539038,-0.0427913,-0.13357,-0.0521134,-0.366863,0.200821,-0.00237274
0.168231,-0.412325,-0.135352,-0.146785,-0.0306924,-0.331921,0.200821,-0.00237274
0.360327,-0.164925,-0.218666,-0.150419,0.000693202,-0.232724,0.200821,-0.00237274
0.479033,0.0189257,-0.291484,-0.140212,0.0307905,-0.0966375,0.200821,-0.00237274
0.51084,0.0751274,-0.383171,-0.133522,0.053401,0.0158455,0.200821,-0.00237274
0.416344,-0.0201084,-0.440908,-0.107859,0.0851799,0.104167,0.200821,-0.00237274
0.314766,-0.221445,-0.442942,-0.0845979,0.117345,0.12486,0.200821,-0.00237274
0.299132,-0.349549,-0.464308,-0.0999097,0.154378,0.0873785,0.200821,-0.00237274
0.337721,-0.294002,-0.519107,-0.109401,0.18009,0.0575446,0.200821,-0.00237274
0.350557,-0.119421,-0.579025,-0.0984712,0.186784,0.0809029,0.200821,-0.00237274
0.343749,0.104658,-0.597852,-0.0657497,0.194691,0.141826,0.200821,-0.00237274
0.345311,0.214862,-0.592152,-0.0357646,0.20108,0.223895,0.200821,-0.00237274
0.354115,0.159396,-0.583187,-0.0107545,0.195369,0.297837,0.200821,-0.00237274
0.353359,0.0056979,-0.591804,-0.00492214,0.183159,0.352179,0.200821,-0.00237274
0.309834,-0.177792,-0.586569,0.017138,0.157062,0.390094,0.200821,-0.00237274
0.155215,-0.319866,-0.572297,0.028123,0.14167,0.400704,0.200821,-0.00237274
-0.0258047,-0.336134,-0.567832,0.0266879,0.115584,0.363363,0.200821,-0.00237274
-0.16544,-0.249712,-0.586444,0.0263786,0.0876086,0.309362,0.200821,-0.00237274
-0.263269,-0.274859,-0.568024,0.0519994,0.0637112,0.263819,0.200821,-0.00237274
-0.323278,-0.26504,-0.51411,0.0513599,0.0405474,0.213977,0.200821,-0.00237274
-0.368436,-0.330576,-0.472927,0.0523441,0.00248879,0.163922,0.200821,-0.00237274
-0.377223,-0.380403,-0.408357,0.0698485,-0.025,0.0998635,0.200821,-0.00237274
-0.415707,-0.409387,-0.330114,0.077577,-0.0296315,0.0446464,0.200821,-0.00237274
-0.436345,-0.339039,-0.21826,0.0834053,-0.0625159,-0.0302279,0.200821,-0.00237274
-0.360307,-0.217389,-0.16579,0.0585842,-0.092731,-0.104958,0.200821,-0.00237274
-0.239732,-0.10292,-0.152137,0.053347,-0.12496,-0.147354,0.200821,-0.00237274
-0.166163,-0.042034,-0.103868,0.0716718,-0.142729,-0.160398,0.200821,-0.00237274
-0.166163,-0.042034,-0.103868,0.0716718,-0.142729,-0.160398,0.203461,-0.00241089
-0.0839373,0.0138949,-0.0902705,0.0573952,-0.16355,-0.183622,0.203461,-0.00241089
0.0153716,0.0863141,-0.105864,0.0551373,-0.177599,-0.213741,0.203461,-0.00241089
0.0841744,0.197594,-0.128055,0.0721181,-0.176427,-0.235858,0.203461,-0.00241089
0.0782314,0.321215,-0.108821,0.110541,-0.155848,-0.228065,0.203461,-0.00241089
-0.0305667,0.420116,-0.054655,0.14582,-0.137967,-0.211186,0.203461,-0.00241089
-0.175915,0.42496,-0.0181899,0.155325,-0.141426,-0.213495,0.203461,-0.00241089
-0.327733,0.244542,-0.0439521,0.143766,-0.150084,-0.241563,0.203461,-0.00241089
-0.46747,0.130139,-0.0655174,0.146443,-0.12064,-0.311255,0.203461,-0.00241089
-0.429649,0.242899,0.0330065,0.174131,-0.0527518,-0.375735,0.203461,-0.00241089
-0.158812,0.507705,0.24537,0.217772,0.0129952,-0.35414,0.203461,-0.00241089
0.123126,0.808962,0.514465,0.235444,0.0474988,-0.223898,0.203461,-0.00241089
0.292003,1.09233,0.696249,0.185752,0.0319705,-0.0445213,0.203461,-0.00241089
0.33404,1.04747,0.737916,0.14287,0.00726426,0.121349,0.203461,-0.00241089
0.285389,0.753638,0.753067,0.169845,-0.0210558,0.203379,0.203461,-0.00241089
0.179851,0.477104,0.809232,0.215321,-0.0164096,0.210716,0.203461,-0.00241089
0.0984571,0.344534,0.846621,0.223213,0.0182433,0.165663,0.203461,-0.00241089
0.0745052,0.392448,0.945561,0.2261,0.0564646,0.108654,0.203461,-0.00241089
0.143472,0.50272,1.04841,0.195854,0.0878564,0.080551,0.203461,-0.00241089
0.283101,0.557733,1.10915,0.168557,0.0960273,0.108297,0.203461,-0.00241089
0.401431,0.547141,1.12395,0.131428,0.112942,0.172039,0.203461,-0.00241089
0.41045,0.552196,1.07615,0.0922022,0.120983,0.246087,0.203461,-0.00241089
0.302944,0.4875,0.97327,0.0754576,0.127348,0.287853,0.203461,-0.00241089
0.228817,0.468552,0.944191,0.106089,0.142209,0.252542,0.203461,-0.00241089
0.239924,0.440685,0.97317,0.128101,0.176936,0.208445,0.203461,-0.00241089
0.262592,0.373788,1.09543,0.135533,0.191646,0.178437,0.203461,-0.00241089
0.232513,0.305093,1.1431,0.0906553,0.17284,0.151366,0.203461,-0.00241089
0.124762,0.292836,1.07957,0.0488612,0.111344,0.111246,0.203461,-0.00241089
0.105363,0.267033,0.999459,0.0439292,0.0780089,0.0424864,0.203461,-0.00241089
0.115151,0.291179,0.986707,0.0659924,0.0628526,-0.0114304,0.203461,-0.00241089
0.0386456,0.28234,0.959319,0.0661902,0.0199757,-0.0309612,0.203461,-0.00241089
-0.0980265,0.298345,0.886518,0.0502011,-0.028255,-0.0804472,0.203461,-0.00241089
-0.177915,0.199107,0.792733,0.0509339,-0.0611507,-0.151001,0.203461,-0.00241089
-0.225769,0.069054,0.688408,0.0505871,-0.0767644,-0.209424,0.203461,-0.00241089
-0.303104,0.00474263,0.651873,0.0614582,-0.0686468,-0.255501,0.203461,-0.00241089
-0.379051,0.0256312,0.647691,0.0637691,-0.0598864,-0.304434,0.203461,-0.00241089
-0.401485,0.0883779,0.634161,0.0663442,-0.057039,-0.349017,0.203461,-0.00241089
-0.337376,0.115706,0.650591,0.0800207,-0.052218,-0.386892,0.203461,-0.00241089
-0.192155,0.167269,0.709662,0.108861,-0.0315143,-0.390172,0.203461,-0.00241089
-0.132756,0.188899,0.758948,0.118028,-0.0180614,-0.318176,0.203461,-0.00241089
-0.243296,0.127799,0.747681,0.0883092,-0.0072102,-0.233941,0.203461,-0.00241089
-0.399161,0.100279,0.684122,0.055782,-0.00282878,-0.218716,0.203461,-0.00241089
-0.396866,0.172772,0.638738,0.0484651,0.0174243,-0.280083,0.203461,-0.00241089
-0.145335,0.331794,0.700653,0.0549392,0.0630832,-0.331402,0.203461,-0.00241089
0.191207,0.578759,0.787418,0.0448256,0.0895198,-0.275453,0.203461,-0.00241089
0.36648,0.629704,0.8531,0.0130402,0.0966303,-0.111536,0.203461,-0.00241089
0.360632,0.524156,0.86192,-0.040196,0.0987168,0.0217171,0.203461,-0.00241089
0.323052,0.402908,0.803142,-0.0834657,0.10501,0.0773719,0.203461,-0.00241089
0.321471,0.363,0.745688,-0.097992,0.133817,0.0928204,0.203461,-0.00241089
0.332034,0.416516,0.736856,-0.111544,0.168585,0.120554,0.203461,-0.00241089
0.341555,0.510709,0.71479,-0.141125,0.180145,0.176613,0.203461,-0.00241089
0.413689,0.472343,0.664833,-0.14137,0.172109,0.231042,0.203461,-0.00241089
0.519074,0.350161,0.626117,-0.13632,0.181017,0.272033,0.203461,-0.00241089
0.562308,0.215286,0.591863,-0.119078,0.169105,0.307961,0.203461,-0.00241089
0.523262,0.188148,0.491218,-0.114623,0.133045,0.314415,0.203461,-0.00241089
0.523262,0.188148,0.491218,-0.114623,0.133045,0.314415,0.216675,-0.00256348
0.424891,0.212409,0.347941,-0.0916934,0.115361,0.308792,0.216675,-0.00256348
0.273301,0.273067,0.286111,-0.0403033,0.118,0.30227,0.216675,-0.00256348
0.101869,0.263208,0.348688,0.00890957,0.119151,0.281566,0.216675,-0.00256348
0.0135014,0.20842,0.409296,-0.0126159,0.0896328,0.212169,0.216675,-0.00256348
0.0406842,0.263772,0.429878,-0.0366407,0.0437335,0.113483,0.216675,-0.00256348
0.267415,0.225171,0.366131,-0.050043,0.0552399,0.118203,0.216675,-0.00256348
0.0766129,-0.15938,0.302858,0.0264567,-0.0412295,0.168767,0.216675,-0.00256348
-0.236952,0.0454486,0.362413,-0.00235279,-0.0289378,0.101108,0.216675,-0.00256348
-0.384483,0.425522,0.321161,-0.0566695,-0.00244731,0.0227859,0.216675,-0.00256348
-0.292638,0.234546,0.389921,-0.000688819,-0.00112233,0.0321325,0.216675,-0.00256348
-0.177535,-0.306134,0.492289,0.0118218,-0.00972897,0.0419983,0.216675,-0.00256348
