rotationRate_x,rotationRate_y,rotationRate_z,acceleration_x,acceleration_y,acceleration_z,relativeAltitude
-0.54866,-0.454667,0.534737,-0.0950518,0.122602,0.0720375,0
-0.444217,-0.633839,0.663434,-0.0909902,0.137345,0.0616992,0
-0.236934,-0.559355,0.616629,-0.15002,0.0970292,0.0207859,0
-0.123727,-0.232457,0.457315,-0.160555,0.0565317,0.11812,0
0.0874809,0.177445,0.193181,-0.168089,0.0369343,0.167833,0
0.214214,0.0909366,-0.041386,-0.112612,0.04778,0.236607,0
0.227805,-0.0529701,-0.0778754,-0.0315486,0.0547537,0.302376,0
0.133627,-0.168448,-0.0903318,-0.0200296,0.0674351,0.320181,0
0.0570236,-0.0534689,-0.0899242,-0.0175988,0.0441322,0.290486,0
-0.0412785,-0.0978592,-0.0832845,-0.0177413,0.0298238,0.278803,0
-0.0929824,-0.229755,-0.0708882,7.42367e-05,0.0136086,0.229465,0
-0.0874663,-0.277805,-0.0360623,0.00181512,0.0281113,0.163906,0
-0.17836,-0.300766,0.00174184,0.00576586,0.0390076,0.141573,0
-0.290574,-0.283291,0.10235,0.039194,0.0547639,0.0892226,0
-0.304326,-0.241977,0.261823,0.0623599,0.0620527,0.0130934,0
-0.296086,-0.326112,0.397895,0.0725285,0.0429103,-0.0317869,0
-0.331102,-0.484251,0.506731,0.0888856,0.0253432,-0.0815805,0
-0.309179,-0.420713,0.59673,0.0598619,0.00333762,-0.218148,0
-0.272737,-0.274637,0.605597,0.0353573,-0.0166772,-0.312957,0
-0.245196,-0.095094,0.54055,0.0692708,-0.0652708,-0.414422,0
-0.11499,0.347576,0.467525,0.0572562,-0.081053,-0.530276,0
-0.144579,0.500554,0.387954,0.0785054,-0.0802967,-0.521914,0
-0.452358,0.354266,0.311395,0.132936,-0.133937,-0.472842,0
-0.683562,0.271133,0.254342,0.169667,-0.1666,-0.514452,0
-0.638151,0.373311,0.253408,0.184675,-0.14711,-0.572164,0
-0.391253,0.515166,0.353502,0.220403,-0.11592,-0.548065,0
-0.0205246,0.782717,0.552149,0.256927,-0.0824108,-0.442823,0
0.356765,1.16766,0.790823,0.27799,-0.0577888,-0.273176,0
0.530295,1.41177,0.994653,0.295887,-0.0746417,-0.0652241,0
0.462106,1.17358,1.13461,0.315642,-0.113515,0.123469,0
0.36431,0.593998,1.19857,0.315446,-0.14371,0.182097,0
0.365097,0.0531669,1.12767,0.260584,-0.111926,0.14586,0
0.317724,-0.180161,0.971774,0.21132,-0.076189,0.0999569,0
0.13611,-0.0227102,0.822984,0.184498,-0.0449683,0.0611528,0
0.0126857,0.428085,0.771131,0.16941,-0.00507617,0.018217,0
0.0787234,0.831677,0.764148,0.125389,0.0340504,0.00126451,0
0.297145,1.03254,0.756646,0.0692207,0.0599777,0.0519355,0
0.520148,0.992546,0.739425,0.0192112,0.082173,0.160714,0
0.663814,0.77077,0.699331,-0.0205559,0.108154,0.279194,0
0.729103,0.51547,0.637657,-0.0461402,0.139615,0.366688,0
0.717616,0.257236,0.597708,-0.0538312,0.173686,0.431028,0
0.690142,0.0965389,0.585696,-0.0512795,0.202105,0.448265,0
0.594246,0.080417,0.541368,-0.0476176,0.22283,0.44125,0
0.398986,0.147724,0.528042,-0.0417981,0.233406,0.386567,0
0.186802,0.125986,0.587689,-0.0268964,0.244324,0.307736,0
-0.0456426,-0.161781,0.640632,-0.0325285,0.230122,0.186037,0
-0.198432,-0.493018,0.63047,-0.0716661,0.212791,-0.0273591,0
-0.398232,-0.718551,0.631156,-0.11311,0.233106,-0.221493,0
-0.796012,-0.87242,0.652743,-0.179746,0.239657,-0.377531,0
-1.04855,-0.893649,0.562012,-0.230064,0.18729,-0.586489,0
-0.952562,-0.786922,0.472368,-0.232597,0.128216,-0.784614,0
-0.952562,-0.786922,0.472368,-0.232597,0.128216,-0.784614,0
-0.60389,-0.413531,0.517612,-0.225114,0.127838,-0.84588,0
-0.238923,-0.0302654,0.548496,-0.246046,0.125066,-0.691401,0
-0.0941316,0.0688793,0.479934,-0.249361,0.0771989,-0.415645,0
-0.183957,-0.0295905,0.259364,-0.260241,0.01206,-0.189022,0
-0.424325,-0.162435,-0.164844,-0.277297,-0.0443497,-0.069481,0
-0.666807,-0.24118,-0.647882,-0.273494,-0.0667461,-0.0245741,0
-0.772551,-0.218072,-1.06641,-0.25028,-0.0308949,-0.0194721,0
-0.69489,-0.167966,-1.3427,-0.210764,0.0628027,-0.0154511,0
-0.493328,-0.230235,-1.44742,-0.163679,0.157332,0.0218471,0
-0.235409,-0.560205,-1.436,-0.105658,0.210154,0.072049,0
0.0154435,-0.980567,-1.38388,-0.0517029,0.229234,0.107557,0
0.145343,-1.18611,-1.36257,-0.0479107,0.239498,0.132529,0
0.131075,-1.10873,-1.3308,-0.0496728,0.236776,0.161493,0
0.0620339,-0.767629,-1.30502,-0.0474204,0.222924,0.188325,0
0.00307651,-0.400044,-1.30289,-0.0464968,0.210808,0.249198,0
-0.0551436,-0.260752,-1.32875,-0.029003,0.184364,0.328323,0
-0.130886,-0.282791,-1.38149,-0.0161123,0.16644,0.394729,0
-0.217814,-0.433898,-1.41105,0.00634354,0.168859,0.428975,0
-0.231796,-0.5959,-1.4015,0.0376716,0.166895,0.421085,0
-0.183923,-0.712832,-1.36486,0.0725071,0.165692,0.403254,0
-0.246617,-0.776172,-1.31775,0.101235,0.160797,0.399794,0
-0.483956,-0.834012,-1.23506,0.146369,0.127789,0.379923,0
-0.793261,-1.1027,-1.13102,0.183395,0.0726843,0.29748,0
-0.94797,-1.28464,-1.04437,0.205631,0.0117301,0.0885267,0
-0.917591,-1.14656,-0.967923,0.192989,-0.0394893,-0.165648,0
-0.784964,-0.704779,-0.85313,0.217476,-0.095852,-0.357291,0
-0.753579,-0.269195,-0.709541,0.257625,-0.141048,-0.425994,0
-0.834708,0.105788,-0.587155,0.249025,-0.212264,-0.481367,0
-0.894752,0.220527,-0.515874,0.233372,-0.286704,-0.553762,0
-0.798045,0.194551,-0.45519,0.245811,-0.353855,-0.639902,0
-0.507468,0.333218,-0.325532,0.279596,-0.365623,-0.704467,0
-0.132242,0.723586,-0.0856603,0.291074,-0.331683,-0.687172,0
0.141267,0.996931,0.196361,0.297808,-0.316554,-0.544983,0
0.285551,0.97138,0.452087,0.29656,-0.334268,-0.377281,0
0.390057,0.799916,0.591482,0.250648,-0.323377,-0.274247,0
0.547255,0.845566,0.66766,0.19689,-0.263031,-0.199246,0
0.697621,0.930943,0.76539,0.175541,-0.17867,-0.0847239,0
0.84211,1.09268,0.871774,0.184793,-0.133788,0.0101756,0
0.830708,1.08413,1.03935,0.195957,-0.0807062,0.133739,0
0.73389,0.63419,1.24951,0.236726,-0.0782523,0.187949,0
0.838118,0.252086,1.42929,0.208633,-0.0329788,0.115105,0
1.07231,0.13199,1.53025,0.129355,0.039215,0.0392072,0
1.32586,0.348869,1.53085,0.0727284,0.0618493,-0.0032919,0
1.36307,0.573159,1.52039,0.0472679,0.093969,0.080436,0
1.19189,0.666289,1.4757,0.0401115,0.0978357,0.183496,0
0.966477,0.764583,1.33792,-0.00446574,0.0950938,0.22782,0
0.788341,0.719192,1.1733,-0.0390257,0.0962355,0.249312,0
0.739498,0.57374,1.00839,-0.0307143,0.109424,0.232662,0
0.807101,0.512855,0.921562,-0.0137315,0.161373,0.202464,0
0.810458,0.594156,0.880739,-0.00842482,0.204591,0.206529,0
0.68215,0.731569,0.848946,-0.00133856,0.203045,0.219762,0
0.68215,0.731569,0.848946,-0.00133856,0.203045,0.219762,0.0634155
0.453972,0.654998,0.830427,0.0245816,0.190477,0.237441,0.0634155
0.223594,0.382143,0.825942,0.0511276,0.157621,0.203055,0.0634155
0.119161,-0.066425,0.804267,0.0450836,0.141208,0.0939799,0.0634155
0.209509,-0.409056,0.773945,0.0390265,0.148639,-0.0695032,0.0634155
0.269536,-0.340034,0.714742,-0.0274985,0.182558,-0.188302,0.0634155
0.105606,-0.0862137,0.609848,-0.0887633,0.193146,-0.212234,0.0634155
-0.220966,0.0471878,0.432492,-0.113308,0.164182,-0.194114,0.0634155
-0.608827,-0.0717944,0.18917,-0.134509,0.129984,-0.183767,0.0634155
-0.93453,-0.323739,0.00109165,-0.125977,0.113454,-0.232256,0.0634155
-1.05542,-0.462525,-0.0604937,-0.125865,0.147615,-0.323752,0.0634155
-0.856449,-0.306122,-0.0208559,-0.13294,0.191259,-0.419172,0.0634155
-0.537078,-0.068774,0.0367702,-0.155898,0.194529,-0.407211,0.0634155
-0.35317,-0.0428746,-0.0223176,-0.184807,0.132931,-0.303942,0.0634155
-0.350466,-0.158226,-0.225724,-0.207747,0.0589511,-0.206814,0.0634155
-0.436619,-0.223041,-0.447889,-0.215792,0.0448849,-0.159122,0.0634155
-0.42569,-0.104112,-0.559507,-0.203215,0.0967223,-0.165037,0.0634155
-0.341981,0.00674449,-0.552771,-0.174492,0.158389,-0.128585,0.0634155
-0.233857,-0.0120288,-0.510512,-0.145445,0.172261,-0.0674616,0.0634155
-0.183324,-0.161742,-0.492204,-0.125252,0.14495,0.00884295,0.0634155
-0.216213,-0.231263,-0.472686,-0.119221,0.119899,0.0709025,0.0634155
-0.274318,-0.173552,-0.479776,-0.140415,0.105123,0.116726,0.0634155
-0.282543,-0.0597309,-0.550221,-0.152691,0.0735875,0.161221,0.0634155
-0.275012,-0.040217,-0.625183,-0.132046,0.0595686,0.233554,0.0634155
-0.298807,-0.0619508,-0.645625,-0.106203,0.0521543,0.304608,0.0634155
-0.300335,-0.129638,-0.631474,-0.0860978,0.0425973,0.358599,0.0634155
-0.242949,-0.180076,-0.63741,-0.0921281,0.0343345,0.389092,0.0634155
-0.161906,-0.261264,-0.643358,-0.095167,0.0410579,0.431203,0.0634155
-0.0924106,-0.331974,-0.666656,-0.0932053,0.0349763,0.454592,0.0634155
-0.103274,-0.371505,-0.647803,-0.071931,0.0356135,0.483287,0.0634155
-0.196355,-0.429922,-0.705934,-0.0612636,0.000619829,0.486195,0.0634155
-0.436392,-0.655817,-0.797579,-0.0256462,-0.0376824,0.483443,0.0634155
-0.803567,-1.03893,-0.867087,0.0343242,-0.102071,0.408277,0.0634155
-1.01764,-1.43632,-0.919228,0.12881,-0.159258,0.177512,0.0634155
-0.938313,-1.46819,-0.895055,0.199452,-0.178162,-0.140325,0.0634155
-0.691744,-0.922909,-0.77552,0.212755,-0.150877,-0.443887,0.0634155
-0.55693,-0.199915,-0.64127,0.190634,-0.153921,-0.598659,0.0634155
-0.768099,0.0238274,-0.643905,0.219289,-0.2541,-0.611185,0.0634155
-0.877618,0.197679,-0.633916,0.274391,-0.305965,-0.705794,0.0634155
-0.643967,0.530937,-0.421821,0.326341,-0.255352,-0.825569,0.0634155
-0.160991,0.937757,-0.0084243,0.387972,-0.199735,-0.841494,0.0634155
0.371026,1.14311,0.526448,0.412715,-0.142536,-0.723988,0.0634155
0.806575,1.14529,1.02705,0.38617,-0.122242,-0.530946,0.0634155
1.1449,0.996586,1.40728,0.315037,-0.094644,-0.343323,0.0634155
1.39987,0.923734,1.68216,0.254781,-0.0662669,-0.185469,0.0634155
1.46716,0.763816,1.88895,0.20245,-0.0348747,-0.0197811,0.0634155
1.38525,0.423255,2.01158,0.1875,-0.0424564,0.0803996,0.0634155
1.27973,0.112,2.0489,0.131159,-0.0178967,0.108437,0.0634155
1.15831,-0.0595832,2.00213,0.0654476,0.0122157,0.113252,0.0634155
1.06123,-0.0472737,1.84991,0.0295151,0.0220233,0.114276,0.0634155
0.998151,0.145971,1.65858,0.0212181,0.0469905,0.1331,0.0634155
0.998151,0.145971,1.65858,0.0212181,0.0469905,0.1331,0.124191
0.949171,0.31726,1.49283,0.0398605,0.0898244,0.193904,0.124191
0.989973,0.532696,1.37159,0.046281,0.129045,0.233643,0.124191
0.999016,0.615382,1.32107,0.0740172,0.171796,0.318299,0.124191
0.935849,0.583959,1.29104,0.104009,0.189852,0.405852,0.124191
0.810137,0.548798,1.20818,0.106281,0.201033,0.463678,0.124191
0.590666,0.596682,1.05973,0.0824052,0.199408,0.490974,0.124191
0.292061,0.604111,0.915106,0.0906072,0.207582,0.509643,0.124191
0.00562129,0.513705,0.822525,0.119507,0.218792,0.488901,0.124191
-0.125843,0.324431,0.742581,0.143546,0.216481,0.399438,0.124191
-0.00319622,0.171276,0.747242,0.193046,0.242618,0.248711,0.124191
0.155478,0.0185305,0.882105,0.225094,0.28934,0.13762,0.124191
0.180692,0.0503829,1.04608,0.231117,0.285785,0.0522029,0.124191
-0.0456743,-0.0354134,1.14266,0.241554,0.2398,-0.00265539,0.124191
-0.427837,-0.168379,1.15587,0.194805,0.187129,-0.082313,0.124191
-0.785734,-0.307694,1.02919,0.101937,0.137302,-0.220633,0.124191
-1.00483,-0.132053,0.798392,0.00620896,0.0918503,-0.383768,0.124191
-1.23241,0.237293,0.519596,-0.0423119,0.0654786,-0.460632,0.124191
-1.52069,0.660542,0.302777,-0.0434272,0.027878,-0.480995,0.124191
-1.66446,1.07554,0.210876,-0.00718489,-0.00399625,-0.493809,0.124191
-1.52876,1.34065,0.282495,0.0432955,-0.0124511,-0.464731,0.124191
-1.2896,1.3452,0.443144,0.056524,-0.0299411,-0.368996,0.124191
-1.02399,1.14833,0.521096,0.0273919,-0.0882007,-0.294063,0.124191
-0.837223,0.629244,0.467019,0.000225045,-0.144857,-0.238962,0.124191
-0.582865,0.298306,0.392017,-0.00698484,-0.159041,-0.286835,0.124191
-0.283452,0.316378,0.422713,-0.0237195,-0.0723576,-0.316675,0.124191
-0.0200108,0.516043,0.575686,-0.033043,0.0235609,-0.287777,0.124191
0.167123,0.577386,0.783385,-0.0378953,0.0647772,-0.197315,0.124191
0.320227,0.303146,0.904298,-0.0621926,0.0582744,-0.113995,0.124191
0.513049,-0.0293272,0.942,-0.103771,0.0528529,-0.0705121,0.124191
0.686132,-0.22247,0.889259,-0.148622,0.068841,-0.0298159,0.124191
0.779885,-0.253573,0.761423,-0.165844,0.0723138,0.0204756,0.124191
0.764402,-0.167273,0.57618,-0.170622,0.0782435,0.108611,0.124191
0.572358,-0.118678,0.382174,-0.145727,0.0746009,0.212553,0.124191
0.369124,-0.10061,0.278236,-0.107958,0.0943388,0.256775,0.124191
0.276793,-0.122276,0.258924,-0.0671422,0.117528,0.254386,0.124191
0.323611,-0.116814,0.27799,-0.0504329,0.141384,0.250065,0.124191
0.424149,-0.113843,0.311129,-0.0446457,0.151211,0.264527,0.124191
0.492397,-0.0415566,0.351518,-0.0436327,0.151348,0.304159,0.124191
0.386247,-0.08074,0.325133,-0.0580159,0.135794,0.373323,0.124191
0.185176,-0.0515084,0.192782,-0.0681768,0.0897562,0.39772,0.124191
-0.0613436,-0.0093873,0.066116,-0.062162,0.0815215,0.407791,0.124191
-0.348595,-0.134587,0.0307657,-0.0190317,0.0700357,0.400696,0.124191
-0.489978,-0.232673,0.059618,0.0333898,0.0602522,0.30273,0.124191
-0.489169,-0.279829,0.114635,0.0278875,0.0625196,0.195946,0.124191
-0.491965,-0.301026,0.0858535,-0.00598948,0.0163618,0.125945,0.124191
-0.487849,-0.323244,-0.0277418,-0.0161973,-0.0354363,0.0607795,0.124191
-0.492118,-0.331916,-0.083537,0.0143067,-0.0514836,0.0161391,0.124191
-0.504634,-0.238101,0.0019436,0.0553073,-0.0491035,-0.0136943,0.124191
-0.519707,-0.100143,0.181202,0.072458,-0.0460296,-0.0270516,0.124191
-0.510762,0.0282391,0.300202,0.0364383,-0.0745458,-0.0376401,0.124191
-0.40768,0.104948,0.282727,-0.0349473,-0.12196,-0.0483477,0.124191
-0.40768,0.104948,0.282727,-0.0349473,-0.12196,-0.0483477,0.314438
-0.204953,0.040121,0.223473,-0.0687605,-0.147564,-0.0393797,0.314438
0.042515,-0.0312972,0.133304,-0.0832885,-0.159444,-0.0213571,0.314438
0.225162,-0.0085367,0.0585605,-0.0773462,-0.148992,0.00359201,0.314438
0.278756,0.0574969,0.0387082,-0.0557961,-0.135516,0.0315144,0.314438
0.358544,0.192717,0.0458764,-0.0484352,-0.136355,0.0157362,0.314438
0.46726,0.197911,-0.0118132,-0.058103,-0.150616,0.0121104,0.314438
0.540344,0.0796657,-0.115976,-0.0540804,-0.156687,0.0186225,0.314438
0.564832,0.00622157,-0.226799,-0.0330416,-0.150694,-0.00943863,0.314438
0.508913,0.000732895,-0.294172,0.0430912,-0.153829,-0.0283674,0.314438
0.381247,-0.0391658,-0.26609,0.141775,-0.155726,-0.0378934,0.314438
0.182558,-0.0792111,-0.218815,0.193664,-0.158419,-0.0589151,0.314438
-0.153214,-0.31948,-0.233089,0.202145,-0.174291,-0.0912104,0.314438
-0.462269,-0.615451,-0.271375,0.214801,-0.172099,-0.200724,0.314438
-0.427044,-0.470879,-0.224155,0.255345,-0.118642,-0.374761,0.314438
-0.0152965,0.229562,-0.0437556,0.276128,-0.0208822,-0.456642,0.314438
0.434279,1.08257,0.26,0.297568,0.0682883,-0.330376,0.314438
0.636351,1.65578,0.563474,0.299155,0.0928487,-0.0543368,0.314438
0.584154,1.7527,0.830249,0.299923,0.0729518,0.224212,0.314438
0.423851,1.49952,1.07639,0.309506,0.036054,0.383452,0.314438
0.170748,1.11974,1.23141,0.308946,-0.0183339,0.448715,0.314438
-0.182013,0.629405,1.29333,0.300952,-0.0678445,0.446877,0.314438
-0.525924,0.0245529,1.3658,0.307341,-0.0857474,0.337912,0.314438
-0.679832,-0.625036,1.5043,0.306578,-0.0312611,0.129166,0.314438
-0.590625,-1.04902,1.67449,0.294921,0.0330614,-0.146385,0.314438
-0.186429,-0.674881,1.83069,0.26787,0.0722053,-0.458908,0.314438
0.233224,0.212466,2.02797,0.228809,0.117993,-0.603927,0.314438
0.518599,0.878063,2.20735,0.19421,0.120613,-0.531334,0.314438
0.695413,1.00999,2.24416,0.135077,0.102262,-0.362458,0.314438
0.782027,0.83374,2.17627,0.0687723,0.0894583,-0.223321,0.314438
0.855658,0.502338,2.05839,0.0208381,0.100403,-0.141948,0.314438
0.92929,0.211286,1.92035,0.00136257,0.126506,-0.108567,0.314438
0.96399,0.149481,1.8013,-0.0225499,0.156865,-0.113462,0.314438
0.940333,0.295574,1.68988,-0.0687479,0.206473,-0.115929,0.314438
0.84942,0.480023,1.54055,-0.0954305,0.21429,-0.0905388,0.314438
0.625398,0.489501,1.33519,-0.127155,0.212959,-0.0439011,0.314438
0.318642,0.34538,1.11418,-0.161576,0.207037,-0.0275178,0.314438
0.102693,0.0963453,0.825199,-0.193273,0.191694,-0.071072,0.314438
0.0611609,-0.165775,0.514234,-0.219276,0.206531,-0.150486,0.314438
-0.0144936,-0.118934,0.233946,-0.230523,0.238334,-0.187091,0.314438
-0.193551,0.279941,0.0714804,-0.194551,0.263101,-0.169174,0.314438
-0.396976,0.800328,-0.0465103,-0.181861,0.26525,-0.113517,0.314438
-0.58531,1.03281,-0.134566,-0.170923,0.230055,-0.0274699,0.314438
-0.758969,0.825805,-0.246879,-0.148341,0.156882,0.0508617,0.314438
-0.893758,0.284636,-0.379327,-0.127354,0.101956,0.0837428,0.314438
-0.918269,-0.260922,-0.434902,-0.0860646,0.0744697,0.0330506,0.314438
-0.863469,-0.442464,-0.372105,-0.0782842,0.0968245,-0.0553979,0.314438
-0.750343,-0.294668,-0.260083,-0.0850789,0.116399,-0.121885,0.314438
-0.598054,-0.20428,-0.18833,-0.117139,0.121337,-0.124592,0.314438
-0.469662,-0.355405,-0.18785,-0.139663,0.102072,-0.0944397,0.314438
-0.34095,-0.534478,-0.251536,-0.162607,0.0744922,-0.087724,0.314438
-0.34095,-0.534478,-0.251536,-0.162607,0.0744922,-0.087724,0.541687
-0.224525,-0.540352,-0.333016,-0.188622,0.0737873,-0.079995,0.541687
-0.105069,-0.350461,-0.418423,-0.211895,0.088747,-0.0521646,0.541687
-0.00927273,-0.11528,-0.566688,-0.226898,0.083873,0.0196121,0.541687
0.00906827,0.0444903,-0.746761,-0.211749,0.0706016,0.131735,0.541687
-0.0370744,0.0922282,-0.908139,-0.178688,0.0619267,0.240542,0.541687
-0.135404,0.0400933,-1.04782,-0.132463,0.0631527,0.33253,0.541687
-0.277198,-0.100675,-1.15269,-0.0931053,0.0606228,0.388922,0.541687
-0.405212,-0.20513,-1.24845,-0.0738621,0.0602543,0.406523,0.541687
-0.467031,-0.276671,-1.32032,-0.0446047,0.0640125,0.392049,0.541687
-0.491394,-0.309659,-1.33404,-0.0050544,0.0701887,0.377513,0.541687
-0.533152,-0.2723,-1.32361,0.0222842,0.0661608,0.365971,0.541687
-0.606229,-0.308261,-1.31448,0.0538912,0.0333508,0.34383,0.541687
-0.648702,-0.392745,-1.26346,0.0906251,0.0135144,0.288089,0.541687
-0.695533,-0.460914,-1.15245,0.141153,-0.0031451,0.229098,0.541687
-0.755352,-0.536069,-0.992573,0.203166,-0.0371596,0.135372,0.541687
-0.793132,-0.476133,-0.7787,0.250407,-0.0661329,0.00397921,0.541687
-0.792246,-0.348616,-0.490923,0.283426,-0.0722547,-0.139723,0.541687
-0.6982,-0.25463,-0.240218,0.296213,-0.112113,-0.295786,0.541687
-0.601511,-0.380443,-0.050528,0.276669,-0.166124,-0.416759,0.541687
-0.488038,-0.607032,0.0827449,0.239112,-0.186441,-0.546201,0.541687
-0.349201,-0.620485,0.210139,0.216081,-0.190838,-0.672099,0.541687
-0.172517,-0.330294,0.299269,0.154121,-0.18448,-0.7677,0.541687
0.0650172,0.164371,0.380364,0.103924,-0.169762,-0.786474,0.541687
0.330613,0.649649,0.481165,0.0598154,-0.147947,-0.711166,0.541687
0.495601,0.885174,0.492234,0.0143881,-0.149039,-0.532628,0.541687
0.547139,0.839636,0.446689,0.0131855,-0.162467,-0.342148,0.541687
0.619057,0.785987,0.392417,0.0168933,-0.153688,-0.214558,0.541687
0.713463,0.815548,0.40095,0.058703,-0.11439,-0.0951849,0.541687
0.807575,0.928395,0.497679,0.1136,-0.0668515,0.0144923,0.541687
0.845288,0.925157,0.683077,0.162033,-0.034263,0.135169,0.541687
0.801386,0.681207,0.911654,0.214559,-0.0229863,0.23276,0.541687
0.791942,0.332048,1.16419,0.237795,-0.00756128,0.232953,0.541687
0.80007,-0.0986869,1.32711,0.21315,0.00693639,0.205881,0.541687
0.752517,-0.320376,1.33922,0.171839,-0.00538929,0.147657,0.541687
0.665428,-0.278839,1.2542,0.15522,-0.00264008,0.0588851,0.541687
0.719421,0.119933,1.17496,0.145233,0.0316615,-0.0687333,0.541687
0.7912,0.420448,1.16746,0.164355,0.0900715,-0.072551,0.541687
0.84324,0.564784,1.2558,0.217294,0.121632,-0.0124789,0.541687
0.907888,0.625472,1.36558,0.224386,0.154743,0.0575066,0.541687
0.964489,0.613808,1.4377,0.212104,0.184965,0.135427,0.541687
0.897989,0.652976,1.44026,0.168197,0.212525,0.225233,0.541687
0.69294,0.76474,1.39978,0.124753,0.23072,0.303607,0.541687
0.437373,0.815174,1.32256,0.10518,0.233968,0.352146,0.541687
0.234229,0.772101,1.2246,0.0822571,0.247615,0.354774,0.541687
0.11194,0.703102,1.16177,0.0772222,0.26827,0.324163,0.541687
0.00758696,0.580748,1.15784,0.0909469,0.289693,0.302369,0.541687
-0.100733,0.484692,1.14156,0.0816817,0.293778,0.265933,0.541687
-0.238796,0.357614,1.08908,0.0644121,0.258368,0.18922,0.541687
-0.320856,0.189581,1.01072,0.0539933,0.217025,0.0684507,0.541687
-0.417612,-0.00302957,0.913498,0.0393005,0.203427,-0.0397094,0.541687
-0.630509,-0.0456266,0.827044,0.0304555,0.204148,-0.142867,0.541687
-1.02331,-0.055547,0.757428,0.019452,0.186331,-0.227012,0.541687
-1.34514,-0.00161642,0.644135,-0.0191707,0.150558,-0.353501,0.541687
-1.3884,0.146255,0.46879,-0.0569163,0.110803,-0.502612,0.541687
-1.12972,0.343702,0.363275,-0.0596252,0.0970003,-0.598835,0.541687
-0.770293,0.554669,0.407941,-0.0354302,0.0877872,-0.57186,0.541687
-0.614113,0.513084,0.498991,-0.0397147,0.0546583,-0.406893,0.541687
-0.66188,0.375856,0.452447,-0.102099,-0.0226793,-0.2755,0.541687
-0.794771,0.17832,0.219258,-0.169728,-0.107732,-0.216655,0.541687
-0.844466,0.0250331,-0.085555,-0.199644,-0.151134,-0.242409,0.541687
-0.709131,0.157848,-0.304793,-0.190261,-0.119926,-0.30108,0.541687
-0.505758,0.499537,-0.394156,-0.166885,-0.0684811,-0.306862,0.541687
-0.232028,0.753629,-0.307689,-0.145909,-0.0196696,-0.258401,0.541687
0.127197,0.710464,-0.139864,-0.157703,0.0217261,-0.160262,0.541687
0.457961,0.397139,-0.0287591,-0.20049,0.0270161,-0.0467911,0.541687
0.657296,0.0465375,-0.0403526,-0.265729,0.0161827,0.0598788,0.541687
0.722959,-0.120189,-0.171628,-0.323182,0.0160153,0.140741,0.541687
0.723156,-0.102096,-0.340012,-0.351717,0.0392053,0.206894,0.541687
0.761058,-0.00290034,-0.514385,-0.343542,0.0590668,0.260322,0.541687
0.735134,0.0375633,-0.675318,-0.321875,0.0820928,0.350058,0.541687
0.570862,-0.0810166,-0.816859,-0.294727,0.0976631,0.450337,0.541687
0.371964,-0.300244,-0.929526,-0.247571,0.10166,0.492473,0.541687
0.234557,-0.442518,-1.01132,-0.207841,0.115452,0.483398,0.541687
0.176274,-0.496458,-1.06053,-0.172213,0.137658,0.455165,0.541687
0.150093,-0.516972,-1.06561,-0.132386,0.145388,0.440189,0.541687
0.0923869,-0.627079,-1.0579,-0.0890802,0.138901,0.420805,0.541687
0.0923869,-0.627079,-1.0579,-0.0890802,0.138901,0.420805,0.713425
-0.00406827,-0.766257,-1.02381,-0.0405077,0.119442,0.380504,0.713425
-0.123769,-0.923205,-0.982342,-0.00449562,0.0802729,0.294601,0.713425
-0.232531,-0.988369,-1.0165,0.014402,0.0184299,0.188883,0.713425
-0.333361,-0.91882,-1.05503,0.0610247,-0.0027419,0.0632514,0.713425
-0.443019,-0.666123,-1.03236,0.109216,-0.0166664,-0.0629379,0.713425
-0.509403,-0.319238,-1.04154,0.122088,-0.0421143,-0.179411,0.713425
-0.559612,-0.139957,-1.04618,0.146319,-0.0754593,-0.257878,0.713425
-0.602451,-0.131638,-0.959604,0.200646,-0.0920081,-0.316592,0.713425
-0.543653,-0.146203,-0.760342,0.247991,-0.0911655,-0.405264,0.713425
-0.357125,-0.0812919,-0.474078,0.271773,-0.0788368,-0.491999,0.713425
-0.0662196,0.11907,-0.190783,0.258545,-0.0826045,-0.532769,0.713425
0.218824,0.431944,0.00846787,0.205337,-0.11061,-0.513209,0.713425
0.318682,0.606885,0.103139,0.145305,-0.14308,-0.380765,0.713425
0.258532,0.619352,0.0947503,0.101967,-0.185086,-0.258043,0.713425
0.17046,0.568045,-0.00224847,0.0674463,-0.211789,-0.189992,0.713425
0.0541242,0.431942,-0.107168,0.0647336,-0.211348,-0.148803,0.713425
-0.0431462,0.357103,-0.142816,0.0817066,-0.175633,-0.154262,0.713425
-0.014211,0.400233,-0.0654472,0.119078,-0.113909,-0.175903,0.713425
0.165007,0.493798,0.144195,0.161107,-0.0523596,-0.167267,0.713425
0.396137,0.513263,0.448627,0.193867,-0.0110942,-0.100217,0.713425
0.513545,0.371943,0.743581,0.194278,0.00165272,0.015303,0.713425
0.487719,0.0743162,0.937537,0.159194,-0.0208095,0.103373,0.713425
0.3934,-0.152026,0.954445,0.0791501,-0.0409822,0.117217,0.713425
0.271284,-0.237509,0.846757,0.0150361,-0.0398559,0.093105,0.713425
0.148533,-0.154216,0.75286,0.00602904,-0.0166592,0.0691171,0.713425
0.126095,0.0327119,0.691512,0.0169781,0.0155685,0.0621794,0.713425
0.196444,0.21912,0.703222,0.0376456,0.061406,0.0967358,0.713425
0.296169,0.396363,0.781988,0.051786,0.101926,0.167052,0.713425
0.413392,0.42491,0.903939,0.0698357,0.129307,0.244713,0.713425
0.608702,0.321226,1.09858,0.0869208,0.17008,0.294723,0.713425
0.821825,0.260767,1.30798,0.064601,0.216234,0.351019,0.713425
0.939522,0.218502,1.45644,0.02936,0.229985,0.419539,0.713425
0.890286,0.129423,1.50831,0.00298507,0.210176,0.492748,0.713425
0.644925,-0.0343856,1.47079,-0.0269884,0.172412,0.537607,0.713425
0.244123,-0.258274,1.28599,-0.0573861,0.116226,0.528528,0.713425
-0.210122,-0.55027,0.946473,-0.0672266,0.0419745,0.456723,0.713425
-0.536029,-0.805882,0.543042,-0.0457176,-0.00826439,0.310922,0.713425
-0.717661,-0.906243,0.263832,0.0121946,0.016228,0.121322,0.713425
-0.828209,-0.6863,0.189221,0.0699793,0.0610926,-0.0658674,0.713425
-0.965271,-0.592711,0.227722,0.130533,0.054597,-0.214413,0.713425
-1.03676,-0.511322,0.276898,0.154993,0.0280672,-0.367987,0.713425
-0.940936,-0.232337,0.32363,0.144161,0.0284992,-0.519045,0.713425
-0.693451,0.220745,0.35538,0.101123,0.0297094,-0.610237,0.713425
-0.392008,0.636576,0.368217,0.0656069,0.0190414,-0.59938,0.713425
-0.179855,0.75543,0.415165,0.0847319,-0.0136596,-0.490632,0.713425
-0.0936288,0.544998,0.538166,0.0974902,-0.03705,-0.379655,0.713425
-0.0448872,0.255679,0.672525,0.0716971,-0.053605,-0.342927,0.713425
-0.0224699,0.0235296,0.6849,-0.00933803,-0.0630536,-0.333826,0.713425
-0.0837012,-0.0754227,0.527946,-0.0976728,-0.0864625,-0.34848,0.713425
-0.142333,0.0190835,0.278485,-0.154609,-0.115151,-0.394664,0.713425
-0.156918,0.0920521,0.059555,-0.145399,-0.114062,-0.409706,0.713425
0.0168635,0.251828,-0.0268246,-0.115855,-0.0813019,-0.445414,0.713425
0.396001,0.533561,-0.00598798,-0.117674,-0.00420853,-0.437812,0.713425
0.396001,0.533561,-0.00598798,-0.117674,-0.00420853,-0.437812,0.779495
0.777595,0.736453,0.0616197,-0.14429,0.0558991,-0.306921,0.779495
0.993928,0.742849,0.105167,-0.166712,0.0894179,-0.114937,0.779495
1.04655,0.563841,0.0826647,-0.197519,0.0978701,0.0471323,0.779495
0.928012,0.264146,-0.0442555,-0.233428,0.100826,0.170928,0.779495
0.701601,-0.0529719,-0.247286,-0.260691,0.0972055,0.243079,0.779495
0.492923,-0.194241,-0.436977,-0.255686,0.116492,0.261795,0.779495
0.406953,-0.124058,-0.547782,-0.22698,0.163758,0.250396,0.779495
0.430484,0.00716134,-0.576225,-0.180292,0.197527,0.27096,0.779495
0.467285,0.00561635,-0.536956,-0.139817,0.220376,0.334921,0.779495
0.460832,-0.138748,-0.485235,-0.112391,0.222563,0.403419,0.779495
0.397077,-0.336545,-0.463844,-0.0967925,0.206854,0.453515,0.779495
0.337762,-0.427361,-0.473476,-0.0963943,0.204281,0.472616,0.779495
0.275829,-0.407812,-0.50524,-0.100684,0.210902,0.488001,0.779495
0.187562,-0.409765,-0.524364,-0.0864019,0.212097,0.515033,0.779495
0.0311368,-0.440791,-0.560501,-0.0707975,0.200461,0.531886,0.779495
-0.193713,-0.501768,-0.612666,-0.0401787,0.17928,0.531081,0.779495
-0.385376,-0.522675,-0.623709,-0.010735,0.167471,0.493902,0.779495
-0.478098,-0.54748,-0.61964,0.00631507,0.162474,0.41896,0.779495
-0.512001,-0.548768,-0.582709,0.0399924,0.147656,0.348665,0.779495
-0.584876,-0.565893,-0.448074,0.109393,0.115225,0.276865,0.779495
-0.725856,-0.605555,-0.249614,0.154076,0.0767578,0.164746,0.779495
-0.99229,-0.764531,-0.089019,0.175348,-0.0206673,0.00795686,0.779495
-1.29313,-1.05535,-0.110829,0.154053,-0.162723,-0.235012,0.779495
-1.41257,-1.076,-0.340732,0.108424,-0.284413,-0.565557,0.779495
-1.39849,-0.753113,-0.56748,0.0989949,-0.318051,-0.859119,0.779495
-1.23899,-0.244906,-0.573579,0.137326,-0.291772,-1.05127,0.779495
-0.855626,0.372988,-0.396474,0.154609,-0.266917,-1.13621,0.779495
-0.363636,0.993762,-0.19164,0.148038,-0.267831,-1.0594,0.779495
0.0180294,1.48063,-0.0400381,0.153893,-0.286718,-0.814486,0.779495
0.169434,1.65495,0.0992223,0.164477,-0.296027,-0.508841,0.779495
0.229817,1.56098,0.302794,0.177133,-0.259984,-0.254376,0.779495
0.310813,1.29153,0.589004,0.187616,-0.192846,-0.0706002,0.779495
0.439658,1.02475,0.922093,0.185933,-0.114813,0.0474947,0.779495
0.600571,0.907779,1.2265,0.154387,-0.0427587,0.142206,0.779495
0.697608,0.768387,1.52807,0.139092,0.0164437,0.258343,0.779495
0.6755,0.441402,1.84168,0.137831,0.0435192,0.358013,0.779495
0.560472,-0.0601899,2.126,0.132163,0.0612775,0.419537,0.779495
0.404863,-0.622766,2.24543,0.0750689,0.0694963,0.404539,0.779495
0.382416,-0.769037,2.1945,0.00455674,0.0671405,0.284215,0.779495
0.446534,-0.601363,2.0623,-0.0260021,0.0859656,0.19291,0.779495
0.532091,-0.316917,1.94044,0.00115178,0.105947,0.152917,0.779495
0.693691,-0.0846796,1.92397,0.0543653,0.136697,0.14527,0.779495
0.882393,0.0522768,1.99056,0.108033,0.177529,0.188448,0.779495
0.952285,0.157558,2.04216,0.12579,0.184186,0.251696,0.779495
0.848814,0.154673,2.01025,0.121432,0.165842,0.312776,0.779495
0.696368,0.152155,1.91404,0.110945,0.139609,0.331011,0.779495
0.506678,0.0535213,1.74871,0.12224,0.110705,0.322745,0.779495
0.355071,-0.0368286,1.57628,0.138886,0.0979657,0.279664,0.779495
0.210324,-0.193597,1.38042,0.142883,0.089042,0.226288,0.779495
0.0767529,-0.472015,1.15316,0.165596,0.0675526,0.148593,0.779495
-0.00509122,-0.520757,0.871402,0.159225,0.069784,0.0252057,0.779495
-0.0890139,-0.24726,0.603029,0.158064,0.0898976,-0.0863377,0.779495
-0.164734,0.210834,0.410297,0.160338,0.124509,-0.135479,0.779495
-0.169577,0.708301,0.37027,0.185478,0.159024,-0.135441,0.779495
-0.169577,0.708301,0.37027,0.185478,0.159024,-0.135441,1.01994
-0.140337,1.13571,0.420519,0.199573,0.170808,-0.0838394,1.01994
-0.160016,1.37377,0.486927,0.180862,0.151802,0.0240527,1.01994
-0.206693,1.43412,0.519208,0.141116,0.102064,0.106987,1.01994
-0.289713,1.37393,0.497925,0.100601,0.052477,0.170391,1.01994
-0.402601,1.25154,0.478666,0.081794,0.00857285,0.21139,1.01994
-0.549573,1.06122,0.504044,0.0746078,-0.0193306,0.235974,1.01994
-0.697596,0.873481,0.619505,0.069719,-0.0407903,0.231781,1.01994
-0.819335,0.691782,0.718046,0.0291641,-0.0656848,0.196135,1.01994
-0.88186,0.483639,0.760217,-0.00137164,-0.112575,0.138394,1.01994
-0.830743,0.237481,0.746187,-0.022795,-0.15515,0.0420658,1.01994
-0.678103,0.19554,0.742157,-0.037301,-0.162012,-0.0602455,1.01994
-0.591128,0.231193,0.787363,-0.0237103,-0.149383,-0.0963434,1.01994
-0.62646,0.163624,0.868001,0.00332423,-0.153671,-0.0940444,1.01994
-0.641535,0.0715048,0.919141,0.00183044,-0.159605,-0.142486,1.01994
-0.599006,0.0604378,0.951288,-0.00733698,-0.17191,-0.202973,1.01994
-0.649983,-0.00162474,0.92785,-0.0293188,-0.187886,-0.222889,1.01994
-0.856639,-0.164667,0.721144,-0.10047,-0.200958,-0.250178,1.01994
-0.984941,-0.178696,0.41486,-0.110418,-0.221636,-0.348394,1.01994
-0.860373,0.00694296,0.265668,-0.0366009,-0.184938,-0.44347,1.01994
-0.505422,0.143432,0.435079,0.084434,-0.096212,-0.45498,1.01994
-0.12936,-0.00470185,0.80073,0.167483,-0.0205449,-0.385848,1.01994
0.1251,-0.221678,1.14476,0.154247,0.00907752,-0.302962,1.01994
0.182337,-0.335106,1.23263,0.0470283,-0.0177631,-0.252695,1.01994
0.300816,-0.187205,1.09679,-0.0598964,-0.0402234,-0.2597,1.01994
0.554644,0.0359585,0.958641,-0.108829,0.0185335,-0.235708,1.01994
0.830177,0.18033,0.920707,-0.106652,0.0907606,-0.1391,1.01994
0.984294,0.136905,0.93985,-0.111507,0.142959,-0.00421774,1.01994
1.04313,0.0767487,0.890018,-0.140951,0.153999,0.105624,1.01994
1.00673,0.0354766,0.684094,-0.188099,0.143084,0.188908,1.01994
0.870507,0.0642018,0.380577,-0.201794,0.124606,0.247132,1.01994
0.643291,0.0506646,0.0709987,-0.16585,0.120126,0.306239,1.01994
0.388964,-0.0183631,-0.129321,-0.0872926,0.12364,0.330377,1.01994
0.177154,-0.10593,-0.166306,-0.00710029,0.149021,0.32516,1.01994
0.0477131,-0.153632,-0.109239,0.0449287,0.147965,0.289057,1.01994
-0.0136629,-0.176939,-0.0324967,0.0621031,0.124305,0.248405,1.01994
-0.0770129,-0.229568,-0.0319221,0.0488393,0.095831,0.221645,1.01994
-0.167104,-0.245005,-0.092077,0.0187383,0.0686927,0.197914,1.01994
-0.32825,-0.250873,-0.175286,0.0130054,0.0454922,0.174763,1.01994
-0.507361,-0.204381,-0.208407,0.0262398,0.0343783,0.130707,1.01994
-0.584849,-0.0418729,-0.174609,0.0342132,0.0418839,0.060729,1.01994
-0.576243,0.111423,-0.0898709,0.036261,0.045517,0.0149382,1.01994
-0.514267,0.252543,-0.0118792,0.0422435,0.0145646,-0.00859469,1.01994
-0.473386,0.234405,0.0622626,0.0510854,-0.023791,-0.000987649,1.01994
-0.435703,0.201553,0.153369,0.0697407,-0.0655394,-0.0172467,1.01994
-0.369824,0.138688,0.265412,0.0950094,-0.10407,-0.0451211,1.01994
-0.318649,0.0332241,0.376757,0.115905,-0.141129,-0.0807196,1.01994
-0.33413,0.00323192,0.408064,0.104565,-0.196138,-0.144502,1.01994
-0.363907,-0.00300634,0.352819,0.0991534,-0.243309,-0.231846,1.01994
-0.380195,-0.0311002,0.257312,0.0984834,-0.268475,-0.341711,1.01994
-0.433269,-0.0897021,0.223241,0.131272,-0.264985,-0.445266,1.01994
-0.376077,-0.0649343,0.297948,0.176535,-0.222554,-0.556382,1.01994
-0.185497,0.0983653,0.491829,0.188711,-0.146565,-0.634518,1.01994
0.052441,0.264125,0.705298,0.154779,-0.080792,-0.648188,1.01994
0.261871,0.457766,0.888319,0.126122,-0.0398459,-0.595484,1.01994
0.261871,0.457766,0.888319,0.126122,-0.0398459,-0.595484,1.25775
0.534368,0.6635,1.04129,0.118125,-0.00825858,-0.501488,1.25775
0.903512,0.958535,1.20925,0.122232,0.0424727,-0.356844,1.25775
1.20884,1.21468,1.43442,0.127771,0.105441,-0.150249,1.25775
1.3117,1.14967,1.69468,0.132689,0.145676,0.0762376,1.25775
1.24044,0.717591,1.94386,0.144532,0.148803,0.247803,1.25775
1.10205,0.0899672,2.08835,0.138542,0.128573,0.327899,1.25775
0.96599,-0.398419,2.05297,0.0872562,0.119318,0.333459,1.25775
0.84261,-0.519104,1.92877,0.0467035,0.121572,0.288813,1.25775
0.735246,-0.411523,1.80229,0.0527667,0.137727,0.250254,1.25775
0.665671,-0.24128,1.69827,0.0823335,0.156176,0.237913,1.25775
0.631639,-0.144894,1.62443,0.131674,0.154172,0.251096,1.25775
0.586232,-0.158079,1.58179,0.184095,0.152948,0.282939,1.25775
0.510101,-0.198685,1.56606,0.217476,0.158198,0.311034,1.25775
0.403021,-0.223624,1.5499,0.239822,0.157771,0.329677,1.25775
0.251165,-0.265488,1.48976,0.2411,0.148737,0.334063,1.25775
0.0299628,-0.358456,1.3529,0.223676,0.128271,0.297848,1.25775
-0.189707,-0.450674,1.19318,0.240015,0.109936,0.210952,1.25775
-0.341826,-0.393197,1.05902,0.261552,0.115233,0.0749247,1.25775
-0.438325,-0.213018,0.990641,0.288281,0.128969,-0.0610008,1.25775
-0.467463,-0.0182308,0.982195,0.310427,0.152742,-0.176264,1.25775
-0.452463,0.100477,1.00347,0.316451,0.162151,-0.27135,1.25775
-0.408905,0.208658,1.0191,0.281905,0.173153,-0.355742,1.25775
-0.382912,0.317903,0.98388,0.227091,0.172897,-0.418591,1.25775
-0.404851,0.419,0.912157,0.170567,0.17102,-0.452862,1.25775
-0.431748,0.588989,0.856015,0.107035,0.173228,-0.471239,1.25775
-0.43001,0.747531,0.856392,0.0542216,0.185322,-0.464379,1.25775
-0.387833,0.809424,0.900889,0.000408635,0.167338,-0.440259,1.25775
-0.298643,0.720947,0.925915,-0.0716171,0.136837,-0.410651,1.25775
-0.14819,0.757869,0.865772,-0.171204,0.0934767,-0.378652,1.25775
-0.0409938,0.951379,0.642001,-0.30076,0.0473577,-0.309131,1.25775
0.000291531,1.22277,0.260684,-0.385665,-0.00331098,-0.207622,1.25775
-0.00563248,1.34606,-0.125562,-0.397705,-0.0362154,-0.0958083,1.25775
-0.0125579,1.16428,-0.394452,-0.366816,-0.0364103,0.00255412,1.25775
-0.0382009,0.732013,-0.53534,-0.345433,-0.00658701,0.0668716,1.25775
-0.0408738,0.317054,-0.577358,-0.336414,0.0305396,0.0684319,1.25775
-0.00334403,0.0948574,-0.657994,-0.382884,0.0633987,0.0314652,1.25775
0.0571184,0.0649775,-0.810229,-0.417548,0.08141,-0.00767314,1.25775
0.161447,0.0917834,-0.950733,-0.416086,0.10386,-0.017396,1.25775
0.290876,0.110912,-0.984981,-0.38337,0.1533,0.0268751,1.25775
0.386985,0.0872134,-0.89994,-0.339417,0.19449,0.104167,1.25775
0.477878,0.0210716,-0.806294,-0.317327,0.201367,0.177673,1.25775
0.579865,-0.042417,-0.798229,-0.320284,0.191804,0.253762,1.25775
0.635738,-0.0953544,-0.875932,-0.323873,0.181554,0.338257,1.25775
0.600582,-0.250078,-1.01209,-0.308339,0.178169,0.421917,1.25775
0.486313,-0.464124,-1.17767,-0.275412,0.169296,0.477374,1.25775
0.276935,-0.674028,-1.32845,-0.224906,0.165821,0.5127,1.25775
0.0129996,-0.850428,-1.42488,-0.15948,0.172182,0.525846,1.25775
-0.231065,-0.922375,-1.43188,-0.0981601,0.183103,0.489647,1.25775
-0.44457,-1.02166,-1.41459,-0.0561799,0.179195,0.430561,1.25775
-0.571091,-1.22314,-1.3893,0.00207379,0.147451,0.337397,1.25775
-0.650286,-1.37279,-1.36165,0.0414033,0.123983,0.224155,1.25775
-0.751369,-1.40903,-1.3247,0.0811258,0.0978198,0.0912312,1.25775
-0.867129,-1.31091,-1.27685,0.12263,0.0585898,-0.0515864,1.25775
-0.971193,-1.02443,-1.24201,0.159912,0.00761354,-0.195996,1.25775
-0.971193,-1.02443,-1.24201,0.159912,0.00761354,-0.195996,1.46385
-1.04238,-0.648505,-1.20385,0.178333,-0.0243418,-0.317483,1.46385
-1.05327,-0.383773,-1.10323,0.224729,-0.0612818,-0.418494,1.46385
-0.936372,-0.216966,-0.915206,0.27549,-0.095963,-0.517575,1.46385
-0.646825,0.0404387,-0.680934,0.284773,-0.112847,-0.598229,1.46385
-0.26303,0.401526,-0.466361,0.267642,-0.133209,-0.616423,1.46385
-0.00224501,0.63039,-0.253173,0.259608,-0.173985,-0.513961,1.46385
0.0607777,0.633018,-0.0595121,0.239647,-0.214686,-0.393794,1.46385
0.024564,0.468263,0.0467339,0.206299,-0.259126,-0.325124,1.46385
0.0132657,0.323636,0.0491597,0.144322,-0.281377,-0.321805,1.46385
0.0903312,0.272345,0.0197357,0.118801,-0.260865,-0.339844,1.46385
0.272251,0.443691,0.0710792,0.146762,-0.193944,-0.34287,1.46385
0.495288,0.767532,0.257336,0.191397,-0.115182,-0.282733,1.46385
0.704003,1.13813,0.496506,0.216718,-0.0690307,-0.181249,1.46385
0.809951,1.22611,0.743481,0.210184,-0.0456316,-0.0490153,1.46385
0.872512,1.02142,0.989436,0.199903,-0.0335793,0.0408797,1.46385
0.9242,0.684978,1.17824,0.163788,-0.0101278,0.0797581,1.46385
0.996291,0.445469,1.28965,0.121718,0.00522421,0.0728151,1.46385
1.06656,0.392128,1.35277,0.0744853,0.0350139,0.064419,1.46385
1.0784,0.448855,1.40013,0.0426963,0.0561219,0.0906886,1.46385
1.06066,0.504855,1.40977,0.00454667,0.0736074,0.136832,1.46385
1.03489,0.459607,1.33837,-0.0379242,0.081677,0.192129,1.46385
0.956087,0.33672,1.19078,-0.0674451,0.0799984,0.256546,1.46385
0.826489,0.166484,0.97883,-0.0788961,0.0763252,0.30707,1.46385
0.694758,0.0277389,0.787807,-0.0572637,0.096888,0.331493,1.46385
0.589663,0.0602479,0.63695,-0.0479995,0.150385,0.322127,1.46385
0.509599,0.146673,0.54323,-0.0284814,0.197138,0.317825,1.46385
0.440883,0.289929,0.451269,-0.0139953,0.222014,0.319606,1.46385
0.325094,0.450414,0.365443,-0.000922516,0.237067,0.341683,1.46385
0.128748,0.467849,0.310247,0.0301738,0.233146,0.369177,1.46385
-0.0992141,0.349941,0.280479,0.0722332,0.212066,0.354584,1.46385
-0.3731,0.127112,0.259473,0.0964347,0.181935,0.301078,1.46385
-0.608049,-0.108411,0.20978,0.097625,0.149006,0.194462,1.46385
-0.802809,-0.384011,0.0915136,0.0688947,0.122303,0.052865,1.46385
-1.03195,-0.675793,0.000219402,0.0762452,0.104556,-0.0951218,1.46385
-1.25354,-0.788268,-0.011246,0.0764981,0.11138,-0.260895,1.46385
-1.35966,-0.705022,0.0384129,0.0428966,0.136837,-0.427453,1.46385
-1.23891,-0.405325,0.134988,-0.000230037,0.139508,-0.579066,1.46385
-0.96616,-0.0368842,0.249552,-0.0505841,0.122326,-0.638371,1.46385
-0.750034,0.279703,0.337427,-0.104183,0.0896635,-0.570406,1.46385
-0.74471,0.330088,0.306072,-0.145406,0.0112834,-0.424888,1.46385
-0.832458,0.235493,0.143127,-0.189615,-0.0776175,-0.316733,1.46385
-0.901477,0.135711,-0.106799,-0.227956,-0.126091,-0.257351,1.46385
-0.900232,0.0943696,-0.335317,-0.221242,-0.146514,-0.238372,1.46385
-0.760778,0.169805,-0.458798,-0.198892,-0.129133,-0.257099,1.46385
-0.491851,0.315209,-0.50037,-0.189814,-0.0921752,-0.248026,1.46385
-0.194788,0.432834,-0.512109,-0.209771,-0.0601296,-0.192012,1.46385
0.0608663,0.371094,-0.554324,-0.2283,-0.0397113,-0.10031,1.46385
0.275244,0.132723,-0.614876,-0.233748,-0.0204438,-0.0278614,1.46385
0.494783,-0.169626,-0.676614,-0.239195,0.0128828,0.0172316,1.46385
0.667469,-0.382175,-0.741863,-0.236066,0.0538857,0.0662289,1.46385
0.722458,-0.448286,-0.819445,-0.233874,0.0891969,0.131786,1.46385
0.676126,-0.401217,-0.90608,-0.22995,0.123066,0.209688,1.46385
0.546761,-0.343532,-1.02358,-0.224614,0.143423,0.285936,1.46385
0.376337,-0.297006,-1.1635,-0.207269,0.148879,0.33969,1.46385
0.376337,-0.297006,-1.1635,-0.207269,0.148879,0.33969,1.68845
0.217334,-0.267606,-1.28175,-0.181735,0.165033,0.379384,1.68845
0.106753,-0.264844,-1.38633,-0.158362,0.181694,0.405776,1.68845
0.0227304,-0.308569,-1.47014,-0.134893,0.193454,0.431687,1.68845
-0.0618032,-0.335735,-1.5371,-0.108184,0.201029,0.453131,1.68845
-0.201673,-0.357762,-1.59411,-0.0759631,0.202502,0.475768,1.68845
-0.441336,-0.422667,-1.64813,-0.0297581,0.183938,0.483917,1.68845
-0.704264,-0.630909,-1.63931,0.0227025,0.169183,0.435995,1.68845
-0.820889,-1.02945,-1.51161,0.107004,0.147944,0.308043,1.68845
-0.73286,-1.35505,-1.3214,0.157531,0.118592,0.107423,1.68845
-0.661614,-1.44355,-1.13472,0.184312,0.0900082,-0.0618117,1.68845
-0.863067,-1.27032,-0.986053,0.196239,0.0507704,-0.182193,1.68845
-1.23523,-0.95269,-0.822689,0.220158,-0.00620522,-0.31354,1.68845
-1.4515,-0.634379,-0.658466,0.212149,-0.0645603,-0.473798,1.68845
-1.35671,-0.428094,-0.500163,0.223134,-0.116057,-0.630327,1.68845
-0.940695,-0.106977,-0.309696,0.238595,-0.164352,-0.748592,1.68845
-0.407063,0.374416,-0.101208,0.244023,-0.202395,-0.734731,1.68845
-0.0939029,0.713485,0.0404987,0.245342,-0.254371,-0.546366,1.68845
-0.0498674,0.809092,0.131499,0.252242,-0.324268,-0.355609,1.68845
-0.0348641,0.738351,0.206553,0.263278,-0.365448,-0.254552,1.68845
0.0694571,0.544578,0.278745,0.280401,-0.383381,-0.231204,1.68845
0.347647,0.371935,0.404133,0.285355,-0.352001,-0.260456,1.68845
0.738604,0.337611,0.587426,0.258521,-0.265758,-0.274227,1.68845
1.08148,0.441884,0.761812,0.233672,-0.214067,-0.221264,1.68845
1.23511,0.502007,0.862416,0.200916,-0.198196,-0.110618,1.68845
1.19931,0.506935,0.861937,0.15949,-0.186771,-0.0101387,1.68845
1.05169,0.525474,0.790341,0.121691,-0.176883,0.0380301,1.68845
0.911138,0.548483,0.699625,0.110643,-0.160378,0.0466586,1.68845
0.897094,0.602949,0.646076,0.120507,-0.106822,0.0188326,1.68845
0.945281,0.611706,0.669122,0.150026,-0.0394134,0.0223186,1.68845
1.02486,0.592862,0.762892,0.181588,0.0121756,0.0482935,1.68845
1.14056,0.599838,0.881118,0.196908,0.0675481,0.0778406,1.68845
1.22565,0.584053,1.00886,0.198414,0.118351,0.135329,1.68845
1.26112,0.578078,1.13453,0.186715,0.161814,0.203335,1.68845
1.27423,0.62941,1.21395,0.168615,0.194433,0.252544,1.68845
1.21889,0.619759,1.26233,0.169091,0.219162,0.303365,1.68845
1.05894,0.443547,1.32575,0.203084,0.230911,0.342817,1.68845
0.889832,0.262049,1.39064,0.251302,0.218418,0.305655,1.68845
0.748932,0.284217,1.43983,0.246604,0.223076,0.206375,1.68845
0.52805,0.305206,1.48515,0.213445,0.23829,0.131173,1.68845
0.295363,0.172263,1.47615,0.172516,0.187781,0.0403033,1.68845
0.219563,0.0468665,1.33079,0.125289,0.123826,-0.0800864,1.68845
0.15134,0.00823381,1.12636,0.097005,0.0707427,-0.17142,1.68845
0.00849765,0.0661919,0.987352,0.0630299,0.0575314,-0.233943,1.68845
-0.169806,0.163029,0.826254,-0.00590616,0.0726887,-0.272558,1.68845
-0.288619,0.406638,0.540988,-0.102427,0.0527354,-0.306757,1.68845
-0.408503,0.635159,0.216033,-0.174046,0.035908,-0.293714,1.68845
-0.569409,0.633522,-0.107368,-0.212126,0.0168233,-0.251799,1.68845
-0.600408,0.22768,-0.288529,-0.149116,0.00698799,-0.242729,1.68845
-0.443941,-0.311374,-0.309062,-0.0800636,0.0384967,-0.265229,1.68845
-0.345511,-0.951169,-0.243198,-0.0617609,0.101576,-0.255679,1.68845
-0.249625,-0.736491,-0.0709148,-0.0947044,0.0897435,-0.216982,1.68845
-0.125243,-0.271491,-0.112119,-0.198298,0.0765201,-0.230753,1.68845
-0.0401969,0.016062,-0.287231,-0.240248,0.0760441,-0.194699,1.68845
0.0599891,0.276302,-0.32786,-0.20687,0.0619479,-0.149399,1.68845
0.0599891,0.276302,-0.32786,-0.20687,0.0619479,-0.149399,1.9104
0.14246,0.379818,-0.308167,-0.181296,0.0757526,-0.0803667,1.9104
0.155625,0.261943,-0.329351,-0.176135,0.0981872,-0.00610644,1.9104
0.0667216,0.0166176,-0.367514,-0.190524,0.106048,0.0487013,1.9104
-0.093618,-0.190688,-0.386787,-0.195567,0.103561,0.0532063,1.9104
-0.245009,-0.105241,-0.389288,-0.196619,0.11491,0.0537559,1.9104
-0.326071,0.209393,-0.384152,-0.199717,0.137461,0.0923917,1.9104
-0.290722,0.449139,-0.319747,-0.165082,0.144809,0.168896,1.9104
-0.163828,0.60304,-0.209217,-0.132756,0.141519,0.253974,1.9104
-0.0178873,0.559544,-0.141822,-0.13124,0.14014,0.348859,1.9104
0.118229,0.332062,-0.0999004,-0.125098,0.137283,0.426553,1.9104
0.229299,0.0873591,-0.0303386,-0.108691,0.145203,0.482026,1.9104
0.286286,-0.147386,-0.0116087,-0.12691,0.140823,0.495473,1.9104
0.307817,-0.0905434,-0.0931238,-0.163556,0.113084,0.484621,1.9104
0.221262,0.0585354,-0.224947,-0.166619,0.106005,0.497077,1.9104
0.0759339,0.0528782,-0.268391,-0.120274,0.0890231,0.511932,1.9104
-0.0322154,-0.150693,-0.2234,-0.0618825,0.0652401,0.491997,1.9104
-0.0819914,-0.561975,-0.169526,-0.00857585,0.0351043,0.421441,1.9104
-0.0422415,-0.849629,-0.129073,-0.00356728,-0.0137742,0.29631,1.9104
-0.0471434,-0.888484,-0.173239,-0.022556,-0.052889,0.192741,1.9104
-0.267998,-0.801852,-0.249464,0.00454986,-0.106024,0.127808,1.9104
-0.605925,-0.646976,-0.322915,0.0362451,-0.143009,0.0665179,1.9104
-1.03144,-0.647531,-0.440265,0.0491403,-0.161821,-0.0160779,1.9104
-1.49264,-0.807282,-0.61146,0.0553264,-0.179549,-0.146442,1.9104
-1.75662,-0.991136,-0.728043,0.103304,-0.180087,-0.348286,1.9104
-1.74171,-1.04685,-0.682073,0.122369,-0.11233,-0.549618,1.9104
-1.39105,-0.80828,-0.405749,0.146286,-0.0278074,-0.731656,1.9104
-0.921274,-0.0976881,-0.119565,0.114323,-0.00351542,-0.803493,1.9104
-0.672041,0.654749,0.0145582,0.0959783,-0.0547649,-0.717712,1.9104
-0.691814,0.983647,0.0419747,0.105883,-0.114944,-0.543079,1.9104
-0.561553,0.953469,0.156853,0.155308,-0.105828,-0.436655,1.9104
-0.191897,0.852046,0.403697,0.186771,-0.0361971,-0.37337,1.9104
0.26503,0.810405,0.740231,0.205559,0.00255609,-0.288882,1.9104
0.604991,0.799076,1.03409,0.18599,0.0121083,-0.167607,1.9104
0.64688,0.68733,1.2007,0.155037,-0.00349119,-0.0263882,1.9104
0.447336,0.405835,1.27763,0.142837,-0.0355631,0.0670185,1.9104
0.218121,0.111294,1.27425,0.0992234,-0.0509081,0.0832406,1.9104
0.138954,-0.0231975,1.16727,0.0381363,-0.0482347,0.0292315,1.9104
0.233888,-0.0275084,1.05149,0.0159991,-0.016506,-0.034381,1.9104
0.459009,0.0360152,1.01153,0.036009,0.0303298,-0.0559066,1.9104
0.701444,0.179429,1.02408,0.0515257,0.0798243,-0.00290215,1.9104
0.785223,0.271519,1.00963,0.0306171,0.097723,0.0984477,1.9104
0.799469,0.334585,0.94391,0.0180577,0.101111,0.171566,1.9104
0.793645,0.360264,0.890391,0.0202038,0.12753,0.220435,1.9104
0.763716,0.364235,0.905929,0.0433566,0.160132,0.256427,1.9104
0.720708,0.338648,0.953814,0.0595256,0.190026,0.279622,1.9104
0.667023,0.367248,0.972393,0.0607127,0.193216,0.2826,1.9104
0.563972,0.497758,0.925153,0.0455436,0.17554,0.284335,1.9104
0.342017,0.579176,0.867106,0.0468872,0.161595,0.295851,1.9104
0.105115,0.428197,0.808586,0.087353,0.133344,0.288714,1.9104
0.266276,-0.125688,0.714099,0.13569,0.147403,0.256323,1.9104
-0.0226548,-0.402663,0.713679,0.139282,0.113203,0.21132,1.9104
-0.409683,-0.00407496,0.59462,0.0257061,0.0986038,0.103838,1.9104
-0.630262,0.409293,0.338654,0.000438362,0.0627339,-0.000336885,1.9104
-0.630262,0.409293,0.338654,0.000438362,0.0627339,-0.000336885,2.14293
-0.603364,0.53424,0.21927,0.0432102,0.0642383,-0.0448796,2.14293
-0.439504,0.351659,0.281609,0.106643,0.0829496,-0.0649978,2.14293
-0.210833,0.223011,0.445825,0.134469,0.0789829,-0.0731971,2.14293
-0.00393734,0.311827,0.607084,0.111436,0.069445,-0.0569369,2.14293
