rotationRate_x,rotationRate_y,rotationRate_z,acceleration_x,acceleration_y,acceleration_z,relativeAltitude
0.102455,0.10221,-0.638771,-0.193441,0.298231,0.115838,0
-0.0476971,0.287877,-0.60452,-0.122778,0.300169,0.141531,0
-0.0229894,0.262778,-0.520157,-0.0902675,0.273523,0.159709,0
0.134639,0.187906,-0.445314,-0.0635347,0.232075,0.186883,0
0.253836,0.14997,-0.414462,-0.0638987,0.210728,0.247317,0
0.210427,0.129699,-0.44303,-0.0708438,0.188486,0.316934,0
0.0472689,0.146567,-0.490042,-0.051953,0.15756,0.377049,0
-0.13525,0.140604,-0.513676,-0.0349235,0.132768,0.406382,0
-0.256037,0.0786171,-0.513285,-0.0116652,0.116248,0.407025,0
-0.283722,-0.00539643,-0.468597,0.00700033,0.0915915,0.377071,0
-0.257522,-0.0545911,-0.426768,0.00860612,0.0550104,0.334716,0
-0.265933,-0.0682261,-0.416299,0.0174748,0.00573725,0.285659,0
-0.38908,0.0459381,-0.440251,0.05268,-0.0561005,0.235569,0
-0.559078,0.285411,-0.477468,0.0788324,-0.122079,0.176408,0
-0.594926,0.389485,-0.47376,0.112043,-0.162436,0.0886307,0
-0.447853,0.347002,-0.391163,0.154437,-0.181394,0.00207037,0
-0.184648,0.292381,-0.27023,0.194512,-0.214068,-0.0770982,0
-0.0400088,0.257721,-0.271632,0.22064,-0.251126,-0.0994837,0
-0.145251,0.206714,-0.344467,0.233895,-0.272094,-0.138654,0
-0.326965,0.335306,-0.42449,0.255531,-0.285071,-0.240609,0
-0.270515,0.532175,-0.395219,0.302796,-0.262301,-0.377461,0
0.0271791,0.723108,-0.212465,0.342363,-0.21393,-0.458146,0
0.187115,0.908664,-0.0687663,0.3251,-0.180614,-0.422356,0
0.0826863,0.85937,-0.0359056,0.306989,-0.173626,-0.335641,0
-0.124256,0.459557,-0.0286626,0.2609,-0.107132,-0.321728,0
-0.161884,0.223639,0.0626782,0.206736,-0.0193754,-0.419095,0
0.0422175,0.180594,0.311495,0.176512,0.0496103,-0.49539,0
0.492543,0.363343,0.637203,0.135246,0.0909249,-0.51138,0
0.927325,0.528968,0.890246,0.0737249,0.109646,-0.412114,0
1.11093,0.474374,1.01021,8.84384e-05,0.0976318,-0.250459,0
1.06829,0.398833,0.900561,-0.10572,0.0869672,-0.14897,0
0.96918,0.414964,0.654708,-0.177691,0.106942,-0.104991,0
0.925773,0.437365,0.4302,-0.177745,0.15379,-0.0664079,0
0.960356,0.414531,0.335611,-0.132744,0.211272,-0.0217986,0
1.03438,0.344069,0.406332,-0.0976994,0.267201,0.0405349,0
1.11158,0.285174,0.522521,-0.103433,0.31189,0.128459,0
1.13452,0.202936,0.562296,-0.118226,0.313901,0.227572,0
1.05135,0.162029,0.48221,-0.128778,0.306162,0.314396,0
0.838978,0.218633,0.345041,-0.126939,0.300966,0.381963,0
0.549954,0.327888,0.18827,-0.111856,0.292171,0.420516,0
0.264356,0.403898,0.0543355,-0.0971996,0.291352,0.426597,0
0.0935309,0.365547,-0.0300692,-0.0778004,0.301889,0.404006,0
0.0308784,0.252047,-0.0440486,-0.0417522,0.318809,0.379513,0
-0.0328606,0.139471,-0.0311055,-0.0193534,0.328024,0.369156,0
-0.193894,0.110627,-0.0327154,-0.00290865,0.327804,0.373756,0
-0.419433,0.0702767,-0.0235333,0.0181201,0.323206,0.365052,0
-0.631453,-0.0219099,-0.032984,0.0416502,0.316538,0.332418,0
-0.8123,-0.165802,0.0185283,0.0705124,0.315668,0.278055,0
-0.985924,-0.307928,0.194883,0.0969835,0.311504,0.207117,0
-1.07509,-0.324871,0.405604,0.0890073,0.273842,0.0999507,0
-1.03716,-0.197223,0.591806,0.0569965,0.213089,0.00803769,0
-1.03716,-0.197223,0.591806,0.0569965,0.213089,0.00803769,0.0132141
-0.939798,-0.0756688,0.706151,0.013492,0.118337,-0.045453,0.0132141
-0.813208,-0.0432017,0.708706,-0.0356919,0.0145351,-0.0684213,0.0132141
-0.749286,-0.10238,0.652349,-0.0680151,-0.0655323,-0.075866,0.0132141
-0.785741,-0.141983,0.598949,-0.0833808,-0.130531,-0.104312,0.0132141
-0.819948,-0.0901298,0.530369,-0.0896257,-0.202297,-0.171847,0.0132141
-0.856388,-0.118841,0.329621,-0.107134,-0.241353,-0.245245,0.0132141
-1.08667,-0.393674,0.00820708,-0.0908155,-0.250618,-0.285193,0.0132141
-1.34188,-0.898894,-0.181314,0.0100702,-0.259926,-0.396868,0.0132141
-1.15423,-1.2577,-0.104014,0.0748693,-0.194053,-0.635022,0.0132141
-0.632415,-1.15505,0.235218,0.0795409,-0.126416,-0.798759,0.0132141
-0.122059,-0.68748,0.542037,-0.0129405,-0.124453,-0.798902,0.0132141
0.00384896,-0.455545,0.51521,-0.106485,-0.22127,-0.623883,0.0132141
-0.0928939,-0.459748,0.205144,-0.196328,-0.28917,-0.494902,0.0132141
-0.0796757,-0.400195,-0.168031,-0.255531,-0.255747,-0.467014,0.0132141
0.17038,-0.138958,-0.47236,-0.244629,-0.16345,-0.423487,0.0132141
0.503088,0.114664,-0.585695,-0.154091,-0.071689,-0.28736,0.0132141
0.767001,0.261523,-0.554963,-0.0881948,0.000533789,-0.116409,0.0132141
0.877881,0.187184,-0.496171,-0.0877363,0.0460374,0.0319693,0.0132141
0.908549,-0.0430247,-0.501127,-0.105412,0.0611933,0.127279,0.0132141
0.90751,-0.399993,-0.591046,-0.11207,0.0803839,0.175179,0.0132141
0.882583,-0.62892,-0.662488,-0.107677,0.123308,0.18043,0.0132141
0.802983,-0.628907,-0.671094,-0.098635,0.173831,0.189034,0.0132141
0.682611,-0.512573,-0.654848,-0.0851163,0.196451,0.222715,0.0132141
0.533726,-0.410797,-0.710941,-0.0788766,0.198381,0.270939,0.0132141
0.332628,-0.317493,-0.814107,-0.061802,0.187503,0.308898,0.0132141
0.166991,-0.227846,-0.883446,-0.0266582,0.178316,0.329846,0.0132141
0.0947549,-0.228506,-0.896313,0.0126833,0.184067,0.340455,0.0132141
0.110609,-0.225102,-0.846177,0.0499094,0.181557,0.342651,0.0132141
0.14009,-0.197841,-0.769966,0.0732866,0.172206,0.347899,0.0132141
0.0991142,-0.11051,-0.727827,0.0767938,0.147238,0.363292,0.0132141
-0.0488411,-0.0329442,-0.710151,0.102237,0.117121,0.377237,0.0132141
-0.217575,-0.0497462,-0.661804,0.135699,0.0868668,0.357626,0.0132141
-0.364433,-0.125955,-0.608277,0.138092,0.0523741,0.296202,0.0132141
-0.477012,-0.231315,-0.528004,0.134827,0.0188275,0.212075,0.0132141
-0.503386,-0.349523,-0.418639,0.119618,-0.0100988,0.110317,0.0132141
-0.451509,-0.44681,-0.341001,0.0726562,-0.0408145,0.0049141,0.0132141
-0.351556,-0.420288,-0.355784,0.036523,-0.0867023,-0.0926117,0.0132141
-0.311285,-0.291677,-0.406353,0.0293097,-0.109745,-0.140162,0.0132141
-0.293571,-0.0246682,-0.397833,0.0549839,-0.111649,-0.177112,0.0132141
-0.231272,0.193466,-0.253016,0.093736,-0.110177,-0.193913,0.0132141
-0.05935,0.340326,-0.0771021,0.0838647,-0.125294,-0.209304,0.0132141
0.0846112,0.333989,0.023652,0.0676674,-0.166182,-0.18106,0.0132141
0.0963109,0.22062,0.0474712,0.0602961,-0.195235,-0.162138,0.0132141
0.0340045,0.094228,0.0325556,0.0629659,-0.202556,-0.194182,0.0132141
-0.0718949,0.0580725,-0.000183831,0.0541132,-0.192017,-0.267016,0.0132141
-0.18773,0.154963,-0.0199687,0.0449811,-0.17786,-0.345395,0.0132141
-0.246762,0.286555,-0.0639121,0.0461102,-0.170913,-0.403212,0.0132141
-0.272247,0.288812,-0.0606496,0.0793566,-0.149423,-0.402976,0.0132141
-0.210043,0.233094,0.0204492,0.0968488,-0.106061,-0.395381,0.0132141
-0.0643322,0.216142,0.119888,0.0981705,-0.063394,-0.36559,0.0132141
-0.0643322,0.216142,0.119888,0.0981705,-0.063394,-0.36559,0.029068
0.215965,0.290697,0.265226,0.109595,-0.0289334,-0.305348,0.029068
0.526583,0.43717,0.435491,0.10708,0.0142439,-0.174634,0.029068
0.708712,0.526018,0.601784,0.109224,0.0311766,-0.00851876,0.029068
0.695218,0.465454,0.707385,0.0886109,0.0366566,0.132679,0.029068
0.587362,0.244487,0.745976,0.0467904,0.043209,0.203629,0.029068
0.515513,-0.0348639,0.706742,-0.00182118,0.0547639,0.20407,0.029068
0.482942,-0.227213,0.584452,-0.0496641,0.0788755,0.180195,0.029068
0.434628,-0.262054,0.46771,-0.0672594,0.105891,0.160135,0.029068
0.393986,-0.13345,0.363034,-0.0779231,0.138691,0.154193,0.029068
0.352246,0.0957381,0.279895,-0.0786921,0.167241,0.178587,0.029068
0.306763,0.30457,0.228276,-0.08085,0.185655,0.223242,0.029068
0.304877,0.411666,0.188796,-0.0814198,0.19854,0.271769,0.029068
0.279548,0.441854,0.163206,-0.0728442,0.20958,0.335865,0.029068
0.240922,0.489808,0.166512,-0.068482,0.226105,0.375953,0.029068
0.206911,0.479165,0.171105,-0.0645371,0.240668,0.405486,0.029068
0.155033,0.44134,0.164049,-0.0554394,0.249031,0.437238,0.029068
0.0643615,0.361168,0.133344,-0.0425896,0.248884,0.458943,0.029068
-0.134091,0.256044,0.080755,-0.0247465,0.24295,0.485295,0.029068
-0.501603,0.163124,0.0350985,0.00200712,0.231156,0.492668,0.029068
-0.915129,-0.00110638,0.0153636,0.00717219,0.217662,0.456672,0.029068
-1.23607,-0.312479,-0.0289502,0.00633618,0.191445,0.346811,0.029068
-1.41353,-0.572077,-0.0782225,0.00778862,0.168822,0.163275,0.029068
-1.47158,-0.620026,-0.0844462,0.024629,0.153024,-0.0297722,0.029068
-1.48842,-0.505235,-0.0186101,0.0737214,0.134232,-0.171787,0.029068
-1.47201,-0.214271,0.174669,0.107119,0.128276,-0.321553,0.029068
-1.38088,0.140967,0.434229,0.0891725,0.0857307,-0.475869,0.029068
-1.18182,0.188942,0.559053,0.0846683,-0.0189947,-0.564575,0.029068
-0.990678,0.0675689,0.555289,0.0551196,-0.0795984,-0.619449,0.029068
-1.0506,0.075854,0.425344,0.00850107,-0.134031,-0.639466,0.029068
-1.33079,0.190903,0.173276,-0.0291201,-0.199691,-0.65611,0.029068
-1.43237,0.0664254,-0.032916,-0.00509109,-0.247422,-0.715921,0.029068
-1.2033,-0.22611,-0.0954321,0.012851,-0.233468,-0.780963,0.029068
-0.802113,-0.589152,-0.0826511,0.0113564,-0.239243,-0.79285,0.029068
-0.351067,-0.716575,-0.17029,0.0108619,-0.280666,-0.770813,0.029068
0.164346,-0.54247,-0.211255,0.0558471,-0.269044,-0.699463,0.029068
0.699554,-0.181093,-0.0943814,0.1081,-0.209764,-0.567275,0.029068
1.10613,0.108118,0.0972268,0.0899857,-0.134108,-0.362974,0.029068
1.35365,0.16487,0.26005,0.0189753,-0.06989,-0.168503,0.029068
1.51715,0.0317678,0.306125,-0.073548,-0.0219972,-0.0319288,0.029068
1.69577,-0.120819,0.220871,-0.14349,0.0257443,0.0569248,0.029068
1.83573,-0.236559,0.0783072,-0.158955,0.0822992,0.154721,0.029068
1.87,-0.246671,-0.02567,-0.134019,0.152974,0.267792,0.029068
1.75831,-0.16148,-0.0931334,-0.116403,0.217496,0.3835,0.029068
1.55744,-0.0102212,-0.145861,-0.103182,0.266712,0.481794,0.029068
1.30944,0.134928,-0.193572,-0.0878374,0.300436,0.564373,0.029068
1.03548,0.216806,-0.231112,-0.0772612,0.323456,0.628451,0.029068
0.682857,0.235501,-0.254586,-0.0580598,0.33517,0.687314,0.029068
0.288524,0.248332,-0.238847,-0.0292588,0.32238,0.706203,0.029068
-0.0581701,0.179109,-0.195314,-0.0162819,0.311431,0.698573,0.029068
-0.260953,-0.000338359,-0.223948,-0.027119,0.290917,0.628518,0.029068
-0.411932,-0.317549,-0.18762,0.0205153,0.259136,0.552894,0.029068
-0.411932,-0.317549,-0.18762,0.0205153,0.259136,0.552894,0.153259
-0.578876,-0.552774,-0.177548,0.0373077,0.219769,0.464112,0.153259
-0.790297,-0.61812,-0.188224,0.0244884,0.18156,0.354185,0.153259
-0.998473,-0.622172,-0.0953259,0.054595,0.137135,0.249703,0.153259
-1.15712,-0.58255,0.0618179,0.0779573,0.0930593,0.122231,0.153259
-1.33311,-0.533841,0.153741,0.0579421,0.0457195,0.0116288,0.153259
-1.31866,-0.471213,0.127968,0.0280885,-0.0425228,-0.13075,0.153259
-0.965399,-0.3674,0.133529,0.0221966,-0.119769,-0.327833,0.153259
-0.501836,-0.120726,0.222404,0.0282905,-0.146089,-0.45694,0.153259
-0.228239,0.18166,0.363339,0.0261019,-0.147067,-0.457213,0.153259
-0.110767,0.419836,0.378628,-0.00128283,-0.213603,-0.432764,0.153259
-0.106049,0.454226,0.245767,-0.0447576,-0.292588,-0.425146,0.153259
-0.0994876,0.300256,0.104279,-0.0528176,-0.336464,-0.42847,0.153259
0.0637349,0.386383,-0.0157654,-0.0481302,-0.33861,-0.498969,0.153259
0.224671,0.666038,-0.106673,-0.0353866,-0.3039,-0.577541,0.153259
0.200703,0.857221,-0.138931,0.0141785,-0.277134,-0.545635,0.153259
0.123447,0.83257,-0.153763,0.0483042,-0.261505,-0.482277,0.153259
0.18662,0.683329,-0.194607,0.0392063,-0.211806,-0.441243,0.153259
0.393978,0.699315,-0.205096,0.0189547,-0.132364,-0.421455,0.153259
0.673293,0.972542,-0.113888,0.0373897,-0.0509773,-0.363661,0.153259
0.921074,1.21149,0.095622,0.0927664,0.047264,-0.146635,0.153259
1.04428,1.16374,0.360198,0.0873771,0.0900219,0.032755,0.153259
1.11619,0.860926,0.594199,0.0484001,0.117141,0.158579,0.153259
1.19435,0.430981,0.714544,-0.013745,0.149013,0.234709,0.153259
1.26249,0.104577,0.738922,-0.0649375,0.186771,0.287191,0.153259
1.27642,-0.112861,0.701714,-0.0949,0.227099,0.341922,0.153259
1.18215,-0.145728,0.610769,-0.103961,0.261039,0.399991,0.153259
0.94639,-0.0301301,0.512488,-0.0962791,0.296054,0.464266,0.153259
0.632383,0.133582,0.412669,-0.0953196,0.315419,0.514806,0.153259
0.337517,0.232425,0.319375,-0.1016,0.318902,0.53287,0.153259
0.114404,0.247598,0.195528,-0.113846,0.306536,0.522917,0.153259
-0.0600377,0.186569,0.0842893,-0.0926537,0.290513,0.513875,0.153259
-0.253236,0.000604302,0.0230156,-0.0542259,0.279277,0.505377,0.153259
-0.483798,-0.222727,-0.00331666,-0.016359,0.25856,0.467617,0.153259
-0.668067,-0.345518,0.0157633,0.020359,0.211222,0.386641,0.153259
-0.832421,-0.361021,0.0304721,0.0347025,0.150662,0.296855,0.153259
-1.02119,-0.373333,0.0226905,0.036359,0.0806665,0.201592,0.153259
-1.27652,-0.406165,-0.0639617,0.0434834,-0.00986952,0.0852515,0.153259
-1.47754,-0.387576,-0.211308,0.0598441,-0.123433,-0.096316,0.153259
-1.46479,-0.213153,-0.38453,0.0835245,-0.219719,-0.306477,0.153259
-1.37518,-0.0364295,-0.513486,0.11416,-0.267125,-0.431592,0.153259
-1.1814,0.0793184,-0.569722,0.147085,-0.287446,-0.528293,0.153259
-0.788241,0.123164,-0.44841,0.166845,-0.277234,-0.614393,0.153259
-0.293475,0.024665,-0.216107,0.174359,-0.259435,-0.638574,0.153259
0.0673835,-0.18658,-0.0472423,0.165581,-0.256554,-0.599478,0.153259
0.191782,-0.413569,0.0404385,0.14211,-0.263343,-0.557382,0.153259
0.306876,-0.422415,0.110791,0.0749217,-0.254978,-0.586611,0.153259
0.477664,-0.284281,0.0822706,-0.0148329,-0.211331,-0.589424,0.153259
0.587037,-0.0715797,-0.0291005,-0.0594788,-0.155136,-0.50514,0.153259
0.5433,0.0146288,-0.131363,-0.0554481,-0.082465,-0.3667,0.153259
0.406849,-0.169101,-0.203672,-0.053761,-0.0232897,-0.259021,0.153259
0.406849,-0.169101,-0.203672,-0.053761,-0.0232897,-0.259021,0.327652
0.297402,-0.483399,-0.260239,-0.0578488,0.0260264,-0.192896,0.327652
0.341285,-0.85275,-0.263073,-0.0623863,0.0801753,-0.156967,0.327652
0.614538,-1.03547,-0.262303,-0.0581738,0.135588,-0.136531,0.327652
0.937737,-0.873367,-0.2597,-0.0594901,0.191288,-0.0597576,0.327652
1.07948,-0.532297,-0.18678,-0.0558998,0.238024,0.0659049,0.327652
1.01497,-0.222553,-0.0873192,-0.0471996,0.265971,0.183459,0.327652
0.782955,0.021199,-0.0756214,-0.0454041,0.264965,0.262841,0.327652
0.481043,0.15078,-0.147833,-0.0542201,0.24782,0.322535,0.327652
0.32829,0.104552,-0.200481,-0.0611681,0.231396,0.312058,0.327652
0.355556,-0.0355463,-0.226028,-0.0565191,0.232914,0.289647,0.327652
0.462436,-0.156568,-0.22072,-0.0436733,0.236249,0.272858,0.327652
0.498797,-0.143551,-0.243066,-0.0236023,0.228711,0.288041,0.327652
0.317454,-0.12802,-0.332182,-0.00143348,0.200916,0.333296,0.327652
0.00362184,-0.0534499,-0.401118,0.0270978,0.174412,0.374128,0.327652
-0.252512,-0.0128879,-0.397332,0.0392953,0.170822,0.372767,0.327652
-0.435167,-0.0768404,-0.338999,0.0455374,0.153899,0.35666,0.327652
-0.448989,-0.187783,-0.234257,0.0520776,0.123578,0.293641,0.327652
-0.285743,-0.319967,-0.155437,0.0615573,0.0964921,0.224714,0.327652
-0.190911,-0.426122,-0.0717364,0.060792,0.0800335,0.19238,0.327652
-0.233032,-0.397387,0.0126646,0.0524274,0.0587907,0.169275,0.327652
-0.307789,-0.315033,0.0470245,0.0420298,0.0448082,0.130142,0.327652
-0.428708,-0.244822,0.0651995,0.0417591,0.0321444,0.100843,0.327652
-0.553301,-0.147631,0.101516,0.0536001,0.0084222,0.0679268,0.327652
-0.588317,-0.0508987,0.178735,0.0335584,0.00837684,0.0238575,0.327652
-0.434714,0.0355162,0.255446,-0.0124692,0.000789523,-0.0460346,0.327652
-0.13609,0.114434,0.360867,-0.0134706,-0.0093205,-0.0709394,0.327652
0.101292,0.101347,0.463991,-0.000445455,-0.0378714,-0.0630851,0.327652
0.165476,0.253089,0.47152,-0.0363684,-0.0749985,-0.051291,0.327652
0.063819,0.322795,0.388586,-0.0411908,-0.107906,-0.052121,0.327652
-0.0629814,0.32495,0.286752,-0.0650303,-0.135085,-0.0706232,0.327652
-0.126987,0.250053,0.183127,-0.0834148,-0.128794,-0.10841,0.327652
-0.153915,0.292127,0.169416,-0.0574085,-0.130346,-0.144082,0.327652
-0.118032,0.38553,0.236975,-0.0472558,-0.124545,-0.181752,0.327652
0.0900038,0.383706,0.284028,-0.0483153,-0.13065,-0.251953,0.327652
0.417108,0.195898,0.381703,-0.0170953,-0.130093,-0.268523,0.327652
0.551048,0.124081,0.439293,-0.0212868,-0.138607,-0.218784,0.327652
0.32368,0.0276671,0.408094,-0.025364,-0.182984,-0.192178,0.327652
0.138884,0.365805,0.221296,-0.072202,-0.178434,-0.222471,0.327652
-0.0321911,0.385074,0.138968,-0.0183434,-0.125254,-0.183157,0.327652
-0.115435,0.28888,0.197645,0.0146844,-0.0831129,-0.167442,0.327652
-0.0979118,0.31443,0.219243,0.0147298,-0.0774221,-0.176378,0.327652
-0.0486999,0.335318,0.189602,0.0133683,-0.0654038,-0.145865,0.327652
-0.00997871,0.185742,0.193354,0.0503959,-0.0240736,-0.0896093,0.327652
0.0127428,0.1113,0.271379,0.0612744,0.0264613,-0.0448149,0.327652
0.0536966,0.150476,0.402197,0.0782561,0.0525559,0.00584024,0.327652
0.11161,0.233856,0.538248,0.0826522,0.0480841,0.0553086,0.327652
0.133864,0.211932,0.583762,0.0591688,0.0259854,0.104355,0.327652
0.147787,0.117441,0.51948,0.0166752,0.00159255,0.117579,0.327652
0.165434,-0.0138719,0.403278,-0.00490949,0.00311688,0.107877,0.327652
0.217666,-0.021321,0.289968,8.24332e-05,0.0226364,0.0919981,0.327652
0.205366,0.143502,0.190968,0.0162569,0.050038,0.114467,0.327652
0.115583,0.318054,0.174904,0.043223,0.0736621,0.159482,0.327652
0.0151342,0.401308,0.191428,0.0523335,0.0857849,0.204268,0.327652
-0.00953131,0.398873,0.212517,0.0428943,0.0921241,0.23006,0.327652
0.0812054,0.318184,0.23978,0.034194,0.100124,0.255943,0.327652
0.189921,0.233971,0.295763,0.0308863,0.104243,0.289683,0.327652
0.236644,0.204682,0.329169,0.00555393,0.0958274,0.317606,0.327652
0.205563,0.150514,0.334252,0.0112205,0.085832,0.344015,0.327652
0.0937053,0.0187476,0.351498,0.0255251,0.0743194,0.344146,0.327652
-0.059291,0.0199638,0.390927,0.0195134,0.0637236,0.320776,0.327652
-0.264473,0.113192,0.42844,0.0234355,0.02517,0.282693,0.327652
-0.432135,0.166053,0.401029,0.0152339,-0.0357414,0.219743,0.327652
-0.534774,0.0890496,0.280882,0.0180381,-0.0961033,0.128246,0.327652
-0.636229,-0.067818,0.188273,0.0594274,-0.130213,0.0261284,0.327652
-0.710668,-0.291497,0.170172,0.106357,-0.145148,-0.111982,0.327652
-0.548733,-0.221609,0.247212,0.141797,-0.139765,-0.28373,0.327652
-0.339638,0.0204943,0.41504,0.152032,-0.123057,-0.355101,0.327652
-0.219039,0.227522,0.59725,0.143023,-0.12313,-0.332331,0.327652
-0.138483,0.260486,0.702542,0.122706,-0.149185,-0.277979,0.327652
-0.142132,0.0578189,0.750472,0.121898,-0.163861,-0.219501,0.327652
-0.178162,-0.202385,0.781865,0.100283,-0.162823,-0.21735,0.327652
-0.217893,-0.348126,0.777614,0.0745493,-0.1377,-0.24901,0.327652
-0.256669,-0.375057,0.773411,0.0519913,-0.0999011,-0.286796,0.327652
-0.294465,-0.240271,0.739316,0.020058,-0.049389,-0.309591,0.327652
-0.351211,-0.0786951,0.720751,0.0147343,-0.00257674,-0.289177,0.327652
-0.406987,-0.0517174,0.754399,0.00465125,0.0342945,-0.268691,0.327652
-0.406987,-0.0517174,0.754399,0.00465125,0.0342945,-0.268691,0.507324
-0.322115,0.0293886,0.768493,-0.0325401,0.0564297,-0.277003,0.507324
-0.137162,0.187169,0.745904,-0.0421797,0.0700467,-0.259691,0.507324
0.0513332,0.255143,0.760299,-0.0240231,0.0877617,-0.178065,0.507324
0.192618,0.107545,0.784334,-0.0160417,0.0976131,-0.0977291,0.507324
0.317141,-0.116789,0.763131,-0.0270113,0.105523,-0.046681,0.507324
0.409293,-0.190622,0.691571,-0.0361377,0.114772,-0.0185643,0.507324
0.431116,-0.0851982,0.611551,-0.0353287,0.137267,0.0238824,0.507324
0.419854,0.104227,0.577382,-0.0277073,0.153845,0.0828876,0.507324
0.407786,0.276283,0.573516,-0.0283798,0.162589,0.164909,0.507324
0.367599,0.392463,0.564005,-0.0361461,0.163973,0.253315,0.507324
0.333232,0.438649,0.544942,-0.0359949,0.169384,0.331546,0.507324
0.271212,0.339955,0.490008,-0.032355,0.17056,0.395882,0.507324
0.16537,0.248138,0.421274,-0.0110323,0.150623,0.436392,0.507324
-0.0275111,0.272898,0.346545,0.00924123,0.124268,0.462318,0.507324
-0.224346,0.43438,0.255237,0.00441565,0.0943614,0.451921,0.507324
-0.317916,0.593964,0.147265,-0.000173241,0.0623952,0.426355,0.507324
-0.372556,0.492952,0.104216,0.0476692,0.0284561,0.410027,0.507324
-0.414591,0.276048,0.179331,0.0983984,-0.0056679,0.35938,0.507324
-0.47836,0.16858,0.310866,0.0918101,-0.0303948,0.286759,0.507324
-0.607003,0.125651,0.380126,0.0561068,-0.0730413,0.188875,0.507324
-0.692488,0.116094,0.3983,0.0303195,-0.11982,0.0912369,0.507324
-0.677694,-0.0292764,0.400447,0.0203898,-0.142543,0.00356245,0.507324
-0.536674,-0.0753046,0.442614,0.03629,-0.146072,-0.0838954,0.507324
-0.316548,0.0535403,0.571338,0.0589303,-0.12731,-0.128395,0.507324
-0.113779,0.285209,0.738002,0.0516391,-0.100142,-0.110938,0.507324
-0.0166312,0.396002,0.889932,0.0474473,-0.0956805,-0.0502126,0.507324
-0.0125029,0.342037,0.967415,0.0337894,-0.103146,-0.00926113,0.507324
-0.0742433,0.261653,0.921264,0.0335772,-0.134081,-0.036501,0.507324
-0.214784,0.302043,0.841494,0.051128,-0.12895,-0.106766,0.507324
-0.330345,0.454754,0.83133,0.102222,-0.157608,-0.221674,0.507324
-0.238066,0.458635,0.857716,0.124036,-0.16106,-0.338733,0.507324
0.00487991,0.170312,0.813947,0.0717597,-0.113881,-0.397551,0.507324
0.0786275,-0.198236,0.70331,0.093354,-0.104114,-0.373717,0.507324
-0.00339855,-0.312214,0.658628,0.162853,-0.082719,-0.351497,0.507324
-0.0138826,-0.0502793,0.734078,0.227914,-0.041306,-0.339363,0.507324
0.0739154,0.385422,0.918161,0.261331,0.0057912,-0.264689,0.507324
0.150213,0.711843,1.08052,0.241459,0.0215679,-0.130651,0.507324
0.246962,0.927471,1.17297,0.230314,-0.0018191,0.00821328,0.507324
0.341858,1.03756,1.21872,0.228602,-0.00513175,0.139212,0.507324
0.367745,1.03497,1.25573,0.235748,0.00959349,0.259087,0.507324
0.239557,0.910593,1.31429,0.253298,0.0217862,0.35928,0.507324
0.0441783,0.623727,1.39986,0.274279,0.0118899,0.386473,0.507324
-0.10066,0.341732,1.46698,0.263335,0.0169233,0.353725,0.507324
-0.197703,0.104117,1.5086,0.260158,0.0169115,0.296629,0.507324
-0.203361,-0.0586497,1.54153,0.262032,0.00790805,0.208724,0.507324
-0.123557,-0.124992,1.53884,0.244901,0.00978273,0.119301,0.507324
-0.0961594,-0.13261,1.5096,0.232346,0.0163947,0.0702537,0.507324
-0.175466,-0.0863466,1.45584,0.200379,0.0178466,0.0241249,0.507324
-0.223517,-0.154405,1.34514,0.165015,0.0127388,-0.0379064,0.507324
-0.127631,-0.327969,1.25351,0.164323,0.0250272,-0.10985,0.507324
0.0686932,-0.295707,1.19532,0.156738,0.0485073,-0.157769,0.507324
0.244104,-0.0372368,1.17447,0.128703,0.076541,-0.147249,0.507324
0.295603,0.196495,1.13404,0.0869586,0.0827604,-0.0775818,0.507324
0.324789,0.265772,1.02388,0.0578212,0.0496414,-0.0218959,0.507324
0.324789,0.265772,1.02388,0.0578212,0.0496414,-0.0218959,0.578674
0.397016,0.301462,0.860176,0.0481743,0.0317563,0.0184615,0.578674
0.408415,0.38986,0.735831,0.0718717,0.0391858,0.0743932,0.578674
0.294528,0.459481,0.697578,0.107714,0.0544065,0.141948,0.578674
0.118431,0.370323,0.705204,0.131866,0.0479295,0.172097,0.578674
-0.0427995,0.274118,0.690503,0.14616,0.0223562,0.161591,0.578674
-0.232812,0.179031,0.661049,0.163822,-0.000650942,0.150217,0.578674
-0.506541,0.133295,0.625928,0.176572,-0.0355504,0.115644,0.578674
-0.862365,0.240939,0.529285,0.174617,-0.0993235,0.0291603,0.578674
-1.27804,0.143284,0.394989,0.168451,-0.104554,-0.0562664,0.578674
-1.48171,-0.31359,0.349249,0.183518,-0.103284,-0.222386,0.578674
-1.25482,-0.543779,0.383477,0.199294,-0.096367,-0.460224,0.578674
-0.679928,-0.393667,0.597054,0.248328,-0.0660025,-0.608509,0.578674
-0.0754451,0.0517376,0.989438,0.284859,-0.0262464,-0.593652,0.578674
0.2405,0.509506,1.31075,0.247302,-0.0083231,-0.444228,0.578674
0.325086,0.755938,1.45657,0.153013,-0.00484094,-0.294377,0.578674
0.472066,0.758748,1.51266,0.0731752,0.0275384,-0.212519,0.578674
0.692553,0.69564,1.58845,0.0153607,0.0879394,-0.151352,0.578674
0.889183,0.565407,1.69804,-0.0474131,0.144672,-0.0818456,0.578674
1.01556,0.319872,1.74141,-0.109648,0.169809,-0.0204392,0.578674
1.05473,0.09632,1.6211,-0.167294,0.173765,0.0294185,0.578674
0.981089,-0.0132034,1.39857,-0.18765,0.17111,0.0757447,0.578674
0.86724,0.020979,1.15685,-0.166413,0.175904,0.118346,0.578674
0.718154,0.168278,0.960098,-0.116233,0.200309,0.163949,0.578674
0.561358,0.339653,0.877747,-0.0531961,0.234471,0.204917,0.578674
0.408526,0.528592,0.870349,-0.0100078,0.254311,0.24001,0.578674
0.246172,0.651948,0.884264,0.0118728,0.248074,0.272738,0.578674
0.101747,0.665828,0.918391,0.0460633,0.216078,0.295571,0.578674
-0.0415116,0.576876,0.951364,0.0713773,0.179298,0.299007,0.578674
-0.215359,0.5146,0.974665,0.0696084,0.141836,0.284316,0.578674
-0.385864,0.453202,0.989747,0.0736284,0.0957451,0.251867,0.578674
-0.508485,0.45668,0.974011,0.0727396,0.0636924,0.214936,0.578674
-0.625406,0.506313,0.944391,0.0707036,0.0363724,0.177026,0.578674
-0.667187,0.588673,0.938351,0.0786022,0.0118051,0.128817,0.578674
-0.636244,0.671933,0.982134,0.0931852,-0.00151506,0.0904667,0.578674
-0.553407,0.699881,1.07895,0.115349,-0.0263572,0.0515203,0.578674
-0.43572,0.647644,1.23335,0.141305,-0.0439898,0.00971043,0.578674
-0.333014,0.506715,1.42599,0.128485,-0.0435089,-0.039404,0.578674
-0.209275,0.31036,1.59761,0.11085,-0.0608241,-0.118202,0.578674
-0.0297532,0.177171,1.71379,0.0868326,-0.0685437,-0.232588,0.578674
0.106933,0.257849,1.7729,0.0845382,-0.0815454,-0.316676,0.578674
0.0800941,0.355452,1.77355,0.0716842,-0.110603,-0.361425,0.578674
-0.00361069,0.131812,1.69532,-0.00158732,-0.0921877,-0.422796,0.578674
0.00962681,-0.0779931,1.54391,-0.0446577,-0.0832763,-0.512221,0.578674
0.161273,0.108671,1.37892,-0.0441259,-0.0675507,-0.571555,0.578674
0.382285,0.625667,1.31544,-0.00110876,-0.0274634,-0.521417,0.578674
0.431605,1.07397,1.36222,0.026797,0.0388034,-0.310535,0.578674
0.351785,1.23514,1.44778,0.0171719,0.0671777,-0.084564,0.578674
0.277914,1.10415,1.4934,0.00840511,0.0761817,0.108029,0.578674
0.261815,0.769867,1.55828,0.0388087,0.0835283,0.254059,0.578674
0.302709,0.381057,1.6819,0.0716317,0.110265,0.36042,0.578674
0.330852,0.0780538,1.81336,0.0750773,0.13638,0.426242,0.578674
0.205388,-0.128245,1.91727,0.0817284,0.149557,0.481836,0.578674
-0.0120446,-0.38993,2.0011,0.107099,0.141377,0.475128,0.578674
-0.208964,-0.697197,1.99348,0.136373,0.115132,0.38491,0.578674
-0.208964,-0.697197,1.99348,0.136373,0.115132,0.38491,0.779495
-0.275047,-0.899898,1.84724,0.194049,0.0881217,0.202023,0.779495
-0.364023,-1.05332,1.62345,0.309476,0.119779,0.0307863,0.779495
-0.482022,-1.2227,1.64544,0.537117,0.207885,-0.171526,0.779495
-0.309679,-1.05549,2.03077,0.685798,0.284339,-0.393444,0.779495
0.195095,-0.610404,2.47895,0.684899,0.333264,-0.510643,0.779495
0.653664,0.0250248,2.75001,0.577204,0.306345,-0.435924,0.779495
0.768197,0.580524,2.74894,0.460192,0.214192,-0.225542,0.779495
0.581618,0.990359,2.57735,0.345244,0.144247,-0.0233142,0.779495
0.31236,1.18062,2.36938,0.276122,0.0702474,0.10311,0.779495
0.150329,1.10747,2.15997,0.215342,0.00106622,0.155868,0.779495
0.0969914,0.79628,1.94962,0.178807,-0.0561053,0.174328,0.779495
0.108966,0.485408,1.73618,0.147282,-0.097119,0.15511,0.779495
0.0814439,0.368427,1.44574,0.0898862,-0.132664,0.124099,0.779495
-0.00875499,0.497394,1.06594,0.0444007,-0.184559,0.0796884,0.779495
-0.132565,0.669272,0.655849,0.0393132,-0.221462,0.0360304,0.779495
-0.261764,0.715439,0.341102,0.0605185,-0.213684,-0.0037567,0.779495
-0.294426,0.607715,0.252343,0.0879591,-0.190949,-0.0805931,0.779495
-0.176037,0.562052,0.296751,0.0809861,-0.156032,-0.161609,0.779495
0.0935404,0.627571,0.386936,0.0582536,-0.129155,-0.213236,0.779495
0.381712,0.784204,0.427133,0.0246877,-0.120895,-0.189288,0.779495
0.473982,0.93215,0.39891,-0.0192746,-0.10902,-0.0872042,0.779495
0.347331,1.08504,0.329683,-0.0792183,-0.0860034,0.00631529,0.779495
0.164403,1.16995,0.244762,-0.119285,-0.080462,0.0376076,0.779495
0.099568,1.07076,0.16945,-0.107754,-0.0896691,0.0176165,0.779495
0.0225355,0.862585,0.100246,-0.108125,-0.0711092,-0.0117705,0.779495
-0.25413,0.381072,0.0411782,-0.118842,-0.0292634,-0.0484388,0.779495
-0.577052,-0.184606,-0.0633397,-0.16339,0.00680953,-0.16761,0.779495
-0.580167,-0.326634,-0.149131,-0.207474,0.0768156,-0.389706,0.779495
-0.268793,0.0207318,-0.103153,-0.196949,0.171827,-0.520585,0.779495
0.162924,0.625808,0.101498,-0.154315,0.25756,-0.482408,0.779495
0.444837,0.949604,0.428134,-0.111855,0.328093,-0.264807,0.779495
0.523931,0.769831,0.782687,-0.131611,0.351299,-0.0302444,0.779495
0.453626,0.275245,0.996382,-0.194142,0.324493,0.12467,0.779495
0.364627,-0.295453,1.04523,-0.25624,0.272375,0.205411,0.779495
0.280232,-0.670625,0.930603,-0.2857,0.204837,0.244874,0.779495
0.140678,-0.73009,0.68887,-0.273903,0.141854,0.278244,0.779495
-0.100457,-0.597786,0.424581,-0.221657,0.102948,0.321609,0.779495
-0.388241,-0.495977,0.226391,-0.16222,0.0824564,0.349181,0.779495
-0.577747,-0.524492,0.10926,-0.098921,0.0610238,0.325965,0.779495
-0.629707,-0.606001,0.0364252,-0.0498988,0.0444221,0.280731,0.779495
-0.635407,-0.618877,-0.027471,-0.00514816,0.00752243,0.223372,0.779495
-0.636193,-0.592112,-0.104328,0.0367315,-0.0267591,0.172118,0.779495
-0.654592,-0.462613,-0.165892,0.0756368,-0.0465835,0.135616,0.779495
-0.841515,-0.364679,-0.188233,0.122721,-0.0704423,0.122521,0.779495
-1.02125,-0.248297,-0.172892,0.147114,-0.099684,0.0314338,0.779495
-1.0346,-0.156138,-0.143881,0.145628,-0.114887,-0.112018,0.779495
-0.92436,-0.170925,-0.116923,0.141144,-0.140192,-0.258606,0.779495
-0.653784,-0.274075,-0.0663528,0.169613,-0.177659,-0.417004,0.779495
-0.268469,-0.152306,-0.00612549,0.159698,-0.172009,-0.544372,0.779495
-0.00845089,0.178958,0.0896766,0.14721,-0.143146,-0.578996,0.779495
0.0543805,0.495054,0.189356,0.122879,-0.12872,-0.539682,0.779495
0.0944891,0.734414,0.220293,0.0600484,-0.129711,-0.526261,0.779495
0.149532,0.82589,0.184445,0.0114411,-0.120412,-0.497767,0.779495
0.149532,0.82589,0.184445,0.0114411,-0.120412,-0.497767,0.938034
0.170249,0.763273,0.123398,-0.024606,-0.119301,-0.457141,0.938034
0.164582,0.595537,0.00170276,-0.0603141,-0.101603,-0.404081,0.938034
0.135888,0.404724,-0.0590511,-0.0572417,-0.0817214,-0.367956,0.938034
0.200304,0.445199,0.0144525,-0.0254108,-0.0275644,-0.323068,0.938034
0.380912,0.717425,0.174852,-3.41441e-05,0.03972,-0.267716,0.938034
0.532297,0.960724,0.393255,0.0153926,0.0905012,-0.152311,0.938034
0.602203,0.923675,0.586861,0.00270009,0.112535,0.00608212,0.938034
0.648454,0.520838,0.72016,-0.0311903,0.101871,0.132221,0.938034
0.691493,-0.0668191,0.786901,-0.0575883,0.0946484,0.201771,0.938034
0.717518,-0.42998,0.775132,-0.0875507,0.092084,0.209352,0.938034
0.718921,-0.412952,0.65192,-0.129569,0.0917517,0.167082,0.938034
0.713224,-0.277149,0.495139,-0.143995,0.089413,0.146349,0.938034
0.695855,-0.0816687,0.367659,-0.102889,0.0904329,0.171936,0.938034
0.637157,0.147635,0.316104,-0.0654137,0.114868,0.22434,0.938034
0.591673,0.287488,0.339778,-0.0408206,0.146821,0.290591,0.938034
0.613875,0.287037,0.374427,-0.0292252,0.155378,0.335417,0.938034
0.590501,0.158835,0.361578,-0.0418583,0.151332,0.385917,0.938034
0.468681,-0.0553299,0.300273,-0.0409226,0.135809,0.438533,0.938034
0.282067,-0.267739,0.197582,-0.0300833,0.111661,0.445898,0.938034
0.0612099,-0.354361,0.0570541,-0.025568,0.0975817,0.416054,0.938034
-0.156347,-0.296741,-0.0457391,-0.017797,0.10208,0.342388,0.938034
-0.309234,-0.290979,-0.0990439,0.0221753,0.0962465,0.25692,0.938034
-0.381685,-0.3248,-0.136197,0.0615339,0.077107,0.147622,0.938034
-0.457318,-0.405227,-0.137442,0.0975318,0.0637993,0.0478027,0.938034
-0.607527,-0.389201,-0.10891,0.115333,0.0656101,-0.0524154,0.938034
-0.761424,-0.328556,-0.0851186,0.117785,0.0652822,-0.145464,0.938034
-0.769495,-0.246543,-0.0866069,0.0880967,0.0502388,-0.261903,0.938034
-0.646517,-0.160155,-0.061478,0.0534452,0.0514588,-0.377532,0.938034
-0.449243,0.0431155,0.036075,0.0414661,0.0607733,-0.448357,0.938034
-0.366297,0.129135,0.113584,0.0342153,0.0501168,-0.422006,0.938034
-0.399319,0.0706886,0.148351,0.0270677,0.0205695,-0.327728,0.938034
-0.483141,-0.0825475,0.113664,0.00224643,-0.0326689,-0.285141,0.938034
-0.55022,-0.281697,0.0489176,-0.0229877,-0.0711419,-0.29174,0.938034
-0.623811,-0.492067,-0.10031,-0.047122,-0.106759,-0.328092,0.938034
-0.666345,-0.607685,-0.373584,-0.0864493,-0.148439,-0.388931,0.938034
-0.586689,-0.53514,-0.692574,-0.0886935,-0.184647,-0.470305,0.938034
-0.34832,-0.120261,-0.900156,-0.045492,-0.163364,-0.524082,0.938034
0.0373961,0.451644,-0.897781,0.0151679,-0.0945029,-0.509876,0.938034
0.437231,0.871287,-0.739073,0.0333558,0.000828564,-0.369097,0.938034
0.761912,0.945224,-0.59259,0.00513478,0.063966,-0.161399,0.938034
0.913866,0.717674,-0.520821,-0.0709463,0.106251,0.0495222,0.938034
0.926128,0.338373,-0.543403,-0.138721,0.125317,0.200537,0.938034
0.888641,0.0544767,-0.669002,-0.197886,0.129733,0.271685,0.938034
0.759359,-0.0789497,-0.83607,-0.231946,0.145273,0.315547,0.938034
0.573094,0.019387,-0.96303,-0.235926,0.170397,0.333911,0.938034
0.391907,0.180734,-1.03043,-0.22059,0.176636,0.354992,0.938034
0.299625,0.250477,-1.06802,-0.203745,0.17722,0.370303,0.938034
0.327622,0.230041,-1.08459,-0.202205,0.178996,0.379352,0.938034
0.404498,0.174583,-1.09091,-0.200581,0.172086,0.392979,0.938034
0.416104,0.0319478,-1.08903,-0.183795,0.171538,0.43325,0.938034
0.314228,-0.0767337,-1.0879,-0.156495,0.162304,0.469895,0.938034
0.105335,-0.173559,-1.10347,-0.125184,0.139864,0.489096,0.938034
-0.0972857,-0.339963,-1.10048,-0.0778062,0.0986798,0.466941,0.938034
-0.225319,-0.685893,-1.01031,-0.0105293,0.0787684,0.396578,0.938034
-0.299572,-1.04888,-0.787796,0.0520139,0.0780006,0.279564,0.938034
-0.299572,-1.04888,-0.787796,0.0520139,0.0780006,0.279564,1.05165
-0.544601,-1.26449,-0.58352,0.0677642,0.0727775,0.177884,1.05165
-0.794635,-1.20809,-0.533791,0.0652038,0.00519679,0.0619731,1.05165
-0.775429,-0.744461,-0.601951,0.0370447,-0.0727618,-0.132405,1.05165
-0.565694,-0.1031,-0.58062,0.0455875,-0.09968,-0.281073,1.05165
-0.364142,0.405332,-0.431112,0.0555797,-0.081795,-0.280592,1.05165
-0.269147,0.418251,-0.246287,0.0622938,-0.0886997,-0.145988,1.05165
-0.208212,0.203088,-0.1241,0.0565415,-0.134624,-0.0439889,1.05165
-0.121231,-0.0210234,-0.088424,0.0481604,-0.188883,-0.0402883,1.05165
-0.123726,-0.0901417,-0.106608,0.026736,-0.216193,-0.0966956,1.05165
-0.205916,-0.0935807,-0.156762,0.0292319,-0.229457,-0.168176,1.05165
-0.230759,0.0156267,-0.242229,0.0344366,-0.251765,-0.275238,1.05165
-0.109392,0.27158,-0.273619,0.0624866,-0.248185,-0.426308,1.05165
-0.0606137,0.427135,-0.258369,0.0830861,-0.206559,-0.507439,1.05165
-0.0857039,0.425951,-0.191905,0.109046,-0.182894,-0.523622,1.05165
-0.0680271,0.331645,-0.0945415,0.144473,-0.174855,-0.538141,1.05165
0.0229393,0.305753,0.0530576,0.165148,-0.14111,-0.553216,1.05165
0.233555,0.437852,0.222349,0.161088,-0.0906119,-0.549279,1.05165
0.58981,0.720796,0.368392,0.122259,-0.0451393,-0.51406,1.05165
0.86931,0.898713,0.548564,0.100494,0.010202,-0.36113,1.05165
0.973829,0.914899,0.773531,0.107303,0.0573976,-0.130069,1.05165
0.93222,0.667176,0.986317,0.0933594,0.0890334,0.0770608,1.05165
0.808371,0.259802,1.09623,0.0556936,0.0821602,0.204221,1.05165
0.738189,-0.129528,1.1071,0.0107152,0.0642019,0.232985,1.05165
0.741027,-0.323582,1.00772,-0.0170734,0.0625638,0.202695,1.05165
0.721781,-0.248176,0.855251,-0.0472041,0.0777611,0.183284,1.05165
0.688565,-0.033902,0.746749,-0.0590484,0.11769,0.207012,1.05165
0.672622,0.15945,0.689001,-0.0547085,0.163611,0.260683,1.05165
0.66836,0.268514,0.686508,-0.0342744,0.201366,0.342797,1.05165
0.633935,0.303522,0.712641,-0.0192672,0.233701,0.435159,1.05165
0.526273,0.277707,0.728595,-0.0279721,0.260396,0.530457,1.05165
0.336854,0.1563,0.705356,-0.0368819,0.270331,0.619067,1.05165
0.0706857,-0.0756459,0.617983,-0.0398235,0.257031,0.68432,1.05165
-0.276469,-0.378589,0.465701,-0.0374978,0.23811,0.696972,1.05165
-0.667711,-0.658952,0.275126,-0.0204176,0.205668,0.635126,1.05165
-1.00524,-0.87646,0.0604827,0.00605495,0.17455,0.472074,1.05165
-1.22622,-0.994759,-0.112699,0.0311703,0.166134,0.238841,1.05165
-1.33414,-0.719595,-0.184139,0.0792722,0.166557,-0.0162343,1.05165
-1.28237,-0.246879,-0.156079,0.134532,0.139691,-0.233746,1.05165
-1.07446,0.31376,-0.0306082,0.175161,0.118204,-0.386749,1.05165
-0.897437,0.667958,0.11762,0.174676,0.0773953,-0.41612,1.05165
-0.825088,0.749874,0.187738,0.122131,0.0217972,-0.339184,1.05165
-0.743265,0.584808,0.148801,0.0503799,-0.0513403,-0.276492,1.05165
-0.644959,0.271328,0.0756882,0.0208596,-0.119681,-0.252544,1.05165
-0.679179,-0.0209206,0.0238398,0.0115692,-0.155314,-0.238308,1.05165
-0.802749,-0.166814,0.01833,0.00851801,-0.175627,-0.260396,1.05165
-0.843521,-0.300912,-0.000635228,-0.0094554,-0.178097,-0.354511,1.05165
-0.720058,-0.502727,-0.0215292,-0.0293023,-0.193679,-0.495685,1.05165
-0.450837,-0.554636,-0.117994,-0.0613794,-0.212183,-0.635685,1.05165
-0.287494,-0.392671,-0.280834,-0.0929347,-0.209268,-0.691327,1.05165
-0.258915,-0.157026,-0.428875,-0.101288,-0.18597,-0.643953,1.05165
-0.139073,0.0833379,-0.571417,-0.0957527,-0.156316,-0.592264,1.05165
0.167627,0.330103,-0.622928,-0.0567927,-0.120333,-0.553496,1.05165
0.569245,0.588828,-0.54863,-0.0276539,-0.0484472,-0.468844,1.05165
0.927309,0.654338,-0.335023,-0.00332978,0.0464772,-0.302734,1.05165
0.927309,0.654338,-0.335023,-0.00332978,0.0464772,-0.302734,1.16263
1.20704,0.473488,-0.0586025,0.0137999,0.126106,-0.11492,1.16263
1.37614,0.150152,0.199668,0.000610888,0.18921,0.0423354,1.16263
1.4104,-0.129569,0.342501,-0.0555815,0.228523,0.15645,1.16263
1.34118,-0.270662,0.319621,-0.12325,0.231903,0.242803,1.16263
1.23925,-0.263673,0.19707,-0.164388,0.228309,0.306496,1.16263
1.11451,-0.130065,0.0363152,-0.184449,0.235141,0.358771,1.16263
0.941164,0.0343154,-0.105608,-0.181459,0.247269,0.428778,1.16263
0.726291,0.137118,-0.206619,-0.169731,0.263505,0.504375,1.16263
0.508238,0.127133,-0.327119,-0.168147,0.261654,0.5681,1.16263
0.311056,0.0476808,-0.500381,-0.178023,0.238726,0.601511,1.16263
0.077506,-0.102571,-0.634922,-0.155801,0.224152,0.613248,1.16263
-0.161389,-0.362615,-0.634872,-0.0991203,0.234395,0.6086,1.16263
-0.369271,-0.587766,-0.547256,-0.0471348,0.239075,0.528518,1.16263
-0.521733,-0.77302,-0.361675,-0.00878379,0.229828,0.411885,1.16263
-0.500104,-0.814381,-0.242757,-0.0061675,0.183436,0.253026,1.16263
-0.488857,-0.690333,-0.311613,-0.0436273,0.104481,0.100968,1.16263
-0.653242,-0.441319,-0.483159,-0.0532759,0.0303149,0.0274585,1.16263
-0.927181,-0.13102,-0.657914,-0.0463309,-0.0246356,-0.00817031,1.16263
-1.10223,0.116343,-0.750799,-0.0168649,-0.0507875,-0.0549373,1.16263
-0.997639,0.246474,-0.699525,0.0317153,-0.0668868,-0.13077,1.16263
-0.722193,0.242466,-0.477487,0.0980199,-0.0721684,-0.182718,1.16263
-0.430864,0.252729,-0.189128,0.131777,-0.0695148,-0.184781,1.16263
-0.271588,0.277521,0.000471092,0.105087,-0.0937238,-0.134973,1.16263
-0.272421,0.274841,0.0452322,0.0571918,-0.152387,-0.0599911,1.16263
-0.335107,0.298367,0.0431685,0.0465583,-0.205059,-0.0204652,1.16263
-0.350579,0.252935,0.058965,0.0551261,-0.226236,-0.0461597,1.16263
-0.263179,0.18266,0.107163,0.0741218,-0.240149,-0.144551,1.16263
-0.162918,0.0200171,0.123828,0.0845152,-0.251469,-0.274349,1.16263
-0.167567,-0.151765,0.138169,0.0915074,-0.250848,-0.384477,1.16263
-0.161502,-0.161666,0.229505,0.127458,-0.243811,-0.521785,1.16263
-0.0299313,-0.064897,0.403108,0.136672,-0.212429,-0.64548,1.16263
0.103247,-0.0732384,0.649652,0.109551,-0.162885,-0.697761,1.16263
0.193343,-0.0839612,0.797405,0.0469784,-0.148351,-0.681065,1.16263
0.390086,0.171568,0.723187,-0.0475071,-0.152025,-0.662352,1.16263
0.648838,0.620004,0.564743,-0.0981903,-0.106256,-0.568428,1.16263
0.857022,1.08366,0.524012,-0.0544027,-0.00853151,-0.355053,1.16263
0.923451,1.36658,0.68211,0.00780819,0.124943,-0.0712167,1.16263
0.819937,1.36628,0.955216,0.0493492,0.224132,0.193467,1.16263
0.605016,1.03867,1.29952,0.0779252,0.262954,0.399477,1.16263
0.489799,0.409256,1.733,0.121053,0.277821,0.50349,1.16263
0.541704,-0.258757,2.14327,0.136059,0.297358,0.498844,1.16263
0.58241,-0.678803,2.42137,0.0910221,0.327211,0.473304,1.16263
0.477792,-0.756716,2.51903,0.0382325,0.309373,0.47597,1.16263
0.241339,-0.660516,2.41382,-0.0259507,0.263416,0.484849,1.16263
-0.0190282,-0.480802,2.18745,-0.0558264,0.202529,0.47784,1.16263
-0.223263,-0.236187,1.9054,-0.059671,0.136346,0.439098,1.16263
-0.37521,-0.0241282,1.67102,-0.0162799,0.0867752,0.404082,1.16263
-0.428579,0.17466,1.55503,0.0482692,0.0544641,0.362916,1.16263
-0.385856,0.21197,1.49584,0.0976466,0.0319192,0.326179,1.16263
-0.374753,0.149272,1.40991,0.117832,-0.0219972,0.287104,1.16263
-0.607588,-0.0886545,1.26152,0.137797,-0.088799,0.260901,1.16263
-0.860694,-0.186205,1.01499,0.138845,-0.170514,0.157254,1.16263
-0.671093,0.0144563,0.715878,0.10171,-0.258868,-0.0847089,1.16263
-0.671093,0.0144563,0.715878,0.10171,-0.258868,-0.0847089,1.25511
-0.193364,0.252623,0.478643,0.0762346,-0.267417,-0.282537,1.25511
0.2542,0.396748,0.313913,0.0598285,-0.257314,-0.324214,1.25511
0.380188,0.469818,0.0458249,0.00261492,-0.26018,-0.247916,1.25511
0.308101,0.443178,-0.300115,-0.0824694,-0.260066,-0.154345,1.25511
0.352571,0.489893,-0.712242,-0.153042,-0.256673,-0.163614,1.25511
0.444118,0.686481,-1.15537,-0.210872,-0.227552,-0.197341,1.25511
0.483531,0.986186,-1.48722,-0.216463,-0.164112,-0.185784,1.25511
0.436565,1.34139,-1.71356,-0.226089,-0.0895776,-0.154869,1.25511
0.214228,1.3836,-1.80423,-0.199924,-0.0248552,-0.0652907,1.25511
-0.0406251,1.03192,-1.76997,-0.15993,-0.00153288,-0.0149801,1.25511
-0.103251,0.442001,-1.68398,-0.113442,-0.0182749,-0.0743694,1.25511
-0.0421167,-0.0623024,-1.60875,-0.10564,-0.00657108,-0.200954,1.25511
-0.062471,-0.392142,-1.50852,-0.102271,0.0142933,-0.293377,1.25511
-0.270488,-0.382895,-1.47611,-0.106659,0.046597,-0.325769,1.25511
-0.658653,-0.147038,-1.56314,-0.118495,0.0358201,-0.33992,1.25511
-1.02635,-0.107236,-1.59278,-0.0960104,0.0150301,-0.355384,1.25511
-1.02247,-0.464672,-1.30966,0.00307029,0.0380424,-0.4141,1.25511
-0.521814,-0.841839,-0.818855,0.104052,0.0890875,-0.534252,1.25511
0.265859,-0.792454,-0.266523,0.137985,0.151954,-0.599902,1.25511
0.862948,-0.412049,0.234279,0.102502,0.211331,-0.513883,1.25511
1.05453,-0.19228,0.560138,0.0503003,0.232754,-0.263336,1.25511
0.950442,-0.203358,0.623439,-0.0277117,0.199887,-0.011928,1.25511
0.687276,-0.357145,0.478783,-0.116311,0.157396,0.147157,1.25511
0.50586,-0.605269,0.255385,-0.166403,0.12064,0.207733,1.25511
0.563874,-0.792796,0.0455397,-0.168893,0.110175,0.197527,1.25511
0.729858,-0.780809,-0.11303,-0.130312,0.123677,0.184413,1.25511
0.845191,-0.618631,-0.187914,-0.0786909,0.154639,0.228303,1.25511
0.835699,-0.440536,-0.208383,-0.0346145,0.192443,0.325123,1.25511
0.689079,-0.379755,-0.259397,-0.0184097,0.210372,0.437653,1.25511
0.475918,-0.417606,-0.342579,-0.0166742,0.204525,0.508372,1.25511
0.279858,-0.421236,-0.449373,0.00305602,0.18205,0.531943,1.25511
0.112324,-0.290982,-0.593268,0.0132379,0.1574,0.502707,1.25511
-0.0946686,-0.170532,-0.7272,0.0127411,0.151476,0.473946,1.25511
-0.346598,-0.103281,-0.8024,0.0329762,0.144929,0.450748,1.25511
-0.557346,-0.0722012,-0.830936,0.0493115,0.127513,0.39332,1.25511
-0.683928,-0.15105,-0.832528,0.0368752,0.121265,0.300822,1.25511
-0.698838,-0.333781,-0.792833,0.0222248,0.105918,0.19772,1.25511
-0.699588,-0.457455,-0.836603,0.015403,0.0681052,0.111145,1.25511
-0.795283,-0.364881,-0.952836,-0.0211976,0.0354602,0.0305042,1.25511
-0.925996,-0.0775498,-0.998915,-0.0170031,0.0174134,-0.0419521,1.25511
-0.948313,0.21405,-0.871538,0.0319658,0.0182963,-0.0888286,1.25511
-0.752526,0.422991,-0.609217,0.0817977,0.0145704,-0.129152,1.25511
-0.456634,0.454787,-0.331752,0.0855762,0.00249128,-0.133027,1.25511
-0.304379,0.322668,-0.121704,0.0537461,-0.0316888,-0.0665821,1.25511
-0.254517,0.160496,0.0198961,0.0326069,-0.0725857,-0.0079478,1.25511
-0.225194,0.0412006,0.0781914,0.012925,-0.117162,-0.0140439,1.25511
-0.241001,0.0770477,0.0641109,-0.0373373,-0.134803,-0.0708214,1.25511
-0.313683,0.0511296,-0.0327426,-0.0780081,-0.155917,-0.126445,1.25511
-0.339875,-0.0771913,-0.18127,-0.0690446,-0.196594,-0.20598,1.25511
-0.350178,-0.168327,-0.294722,-0.0256512,-0.207313,-0.31041,1.25511
-0.390731,-0.0268089,-0.301326,0.0234336,-0.174962,-0.431141,1.25511
-0.364633,0.26074,-0.270176,0.0489827,-0.146906,-0.541034,1.25511
-0.23966,0.457464,-0.204064,0.0741262,-0.131491,-0.604335,1.25511
-0.127237,0.525579,-0.0936107,0.0888852,-0.101905,-0.599724,1.25511
-0.127237,0.525579,-0.0936107,0.0888852,-0.101905,-0.599724,1.37401
-0.0103397,0.506971,0.0607117,0.10837,-0.0793192,-0.548831,1.37401
0.216727,0.59619,0.222032,0.104088,-0.0539721,-0.509352,1.37401
0.510277,0.753442,0.422123,0.0845989,-0.0135814,-0.424688,1.37401
0.780573,0.846832,0.667794,0.0714132,0.0258441,-0.266804,1.37401
0.925042,0.831114,0.903056,0.0492126,0.0620163,-0.0619061,1.37401
0.91005,0.653312,1.07899,0.00930247,0.075729,0.132712,1.37401
0.759293,0.266968,1.15171,-0.0256132,0.0669205,0.286284,1.37401
0.574222,-0.277996,1.10764,-0.0463491,0.035704,0.362085,1.37401
0.46517,-0.621979,0.982713,-0.0573079,0.0161062,0.351632,1.37401
0.429481,-0.692441,0.831877,-0.0649312,0.0363297,0.280075,1.37401
0.47894,-0.53569,0.738844,-0.0550516,0.0751714,0.235054,1.37401
0.565458,-0.291599,0.704107,-0.0328113,0.108698,0.230774,1.37401
0.630603,-0.0391707,0.700198,-0.0170567,0.141613,0.264793,1.37401
0.60085,0.0738429,0.660309,-0.014485,0.150789,0.346793,1.37401
0.462805,0.0211192,0.563544,-0.0364688,0.150262,0.425561,1.37401
0.307856,-0.0796361,0.476396,-0.0421996,0.141741,0.455209,1.37401
0.122831,-0.25384,0.400748,-0.0116334,0.132019,0.436858,1.37401
-0.127339,-0.407702,0.319513,0.0106577,0.137501,0.380214,1.37401
-0.307976,-0.427689,0.193407,0.0149258,0.120999,0.232627,1.37401
-0.336065,-0.349829,-0.0312468,0.0087964,0.0933639,0.057782,1.37401
-0.258241,-0.0524123,-0.268495,0.0183909,0.0548024,-0.0972777,1.37401
-0.249659,0.326637,-0.338408,0.0609822,0.0702941,-0.161878,1.37401
-0.359599,0.527156,-0.272776,0.1017,0.0981958,-0.112625,1.37401
-0.467349,0.481823,-0.206073,0.109068,0.083396,-0.0492007,1.37401
-0.465268,0.372308,-0.21167,0.083652,0.0402884,-0.0293053,1.37401
-0.404591,0.41135,-0.305685,0.0334267,-0.00718412,-0.0330759,1.37401
-0.357211,0.586475,-0.375861,-0.000180081,-0.0249574,-0.0104319,1.37401
-0.382509,0.710857,-0.372925,-0.00313823,-0.0146399,0.06443,1.37401
-0.455457,0.706614,-0.31981,0.00776556,-0.0180384,0.147816,1.37401
-0.564078,0.499049,-0.280175,0.00538093,-0.0389581,0.212605,1.37401
-0.619674,0.125127,-0.235299,0.00708985,-0.0523464,0.226481,1.37401
-0.541857,-0.146842,-0.217857,0.00568061,-0.0764279,0.13099,1.37401
-0.544611,-0.318985,-0.193443,0.00841017,-0.0815263,0.0330449,1.37401
-0.651747,-0.340823,-0.0888517,0.0538494,-0.083274,-0.0427766,1.37401
-0.75444,-0.28864,0.0199518,0.0861824,-0.082174,-0.14229,1.37401
-0.838721,-0.376536,0.140311,0.108466,-0.111358,-0.233758,1.37401
-0.833031,-0.577246,0.22982,0.145045,-0.160288,-0.335907,1.37401
-0.782098,-0.612666,0.204313,0.129041,-0.207947,-0.482698,1.37401
-0.806266,-0.49454,0.080429,0.0839193,-0.248863,-0.597135,1.37401
-0.797429,-0.351982,-0.0525904,0.090342,-0.274504,-0.670311,1.37401
-0.685809,-0.276358,-0.0926548,0.116477,-0.259224,-0.715976,1.37401
-0.416335,-0.282763,-0.0263544,0.14344,-0.214098,-0.719516,1.37401
-0.0106121,-0.181415,0.0710815,0.145524,-0.162367,-0.702104,1.37401
0.513986,0.0466796,0.284383,0.159544,-0.0980093,-0.624245,1.37401
1.08962,0.311338,0.574047,0.1608,-0.00871967,-0.484882,1.37401
1.49934,0.505982,0.830119,0.093102,0.0886914,-0.273319,1.37401
1.64806,0.469797,0.973252,0.00265237,0.139725,-0.0238846,1.37401
1.59659,0.156199,0.972656,-0.0887494,0.14539,0.172778,1.37401
1.40424,-0.314711,0.815931,-0.162933,0.137859,0.284175,1.37401
1.18338,-0.720372,0.535938,-0.225687,0.140886,0.315845,1.37401
1.03563,-0.854444,0.156182,-0.262355,0.140939,0.278897,1.37401
0.932515,-0.709478,-0.220654,-0.256058,0.164789,0.234437,1.37401
0.894485,-0.338786,-0.437001,-0.185887,0.207215,0.230985,1.37401
0.90056,0.124701,-0.462709,-0.103632,0.266573,0.26993,1.37401
0.90056,0.124701,-0.462709,-0.103632,0.266573,0.26993,1.55634
0.887465,0.458847,-0.362576,-0.0461821,0.319944,0.369443,1.55634
0.813604,0.530665,-0.247154,-0.0280033,0.340794,0.506148,1.55634
0.676687,0.382664,-0.173408,-0.0453358,0.337032,0.626808,1.55634
0.429775,0.09155,-0.139693,-0.0609035,0.324633,0.723086,1.55634
0.0920965,-0.301385,-0.155546,-0.0631412,0.289159,0.76665,1.55634
-0.404406,-0.684771,-0.265518,-0.0792817,0.251839,0.75864,1.55634
-0.97291,-0.963612,-0.447659,-0.0977516,0.198356,0.67798,1.55634
-1.45149,-1.26095,-0.708687,-0.11447,0.143177,0.500483,1.55634
-1.70704,-1.38232,-0.942192,-0.0966529,0.0976706,0.214004,1.55634
-1.69486,-1.1312,-1.07376,-0.0622258,0.0835999,-0.10415,1.55634
-1.48831,-0.523898,-0.956104,0.00610119,0.100031,-0.352082,1.55634
-1.1444,0.187488,-0.582644,0.0863042,0.117304,-0.482814,1.55634
-0.731621,0.624052,-0.149741,0.151511,0.0793701,-0.471695,1.55634
-0.417748,0.718616,0.218288,0.145553,-0.00250554,-0.315694,1.55634
-0.24835,0.653532,0.427146,0.0462808,-0.0621356,-0.143631,1.55634
-0.208302,0.515054,0.456047,-0.0737953,-0.130442,-0.00753534,1.55634
-0.235034,0.286983,0.353588,-0.163787,-0.197367,0.0863413,1.55634
-0.29068,0.024439,0.139669,-0.211115,-0.25836,0.128196,1.55634
-0.425295,-0.27049,-0.137166,-0.194459,-0.308642,0.116897,1.55634
-0.558144,-0.584211,-0.345808,-0.128167,-0.318679,0.0277423,1.55634
-0.673376,-0.78579,-0.42854,-0.0297465,-0.290271,-0.155948,1.55634
-0.765524,-0.855166,-0.39779,0.0579999,-0.24373,-0.377022,1.55634
-0.666288,-0.589695,-0.277613,0.151572,-0.206639,-0.627591,1.55634
-0.335771,-0.0385914,-0.049808,0.21315,-0.168574,-0.861998,1.55634
0.0357012,0.424687,0.294269,0.271162,-0.117839,-0.929865,1.55634
0.342924,0.588414,0.600067,0.284909,-0.0932467,-0.844508,1.55634
0.571727,0.587165,0.788321,0.225238,-0.0799923,-0.679218,1.55634
0.812204,0.627001,0.917421,0.159287,-0.0562192,-0.50567,1.55634
1.03851,0.737668,1.05333,0.125468,-0.00695144,-0.309655,1.55634
1.12166,0.881444,1.20373,0.123765,0.0347956,-0.0685363,1.55634
0.987887,0.922007,1.32708,0.112671,0.0653965,0.169493,1.55634
0.67114,0.703099,1.40367,0.101676,0.0695961,0.357995,1.55634
0.3669,0.213574,1.41139,0.102202,0.043175,0.449111,1.55634
0.26482,-0.254997,1.36846,0.10681,0.0195906,0.417021,1.55634
0.347106,-0.490914,1.33804,0.109486,0.0467315,0.309475,1.55634
0.52746,-0.341976,1.34084,0.126737,0.0836501,0.226332,1.55634
0.641532,-0.036054,1.41617,0.159219,0.130725,0.224,1.55634
0.684229,0.237161,1.54264,0.180962,0.174961,0.282831,1.55634
0.65507,0.291824,1.63835,0.184731,0.203739,0.370819,1.55634
0.542627,0.180418,1.6617,0.179357,0.199358,0.45722,1.55634
0.397636,0.0579068,1.63604,0.166924,0.188967,0.495846,1.55634
0.293338,-0.0221125,1.54276,0.15245,0.172833,0.458221,1.55634
0.154284,-0.100329,1.37793,0.129483,0.160975,0.391867,1.55634
0.0114497,-0.120202,1.2241,0.142258,0.137255,0.304174,1.55634
-0.0660608,-0.0924121,0.986462,0.141423,0.107452,0.161966,1.55634
-0.193271,-0.0915667,0.739422,0.162238,0.0927934,0.0326649,1.55634
-0.345218,-0.0852275,0.572368,0.20959,0.0876496,-0.0687528,1.55634
-0.370892,0.15225,0.505747,0.250673,0.0958105,-0.195924,1.55634
-0.277268,0.49047,0.571364,0.281524,0.124003,-0.287938,1.55634
-0.174221,0.875644,0.721902,0.283968,0.149686,-0.304294,1.55634
-0.157442,1.12308,0.867492,0.251804,0.143277,-0.233852,1.55634
-0.205502,1.25123,0.936821,0.193892,0.100492,-0.131851,1.55634
-0.206446,1.35102,0.977392,0.12484,0.046992,-0.0562227,1.55634
-0.16337,1.33891,1.03531,0.0780481,0.0123426,0.0129095,1.55634
-0.16337,1.33891,1.03531,0.0780481,0.0123426,0.0129095,1.7545
-0.153187,1.20873,1.0883,0.031643,-0.00729603,0.0893252,1.7545
-0.258949,0.924437,1.08263,-0.0128145,-0.0268584,0.174078,1.7545
-0.411172,0.681079,0.998494,-0.0738568,-0.0674751,0.215429,1.7545
-0.537504,0.475604,0.871848,-0.104339,-0.092688,0.216032,1.7545
-0.574908,0.401923,0.761929,-0.126155,-0.0856865,0.170296,1.7545
-0.577992,0.346528,0.748052,-0.0917471,-0.0706256,0.128136,1.7545
-0.550537,0.324701,0.768529,-0.0624695,-0.0572657,0.101305,1.7545
-0.588781,0.228714,0.836255,-0.0283296,-0.0486722,0.0891767,1.7545
-0.626349,0.147886,0.950014,0.0154879,-0.0454023,0.0753548,1.7545
-0.700343,0.224687,1.05763,0.0630972,-0.058497,-0.0125356,1.7545
-1.11334,-0.03834,0.958921,0.0602286,-0.0578775,-0.0381863,1.7545
-1.51048,-0.352988,0.74448,0.0365216,-0.0795029,-0.104725,1.7545
-1.39013,-0.46339,0.592409,0.0401847,-0.117209,-0.345695,1.7545
-0.742059,-0.332358,0.78712,0.135599,-0.0649956,-0.591675,1.7545
0.0663869,0.0565984,1.35501,0.270759,0.0372451,-0.669786,1.7545
0.570712,0.39106,1.98635,0.302512,0.141659,-0.520606,1.7545
0.720409,0.465884,2.33783,0.228699,0.139751,-0.243452,1.7545
0.706315,0.39074,2.39746,0.0873903,0.0850058,-0.0331145,1.7545
0.649345,0.247339,2.31198,-0.0257382,0.0581934,0.0872533,1.7545
0.583996,0.070785,2.17995,-0.0862425,0.0476545,0.160541,1.7545
0.522422,-0.154828,2.03445,-0.105384,0.0489392,0.201928,1.7545
0.448089,-0.337341,1.8727,-0.113358,0.0637805,0.214689,1.7545
0.386856,-0.418376,1.68568,-0.114032,0.0713691,0.195064,1.7545
0.352568,-0.407508,1.46111,-0.111282,0.0739402,0.156459,1.7545
0.278386,-0.356839,1.25628,-0.0848232,0.0810278,0.136574,1.7545
0.180708,-0.24263,1.15006,-0.0041694,0.0914925,0.115654,1.7545
0.059814,0.0531863,1.06236,0.0367299,0.106495,0.0679883,1.7545
-0.0943994,0.358176,0.987836,0.048618,0.10656,0.046935,1.7545
-0.211781,0.459829,0.961539,0.0711028,0.0910689,0.0634827,1.7545
-0.22231,0.379285,0.982526,0.0900989,0.0686163,0.0719241,1.7545
-0.166136,0.332249,1.00771,0.0946127,0.0537332,0.0517198,1.7545
-0.150706,0.401333,0.970205,0.0613455,0.0331348,0.033349,1.7545
-0.211642,0.512198,0.93034,0.0433496,0.00761837,0.0510989,1.7545
-0.266141,0.656727,0.897441,0.0395842,-0.00845076,0.05663,1.7545
-0.247576,0.718178,0.939692,0.041519,-0.00133583,0.0531473,1.7545
-0.0970882,0.703726,1.02322,0.0515149,0.00583449,0.0377284,1.7545
0.0548638,0.611905,1.12024,0.0596082,0.0111669,0.0355694,1.7545
0.147953,0.509565,1.25582,0.0743725,0.0143116,0.0478757,1.7545
0.2422,0.420789,1.41562,0.0820327,0.029051,0.0253938,1.7545
0.312785,0.346137,1.53853,0.0682272,0.0384601,-0.0251201,1.7545
0.36806,0.302029,1.6199,0.0494569,0.0427901,-0.0898751,1.7545
0.405055,0.286146,1.58714,0.0212288,0.0145806,-0.163095,1.7545
0.236737,-0.0360356,1.42157,-0.0253587,-0.00733575,-0.194671,1.7545
0.0821665,-0.222183,1.18744,-0.0651533,-0.0397339,-0.271571,1.7545
0.251075,-0.0717073,0.931591,-0.0827942,-0.0616138,-0.425813,1.7545
0.587117,0.389082,0.828772,-0.0680118,-0.0166449,-0.497236,1.7545
0.766951,0.893625,0.908325,0.00100922,0.0574827,-0.372839,1.7545
0.66481,1.26933,0.9383,0.0252603,0.0971824,-0.135651,1.7545
0.29222,1.38894,0.922528,0.0220444,0.0923292,0.117599,1.7545
-0.102493,1.15228,0.948271,0.0169893,0.0804093,0.296462,1.7545
-0.243328,0.699292,1.05891,0.0389046,0.0974204,0.353718,1.7545
-0.136667,0.409085,1.24794,0.0675754,0.127547,0.323829,1.7545
-0.0546216,0.287795,1.47719,0.0959362,0.159263,0.316648,1.7545
-0.154478,0.144334,1.70702,0.115953,0.168191,0.370684,1.7545
-0.154478,0.144334,1.70702,0.115953,0.168191,0.370684,1.97118
-0.362489,-0.191263,1.92132,0.150222,0.142661,0.413145,1.97118
-0.554879,-0.473002,2.0731,0.158754,0.116625,0.352192,1.97118
-0.670743,-0.534627,2.03328,0.104338,0.0700608,0.190522,1.97118
-0.7439,-0.546447,1.81756,0.0561331,-0.00687423,0.0302013,1.97118
-0.756669,-0.515355,1.59072,0.0684496,-0.0709028,-0.119458,1.97118
-0.640359,-0.3589,1.47997,0.142294,-0.0848037,-0.258868,1.97118
-0.428475,-0.0863731,1.51125,0.233064,-0.067886,-0.351864,1.97118
-0.226976,0.100592,1.58143,0.262795,-0.0399204,-0.352678,1.97118
0.00402182,0.148259,1.59186,0.270045,-0.0616907,-0.308111,1.97118
0.186797,0.135737,1.52678,0.262691,-0.0901528,-0.23726,1.97118
0.219072,0.128484,1.43535,0.252753,-0.090818,-0.144779,1.97118
0.172936,0.126504,1.32156,0.247515,-0.0911347,-0.0775133,1.97118
0.194497,0.179393,1.19439,0.258206,-0.0968317,-0.062961,1.97118
0.260283,0.310689,1.0967,0.2617,-0.0752368,-0.07622,1.97118
0.327879,0.482345,1.0535,0.271291,-0.0407963,-0.0798566,1.97118
0.360533,0.604662,1.01749,0.265243,-0.00548305,-0.0521079,1.97118
0.36586,0.635014,0.984934,0.251181,0.0203906,-0.0120789,1.97118
0.405247,0.618323,0.95249,0.218771,0.048281,0.00477463,1.97118
0.444856,0.611235,0.928347,0.195275,0.0785923,0.0104401,1.97118
0.391313,0.685571,0.921763,0.186715,0.104651,0.0306412,1.97118
0.268056,0.827317,0.920266,0.161171,0.137292,0.0535397,1.97118
0.10017,0.954945,0.893389,0.125663,0.149852,0.0753518,1.97118
-0.0914172,1.01829,0.85967,0.0943659,0.138874,0.0990257,1.97118
-0.225671,1.00541,0.851956,0.0591277,0.129697,0.102406,1.97118
-0.267329,0.943489,0.857598,0.0205906,0.110566,0.0732319,1.97118
-0.258983,0.846803,0.872297,-0.0044288,0.078152,0.0544459,1.97118
-0.274646,0.789204,0.87048,-0.034422,0.0474776,0.04895,1.97118
-0.346676,0.704447,0.839475,-0.059984,0.0105662,0.0542689,1.97118
-0.405256,0.558856,0.789239,-0.0762494,-0.0354512,0.0475046,1.97118
-0.37725,0.427681,0.791426,-0.0777857,-0.0712989,-0.0043931,1.97118
-0.348354,0.36185,0.817698,-0.0845119,-0.0834993,-0.0530655,1.97118
-0.397097,0.274611,0.821093,-0.100115,-0.105443,-0.0612422,1.97118
-0.421365,0.129749,0.765638,-0.110648,-0.13444,-0.0770535,1.97118
-0.406604,0.0478031,0.677663,-0.125733,-0.147097,-0.127311,1.97118
-0.462654,0.00204032,0.635217,-0.100135,-0.137673,-0.137878,1.97118
-0.615404,-0.0755184,0.608433,-0.0692019,-0.133153,-0.128046,1.97118
-0.795605,-0.298324,0.613749,-0.0438329,-0.133696,-0.127438,1.97118
-0.950554,-0.511777,0.658802,-0.0189438,-0.121477,-0.156474,1.97118
-1.08322,-0.731148,0.679159,-0.0136327,-0.11039,-0.207548,1.97118
-1.15573,-0.932724,0.604142,-0.0302108,-0.11378,-0.288382,1.97118
-1.05969,-1.0433,0.462685,-0.0381756,-0.140238,-0.398425,1.97118
-0.738587,-0.928849,0.331073,-0.033774,-0.122964,-0.520869,1.97118
-0.195455,-0.528692,0.35711,0.0156517,-0.071094,-0.586148,1.97118
0.39881,-0.0384775,0.547862,0.0489473,0.023971,-0.545409,1.97118
0.783028,0.191133,0.710903,0.0408917,0.0998847,-0.336408,1.97118
0.909636,0.14708,0.646056,-0.0160991,0.10075,-0.10094,1.97118
0.811833,-0.123403,0.415482,-0.0960199,0.0934448,0.0717958,1.97118
0.622314,-0.390129,0.0290702,-0.190221,0.0730162,0.140789,1.97118
0.457739,-0.454465,-0.386739,-0.203432,0.103028,0.107448,1.97118
0.373732,-0.311161,-0.697796,-0.171536,0.170325,0.0733525,1.97118
0.341223,-0.0736324,-0.886034,-0.113262,0.220161,0.0769884,1.97118
0.299178,0.229598,-0.98258,-0.0671704,0.253043,0.126287,1.97118
0.217351,0.425244,-0.991617,-0.0256633,0.269088,0.206975,1.97118
0.217351,0.425244,-0.991617,-0.0256633,0.269088,0.206975,2.15085
0.134012,0.452993,-0.936544,0.0125694,0.257108,0.269281,2.15085
0.0748989,0.402993,-0.844623,0.044878,0.238605,0.295766,2.15085
0.0723267,0.378019,-0.700264,0.0601938,0.227201,0.294512,2.15085
0.134486,0.343246,-0.505639,0.0567059,0.221751,0.302982,2.15085
0.174198,0.200706,-0.300492,0.0567432,0.199485,0.336409,2.15085
0.165175,-0.010197,-0.11749,0.0469318,0.16245,0.353405,2.15085
0.0973258,-0.253733,-0.0271059,0.0151259,0.124113,0.348168,2.15085
-0.0497944,-0.428494,0.00909712,-0.00709246,0.0875513,0.322805,2.15085
-0.207859,-0.487397,0.0142553,-0.026856,0.0549894,0.259322,2.15085
-0.291401,-0.369126,-0.0651563,-0.0501427,0.0269552,0.180751,2.15085
-0.328306,-0.22002,-0.182891,-0.0462661,-0.0032613,0.1417,2.15085
-0.431277,-0.17088,-0.270449,-0.0116202,-0.0154819,0.147377,2.15085
-0.613182,-0.229069,-0.255654,0.0374056,-0.00777106,0.148908,2.15085
-0.736565,-0.283528,-0.149049,0.0664486,-0.00867301,0.0923634,2.15085
-0.742259,-0.271101,-0.0721366,0.0616501,-0.0336603,0.0073694,2.15085
-0.665511,-0.225549,-0.0672422,0.061087,-0.0740434,-0.0585831,2.15085
-0.60739,-0.0819425,-0.0415127,0.0913609,-0.0941189,-0.0925229,2.15085
-0.574631,0.0586256,0.0714691,0.129329,-0.0993929,-0.114725,2.15085
-0.46238,0.165475,0.220015,0.145918,-0.114275,-0.153638,2.15085
-0.295036,0.202464,0.361215,0.147303,-0.130432,-0.181192,2.15085
-0.170841,0.18053,0.487247,0.139599,-0.138964,-0.20454,2.15085
-0.111296,0.15394,0.54523,0.103452,-0.141386,-0.262393,2.15085
-0.0667353,0.180933,0.539508,0.0750498,-0.139625,-0.357526,2.15085
0.0785829,0.325494,0.553464,0.0648526,-0.117418,-0.467748,2.15085
0.287442,0.53959,0.583728,0.0515051,-0.0863781,-0.503138,2.15085
0.336567,0.709645,0.552381,0.0249802,-0.0839048,-0.443795,2.15085
0.156849,0.728258,0.431585,-0.000364989,-0.101081,-0.372861,2.15085
-0.0845312,0.664476,0.266281,-0.0196054,-0.0970497,-0.37872,2.15085
-0.197081,0.753903,0.162553,0.00143463,-0.0600929,-0.435023,2.15085
-0.0346158,1.10882,0.156811,0.0192441,-0.0205452,-0.464088,2.15085
0.34439,1.54621,0.330208,0.0678678,0.0363372,-0.360568,2.15085
0.663657,1.72982,0.63499,0.100007,0.0797475,-0.124731,2.15085
0.817553,1.66381,0.996004,0.0624833,0.113143,0.108804,2.15085
0.855114,1.37903,1.30143,-0.00791435,0.114743,0.27536,2.15085
0.85358,0.852274,1.47558,-0.0773355,0.0836273,0.355845,2.15085
0.797806,0.192203,1.46802,-0.132261,0.0583458,0.390105,2.15085
0.64434,-0.356273,1.31351,-0.158472,0.0366934,0.376864,2.15085
0.436167,-0.568671,1.04774,-0.180488,0.0493384,0.310302,2.15085
0.241833,-0.427332,0.801221,-0.169642,0.0884525,0.231338,2.15085
0.160401,-0.158078,0.60792,-0.136533,0.116275,0.168282,2.15085
0.191079,0.011551,0.519539,-0.10077,0.161997,0.157236,2.15085
0.272276,-0.0366596,0.537255,-0.0756801,0.191202,0.175568,2.15085
0.379751,-0.220476,0.565798,-0.0681916,0.196408,0.192209,2.15085
0.386503,-0.374241,0.529,-0.0735767,0.191532,0.220599,2.15085
0.224555,-0.396591,0.402036,-0.0884017,0.17538,0.245675,2.15085
0.0190052,-0.349597,0.209674,-0.0900768,0.152932,0.243816,2.15085
-0.159615,-0.266309,-0.0233037,-0.0629832,0.135187,0.219922,2.15085
-0.369812,-0.102429,-0.197503,-0.0204162,0.139203,0.208065,2.15085
-0.575037,-0.0152712,-0.279305,0.0303724,0.143815,0.198022,2.15085
-0.690484,-0.0934692,-0.253388,0.0836736,0.136305,0.17291,2.15085
-0.708879,-0.200513,-0.135284,0.113001,0.1255,0.126278,2.15085
-0.697841,-0.183724,-0.0101491,0.107807,0.0952067,0.0902354,2.15085
-0.703321,-0.0869996,0.0467503,0.0894543,0.0423916,0.0557364,2.15085
-0.698662,-0.00240789,0.0359258,0.0742643,-0.00126942,0.0308075,2.15085
-0.698662,-0.00240789,0.0359258,0.0742643,-0.00126942,0.0308075,2.30147
-0.773377,-0.00272939,0.0244188,0.0657553,-0.0107243,0.029733,2.30147
-0.862373,-0.0906151,0.0415881,0.0639025,-0.0289903,-0.013818,2.30147
-0.878509,-0.212488,0.0561558,0.0354304,-0.0471368,-0.101941,2.30147
-0.864314,-0.372458,0.092483,0.0285365,-0.0611002,-0.194593,2.30147
-0.851464,-0.490817,0.149604,0.0217621,-0.0812787,-0.299964,2.30147
-0.836245,-0.443845,0.158719,-0.0105304,-0.103285,-0.417835,2.30147
-0.821922,-0.408867,0.0848604,-0.0434778,-0.137224,-0.512525,2.30147
-0.7989,-0.51615,-0.0630752,-0.0648591,-0.169547,-0.590581,2.30147
-0.700639,-0.568333,-0.230122,-0.0794435,-0.160054,-0.680283,2.30147
-0.533158,-0.429218,-0.334285,-0.082564,-0.115292,-0.709585,2.30147
-0.373045,-0.222436,-0.433305,-0.101717,-0.0894067,-0.667849,2.30147
-0.208379,-0.0559898,-0.565707,-0.103283,-0.0871477,-0.580239,2.30147
0.0332247,0.0474211,-0.650234,-0.0837907,-0.0713065,-0.48665,2.30147
0.37471,0.112599,-0.628195,-0.0736919,-0.0186585,-0.387661,2.30147
0.740373,0.121769,-0.557134,-0.101145,0.0467787,-0.259021,2.30147
1.02017,0.0552958,-0.512064,-0.132606,0.0987986,-0.103951,2.30147
1.17009,-0.0581983,-0.499092,-0.156749,0.136334,0.0421601,2.30147
1.19646,-0.230927,-0.556479,-0.187464,0.168014,0.158388,2.30147
1.14218,-0.381771,-0.638508,-0.194587,0.193021,0.240871,2.30147
1.10004,-0.459103,-0.722088,-0.184302,0.211813,0.290127,2.30147
1.10633,-0.428801,-0.813929,-0.170797,0.22786,0.337518,2.30147
1.10865,-0.291615,-0.888294,-0.145806,0.239349,0.407077,2.30147
1.04247,-0.108909,-0.951504,-0.118739,0.246009,0.495009,2.30147
0.865038,-0.00849833,-1.01918,-0.10769,0.256112,0.576741,2.30147
0.653576,-0.035063,-1.08117,-0.10243,0.254565,0.619739,2.30147
0.473648,-0.177395,-1.13563,-0.0843726,0.237993,0.629436,2.30147
0.246239,-0.433681,-1.19942,-0.0600675,0.229799,0.623706,2.30147
-0.0526568,-0.749916,-1.24798,-0.0197637,0.20533,0.564572,2.30147
-0.267509,-1.03758,-1.25649,0.0178202,0.188532,0.437097,2.30147
-0.38294,-1.3083,-1.25602,0.0478431,0.170339,0.268368,2.30147
-0.499616,-1.29306,-1.26215,0.0618513,0.1371,0.115673,2.30147
-0.824724,-1.00223,-1.32067,0.0978753,0.0991209,0.0228942,2.30147
-1.26467,-0.504182,-1.39896,0.125179,0.0419818,-0.08472,2.30147
-1.53957,0.0208319,-1.40186,0.164228,0.0081203,-0.198487,2.30147
-1.41635,0.328401,-1.16982,0.239341,-0.00850862,-0.291248,2.30147
-0.9676,0.520374,-0.762355,0.280183,-0.030001,-0.305067,2.30147
-0.539757,0.525668,-0.346767,0.241884,-0.065746,-0.184075,2.30147
-0.310929,0.38247,-0.0840197,0.170832,-0.147515,-0.0352466,2.30147
-0.228383,0.181362,-0.012057,0.110888,-0.216267,0.0644106,2.30147
-0.288461,0.00133463,-0.0483461,0.0909805,-0.254846,0.106934,2.30147
-0.397107,-0.00336935,-0.149343,0.0660403,-0.268355,0.062021,2.30147
-0.465283,0.0621871,-0.224998,0.0988045,-0.257044,-0.0363753,2.30147
-0.43321,0.176243,-0.203378,0.155343,-0.238102,-0.157641,2.30147
-0.363018,0.341149,-0.137136,0.188674,-0.219085,-0.270805,2.30147
-0.383945,0.435999,-0.0568797,0.191804,-0.195603,-0.346062,2.30147
-0.469461,0.376735,0.0383613,0.218906,-0.19377,-0.445775,2.30147
-0.42821,0.251059,0.190284,0.258636,-0.187875,-0.584639,2.30147
-0.237651,0.173963,0.39371,0.272667,-0.149972,-0.695429,2.30147
-0.0124695,0.307339,0.61683,0.242909,-0.080384,-0.741149,2.30147
0.309808,0.634967,0.881609,0.226292,-0.0361761,-0.724637,2.30147
0.723744,0.931688,1.19648,0.21242,0.00494444,-0.602754,2.30147
1.0703,0.93975,1.46702,0.163724,0.0310613,-0.38745,2.30147
1.25632,0.715416,1.68764,0.0907794,0.0694587,-0.177852,2.30147
1.33033,0.428981,1.81425,0.00132459,0.095096,-0.0308549,2.30147
1.33033,0.428981,1.81425,0.00132459,0.095096,-0.0308549,2.4283
1.38056,0.207344,1.81969,-0.0673758,0.111158,0.0569685,2.4283
1.4204,0.121343,1.74849,-0.112756,0.137328,0.132084,2.4283
1.43596,0.131398,1.64641,-0.132187,0.171623,0.220187,2.4283
1.37253,0.196878,1.54815,-0.139351,0.207523,0.324106,2.4283
1.25968,0.294282,1.45806,-0.137695,0.229132,0.421284,2.4283
1.12326,0.352526,1.3454,-0.138009,0.235495,0.500357,2.4283
0.922847,0.307641,1.22486,-0.135948,0.236859,0.581066,2.4283
0.683417,0.119688,1.09027,-0.131603,0.224526,0.635972,2.4283
0.451301,-0.167625,0.918655,-0.107034,0.20592,0.652945,2.4283
0.232644,-0.358949,0.729861,-0.0854848,0.193591,0.629458,2.4283
-0.0632573,-0.476933,0.508109,-0.0615424,0.186653,0.60284,2.4283
-0.452681,-0.599107,0.317412,-0.00875154,0.184229,0.556636,2.4283
-0.797161,-0.721445,0.176958,0.0557115,0.1762,0.428661,2.4283
-1.04419,-0.804615,0.090914,0.101804,0.205095,0.254805,2.4283
-1.23055,-0.965131,0.0746425,0.168069,0.214373,0.0586482,2.4283
-1.31005,-0.846372,0.123135,0.215196,0.218351,-0.137129,2.4283
-1.3456,-0.519046,0.189754,0.237527,0.22411,-0.277279,2.4283
-1.31271,-0.0403933,0.299986,0.232161,0.217082,-0.379289,2.4283
-1.19688,0.426347,0.366067,0.18041,0.18127,-0.429676,2.4283
-1.12625,0.630363,0.394199,0.15847,0.118757,-0.368038,2.4283
-1.12785,0.630791,0.455016,0.14326,0.0702321,-0.309848,2.4283
-1.15948,0.489296,0.538036,0.105218,0.0178581,-0.294243,2.4283
-1.2374,0.226153,0.590575,0.0508223,-0.0498468,-0.320105,2.4283
-1.26275,-0.0704289,0.596643,-0.0194009,-0.136015,-0.444844,2.4283
-1.06177,-0.211579,0.550467,-0.101335,-0.227882,-0.645355,2.4283
-0.696231,-0.192317,0.340487,-0.244001,-0.258425,-0.781553,2.4283
-0.416318,-0.0810255,0.0476395,-0.332932,-0.294354,-0.802233,2.4283
-0.225268,0.107806,-0.350442,-0.37282,-0.332884,-0.786024,2.4283
0.0304669,0.315114,-0.755918,-0.357426,-0.319865,-0.768852,2.4283
0.491812,0.593939,-0.951874,-0.29636,-0.226044,-0.716159,2.4283
1.02724,0.820237,-0.944615,-0.262894,-0.0828524,-0.545788,2.4283
1.49604,0.931168,-0.801753,-0.254816,0.0356166,-0.310705,2.4283
1.80937,0.791795,-0.671667,-0.276366,0.127952,-0.0607691,2.4283
1.9077,0.459043,-0.60646,-0.289526,0.178962,0.15188,2.4283
1.84856,0.118653,-0.621573,-0.29723,0.204988,0.302973,2.4283
1.72782,-0.143149,-0.701433,-0.295365,0.231788,0.399379,2.4283
1.61363,-0.26085,-0.786852,-0.267747,0.266906,0.469201,2.4283
1.48892,-0.26695,-0.831285,-0.225923,0.303567,0.538371,2.4283
1.32306,-0.225321,-0.850843,-0.188523,0.333638,0.613863,2.4283
1.08598,-0.178551,-0.864979,-0.160034,0.344908,0.679884,2.4283
0.776586,-0.290726,-0.912807,-0.137459,0.347406,0.726724,2.4283
0.435276,-0.494046,-0.978856,-0.102287,0.331658,0.721979,2.4283
0.139529,-0.736063,-0.959303,-0.0185166,0.311826,0.666146,2.4283
-0.114434,-1.04595,-0.796595,0.0509599,0.310526,0.567135,2.4283
-0.29616,-1.3918,-0.611891,0.0435315,0.27906,0.390335,2.4283
-0.352921,-1.41438,-0.560617,0.0145652,0.211552,0.179846,2.4283
-0.530259,-1.13599,-0.728259,-0.0106897,0.144996,0.0501318,2.4283
-0.97534,-0.7095,-0.993242,0.0255887,0.0957874,-0.00647569,2.4283
-1.40627,-0.199666,-1.10356,0.0887063,0.0823644,-0.0917966,2.4283
-1.51609,0.135505,-0.951398,0.145259,0.0973596,-0.180095,2.4283
-1.21827,0.286248,-0.621815,0.162312,0.0723927,-0.234641,2.4283
-0.73884,0.382681,-0.331394,0.117149,0.0100844,-0.195893,2.4283
-0.434001,0.382228,-0.207723,0.0464336,-0.0638499,-0.0538688,2.4283
-0.434001,0.382228,-0.207723,0.0464336,-0.0638499,-0.0538688,2.56041
-0.347612,0.309982,-0.200059,0.00128262,-0.130191,0.0684275,2.56041
-0.42551,0.0401351,-0.219709,0.0102633,-0.168645,0.130753,2.56041
-0.543602,-0.15936,-0.250612,0.0150673,-0.194546,0.0858755,2.56041
-0.674488,-0.221927,-0.296569,0.0161283,-0.197458,-0.0393009,2.56041
-0.72705,-0.132794,-0.35514,0.0216584,-0.211559,-0.215471,2.56041
-0.786433,-0.0367713,-0.499568,0.00462911,-0.235135,-0.390475,2.56041
-0.961519,-0.0429569,-0.683984,0.0378311,-0.248848,-0.548453,2.56041
-0.988427,-0.0521137,-0.738779,0.130054,-0.230462,-0.739574,2.56041
-0.701523,0.0843106,-0.566945,0.191445,-0.141151,-0.906668,2.56041
-0.249414,0.444569,-0.236154,0.210656,-0.0611327,-0.928385,2.56041
0.266053,0.97862,0.211695,0.225114,-0.0330313,-0.793434,2.56041
0.796224,1.38415,0.595514,0.193198,-0.0353639,-0.513193,2.56041
1.15899,1.43117,0.874583,0.154529,-0.0281593,-0.337656,2.56041
1.26513,1.18406,1.05829,0.0902294,-0.0257108,-0.0102217,2.56041
1.17176,0.709923,1.13598,0.0416808,-0.0369433,0.235721,2.56041
1.0121,0.123183,1.08895,0.00920691,-0.055133,0.378093,2.56041
0.901202,-0.338005,0.975451,-0.012529,-0.0525717,0.426239,2.56041
0.895075,-0.475077,0.855417,-0.026154,-0.0168989,0.381853,2.56041
0.965911,-0.381935,0.777761,-0.014267,0.0396393,0.323657,2.56041
1.02023,-0.164489,0.767229,0.0182059,0.0925775,0.317662,2.56041
0.97823,0.111553,0.818323,0.0572106,0.144751,0.359839,2.56041
0.838776,0.363794,0.900192,0.0713549,0.189965,0.419276,2.56041
0.661339,0.378749,1.0077,0.0816749,0.212028,0.481358,2.56041
0.465507,0.105457,1.07181,0.0931825,0.206068,0.520216,2.56041
0.109977,-0.402512,1.01057,0.0867824,0.189039,0.526839,2.56041
-0.178214,-0.876772,0.869802,0.0678761,0.161352,0.431637,2.56041
-0.210596,-1.23601,0.731923,0.107027,0.127724,0.192418,2.56041
-0.236315,-1.3755,0.65452,0.169971,0.151986,-0.0133094,2.56041
-0.42748,-1.02351,0.735999,0.229885,0.194141,-0.15943,2.56041
-0.616473,-0.325099,0.848127,0.257535,0.215196,-0.292609,2.56041
-0.618473,0.362963,0.941667,0.230326,0.214036,-0.382017,2.56041
-0.432879,0.828503,0.98899,0.168575,0.197718,-0.382346,2.56041
-0.143471,1.10833,0.975125,0.10965,0.154049,-0.291501,2.56041
0.0199389,1.24608,0.967538,0.0653264,0.13853,-0.107564,2.56041
0.000917876,1.25423,0.995329,0.0142021,0.162367,0.198892,2.56041
-0.139816,1.16569,0.983592,-0.0492248,0.159143,0.338728,2.56041
-0.344937,1.04123,0.898468,-0.120248,0.150293,0.418411,2.56041
-0.619788,0.850246,0.734836,-0.154662,0.111844,0.44316,2.56041
-0.979879,0.417787,0.553197,-0.155223,0.088315,0.408318,2.56041
-1.30321,-0.198528,0.450258,-0.116878,0.0386701,0.246677,2.56041
-1.49043,-0.733172,0.378089,-0.104489,0.0157066,-0.0466717,2.56041
-1.84235,-1.14994,0.268462,-0.142102,0.00207934,-0.360754,2.56041
-2.06102,-1.09556,0.122519,-0.141653,-0.112592,-0.790829,2.56041
-1.62057,-0.478053,-0.0850996,-0.139648,-0.164852,-1.22675,2.56041
-0.946039,0.202189,-0.162399,-0.149575,-0.124152,-1.33266,2.56041
-0.677467,0.560349,-0.227896,-0.158676,-0.158371,-1.11126,2.56041
-0.562341,0.602991,-0.446473,-0.169811,-0.264983,-0.936592,2.56041
-0.157479,0.67471,-0.636216,-0.138412,-0.282862,-0.837111,2.56041
0.448022,0.884187,-0.574228,-0.0974857,-0.194883,-0.65117,2.56041
1.06094,1.05474,-0.331403,-0.0901512,-0.0943189,-0.363188,2.56041
1.51212,0.92534,-0.086029,-0.134506,-0.0175786,-0.0415064,2.56041
1.71573,0.512061,0.066145,-0.19378,0.028798,0.221237,2.56041
1.73966,-0.00469542,0.0920763,-0.248474,0.0514666,0.386018,2.56041
1.63089,-0.496516,-0.00656048,-0.292252,0.0759686,0.485941,2.56041
1.63089,-0.496516,-0.00656048,-0.292252,0.0759686,0.485941,2.71103
1.45646,-0.851144,-0.176923,-0.309077,0.105802,0.524036,2.71103
1.31147,-0.922047,-0.380195,-0.307345,0.147879,0.516508,2.71103
1.18538,-0.792653,-0.578705,-0.287812,0.19767,0.525129,2.71103
1.0042,-0.572115,-0.757024,-0.245991,0.23931,0.564876,2.71103
0.743302,-0.422171,-0.899862,-0.209489,0.274465,0.6204,2.71103
0.416792,-0.477275,-1.03997,-0.189312,0.300915,0.634796,2.71103
0.0897221,-0.552486,-1.18731,-0.151358,0.300203,0.582654,2.71103
-0.121859,-0.622109,-1.25532,-0.0906704,0.315287,0.484212,2.71103
-0.169259,-0.778586,-1.18418,-0.0259308,0.339245,0.365516,2.71103
-0.194403,-0.995684,-1.06658,0.0415147,0.310184,0.26477,2.71103
-0.363799,-1.08538,-1.06338,0.0583998,0.24093,0.17112,2.71103
-0.78139,-0.914386,-1.21658,0.041181,0.177827,0.090145,2.71103
-1.28655,-0.574055,-1.40847,0.0532169,0.119091,-0.0231503,2.71103
-1.48711,-0.154192,-1.48563,0.101731,0.0756083,-0.177665,2.71103
-1.27703,0.229156,-1.39231,0.153158,0.0616558,-0.288309,2.71103
-0.855681,0.523797,-1.09482,0.185965,0.0417388,-0.26594,2.71103
-0.459007,0.571344,-0.718839,0.180589,-0.00109433,-0.126363,2.71103
-0.22363,0.328978,-0.427059,0.128955,-0.0677474,0.0414367,2.71103
-0.115547,0.0427529,-0.27471,0.0447559,-0.148171,0.125542,2.71103
-0.087358,-0.0846068,-0.312313,-0.0250205,-0.212144,0.147604,2.71103
-0.154996,-0.108094,-0.455216,-0.0445879,-0.259723,0.121929,2.71103
-0.279497,-0.0524698,-0.620105,-0.033304,-0.282768,0.0596719,2.71103
-0.434709,-0.0491999,-0.756311,0.0244092,-0.295076,-0.0368243,2.71103
-0.516832,-0.194168,-0.807786,0.0994122,-0.300114,-0.208577,2.71103
-0.437121,-0.388368,-0.770082,0.156107,-0.269369,-0.443925,2.71103
-0.272132,-0.473294,-0.663064,0.191013,-0.237138,-0.669731,2.71103
-0.126477,-0.295096,-0.534959,0.209623,-0.208837,-0.839304,2.71103
0.0184336,0.064478,-0.354123,0.235779,-0.181391,-0.922557,2.71103
0.135255,0.523954,-0.138738,0.212764,-0.140577,-0.89365,2.71103
0.259114,0.795547,0.102585,0.194998,-0.119991,-0.764391,2.71103
0.569396,0.775515,0.323178,0.178351,-0.109656,-0.591864,2.71103
0.992788,0.572613,0.52601,0.155303,-0.0647971,-0.36627,2.71103
1.35711,0.452215,0.751416,0.128543,-0.000966802,-0.132821,2.71103
1.54748,0.493088,0.937948,0.0919489,0.056828,0.0782997,2.71103
1.43751,0.495313,1.04486,0.0657117,0.074396,0.274482,2.71103
1.10586,0.309708,1.07153,0.0378901,0.0590252,0.395029,2.71103
0.827954,-0.0782931,1.01039,0.0284074,0.0366196,0.396903,2.71103
0.698011,-0.425267,0.859144,-0.00312585,0.0447797,0.340275,2.71103
0.625974,-0.647851,0.673041,-0.0257113,0.0737858,0.312642,2.71103
0.572183,-0.692894,0.49542,-0.0287878,0.119761,0.311369,2.71103
0.53802,-0.600925,0.388385,0.00962856,0.15866,0.312796,2.71103
0.552011,-0.433377,0.373203,0.0585962,0.195906,0.31098,2.71103
0.621372,-0.268737,0.423878,0.0907803,0.227615,0.305236,2.71103
0.686049,-0.191786,0.522267,0.117279,0.246823,0.314552,2.71103
0.638183,-0.0882227,0.571676,0.123975,0.239927,0.323319,2.71103
0.462577,-0.0135814,0.570107,0.123057,0.223451,0.314275,2.71103
0.250992,0.0814706,0.593352,0.132451,0.198871,0.273687,2.71103
0.0676747,0.143908,0.585666,0.106398,0.175131,0.2215,2.71103
-0.0754353,0.149848,0.505007,0.0950062,0.137648,0.177697,2.71103
-0.187663,0.160872,0.423611,0.106967,0.0965302,0.133006,2.71103
-0.281946,0.0677992,0.381378,0.107452,0.0777891,0.0820322,2.71103
-0.389268,0.00815555,0.339284,0.0895932,0.0618043,0.0147192,2.71103
-0.467858,-0.0424024,0.350582,0.099276,0.039136,-0.0590689,2.71103
-0.446885,0.0549418,0.386907,0.07097,0.0144163,-0.140736,2.71103
-0.446885,0.0549418,0.386907,0.07097,0.0144163,-0.140736,2.87749
-0.364558,0.267271,0.381968,0.0509109,-0.0118381,-0.180869,2.87749
-0.335339,0.406337,0.374144,0.0536635,-0.0372774,-0.168713,2.87749
-0.413884,0.497371,0.347461,0.0559944,-0.0595467,-0.143687,2.87749
-0.577913,0.490732,0.314003,0.0491043,-0.0721556,-0.150528,2.87749
-0.66237,0.288294,0.290756,0.062825,-0.0823914,-0.205683,2.87749
-0.557283,-0.0441243,0.283213,0.0772121,-0.0803721,-0.285693,2.87749
-0.337662,-0.361431,0.32589,0.0844479,-0.0616228,-0.357642,2.87749
-0.183013,-0.459885,0.420029,0.0614368,-0.0368818,-0.387207,2.87749
-0.143694,-0.361876,0.455001,0.00488263,-0.0166152,-0.373118,2.87749
-0.179702,-0.300478,0.396037,-0.0331186,-0.0189907,-0.334901,2.87749
-0.182462,-0.245043,0.325862,-0.0413175,-0.0285248,-0.307889,2.87749
-0.0474979,-0.051389,0.274652,-0.0521568,-0.0180621,-0.289158,2.87749
0.13341,0.189825,0.253949,-0.0511507,0.00661108,-0.223506,2.87749
0.206607,0.311886,0.265402,-0.0446545,0.0329195,-0.114082,2.87749
0.168962,0.319245,0.265432,-0.0525328,0.0585261,-0.0152241,2.87749
0.170553,0.250888,0.23481,-0.0776435,0.0759775,0.0288671,2.87749
0.276579,0.161766,0.174627,-0.0876861,0.10929,0.0655016,2.87749
0.396451,0.0683474,0.174421,-0.0887551,0.157299,0.133927,2.87749
0.455591,0.0599996,0.255789,-0.0886308,0.195223,0.21146,2.87749
0.451764,0.158499,0.367127,-0.0955384,0.207909,0.289801,2.87749
0.381232,0.307097,0.417115,-0.105542,0.187102,0.370505,2.87749
0.252284,0.364277,0.366115,-0.118407,0.154258,0.433066,2.87749
0.117998,0.286687,0.243506,-0.108965,0.116704,0.457481,2.87749
-0.00608615,0.0770275,0.0906458,-0.0728011,0.0940752,0.445485,2.87749
-0.101598,-0.0654764,-0.00193131,-0.00403926,0.0845595,0.397358,2.87749
-0.198866,0.0325671,-0.0345599,0.0303965,0.0917416,0.330233,2.87749
-0.358037,0.0916015,-0.00578174,0.0910506,0.0827115,0.285494,2.87749
-0.582914,0.0690321,0.0981151,0.144972,0.0420038,0.22094,2.87749
-0.748433,-0.0126354,0.153796,0.119849,0.0132939,0.108563,2.87749
-0.708832,-0.14771,0.18065,0.0978472,-0.00826934,-0.0247753,2.87749
-0.444659,-0.178205,0.226911,0.0995665,-0.00676185,-0.135287,2.87749
-0.235405,0.0211328,0.311413,0.106794,0.0135014,-0.141347,2.87749
-0.259464,0.335687,0.497605,0.131371,0.0175068,-0.0735692,2.87749
-0.361925,0.551593,0.711319,0.122137,-0.00610059,-0.00164014,2.87749
-0.364602,0.554292,0.839815,0.0820646,-0.0569767,0.0188082,2.87749
-0.235951,0.493484,0.874248,0.0243052,-0.0918379,0.0175621,2.87749
-0.163276,0.401696,0.854986,-0.00447484,-0.118653,0.0513312,2.87749
-0.21481,0.32459,0.83179,0.0141013,-0.145981,0.0807544,2.87749
-0.32779,0.230735,0.819333,0.0122981,-0.159016,0.0655726,2.87749
-0.461339,0.198868,0.784086,-0.013538,-0.162659,0.0110592,2.87749
-0.596695,0.177866,0.726713,-0.0197647,-0.175581,-0.0651924,2.87749
-0.67079,0.138139,0.646663,-0.00410393,-0.184989,-0.164388,2.87749
-0.654014,0.178681,0.571961,-0.00343462,-0.166197,-0.27432,2.87749
-0.608488,0.284015,0.515732,0.0037275,-0.142956,-0.359631,2.87749
-0.538009,0.366585,0.509695,0.056742,-0.111419,-0.400256,2.87749
-0.421795,0.51198,0.614221,0.10377,-0.064842,-0.414581,2.87749
-0.284842,0.667131,0.823712,0.1146,-0.0113807,-0.386542,2.87749
-0.120026,0.825326,1.03732,0.103478,0.00829156,-0.322072,2.87749
0.0512535,0.918466,1.1666,0.0810079,-0.0041894,-0.228644,2.87749
0.201576,1.02111,1.23818,0.0698664,-0.00750205,-0.123648,2.87749
0.247622,1.01144,1.31407,0.0700671,0.0122673,-0.00229967,2.87749
0.204835,0.740469,1.4248,0.092008,0.0160531,0.0813843,2.87749
0.194372,0.303046,1.50448,0.0975242,0.0122229,0.0904368,2.87749
0.248888,-0.0675766,1.48641,0.0819363,0.0169746,0.0586552,2.87749
0.248888,-0.0675766,1.48641,0.0819363,0.0169746,0.0586552,3.08888
0.3139,-0.146175,1.42895,0.0758741,0.0277652,0.016349,3.08888
0.351475,-0.0283419,1.37314,0.084289,0.056674,0.000731945,3.08888
0.37872,0.0873078,1.34776,0.100325,0.0877611,0.0170416,3.08888
0.399064,0.0937731,1.34097,0.110549,0.114471,0.0467494,3.08888
0.475719,0.110176,1.34536,0.113451,0.130979,0.0574062,3.08888
0.562518,0.181975,1.31887,0.105347,0.146222,0.0918377,3.08888
0.588223,0.255703,1.30816,0.111028,0.155111,0.146489,3.08888
0.511787,0.288536,1.30402,0.113375,0.163575,0.199839,3.08888
0.363472,0.303859,1.28167,0.0976434,0.161948,0.226863,3.08888
0.220731,0.3402,1.22345,0.0778573,0.147334,0.223839,3.08888
0.142304,0.400856,1.12965,0.0633516,0.139299,0.220317,3.08888
0.0817259,0.413256,1.04872,0.0639934,0.13075,0.238852,3.08888
-0.0416409,0.297186,0.98319,0.0808415,0.120658,0.261632,3.08888
-0.205645,0.101054,0.921438,0.08892,0.101847,0.238769,3.08888
-0.327245,0.0237159,0.866956,0.0871596,0.103118,0.167925,3.08888
-0.390415,0.0960209,0.843259,0.0910861,0.112256,0.100901,3.08888
-0.435946,0.213976,0.869743,0.102794,0.109771,0.0824321,3.08888
-0.479604,0.212128,0.914487,0.103448,0.10309,0.0825494,3.08888
-0.489417,0.169326,0.96564,0.0827022,0.0812918,0.0680137,3.08888
-0.4613,0.195543,0.980761,0.0597733,0.0535278,0.0507306,3.08888
-0.44444,0.274126,0.947407,0.0393088,0.0275291,0.0650318,3.08888
-0.544366,0.289126,0.900301,0.0564837,0.000792518,0.121659,3.08888
-0.666168,0.209937,0.900813,0.0671105,-0.0188268,0.14177,3.08888
-0.744006,0.0695656,0.908872,0.0616231,-0.0308386,0.12507,3.08888
-0.772122,-0.108689,0.921895,0.0638169,-0.0597438,0.0708735,3.08888
-0.656499,-0.275728,0.922212,0.0638987,-0.0923553,-0.0191413,3.08888
-0.463224,-0.332701,0.927368,0.0779276,-0.109128,-0.0792867,3.08888
-0.292978,-0.246197,0.98581,0.0969711,-0.115992,-0.101136,3.08888
-0.227442,-0.16587,1.03925,0.0908097,-0.121937,-0.0785198,3.08888
-0.195016,-0.154481,1.04426,0.0824399,-0.148476,-0.0609586,3.08888
-0.172335,-0.204756,0.993913,0.0637089,-0.172024,-0.0621001,3.08888
-0.101184,-0.219059,0.888384,0.0456842,-0.185969,-0.09381,3.08888
-0.0436711,-0.275171,0.782488,0.0603375,-0.174433,-0.118305,3.08888
-0.0217157,-0.294202,0.749649,0.0905406,-0.142664,-0.141352,3.08888
-0.0952621,-0.248916,0.751655,0.0979832,-0.111851,-0.151366,3.08888
-0.236022,-0.170491,0.663615,0.0749071,-0.120691,-0.178261,3.08888
-0.390221,-0.21422,0.425981,0.0428239,-0.131826,-0.219469,3.08888
-0.468855,-0.332692,0.178343,0.0713446,-0.115672,-0.28849,3.08888
-0.373343,-0.211779,0.0784197,0.11625,-0.0500612,-0.377501,3.08888
-0.136518,0.0304566,0.23337,0.186444,0.031543,-0.387112,3.08888
0.209532,0.333465,0.578622,0.250868,0.0759119,-0.34894,3.08888
0.526582,0.601673,0.925552,0.22859,0.101096,-0.234263,3.08888
0.736811,0.756622,1.15606,0.14508,0.100119,-0.0933408,3.08888
0.864848,0.74817,1.236,0.0716894,0.0905849,0.0285537,3.08888
0.925337,0.572881,1.24641,0.0270502,0.100391,0.120453,3.08888
0.918712,0.34759,1.22259,-0.00949374,0.120851,0.180433,3.08888
0.833228,0.130244,1.1549,-0.0412602,0.133077,0.211823,3.08888
0.684858,-0.0212768,1.02087,-0.0619025,0.135178,0.211902,3.08888
0.45928,-0.101418,0.857219,-0.0414519,0.121241,0.211315,3.08888
0.209179,-0.163865,0.70132,-0.00857939,0.123706,0.169012,3.08888
0.0512151,-0.151088,0.609574,0.00756802,0.133523,0.130533,3.08888
-0.0257642,-0.0949915,0.575701,0.0337013,0.157323,0.0694909,3.08888
-0.00908974,-0.0281135,0.586087,0.0724704,0.161711,0.028739,3.08888
0.0616336,0.181042,0.632221,0.0955252,0.172812,-0.00500458,3.08888
0.0616336,0.181042,0.632221,0.0955252,0.172812,-0.00500458,3.31084
0.0531095,0.372006,0.70326,0.115714,0.184746,0.0291976,3.31084
-0.0605451,0.441082,0.756821,0.122109,0.171099,0.10008,3.31084
-0.207061,0.363377,0.819186,0.1315,0.139694,0.160336,3.31084
-0.272513,0.267565,0.902443,0.141942,0.108394,0.154227,3.31084
-0.277845,0.222734,0.962114,0.127132,0.0979686,0.115204,3.31084
-0.278969,0.224461,1.00926,0.121049,0.068706,0.0743632,3.31084
-0.326255,0.270357,1.05687,0.123121,0.0511259,0.0474283,3.31084
-0.354047,0.36125,1.1457,0.123259,0.0436359,0.0112349,3.31084
-0.315237,0.412778,1.22827,0.107589,0.0254221,-0.0356355,3.31084
-0.196822,0.374176,1.27651,0.0917606,-0.00585724,-0.0600914,3.31084
-0.0643061,0.311767,1.30283,0.0833548,-0.0307388,-0.0787111,3.31084
0.0337337,0.340574,1.3291,0.0777628,-0.0322257,-0.0972967,3.31084
0.0832239,0.453258,1.34565,0.0695224,-0.026668,-0.113554,3.31084
0.119421,0.588921,1.40163,0.0781357,-0.0143605,-0.116927,3.31084
0.191146,0.702348,1.47754,0.0806653,0.00403266,-0.118217,3.31084
0.274919,0.736699,1.53558,0.0712545,0.0159811,-0.108944,3.31084
0.359985,0.755592,1.58377,0.0717166,0.0204254,-0.09334,3.31084
0.350682,0.741182,1.64889,0.0887266,0.0234706,-0.0604842,3.31084
0.236023,0.655582,1.70996,0.0850842,0.0302639,-0.0140263,3.31084
0.0749179,0.495592,1.68701,0.0338601,0.0341155,-0.0324171,3.31084
-0.113478,0.279686,1.54144,-0.00427494,0.0339531,-0.0844148,3.31084
-0.165088,0.293205,1.41463,0.0180571,0.0496447,-0.190961,3.31084
-0.0146502,0.529937,1.426,0.0779907,0.106913,-0.235391,3.31084
0.209519,0.776318,1.6102,0.137117,0.168691,-0.163907,3.31084
0.387947,0.808045,1.86638,0.165188,0.196398,-0.0220189,3.31084
0.501503,0.643708,2.06222,0.165231,0.181455,0.112751,3.31084
0.459566,0.355523,2.18772,0.162657,0.169019,0.220444,3.31084
0.241535,0.0477835,2.21988,0.138419,0.137008,0.261996,3.31084
-0.0467103,-0.152531,2.08369,0.0733676,0.10838,0.21008,3.31084
-0.230386,-0.234783,1.81778,0.0293684,0.08454,0.098574,3.31084
-0.309316,-0.272214,1.5098,0.0411436,0.082022,-0.00191021,3.31084
-0.424927,-0.308468,1.31634,0.0929808,0.123051,-0.0717975,3.31084
-0.47206,-0.213286,1.28908,0.165736,0.160165,-0.160248,3.31084
-0.31726,0.0501061,1.41873,0.216758,0.200252,-0.237007,3.31084
-0.0983476,0.289562,1.58894,0.198145,0.230966,-0.228574,3.31084
0.0827714,0.370481,1.6841,0.16481,0.193069,-0.153513,3.31084
0.166178,0.334329,1.64343,0.128609,0.150368,-0.044904,3.31084
0.118855,0.331118,1.54681,0.0915707,0.126901,0.0374092,3.31084
-0.0164821,0.332439,1.42765,0.0718294,0.10926,0.0989856,3.31084
-0.164813,0.312938,1.27546,0.0461122,0.0932189,0.12214,3.31084
-0.244619,0.304511,1.115,0.0268426,0.0899835,0.109924,3.31084
-0.263908,0.308454,0.984748,0.0283998,0.0976796,0.0881352,3.31084
-0.248563,0.380715,0.898022,0.0203633,0.0951636,0.0608177,3.31084
-0.221965,0.469027,0.793046,0.000353903,0.0857906,0.0419157,3.31084
-0.233956,0.42207,0.751047,0.0152188,0.0922562,0.0396814,3.31084
-0.250341,0.395979,0.785143,0.0194155,0.10201,0.018866,3.31084
-0.263011,0.423214,0.816173,-0.0220168,0.10845,0.00492072,3.31084
-0.285895,0.425636,0.792504,-0.0755459,0.0871521,-0.000256062,3.31084
-0.361989,0.284961,0.695608,-0.11271,0.0562788,-0.00541866,3.31084
-0.507624,0.0301636,0.533926,-0.150527,0.014549,-0.0412037,3.31084
-0.694191,-0.308952,0.328964,-0.175853,-0.0245058,-0.1201,3.31084
-0.783679,-0.531416,0.0666313,-0.188998,-0.0398122,-0.267343,3.31084
-0.829578,-0.56097,-0.178701,-0.178867,-0.0259472,-0.407772,3.31084
-0.829578,-0.56097,-0.178701,-0.178867,-0.0259472,-0.407772,3.52222
-0.844478,-0.428753,-0.342034,-0.155605,-0.00994821,-0.505532,3.52222
-0.796526,-0.216581,-0.465152,-0.135263,0.0104425,-0.546888,3.52222
-0.746994,-0.18341,-0.559501,-0.106964,0.0178368,-0.512145,3.52222
-0.676145,-0.258142,-0.64056,-0.111232,0.00843535,-0.499144,3.52222
-0.46257,-0.188895,-0.760064,-0.145472,0.00617921,-0.534431,3.52222
-0.0471453,0.0536712,-0.837292,-0.132041,0.00956767,-0.520173,3.52222
0.468365,0.298088,-0.798284,-0.122984,0.0653684,-0.381023,3.52222
0.821641,0.428625,-0.724577,-0.144821,0.115051,-0.167777,3.52222
1.00621,0.511891,-0.726006,-0.200733,0.131206,0.0128372,3.52222
1.0404,0.449924,-0.842582,-0.243398,0.140043,0.163384,3.52222
0.976506,0.298135,-1.01194,-0.262184,0.145203,0.252712,3.52222
0.823835,0.11174,-1.20458,-0.256434,0.141946,0.298364,3.52222
0.634683,-0.0650953,-1.38902,-0.199352,0.126949,0.312782,3.52222
0.495142,-0.22031,-1.54268,-0.148559,0.122308,0.279115,3.52222
0.41823,-0.1296,-1.64483,-0.106008,0.132925,0.232591,3.52222
0.295548,-0.0473804,-1.64671,-0.0557154,0.144026,0.233414,3.52222
0.239192,-0.0132102,-1.59252,-0.0104769,0.118453,0.208428,3.52222
0.290502,-0.0879857,-1.56951,0.0238577,0.0953811,0.184444,3.52222
0.371376,-0.211577,-1.51991,0.0799939,0.0742283,0.172994,3.52222
0.427043,-0.195239,-1.44255,0.118958,0.0610482,0.169952,3.52222
0.392625,-0.0791674,-1.37936,0.132725,0.0574643,0.197034,3.52222
0.184562,-0.010662,-1.31208,0.168129,0.0437443,0.255479,3.52222
-0.144459,-0.107264,-1.23016,0.190597,0.0238189,0.271535,3.52222
-0.320661,-0.167044,-1.15578,0.170628,-0.00555146,0.17138,3.52222
-0.22703,-0.0993112,-1.10127,0.136695,-0.0013703,0.0484431,3.52222
-0.0636227,0.0316113,-0.996742,0.153916,0.00576091,0.0166271,3.52222
0.0201644,0.188415,-0.85449,0.160658,0.0166543,0.0515105,3.52222
-0.00197653,0.293538,-0.700722,0.176422,-0.0026986,0.120084,3.52222
-0.102218,0.235741,-0.515737,0.184454,-0.0373569,0.159366,3.52222
-0.12946,0.116054,-0.281316,0.187613,-0.0603346,0.116226,3.52222
-0.0278631,0.0763741,-0.047951,0.159707,-0.0617499,0.0491038,3.52222
0.0370817,0.221162,0.167531,0.123534,-0.079378,0.0243272,3.52222
-0.0110853,0.413905,0.32688,0.0733377,-0.104855,0.050691,3.52222
-0.115264,0.376675,0.451963,0.0496511,-0.12924,0.0832838,3.52222
-0.124354,0.177789,0.54483,0.0220149,-0.14171,0.0391805,3.52222
-0.00135607,0.0227132,0.605104,-0.0114438,-0.110629,-0.0160064,3.52222
0.100981,-0.0544725,0.65529,-0.0139806,-0.0795031,-0.00991219,3.52222
0.103271,-0.132445,0.685813,0.0349641,-0.0561981,0.0378928,3.52222
-0.0765228,-0.0938212,0.72462,0.0740623,-0.0323291,0.0731593,3.52222
-0.449578,0.0981482,0.705665,0.065351,-0.0149857,0.0666455,3.52222
-0.824039,0.161035,0.696023,0.0875143,-0.00332555,0.0078876,3.52222
-0.932901,0.0980711,0.709152,0.072814,0.0308623,-0.124543,3.52222
-0.818615,-0.0411129,0.744558,0.0828983,0.0311513,-0.241514,3.52222
-0.607066,-0.0882084,0.832042,0.115634,0.019693,-0.311336,3.52222
-0.529941,0.0166972,0.948673,0.125779,0.033393,-0.300274,3.52222
-0.557831,0.122193,1.08295,0.142168,0.0343462,-0.275084,3.52222
-0.493984,0.109558,1.2081,0.114968,0.0476661,-0.291229,3.52222
-0.22419,0.134342,1.312,0.0466353,0.0478925,-0.33431,3.52222
0.140448,0.198626,1.37427,0.00407645,0.048891,-0.301085,3.52222
0.424772,0.273927,1.40863,-0.0184212,0.0461889,-0.181388,3.52222
0.487244,0.254864,1.37317,-0.0590214,0.0344063,-0.0322928,3.52222
0.424527,0.229165,1.24858,-0.107692,0.0261911,0.0383773,3.52222
0.376553,0.226822,1.04601,-0.139348,0.0116415,0.0572244,3.52222
0.401951,0.236563,0.849033,-0.122356,0.0197261,0.0654328,3.52222
0.401951,0.236563,0.849033,-0.122356,0.0197261,0.0654328,3.6834
0.479059,0.292749,0.790226,-0.0711061,0.0545602,0.0946233,3.6834
0.553702,0.273221,0.847729,-0.0264739,0.0830225,0.144928,3.6834
0.583247,0.194586,0.897748,-0.0249122,0.0732677,0.183417,3.6834
0.532209,0.080455,0.844116,-0.0495756,0.0363831,0.212005,3.6834
0.447024,-0.0220507,0.684098,-0.0575345,-0.00209676,0.221517,3.6834
0.291084,-0.113572,0.44577,-0.066813,-0.0134981,0.22252,3.6834
0.085937,-0.121746,0.20879,-0.0561244,-0.0119744,0.197999,3.6834
-0.0913499,-0.0952469,-0.0118455,-0.0304588,0.000235572,0.151998,3.6834
-0.216338,-0.0449899,-0.154381,0.0247725,0.0202384,0.0936233,3.6834
-0.234953,0.0058549,-0.184167,0.077032,0.0485749,0.0319365,3.6834
-0.198336,0.0530315,-0.11268,0.11677,0.0801924,-0.00161576,3.6834
-0.126187,0.104783,0.0193779,0.137486,0.0935752,-0.0280871,3.6834
-0.0384338,0.194566,0.165421,0.129209,0.0988681,-0.0328062,3.6834
0.0497647,0.285706,0.301491,0.0964999,0.0946934,-0.0243568,3.6834
0.150257,0.365243,0.385546,0.0452115,0.0787272,0.01706,3.6834
0.0710401,0.342713,0.391958,0.0138246,0.05743,0.105748,3.6834
-0.133764,0.261446,0.369348,-0.0242348,0.0370207,0.131329,3.6834
-0.259826,0.134547,0.303845,-0.0601345,0.0166094,0.0857838,3.6834
-0.264292,-0.00436497,0.232746,-0.0485736,-0.00913118,0.0284187,3.6834
-0.263506,-0.139316,0.251955,-0.0166747,0.00859718,0.00474083,3.6834
-0.290528,-0.261808,0.328657,-0.000750504,0.00385517,-0.0282908,3.6834
-0.306418,-0.411488,0.377991,0.00508432,-0.0211006,-0.0702282,3.6834
-0.374017,-0.572884,0.384997,0.00056681,-0.051277,-0.106523,3.6834
-0.46972,-0.732782,0.317092,-0.0243593,-0.0829734,-0.173976,3.6834
-0.567338,-0.840663,0.177189,-0.0534561,-0.0980065,-0.25908,3.6834
-0.609976,-0.786346,-0.0254737,-0.0648902,-0.0976638,-0.340401,3.6834
-0.576913,-0.638262,-0.176253,-0.0241457,-0.0855906,-0.372257,3.6834
-0.495897,-0.533587,-0.212501,0.0149797,-0.0555383,-0.354883,3.6834
-0.388308,-0.523897,-0.181915,0.0227461,-0.0496718,-0.3237,3.6834
-0.292079,-0.51599,-0.221828,-0.00612071,-0.0554469,-0.305007,3.6834
-0.216595,-0.353406,-0.352405,-0.0426908,-0.0594765,-0.298583,3.6834
-0.0833108,0.0164434,-0.466712,-0.0375291,-0.0347517,-0.266676,3.6834
0.187586,0.4259,-0.429041,0.00454024,0.0183434,-0.170697,3.6834
0.462489,0.63875,-0.26267,0.019271,0.0721959,0.00934041,3.6834
0.600267,0.5176,-0.0971408,0.00517884,0.0804277,0.200859,3.6834
0.582797,0.186196,-0.0508492,-0.0253857,0.0565746,0.32663,3.6834
0.445112,-0.114981,-0.134479,-0.0463732,0.0199375,0.370691,3.6834
0.283319,-0.20008,-0.286403,-0.0568463,0.00764564,0.345819,3.6834
0.0887957,-0.152227,-0.38668,-0.0283254,0.034108,0.310019,3.6834
-0.0383065,-0.0795312,-0.336578,0.0217953,0.0657898,0.249037,3.6834
-0.0587787,0.0353246,-0.256662,0.0415366,0.0694236,0.183306,3.6834
-0.0465206,0.156328,-0.197464,0.0361906,0.0572464,0.153001,3.6834
-0.0983664,0.193283,-0.168676,0.0321045,0.0498665,0.157509,3.6834
-0.185818,0.139167,-0.092934,0.0352566,0.0559846,0.149472,3.6834
-0.136762,0.0267395,0.0178263,0.0153269,0.0613955,0.0973123,3.6834
0.0293418,-0.0610874,0.127264,-0.00358026,0.0663483,0.0472359,3.6834
0.0773348,-0.0440957,0.188904,-0.0244546,0.0591341,0.0668077,3.6834
-0.0235428,0.0672714,0.211865,-0.0487071,0.0447781,0.104163,3.6834
-0.122423,0.138321,0.207281,-0.0650068,0.0292804,0.116172,3.6834
-0.112113,0.117594,0.184997,-0.066223,0.00612314,0.112058,3.6834
-0.0666212,0.011429,0.203351,-0.0572749,-0.000693828,0.119375,3.6834
-0.0857371,-0.0706149,0.251041,-0.0600072,-0.00651519,0.126039,3.6834
-0.140468,-0.0782002,0.244963,-0.0861682,-0.0323259,0.109063,3.6834
-0.206531,-0.074358,0.169985,-0.104787,-0.058817,0.0830877,3.6834
-0.206531,-0.074358,0.169985,-0.104787,-0.058817,0.0830877,3.85515
-0.218391,-0.0834767,0.0943045,-0.102717,-0.076175,0.0374119,3.85515
-0.160419,-0.0215377,0.0573361,-0.0965074,-0.0694336,-0.0109196,3.85515
-0.145223,-0.00209393,0.0325395,-0.0905602,-0.0753395,-0.0115886,3.85515
-0.17901,-0.000529701,-0.0275586,-0.0916314,-0.111417,-0.0250446,3.85515
-0.20399,-0.0238143,-0.1414,-0.0736341,-0.142375,-0.0604056,3.85515
-0.238529,-0.0332281,-0.194563,-0.0391603,-0.137648,-0.113778,3.85515
-0.267603,-0.00675436,-0.206474,-0.0152461,-0.130499,-0.170182,3.85515
-0.283574,-0.0613008,-0.249811,-0.00317317,-0.140561,-0.247953,3.85515
-0.28509,-0.0457252,-0.30656,0.00234839,-0.144926,-0.342946,3.85515
-0.237818,0.065479,-0.336503,0.0205589,-0.12227,-0.427885,3.85515
-0.169234,0.189569,-0.30862,0.0408198,-0.0852173,-0.465936,3.85515
-0.119912,0.311334,-0.225623,0.0612412,-0.0428533,-0.444024,3.85515
-0.105522,0.432626,-0.0961424,0.0593097,0.00398298,-0.390934,3.85515
-0.067401,0.605065,0.0436079,0.0494456,0.0204058,-0.325054,3.85515
0.0816188,0.791573,0.179966,0.0631428,0.0128096,-0.232157,3.85515
0.284826,0.92567,0.340968,0.0752416,0.0141319,-0.0847653,3.85515
0.441227,0.944256,0.579996,0.0920496,0.023442,0.0717454,3.85515
0.558008,0.810446,0.837186,0.0759871,0.0251962,0.194684,3.85515
0.57855,0.474009,1.01504,0.0383206,0.00960129,0.272025,3.85515
0.493173,0.00647093,1.04208,-0.00740878,-0.0210391,0.297927,3.85515
0.329081,-0.464294,0.90422,-0.0442983,-0.0429693,0.252429,3.85515
0.249184,-0.630377,0.707397,-0.0700678,-0.024617,0.115368,3.85515
0.222005,-0.531021,0.542061,-0.0598896,0.0260252,0.00358611,3.85515
0.255712,-0.271749,0.453779,-0.0215632,0.0632983,-0.0614183,3.85515
0.37081,0.0306503,0.457592,0.0103877,0.111562,-0.0779287,3.85515
0.529392,0.286025,0.543108,0.0269665,0.151815,-0.0168896,3.85515
0.610452,0.397497,0.605501,0.00835389,0.160088,0.118387,3.85515
0.580385,0.380109,0.578913,-0.0324204,0.151798,0.242712,3.85515
0.445588,0.255731,0.460528,-0.0718689,0.142871,0.328129,3.85515
0.267124,0.158984,0.296976,-0.0670386,0.120933,0.371902,3.85515
0.0594287,0.102163,0.119084,-0.0500294,0.11257,0.389353,3.85515
-0.144234,0.139711,-0.0116109,-0.0223232,0.123931,0.386198,3.85515
-0.32728,0.139489,-0.0486469,0.0167888,0.13463,0.371776,3.85515
-0.426274,0.049432,-0.0357439,0.0548903,0.127904,0.324276,3.85515
-0.480607,-0.0482578,-0.0197032,0.0690084,0.113539,0.258878,3.85515
-0.545456,-0.0727261,0.0024779,0.0812275,0.0805717,0.183376,3.85515
-0.617711,-0.0488356,0.0141923,0.074012,0.0591784,0.110147,3.85515
-0.661122,-0.0415779,-0.0176727,0.0569805,0.0232969,0.0240335,3.85515
-0.660424,-0.0845935,-0.0661742,0.0499025,-0.0174538,-0.0640454,3.85515
-0.6303,-0.0688799,-0.0762061,0.0613755,-0.0557473,-0.151606,3.85515
-0.547459,0.108962,-0.0510636,0.0687237,-0.0826928,-0.227369,3.85515
-0.439316,0.346905,-0.0179781,0.0674582,-0.108467,-0.249828,3.85515
-0.377861,0.393988,-0.00520622,0.0451542,-0.119036,-0.219042,3.85515
-0.425929,0.226151,-0.00964805,0.0593019,-0.149537,-0.190822,3.85515
-0.43742,-0.0244999,-0.0149061,0.0779153,-0.178897,-0.240233,3.85515
-0.415672,-0.209365,0.0232151,0.102709,-0.177071,-0.328403,3.85515
-0.375542,-0.370485,0.112427,0.122479,-0.172451,-0.407739,3.85515
-0.32702,-0.505521,0.187644,0.112231,-0.150923,-0.485251,3.85515
-0.269956,-0.529119,0.246706,0.0755791,-0.121265,-0.571572,3.85515
-0.163959,-0.423887,0.259242,0.0324128,-0.0954722,-0.628184,3.85515
-0.0625905,-0.306908,0.219639,0.015587,-0.0766685,-0.611658,3.85515
0.0216081,-0.22471,0.176141,0.0154318,-0.051326,-0.562746,3.85515
0.236551,-0.0586406,0.197606,0.0146475,-0.0147085,-0.528593,3.85515
0.62736,0.280864,0.279282,-0.0119874,0.0475664,-0.452144,3.85515
0.62736,0.280864,0.279282,-0.0119874,0.0475664,-0.452144,4.02426
1.03131,0.615341,0.385342,-0.0523204,0.119996,-0.263209,4.02426
1.31476,0.774464,0.451286,-0.107179,0.163917,-0.0262877,4.02426
1.37313,0.716956,0.449224,-0.158687,0.191662,0.202978,4.02426
1.24728,0.441534,0.375686,-0.185059,0.194147,0.366242,4.02426
1.03062,0.0388102,0.259171,-0.2082,0.196607,0.44922,4.02426
0.783541,-0.332781,0.126061,-0.220462,0.20839,0.46546,4.02426
0.600111,-0.552488,0.00456329,-0.232722,0.224783,0.423008,4.02426
0.495987,-0.652878,-0.123098,-0.214204,0.22346,0.399796,4.02426
0.390011,-0.589754,-0.276881,-0.201056,0.217444,0.383475,4.02426
0.258785,-0.368743,-0.455601,-0.178682,0.199046,0.398061,4.02426
0.0535591,-0.31282,-0.57838,-0.0988307,0.161046,0.42965,4.02426
-0.0805256,-0.379774,-0.582383,-0.0385268,0.110094,0.392127,4.02426
-0.0720567,-0.507616,-0.541452,0.00719912,0.0550922,0.324288,4.02426
-0.0284831,-0.601046,-0.501384,0.0326373,-0.0207832,0.250991,4.02426
-0.0742225,-0.626958,-0.507943,0.0648558,-0.106102,0.197265,4.02426
-0.187365,-0.680264,-0.560951,0.0988586,-0.157648,0.137428,4.02426
-0.236921,-0.671037,-0.53243,0.131187,-0.16753,0.0236301,4.02426
-0.201912,-0.600703,-0.430456,0.101502,-0.147145,-0.0981566,4.02426
-0.0648392,-0.540116,-0.394567,0.0468716,-0.151095,-0.199404,4.02426
0.166467,-0.227929,-0.50333,-0.0308219,-0.139488,-0.266506,4.02426
0.333842,0.0470364,-0.598056,-0.0160309,-0.120529,-0.225121,4.02426
0.51556,0.247392,-0.529604,0.0258752,-0.0677885,-0.153288,4.02426
0.622162,0.28371,-0.38263,0.0181423,-0.00577277,-0.0589108,4.02426
0.67317,0.314206,-0.229275,-0.00435457,-0.000320315,0.00400782,4.02426
0.7188,0.396127,-0.135737,-0.0341897,-0.0188121,0.0588391,4.02426
0.737686,0.289767,-0.0994835,-0.025619,-0.027582,0.105709,4.02426
0.730193,0.132483,-0.0860011,-0.0249687,-0.0247826,0.110339,4.02426
0.825587,0.0520673,-0.0496449,-0.0122285,-0.015936,0.00724685,4.02426
0.901574,0.26128,0.0133973,0.00957901,0.00615022,-0.0265118,4.02426
0.536314,0.537667,0.098718,0.0487151,0.0135722,0.1031,4.02426
-0.0782893,-0.0815362,0.107711,0.0629504,-0.0515466,0.081993,4.02426
-0.209921,0.135441,-0.0256519,-0.0217821,-0.0884526,-0.0969803,4.02426
-0.432891,0.0416433,-0.102688,0.00908889,-0.0696069,-0.0949327,4.02426
-0.678616,-0.123663,-0.0789648,0.0469326,-0.0551442,-0.139886,4.02426
-0.730841,-0.134038,-0.050057,0.0339511,-0.0365492,-0.250311,4.02426
-0.691397,-0.0770739,0.000570422,0.0417164,-0.0337664,-0.303076,4.02426
-0.66671,0.0196548,0.030222,0.0375673,-0.0281583,-0.303298,4.02426
-0.62586,0.1843,0.0961526,0.0642475,-0.0138596,-0.281747,4.02426
-0.421787,0.445602,0.251261,0.108535,0.0141402,-0.236671,4.02426
-0.0957369,0.595006,0.478842,0.136379,0.0526161,-0.132034,4.02426
0.193717,0.585872,0.709742,0.155589,0.0561606,0.00367928,4.02426
0.296685,0.335436,0.881516,0.14249,0.0417701,0.141312,4.02426
0.157021,-0.0415172,0.922394,0.104486,0.019287,0.212093,4.02426
-0.0392758,-0.320446,0.887726,0.0817629,-0.00290388,0.172295,4.02426
-0.0720692,-0.381055,0.835293,0.0553486,0.0220158,0.0754133,4.02426
-0.0370717,-0.272652,0.789895,0.0500085,0.0469056,0.0415186,4.02426
0.0011457,-0.0719358,0.791081,0.0408819,0.07427,0.0589879,4.02426
0.0569223,0.154369,0.803079,0.0408605,0.0962251,0.10436,4.02426
0.107902,0.285416,0.825158,0.05564,0.10639,0.181669,4.02426
0.113769,0.299248,0.806784,0.0409735,0.103705,0.256086,4.02426
0.0914386,0.185366,0.723254,0.0383629,0.0836515,0.298803,4.02426
0.0435078,0.0399533,0.624693,0.0517747,0.0788911,0.311468,4.02426
-0.0491637,-0.0376162,0.577987,0.0687809,0.100194,0.288716,4.02426
-0.166523,0.0211309,0.554484,0.0750531,0.111848,0.233955,4.02426
-0.166523,0.0211309,0.554484,0.0750531,0.111848,0.233955,4.18016
-0.282118,0.0937291,0.542911,0.0899639,0.10769,0.178927,4.18016
-0.361112,0.0894531,0.572285,0.118149,0.104013,0.117869,4.18016
-0.439696,0.0929357,0.634025,0.132077,0.107302,0.0566843,4.18016
-0.443769,0.0738828,0.704962,0.129181,0.101885,-0.0212749,4.18016
-0.37497,0.0811514,0.729376,0.104661,0.10133,-0.0830284,4.18016
-0.394854,0.105238,0.743207,0.0779513,0.105634,-0.116087,4.18016
-0.502569,0.166669,0.768281,0.06071,0.0995727,-0.139343,4.18016
-0.609066,0.181386,0.781158,0.0168216,0.0784432,-0.171405,4.18016
-0.702767,0.151129,0.74594,-0.0399212,0.0519326,-0.191805,4.18016
-0.806603,0.0296757,0.644446,-0.0787911,0.0157539,-0.209323,4.18016
-0.923053,-0.163524,0.537208,-0.0892539,-0.00651911,-0.241276,4.18016
-1.00308,-0.369309,0.465033,-0.0841771,-0.0124076,-0.296021,4.18016
-0.955122,-0.47026,0.454305,-0.0675096,-0.0243483,-0.383301,4.18016
-0.753809,-0.358511,0.48591,-0.0482838,-0.0411582,-0.447077,4.18016
-0.535497,-0.0953892,0.521651,-0.064216,-0.0517323,-0.42336,4.18016
-0.372809,0.140308,0.480167,-0.0942615,-0.0811411,-0.338944,4.18016
-0.272761,0.227174,0.335516,-0.117113,-0.126121,-0.240448,4.18016
-0.182518,0.19023,0.150734,-0.111123,-0.139839,-0.16805,4.18016
-0.0877977,0.0389284,0.0603935,-0.0602878,-0.116266,-0.131979,4.18016
0.0928273,-0.13632,0.107636,-0.0319399,-0.05416,-0.137659,4.18016
0.291826,-0.148059,0.212454,-0.0446754,0.00707139,-0.14345,4.18016
0.480309,-0.0249659,0.281188,-0.0523846,0.021625,-0.119133,4.18016
0.649294,0.144623,0.284982,-0.0580746,0.0322979,-0.0449088,4.18016
0.771026,0.318295,0.28029,-0.0572206,0.0537525,0.0629792,4.18016
0.811248,0.457713,0.305961,-0.0527259,0.0841337,0.183507,4.18016
0.798153,0.492351,0.349069,-0.0421694,0.088882,0.293295,4.18016
0.751848,0.418899,0.368306,-0.0415882,0.0927875,0.384047,4.18016
0.670577,0.291315,0.36154,-0.0365357,0.08711,0.448479,4.18016
0.562386,0.100294,0.314447,-0.0333205,0.0779389,0.486243,4.18016
0.449846,-0.063705,0.240824,-0.0202771,0.072901,0.492533,4.18016
0.289614,-0.145989,0.16194,-0.0061954,0.0792765,0.478659,4.18016
0.0633412,-0.191795,0.101509,0.0210473,0.0720363,0.460267,4.18016
-0.190693,-0.369472,0.0726449,0.0387792,0.0719106,0.410783,4.18016
-0.399517,-0.517014,0.0305708,0.0238912,0.0575778,0.2944,4.18016
-0.523028,-0.59843,-0.0629137,-0.00358295,0.0375889,0.156412,4.18016
-0.637402,-0.598462,-0.186008,-0.00724806,0.02435,0.0404463,4.18016
-0.751235,-0.443177,-0.236585,0.0171775,0.015403,-0.0631949,4.18016
-0.790858,-0.222786,-0.17314,0.0546528,0.0165748,-0.148631,4.18016
-0.664611,-0.0699075,0.0270759,0.0866262,0.0150637,-0.211645,4.18016
-0.395452,-0.00652106,0.292428,0.081719,-0.00442545,-0.236086,4.18016
-0.196403,0.00397781,0.434513,0.0101978,-0.0616879,-0.203672,4.18016
-0.135081,-0.0813232,0.429634,-0.0344267,-0.132564,-0.159787,4.18016
-0.130292,-0.194081,0.324044,-0.06418,-0.17149,-0.172586,4.18016
-0.10401,-0.19023,0.190482,-0.0790454,-0.185874,-0.244786,4.18016
-0.0480617,-0.0881173,0.0808475,-0.0744145,-0.189946,-0.319585,4.18016
0.0201458,0.0681242,-0.0106566,-0.0637309,-0.172984,-0.379964,4.18016
0.0896403,0.250298,-0.0724987,-0.0392494,-0.161986,-0.400589,4.18016
0.100452,0.357184,-0.108547,-0.0170201,-0.147737,-0.3794,4.18016
0.0332987,0.321391,-0.123968,-0.00569302,-0.128491,-0.3473,4.18016
-0.0813572,0.188844,-0.124244,-0.0065504,-0.131027,-0.348352,4.18016
-0.0977572,0.144517,-0.1659,-0.0297809,-0.121033,-0.397238,4.18016
0.0911816,0.313242,-0.161267,-0.00644675,-0.0844492,-0.40596,4.18016
0.495056,0.700832,-0.0189262,0.0520201,-0.0263198,-0.314077,4.18016
0.810617,1.10806,0.20828,0.10859,0.0199645,-0.0786862,4.18016
0.810617,1.10806,0.20828,0.10859,0.0199645,-0.0786862,4.36775
0.949323,1.36813,0.470308,0.129591,0.0398818,0.175166,4.36775
0.861274,1.29765,0.730605,0.133429,0.0513219,0.400478,4.36775
0.635159,0.800493,0.980542,0.16386,0.0354407,0.544937,4.36775
0.431049,0.0539402,1.18391,0.181831,0.0247251,0.565833,4.36775
0.279938,-0.543335,1.2588,0.153187,0.0243862,0.496837,4.36775
0.181848,-0.730829,1.27118,0.141228,0.0414283,0.370988,4.36775
0.163899,-0.564862,1.27428,0.161368,0.0623122,0.254039,4.36775
0.207649,-0.205466,1.33368,0.199616,0.0853895,0.172,4.36775
0.298903,0.120007,1.42973,0.225398,0.111809,0.13726,4.36775
0.318062,0.316486,1.52847,0.223852,0.135493,0.167361,4.36775
0.246576,0.205989,1.62354,0.198534,0.148712,0.189116,4.36775
0.277651,-0.0788089,1.69215,0.176421,0.151442,0.150851,4.36775
0.407413,-0.389305,1.71601,0.157934,0.163244,0.0982843,4.36775
0.418951,-0.430748,1.66456,0.139958,0.171021,0.0655586,4.36775
0.218531,-0.269665,1.54211,0.118186,0.16811,0.0581738,4.36775
-0.0977656,-0.117837,1.38324,0.0980195,0.170267,0.0327008,4.36775
-0.2934,-0.0330745,1.24298,0.0832812,0.159908,-0.040219,4.36775
-0.282038,0.033208,1.1111,0.060241,0.154656,-0.115426,4.36775
-0.185039,0.200409,1.00867,0.0402577,0.15319,-0.137285,4.36775
-0.0950997,0.442178,0.92402,0.0131162,0.142412,-0.103484,4.36775
-0.071049,0.667621,0.82974,-0.00191015,0.129346,-0.00850588,4.36775
-0.176924,0.918305,0.785225,-0.00211135,0.127358,0.0936556,4.36775
-0.193593,0.957226,0.749238,-0.0371628,0.0790846,0.164181,4.36775
-0.250357,0.784258,0.709582,-0.0333124,0.0570779,0.252113,4.36775
-0.351709,0.601407,0.706943,-0.0407259,0.00376338,0.280193,4.36775
-0.381466,0.393334,0.713379,-0.0580194,-0.0214038,0.250974,4.36775
-0.404464,0.225925,0.667078,-0.0615935,-0.0737324,0.188938,4.36775
-0.437393,0.126731,0.570118,-0.052781,-0.127467,0.10804,4.36775
-0.524454,-0.0302784,0.469947,-0.0170776,-0.146336,0.0192361,4.36775
-0.724171,-0.191733,0.430307,-0.00110655,-0.15079,-0.0826716,4.36775
-0.992175,-0.282497,0.419264,0.00201019,-0.176155,-0.226859,4.36775
-1.16579,-0.421588,0.44047,0.0209589,-0.183472,-0.40367,4.36775
-1.02333,-0.45581,0.578389,0.0473658,-0.184685,-0.61095,4.36775
-0.623219,-0.245481,0.747892,0.0480681,-0.180969,-0.743818,4.36775
-0.282233,0.132647,0.925257,0.0365351,-0.177971,-0.70013,4.36775
-0.183954,0.283403,1.06909,0.0196064,-0.183354,-0.51795,4.36775
-0.185317,0.209294,1.11261,-0.000259168,-0.201116,-0.380847,4.36775
-0.216003,-0.0693255,1.07042,-0.0245862,-0.186043,-0.293474,4.36775
-0.190302,-0.340796,1.01892,-0.0178803,-0.15845,-0.271082,4.36775
-0.00754631,-0.3981,0.987251,-0.00754428,-0.103343,-0.300075,4.36775
0.300817,-0.267538,0.998234,-0.00158426,-0.0134132,-0.294943,4.36775
0.646871,-0.0344382,1.06336,-0.0199592,0.07492,-0.237814,4.36775
0.924896,0.21488,1.1035,-0.0770201,0.155975,-0.135781,4.36775
1.09642,0.30578,1.05559,-0.147891,0.21159,-0.00997144,4.36775
1.16778,0.190612,0.893862,-0.216979,0.262222,0.0943093,4.36775
1.10058,0.0500508,0.661677,-0.270625,0.305041,0.169706,4.36775
0.955171,-0.0109122,0.367415,-0.30378,0.32217,0.211227,4.36775
0.803675,0.0368573,0.0198171,-0.304858,0.317119,0.239377,4.36775
0.690392,0.182394,-0.318461,-0.274175,0.307353,0.272781,4.36775
0.549421,0.453143,-0.613465,-0.236675,0.301129,0.32304,4.36775
0.352999,0.741494,-0.853841,-0.217085,0.292612,0.38444,4.36775
0.190679,0.871138,-1.00793,-0.177694,0.261463,0.434168,4.36775
0.076732,0.782117,-1.08542,-0.138396,0.22864,0.468497,4.36775
0.076732,0.782117,-1.08542,-0.138396,0.22864,0.468497,4.57915
0.00454913,0.570068,-1.13253,-0.129284,0.189765,0.465915,4.57915
-0.02469,0.304279,-1.1751,-0.136997,0.158304,0.449237,4.57915
-0.057319,0.0802523,-1.20843,-0.133038,0.140218,0.426438,4.57915
-0.14678,-0.0177073,-1.26217,-0.138829,0.115484,0.390205,4.57915
-0.242478,0.136116,-1.36777,-0.14957,0.0815999,0.330852,4.57915
-0.319616,0.337343,-1.48695,-0.107111,0.0578951,0.306527,4.57915
-0.367305,0.32278,-1.50729,-0.0196689,0.0540071,0.29979,4.57915
-0.445751,0.191326,-1.41437,0.0334202,0.0718111,0.290147,4.57915
-0.61735,0.0880375,-1.28033,0.0529893,0.0785072,0.252653,4.57915
-0.877902,-0.070424,-1.1158,0.06519,0.05368,0.177574,4.57915
-0.99588,-0.30464,-0.966726,0.0491666,-0.0133469,0.0255619,4.57915
-0.913351,-0.326076,-0.861609,0.0289743,-0.0717927,-0.1401,4.57915
-0.73634,-0.0183074,-0.741106,0.0215422,-0.117753,-0.253723,4.57915
-0.58927,0.374373,-0.590198,0.0232081,-0.157841,-0.283126,4.57915
-0.543433,0.506837,-0.444356,0.0223446,-0.212143,-0.290324,4.57915
-0.491076,0.414195,-0.321184,0.0228482,-0.273054,-0.333687,4.57915
-0.32831,0.295379,-0.212283,0.0183106,-0.300279,-0.414479,4.57915
-0.161567,0.2978,-0.108601,0.000814587,-0.285417,-0.46305,4.57915
-0.053257,0.416848,0.0106076,-0.0115234,-0.246342,-0.475192,4.57915
0.0735478,0.574882,0.137414,-0.00684889,-0.218241,-0.456938,4.57915
0.148955,0.548295,0.246134,0.00815094,-0.185073,-0.381152,4.57915
0.0940485,0.252532,0.386269,0.0241773,-0.138767,-0.290612,4.57915
0.0201293,-0.132796,0.509222,0.0202982,-0.112838,-0.266165,4.57915
0.0251533,-0.555172,0.597506,0.036891,-0.0927482,-0.272731,4.57915
0.12238,-0.854069,0.706523,0.0736519,-0.0633009,-0.291313,4.57915
0.24914,-0.891026,0.816416,0.0836935,-0.025401,-0.267456,4.57915
0.372184,-0.627233,0.861358,0.0816808,-0.00244282,-0.20542,4.57915
0.409526,-0.249641,0.872553,0.0953925,0.0154686,-0.109376,4.57915
0.412327,-0.18906,0.912446,0.135712,0.0184163,0.00956899,4.57915
0.428975,-0.470163,0.946244,0.148707,0.0224108,0.0756543,4.57915
0.431069,-0.789012,0.939544,0.186046,0.0128416,0.0959677,4.57915
0.382145,-1.06604,0.91149,0.231359,0.00335371,0.0710487,4.57915
0.377964,-1.12218,0.886203,0.283977,0.00322209,-0.00543422,4.57915
0.466096,-0.980846,0.903335,0.327728,0.0300696,-0.0602093,4.57915
0.573109,-0.696331,0.966691,0.373721,0.0409972,-0.0611882,4.57915
0.676797,-0.381055,1.05462,0.391174,0.0507442,-0.0117497,4.57915
0.734904,-0.176875,1.10158,0.378294,0.0594177,0.0753089,4.57915
0.751268,-0.170843,1.12052,0.358257,0.0652305,0.155472,4.57915
0.803095,-0.247614,1.0859,0.342728,0.0685664,0.183328,4.57915
0.888995,-0.231467,1.03618,0.352418,0.0915364,0.196444,4.57915
0.926766,-0.0451257,1.01109,0.366129,0.123459,0.21641,4.57915
0.891977,0.234304,0.976531,0.365977,0.144667,0.250077,4.57915
0.773928,0.420246,0.92191,0.362428,0.171553,0.286305,4.57915
0.537021,0.456508,0.890159,0.369076,0.191871,0.307881,4.57915
0.320739,0.290838,0.908577,0.394551,0.185494,0.260745,4.57915
0.266324,0.0735656,0.953149,0.394866,0.205771,0.145815,4.57915
0.215337,0.0398807,0.9886,0.378891,0.220724,0.0455204,4.57915
0.0477549,0.223866,0.982138,0.358032,0.193266,-0.0208529,4.57915
-0.11752,0.48029,0.920964,0.330237,0.173447,-0.0770565,4.57915
-0.203016,0.749074,0.875349,0.311658,0.17292,-0.118696,4.57915
-0.153457,1.03918,0.892822,0.268568,0.17674,-0.140049,4.57915
-0.0738238,1.26576,0.91324,0.221512,0.171402,-0.0828455,4.57915
-0.144133,1.28296,0.952209,0.206784,0.148492,0.0415779,4.57915
-0.285056,1.1743,1.01875,0.190331,0.109408,0.113147,4.57915
-0.285056,1.1743,1.01875,0.190331,0.109408,0.113147,4.79846
-0.399887,0.989035,1.07114,0.161679,0.0665496,0.126117,4.79846
-0.425103,0.879943,1.13945,0.120944,0.0133181,0.0859467,4.79846
-0.377215,0.79884,1.19752,0.0612917,-0.0229965,0.0406913,4.79846
-0.336231,0.723353,1.22999,0.0135112,-0.0659341,0.0203821,4.79846
-0.305703,0.6264,1.2147,-0.0400197,-0.106391,-0.00949287,4.79846
-0.244298,0.478099,1.17645,-0.0684023,-0.128587,-0.0470912,4.79846
-0.0424708,0.263791,1.20341,-0.0761072,-0.136226,-0.097842,4.79846
0.20076,0.131239,1.19145,-0.117649,-0.132257,-0.125903,4.79846
0.300012,0.0918876,1.08621,-0.164491,-0.151158,-0.108519,4.79846
0.278552,0.0908904,0.912876,-0.18309,-0.171185,-0.079974,4.79846
0.208662,0.00414189,0.754391,-0.170071,-0.170201,-0.0581258,4.79846
0.153191,-0.0805688,0.62813,-0.169807,-0.151163,-0.0579093,4.79846
0.119931,-0.0954643,0.50737,-0.139065,-0.1584,-0.0501007,4.79846
0.0330531,-0.0752101,0.380175,-0.0950033,-0.170553,-0.0149784,4.79846
-0.21665,-0.202506,0.214355,-0.0595151,-0.158445,0.0376895,4.79846
-0.612913,-0.5844,-0.00116197,-0.0315134,-0.140893,0.0481018,4.79846
-1.04063,-0.801714,-0.253389,0.00102507,-0.118641,-0.0739851,4.79846
-1.1463,-0.753755,-0.300347,0.114144,-0.0823702,-0.246396,4.79846
-0.662537,-0.402833,-0.0349546,0.24665,-0.0314294,-0.404574,4.79846
0.0570574,0.011967,0.45976,0.291585,0.00948592,-0.421945,4.79846
0.492966,0.140445,1.00352,0.33396,0.0949893,-0.290114,4.79846
0.598923,-0.00267512,1.32684,0.302719,0.110456,-0.0803412,4.79846
0.504199,-0.163884,1.40699,0.223537,0.0908137,0.0349839,4.79846
0.38807,-0.342532,1.44319,0.154762,0.107415,0.0736563,4.79846
0.450094,-0.423557,1.46907,0.109414,0.141029,0.0144669,4.79846
0.624996,-0.394778,1.40881,0.0650539,0.181887,-0.0741256,4.79846
0.708116,-0.263747,1.29635,0.0319813,0.214529,-0.0960105,4.79846
0.677775,-0.0989628,1.20006,0.0281181,0.24333,-0.0622214,4.79846
0.603489,0.047519,1.13287,0.039543,0.275847,-0.00276005,4.79846
0.53184,0.15883,1.07856,0.0553506,0.28297,0.0523611,4.79846
0.500853,0.307905,1.00314,0.0394838,0.284394,0.0887606,4.79846
0.420557,0.481879,0.935876,0.0347458,0.282235,0.1352,4.79846
0.256592,0.573981,0.914145,0.0551102,0.266651,0.208048,4.79846
0.0524663,0.540806,0.87505,0.0673554,0.243625,0.265495,4.79846
-0.17001,0.424623,0.799351,0.0616665,0.203639,0.282123,4.79846
-0.374284,0.273737,0.741155,0.0858314,0.154245,0.26634,4.79846
-0.497948,0.190009,0.709808,0.107706,0.127801,0.196029,4.79846
-0.5863,0.218186,0.673534,0.0957791,0.127275,0.117183,4.79846
-0.763671,0.336913,0.617194,0.0933456,0.102752,0.0695217,4.79846
-0.908232,0.476205,0.586324,0.0835995,0.0852784,0.0209646,4.79846
-0.870315,0.430159,0.663414,0.0986498,0.080134,-0.0789614,4.79846
-0.617576,0.239355,0.887453,0.120873,0.0710647,-0.12656,4.79846
-0.336502,0.19765,1.11536,0.097417,0.062476,-0.120635,4.79846
-0.226754,0.340864,1.22202,0.0543769,0.0285342,-0.0481535,4.79846
-0.329413,0.464241,1.21355,0.0304515,-0.0363056,0.0431284,4.79846
-0.450674,0.396096,1.17399,0.0418057,-0.0903519,0.0771456,4.79846
-0.413747,0.254458,1.18512,0.0838044,-0.120048,0.0341729,4.79846
-0.273026,0.18158,1.26665,0.10657,-0.112184,-0.0129983,4.79846
-0.178116,0.176149,1.38657,0.140753,-0.116462,-0.0225375,4.79846
-0.120658,0.237165,1.48831,0.145684,-0.125947,-0.0494466,4.79846
-0.080808,0.289376,1.52497,0.129905,-0.125127,-0.0892242,4.79846
-0.0595785,0.284022,1.54412,0.132071,-0.128759,-0.141851,4.79846
-0.0483166,0.300848,1.52724,0.128034,-0.116635,-0.2256,4.79846
-0.121414,0.334936,1.50076,0.158076,-0.0941857,-0.304826,4.79846
-0.121414,0.334936,1.50076,0.158076,-0.0941857,-0.304826,5.00456
-0.250497,0.337639,1.57108,0.218154,-0.0567926,-0.398209,5.00456
-0.307291,0.345628,1.66749,0.218178,0.00345048,-0.512309,5.00456
-0.366854,0.406751,1.68414,0.197365,0.0178802,-0.593016,5.00456
-0.396985,0.48344,1.65881,0.195453,0.021375,-0.630882,5.00456
-0.204022,0.673715,1.71227,0.227161,0.0608651,-0.636331,5.00456
0.279555,1.0233,1.99441,0.271984,0.142349,-0.550332,5.00456
0.757385,1.36396,2.42174,0.261312,0.243061,-0.31685,5.00456
0.973118,1.38873,2.8382,0.200038,0.29288,-0.0336522,5.00456
0.985185,1.00402,3.12938,0.107188,0.300844,0.169917,5.00456
0.910337,0.270443,3.28186,0.0380829,0.281396,0.265077,5.00456
0.907423,-0.400476,3.27606,-0.0307383,0.267853,0.236422,5.00456
0.986745,-0.60581,3.13744,-0.0877636,0.264708,0.161061,5.00456
0.998261,-0.441309,2.87477,-0.125216,0.255337,0.132377,5.00456
0.910011,-0.0821471,2.55001,-0.130752,0.239841,0.154932,5.00456
0.786333,0.174256,2.25539,-0.0987295,0.224653,0.205011,5.00456
0.693191,0.252914,2.02076,-0.0474526,0.210441,0.259808,5.00456
0.628548,0.19796,1.81588,-0.00422587,0.190583,0.298448,5.00456
0.564577,0.191989,1.60568,0.018987,0.1776,0.313362,5.00456
0.400737,0.213204,1.37038,0.0472676,0.159593,0.334778,5.00456
0.204741,0.245342,1.1476,0.0975688,0.126876,0.319997,5.00456
0.0396655,0.235298,0.942878,0.140853,0.0986615,0.265833,5.00456
-0.0461497,0.17717,0.797664,0.17755,0.0839962,0.172813,5.00456
-0.0757509,0.123262,0.729799,0.197456,0.0736879,0.0755845,5.00456
-0.185539,0.103582,0.687611,0.199302,0.0426707,-0.0257,5.00456
-0.325533,0.14655,0.622603,0.154734,-0.0202493,-0.15793,5.00456
-0.407791,0.198714,0.478461,0.094134,-0.107066,-0.307049,5.00456
-0.318219,0.220372,0.247053,0.0251031,-0.170147,-0.4586,5.00456
-0.0375916,0.312779,-0.0326092,-0.0451648,-0.171108,-0.564355,5.00456
0.178373,0.385289,-0.252744,-0.0838279,-0.11952,-0.533775,5.00456
0.182976,0.34692,-0.385031,-0.0899198,-0.0862247,-0.43878,5.00456
0.151877,0.250776,-0.545696,-0.120775,-0.0544407,-0.395887,5.00456
0.293895,0.148242,-0.672876,-0.136682,-0.0041821,-0.413439,5.00456
0.502066,0.192277,-0.734562,-0.158483,0.074154,-0.39132,5.00456
0.585531,0.342229,-0.731151,-0.190642,0.150928,-0.285685,5.00456
0.470069,0.402753,-0.698473,-0.222812,0.198753,-0.141269,5.00456
0.313153,0.272112,-0.691016,-0.246545,0.197372,-0.0457748,5.00456
0.275692,0.12196,-0.752317,-0.265692,0.180458,-0.0201837,5.00456
0.37428,0.0498338,-0.804198,-0.261464,0.185592,0.00920486,5.00456
0.434438,-0.0366779,-0.777066,-0.243476,0.218739,0.0704796,5.00456
0.399556,-0.111866,-0.674539,-0.203357,0.23812,0.127782,5.00456
0.312879,-0.240755,-0.604614,-0.197595,0.23796,0.155741,5.00456
0.227524,-0.349734,-0.578775,-0.186562,0.219292,0.175334,5.00456
0.212019,-0.45793,-0.56788,-0.157154,0.187889,0.18015,5.00456
0.267821,-0.504679,-0.551597,-0.126096,0.180802,0.196194,5.00456
0.277296,-0.519659,-0.489985,-0.0980589,0.183169,0.250093,5.00456
0.157137,-0.653268,-0.425088,-0.0987142,0.187185,0.319451,5.00456
-0.0369372,-0.769376,-0.439352,-0.110642,0.164154,0.340139,5.00456
-0.181506,-0.741476,-0.545705,-0.101348,0.111988,0.316692,5.00456
-0.264979,-0.656272,-0.729509,-0.0999485,0.0835289,0.277097,5.00456
-0.305142,-0.579873,-0.888889,-0.0808824,0.0888854,0.251098,5.00456
-0.338481,-0.539058,-0.915898,-0.0254025,0.0971809,0.230726,5.00456
-0.360122,-0.508738,-0.847667,0.0128472,0.0945834,0.203728,5.00456
-0.365438,-0.467517,-0.775256,0.0252874,0.0698078,0.172159,5.00456
-0.387143,-0.414425,-0.735643,0.0205105,0.0403543,0.139321,5.00456
-0.387143,-0.414425,-0.735643,0.0205105,0.0403543,0.139321,5.18951
-0.379636,-0.372787,-0.728826,0.00435233,0.0172695,0.0924783,5.18951
-0.350828,-0.371107,-0.720028,0.0106109,-0.00199991,0.0544951,5.18951
-0.31882,-0.318431,-0.708293,0.00203064,-0.0268389,0.0161484,5.18951
-0.325189,-0.148322,-0.733355,-0.0169934,-0.0463413,0.00529885,5.18951
-0.38521,-0.0326141,-0.755963,-0.00863422,-0.0615402,0.0215454,5.18951
-0.434727,-0.0937506,-0.688842,0.0192173,-0.0734175,0.0136552,5.18951
-0.387203,-0.166164,-0.59359,0.0192288,-0.0829945,-0.0311676,5.18951
-0.291019,-0.144261,-0.514366,0.00418068,-0.0936059,-0.0747099,5.18951
-0.251532,-0.0965572,-0.459062,0.0210343,-0.117051,-0.0832219,5.18951
-0.251648,-0.0916061,-0.411475,0.0341798,-0.127612,-0.101668,5.18951
-0.259462,-0.0607362,-0.343249,0.0341752,-0.108838,-0.141034,5.18951
-0.245084,-0.00171368,-0.23677,0.0500517,-0.103889,-0.197052,5.18951
