rotationRate_x,rotationRate_y,rotationRate_z,acceleration_x,acceleration_y,acceleration_z,relativeAltitude,altitude_pressure
-0.178361,0.0413104,1.02138,0.0624857,-0.0386363,0.123397,0.001,0.0001
-0.227517,0.0193514,0.785703,0.0404396,-0.0530802,0.0777535,0.001,0.0001
-0.25376,0.043512,0.709658,0.0649704,-0.0449979,0.052299,0.001,0.0001
-0.269617,0.0972923,0.691775,0.0816074,-0.0305798,0.0190561,0.001,0.0001
-0.253509,0.0811354,0.664938,0.0837018,-0.0457479,-0.0169908,0.001,0.0001
-0.21329,0.00814613,0.607089,0.0896197,-0.0852363,-0.0629598,0.001,0.0001
-0.188757,-0.16797,0.544305,0.102128,-0.112513,-0.118996,0.001,0.0001
-0.205298,-0.324708,0.4499,0.0776227,-0.127199,-0.215038,0.001,0.0001
-0.27146,-0.385577,0.314298,0.0532514,-0.141092,-0.324857,0.001,0.0001
-0.322617,-0.319015,0.162006,0.0328287,-0.137891,-0.442228,0.001,0.0001
-0.277121,-0.0693257,0.0689545,0.01929,-0.109831,-0.551956,0.001,0.0001
-0.18267,0.224692,0.0674679,0.0107446,-0.0678825,-0.598124,0.001,0.0001
-0.0959532,0.410279,0.0831232,-0.0118859,-0.0424496,-0.574558,0.001,0.0001
-0.0729171,0.498062,0.0308686,-0.0402139,-0.0462527,-0.492595,0.001,0.0001
-0.144834,0.408904,-0.0960305,-0.0644094,-0.0639136,-0.399444,0.001,0.0001
-0.210521,0.173023,-0.234251,-0.0714699,-0.049566,-0.353683,0.001,0.0001
-0.160797,-0.0221311,-0.24824,-0.0455948,0.00579268,-0.356598,0.001,0.0001
0.08786,0.0984925,-0.155144,-0.0365106,0.0693556,-0.398665,0.001,0.0001
0.491283,0.458132,-0.0234961,-0.0573206,0.125689,-0.362036,0.001,0.0001
0.79785,0.720815,0.0630042,-0.129631,0.171462,-0.191947,0.001,0.0001
0.864028,0.632691,0.055764,-0.196183,0.180386,0.011708,0.001,0.0001
0.744776,0.272092,-0.0188878,-0.259995,0.190115,0.160684,0.001,0.0001
0.589798,-0.140839,-0.136938,-0.320809,0.21371,0.210053,0.001,0.0001
0.564256,-0.321172,-0.286334,-0.359174,0.233733,0.188686,0.001,0.0001
0.62319,-0.263051,-0.461696,-0.350632,0.236601,0.193182,0.001,0.0001
0.615589,0.00154846,-0.616601,-0.330873,0.250956,0.259336,0.001,0.0001
0.461894,0.372303,-0.736914,-0.292967,0.254688,0.37131,0.001,0.0001
0.247555,0.526484,-0.831391,-0.268092,0.237069,0.473223,0.001,0.0001
0.0648178,0.479824,-0.939098,-0.256489,0.200152,0.532284,0.001,0.0001
-0.0724956,0.245114,-1.02434,-0.234339,0.170316,0.560139,0.001,0.0001
-0.135265,-0.108106,-1.07238,-0.201861,0.155389,0.560152,0.001,0.0001
-0.143185,-0.520738,-1.07627,-0.17202,0.152057,0.53028,0.001,0.0001
-0.150961,-0.892717,-1.01345,-0.133062,0.152489,0.485592,0.001,0.0001
-0.158574,-1.20583,-0.926951,-0.0908243,0.143222,0.399709,0.001,0.0001
-0.16543,-1.43661,-0.830607,-0.0523889,0.128662,0.312266,0.001,0.0001
-0.26837,-1.6561,-0.751135,-0.0155776,0.0853128,0.219719,0.001,0.0001
-0.420307,-1.68213,-0.73561,0.0405992,-0.00440377,0.0619056,0.001,0.0001
-0.567207,-1.33732,-0.7875,0.062132,-0.0748616,-0.0996585,0.001,0.0001
-0.866046,-0.999491,-0.925662,0.047519,-0.112031,-0.21418,0.001,0.0001
-1.20977,-0.768039,-1.12067,0.053706,-0.176254,-0.367333,0.001,0.0001
-1.25458,-0.782189,-1.20718,0.135311,-0.228681,-0.564202,0.001,0.0001
-0.808938,-0.650143,-1.13816,0.246916,-0.241539,-0.780145,0.001,0.0001
-0.143365,0.00906362,-0.834547,0.305594,-0.171337,-0.862962,0.001,0.0001
0.197944,0.794485,-0.485565,0.318808,-0.153121,-0.702448,0.001,0.0001
0.125503,1.24674,-0.247199,0.294465,-0.214352,-0.409162,0.001,0.0001
-0.0782868,1.11939,-0.134703,0.210608,-0.23736,-0.208649,0.001,0.0001
-0.125071,0.54771,-0.0124307,0.199736,-0.27423,-0.152524,0.001,0.0001
0.260484,0.022186,0.0922492,0.176263,-0.250543,-0.216886,0.001,0.0001
0.843596,-0.0360626,0.20519,0.135368,-0.179802,-0.226819,0.001,0.0001
1.12469,0.127933,0.241839,0.127085,-0.136961,-0.0911998,0.001,0.0001
1.01732,0.248146,0.216418,0.144339,-0.11579,0.0737094,0.001,0.0001
1.01732,0.248146,0.216418,0.144339,-0.11579,0.0737094,0.0475616,-0.000572205
0.676333,0.195826,0.12961,0.137335,-0.0864465,0.161082,0.0475616,-0.000572205
0.427496,0.199998,0.0390634,0.121648,-0.0666234,0.112874,0.0475616,-0.000572205
0.477117,0.26643,-0.0514326,0.0896053,-0.0331545,0.00785011,0.0475616,-0.000572205
0.68773,0.34843,-0.124243,0.0726536,0.00552854,-0.0326457,0.0475616,-0.000572205
0.87681,0.374502,-0.161419,0.0876507,0.0476636,0.0211362,0.0475616,-0.000572205
0.891447,0.312184,-0.151746,0.104459,0.0893643,0.11906,0.0475616,-0.000572205
0.818027,0.29075,-0.152188,0.111277,0.135949,0.177273,0.0475616,-0.000572205
0.710264,0.321231,-0.112806,0.131976,0.193724,0.218131,0.0475616,-0.000572205
0.626171,0.431749,0.0113651,0.161511,0.256469,0.245178,0.0475616,-0.000572205
0.592289,0.596301,0.203829,0.173817,0.316147,0.273238,0.0475616,-0.000572205
0.531773,0.742638,0.435132,0.184558,0.355847,0.321466,0.0475616,-0.000572205
0.408352,0.724968,0.747846,0.218928,0.380194,0.366647,0.0475616,-0.000572205
0.329853,0.633542,1.10314,0.235296,0.389803,0.357249,0.0475616,-0.000572205
0.175529,0.577316,1.40572,0.221413,0.373717,0.336844,0.0475616,-0.000572205
-0.0583958,0.540325,1.6365,0.182892,0.318815,0.279288,0.0475616,-0.000572205
-0.258955,0.481994,1.72301,0.132368,0.245494,0.182851,0.0475616,-0.000572205
-0.42981,0.165808,1.67805,0.0840105,0.176266,0.101444,0.0475616,-0.000572205
-0.646471,-0.361954,1.48704,0.0410724,0.125278,-0.00475562,0.0475616,-0.000572205
-1.02552,-0.820256,1.18964,-0.0378762,0.0724742,-0.16836,0.0475616,-0.000572205
-1.4275,-1.102,0.908732,-0.0925109,0.0386507,-0.377631,0.0475616,-0.000572205
-1.4511,-1.1537,0.707408,-0.112508,0.0210893,-0.657634,0.0475616,-0.000572205
-1.08773,-0.839414,0.637906,-0.138288,0.0558395,-0.861358,0.0475616,-0.000572205
-0.589433,-0.266066,0.693366,-0.161933,0.101611,-0.878001,0.0475616,-0.000572205
-0.204825,0.465762,0.706126,-0.202038,0.111843,-0.722816,0.0475616,-0.000572205
-0.158312,0.805543,0.507832,-0.252616,0.0692478,-0.415178,0.0475616,-0.000572205
-0.317905,0.677442,0.254199,-0.274378,0.0303239,-0.175256,0.0475616,-0.000572205
-0.452136,0.27945,-0.00439681,-0.283533,0.0199688,-0.0739536,0.0475616,-0.000572205
-0.349933,-0.104027,-0.178476,-0.281477,0.0426217,-0.0988196,0.0475616,-0.000572205
-0.00987706,-0.152723,-0.221964,-0.278816,0.126043,-0.149935,0.0475616,-0.000572205
0.312261,-0.00904182,-0.212788,-0.301753,0.208529,-0.102652,0.0475616,-0.000572205
0.379361,0.0957323,-0.230124,-0.308839,0.228993,0.0410696,0.0475616,-0.000572205
0.234412,0.0224072,-0.349945,-0.305745,0.197154,0.18022,0.0475616,-0.000572205
0.0724758,-0.115134,-0.48238,-0.288824,0.174856,0.256998,0.0475616,-0.000572205
0.0304643,-0.196072,-0.569218,-0.258212,0.171631,0.289084,0.0475616,-0.000572205
0.0843471,-0.188542,-0.649942,-0.229341,0.164405,0.323028,0.0475616,-0.000572205
0.123498,-0.213285,-0.740766,-0.199795,0.146698,0.380825,0.0475616,-0.000572205
0.112088,-0.240556,-0.813792,-0.160278,0.14017,0.430507,0.0475616,-0.000572205
0.0138002,-0.353149,-0.828415,-0.117719,0.133201,0.484286,0.0475616,-0.000572205
-0.158517,-0.562658,-0.847092,-0.0923845,0.109827,0.506688,0.0475616,-0.000572205
-0.315886,-0.814957,-0.899569,-0.0460288,0.0733083,0.483823,0.0475616,-0.000572205
-0.405468,-0.977467,-0.940859,0.00443687,0.0394182,0.410993,0.0475616,-0.000572205
-0.423943,-0.845694,-0.977003,0.0241742,0.0289489,0.314612,0.0475616,-0.000572205
-0.516361,-0.676306,-0.977948,0.0576466,0.0145648,0.290836,0.0475616,-0.000572205
-0.681516,-0.487273,-0.966926,0.0921209,-0.0135637,0.261962,0.0475616,-0.000572205
-0.925363,-0.637522,-0.976146,0.136601,-0.049825,0.233585,0.0475616,-0.000572205
-1.14614,-0.932033,-0.862533,0.223921,-0.0981814,0.119933,0.0475616,-0.000572205
-1.2876,-1.01891,-0.643201,0.249509,-0.105056,-0.073688,0.0475616,-0.000572205
-1.40827,-1.05386,-0.34656,0.2438,-0.147293,-0.307047,0.0475616,-0.000572205
-1.13841,-0.793555,-0.136556,0.196427,-0.240398,-0.618106,0.0475616,-0.000572205
-0.649396,-0.255268,-0.0736004,0.15025,-0.294974,-0.79452,0.0475616,-0.000572205
-0.649396,-0.255268,-0.0736004,0.15025,-0.294974,-0.79452,0.0475616,-0.000564575
-0.401641,0.283834,-0.0535046,0.144552,-0.360488,-0.756986,0.0475616,-0.000564575
-0.36799,0.67577,-0.0790227,0.138904,-0.408534,-0.63841,0.0475616,-0.000564575
-0.255269,0.96207,-0.12405,0.148924,-0.435681,-0.553077,0.0475616,-0.000564575
-0.00492092,1.16722,-0.101988,0.181784,-0.428495,-0.467065,0.0475616,-0.000564575
0.281298,1.22789,0.0366864,0.217935,-0.382218,-0.347984,0.0475616,-0.000564575
0.507906,1.06457,0.262653,0.235694,-0.334095,-0.209024,0.0475616,-0.000564575
0.71464,0.781372,0.437686,0.213027,-0.311549,-0.129243,0.0475616,-0.000564575
0.926689,0.574119,0.529276,0.179728,-0.27485,-0.0910832,0.0475616,-0.000564575
1.08135,0.46386,0.565698,0.146785,-0.235351,-0.0690258,0.0475616,-0.000564575
1.07946,0.358782,0.507802,0.106717,-0.198301,-0.04454,0.0475616,-0.000564575
0.97749,0.205146,0.4514,0.0969992,-0.148567,-0.0454192,0.0475616,-0.000564575
1.0344,0.277915,0.414539,0.0848731,-0.0798771,-0.1139,0.0475616,-0.000564575
1.15542,0.46609,0.367251,0.073392,0.000226274,-0.102323,0.0475616,-0.000564575
1.22333,0.70065,0.374515,0.0733528,0.0689494,-0.0114757,0.0475616,-0.000564575
1.2312,0.849024,0.382468,0.0587338,0.123239,0.124434,0.0475616,-0.000564575
1.12895,0.830949,0.386367,0.0426144,0.167514,0.264208,0.0475616,-0.000564575
0.989014,0.799425,0.35416,0.0175193,0.191893,0.351152,0.0475616,-0.000564575
0.856993,0.7126,0.351067,0.0299184,0.205612,0.404998,0.0475616,-0.000564575
0.818133,0.57111,0.379242,0.0331121,0.237461,0.406066,0.0475616,-0.000564575
0.771646,0.377201,0.449369,0.0570282,0.276307,0.417649,0.0475616,-0.000564575
0.606039,0.0471189,0.560054,0.0987782,0.300868,0.417487,0.0475616,-0.000564575
0.457498,-0.100874,0.728094,0.123726,0.31896,0.322456,0.0475616,-0.000564575
0.301763,-0.18646,0.853807,0.105448,0.342953,0.22323,0.0475616,-0.000564575
0.0909129,-0.296747,0.896167,0.0905687,0.331403,0.119825,0.0475616,-0.000564575
-0.10724,-0.200169,0.887651,0.0764114,0.323053,-0.00158697,0.0475616,-0.000564575
-0.422292,-0.110076,0.924035,0.0636727,0.349919,-0.067179,0.0475616,-0.000564575
-0.816749,-0.112614,1.00166,0.0475786,0.351732,-0.129015,0.0475616,-0.000564575
-1.18507,-0.15647,1.00453,-0.0207161,0.329504,-0.212195,0.0475616,-0.000564575
-1.38232,-0.326671,0.949527,-0.0886167,0.286836,-0.314328,0.0475616,-0.000564575
-1.32582,-0.602995,0.873636,-0.136544,0.253013,-0.389282,0.0475616,-0.000564575
-1.15779,-0.907224,0.870015,-0.129008,0.205479,-0.425968,0.0475616,-0.000564575
-1.00856,-0.891047,0.843837,-0.129518,0.132402,-0.452561,0.0475616,-0.000564575
-0.943978,-0.494788,0.730626,-0.181962,0.0717873,-0.456169,0.0475616,-0.000564575
-0.867109,0.198429,0.580216,-0.237272,0.0210843,-0.450842,0.0475616,-0.000564575
-0.694722,0.72621,0.380507,-0.255811,-0.0299298,-0.366268,0.0475616,-0.000564575
-0.539506,0.933882,0.0880743,-0.278384,-0.0734156,-0.229215,0.0475616,-0.000564575
-0.454496,0.903301,-0.255576,-0.291829,-0.0921576,-0.100065,0.0475616,-0.000564575
-0.406473,0.59474,-0.536272,-0.261114,-0.0784987,-0.00393379,0.0475616,-0.000564575
-0.292963,0.124881,-0.684354,-0.197296,-0.0349465,0.0205443,0.0475616,-0.000564575
-0.10706,-0.269183,-0.700555,-0.145957,0.0155253,0.0131717,0.0475616,-0.000564575
0.0442633,-0.45087,-0.658947,-0.103848,0.0449876,0.0110005,0.0475616,-0.000564575
0.0794548,-0.277114,-0.683007,-0.0952633,0.0374923,0.0246179,0.0475616,-0.000564575
0.0268686,0.00912934,-0.749993,-0.0942378,0.0244101,0.0755245,0.0475616,-0.000564575
0.0179603,0.247518,-0.784086,-0.066389,0.0191483,0.13028,0.0475616,-0.000564575
0.136165,0.394187,-0.75104,-0.0398363,0.027104,0.191,0.0475616,-0.000564575
0.256818,0.348939,-0.65509,-0.0326763,0.0485015,0.2817,0.0475616,-0.000564575
0.344391,0.137043,-0.522618,-0.0226374,0.0413245,0.351334,0.0475616,-0.000564575
0.430963,-0.0479226,-0.449154,-0.0503533,0.0394187,0.38197,0.0475616,-0.000564575
0.410334,-0.182384,-0.424276,-0.0815571,0.0417028,0.411181,0.0475616,-0.000564575
0.310419,-0.122467,-0.460329,-0.0901201,0.0318251,0.403248,0.0475616,-0.000564575
0.223893,0.00914064,-0.556244,-0.095146,0.0187579,0.382793,0.0475616,-0.000564575
0.223893,0.00914064,-0.556244,-0.095146,0.0187579,0.382793,0.198181,-0.00234222
0.119543,0.0161004,-0.631232,-0.0536681,0.00728075,0.39464,0.198181,-0.00234222
-0.0562675,-0.21915,-0.609284,0.0171832,-0.00293368,0.382917,0.198181,-0.00234222
-0.106989,-0.375007,-0.527379,0.0980279,-0.0653876,0.268783,0.198181,-0.00234222
-0.110712,-0.496194,-0.470138,0.166866,-0.109701,0.149625,0.198181,-0.00234222
-0.296127,-0.566373,-0.3382,0.207047,-0.11134,0.0620877,0.198181,-0.00234222
-0.681955,-0.671824,-0.0752026,0.259499,-0.102174,-0.0234296,0.198181,-0.00234222
-1.07984,-1.07067,0.12165,0.215491,-0.118424,-0.201516,0.198181,-0.00234222
-1.161,-1.26224,0.117425,0.154423,-0.209714,-0.5192,0.198181,-0.00234222
-0.817472,-0.930804,0.00381719,0.129322,-0.248473,-0.835415,0.198181,-0.00234222
-0.309061,-0.250436,0.0717458,0.153999,-0.172373,-0.951241,0.198181,-0.00234222
0.0891911,0.497364,0.420885,0.233102,-0.113634,-0.844963,0.198181,-0.00234222
0.346939,1.03603,0.769807,0.225183,-0.0801457,-0.611957,0.198181,-0.00234222
0.442597,1.32612,0.926615,0.179441,-0.100057,-0.345524,0.198181,-0.00234222
0.402836,1.34651,1.00103,0.138105,-0.0938784,-0.117473,0.198181,-0.00234222
0.346867,1.15303,1.08922,0.115171,-0.0711528,0.0464799,0.198181,-0.00234222
0.393553,0.871342,1.22093,0.143255,-0.0553513,0.131927,0.198181,-0.00234222
0.523073,0.627507,1.37651,0.153089,-0.0212037,0.194227,0.198181,-0.00234222
0.534385,0.262811,1.53954,0.151483,0.0044951,0.263246,0.198181,-0.00234222
0.418557,-0.0486659,1.64927,0.142114,-0.00587897,0.278314,0.198181,-0.00234222
0.295462,-0.311726,1.66169,0.127725,-0.0195062,0.223597,0.198181,-0.00234222
0.309778,-0.310547,1.61476,0.116221,-0.0151991,0.120936,0.198181,-0.00234222
0.427844,-0.0697916,1.56708,0.104371,0.0156451,0.0526741,0.198181,-0.00234222
0.592817,0.270559,1.56258,0.100389,0.0652083,0.0441753,0.198181,-0.00234222
0.721477,0.428011,1.5621,0.107444,0.0955405,0.112245,0.198181,-0.00234222
0.762467,0.404576,1.57797,0.12382,0.0994913,0.204804,0.198181,-0.00234222
0.77791,0.242492,1.58609,0.11985,0.119961,0.260984,0.198181,-0.00234222
0.824796,0.178672,1.58288,0.120951,0.127713,0.269456,0.198181,-0.00234222
0.819854,0.197448,1.52923,0.109799,0.135424,0.276866,0.198181,-0.00234222
0.751626,0.275366,1.43804,0.111833,0.123159,0.271108,0.198181,-0.00234222
0.639472,0.352036,1.35834,0.134372,0.119526,0.257479,0.198181,-0.00234222
0.577168,0.413623,1.29521,0.160428,0.111794,0.219276,0.198181,-0.00234222
0.526281,0.610581,1.24835,0.176795,0.0992177,0.199215,0.198181,-0.00234222
0.384291,0.760857,1.25274,0.19238,0.0830681,0.223438,0.198181,-0.00234222
0.204949,0.838457,1.20026,0.166478,0.0451123,0.231204,0.198181,-0.00234222
-0.0570936,0.599793,1.04226,0.150765,-0.0335845,0.239492,0.198181,-0.00234222
-0.256246,0.0735539,0.802701,0.12792,-0.0803706,0.170382,0.198181,-0.00234222
-0.30954,-0.410403,0.56213,0.126873,-0.0777819,0.0171886,0.198181,-0.00234222
-0.232809,-0.439523,0.458911,0.169569,-0.041179,-0.139648,0.198181,-0.00234222
-0.0372352,-0.0243354,0.487417,0.201765,0.0130424,-0.244194,0.198181,-0.00234222
0.139236,0.726333,0.64232,0.194906,0.0662187,-0.240936,0.198181,-0.00234222
0.10456,1.14558,0.814382,0.171818,0.072559,-0.0902839,0.198181,-0.00234222
0.0501258,1.08692,0.914945,0.14156,0.00837198,0.0432714,0.198181,-0.00234222
0.083692,0.77854,0.940076,0.101188,-0.0139308,0.102645,0.198181,-0.00234222
0.119458,0.478923,0.951537,0.0673983,-0.0259737,0.129474,0.198181,-0.00234222
0.0445416,0.266463,0.906155,0.0411768,-0.0425065,0.150133,0.198181,-0.00234222
-0.0927054,0.257841,0.841305,0.0307674,-0.059287,0.125599,0.198181,-0.00234222
-0.236399,0.330694,0.81463,0.0404883,-0.0538751,0.0945472,0.198181,-0.00234222
-0.404559,0.343162,0.813752,0.0524848,-0.0739419,0.0704234,0.198181,-0.00234222
-0.675982,0.586153,0.694339,0.04394,-0.131917,0.0303881,0.198181,-0.00234222
-1.15184,0.735456,0.333304,-0.0491231,-0.168681,0.00848156,0.198181,-0.00234222
-1.15184,0.735456,0.333304,-0.0491231,-0.168681,0.00848156,0.258942,-0.00305176
-1.56558,0.365552,-0.0620701,-0.0906085,-0.205557,-0.0618599,0.258942,-0.00305176
-1.56352,-0.090978,-0.287025,0.0318394,-0.232073,-0.259384,0.258942,-0.00305176
-1.14595,-0.0802565,-0.207809,0.158644,-0.157767,-0.470519,0.258942,-0.00305176
-0.597375,0.3203,0.171209,0.268149,-0.0640664,-0.547283,0.258942,-0.00305176
-0.24887,0.740866,0.612967,0.287671,-0.00583239,-0.454267,0.258942,-0.00305176
-0.129898,0.677419,0.932801,0.248467,-0.0234214,-0.310724,0.258942,-0.00305176
0.147373,0.392978,1.10508,0.181982,-0.0317791,-0.303403,0.258942,-0.00305176
0.651002,0.195677,1.30733,0.150896,0.0385374,-0.317802,0.258942,-0.00305176
1.03307,0.193268,1.55974,0.104523,0.131871,-0.244451,0.258942,-0.00305176
1.09191,0.270536,1.78442,0.0304552,0.197025,-0.104957,0.258942,-0.00305176
0.925055,0.297359,1.83471,-0.0695566,0.199805,0.0102379,0.258942,-0.00305176
0.7215,0.251508,1.67542,-0.148997,0.171032,0.0623218,0.258942,-0.00305176
0.612489,0.236495,1.40674,-0.189322,0.149386,0.0726035,0.258942,-0.00305176
0.578886,0.261264,1.14762,-0.184169,0.16856,0.0880706,0.258942,-0.00305176
0.498115,0.335074,0.994393,-0.132234,0.202004,0.129737,0.258942,-0.00305176
0.369499,0.437149,0.933846,-0.0865103,0.235216,0.168379,0.258942,-0.00305176
0.263874,0.54167,0.911298,-0.0789415,0.250815,0.192458,0.258942,-0.00305176
0.167392,0.573802,0.843736,-0.0965632,0.244244,0.223293,0.258942,-0.00305176
0.0574808,0.561498,0.731446,-0.1158,0.220086,0.253776,0.258942,-0.00305176
-0.0940785,0.442426,0.593664,-0.121335,0.194411,0.281964,0.258942,-0.00305176
-0.219662,0.353734,0.507757,-0.105651,0.169612,0.259487,0.258942,-0.00305176
-0.335567,0.275095,0.441563,-0.0793745,0.14131,0.232658,0.258942,-0.00305176
-0.41779,0.217877,0.413834,-0.0585508,0.111882,0.179178,0.258942,-0.00305176
-0.473332,0.229301,0.398374,-0.0559976,0.0746606,0.108817,0.258942,-0.00305176
-0.55417,0.270022,0.391493,-0.0183486,0.0250063,0.053169,0.258942,-0.00305176
-0.577315,0.318412,0.440119,0.0221317,-0.019152,-0.0138815,0.258942,-0.00305176
-0.474358,0.374387,0.501266,0.0453753,-0.0755357,-0.094962,0.258942,-0.00305176
-0.396526,0.352642,0.580387,0.0825228,-0.125958,-0.124206,0.258942,-0.00305176
-0.45354,0.227837,0.671069,0.118013,-0.163131,-0.122434,0.258942,-0.00305176
-0.567,0.083972,0.742236,0.133281,-0.203551,-0.201888,0.258942,-0.00305176
-0.607366,-0.0144555,0.66039,0.0766147,-0.249009,-0.362498,0.258942,-0.00305176
-0.638725,-0.0665897,0.448996,0.0363889,-0.288238,-0.50686,0.258942,-0.00305176
-0.583969,0.0134132,0.273699,0.0944033,-0.292679,-0.620488,0.258942,-0.00305176
-0.465999,0.149842,0.307969,0.14479,-0.186588,-0.638498,0.258942,-0.00305176
-0.388164,0.0771014,0.465301,0.144099,-0.0872891,-0.584108,0.258942,-0.00305176
-0.215229,0.0684541,0.597329,0.118482,-0.0547804,-0.570524,0.258942,-0.00305176
0.233194,0.324868,0.747123,0.130253,-0.0314314,-0.548035,0.258942,-0.00305176
0.794534,0.721999,0.966637,0.153511,0.0416141,-0.388171,0.258942,-0.00305176
1.0325,1.00778,1.21026,0.136592,0.124162,-0.0873319,0.258942,-0.00305176
0.931171,0.940312,1.39308,0.107114,0.132173,0.182634,0.258942,-0.00305176
0.755289,0.546103,1.4753,0.0881254,0.116203,0.322558,0.258942,-0.00305176
0.668849,0.0962359,1.46268,0.0600685,0.11166,0.354251,0.258942,-0.00305176
0.650767,-0.15915,1.37669,0.0241683,0.131626,0.335696,0.258942,-0.00305176
0.646723,-0.18875,1.27582,0.00330164,0.166326,0.316231,0.258942,-0.00305176
0.649632,-0.134301,1.19242,0.0181928,0.200262,0.315017,0.258942,-0.00305176
0.606812,-0.0367788,1.14361,0.0439495,0.228894,0.332861,0.258942,-0.00305176
0.542891,0.0828942,1.11771,0.0549336,0.24441,0.347586,0.258942,-0.00305176
0.49294,0.198212,1.08734,0.0694541,0.244195,0.354741,0.258942,-0.00305176
0.374759,0.279176,1.02664,0.0669934,0.234553,0.371241,0.258942,-0.00305176
0.178484,0.240498,0.956611,0.0741403,0.206042,0.373399,0.258942,-0.00305176
0.000586707,0.0561013,0.85572,0.0854322,0.173518,0.329555,0.258942,-0.00305176
-0.135981,-0.0957252,0.721397,0.0906826,0.150982,0.236282,0.258942,-0.00305176
-0.283254,-0.0327573,0.594035,0.0858533,0.139556,0.119126,0.258942,-0.00305176
-0.499752,0.0690297,0.440103,0.0809415,0.128231,0.0448551,0.258942,-0.00305176
-0.763831,0.0665943,0.298021,0.0896197,0.101312,-0.0333838,0.258942,-0.00305176
-0.882356,0.11949,0.189541,0.09136,0.0851448,-0.180562,0.258942,-0.00305176
-0.86694,0.243899,0.152192,0.0852105,0.0935001,-0.317749,0.258942,-0.00305176
-0.770727,0.488982,0.205123,0.0705404,0.0908744,-0.412243,0.258942,-0.00305176
-0.721533,0.733274,0.262757,0.0197598,0.0706305,-0.407177,0.258942,-0.00305176
-0.806025,0.737972,0.144631,-0.0710402,0.00519037,-0.340869,0.258942,-0.00305176
-0.895693,0.509692,-0.200479,-0.152334,-0.042537,-0.326832,0.258942,-0.00305176
-0.965003,0.182109,-0.447974,-0.13061,-0.0336594,-0.32821,0.258942,-0.00305176
-0.974682,-0.0200575,-0.422971,-0.0913985,0.0128574,-0.367079,0.258942,-0.00305176
-0.914783,-0.134126,-0.327654,-0.109254,0.043171,-0.407417,0.258942,-0.00305176
-0.76146,-0.104568,-0.397479,-0.166948,-0.0171654,-0.454691,0.258942,-0.00305176
-0.507602,0.108259,-0.579144,-0.206951,-0.0604875,-0.468559,0.258942,-0.00305176
-0.198712,0.409512,-0.659035,-0.205515,-0.0178707,-0.405996,0.258942,-0.00305176
0.0541027,0.515625,-0.605942,-0.184197,0.0314355,-0.25395,0.258942,-0.00305176
0.221555,0.335852,-0.510242,-0.192792,0.0610177,-0.0891961,0.258942,-0.00305176
0.362583,-0.0635409,-0.500129,-0.234746,0.0738522,0.0130146,0.258942,-0.00305176
0.451317,-0.38511,-0.580021,-0.26947,0.0760565,0.0752054,0.258942,-0.00305176
0.399981,-0.561501,-0.746528,-0.285517,0.0865143,0.132574,0.258942,-0.00305176
0.284019,-0.457891,-0.914737,-0.266854,0.105603,0.153915,0.258942,-0.00305176
0.215558,-0.189288,-1.03931,-0.246215,0.137079,0.182786,0.258942,-0.00305176
0.20051,-0.000404858,-1.09983,-0.227503,0.149418,0.243576,0.258942,-0.00305176
0.27364,0.0157241,-1.11771,-0.206642,0.168233,0.304662,0.258942,-0.00305176
0.27364,0.0157241,-1.11771,-0.206642,0.168233,0.304662,0.21138,-0.00252533
0.367118,-0.121822,-1.11325,-0.192809,0.17664,0.379759,0.21138,-0.00252533
0.382132,-0.380434,-1.156,-0.188767,0.168001,0.440304,0.21138,-0.00252533
0.307394,-0.542899,-1.25945,-0.180688,0.152093,0.465921,0.21138,-0.00252533
0.197815,-0.578674,-1.40011,-0.152977,0.149936,0.447155,0.21138,-0.00252533
0.108112,-0.570903,-1.43338,-0.0767122,0.144739,0.415745,0.21138,-0.00252533
0.0884318,-0.544845,-1.37187,-0.00819604,0.155594,0.367994,0.21138,-0.00252533
0.0595937,-0.572126,-1.29193,0.0433176,0.134645,0.33759,0.21138,-0.00252533
-0.0688854,-0.590634,-1.2967,0.0872623,0.0739354,0.315671,0.21138,-0.00252533
-0.220458,-0.606654,-1.2961,0.167081,0.0176736,0.25501,0.21138,-0.00252533
-0.327514,-0.616725,-1.25008,0.248938,-0.00756295,0.160432,0.21138,-0.00252533
-0.449826,-0.487874,-1.12492,0.316145,-0.0260064,0.0810832,0.21138,-0.00252533
-0.723968,-0.342682,-0.929897,0.353174,-0.0361729,0.0434508,0.21138,-0.00252533
-1.05481,-0.292843,-0.748566,0.365896,-0.0912007,-0.0232986,0.21138,-0.00252533
-1.37402,-0.575181,-0.727368,0.330192,-0.174537,-0.155319,0.21138,-0.00252533
-1.59585,-0.883917,-0.747355,0.334679,-0.240896,-0.388476,0.21138,-0.00252533
-1.41207,-0.739377,-0.57905,0.394265,-0.222007,-0.730398,0.21138,-0.00252533
-0.848353,-0.120321,-0.0588155,0.435851,-0.131566,-0.964213,0.21138,-0.00252533
-0.290056,0.480837,0.682705,0.419031,-0.0756231,-0.924366,0.21138,-0.00252533
0.117489,0.75131,1.34471,0.325056,-0.0949149,-0.7383,0.21138,-0.00252533
0.376493,0.653762,1.6294,0.148915,-0.153584,-0.524439,0.21138,-0.00252533
0.626081,0.630896,1.59229,0.0111742,-0.176203,-0.377318,0.21138,-0.00252533
0.871696,0.712368,1.50786,-0.0368803,-0.121048,-0.226772,0.21138,-0.00252533
0.998079,0.796495,1.53286,-0.0189227,-0.060009,-0.0500014,0.21138,-0.00252533
0.981355,0.783503,1.62686,0.00179745,-0.0104333,0.120961,0.21138,-0.00252533
0.838247,0.550009,1.69168,-0.0108764,0.000876471,0.253316,0.21138,-0.00252533
0.64881,0.122382,1.67645,-0.0173303,-0.0192598,0.311269,0.21138,-0.00252533
0.500293,-0.318398,1.55998,-0.0354271,-0.03857,0.292921,0.21138,-0.00252533
0.470745,-0.596519,1.38918,-0.043144,-0.0344277,0.191294,0.21138,-0.00252533
0.555169,-0.553142,1.20308,-0.026951,-0.00698543,0.0943833,0.21138,-0.00252533
0.666048,-0.15428,1.08205,-0.00183266,0.0395953,0.0494337,0.21138,-0.00252533
0.703549,0.250986,1.04509,0.0377606,0.0898899,0.115034,0.21138,-0.00252533
0.673918,0.445621,1.0377,0.0656207,0.105074,0.24671,0.21138,-0.00252533
0.604407,0.437705,1.00021,0.0622017,0.108958,0.35712,0.21138,-0.00252533
0.492917,0.290885,0.923997,0.0573442,0.111719,0.430363,0.21138,-0.00252533
0.335878,0.0466639,0.847193,0.0676842,0.0940028,0.454737,0.21138,-0.00252533
0.27807,-0.0513702,0.757868,0.109374,0.0699259,0.390366,0.21138,-0.00252533
0.244516,0.0178961,0.674201,0.128794,0.0732021,0.325645,0.21138,-0.00252533
0.137966,0.215663,0.593038,0.138549,0.0771773,0.270635,0.21138,-0.00252533
-0.0016486,0.398884,0.559346,0.172589,0.0661609,0.223553,0.21138,-0.00252533
-0.116189,0.372206,0.59973,0.22084,0.0471442,0.160294,0.21138,-0.00252533
-0.206796,-0.028353,0.655003,0.226885,0.030277,0.0759752,0.21138,-0.00252533
-0.464259,-0.704413,0.574313,0.142671,0.0222553,-0.0535946,0.21138,-0.00252533
-0.81,-1.13206,0.374952,0.0837629,-0.0214804,-0.299136,0.21138,-0.00252533
-0.891035,-0.896656,0.0957521,0.0195347,-0.0257422,-0.624486,0.21138,-0.00252533
-0.680246,-0.148027,-0.100636,-0.0443686,0.0913669,-0.85077,0.21138,-0.00252533
-0.568226,0.599215,0.000639212,-0.0335817,0.161868,-0.810994,0.21138,-0.00252533
-0.563872,0.739605,0.152967,-0.0399864,0.165019,-0.63725,0.21138,-0.00252533
-0.426539,0.63719,0.170243,-0.0712049,0.104299,-0.515807,0.21138,-0.00252533
-0.242623,0.53472,0.118591,-0.13122,0.0872033,-0.390942,0.21138,-0.00252533
-0.167262,0.441986,-0.0123163,-0.174974,0.0630937,-0.235294,0.21138,-0.00252533
-0.219422,0.335088,-0.218257,-0.190968,0.039835,-0.0802689,0.21138,-0.00252533
-0.345057,0.241453,-0.419555,-0.182872,0.0329995,0.019033,0.21138,-0.00252533
-0.35413,0.24308,-0.529313,-0.156839,0.0441286,0.04271,0.21138,-0.00252533
-0.35413,0.24308,-0.529313,-0.156839,0.0441286,0.04271,0.0370026,-0.000442505
-0.231856,0.277094,-0.515818,-0.146232,0.091417,0.0623669,0.0370026,-0.000442505
-0.0775805,0.258615,-0.462325,-0.163912,0.115851,0.0967684,0.0370026,-0.000442505
0.0470029,0.142885,-0.439612,-0.188472,0.110178,0.166506,0.0370026,-0.000442505
0.0993841,-0.0730879,-0.49589,-0.202446,0.0960792,0.231771,0.0370026,-0.000442505
0.049155,-0.153373,-0.583273,-0.209425,0.097003,0.271882,0.0370026,-0.000442505
-0.0484054,-0.126687,-0.647501,-0.213792,0.107028,0.29894,0.0370026,-0.000442505
-0.119093,-0.0605481,-0.729178,-0.207919,0.0923498,0.309452,0.0370026,-0.000442505
-0.169151,-0.0791641,-0.828651,-0.200036,0.0684481,0.33038,0.0370026,-0.000442505
-0.150396,-0.187998,-0.925109,-0.188149,0.0546896,0.322587,0.0370026,-0.000442505
-0.0848598,-0.266482,-1.01475,-0.181326,0.0478236,0.29748,0.0370026,-0.000442505
-0.0646132,-0.350407,-1.09971,-0.161216,0.0406992,0.276831,0.0370026,-0.000442505
-0.0445534,-0.361828,-1.13512,-0.124223,0.0318128,0.232835,0.0370026,-0.000442505
-0.0193278,-0.451512,-1.08024,-0.0585993,0.022936,0.183427,0.0370026,-0.000442505
0.022505,-0.459084,-0.974867,-0.0253689,0.00941059,0.118953,0.0370026,-0.000442505
0.0401195,-0.412275,-0.920955,-0.0353152,-0.00650418,0.0660228,0.0370026,-0.000442505
0.0119242,-0.367009,-0.967143,-0.0325334,-0.0580946,0.0307429,0.0370026,-0.000442505
-0.0461706,-0.372569,-1.04285,-0.014055,-0.0848629,-0.00675386,0.0370026,-0.000442505
-0.0881529,-0.397077,-0.985719,0.0248875,-0.067536,-0.0512964,0.0370026,-0.000442505
-0.101193,-0.394531,-0.84087,0.0629034,-0.0555263,-0.0962764,0.0370026,-0.000442505
-0.127084,-0.40456,-0.705041,0.0945794,-0.0845921,-0.12061,0.0370026,-0.000442505
-0.129393,-0.339939,-0.601152,0.114096,-0.116125,-0.174792,0.0370026,-0.000442505
-0.160577,-0.274517,-0.51325,0.120925,-0.137174,-0.21163,0.0370026,-0.000442505
-0.242249,-0.186288,-0.453569,0.139917,-0.165615,-0.234702,0.0370026,-0.000442505
-0.327881,-0.0889983,-0.417416,0.15236,-0.188522,-0.269773,0.0370026,-0.000442505
-0.315507,0.0312035,-0.352182,0.186848,-0.203231,-0.325589,0.0370026,-0.000442505
-0.176609,0.245014,-0.207767,0.231467,-0.190839,-0.371128,0.0370026,-0.000442505
-0.00570391,0.42,0.0268063,0.274755,-0.157602,-0.347245,0.0370026,-0.000442505
0.151572,0.45901,0.293667,0.300204,-0.14238,-0.282179,0.0370026,-0.000442505
0.390837,0.444035,0.559206,0.309817,-0.125869,-0.22802,0.0370026,-0.000442505
0.627561,0.420168,0.824638,0.291929,-0.0893892,-0.140858,0.0370026,-0.000442505
0.758849,0.357209,1.07438,0.286118,-0.0712681,-0.0308571,0.0370026,-0.000442505
0.810798,0.214943,1.26876,0.268286,-0.0624294,0.0575172,0.0370026,-0.000442505
0.75636,-0.0775292,1.36964,0.233859,-0.065182,0.115485,0.0370026,-0.000442505
0.656548,-0.25445,1.36586,0.186545,-0.0659981,0.0959961,0.0370026,-0.000442505
0.59452,-0.258815,1.29638,0.15995,-0.0464851,0.0385759,0.0370026,-0.000442505
0.576695,-0.0289196,1.25805,0.151294,-0.00265966,-0.00166088,0.0370026,-0.000442505
0.600573,0.26052,1.24577,0.141535,0.0481109,0.0162633,0.0370026,-0.000442505
0.67474,0.425938,1.25595,0.14991,0.0788584,0.0889977,0.0370026,-0.000442505
0.677639,0.41201,1.2876,0.157023,0.105816,0.206514,0.0370026,-0.000442505
0.635934,0.372821,1.32555,0.156443,0.126753,0.292263,0.0370026,-0.000442505
0.593088,0.340711,1.34478,0.146541,0.145709,0.344076,0.0370026,-0.000442505
0.573683,0.352806,1.35773,0.146313,0.161245,0.371768,0.0370026,-0.000442505
0.508609,0.45736,1.36377,0.137372,0.18149,0.394735,0.0370026,-0.000442505
0.330711,0.462107,1.39097,0.146005,0.194518,0.435499,0.0370026,-0.000442505
0.165379,0.338794,1.4212,0.169682,0.176868,0.424868,0.0370026,-0.000442505
0.0798006,0.207003,1.42918,0.170275,0.17053,0.34364,0.0370026,-0.000442505
0.0185723,0.148733,1.45596,0.187881,0.156774,0.255941,0.0370026,-0.000442505
-0.0570486,0.138088,1.48742,0.200394,0.149004,0.176438,0.0370026,-0.000442505
-0.181874,0.10828,1.51038,0.210429,0.121766,0.0892689,0.0370026,-0.000442505
-0.333111,0.0953357,1.48559,0.20646,0.0837816,-0.00802684,0.0370026,-0.000442505
-0.445089,0.0528418,1.3866,0.18968,0.0592379,-0.115528,0.0370026,-0.000442505
-0.52029,0.0751906,1.30487,0.160024,0.0554425,-0.235152,0.0370026,-0.000442505
-0.50858,0.233136,1.24733,0.129552,0.0498873,-0.354703,0.0370026,-0.000442505
-0.454722,0.441783,1.20757,0.107002,0.0418708,-0.411487,0.0370026,-0.000442505
-0.454722,0.441783,1.20757,0.107002,0.0418708,-0.411487,0.248367,-0.00294495
-0.508829,0.480647,1.17285,0.0774484,0.0249978,-0.390592,0.248367,-0.00294495
-0.665546,0.378251,1.10027,0.0400041,-0.0186251,-0.373981,0.248367,-0.00294495
-0.768126,0.348736,1.00844,0.0138944,-0.0533582,-0.415439,0.248367,-0.00294495
-0.747913,0.471005,0.948249,-0.00558949,-0.0744313,-0.476252,0.248367,-0.00294495
-0.700126,0.526163,0.89709,-0.0230987,-0.0944366,-0.462443,0.248367,-0.00294495
-0.723733,0.468762,0.825519,-0.0488317,-0.113653,-0.409709,0.248367,-0.00294495
-0.69355,0.33042,0.716308,-0.0808437,-0.128925,-0.395584,0.248367,-0.00294495
-0.505558,0.269477,0.610571,-0.100363,-0.117126,-0.430647,0.248367,-0.00294495
-0.154493,0.368598,0.643965,-0.0839925,-0.0637177,-0.444119,0.248367,-0.00294495
0.299851,0.428355,0.766492,-0.0682562,-0.00643489,-0.354778,0.248367,-0.00294495
0.66073,0.494688,0.853616,-0.0948067,0.0348221,-0.209869,0.248367,-0.00294495
0.809963,0.571984,0.912434,-0.134003,0.0918817,-0.060755,0.248367,-0.00294495
0.822581,0.540949,0.964751,-0.187273,0.130754,0.0633609,0.248367,-0.00294495
0.834511,0.360174,0.961575,-0.234672,0.156828,0.149144,0.248367,-0.00294495
0.874165,0.124175,0.866814,-0.27612,0.178718,0.205794,0.248367,-0.00294495
0.845251,-0.0439685,0.682265,-0.307464,0.183684,0.271218,0.248367,-0.00294495
0.684848,-0.0955827,0.43004,-0.306413,0.182449,0.345979,0.248367,-0.00294495
0.478954,-0.0586031,0.170853,-0.278678,0.185261,0.402628,0.248367,-0.00294495
0.246309,-0.055168,-0.046262,-0.229724,0.195059,0.44718,0.248367,-0.00294495
0.0787822,-0.127388,-0.173213,-0.156863,0.196053,0.454832,0.248367,-0.00294495
0.0612423,-0.152697,-0.212906,-0.100831,0.211295,0.428267,0.248367,-0.00294495
0.187826,-0.136554,-0.205544,-0.0636027,0.228365,0.402661,0.248367,-0.00294495
0.298224,-0.121239,-0.151335,-0.0196006,0.237909,0.434442,0.248367,-0.00294495
0.210819,-0.234764,-0.103834,0.00187258,0.246549,0.510931,0.248367,-0.00294495
-0.0503926,-0.396093,-0.0272647,0.0416145,0.228764,0.545677,0.248367,-0.00294495
-0.320923,-0.593266,0.0638942,0.0713,0.190184,0.483609,0.248367,-0.00294495
-0.435064,-0.712903,0.144415,0.0483836,0.177296,0.328742,0.248367,-0.00294495
-0.445126,-0.618812,0.125745,-0.00255097,0.116838,0.187657,0.248367,-0.00294495
-0.596809,-0.455879,-0.0932844,-0.0641617,0.0494222,0.120813,0.248367,-0.00294495
-0.942878,-0.309421,-0.349202,-0.071269,-0.0151187,0.0840123,0.248367,-0.00294495
-1.26669,-0.23959,-0.513906,-0.0353833,-0.0421514,-0.00225508,0.248367,-0.00294495
-1.39119,-0.136271,-0.506601,-0.000779796,-0.0432181,-0.137812,0.248367,-0.00294495
-1.28125,-0.0895253,-0.400748,0.0165187,-0.0615492,-0.264107,0.248367,-0.00294495
-0.893183,0.0628206,-0.276783,0.0167623,-0.105196,-0.373065,0.248367,-0.00294495
-0.474619,0.330636,-0.154777,0.00528291,-0.128136,-0.349379,0.248367,-0.00294495
-0.275898,0.519175,-0.0476755,-0.00828839,-0.162912,-0.195867,0.248367,-0.00294495
-0.241058,0.499386,-0.0149291,-0.034304,-0.201657,-0.0410965,0.248367,-0.00294495
-0.175697,0.465873,-0.0236891,-0.0548167,-0.234521,0.0250233,0.248367,-0.00294495
-0.0241461,0.279755,-0.0438295,-0.0556135,-0.243613,0.0425922,0.248367,-0.00294495
0.190021,0.05752,-0.0551077,-0.0331559,-0.254648,0.00671238,0.248367,-0.00294495
0.307193,-0.0880533,-0.0678714,-0.0137602,-0.251485,-0.0228301,0.248367,-0.00294495
0.318533,-0.0830469,-0.0696254,0.0177384,-0.242078,-0.0705426,0.248367,-0.00294495
0.329124,0.136956,-0.0674413,0.034414,-0.221799,-0.120791,0.248367,-0.00294495
0.213425,0.16211,-0.0633104,0.0553314,-0.221195,-0.0980223,0.248367,-0.00294495
-0.0240826,-0.23911,-0.13489,0.0182605,-0.229175,-0.098839,0.248367,-0.00294495
-0.191447,-0.756533,-0.256046,0.0187377,-0.241376,-0.234387,0.248367,-0.00294495
-0.0705075,-0.779032,-0.307291,0.048006,-0.19217,-0.425324,0.248367,-0.00294495
0.294015,-0.233217,-0.204194,0.126779,-0.104225,-0.495643,0.248367,-0.00294495
0.64943,0.554464,0.0758172,0.189124,0.00632115,-0.355774,0.248367,-0.00294495
0.826398,1.20052,0.355534,0.213753,0.0354769,-0.0743879,0.248367,-0.00294495
0.834737,1.48518,0.535392,0.191492,0.0322972,0.196222,0.248367,-0.00294495
0.647302,1.31078,0.717907,0.185343,0.0165403,0.393986,0.248367,-0.00294495
0.374701,0.869674,0.921351,0.208911,-0.016546,0.479492,0.248367,-0.00294495
0.0814397,0.092947,1.08836,0.235995,-0.0535977,0.48429,0.248367,-0.00294495
0.0814397,0.092947,1.08836,0.235995,-0.0535977,0.48429,0.261597,-0.00308228
-0.189401,-0.778186,1.21902,0.239738,-0.0690625,0.392411,0.261597,-0.00308228
-0.326978,-1.30501,1.31999,0.201158,-0.0333398,0.155786,0.261597,-0.00308228
-0.273951,-1.30207,1.36535,0.192907,-0.0408753,-0.106288,0.261597,-0.00308228
0.0129264,-0.803372,1.36989,0.211975,-0.0333723,-0.329868,0.261597,-0.00308228
0.375312,0.00683561,1.48199,0.243305,0.00891119,-0.415046,0.261597,-0.00308228
0.595835,0.507077,1.72011,0.292017,0.0505947,-0.29462,0.261597,-0.00308228
0.681692,0.636361,1.90739,0.282776,0.0457605,-0.113547,0.261597,-0.00308228
0.694044,0.578899,1.97207,0.22813,0.0362598,0.0134286,0.261597,-0.00308228
0.672459,0.35783,1.94414,0.173315,0.0268447,0.0864599,0.261597,-0.00308228
0.691524,0.0595833,1.86503,0.151776,0.0202584,0.110461,0.261597,-0.00308228
0.751742,-0.118599,1.7047,0.148668,0.019833,0.0845968,0.261597,-0.00308228
0.73455,0.0364568,1.57862,0.132889,0.0592114,0.0587571,0.261597,-0.00308228
0.591531,0.308257,1.4602,0.127915,0.0865337,0.070098,0.261597,-0.00308228
0.398906,0.432485,1.31365,0.130793,0.0714546,0.0905589,0.261597,-0.00308228
0.279081,0.447035,1.15644,0.125837,0.0483351,0.0534726,0.261597,-0.00308228
0.275608,0.513011,1.01837,0.108948,0.0584503,-0.0212448,0.261597,-0.00308228
0.227087,0.554624,0.944396,0.120552,0.0627548,-0.0528358,0.261597,-0.00308228
0.0280169,0.488601,0.895348,0.134625,0.0469607,-0.0565937,0.261597,-0.00308228
-0.290238,0.458308,0.828904,0.112729,0.0441457,-0.0859447,0.261597,-0.00308228
-0.701764,0.25929,0.718262,0.0547644,0.033474,-0.140245,0.261597,-0.00308228
-1.03222,-0.0667949,0.521965,0.00905154,-0.0247568,-0.27371,0.261597,-0.00308228
-1.06264,-0.0809506,0.284116,-0.025214,-0.0422765,-0.463972,0.261597,-0.00308228
-0.938868,0.191402,0.214827,-0.0122043,0.0105874,-0.547549,0.261597,-0.00308228
-0.847313,0.539019,0.243544,-0.0768269,0.10487,-0.521391,0.261597,-0.00308228
-0.939027,0.631752,0.216371,-0.108924,0.066587,-0.424779,0.261597,-0.00308228
-0.959349,0.584633,-0.00627101,-0.145492,-0.0140146,-0.390149,0.261597,-0.00308228
-0.729856,0.617666,-0.214541,-0.135019,-0.0134847,-0.418262,0.261597,-0.00308228
-0.29278,0.834042,-0.178667,-0.0851704,0.0801023,-0.418608,0.261597,-0.00308228
0.150658,1.04991,0.0810109,-0.0490424,0.192696,-0.292156,0.261597,-0.00308228
0.379024,0.927273,0.388754,-0.067651,0.251476,-0.0786375,0.261597,-0.00308228
0.421523,0.461577,0.599206,-0.117467,0.238319,0.0976018,0.261597,-0.00308228
0.392442,-0.0925646,0.605486,-0.207656,0.196806,0.17453,0.261597,-0.00308228
0.366896,-0.326002,0.444295,-0.272111,0.152891,0.169502,0.261597,-0.00308228
0.297855,-0.26769,0.171044,-0.300351,0.132856,0.180502,0.261597,-0.00308228
0.172715,-0.0784744,-0.0971591,-0.263442,0.11418,0.219631,0.261597,-0.00308228
0.0636972,0.0804166,-0.312773,-0.204961,0.105599,0.270326,0.261597,-0.00308228
-0.0154325,0.0504128,-0.411301,-0.138972,0.12015,0.324648,0.261597,-0.00308228
-0.0331899,-0.0660995,-0.436525,-0.0847934,0.115388,0.338786,0.261597,-0.00308228
0.0369182,-0.15116,-0.433421,-0.0437489,0.113425,0.329023,0.261597,-0.00308228
0.110349,-0.143536,-0.435528,-0.0271648,0.113908,0.323156,0.261597,-0.00308228
0.0849733,-0.21194,-0.438158,-0.00560693,0.108677,0.34806,0.261597,-0.00308228
0.00572373,-0.321281,-0.467497,0.0165133,0.0925528,0.341464,0.261597,-0.00308228
-0.0572734,-0.292738,-0.499937,0.028029,0.0814593,0.282313,0.261597,-0.00308228
-0.13781,-0.270866,-0.52902,0.0500843,0.0646175,0.228067,0.261597,-0.00308228
-0.201728,-0.301495,-0.477063,0.110227,0.0566243,0.147777,0.261597,-0.00308228
-0.216485,-0.327643,-0.305095,0.140171,0.0645044,0.0464652,0.261597,-0.00308228
-0.165007,-0.461344,-0.133173,0.127639,0.0314241,-0.0621144,0.261597,-0.00308228
-0.0984896,-0.652895,-0.0465098,0.101326,-0.0221739,-0.143941,0.261597,-0.00308228
-0.0854328,-0.688211,-0.067641,0.0583055,-0.0693662,-0.217587,0.261597,-0.00308228
-0.233445,-0.621125,-0.229416,0.001671,-0.118109,-0.265671,0.261597,-0.00308228
-0.440878,-0.456526,-0.484018,-0.00743516,-0.178138,-0.350351,0.261597,-0.00308228
-0.505161,-0.0344131,-0.717218,0.0158719,-0.200127,-0.472269,0.261597,-0.00308228
-0.342823,0.537877,-0.780859,0.0765372,-0.168274,-0.538795,0.261597,-0.00308228
-0.080908,0.981094,-0.6082,0.146226,-0.120985,-0.481462,0.261597,-0.00308228
-0.080908,0.981094,-0.6082,0.146226,-0.120985,-0.481462,0.235168,-0.0027771
0.0765166,1.0144,-0.365951,0.196283,-0.110833,-0.312775,0.235168,-0.0027771
0.159197,0.853863,-0.155495,0.210553,-0.123169,-0.181235,0.235168,-0.0027771
0.206808,0.683306,0.036528,0.211604,-0.118693,-0.106706,0.235168,-0.0027771
0.300442,0.708955,0.215362,0.21236,-0.0953729,-0.0833413,0.235168,-0.0027771
0.405247,0.781515,0.440441,0.228867,-0.0518952,-0.0386472,0.235168,-0.0027771
0.462476,0.687426,0.733466,0.254555,-0.0185807,0.0345533,0.235168,-0.0027771
0.475684,0.421393,1.02788,0.254798,-0.00617221,0.0922513,0.235168,-0.0027771
0.439232,0.045206,1.26416,0.243187,-0.00545853,0.12069,0.235168,-0.0027771
0.412914,-0.0758144,1.37152,0.196809,0.00223398,0.0824227,0.235168,-0.0027771
0.441901,0.171554,1.41485,0.154619,0.0180887,0.0281842,0.235168,-0.0027771
0.505554,0.479943,1.44913,0.132764,0.0568047,0.0581582,0.235168,-0.0027771
0.513884,0.617764,1.50432,0.132177,0.0893265,0.155256,0.235168,-0.0027771
0.487522,0.64906,1.56425,0.126963,0.108086,0.245182,0.235168,-0.0027771
0.471024,0.570222,1.63706,0.121146,0.13548,0.297805,0.235168,-0.0027771
0.466668,0.50647,1.72632,0.122126,0.154595,0.336773,0.235168,-0.0027771
0.400699,0.424728,1.80352,0.10999,0.178716,0.374216,0.235168,-0.0027771
0.359792,0.332724,1.85858,0.0979246,0.175823,0.364407,0.235168,-0.0027771
0.363552,0.212629,1.8752,0.083248,0.17825,0.339709,0.235168,-0.0027771
0.314333,0.0740447,1.85113,0.0693197,0.173473,0.320006,0.235168,-0.0027771
0.171853,0.00895747,1.77261,0.0587154,0.153185,0.282914,0.235168,-0.0027771
-0.027193,-0.0359796,1.67277,0.0553751,0.142522,0.213936,0.235168,-0.0027771
-0.224756,-0.0950919,1.55719,0.0594195,0.121679,0.115687,0.235168,-0.0027771
-0.332789,-0.144429,1.39432,0.0357411,0.0937674,-0.00869524,0.235168,-0.0027771
-0.480519,-0.34244,1.19303,0.00386085,0.0732854,-0.10374,0.235168,-0.0027771
-0.642435,-0.525505,0.999652,-0.012809,0.0543792,-0.247912,0.235168,-0.0027771
-0.679416,-0.31923,0.796365,-0.0419179,0.0531249,-0.431014,0.235168,-0.0027771
-0.585514,0.189716,0.552022,-0.117369,0.0802973,-0.550468,0.235168,-0.0027771
-0.523601,0.626884,0.349827,-0.130473,0.080537,-0.524096,0.235168,-0.0027771
-0.516932,0.569312,0.286915,-0.0794299,0.0573403,-0.409722,0.235168,-0.0027771
-0.462249,0.383258,0.268049,-0.102795,0.0526204,-0.353118,0.235168,-0.0027771
-0.391723,0.240786,0.175207,-0.162005,0.0209253,-0.322951,0.235168,-0.0027771
-0.388077,0.115646,-0.103039,-0.224963,-0.0278635,-0.284821,0.235168,-0.0027771
-0.554528,-0.0879528,-0.538684,-0.281501,-0.0590527,-0.25169,0.235168,-0.0027771
-0.729865,-0.18052,-0.941652,-0.249905,-0.0729803,-0.315279,0.235168,-0.0027771
-0.56992,0.126199,-1.09907,-0.189595,0.010984,-0.461009,0.235168,-0.0027771
-0.0817495,0.602931,-1.00931,-0.13452,0.105842,-0.496922,0.235168,-0.0027771
0.416584,0.902715,-0.764972,-0.135987,0.188121,-0.327336,0.235168,-0.0027771
0.654918,0.791814,-0.613537,-0.198563,0.19316,-0.0789703,0.235168,-0.0027771
0.700534,0.382189,-0.608982,-0.251418,0.163302,0.115181,0.235168,-0.0027771
0.619572,-0.0177578,-0.711501,-0.296935,0.150191,0.22277,0.235168,-0.0027771
0.526597,-0.198165,-0.861641,-0.336372,0.150664,0.252463,0.235168,-0.0027771
0.497,-0.196339,-1.02203,-0.35665,0.17626,0.257901,0.235168,-0.0027771
0.495398,-0.150662,-1.17395,-0.349814,0.200406,0.295857,0.235168,-0.0027771
0.47152,-0.129579,-1.29565,-0.321644,0.206215,0.346105,0.235168,-0.0027771
0.41121,-0.201523,-1.40469,-0.299554,0.218729,0.402558,0.235168,-0.0027771
0.32822,-0.392375,-1.45565,-0.244897,0.224145,0.439999,0.235168,-0.0027771
0.24301,-0.609242,-1.45333,-0.199397,0.227653,0.455523,0.235168,-0.0027771
0.107104,-0.752082,-1.4531,-0.168337,0.217853,0.438149,0.235168,-0.0027771
-0.0225911,-0.803201,-1.48067,-0.151205,0.198583,0.401424,0.235168,-0.0027771
-0.0837559,-0.841629,-1.51813,-0.110613,0.178064,0.341713,0.235168,-0.0027771
-0.152964,-0.781969,-1.54071,-0.0796513,0.155717,0.311842,0.235168,-0.0027771
-0.364327,-0.829014,-1.58645,-0.0586852,0.126305,0.309123,0.235168,-0.0027771
-0.621766,-0.904713,-1.66876,-0.0339877,0.0835142,0.272411,0.235168,-0.0027771
-0.831208,-0.986627,-1.76197,0.0122873,0.0413531,0.19361,0.235168,-0.0027771
-0.831208,-0.986627,-1.76197,0.0122873,0.0413531,0.19361,0.221954,-0.00262451
-0.95651,-0.941377,-1.77179,0.0658743,0.0176864,0.0752319,0.221954,-0.00262451
-0.958441,-0.693689,-1.70639,0.112791,0.00791091,-0.0499066,0.221954,-0.00262451
-0.95761,-0.429773,-1.5907,0.177532,-0.0305852,-0.108021,0.221954,-0.00262451
-1.00155,-0.265927,-1.46292,0.219274,-0.080307,-0.130109,0.221954,-0.00262451
-1.00775,-0.188823,-1.32051,0.238726,-0.130179,-0.185511,0.221954,-0.00262451
-0.92629,-0.242712,-1.11473,0.282053,-0.166319,-0.248692,0.221954,-0.00262451
-0.691015,-0.350421,-0.823941,0.340038,-0.188261,-0.334629,0.221954,-0.00262451
-0.35097,-0.282642,-0.467735,0.37056,-0.199684,-0.422708,0.221954,-0.00262451
-0.112199,-0.113163,-0.123245,0.363502,-0.221844,-0.445173,0.221954,-0.00262451
-0.0272355,-0.0441594,0.149789,0.317771,-0.243105,-0.42243,0.221954,-0.00262451
0.0170688,-0.0407378,0.321197,0.234973,-0.257496,-0.445251,0.221954,-0.00262451
0.14085,-0.0102869,0.391969,0.149374,-0.263033,-0.492884,0.221954,-0.00262451
0.286315,0.0622046,0.35232,0.103415,-0.267692,-0.494282,0.221954,-0.00262451
0.369652,0.388067,0.270997,0.082842,-0.250583,-0.454897,0.221954,-0.00262451
0.374554,0.791614,0.218732,0.0833904,-0.187113,-0.360076,0.221954,-0.00262451
0.439298,1.03095,0.318147,0.132176,-0.124695,-0.247635,0.221954,-0.00262451
0.635966,1.1028,0.580603,0.190245,-0.0579405,-0.135085,0.221954,-0.00262451
0.807771,0.898324,0.9211,0.220646,-0.00820424,-0.000954628,0.221954,-0.00262451
0.939072,0.605746,1.21156,0.204314,0.00462884,0.0876145,0.221954,-0.00262451
0.956075,0.279857,1.39681,0.155796,0.0160431,0.144722,0.221954,-0.00262451
0.854132,-0.0258143,1.47722,0.119789,0.0152325,0.160697,0.221954,-0.00262451
0.711606,-0.194621,1.4251,0.0832457,0.00754669,0.117467,0.221954,-0.00262451
0.675774,-0.094542,1.30478,0.0559784,0.023694,0.0239711,0.221954,-0.00262451
0.725096,0.186294,1.21952,0.0635034,0.0669328,-0.0115082,0.221954,-0.00262451
0.766495,0.410357,1.21702,0.104479,0.0967079,0.0401621,0.221954,-0.00262451
0.80413,0.502584,1.25383,0.121713,0.12255,0.128643,0.221954,-0.00262451
0.82329,0.562282,1.28139,0.10678,0.144887,0.219214,0.221954,-0.00262451
0.802749,0.586064,1.24065,0.0901938,0.139844,0.302688,0.221954,-0.00262451
0.716785,0.607774,1.13,0.0815333,0.129839,0.358162,0.221954,-0.00262451
0.598283,0.639173,1.03081,0.0995778,0.129022,0.378357,0.221954,-0.00262451
0.529234,0.637205,1.02708,0.144575,0.151026,0.37205,0.221954,-0.00262451
0.441416,0.617356,1.04932,0.168815,0.157452,0.370364,0.221954,-0.00262451
0.260548,0.459772,1.01981,0.16636,0.136088,0.362138,0.221954,-0.00262451
0.117732,0.182099,0.971937,0.182118,0.115953,0.299417,0.221954,-0.00262451
0.0674534,0.00166315,0.911991,0.186,0.111647,0.172221,0.221954,-0.00262451
-0.00573353,-0.0401428,0.87107,0.179569,0.110885,0.0494241,0.221954,-0.00262451
-0.186801,-0.0930068,0.834699,0.159862,0.0939652,-0.0481015,0.221954,-0.00262451
-0.343186,-0.084347,0.749045,0.112892,0.0709716,-0.183459,0.221954,-0.00262451
-0.333287,-0.0561024,0.643591,0.075554,0.0647716,-0.318528,0.221954,-0.00262451
-0.304028,0.106489,0.539729,0.0324377,0.0894115,-0.385973,0.221954,-0.00262451
-0.402086,0.40132,0.461401,-0.0143031,0.0995082,-0.393984,0.221954,-0.00262451
-0.567183,0.670989,0.408069,-0.0483795,0.0873045,-0.377672,0.221954,-0.00262451
-0.663073,0.634368,0.439345,-0.0761023,0.0807563,-0.362058,0.221954,-0.00262451
-0.565827,0.435638,0.491623,-0.106574,0.0538385,-0.382786,0.221954,-0.00262451
-0.39244,0.306194,0.469775,-0.16957,0.0335091,-0.374566,0.221954,-0.00262451
-0.412372,0.199227,0.360934,-0.222278,0.00788203,-0.295343,0.221954,-0.00262451
-0.56327,0.035426,0.199327,-0.253095,-0.0105849,-0.227955,0.221954,-0.00262451
-0.579384,-0.123475,0.0415652,-0.266156,-0.0289693,-0.249352,0.221954,-0.00262451
-0.401966,-0.0777763,-0.157724,-0.277683,-0.039234,-0.301937,0.221954,-0.00262451
-0.120136,0.107522,-0.302913,-0.286684,-0.0193011,-0.294896,0.221954,-0.00262451
0.104607,0.233269,-0.38819,-0.276846,0.0188873,-0.182371,0.221954,-0.00262451
0.205158,0.157272,-0.426383,-0.266495,0.0528286,-0.0454014,0.221954,-0.00262451
0.273709,-0.0764692,-0.465811,-0.25637,0.0731807,0.0336579,0.221954,-0.00262451
0.273709,-0.0764692,-0.465811,-0.25637,0.0731807,0.0336579,0.256302,-0.00304413
0.339469,-0.337666,-0.518191,-0.264829,0.0903884,0.0661314,0.256302,-0.00304413
0.364204,-0.461918,-0.665351,-0.309722,0.107126,0.0769895,0.256302,-0.00304413
0.373784,-0.455356,-0.849214,-0.322253,0.137289,0.0955477,0.256302,-0.00304413
0.430849,-0.396096,-1.01388,-0.298926,0.173695,0.13638,0.256302,-0.00304413
0.449325,-0.29308,-1.13063,-0.264019,0.212294,0.210359,0.256302,-0.00304413
0.388698,-0.232199,-1.20188,-0.224381,0.239253,0.306967,0.256302,-0.00304413
0.300288,-0.251954,-1.25737,-0.201524,0.250801,0.386863,0.256302,-0.00304413
0.218149,-0.350959,-1.30645,-0.182126,0.255526,0.434657,0.256302,-0.00304413
0.150132,-0.511601,-1.36248,-0.154286,0.250467,0.45466,0.256302,-0.00304413
0.0583857,-0.705905,-1.41459,-0.124967,0.245792,0.45823,0.256302,-0.00304413
-0.0978038,-0.867384,-1.43918,-0.0885114,0.25081,0.43776,0.256302,-0.00304413
-0.268962,-0.955363,-1.41912,-0.0365781,0.239991,0.376317,0.256302,-0.00304413
-0.360043,-0.978383,-1.37628,0.00223078,0.217059,0.286753,0.256302,-0.00304413
-0.416568,-0.947923,-1.33151,0.0478316,0.17832,0.214835,0.256302,-0.00304413
-0.590354,-0.85474,-1.28519,0.0836754,0.118869,0.182469,0.256302,-0.00304413
-0.88705,-0.774881,-1.30468,0.106587,0.0604216,0.153266,0.256302,-0.00304413
-1.19187,-0.626355,-1.35985,0.145401,-0.0169536,0.0610538,0.256302,-0.00304413
-1.40205,-0.346851,-1.37232,0.191004,-0.0548227,-0.0623434,0.256302,-0.00304413
-1.51899,-0.25815,-1.30773,0.262901,-0.101059,-0.173106,0.256302,-0.00304413
-1.42059,-0.305936,-1.10334,0.348947,-0.149665,-0.311453,0.256302,-0.00304413
-1.06574,-0.303704,-0.792814,0.395656,-0.165986,-0.465302,0.256302,-0.00304413
-0.62485,-0.264222,-0.44744,0.423304,-0.190052,-0.545404,0.256302,-0.00304413
-0.261858,-0.193457,-0.143787,0.429622,-0.228911,-0.567606,0.256302,-0.00304413
-0.0376735,0.0294197,0.103757,0.395854,-0.258375,-0.563603,0.256302,-0.00304413
0.0927373,0.393832,0.252497,0.337289,-0.281032,-0.54193,0.256302,-0.00304413
0.19939,0.77615,0.348071,0.277359,-0.298673,-0.498151,0.256302,-0.00304413
0.314159,0.865131,0.370518,0.227718,-0.298519,-0.413921,0.256302,-0.00304413
0.395089,0.682729,0.378956,0.222897,-0.299191,-0.328294,0.256302,-0.00304413
0.420591,0.419696,0.42433,0.230948,-0.262819,-0.289604,0.256302,-0.00304413
0.598941,0.229936,0.478729,0.206809,-0.175708,-0.311238,0.256302,-0.00304413
0.904495,0.273731,0.639264,0.2045,-0.0746582,-0.268239,0.256302,-0.00304413
1.15273,0.481443,0.869745,0.191711,0.0242533,-0.153354,0.256302,-0.00304413
1.21289,0.59779,1.16292,0.175738,0.0807282,-0.00890338,0.256302,-0.00304413
1.13839,0.448612,1.45255,0.170766,0.0875542,0.0962783,0.256302,-0.00304413
1.03986,0.0757616,1.57159,0.143947,0.0609859,0.127536,0.256302,-0.00304413
1.04927,-0.281887,1.52916,0.117271,0.0490028,0.0865034,0.256302,-0.00304413
1.11376,-0.472385,1.44601,0.0978954,0.0845638,0.0481739,0.256302,-0.00304413
1.1251,-0.470702,1.39124,0.0751625,0.138457,0.0599236,0.256302,-0.00304413
1.0734,-0.309699,1.34867,0.0552753,0.182752,0.103311,0.256302,-0.00304413
0.934942,-0.274608,1.26631,0.0252998,0.199082,0.147298,0.256302,-0.00304413
0.845761,-0.0140652,1.11667,0.00204353,0.187743,0.165977,0.256302,-0.00304413
0.80997,0.405274,0.925384,-0.0057288,0.225469,0.193771,0.256302,-0.00304413
0.796908,0.832044,0.837252,0.00653012,0.263079,0.233343,0.256302,-0.00304413
0.75912,1.15621,0.882342,0.03006,0.293252,0.303542,0.256302,-0.00304413
0.685241,1.16152,0.956429,0.0238834,0.294468,0.357103,0.256302,-0.00304413
0.619871,0.929963,0.951278,0.0179576,0.276736,0.37645,0.256302,-0.00304413
0.523324,0.675311,0.924694,0.0470071,0.236063,0.382263,0.256302,-0.00304413
0.341438,0.386682,0.863328,0.0711765,0.199366,0.357101,0.256302,-0.00304413
0.110563,0.342481,0.800771,0.0722344,0.171702,0.302401,0.256302,-0.00304413
-0.104418,0.41568,0.752748,0.0842462,0.136931,0.206491,0.256302,-0.00304413
-0.313779,0.470065,0.733616,0.136926,0.0971275,0.116478,0.256302,-0.00304413
-0.556899,0.449947,0.810295,0.173167,0.0665965,0.0363387,0.256302,-0.00304413
-0.829055,0.457577,0.825616,0.148844,0.0298818,-0.0657464,0.256302,-0.00304413
-0.948608,0.313213,0.739201,0.102345,-0.0354256,-0.22429,0.256302,-0.00304413
-0.948608,0.313213,0.739201,0.102345,-0.0354256,-0.22429,0.237808,-0.00283051
-0.793097,0.213653,0.608393,0.0775145,-0.0913827,-0.392992,0.237808,-0.00283051
-0.530689,0.28504,0.470347,0.0560166,-0.0979443,-0.471183,0.237808,-0.00283051
-0.464008,0.487389,0.43792,0.0514118,-0.0846466,-0.436784,0.237808,-0.00283051
-0.572769,0.678509,0.489842,0.0353298,-0.0705227,-0.3588,0.237808,-0.00283051
-0.741545,0.794527,0.440024,-0.0113127,-0.0904865,-0.281902,0.237808,-0.00283051
-0.892941,0.595795,0.332616,-0.039416,-0.122812,-0.235068,0.237808,-0.00283051
-0.906236,0.109425,0.200794,-0.0643616,-0.123561,-0.242978,0.237808,-0.00283051
-0.731799,-0.241657,0.0606174,-0.0730906,-0.109413,-0.329775,0.237808,-0.00283051
-0.46996,-0.127079,-0.0350563,-0.0835362,-0.0612491,-0.395417,0.237808,-0.00283051
-0.195157,0.241785,0.0253098,-0.0802038,0.00120956,-0.358895,0.237808,-0.00283051
0.0467007,0.632121,0.170918,-0.0683295,0.0340127,-0.248657,0.237808,-0.00283051
0.193665,0.720081,0.226818,-0.0801487,0.0255322,-0.0834079,0.237808,-0.00283051
0.266154,0.405526,0.234066,-0.0964171,0.0218311,0.0495161,0.237808,-0.00283051
0.297802,-0.0634368,0.230749,-0.100996,0.0361084,0.104233,0.237808,-0.00283051
0.3665,-0.323192,0.244768,-0.128775,0.0828358,0.0648494,0.237808,-0.00283051
0.498322,-0.387144,0.280437,-0.164492,0.127855,0.0193228,0.237808,-0.00283051
0.668154,-0.26417,0.274666,-0.182622,0.153662,0.031666,0.237808,-0.00283051
0.755157,-0.112669,0.233546,-0.188649,0.170375,0.117877,0.237808,-0.00283051
0.734972,0.0886275,0.166404,-0.193242,0.174339,0.227149,0.237808,-0.00283051
0.640696,0.310261,0.0242693,-0.216696,0.158553,0.31732,0.237808,-0.00283051
0.536361,0.433495,-0.141289,-0.213246,0.153178,0.386299,0.237808,-0.00283051
0.498281,0.363512,-0.262499,-0.185482,0.163875,0.417751,0.237808,-0.00283051
0.50724,0.197067,-0.336182,-0.152619,0.166948,0.417845,0.237808,-0.00283051
0.484457,0.0331285,-0.380044,-0.111561,0.169563,0.406023,0.237808,-0.00283051
0.358337,-0.128449,-0.382926,-0.0533035,0.173091,0.396039,0.237808,-0.00283051
0.144552,-0.27327,-0.260339,0.0185084,0.154209,0.383766,0.237808,-0.00283051
-0.086021,-0.324133,-0.157501,0.0157106,0.146466,0.333211,0.237808,-0.00283051
-0.274241,-0.275688,-0.148334,-0.0213286,0.109637,0.254642,0.237808,-0.00283051
-0.371255,-0.231264,-0.205261,-0.0141056,0.0660719,0.172534,0.237808,-0.00283051
-0.45288,-0.0924683,-0.255325,-0.00357106,0.0515043,0.115309,0.237808,-0.00283051
-0.546739,0.0407254,-0.220444,0.0231629,0.0493885,0.0888517,0.237808,-0.00283051
-0.598725,0.13384,-0.132859,0.0474681,0.0324929,0.0788304,0.237808,-0.00283051
-0.583079,0.121146,-0.0303987,0.0568544,0.00868392,0.06853,0.237808,-0.00283051
-0.561153,0.103301,0.0515043,0.0452071,-0.0246296,0.0672955,0.237808,-0.00283051
-0.615927,0.0960629,0.0824949,0.0309739,-0.0596436,0.0746346,0.237808,-0.00283051
-0.671752,0.0830821,0.109819,0.0091249,-0.0913584,0.0437356,0.237808,-0.00283051
-0.6176,0.106233,0.152133,-0.00108616,-0.111285,-0.0109202,0.237808,-0.00283051
-0.523574,0.0638117,0.246069,0.0089255,-0.128428,-0.018236,0.237808,-0.00283051
-0.429355,0.0115518,0.333668,0.010274,-0.164541,-0.0341456,0.237808,-0.00283051
-0.31759,0.104002,0.324075,-0.0149426,-0.213368,-0.0657761,0.237808,-0.00283051
-0.213745,0.224798,0.262835,-0.0235068,-0.250854,-0.0789924,0.237808,-0.00283051
-0.177364,0.244746,0.204936,-0.0133782,-0.271591,-0.0685791,0.237808,-0.00283051
-0.183052,0.121981,0.200444,0.0106911,-0.275781,-0.0636405,0.237808,-0.00283051
-0.0918229,0.0789192,0.196034,0.0306638,-0.281903,-0.124911,0.237808,-0.00283051
-0.0126038,0.296015,0.152264,0.0533381,-0.295632,-0.169432,0.237808,-0.00283051
-0.144247,0.501092,0.0816781,0.071155,-0.285339,-0.139636,0.237808,-0.00283051
-0.15265,0.503592,0.0591162,0.105088,-0.24937,-0.162161,0.237808,-0.00283051
0.215096,-0.64818,-0.00660833,0.189076,-0.223172,-0.173415,0.237808,-0.00283051
-0.0473826,-1.01866,0.0848086,0.208514,-0.188069,-0.191406,0.237808,-0.00283051
-0.221669,-0.43383,0.151028,0.144787,-0.0782544,-0.350026,0.237808,-0.00283051
-0.214964,0.566491,0.279066,0.159645,-0.0275513,-0.381416,0.237808,-0.00283051
-0.105981,1.28516,0.496984,0.186467,0.0437242,-0.216036,0.237808,-0.00283051
0.0360014,1.39192,0.75957,0.18974,0.0992649,0.0283121,0.237808,-0.00283051
