rotationRate_x,rotationRate_y,rotationRate_z,acceleration_x,acceleration_y,acceleration_z,relativeAltitude
-0.36688,-0.072879,1.3292,0.155404,-0.0260578,-0.133052,0
-0.36688,-0.072879,1.3292,0.155404,-0.0260578,-0.133052,0
-0.497217,0.0565277,1.32133,0.152931,0.0146578,-0.117931,0
-0.379794,0.307448,1.41113,0.160778,0.0792486,-0.118768,0
-0.193951,0.589751,1.64442,0.186127,0.113037,-0.0865344,0
-0.0204241,0.850253,1.94714,0.210379,0.101938,-0.0181625,0
0.0844704,1.01675,2.16411,0.245195,0.0902498,0.0809816,0
0.0288473,0.862349,2.25865,0.273283,0.079417,0.115471,0
-0.195664,0.405421,2.28092,0.29485,0.0639646,0.0948915,0
-0.419839,-0.144392,2.27149,0.308818,0.0526855,0.0289012,0
-0.437764,-0.335173,2.2195,0.289503,0.0807669,-0.0108528,0
-0.290793,-0.178747,2.15033,0.258813,0.130168,-0.0530072,0
-0.0665274,0.164843,2.10692,0.228494,0.152616,-0.0835848,0
0.122829,0.388235,2.07079,0.215683,0.15613,-0.124267,0
0.276769,0.558971,1.99374,0.201263,0.129698,-0.11766,0
0.351886,0.667765,1.83366,0.181955,0.116005,-0.094678,0
0.367965,0.791808,1.59682,0.161998,0.0965856,-0.0538512,0
0.30914,0.886317,1.31614,0.139668,0.103473,-0.0110162,0
0.215066,0.828674,1.11302,0.111913,0.104302,0.00927722,0
0.114328,0.723811,0.992959,0.0834615,0.104982,0.0348692,0
-0.043415,0.614626,0.926891,0.051418,0.0973796,0.0554333,0
-0.238078,0.520402,0.871732,0.0166799,0.0801827,0.0699729,0
-0.428635,0.499584,0.777382,0.00155708,0.0691236,0.0821683,0
-0.554264,0.502548,0.715818,-0.00215854,0.0492475,0.086648,0
-0.559446,0.480265,0.711295,0.00802247,0.0281712,0.0740578,0
-0.467009,0.449486,0.733178,0.0290166,0.0108705,0.08174,0
-0.334778,0.304907,0.817485,0.0554268,-0.0252279,0.0664454,0
-0.243795,0.131981,0.902347,0.0711583,-0.0588499,0.0589976,0
-0.205397,0.0513456,0.922015,0.0667697,-0.0838362,0.0496243,0
-0.2115,0.0506826,0.88674,0.0666008,-0.103305,0.0383949,0
-0.261245,-0.0141417,0.82489,0.0785911,-0.119544,-0.00933504,0
-0.27527,-0.187716,0.790046,0.0885543,-0.136879,-0.0882322,0
-0.190881,-0.477869,0.76828,0.0879499,-0.12905,-0.214024,0
0.0517749,-0.661165,0.71501,0.0784501,-0.102874,-0.296743,0
0.234535,-0.648591,0.630021,0.0728137,-0.085157,-0.327581,0
-0.0396789,-0.458169,0.492172,0.0507086,-0.0637343,-0.329039,0
-0.65043,-0.156826,0.394112,-0.00530913,-0.0372447,-0.303306,0
-1.15286,-0.0690731,0.342033,-0.0488025,0.0431415,-0.349746,0
-1.12839,-0.0256303,0.34782,-0.0524342,0.114041,-0.355247,0
-0.498459,0.00926813,0.375137,-0.0608379,0.158985,-0.307365,0
0.167181,-0.117443,0.214211,-0.0897462,0.214004,-0.235765,0
0.454093,-0.315624,-0.0349635,-0.106506,0.224591,-0.159368,0
0.454476,-0.294987,-0.142719,-0.124885,0.207104,-0.0643805,0
0.334292,0.0667628,-0.0660098,-0.145456,0.205664,0.0359388,0
0.217607,0.467877,0.123913,-0.144245,0.19057,0.109927,0
0.167805,0.663687,0.291217,-0.135085,0.171762,0.157436,0
0.183789,0.608387,0.334983,-0.116811,0.145943,0.204818,0
0.187954,0.328722,0.230703,-0.0943968,0.116802,0.227405,0
0.105234,-0.0449729,0.02858,-0.072279,0.0954329,0.241854,0
-0.0252381,-0.419469,-0.158919,-0.044466,0.0736358,0.217541,0
-0.0607079,-0.505246,-0.25853,-0.0339442,0.0655022,0.213414,0
0.00795691,-0.422399,-0.247623,-0.0333728,0.0658551,0.171426,0
0.00795691,-0.422399,-0.247623,-0.0333728,0.0658551,0.171426,0
0.195528,-0.207005,-0.192801,-0.0367511,0.0720567,0.142573,0
0.345217,0.0531853,-0.187449,-0.0370987,0.0709145,0.147564,0
0.371773,0.135656,-0.19664,-0.0235013,0.0380239,0.151419,0
0.305663,0.132316,-0.225512,-0.0125893,0.00999933,0.166427,0
0.16534,0.108884,-0.281519,-0.00451649,-0.00646824,0.187726,0
0.011607,0.00068562,-0.324818,0.0148976,-0.0275457,0.164109,0
-0.0683547,-0.0515409,-0.317643,0.0112065,-0.0336832,0.151799,0
-0.0760491,-0.109039,-0.289478,0.000181369,-0.0301212,0.128977,0
-0.0434433,-0.173704,-0.263138,-0.00131389,-0.0354694,0.107514,0
0.0106026,-0.160118,-0.252394,-0.00685386,-0.0323875,0.114773,0
-0.0152483,-0.143262,-0.21813,-0.0132894,-0.0373859,0.103856,0
-0.146128,-0.12354,-0.124759,-0.0216138,-0.0760586,0.0550187,0
-0.32296,-0.161167,-0.0557873,-0.0209925,-0.110132,-0.0221953,0
-0.454047,-0.299503,-0.0344442,-0.0164527,-0.113769,-0.136656,0
-0.402979,-0.356221,0.0794133,-0.0183635,-0.11745,-0.220071,0
-0.144996,-0.265813,0.271695,-0.0157564,-0.150354,-0.276549,0
0.0944773,-0.13249,0.363677,-0.00727097,-0.15652,-0.292177,0
0.0167333,-0.123579,0.375256,0.00823772,-0.177858,-0.311336,0
-0.483593,-0.434175,0.34331,0.0177368,-0.198498,-0.379514,0
-1.01877,-0.634174,0.185078,0.0217926,-0.146999,-0.433441,0
-0.908131,-0.299576,0.0843883,-0.0107886,-0.00830834,-0.393599,0
-0.111739,0.421276,0.251847,-0.0184964,0.0933617,-0.239438,0
0.717669,0.752689,0.597895,0.0470362,0.0740741,-0.0969705,0
0.926932,0.515694,0.807646,0.119009,0.0252517,-0.0094524,0
0.53214,0.0630741,0.809852,0.139596,-0.0297192,0.0458515,0
0.0067816,-0.248552,0.629121,0.133289,-0.0466988,0.081619,0
-0.298151,-0.310049,0.338977,0.128978,0.00122014,0.068405,0
-0.232147,-0.137693,0.135033,0.119425,0.0581849,0.0400676,0
0.0719861,0.143695,0.123255,0.11993,0.101741,0.0285471,0
0.365337,0.414788,0.271592,0.118618,0.109469,0.0551025,0
0.499403,0.543878,0.476547,0.122286,0.0988307,0.0937046,0
0.499537,0.55245,0.611892,0.110201,0.0760038,0.148823,0
0.468874,0.539456,0.620679,0.0960893,0.0587366,0.213502,0
0.415927,0.465313,0.538667,0.0773332,0.0471785,0.241372,0
0.377713,0.391343,0.436453,0.0582377,0.0322623,0.26934,0
0.278706,0.283947,0.332128,0.0464058,0.0219507,0.269651,0
0.15798,0.215439,0.228908,0.0385417,0.0168961,0.263593,0
0.00956153,0.183061,0.150803,0.0376875,0.0126126,0.242504,0
-0.160573,0.147404,0.112578,0.0355417,0.00395924,0.200182,0
-0.283222,0.0910554,0.0927289,0.0456593,-0.000866607,0.150485,0
-0.28676,0.155215,0.104242,0.0422232,0.0123319,0.107616,0
-0.258565,0.237907,0.158935,0.0409962,0.0156021,0.0798404,0
-0.241457,0.234203,0.276408,0.0531247,-0.00605157,0.0481124,0
-0.188183,0.247283,0.408296,0.047979,-0.0278969,0.0297831,0
-0.206498,0.211966,0.476616,0.0481741,-0.0470341,0.00661796,0
-0.273104,0.097293,0.521083,0.0428499,-0.0730613,-0.0432256,0
-0.316176,-0.105985,0.558746,0.031191,-0.0833377,-0.126146,0
-0.265756,-0.323369,0.549529,0.0154182,-0.0803156,-0.234357,0
-0.0944388,-0.491277,0.446419,-0.0450951,-0.0258353,-0.31303,0
0.133739,-0.598788,0.237028,-0.157195,0.045366,-0.355839,0
0.133739,-0.598788,0.237028,-0.157195,0.045366,-0.355839,0
0.202578,-0.55435,-0.129427,-0.246966,0.078969,-0.318263,0
-0.0887115,-0.319548,-0.712801,-0.265209,0.0870592,-0.215279,0
-0.739446,-0.303188,-1.33746,-0.208343,0.0779897,-0.185736,0
-1.1743,-0.45558,-1.68721,-0.149663,0.0950727,-0.200909,0
-1.0652,-0.501568,-1.65045,-0.130091,0.114932,-0.179834,0
-0.586982,-0.492443,-1.38505,-0.0748275,0.118399,-0.160439,0
-0.0372809,-0.37276,-1.05201,-0.0166889,0.103115,-0.0908238,0
0.341973,-0.0928121,-0.736424,0.0165733,0.0682836,0.00733948,0
0.26614,0.234295,-0.459725,0.025022,0.0328129,0.0717407,0
-0.127239,0.41807,-0.200264,-0.00216761,0.00244191,0.0809305,0
-0.425542,0.5503,-0.0239675,-0.0201753,-0.0116077,0.0950694,0
-0.430705,0.498945,0.0156699,-0.00466283,-0.00019709,0.0630247,0
-0.193489,0.357293,-0.00365602,-0.000990268,-0.00192834,0.0508903,0
0.12696,0.152095,-0.0498611,-0.00934511,0.00252426,0.0522577,0
0.382715,-0.0582304,-0.117398,-0.00678181,0.00810528,0.0847739,0
0.507298,-0.18157,-0.170191,-0.00806343,-0.000307962,0.139011,0
0.498702,-0.201888,-0.196962,-0.00169802,-0.0180446,0.191482,0
0.405202,-0.0907001,-0.218145,-0.00162669,-0.0325866,0.245954,0
0.258055,-0.0237727,-0.251916,-0.00318969,-0.0461487,0.259319,0
0.156254,-0.0512597,-0.317916,0.0095944,-0.0578229,0.226842,0
0.155357,-0.120031,-0.398307,0.0272674,-0.0572367,0.206658,0
0.211489,-0.247692,-0.424248,0.0475953,-0.0535825,0.156402,0
0.266591,-0.256326,-0.380327,0.0454942,-0.0563968,0.155666,0
0.21363,-0.289103,-0.302705,0.0424971,-0.0625249,0.13467,0
0.105245,-0.242217,-0.210341,0.043115,-0.0838622,0.126913,0
-0.0488067,-0.172874,-0.111092,0.032219,-0.101386,0.110799,0
-0.193005,-0.163915,-0.0335101,0.0198166,-0.115783,0.0778058,0
-0.258604,-0.137359,-0.0143118,0.0142001,-0.127416,0.0492334,0
-0.28547,-0.119122,-0.0282588,0.0042084,-0.123291,0.0137013,0
-0.269741,-0.123334,-0.0193879,-0.0126849,-0.12861,-0.0377752,0
-0.265432,-0.237407,-0.00528623,-0.00819121,-0.140162,-0.124387,0
-0.172863,-0.331298,0.00430797,-0.0149286,-0.144186,-0.217613,0
0.00512054,-0.125405,-0.0208992,-0.014547,-0.126851,-0.25662,0
0.129949,0.153676,-0.0303231,-0.00498154,-0.124175,-0.243983,0
-0.0171702,0.148275,-0.0810466,-0.0219956,-0.0445807,-0.247367,0
-0.311016,0.000463901,-0.186017,-0.0519276,0.0448074,-0.247233,0
-0.615358,-0.115968,-0.238038,-0.0326063,0.131028,-0.232477,0
-0.63639,-0.232079,-0.0577239,-0.0203422,0.149752,-0.24281,0
-0.283745,-0.0664817,0.269453,-0.0167082,0.14139,-0.140494,0
0.112006,0.0710147,0.537815,0.0188992,0.102651,-0.0416336,0
0.288284,-0.0759598,0.608323,0.0771492,0.0454699,0.0164325,0
0.1002,-0.308455,0.460688,0.120015,0.0235928,0.0661711,0
-0.324948,-0.396114,0.259849,0.125876,0.0276402,0.0829245,0
-0.640876,-0.273654,0.215564,0.117786,0.0344086,0.0638651,0
-0.533042,0.00591743,0.332982,0.119227,0.0393225,0.0382915,0
-0.106472,0.318558,0.541994,0.105756,0.0479895,0.0482459,0
0.23805,0.427458,0.685273,0.112611,0.0306564,0.0656703,0
0.310738,0.409226,0.700224,0.107798,-0.00865998,0.101836,0
0.222357,0.332083,0.593222,0.0865487,-0.0238437,0.125817,0
0.130391,0.243444,0.457814,0.0706138,-0.0276735,0.136197,0
0.130391,0.243444,0.457814,0.0706138,-0.0276735,0.136197,0
0.134848,0.172477,0.363892,0.0595698,-0.0258772,0.117111,0
0.2041,0.115794,0.337267,0.0394517,-0.017482,0.10033,0
0.297559,0.158085,0.317829,0.0186165,-0.0132879,0.0776823,0
0.319703,0.268891,0.258803,0.00564992,-0.0113873,0.0902721,0
0.236884,0.301605,0.210053,0.00699839,-0.0205293,0.0910863,0
0.116622,0.302113,0.214883,0.00986221,-0.0443634,0.0928943,0
0.015575,0.276033,0.243109,0.00831068,-0.05852,0.0866839,0
-0.00686504,0.198787,0.237377,0.00640892,-0.0603841,0.0579349,0
0.0255662,0.138832,0.201775,0.0130772,-0.053042,0.035721,0
0.063496,0.0474698,0.198585,0.0205796,-0.054862,0.00442064,0
0.0977949,-0.0390346,0.22828,0.0320558,-0.0660838,-0.0356027,0
0.101245,-0.059034,0.245113,0.0285803,-0.0622478,-0.0613481,0
0.0678091,-0.171721,0.239795,0.0229225,-0.0477427,-0.115606,0
0.0880129,-0.32821,0.2128,0.015203,-0.0133752,-0.176815,0
0.195994,-0.341513,0.181048,-0.00678192,0.0549819,-0.171681,0
0.264848,-0.334812,0.254546,-0.0137149,0.0939368,-0.137807,0
0.224024,-0.38959,0.442064,-0.0238609,0.0905432,-0.117681,0
0.0796951,-0.341638,0.590002,-0.0387883,0.0653625,-0.0656639,0
-0.379648,-0.367961,0.510508,-0.0407603,0.0601243,-0.0520412,0
-1.18973,-0.612228,0.213745,-0.0854545,0.0626025,-0.162418,0
-1.67476,-0.840015,-0.159534,-0.107155,0.08692,-0.306012,0
-1.16308,-0.527279,-0.420527,-0.106896,0.157594,-0.338145,0
-0.06383,0.0383646,-0.417211,-0.0924171,0.178747,-0.25443,0
0.799346,0.132387,-0.231425,-0.063575,0.118453,-0.146246,0
1.00435,-0.193029,-0.202563,-0.032808,0.0560083,-0.0828533,0
0.75423,-0.435703,-0.370829,-0.0473892,0.0101433,0.0264806,0
0.342686,-0.357252,-0.631118,-0.0642732,0.00542774,0.127291,0
0.0402034,-0.00996041,-0.783226,-0.0618775,0.000785232,0.186157,0
-0.0167418,0.432946,-0.754395,-0.0448401,0.00679003,0.233276,0
0.0280212,0.67343,-0.610576,-0.0208777,0.00352742,0.262414,0
0.0579089,0.512857,-0.454561,0.00852392,-0.0195128,0.254188,0
0.0440815,0.187638,-0.386152,0.0311162,-0.0321507,0.251173,0
0.0116173,-0.0858498,-0.387145,0.0267432,-0.0248165,0.24441,0
-0.00176761,-0.139736,-0.382556,0.00485826,-0.0197052,0.24461,0
-0.0169607,-0.112157,-0.344212,0.000597782,-0.0156023,0.226307,0
-0.0437909,-0.0460344,-0.264675,-0.00628301,-0.020893,0.2141,0
-0.0509714,0.0168188,-0.168502,-0.0127928,-0.0216886,0.190699,0
-0.0133371,0.120438,-0.0957152,-0.0159548,-0.0211849,0.181637,0
-0.0238086,0.168256,-0.0876338,-0.0177628,-0.0316533,0.186203,0
-0.109439,0.0999966,-0.123217,-0.0129198,-0.0583976,0.171342,0
-0.203814,0.00967824,-0.182778,-0.00958952,-0.0776774,0.161694,0
-0.251592,-0.126715,-0.235887,0.00991002,-0.0955757,0.125984,0
-0.242598,-0.232466,-0.240519,0.035938,-0.121495,0.0854529,0
-0.191544,-0.424991,-0.189903,0.0781783,-0.163686,0.021009,0
-0.119947,-0.663414,-0.131831,0.105163,-0.193531,-0.0467034,0
-0.0379183,-0.888945,-0.0939337,0.0900762,-0.20621,-0.123176,0
0.01022,-1.00101,-0.0959369,0.0617334,-0.197756,-0.21673,0
0.0274792,-0.798109,-0.142591,0.00626543,-0.155568,-0.273459,0
-0.0103258,-0.230772,-0.160679,-0.0616681,-0.0817045,-0.286069,0
-0.0103258,-0.230772,-0.160679,-0.0616681,-0.0817045,-0.286069,0
-0.185213,0.289577,-0.0385103,-0.097521,-0.0481963,-0.319432,0
-0.470888,0.486875,0.156311,-0.0918993,-0.0336779,-0.382936,0
-0.704941,0.47625,0.232002,-0.0769183,0.00551181,-0.420608,0
-0.720231,0.552119,0.173979,-0.0798916,0.0832528,-0.397555,0
-0.570588,0.965557,0.13785,-0.0595461,0.102614,-0.302822,0
-0.426889,1.47166,0.245935,-0.0147177,0.0718423,-0.175909,0
-0.45575,1.50184,0.443307,0.0261041,0.0169461,-0.0990363,0
-0.703645,1.05181,0.506707,0.0403717,-0.0263706,-0.0830395,0
-0.825359,0.443462,0.311918,0.0733562,-0.0169296,-0.083103,0
-0.620726,0.0476651,-0.0234679,0.0769102,0.0411306,-0.0593567,0
-0.121353,-0.00211777,-0.221143,0.0614734,0.0527499,0.0165243,0
0.431311,0.15209,-0.204728,0.0743493,0.0403608,0.112025,0
0.809071,0.340588,0.0240409,0.0854435,0.0243167,0.233237,0
0.826479,0.242603,0.353764,0.10053,-0.00392706,0.267782,0
0.645483,-0.122218,0.627048,0.148095,-0.0268918,0.226046,0
0.717945,-0.532032,0.785748,0.196955,-0.00547898,0.176353,0
1.20315,-0.61762,0.880231,0.182886,0.059474,0.187823,0
1.78459,-0.338003,1.00622,0.130032,0.0944076,0.253352,0
2.00911,-0.0425459,1.13743,0.0908719,0.0660419,0.278063,0
1.69505,0.00598877,1.17691,0.0690086,0.0170179,0.240882,0
1.04202,-0.0389492,1.0685,0.0493767,-0.0156897,0.220716,0
0.406248,-0.00879449,0.881881,0.0094348,-0.0327174,0.214999,0
0.0114013,0.062366,0.644239,-0.0211885,-0.0256207,0.175083,0
-0.107329,0.129389,0.380176,-0.0481927,0.00434683,0.0955498,0
-0.015597,0.332447,0.192858,-0.0539185,0.0247127,0.084088,0
0.0536322,0.351782,0.14235,-0.0422921,0.0285318,0.0108969,0
0.0838387,0.447246,0.25678,-0.035165,0.0126779,-0.00373036,0
-0.0545308,0.465448,0.37266,-0.0306192,0.00283255,-0.0277186,0
-0.215385,0.268056,0.431266,-0.00159087,-0.0273204,-0.120121,0
-0.245675,0.0265552,0.426439,-0.00118712,-0.0161234,-0.221729,0
-0.240327,-0.393434,0.35312,4.84213e-05,0.0119647,-0.384673,0
-0.0136605,-0.490366,0.292083,-0.00441097,0.0206849,-0.447443,0
0.242023,-0.348092,0.236783,0.0107574,0.0149838,-0.420363,0
0.159305,-0.361112,0.075907,0.0535431,0.0140235,-0.387586,0
-0.208452,-0.559894,-0.139163,0.0747549,0.0348345,-0.356815,0
-0.387293,-0.682691,-0.244915,0.0197031,0.0999979,-0.296724,0
-0.152413,-0.476916,-0.161704,-0.0472565,0.12931,-0.179826,0
0.305624,0.0312787,0.0487348,-0.106541,0.10921,-0.0313411,0
0.57373,0.410276,0.173176,-0.127705,0.0769763,0.0876955,0
0.504468,0.423832,0.146904,-0.112102,0.0350501,0.155751,0
0.20176,0.185582,0.0089805,-0.111451,0.00616129,0.208957,0
-0.190608,-0.0656859,-0.218905,-0.124352,0.00932372,0.250545,0
-0.499955,-0.215129,-0.49145,-0.12961,0.0447487,0.270932,0
-0.619074,-0.264515,-0.67558,-0.105027,0.0790589,0.254758,0
-0.398804,-0.158017,-0.633513,-0.0591703,0.0767939,0.235742,0
-0.029969,0.0222847,-0.410287,-0.0270101,0.0659368,0.266006,0
0.158167,0.017592,-0.144696,-0.00817947,0.042805,0.258699,0
0.114605,-0.111491,0.0197826,0.00433899,-0.00364469,0.252754,0
-0.0724811,-0.288498,0.0234083,0.00244885,-0.0190475,0.216233,0
-0.139089,-0.265211,-0.0981247,-0.0157014,-0.0120329,0.216436,0
-0.0720911,-0.145688,-0.23508,-0.0302867,-0.00532104,0.198773,0
0.0278612,-0.106835,-0.32857,-0.017323,-0.0258685,0.167635,0
0.0793618,-0.134421,-0.375462,-0.00870635,-0.0388542,0.148231,0
0.00601107,-0.242987,-0.387973,-0.0154834,-0.0473174,0.113241,0
-0.0868361,-0.291743,-0.396743,-0.0218363,-0.0618599,0.0964398,0
-0.156604,-0.271966,-0.443881,-0.0246273,-0.0618326,0.0669928,0
-0.223717,-0.191678,-0.472905,-0.02623,-0.070349,0.0555777,0
-0.361254,-0.199531,-0.487325,-0.0350764,-0.0811812,0.0064311,0
-0.381723,-0.112206,-0.482489,-0.0532319,-0.0872635,-0.0295051,0
-0.326903,-0.0172688,-0.486859,-0.0384117,-0.0944489,-0.0644187,0
-0.248543,-0.0175904,-0.452956,-0.00308256,-0.139545,-0.121271,0
-0.156948,-0.0403982,-0.370816,0.0108328,-0.156548,-0.169091,0
-0.156948,-0.0403982,-0.370816,0.0108328,-0.156548,-0.169091,0.118896
-0.0743365,0.00642217,-0.30924,0.011684,-0.152033,-0.218864,0.118896
0.00449663,0.168072,-0.25869,0.0225904,-0.124627,-0.229873,0.118896
0.0332542,0.231855,-0.130982,0.0266646,-0.0850971,-0.240795,0.118896
-0.0917163,0.253517,0.0403918,0.014775,-0.0406409,-0.226699,0.118896
-0.392412,0.304347,0.163665,0.021225,-0.0113785,-0.212191,0.118896
-0.699192,0.1923,0.265932,0.0388279,0.00294172,-0.218202,0.118896
-0.751271,0.0268939,0.3657,0.0562722,0.0199709,-0.206824,0.118896
-0.475583,-0.0117597,0.436757,0.0829495,0.0372361,-0.137262,0.118896
-0.0747574,-0.0231061,0.512602,0.103502,0.0232501,-0.0618408,0.118896
0.085417,-0.150775,0.540995,0.0987464,-0.00647903,-0.0159143,0.118896
-0.0913471,-0.292363,0.474702,0.071264,-0.0221831,-0.00317472,0.118896
-0.277831,-0.213947,0.356388,0.0413959,-0.0296389,0.0204002,0.118896
-0.259204,-0.0065753,0.22583,0.0413898,-0.00684085,0.0349978,0.118896
-0.0629961,0.178508,0.163832,0.0473185,-0.000807784,0.0482832,0.118896
0.178656,0.233651,0.165653,0.0646531,-0.00980903,0.0582645,0.118896
0.315245,0.222385,0.152286,0.0709516,-0.0161174,0.0891108,0.118896
0.342566,0.191866,0.110769,0.0677496,-0.0183374,0.105624,0.118896
0.362739,0.278701,0.0527588,0.0713109,-0.0211731,0.141354,0.118896
0.383608,0.430053,0.00875191,0.0696265,-0.0116724,0.17479,0.118896
0.371019,0.506381,-0.0130299,0.0747353,-0.00902247,0.191507,0.118896
0.332267,0.421019,-0.0115013,0.0912992,-0.0148377,0.182828,0.118896
0.298762,0.30154,-0.0254791,0.0970186,-0.0108391,0.183137,0.118896
0.213983,0.208718,-0.0569922,0.0952069,0.0086143,0.174831,0.118896
0.130641,0.299623,-0.0537714,0.0931021,0.0113653,0.197514,0.118896
0.0411396,0.41484,0.0108875,0.10378,0.0117829,0.192753,0.118896
-0.0225969,0.504862,0.128902,0.106593,0.00468832,0.199139,0.118896
-0.0994333,0.408757,0.242741,0.115509,-0.00665672,0.16011,0.118896
-0.0941638,0.259194,0.345429,0.118005,-0.0162605,0.114026,0.118896
-0.0714403,0.0260588,0.406519,0.126432,-0.00668141,0.0442278,0.118896
0.0213633,-0.130961,0.479261,0.115902,-0.0164399,-0.0565484,0.118896
0.176178,-0.107788,0.55592,0.0730717,-0.00988327,-0.135672,0.118896
0.263172,-0.0498359,0.61349,0.0262783,-0.000543535,-0.237137,0.118896
0.341483,0.121331,0.699139,-0.0139421,0.00752908,-0.288967,0.118896
0.32384,0.394777,0.779182,-0.0361219,0.0369856,-0.294887,0.118896
0.205121,0.673384,0.708018,-0.0465526,0.0388342,-0.256715,0.118896
-0.128305,0.879982,0.255469,-0.0449116,0.0261654,-0.192749,0.118896
-0.990898,0.859321,-0.498115,-0.125452,0.00533614,-0.193578,0.118896
-1.96333,0.76349,-1.2502,-0.198083,-0.0321715,-0.214461,0.118896
-2.08844,0.750113,-1.65551,-0.130963,0.0381501,-0.211141,0.118896
-1.38598,0.628842,-1.44978,-0.130094,0.0805672,-0.175155,0.118896
-0.509788,0.0259937,-0.930929,-0.101002,0.0445651,-0.200264,0.118896
0.0577278,-0.896779,-0.65674,-0.0386316,0.0306798,-0.255903,0.118896
0.187793,-1.55893,-0.738568,5.87404e-05,0.0428612,-0.28141,0.118896
0.175149,-1.48986,-0.876183,-0.0206862,0.0695686,-0.257772,0.118896
0.272061,-0.817839,-0.864125,-0.0770477,0.102954,-0.219377,0.118896
0.459061,0.011667,-0.615189,-0.101215,0.129642,-0.103336,0.118896
0.622792,0.280791,-0.142053,-0.0681524,0.0840777,-0.0159151,0.118896
0.622792,0.280791,-0.142053,-0.0681524,0.0840777,-0.0159151,0.145325
0.829243,-0.349061,0.847692,-0.0245048,-0.0342797,0.240078,0.145325
0.705035,-0.757764,1.09794,-0.00641224,-0.0506528,0.360051,0.145325
0.408309,-1.06219,1.06226,0.00520329,-0.0373854,0.418298,0.145325
0.161736,-0.961985,0.667675,0.000612419,-0.013201,0.414592,0.145325
0.125847,-0.316262,0.0573323,-0.0288024,0.0035001,0.440525,0.145325
0.239521,0.223734,-0.486751,-0.0195332,0.0142391,0.415091,0.145325
0.340926,0.387665,-0.712562,0.0295955,-0.00864951,0.373811,0.145325
0.334472,0.470181,-0.673701,0.0542667,-0.00946446,0.413384,0.145325
0.0711264,0.407455,-0.508341,0.093094,-0.0269248,0.426269,0.145325
-0.303342,0.222508,-0.334532,0.131438,-0.0541435,0.387877,0.145325
-0.552103,0.0537203,-0.242766,0.152903,-0.0434961,0.342032,0.145325
-0.670989,-0.126266,-0.15686,0.146846,-0.0188207,0.268921,0.145325
-0.703592,-0.348136,0.0261122,0.120251,-0.0307454,0.159284,0.145325
-0.570233,-0.519686,0.178993,0.0987551,-0.0317754,0.067139,0.145325
-0.427569,-0.606516,0.228977,0.110686,-0.0439979,0.00873607,0.145325
-0.33084,-0.596665,0.294217,0.119473,-0.0758652,-0.010623,0.145325
-0.304107,-0.459456,0.467266,0.122391,-0.111491,-0.00422382,0.145325
-0.355976,-0.247534,0.692278,0.112582,-0.150926,-0.00613499,0.145325
-0.449788,-0.111727,0.866245,0.117337,-0.188515,-0.0413169,0.145325
-0.558468,-0.114697,0.981877,0.129139,-0.224795,-0.0874799,0.145325
-0.766579,-0.232703,1.0417,0.135645,-0.246349,-0.144592,0.145325
-1.05507,-0.226405,1.02818,0.143588,-0.254255,-0.18118,0.145325
-1.26715,0.0658074,0.944859,0.148187,-0.223112,-0.210646,0.145325
-1.16299,0.346225,0.886521,0.196378,-0.184117,-0.303938,0.145325
-0.839503,0.7579,0.894147,0.203033,-0.120674,-0.322557,0.145325
-0.938864,0.455905,0.901627,0.21195,-0.0289831,-0.447554,0.145325
-0.978168,-0.200333,0.980204,0.223779,0.0786311,-0.577605,0.145325
-0.419476,-0.603926,1.31015,0.197553,0.144904,-0.606047,0.145325
0.443736,-0.507666,1.80004,0.141413,0.157652,-0.517368,0.145325
0.988846,-0.235139,2.09009,0.0863426,0.160171,-0.403634,0.145325
1.09534,-0.176535,2.03583,0.0564299,0.175306,-0.343502,0.145325
1.17898,-0.0592053,1.8028,0.033036,0.186863,-0.234568,0.145325
1.36806,0.198351,1.56184,0.0327716,0.18393,-0.113022,0.145325
1.47686,0.456883,1.36713,0.0529553,0.163514,0.00697541,0.145325
1.38431,0.579144,1.19704,0.0854508,0.13449,0.0884162,0.145325
1.12523,0.57545,1.04241,0.119108,0.109888,0.147209,0.145325
0.866525,0.497343,0.909469,0.152636,0.0927627,0.181682,0.145325
0.676105,0.395831,0.794082,0.188808,0.0916184,0.202544,0.145325
0.618062,0.273063,0.770358,0.219809,0.110623,0.193081,0.145325
0.671094,0.235903,0.857626,0.243425,0.133308,0.209128,0.145325
0.719049,0.183932,1.03414,0.279615,0.149832,0.184233,0.145325
0.758354,0.194044,1.2853,0.311963,0.157099,0.192857,0.145325
0.663685,0.173804,1.54691,0.313255,0.173068,0.178112,0.145325
0.520245,0.184028,1.76459,0.320028,0.18235,0.151226,0.145325
0.386619,0.241326,1.90233,0.333184,0.190147,0.136848,0.145325
0.319145,0.251534,2.00399,0.323854,0.20858,0.0860718,0.145325
0.373538,0.353941,2.08776,0.317709,0.234107,0.0665882,0.145325
0.373538,0.353941,2.08776,0.317709,0.234107,0.0665882,0.409561
0.455665,0.39711,2.15957,0.315596,0.252408,0.0481585,0.409561
0.522302,0.46252,2.25366,0.311051,0.253209,0.0678195,0.409561
0.490202,0.518347,2.37294,0.305852,0.243922,0.101149,0.409561
0.346895,0.510354,2.43381,0.302004,0.22413,0.11545,0.409561
0.289647,0.551004,2.42516,0.281973,0.215479,0.121466,0.409561
0.270875,0.609266,2.36875,0.273034,0.211239,0.127823,0.409561
0.224668,0.650139,2.3348,0.274056,0.195155,0.12192,0.409561
0.0966101,0.782367,2.28429,0.263912,0.187008,0.140257,0.409561
-0.113678,0.948796,2.24435,0.244622,0.17772,0.152592,0.409561
-0.298853,1.10298,2.23365,0.216341,0.166825,0.149261,0.409561
-0.42883,1.23924,2.25423,0.185042,0.148958,0.158255,0.409561
-0.554789,1.19379,2.30339,0.157123,0.117099,0.12755,0.409561
-0.652062,0.956938,2.36452,0.110576,0.0815679,0.0798311,0.409561
-0.609023,0.569055,2.3416,0.0352749,0.0419889,0.00433254,0.409561
-0.373887,0.308494,2.12597,-0.0309542,0.016411,-0.0389024,0.409561
-0.194907,0.102639,1.80293,-0.0455755,-0.0393807,-0.0916072,0.409561
-0.089856,0.0154421,1.55029,-0.0653613,-0.0636368,-0.146852,0.409561
-0.0616557,0.0789669,1.38851,-0.0528749,-0.0814554,-0.189297,0.409561
-0.275995,0.244106,1.20274,-0.041713,-0.104765,-0.217268,0.409561
-0.70999,0.398921,0.841434,-0.0694238,-0.0331533,-0.279318,0.409561
-0.891266,0.534421,0.460132,-0.056738,0.0437316,-0.341952,0.409561
-0.654282,0.656393,0.416352,-0.0289611,0.125746,-0.352298,0.409561
-0.162976,0.720762,0.852653,-0.0102393,0.164341,-0.291886,0.409561
0.261052,0.540163,1.52861,0.00664635,0.160684,-0.214249,0.409561
0.426368,0.0593758,2.0188,0.0164244,0.159503,-0.164454,0.409561
0.550893,-0.33811,2.25217,-0.0238495,0.184677,-0.0947891,0.409561
0.762871,-0.57701,2.37272,-0.0879861,0.193458,-0.0322613,0.409561
0.91911,-0.664599,2.34241,-0.11704,0.190983,0.0359736,0.409561
0.913941,-0.515896,2.13606,-0.111294,0.160788,0.125138,0.409561
0.695928,-0.224708,1.77249,-0.0791553,0.137732,0.204155,0.409561
0.330816,0.114464,1.36352,-0.0264353,0.113839,0.254005,0.409561
-0.0473565,0.397587,1.01645,0.0346164,0.0916238,0.282811,0.409561
-0.30479,0.568478,0.803306,0.0956338,0.0783712,0.279816,0.409561
-0.404029,0.611207,0.7285,0.143508,0.0723679,0.257606,0.409561
-0.367098,0.504491,0.751918,0.182078,0.060823,0.222008,0.409561
-0.34886,0.214596,0.827437,0.209467,0.0388831,0.18074,0.409561
-0.372289,-0.0537174,0.893545,0.206568,0.0302164,0.144771,0.409561
-0.405761,-0.0757312,0.894756,0.188426,0.0357853,0.122069,0.409561
-0.405211,0.0636776,0.904619,0.174393,0.0287925,0.0901209,0.409561
-0.40227,0.235509,0.963135,0.163614,0.00934505,0.0468433,0.409561
-0.423955,0.344286,1.051,0.153273,-3.23951e-05,0.00792372,0.409561
-0.432435,0.349106,1.19606,0.137189,-0.0131975,-0.0387663,0.409561
-0.363947,0.306233,1.3245,0.119538,-0.0108371,-0.0793167,0.409561
-0.237193,0.294087,1.46558,0.093775,-0.0163104,-0.0962018,0.409561
-0.139927,0.303604,1.6189,0.0675997,-0.030507,-0.101604,0.409561
-0.115832,0.295581,1.70189,0.0448371,-0.0316375,-0.112746,0.409561
-0.140542,0.283443,1.70296,0.0312549,-0.0254379,-0.137371,0.409561
-0.112171,0.28836,1.73867,0.0284335,-0.0152728,-0.172993,0.409561
-0.112171,0.28836,1.73867,0.0284335,-0.0152728,-0.172993,0.681717
-0.0340105,0.25387,1.85856,0.027408,-0.0348717,-0.202191,0.681717
0.0829306,0.150428,2.00793,0.0352646,-0.0681415,-0.237393,0.681717
0.188112,0.0729258,2.11526,0.0274405,-0.0735914,-0.246193,0.681717
-0.216984,-0.0720901,1.9102,-0.0292515,0.00282788,-0.309313,0.681717
-0.833651,-0.31846,1.31645,0.00024382,0.0972893,-0.457464,0.681717
-0.610088,-0.126578,0.911697,0.058422,0.179931,-0.509807,0.681717
0.261132,0.710186,1.05454,0.0574531,0.254597,-0.336983,0.681717
0.615954,1.50684,1.41682,0.0826769,0.208158,-0.0851777,0.681717
0.261678,1.6957,1.57502,0.113506,0.129934,0.0745833,0.681717
-0.242191,1.39672,1.41453,0.118199,0.0965977,0.147001,0.681717
-0.43692,0.756247,1.1149,0.136039,0.0904881,0.132662,0.681717
-0.259282,0.137076,0.922296,0.15873,0.10847,0.109656,0.681717
0.0360214,-0.154986,0.932874,0.169061,0.14823,0.109516,0.681717
0.248557,-0.00785823,1.14914,0.169545,0.151821,0.156573,0.681717
0.27738,0.400557,1.37604,0.169688,0.132294,0.205635,0.681717
0.146357,0.794398,1.46691,0.15614,0.0982928,0.249995,0.681717
0.000133602,0.983789,1.40344,0.142693,0.0667686,0.26336,0.681717
-0.0916148,1.04207,1.25448,0.134866,0.0355072,0.262893,0.681717
-0.129146,0.938038,1.10143,0.128996,0.0305788,0.234899,0.681717
-0.107498,0.71872,0.986776,0.116417,0.0288187,0.202093,0.681717
-0.0820747,0.507171,0.893065,0.105364,0.0280937,0.172573,0.681717
-0.110429,0.436467,0.828398,0.0831486,0.0298074,0.171432,0.681717
-0.232675,0.344976,0.815684,0.0511157,0.0422132,0.138263,0.681717
-0.245951,0.330182,0.791871,0.011896,0.0467509,0.109046,0.681717
-0.20652,0.356919,0.732189,-0.0211955,0.0578833,0.0947626,0.681717
-0.222442,0.421414,0.677143,-0.0435291,0.04504,0.0802239,0.681717
-0.27631,0.545762,0.641882,-0.0556099,0.0227349,0.0781878,0.681717
-0.340208,0.693773,0.691669,-0.0510662,0.0242819,0.0412918,0.681717
-0.303042,0.682706,0.894805,-0.0305499,0.0138541,-0.0569653,0.681717
-0.344527,0.359117,0.966113,0.00314273,0.0177206,-0.165079,0.681717
-0.469468,-0.101573,0.894275,-0.000641525,0.0418124,-0.276756,0.681717
-0.384775,-0.393369,0.815601,-0.025467,0.0898463,-0.345549,0.681717
-0.174971,-0.40049,0.746843,-0.0352198,0.112464,-0.369214,0.681717
-0.0940794,-0.230697,0.70367,-0.0505776,0.115583,-0.342323,0.681717
-0.285211,0.0405273,0.630527,-0.069197,0.0695751,-0.261678,0.681717
-0.810026,0.0554497,0.334895,-0.0681047,-0.00384355,-0.255741,0.681717
-1.15259,-0.310753,-0.159243,-0.0806306,-0.026997,-0.318667,0.681717
-0.88992,-0.976264,-0.546776,-0.0840985,-0.00624312,-0.412445,0.681717
0.0115935,-1.5438,-0.627643,-0.0888545,0.0106754,-0.399939,0.681717
0.909111,-1.76824,-0.478076,-0.0824868,0.0118011,-0.279459,0.681717
1.21499,-1.41695,-0.267874,-0.0958857,-0.0186936,-0.108109,0.681717
0.902256,-0.861772,-0.191953,-0.129249,-0.0144129,-0.00485802,0.681717
0.334977,-0.275777,-0.346404,-0.146922,-0.00110883,0.0308493,0.681717
0.0706789,0.238566,-0.647872,-0.136726,0.0297822,0.0443451,0.681717
0.157492,0.507255,-0.866145,-0.103033,0.0653897,0.036779,0.681717
0.322637,0.696537,-0.916681,-0.07568,0.0966158,0.0997984,0.681717
0.354498,0.823588,-0.821555,-0.064136,0.114811,0.173715,0.681717
0.25518,0.838481,-0.668597,-0.047071,0.116641,0.240075,0.681717
0.25518,0.838481,-0.668597,-0.047071,0.116641,0.240075,0.906311
0.130273,0.647832,-0.549918,-0.034966,0.11028,0.26,0.906311
0.116418,0.316427,-0.498304,-0.0268801,0.114399,0.267813,0.906311
0.265576,-0.113513,-0.456504,-0.020307,0.114428,0.237629,0.906311
0.485908,-0.508078,-0.400811,-0.0225205,0.118277,0.241236,0.906311
0.568193,-0.780355,-0.368325,-0.0310632,0.110504,0.254376,0.906311
0.546376,-0.973123,-0.377658,-0.0148643,0.0874021,0.265313,0.906311
0.491228,-1.00441,-0.40858,0.00146149,0.0785681,0.26319,0.906311
0.448351,-0.894606,-0.396766,0.00494114,0.062642,0.263872,0.906311
0.370144,-0.733105,-0.365531,0.0130949,0.0301096,0.256329,0.906311
0.132034,-0.661739,-0.358035,0.0208605,-0.0179937,0.213367,0.906311
-0.191648,-0.477145,-0.427326,0.0387271,-0.0617642,0.159277,0.906311
-0.470014,-0.630965,-0.512815,0.0621285,-0.100471,-0.00577474,0.906311
-0.624636,-0.769641,-0.461642,0.0891343,-0.179309,-0.149011,0.906311
-0.439462,-0.607981,-0.358009,0.0766939,-0.132862,-0.214848,0.906311
-0.0503799,-0.311338,-0.0770128,0.0531412,-0.13463,-0.275289,0.906311
0.204238,0.112424,0.306556,0.0658227,-0.174008,-0.259701,0.906311
0.0367197,0.277093,0.560503,0.10144,-0.187945,-0.284678,0.906311
-0.478855,0.30127,0.659964,0.090836,-0.195316,-0.318183,0.906311
-0.998614,0.432658,0.647335,0.0938402,-0.156918,-0.339084,0.906311
-1.06832,0.670382,0.645461,0.117987,-0.11197,-0.346004,0.906311
-0.629687,0.888313,0.770479,0.139354,-0.0438378,-0.322149,0.906311
-0.00404461,0.974665,1.07754,0.114166,-0.00288361,-0.240669,0.906311
0.394322,0.810201,1.43566,0.0681179,-0.0202906,-0.143577,0.906311
0.499483,0.517691,1.56377,0.0310227,-0.0428442,-0.0330529,0.906311
0.437098,0.190949,1.34515,0.0137344,-0.045935,0.0600118,0.906311
0.335573,-0.0328886,0.895728,0.00473177,-0.0416331,0.134242,0.906311
0.205441,-0.117933,0.426125,-5.77644e-05,-0.0299429,0.180855,0.906311
0.136101,0.033071,0.0700228,0.00850622,0.00846857,0.207523,0.906311
0.101994,0.304659,-0.121579,0.0298608,0.0408283,0.244694,0.906311
0.0333228,0.520685,-0.129336,0.0386526,0.0500656,0.26829,0.906311
-0.022096,0.549602,-0.0182248,0.0415777,0.0608393,0.258599,0.906311
-0.044452,0.446744,0.0780076,0.0384705,0.0509819,0.265033,0.906311
-0.0562303,0.252332,0.0726175,0.0464718,0.0599823,0.242651,0.906311
-0.0278598,0.105238,0.0478235,0.033315,0.0512003,0.244347,0.906311
-0.106503,-0.0037725,-0.0110136,0.0182495,0.0557507,0.235909,0.906311
-0.225442,0.0194529,-0.069739,0.00590325,0.0374484,0.228726,0.906311
-0.263765,0.115447,-0.132339,0.00908685,0.0430771,0.18016,0.906311
-0.229085,0.277482,-0.142728,0.0154784,0.0541235,0.141395,0.906311
-0.252887,0.313495,-0.065962,0.0322713,0.0472861,0.0904757,0.906311
-0.286449,0.219849,0.0406572,0.0386971,0.0353148,0.0532893,0.906311
-0.276833,0.0475369,0.119864,0.0571276,0.0301678,-0.00352097,0.906311
-0.216103,-0.0654695,0.186328,0.0460891,0.0318077,-0.0401865,0.906311
-0.171669,-0.0941135,0.236767,0.0378865,0.0338835,-0.0687663,0.906311
-0.145141,-0.0838101,0.295087,0.039804,0.0321013,-0.0945711,0.906311
-0.120182,-0.0475835,0.373143,0.0209,0.0368937,-0.124271,0.906311
-0.118899,-0.208261,0.377792,0.00984675,0.0501469,-0.190948,0.906311
-0.129159,-0.578734,0.17539,-0.0201671,0.0795831,-0.285675,0.906311
-0.164753,-1.09331,-0.24273,-0.0316993,0.10716,-0.405072,0.906311
-0.164753,-1.09331,-0.24273,-0.0316993,0.10716,-0.405072,1.12035
-0.127321,-1.15793,-0.644646,0.00943133,0.0885349,-0.464309,1.12035
-0.120461,-0.400974,-0.796237,-0.00505096,0.077872,-0.423171,1.12035
-0.42985,0.452168,-0.825578,0.0121938,0.0286705,-0.408065,1.12035
-0.671471,0.878986,-0.852234,0.0389517,-0.00612596,-0.423684,1.12035
-0.404975,0.857258,-0.822168,0.0184218,0.0031307,-0.409276,1.12035
0.281603,0.56858,-0.709204,-0.0303615,0.0140809,-0.321998,1.12035
0.892116,0.340938,-0.59165,-0.0700024,0.0337484,-0.144439,1.12035
1.12344,0.179865,-0.435355,-0.0958588,0.0238677,0.00904125,1.12035
0.994408,0.1293,-0.282667,-0.109973,0.00462292,0.141417,1.12035
0.682387,0.193198,-0.208447,-0.115197,0.00827031,0.234852,1.12035
0.388747,0.34303,-0.118482,-0.12143,-0.0113212,0.305914,1.12035
0.194302,0.370097,-0.00386896,-0.119568,-0.0206233,0.339069,1.12035
0.0645673,0.237332,0.0721094,-0.112585,-0.0300576,0.364108,1.12035
-0.012606,-0.114781,0.0440985,-0.104094,-0.026904,0.331927,1.12035
0.068334,-0.459786,-0.0827966,-0.0983942,-0.00614265,0.312238,1.12035
0.205711,-0.765251,-0.27186,-0.0822274,0.0297806,0.250579,1.12035
0.388839,-0.759811,-0.379943,-0.0626058,0.0707729,0.218842,1.12035
0.562454,-0.538756,-0.347451,-0.052383,0.0885852,0.218064,1.12035
0.633391,-0.279781,-0.271198,-0.0221258,0.0750447,0.207881,1.12035
0.600383,-0.0496233,-0.180002,-0.0229569,0.0579987,0.21712,1.12035
0.449561,0.0231667,-0.149457,-0.0251719,0.0236027,0.206107,1.12035
0.229213,-0.0780957,-0.25686,-0.00161485,0.00175473,0.173757,1.12035
0.0421696,-0.158174,-0.39692,0.0125387,-0.0289879,0.130304,1.12035
-0.126006,-0.161845,-0.490801,0.00343136,-0.0485647,0.093524,1.12035
-0.255967,-0.137377,-0.469812,0.0207953,-0.0670426,0.0341038,1.12035
-0.266858,-0.061383,-0.300816,0.0244163,-0.0828426,-0.0189384,1.12035
-0.261815,-0.0589043,-0.0646601,0.0320962,-0.107328,-0.0861245,1.12035
-0.172932,-0.0668854,0.186962,0.0362038,-0.129622,-0.144751,1.12035
-0.0189643,0.00163705,0.353901,0.0294308,-0.148766,-0.163053,1.12035
0.0499876,0.0654869,0.411198,0.044444,-0.156749,-0.162401,1.12035
-0.058486,0.0887312,0.505126,0.0629032,-0.17635,-0.163494,1.12035
-0.386396,0.00607319,0.563961,0.0560667,-0.182171,-0.192242,1.12035
-0.874492,-0.177584,0.375063,0.0537305,-0.137559,-0.294491,1.12035
-1.08335,-0.0199217,0.064849,0.0511802,-0.0750649,-0.344228,1.12035
-0.823507,0.41977,-0.0587142,0.0551754,-0.00729723,-0.34588,1.12035
-0.233639,0.876587,0.120944,0.0655061,0.0487632,-0.266694,1.12035
0.199389,1.06996,0.507479,0.0651487,0.0323991,-0.132724,1.12035
0.274047,0.856673,0.779156,0.0614288,-0.00671075,-0.0137551,1.12035
0.170802,0.456667,0.803324,0.0541521,-0.0330396,0.0797395,1.12035
0.0805286,0.0565967,0.677528,0.0291009,-0.0282402,0.127734,1.12035
0.0578637,-0.130573,0.509135,9.28342e-05,-0.0190621,0.145394,1.12035
0.0427966,-0.0742136,0.360898,-0.0106818,-0.00424089,0.158868,1.12035
0.00405341,0.0381973,0.261042,0.00708969,0.00706592,0.152849,1.12035
-0.0444309,0.117946,0.253295,0.0289123,0.0160025,0.139235,1.12035
-0.0139106,0.12641,0.297609,0.031188,0.0393246,0.115181,1.12035
0.135157,0.134269,0.358661,0.0510656,0.0473462,0.115169,1.12035
0.29174,0.188353,0.472948,0.0409273,0.0477622,0.156597,1.12035
0.326346,0.20741,0.558661,0.0288281,0.0463681,0.192979,1.12035
0.326346,0.20741,0.558661,0.0288281,0.0463681,0.192979,1.2921
0.273282,0.212197,0.58998,0.0222663,0.0293056,0.23252,1.2921
0.224257,0.165224,0.584155,0.00518085,0.0208799,0.252197,1.2921
0.207261,0.103676,0.53484,0.00238059,0.0162637,0.238771,1.2921
0.176858,0.0869041,0.483997,0.00360611,0.00237837,0.238483,1.2921
0.0205753,-0.0698585,0.41192,0.0232774,-0.00942126,0.187002,1.2921
-0.0656992,-0.130445,0.377605,0.0681051,-0.0142642,0.120235,1.2921
-0.0995406,-0.077767,0.414623,0.0551991,-0.0128405,0.0759318,1.2921
-0.165404,-0.0236515,0.386129,0.0579531,-0.00721964,0.0315034,1.2921
-0.204352,0.0460562,0.329655,0.0533987,0.00171265,-0.0109961,1.2921
-0.218278,0.0362593,0.288371,0.0463806,0.010183,-0.0605484,1.2921
-0.215925,-0.126521,0.217685,0.0455491,0.0293465,-0.140924,1.2921
-0.164514,-0.231353,0.134271,0.0282853,0.0769324,-0.191339,1.2921
-0.144419,-0.37467,0.0888899,0.0235975,0.111801,-0.224697,1.2921
-0.21237,-0.472231,-0.0338871,0.0355774,0.113504,-0.219351,1.2921
-0.521634,-0.539005,-0.27505,0.0209172,0.111689,-0.205069,1.2921
-1.09702,-0.579602,-0.698082,0.0141479,0.12598,-0.227889,1.2921
-1.44371,-0.386653,-1.10132,0.0179657,0.169054,-0.279987,1.2921
-1.18941,0.0567715,-1.10127,-0.00807885,0.201182,-0.286346,1.2921
-0.589589,0.493091,-0.768443,-0.0545631,0.171202,-0.221148,1.2921
-0.0754968,0.676124,-0.447417,-0.0812873,0.101527,-0.117882,1.2921
0.0663935,0.440937,-0.370814,-0.125479,0.0219663,-0.0620657,1.2921
-0.0901036,0.000136743,-0.56401,-0.15598,-0.0177836,-0.0321255,1.2921
-0.306168,-0.32618,-0.79363,-0.167948,-0.0384037,-0.0277455,1.2921
-0.444352,-0.257803,-0.881205,-0.169839,-0.028449,0.00716138,1.2921
-0.419186,0.090738,-0.767496,-0.123665,-0.023127,0.0139925,1.2921
-0.203703,0.447916,-0.464497,-0.0830947,-0.0364265,0.0427598,1.2921
0.0188084,0.528763,-0.14018,-0.0397134,-0.0699654,0.0826035,1.2921
0.116162,0.314962,0.0743622,-0.0108174,-0.110431,0.137487,1.2921
0.0835765,-0.0176542,0.175853,0.00349084,-0.132284,0.18554,1.2921
0.0412911,-0.269642,0.227984,-0.00956774,-0.134179,0.217101,1.2921
0.10209,-0.460789,0.194415,-0.0231251,-0.11153,0.206382,1.2921
0.298265,-0.573387,0.152351,-0.0181314,-0.0934808,0.179594,1.2921
0.577788,-0.597987,0.150676,-0.0234981,-0.070528,0.172267,1.2921
0.740781,-0.603837,0.154531,-0.0249831,-0.0490402,0.179518,1.2921
0.705523,-0.629387,0.0837933,-0.0296209,-0.033334,0.191944,1.2921
0.520804,-0.531532,-0.0873622,-0.0292412,-0.025867,0.210784,1.2921
0.291146,-0.295201,-0.308566,-0.0293639,-0.0220186,0.218501,1.2921
0.0740802,-0.0485183,-0.507273,-0.016756,-0.0115104,0.199863,1.2921
-0.121277,-0.00966972,-0.603368,0.00946556,-0.018694,0.148497,1.2921
-0.161545,-0.159361,-0.576869,0.0473595,-0.0162696,0.063412,1.2921
0.000490075,-0.436366,-0.427354,0.0701814,-0.0229548,-0.0230021,1.2921
0.117817,-0.682982,-0.300496,0.0726607,-0.041873,-0.0723391,1.2921
0.152209,-0.757125,-0.167523,0.0910743,-0.0673106,-0.121459,1.2921
0.110928,-0.551257,-0.030413,0.0644546,-0.0938429,-0.139563,1.2921
-0.064074,-0.207089,0.0420814,0.0457689,-0.110689,-0.18341,1.2921
-0.1607,0.152026,0.128875,0.0437825,-0.134147,-0.238395,1.2921
-0.0325003,0.414514,0.338252,0.0437671,-0.17122,-0.25997,1.2921
0.0726745,0.366023,0.52527,0.049729,-0.196194,-0.274818,1.2921
0.0726745,0.366023,0.52527,0.049729,-0.196194,-0.274818,1.46385
0.0796687,0.0477922,0.574569,0.0439971,-0.187665,-0.27265,1.46385
-0.0407139,-0.283674,0.514451,0.01841,-0.14973,-0.251974,1.46385
-0.161465,-0.338923,0.434513,0.0220362,-0.124792,-0.206147,1.46385
-0.191984,-0.0185282,0.437476,0.0233082,-0.094558,-0.137816,1.46385
-0.172013,0.495298,0.516555,0.0270342,-0.0687409,-0.0727512,1.46385
-0.14357,0.819694,0.576847,0.0362117,-0.0579212,-0.0401728,1.46385
-0.126529,0.794404,0.532494,0.0633222,-0.0441994,-0.0249251,1.46385
-0.0273532,0.524444,0.49791,0.085993,-0.026915,-0.0155076,1.46385
0.0880473,0.280479,0.549515,0.0903375,-0.0115895,0.0332083,1.46385
0.137629,0.14463,0.645679,0.0900957,0.000983924,0.090221,1.46385
0.140162,0.122787,0.755818,0.0816722,-0.00641574,0.139139,1.46385
0.14797,0.161533,0.791085,0.0570798,-0.00282805,0.17474,1.46385
0.1526,0.164146,0.759567,0.0459043,-0.0024526,0.194077,1.46385
0.159427,0.114645,0.696545,0.0500676,-0.00247061,0.202167,1.46385
0.182774,0.0367798,0.643155,0.0464693,0.00640103,0.203711,1.46385
0.268559,-0.103704,0.583561,0.0554918,0.017533,0.17623,1.46385
0.446788,-0.239901,0.539445,0.0560893,0.0378986,0.169971,1.46385
0.573676,-0.243169,0.531819,0.04789,0.0580005,0.164337,1.46385
0.589806,-0.145554,0.535218,0.0445062,0.0727462,0.171664,1.46385
0.461301,0.0154657,0.513488,0.0465295,0.07813,0.164815,1.46385
0.293367,0.207596,0.454526,0.0423874,0.0843842,0.149784,1.46385
0.180854,0.361539,0.393429,0.0449311,0.0922044,0.130662,1.46385
0.0846053,0.429873,0.34368,0.0427929,0.0896504,0.110857,1.46385
-0.0245051,0.415791,0.313402,0.0522891,0.0957352,0.0673077,1.46385
-0.0665026,0.414202,0.353556,0.0388436,0.0979111,0.0310559,1.46385
-0.103231,0.362976,0.37952,0.0271859,0.108057,-0.018716,1.46385
-0.0420491,0.25275,0.425814,0.0118124,0.108765,-0.079501,1.46385
-0.0192825,0.032851,0.418819,-0.00499004,0.106478,-0.150157,1.46385
-0.142046,-0.102057,0.423465,-0.0236531,0.106308,-0.198628,1.46385
-0.321139,-0.0930642,0.453236,-0.0329661,0.089835,-0.240973,1.46385
-0.468769,0.0632416,0.401963,-0.043284,0.0688903,-0.22446,1.46385
-0.764257,0.083551,0.28791,-0.0261495,0.0190793,-0.178435,1.46385
-1.31811,-0.24614,0.101128,0.00685051,-0.0489863,-0.205446,1.46385
-1.8537,-0.746007,-0.233661,-0.00967174,-0.0364881,-0.327392,1.46385
-1.8355,-0.97019,-0.422782,-0.0105206,0.012978,-0.407879,1.46385
-0.933635,-0.67411,-0.266879,-0.0624613,0.105537,-0.453118,1.46385
0.190366,-0.0379447,0.210981,-0.122774,0.152589,-0.32294,1.46385
0.7298,0.296491,0.614915,-0.170277,0.106029,-0.202097,1.46385
0.675841,0.2167,0.56304,-0.160358,0.0536033,-0.0714784,1.46385
0.330957,-0.227565,0.150885,-0.163777,0.015902,-0.0355204,1.46385
0.105869,-0.602474,-0.332179,-0.196837,0.0100481,-0.00616509,1.46385
0.148053,-0.582837,-0.681817,-0.209636,0.0392332,0.0329748,1.46385
0.300565,-0.210196,-0.814926,-0.194727,0.0476548,0.115942,1.46385
0.349536,0.167667,-0.801546,-0.16638,0.0361816,0.192227,1.46385
0.265098,0.408482,-0.779387,-0.13641,0.0223355,0.277979,1.46385
0.125294,0.361367,-0.805448,-0.122811,0.00998318,0.338916,1.46385
-0.0107589,0.0426083,-0.891246,-0.110008,-0.000631496,0.381036,1.46385
-0.0107589,0.0426083,-0.891246,-0.110008,-0.000631496,0.381036,1.64088
-0.14536,-0.398201,-1.03601,-0.095484,-0.00659373,0.392629,1.64088
-0.0766778,-0.849615,-1.2119,-0.0894915,0.0228071,0.332944,1.64088
0.306419,-1.12976,-1.36789,-0.0602444,0.065166,0.268251,1.64088
0.738976,-1.1582,-1.3622,-0.0476256,0.0875572,0.245885,1.64088
0.817862,-0.96832,-1.23989,-0.00337971,0.0942377,0.250385,1.64088
0.470736,-0.660212,-1.06957,0.0383706,0.0809658,0.253762,1.64088
-0.0709171,-0.307873,-0.913795,0.0560675,0.0505758,0.234524,1.64088
-0.44657,-0.0809133,-0.831966,0.0903602,0.0134677,0.161394,1.64088
-0.489275,-0.0182633,-0.740659,0.112879,-0.018979,0.0724132,1.64088
-0.374558,-0.0365646,-0.594186,0.136326,-0.0562572,-0.00234652,1.64088
-0.366942,-0.00879205,-0.444313,0.14714,-0.09867,-0.0493944,1.64088
-0.425211,0.0610935,-0.32253,0.175482,-0.157854,-0.0989475,1.64088
-0.384135,0.0796536,-0.184356,0.189236,-0.204408,-0.173554,1.64088
-0.2161,0.0552149,-0.0154302,0.182815,-0.224666,-0.238569,1.64088
0.0400957,-0.0700912,0.220828,0.196866,-0.249079,-0.286441,1.64088
0.266203,-0.251813,0.535668,0.182828,-0.259751,-0.282537,1.64088
0.277109,-0.401907,0.738999,0.150977,-0.246938,-0.251857,1.64088
0.102236,-0.429279,0.744034,0.105425,-0.195593,-0.211036,1.64088
-0.0687957,-0.143861,0.693973,0.0666928,-0.102716,-0.132134,1.64088
-0.032474,0.387856,0.800443,0.0780993,-0.0621423,-0.0222718,1.64088
0.165953,0.840101,1.08645,0.132035,-0.034647,0.0730117,1.64088
0.23497,0.822567,1.4983,0.202881,-0.0553403,0.0915306,1.64088
-0.0183543,0.529478,1.74089,0.255316,-0.0944746,0.079153,1.64088
-0.436676,0.08788,1.64914,0.252411,-0.0970431,-0.0129641,1.64088
-0.706051,-0.369708,1.37699,0.203635,-0.0516099,-0.150337,1.64088
-0.63361,-0.517731,1.14633,0.198001,-0.0202871,-0.241929,1.64088
-0.278984,-0.182871,1.08757,0.196011,0.0272871,-0.266281,1.64088
0.0851366,0.459262,1.22693,0.169661,0.0435735,-0.20052,1.64088
0.188614,1.02166,1.34552,0.177594,0.0102799,-0.108501,1.64088
0.277887,1.37158,1.35719,0.181179,-0.026242,-0.00264776,1.64088
0.424419,1.4204,1.32101,0.156503,-0.0384591,0.0934268,1.64088
0.564768,1.25392,1.23978,0.136271,-0.0329217,0.181832,1.64088
0.598119,0.988732,1.18552,0.114633,-0.00915773,0.25836,1.64088
0.511043,0.705179,1.18399,0.0908308,0.0211024,0.299395,1.64088
0.390393,0.388943,1.1802,0.0747739,0.0373944,0.294643,1.64088
0.325313,0.0682565,1.12455,0.0699149,0.0601492,0.244239,1.64088
0.303286,-0.137753,0.984308,0.0583544,0.0871569,0.188614,1.64088
0.0974657,-0.173335,0.762381,0.0554558,0.123665,0.133293,1.64088
-0.175956,-0.043057,0.621086,0.0555369,0.152484,0.063656,1.64088
-0.33877,0.121932,0.611529,0.0854411,0.162426,-0.0200709,1.64088
-0.205753,0.363223,0.773529,0.0911936,0.178702,-0.092685,1.64088
-0.0343516,0.615965,1.0121,0.0726444,0.156864,-0.0890349,1.64088
-0.14231,0.722645,1.11198,0.0633705,0.0927725,-0.0711588,1.64088
-0.38094,0.644376,1.01677,0.0431034,0.0374782,-0.0865191,1.64088
-0.511715,0.376395,0.853087,0.0199272,-0.00773509,-0.134443,1.64088
-0.478279,-0.0308785,0.71394,-0.00415906,-0.0361275,-0.196247,1.64088
-0.375363,-0.385428,0.517256,-0.0118472,-0.0588472,-0.222986,1.64088
-0.636563,-0.561678,0.151286,0.00282481,-0.111039,-0.246039,1.64088
-0.636563,-0.561678,0.151286,0.00282481,-0.111039,-0.246039,1.86812
-1.11784,-0.578381,-0.453769,0.020318,-0.116458,-0.30948,1.86812
-1.14169,-0.411887,-0.937505,0.0393197,-0.0548777,-0.402105,1.86812
-0.570584,-0.105052,-1.08179,0.00729261,0.0308113,-0.410713,1.86812
-0.11702,0.295976,-1.07963,-0.0259894,0.0522585,-0.261552,1.86812
-0.139305,0.610196,-1.03069,-0.0612239,0.0499384,-0.0638026,1.86812
-0.422844,0.76179,-0.973861,-0.0892565,0.019547,0.111756,1.86812
-0.742615,0.80815,-0.948338,-0.0998443,-0.00946032,0.258093,1.86812
-1.06247,0.555287,-0.924514,-0.0903169,-0.0239457,0.326933,1.86812
-1.26483,-0.16352,-0.858538,0.000628553,-0.0358815,0.232121,1.86812
-0.979182,-0.644359,-0.561794,0.00840579,-0.023696,0.15546,1.86812
-0.271736,-0.620903,-0.218566,-0.0094008,0.0596207,0.124366,1.86812
0.390149,-0.37737,0.0788431,-0.00812818,0.0947224,0.103908,1.86812
0.688032,-0.0767507,0.258683,0.0137404,0.0893115,0.10772,1.86812
0.73052,0.234673,0.360577,0.0232292,0.0881508,0.133989,1.86812
0.738063,0.484958,0.531561,0.0262555,0.0915288,0.160595,1.86812
0.761539,0.58861,0.751315,0.0228431,0.101553,0.185369,1.86812
0.770371,0.528168,0.914745,0.0232025,0.103597,0.206877,1.86812
0.768655,0.392079,0.988948,0.0065553,0.0943615,0.229609,1.86812
0.746126,0.259364,0.97697,-0.00560093,0.0911664,0.254544,1.86812
0.625718,0.131669,0.954756,-0.0206636,0.0789467,0.27728,1.86812
0.37304,0.0299527,0.901524,-0.032173,0.0717132,0.270507,1.86812
0.104633,0.0423262,0.844605,-0.0437406,0.0523801,0.273143,1.86812
-0.119473,0.0848273,0.779836,-0.0484048,0.0412478,0.244533,1.86812
-0.215241,0.139998,0.80219,-0.0340109,0.0131962,0.214132,1.86812
-0.328051,0.209849,0.918561,-0.0330295,-0.0115203,0.208738,1.86812
-0.476133,0.37276,1.06818,-0.0199765,-0.0536867,0.174616,1.86812
-0.49575,0.577358,1.22286,-0.00520456,-0.0962399,0.146056,1.86812
-0.618533,0.770627,1.39076,-0.00939012,-0.121748,0.131023,1.86812
-0.890234,0.765595,1.5897,-0.00688748,-0.16093,0.08434,1.86812
-1.0061,0.534875,1.70681,0.013685,-0.16781,0.00446379,1.86812
-0.856516,0.106514,1.72744,0.0221055,-0.169386,-0.0917304,1.86812
-0.444341,-0.514287,1.67483,0.0643668,-0.186365,-0.177424,1.86812
-0.0222909,-0.969285,1.65361,0.0834391,-0.184951,-0.191933,1.86812
0.0699652,-1.02386,1.66738,0.11145,-0.227276,-0.131293,1.86812
-0.225262,-0.922967,1.58603,0.129237,-0.230935,-0.11495,1.86812
-0.542976,-0.793571,1.42109,0.157197,-0.206341,-0.148802,1.86812
-0.499879,-0.787464,1.33626,0.203608,-0.160108,-0.22758,1.86812
-0.0525772,-0.83617,1.44816,0.242198,-0.0975276,-0.263896,1.86812
0.535444,-0.770164,1.75548,0.277697,-0.0675202,-0.226701,1.86812
0.884848,-0.51635,2.11701,0.300992,-0.0778277,-0.11459,1.86812
0.854221,-0.202244,2.34479,0.312872,-0.0998352,-0.003434,1.86812
0.61555,-0.00517391,2.35748,0.311496,-0.100496,0.0357508,1.86812
0.451417,0.0397917,2.24302,0.324861,-0.0691577,0.0328149,1.86812
0.475558,-0.0660302,2.17462,0.353679,-0.0373746,-0.0124791,1.86812
0.630162,-0.206675,2.17054,0.387947,-0.0065118,-0.0585158,1.86812
0.786262,-0.234645,2.22882,0.40839,0.0364218,-0.0856715,1.86812
0.864203,-0.167669,2.31086,0.411736,0.073031,-0.0968331,1.86812
0.858499,-0.0988104,2.34691,0.415965,0.110962,-0.117128,1.86812
0.858499,-0.0988104,2.34691,0.415965,0.110962,-0.117128,2.13499
0.987487,0.0171503,2.36449,0.407206,0.13702,-0.135563,2.13499
1.21603,0.205916,2.36881,0.386702,0.177669,-0.129978,2.13499
1.33042,0.466788,2.36471,0.364981,0.187097,-0.0968314,2.13499
1.29043,0.712793,2.30851,0.345963,0.193686,-0.0593646,2.13499
1.20314,0.892568,2.18186,0.325719,0.192206,-0.0487146,2.13499
1.14427,1.01294,2.00844,0.306204,0.204962,-0.0382996,2.13499
1.0791,1.16484,1.85456,0.283799,0.222,-0.0136421,2.13499
0.955175,1.3807,1.75207,0.253569,0.235987,0.0250631,2.13499
0.741839,1.62392,1.68528,0.227097,0.241881,0.0654902,2.13499
0.424842,1.86045,1.62253,0.194544,0.231073,0.0988203,2.13499
0.0969819,2.02158,1.53813,0.150067,0.228645,0.108015,2.13499
-0.168195,2.08292,1.45968,0.103705,0.225414,0.104272,2.13499
-0.357462,1.94672,1.48281,0.0525204,0.221663,0.0548528,2.13499
-0.338428,1.59774,1.52032,0.00248932,0.226024,-0.0242369,2.13499
-0.176851,1.15061,1.49882,-0.0488303,0.219252,-0.0952597,2.13499
-0.10952,0.846485,1.4137,-0.104146,0.192276,-0.108187,2.13499
-0.331525,0.690154,1.12365,-0.132131,0.190869,-0.111418,2.13499
-0.671345,0.751954,0.783838,-0.151169,0.161795,-0.094666,2.13499
-0.886836,0.896886,0.49186,-0.166863,0.174107,-0.0996529,2.13499
-0.812757,0.974109,0.372753,-0.172424,0.204646,-0.121782,2.13499
-0.487739,0.97094,0.472707,-0.159953,0.210481,-0.111851,2.13499
-0.186739,0.974635,0.717739,-0.151814,0.182672,-0.0412317,2.13499
-0.148679,0.970918,0.925049,-0.147864,0.154313,0.046467,2.13499
-0.263516,0.883679,1.01556,-0.140706,0.101458,0.108109,2.13499
-0.422522,0.767382,0.969264,-0.138794,0.0609315,0.142266,2.13499
-0.587489,0.561791,0.828468,-0.107839,0.0253546,0.154426,2.13499
-0.8285,0.248393,0.659813,-0.066929,-0.0105656,0.153062,2.13499
-1.01767,-0.12196,0.573903,-0.0185343,-0.0250372,0.115034,2.13499
-1.00312,-0.419591,0.596791,0.0175778,-0.029891,0.0767964,2.13499
-0.976435,-0.678515,0.631779,0.0518727,-0.0448249,0.0511479,2.13499
-0.866094,-0.744468,0.66535,0.0709681,-0.0579846,0.0374371,2.13499
-0.704554,-0.671884,0.692138,0.0826325,-0.055964,0.0339252,2.13499
-0.57997,-0.551515,0.76495,0.102513,-0.0726627,0.0308681,2.13499
-0.538905,-0.3881,0.851612,0.108775,-0.0866023,0.0374676,2.13499
-0.49812,-0.266282,0.926682,0.105255,-0.102591,0.0270904,2.13499
-0.348911,-0.200672,0.938974,0.0925875,-0.103194,-0.000166714,2.13499
-0.131935,-0.218642,0.939487,0.079551,-0.113355,-0.0266834,2.13499
0.0483876,-0.288227,0.914607,0.0595911,-0.119121,-0.0320187,2.13499
0.186817,-0.367484,0.884416,0.0264704,-0.124164,-0.0367489,2.13499
0.284956,-0.410282,0.790309,-0.00373109,-0.121677,-0.0314071,2.13499
0.282351,-0.39172,0.587345,-0.0189546,-0.127359,-0.0232431,2.13499
0.230992,-0.2542,0.334201,-0.0314326,-0.111616,-0.0114034,2.13499
0.194677,-0.0399539,0.159993,-0.025802,-0.0935341,-0.00173813,2.13499
0.149959,0.110844,0.148001,-0.00145131,-0.0854639,-0.0196191,2.13499
0.154073,0.140084,0.291954,0.0266796,-0.0773085,-0.0527599,2.13499
0.156684,0.0855296,0.52826,0.0658797,-0.116281,-0.0835036,2.13499
0.0868826,-0.0822715,0.719728,0.0960063,-0.165096,-0.119419,2.13499
-0.0286044,-0.360365,0.828884,0.121258,-0.204145,-0.174095,2.13499
-0.0286044,-0.360365,0.828884,0.121258,-0.204145,-0.174095,2.41243
-0.187157,-0.739455,0.924581,0.147388,-0.210209,-0.236947,2.41243
-0.46933,-1.22674,1.0364,0.147222,-0.147689,-0.339686,2.41243
-0.684804,-1.51598,1.09754,0.136682,-0.0657002,-0.452654,2.41243
-0.343973,-1.2774,1.18091,0.126619,0.00129339,-0.500531,2.41243
0.220022,-0.566981,1.3147,0.125628,0.0534858,-0.453024,2.41243
0.380047,0.364098,1.38361,0.200164,0.0202571,-0.330475,2.41243
0.258713,1.01971,1.36924,0.284956,0.0187199,-0.24429,2.41243
0.202046,1.2426,1.51557,0.330086,0.0259694,-0.21704,2.41243
0.186229,1.21673,1.64385,0.340566,0.0342966,-0.156505,2.41243
0.170701,1.19575,1.57705,0.336877,0.0397008,-0.0590132,2.41243
0.220844,1.37566,1.45086,0.308444,0.0451648,0.0690409,2.41243
0.279318,1.68358,1.32692,0.280406,0.0677899,0.198376,2.41243
0.234365,1.97695,1.25289,0.262691,0.0778012,0.31061,2.41243
0.0626336,2.0983,1.24729,0.254803,0.0939116,0.385007,2.41243
-0.0817454,1.93946,1.384,0.255832,0.10815,0.383238,2.41243
-0.166252,1.61982,1.6102,0.243508,0.117099,0.385428,2.41243
-0.30703,1.15931,1.81697,0.231279,0.127052,0.345634,2.41243
-0.370376,0.746372,1.91157,0.226379,0.124167,0.297635,2.41243
-0.39584,0.544938,1.87139,0.199351,0.140537,0.240699,2.41243
-0.427505,0.786487,1.72936,0.17898,0.154548,0.187432,2.41243
-0.426502,1.46883,1.54074,0.129665,0.189085,0.140835,2.41243
-0.504843,2.04803,1.41346,0.100466,0.223427,0.0824896,2.41243
-0.712448,2.15834,1.32906,0.0937809,0.214118,0.00607717,2.41243
-0.797361,1.85731,1.27275,0.107621,0.204906,-0.0484236,2.41243
-0.639791,1.34161,1.26864,0.0875856,0.206684,-0.116699,2.41243
-0.287026,0.947177,1.28926,0.0298842,0.235912,-0.130365,2.41243
-0.00721775,0.763862,1.28865,-0.0181037,0.238002,-0.116552,2.41243
0.142578,0.815805,1.26049,-0.0619123,0.229014,-0.0799773,2.41243
0.0751627,0.943089,1.17966,-0.098765,0.208823,-0.0423093,2.41243
-0.0904449,0.923073,0.997057,-0.115221,0.205363,-0.085999,2.41243
-0.258741,0.678959,0.675281,-0.119804,0.207852,-0.144319,2.41243
-0.359298,0.233684,0.323238,-0.0823532,0.20581,-0.237311,2.41243
-0.191995,0.0459498,0.153061,-0.0986055,0.221888,-0.249181,2.41243
-0.127913,0.0414373,0.0365343,-0.0763523,0.17701,-0.196831,2.41243
-0.468259,0.043961,-0.178396,-0.0483646,0.0925971,-0.134147,2.41243
-1.0982,0.0303332,-0.559934,-0.02196,0.0366392,-0.130329,2.41243
-1.51584,-0.151274,-0.931476,-0.015291,0.0292693,-0.206289,2.41243
-1.44258,-0.456205,-1.06787,-0.00379017,0.0493402,-0.305416,2.41243
-0.807877,-0.778225,-0.813833,0.0138514,0.0633122,-0.358012,2.41243
-0.0946387,-1.11024,-0.276456,0.0348727,0.0457358,-0.3582,2.41243
0.329584,-1.22058,0.255816,0.0103516,0.0282425,-0.287666,2.41243
0.394744,-1.01938,0.51427,-0.0589966,0.0134577,-0.198111,2.41243
0.368478,-0.45731,0.472088,-0.12456,-0.0154794,-0.118338,2.41243
0.426043,0.292788,0.242874,-0.19643,-0.00452915,-0.054965,2.41243
0.548461,0.993479,0.0174747,-0.218533,-0.00516495,0.0204463,2.41243
0.578964,1.36126,-0.0853587,-0.199611,-0.0170746,0.100828,2.41243
0.54776,1.31583,-0.138546,-0.163637,-0.025231,0.159489,2.41243
0.524788,0.953285,-0.171183,-0.12138,-0.0316887,0.193951,2.41243
0.524788,0.953285,-0.171183,-0.12138,-0.0316887,0.193951,2.66875
0.525001,0.488042,-0.179631,-0.104797,-0.0190953,0.226673,2.66875
0.509003,-0.00513249,-0.175728,-0.0941389,0.00209543,0.241376,2.66875
0.486969,-0.419466,-0.183479,-0.0867807,0.0237948,0.268108,2.66875
0.549481,-0.715865,-0.199901,-0.0876565,0.0481765,0.254359,2.66875
0.725289,-0.795699,-0.224289,-0.0920092,0.0838791,0.262788,2.66875
0.830552,-0.787068,-0.237215,-0.0742791,0.0913971,0.248124,2.66875
0.740087,-0.679907,-0.262984,-0.0547619,0.0835652,0.259649,2.66875
0.489737,-0.544012,-0.316146,-0.0458614,0.0728322,0.254649,2.66875
0.240466,-0.395028,-0.388327,-0.0431467,0.0569951,0.240106,2.66875
0.0148049,-0.294839,-0.4649,-0.0391864,0.0395319,0.216159,2.66875
-0.156805,-0.247369,-0.535972,-0.0377306,0.0217797,0.18354,2.66875
-0.258766,-0.221817,-0.580171,-0.0238386,-0.00657094,0.150063,2.66875
-0.325193,-0.245478,-0.534357,-0.00113109,-0.0495034,0.100468,2.66875
-0.373776,-0.30504,-0.403037,0.0120361,-0.0963269,0.0419045,2.66875
-0.455441,-0.387689,-0.266779,0.0209357,-0.136978,-0.0303056,2.66875
-0.408155,-0.328366,-0.184992,0.0252281,-0.159167,-0.106935,2.66875
-0.223227,-0.0650522,-0.125218,0.0405174,-0.174476,-0.145025,2.66875
-0.0870372,0.257884,-0.0306785,0.0849119,-0.183678,-0.131775,2.66875
-0.335383,0.428831,0.113323,0.15017,-0.220142,-0.116256,2.66875
-0.808432,0.264866,0.179284,0.223327,-0.231343,-0.16623,2.66875
-1.04306,-0.277482,0.177263,0.251986,-0.194255,-0.267424,2.66875
-1.10784,-0.999494,0.151447,0.22651,-0.0693645,-0.36708,2.66875
-0.995049,-1.45339,0.220907,0.208653,0.0316854,-0.410305,2.66875
-0.531881,-1.07102,0.551266,0.159813,0.0846016,-0.329351,2.66875
-0.0458758,-0.184444,1.05428,0.0736955,0.100205,-0.188203,2.66875
0.0220555,0.511863,1.33066,0.0503042,0.0279913,-0.0495026,2.66875
-0.206165,0.727136,1.18302,0.0469792,-0.0375087,0.034988,2.66875
-0.391862,0.578188,0.79308,0.0528713,-0.0820778,0.0744861,2.66875
-0.451556,0.307294,0.470612,0.0453879,-0.0972833,0.100077,2.66875
-0.417265,0.090423,0.299873,0.0539653,-0.0766652,0.112782,2.66875
-0.285352,0.033357,0.305222,0.0754819,-0.0510902,0.117493,2.66875
-0.10794,0.0690859,0.456226,0.09276,-0.0352424,0.120854,2.66875
0.0307769,0.0763213,0.612679,0.106173,-0.0364515,0.119517,2.66875
0.130635,0.0308864,0.700166,0.104975,-0.0422328,0.115873,2.66875
0.228947,0.0262224,0.700009,0.0915704,-0.0341996,0.115799,2.66875
0.354584,0.028103,0.683469,0.072131,-0.0247454,0.106964,2.66875
0.483775,0.0693845,0.678169,0.0472703,-0.00777315,0.116523,2.66875
0.593651,0.188777,0.665008,0.0203207,0.00493768,0.141108,2.66875
0.608136,0.278172,0.630721,-0.00284225,0.0146236,0.16991,2.66875
0.569024,0.364561,0.566977,-0.0124843,0.00848517,0.202231,2.66875
0.461776,0.363074,0.499492,-0.0286992,-0.00358032,0.224826,2.66875
0.293703,0.326522,0.373357,-0.0363154,0.00143321,0.22266,2.66875
0.127783,0.326644,0.244669,-0.0386651,-0.00889975,0.211093,2.66875
-0.01513,0.356866,0.176007,-0.0458575,0.00547594,0.188473,2.66875
-0.115793,0.320121,0.115093,-0.0456616,0.00804347,0.13963,2.66875
-0.233485,0.172358,0.0205148,-0.0274428,0.00570577,0.0700261,2.66875
-0.339265,-0.00115247,-0.0424052,-0.0146002,0.0119102,-0.00648427,2.66875
-0.386371,-0.162219,-0.112366,0.00736696,0.0301137,-0.0941788,2.66875
-0.386371,-0.162219,-0.112366,0.00736696,0.0301137,-0.0941788,2.91447
-0.38511,-0.24104,-0.146875,0.0197477,0.0462088,-0.151017,2.91447
-0.36146,-0.231835,-0.0945351,0.0326064,0.0543984,-0.184347,2.91447
-0.388553,-0.15364,-0.0304028,0.0393563,0.0419218,-0.181304,2.91447
-0.534669,-0.10959,-0.075249,0.0371755,0.0128761,-0.168497,2.91447
-0.878477,-0.173214,-0.294702,0.0465276,0.00783287,-0.187752,2.91447
-1.10002,-0.128139,-0.520047,0.0518256,0.0552113,-0.21064,2.91447
-1.01872,0.162765,-0.452063,0.0747419,0.0782545,-0.256343,2.91447
-0.705665,0.66586,-0.259485,0.0754255,0.0899246,-0.290248,2.91447
-0.366104,1.26157,-0.149648,0.0302466,0.109485,-0.263791,2.91447
-0.207096,1.45432,-0.209662,0.0170799,0.100615,-0.260855,2.91447
-0.0547568,1.25431,-0.266975,0.00208503,0.0636641,-0.263057,2.91447
0.26979,0.977592,-0.204367,-0.0198825,0.0518713,-0.23507,2.91447
0.579907,0.761304,-0.0999722,-0.0521283,0.0286467,-0.189024,2.91447
0.734159,0.552368,-0.208356,-0.0796004,0.0234608,-0.165751,2.91447
0.820041,0.472027,-0.462753,-0.0992559,0.0330848,-0.147702,2.91447
0.959671,0.490937,-0.624706,-0.115207,0.0567031,-0.123568,2.91447
1.18138,0.576531,-0.531577,-0.138891,0.0730431,-0.0804275,2.91447
1.36402,0.602245,-0.291846,-0.173026,0.0682198,-0.0214884,2.91447
1.44188,0.414505,-0.191171,-0.186439,0.059312,0.0194293,2.91447
1.46561,0.0186373,-0.259805,-0.184677,0.041915,0.0393361,2.91447
1.50541,-0.284388,-0.350197,-0.199375,0.0618381,0.0671099,2.91447
1.56402,-0.391293,-0.365513,-0.21399,0.09339,0.108811,2.91447
1.58235,-0.259874,-0.337515,-0.224205,0.117521,0.165894,2.91447
1.51724,-0.125591,-0.327755,-0.227864,0.115106,0.209219,2.91447
1.3181,-0.0396094,-0.413916,-0.224091,0.105221,0.252541,2.91447
1.1133,-0.0433721,-0.538663,-0.216918,0.0866216,0.287441,2.91447
0.884976,-0.189511,-0.668223,-0.199932,0.068291,0.29805,2.91447
0.651253,-0.308297,-0.7643,-0.184451,0.0506864,0.312349,2.91447
0.397351,-0.414824,-0.830091,-0.169649,0.023181,0.319607,2.91447
0.175944,-0.585979,-0.963351,-0.144457,0.00612387,0.273992,2.91447
0.0578117,-0.700081,-1.05917,-0.110004,-0.0174012,0.238018,2.91447
-0.0644906,-0.754211,-1.07262,-0.0662961,-0.047326,0.197092,2.91447
-0.194846,-0.773943,-0.967922,-0.0179392,-0.0755568,0.145314,2.91447
-0.394604,-0.856433,-0.875619,0.0266371,-0.104199,0.0796658,2.91447
-0.441203,-0.940218,-0.813671,0.0802019,-0.10354,-0.037524,2.91447
-0.356958,-0.957791,-0.72308,0.121363,-0.125138,-0.146175,2.91447
-0.399566,-0.820947,-0.601386,0.186293,-0.150019,-0.22352,2.91447
-0.502289,-0.705861,-0.446904,0.207109,-0.19862,-0.301227,2.91447
-0.623501,-0.684401,-0.50362,0.22528,-0.195427,-0.367092,2.91447
-0.722904,-0.705484,-0.625322,0.239208,-0.166362,-0.414877,2.91447
-0.809631,-0.467672,-0.586195,0.226659,-0.0888833,-0.395209,2.91447
-0.731119,-0.0239094,-0.300675,0.221603,-0.0138734,-0.346889,2.91447
-0.39701,0.319635,0.297115,0.166249,0.00789177,-0.269119,2.91447
-0.0203817,0.143181,0.87678,0.102556,-0.0125543,-0.18979,2.91447
0.175099,-0.268895,1.07795,0.0413177,-0.0497992,-0.0739409,2.91447
0.187896,-0.569495,0.943857,-0.023519,-0.0703107,0.0357646,2.91447
0.0869569,-0.584486,0.687112,-0.0653387,-0.0789709,0.13174,2.91447
-0.0355939,-0.307418,0.478564,-0.0764815,-0.0742055,0.188982,2.91447
-0.0355939,-0.307418,0.478564,-0.0764815,-0.0742055,0.188982,3.14172
-0.122338,-0.00750585,0.346067,-0.0568714,-0.0679553,0.200485,3.14172
-0.127579,0.10506,0.299723,-0.0262615,-0.0658041,0.190237,3.14172
-0.0439541,-0.00436218,0.342513,-0.00207928,-0.0642138,0.169636,3.14172
0.0812959,-0.137808,0.421132,0.00846502,-0.0569817,0.179592,3.14172
0.19197,-0.243546,0.474127,0.0175535,-0.0480557,0.181083,3.14172
0.319723,-0.241665,0.450015,0.020536,-0.0288065,0.183369,3.14172
0.373481,-0.188126,0.411166,0.0277395,-0.0135028,0.177983,3.14172
0.364503,-0.158455,0.387811,0.035835,0.00144887,0.162962,3.14172
0.442373,-0.152664,0.364711,0.0411254,0.0272096,0.124623,3.14172
0.58357,-0.0765409,0.350686,0.0279826,0.0529295,0.113206,3.14172
0.642999,-0.00897093,0.30017,0.0240886,0.0662266,0.111227,3.14172
0.583812,0.0789806,0.218833,0.00733086,0.0739616,0.131233,3.14172
0.437838,0.178655,0.095442,-0.0176789,0.0893182,0.139993,3.14172
0.28948,0.2825,-0.0588531,-0.0421191,0.109626,0.126749,3.14172
0.193533,0.41073,-0.157623,-0.0596823,0.119914,0.112354,3.14172
0.0421818,0.395801,-0.229156,-0.0638359,0.107971,0.0812391,3.14172
-0.141777,0.0910152,-0.378724,-0.0337326,0.0904524,-0.00763351,3.14172
-0.31422,-0.368585,-0.580102,0.00136983,0.098992,-0.133281,3.14172
-0.403083,-0.702239,-0.699596,0.0170993,0.147711,-0.236671,3.14172
-0.410378,-0.795337,-0.675508,0.0222034,0.174745,-0.293205,3.14172
-0.53195,-0.609897,-0.641789,0.00967076,0.155556,-0.282508,3.14172
-0.884361,-0.301461,-0.780732,0.00713265,0.0808143,-0.235272,3.14172
-1.31791,-0.264612,-1.13574,0.0299852,0.0143525,-0.259404,3.14172
-1.42697,-0.476344,-1.44557,0.0629623,0.00982222,-0.325963,3.14172
-1.02872,-0.580945,-1.28128,0.0694658,0.0460049,-0.353149,3.14172
-0.251819,-0.56807,-0.724405,0.0427651,0.0760051,-0.28426,3.14172
0.255309,-0.660818,-0.211734,0.0242457,0.0448598,-0.191403,3.14172
0.24737,-0.788586,-0.0257134,-0.000610381,-0.00628522,-0.0895698,3.14172
0.111872,-0.881829,-0.0594499,-0.0385112,-0.0527131,-0.0338867,3.14172
0.159313,-0.884262,-0.177242,-0.0763959,-0.0602625,0.00670576,3.14172
0.33902,-0.825541,-0.29433,-0.0928497,-0.0608231,0.0507674,3.14172
0.480744,-0.605256,-0.385162,-0.0981386,-0.0500336,0.111823,3.14172
0.479035,-0.342536,-0.450468,-0.0862953,-0.046775,0.161455,3.14172
0.425563,-0.106204,-0.51783,-0.0658128,-0.0476602,0.191878,3.14172
0.408151,-0.042188,-0.595506,-0.0468773,-0.0384006,0.197387,3.14172
0.442315,-0.0418123,-0.65302,-0.0342995,-0.0184369,0.205872,3.14172
0.472278,-0.0665285,-0.65805,-0.0247317,-0.00695996,0.225084,3.14172
0.492314,-0.164186,-0.624139,-0.0150721,-0.0019891,0.235616,3.14172
0.480967,-0.400463,-0.582021,-0.00185931,-0.0134804,0.233787,3.14172
0.444154,-0.662147,-0.582534,0.0120564,-0.0408144,0.211764,3.14172
0.34133,-0.891899,-0.632873,0.0240202,-0.0744677,0.200397,3.14172
0.157587,-1.13986,-0.714895,0.0424254,-0.109883,0.172096,3.14172
0.0636079,-1.34156,-0.742597,0.0521875,-0.118508,0.0756583,3.14172
0.1534,-1.29454,-0.706905,0.031728,-0.0974272,-0.0119886,3.14172
0.280754,-1.08421,-0.599808,-0.0062937,-0.0661191,-0.0611838,3.14172
0.378455,-0.791416,-0.449998,-0.0375888,-0.0724252,-0.0711439,3.14172
0.369925,-0.467396,-0.39885,-0.0483725,-0.0825357,-0.0519897,3.14172
0.230266,-0.19065,-0.475417,-0.0343153,-0.105231,-0.0733445,3.14172
0.230266,-0.19065,-0.475417,-0.0343153,-0.105231,-0.0733445,3.33989
0.136519,0.0440468,-0.525391,-0.0309699,-0.0861778,-0.110106,3.33989
0.113739,0.120126,-0.434803,-0.0189238,-0.0858823,-0.157653,3.33989
0.248273,0.014697,-0.242887,0.00645208,-0.0839445,-0.215564,3.33989
0.473025,-0.273541,-0.0360159,0.0178358,-0.0736838,-0.262847,3.33989
0.524171,-0.590773,0.0381961,0.0286506,-0.0755128,-0.283584,3.33989
0.383984,-0.852228,-0.0271311,0.0301029,-0.0616899,-0.290719,3.33989
0.166893,-0.885164,-0.131565,0.0247241,-0.0216129,-0.28025,3.33989
0.0380358,-0.595064,-0.133403,0.0129156,0.0354308,-0.244938,3.33989
0.1633,-0.0124758,-0.0179026,0.0249624,0.0745207,-0.181953,3.33989
0.404431,0.573362,0.176357,0.056162,0.0825343,-0.104947,3.33989
0.421021,0.793586,0.336762,0.0843336,0.0738345,-0.0327286,3.33989
0.21863,0.613031,0.376057,0.116325,0.0540778,0.00803137,3.33989
0.0280052,0.341561,0.352522,0.113621,0.0442918,0.0467386,3.33989
-0.0473195,0.258696,0.349152,0.0922381,0.0696266,0.0931711,3.33989
-0.0305703,0.35684,0.391005,0.0715031,0.0824192,0.132262,3.33989
0.020439,0.510176,0.411227,0.0663753,0.0900276,0.17493,3.33989
0.0359256,0.586967,0.41666,0.0588428,0.0863327,0.220789,3.33989
-0.0301594,0.549174,0.39512,0.0558899,0.0786632,0.25885,3.33989
-0.1592,0.367104,0.379404,0.0560501,0.0718696,0.275026,3.33989
-0.260213,0.146067,0.399374,0.0560094,0.0557967,0.28803,3.33989
-0.275066,0.0434227,0.411586,0.0500689,0.045457,0.287432,3.33989
-0.181542,0.0646922,0.392592,0.0457512,0.0477828,0.266695,3.33989
-0.0762145,0.137105,0.387192,0.0405367,0.0327998,0.250403,3.33989
-0.0312723,0.126817,0.354741,0.0564721,0.00749654,0.220805,3.33989
-0.0587684,0.050868,0.28831,0.0699063,-0.0140473,0.208868,3.33989
-0.217136,-0.11461,0.225115,0.0811133,-0.0343024,0.18686,3.33989
-0.397549,-0.285039,0.196891,0.094679,-0.0518126,0.151607,3.33989
-0.483149,-0.42791,0.198643,0.0857273,-0.0504431,0.0921296,3.33989
-0.437611,-0.489124,0.188034,0.0639874,-0.037634,0.0370522,3.33989
-0.328127,-0.471575,0.181156,0.0357159,-0.0167977,-0.00722188,3.33989
-0.223603,-0.405051,0.202742,0.0282081,-0.0255824,-0.0360681,3.33989
-0.1745,-0.259695,0.236165,0.0253837,-0.0331706,-0.0348504,3.33989
-0.146969,-0.0659051,0.303579,0.0199431,-0.0418101,-0.0371754,3.33989
-0.0815374,0.123788,0.391929,0.0135968,-0.0620128,-0.0343125,3.33989
-0.124507,0.0859455,0.442643,0.00925101,-0.0856673,-0.0599287,3.33989
-0.216097,-0.0808666,0.382672,-0.0059482,-0.0818714,-0.119704,3.33989
-0.258791,-0.258539,0.269488,-0.026793,-0.0541121,-0.201081,3.33989
-0.193674,-0.290825,0.193045,-0.0750416,-0.00884555,-0.264307,3.33989
-0.107772,-0.155181,0.124245,-0.109779,0.0353581,-0.29543,3.33989
-0.137019,0.0296992,0.062368,-0.119343,0.043304,-0.270791,3.33989
-0.317779,0.0844557,-0.108582,-0.104446,0.0505514,-0.233698,3.33989
-0.640127,-0.187672,-0.397288,-0.0760549,0.0487655,-0.23321,3.33989
-0.879644,-0.617127,-0.675092,-0.0766939,0.0668679,-0.253372,3.33989
-0.761875,-0.760031,-0.789718,-0.098132,0.105454,-0.233854,3.33989
-0.288571,-0.568653,-0.725163,-0.0818051,0.12347,-0.166415,3.33989
0.135076,-0.294544,-0.486492,-0.0419136,0.108772,-0.0741017,3.33989
0.162344,-0.0167088,-0.185611,-0.0188753,0.0797738,0.0393279,3.33989
0.162344,-0.0167088,-0.185611,-0.0188753,0.0797738,0.0393279,3.54863
-0.0371638,0.0783594,0.0592963,-0.0318304,0.054864,0.102403,3.54863
-0.163751,0.0579238,0.123215,-0.0481929,0.0229383,0.141835,3.54863
-0.14361,-0.0684311,0.00353709,-0.0517151,0.00425862,0.160882,3.54863
-0.109925,-0.217886,-0.219162,-0.0572262,-0.00968789,0.180009,3.54863
-0.116404,-0.304721,-0.46674,-0.0573066,-0.00344032,0.191853,3.54863
-0.1261,-0.300946,-0.602111,-0.0424611,0.000551373,0.189253,3.54863
-0.0454811,-0.10483,-0.578588,-0.0334203,0.00758371,0.195381,3.54863
0.0745201,0.103297,-0.470489,-0.0410827,0.0171288,0.220846,3.54863
0.101508,0.157926,-0.368392,-0.0390749,0.0015545,0.239394,3.54863
0.0789608,0.0941394,-0.379653,-0.0358368,-0.015393,0.250617,3.54863
0.0167259,-0.0666388,-0.459624,-0.0283896,-0.033902,0.2362,3.54863
-0.0743717,-0.214604,-0.530766,-0.0211618,-0.0573974,0.209763,3.54863
-0.179866,-0.28431,-0.573119,-0.0194032,-0.0752169,0.171838,3.54863
-0.240922,-0.255149,-0.58155,-0.0190924,-0.0750177,0.12257,3.54863
-0.265632,-0.165858,-0.53607,-0.0138837,-0.0700853,0.0788065,3.54863
-0.257349,-0.0824047,-0.461184,-0.00821953,-0.0621553,0.0518391,3.54863
-0.222603,-0.027635,-0.377427,0.00654096,-0.0624986,0.044226,3.54863
-0.176178,0.0119572,-0.275697,0.0221335,-0.0802131,0.0545524,3.54863
-0.198786,-0.038855,-0.189122,0.0364031,-0.102612,0.0547002,3.54863
-0.178115,-0.1606,-0.132537,0.0395663,-0.105166,0.0122002,3.54863
-0.123033,-0.218704,-0.0916962,0.0314593,-0.110627,-0.00590682,3.54863
-0.156397,-0.233135,-0.0639952,0.0334315,-0.125097,-0.0427174,3.54863
-0.12862,-0.158336,-0.0346622,0.0250727,-0.12646,-0.0815049,3.54863
-0.148787,-0.097638,-0.0558495,-0.00106633,-0.113633,-0.147996,3.54863
-0.166771,-0.118747,-0.118787,0.00890379,-0.144721,-0.22822,3.54863
-0.107544,-0.176772,-0.244989,0.0192669,-0.149432,-0.290252,3.54863
-0.0750962,-0.227433,-0.356015,0.0385212,-0.147057,-0.306228,3.54863
-0.191522,-0.186194,-0.37746,0.0367683,-0.116577,-0.273657,3.54863
-0.391066,-0.0798971,-0.28774,0.0333672,-0.0682399,-0.250554,3.54863
-0.458654,0.154559,-0.122033,0.0403966,-0.0224026,-0.213269,3.54863
-0.345492,0.417228,0.0671704,0.0656811,0.00375332,-0.165572,3.54863
-0.209688,0.56756,0.275851,0.109846,-0.00850872,-0.0934378,3.54863
-0.18724,0.403965,0.463545,0.150171,-0.0177059,-0.0625837,3.54863
-0.286277,0.0639931,0.607108,0.173593,-0.0181885,-0.0465589,3.54863
-0.291331,-0.262861,0.702066,0.168712,0.0205842,-0.0674194,3.54863
-0.0700943,-0.364444,0.786651,0.165117,0.0529807,-0.0697443,3.54863
0.211643,-0.173073,0.924617,0.156592,0.0713027,-0.0316318,3.54863
0.411721,0.122433,1.09686,0.158336,0.0605919,0.0410259,3.54863
0.480601,0.326833,1.22341,0.169594,0.035616,0.118668,3.54863
0.494642,0.441567,1.28175,0.159815,0.0207015,0.183431,3.54863
0.452193,0.491027,1.25286,0.166348,-0.00378861,0.243842,3.54863
0.29997,0.413956,1.15613,0.168698,-0.0184677,0.266609,3.54863
0.101409,0.275237,1.0004,0.17593,-0.0208543,0.253024,3.54863
-0.00168248,0.177862,0.854478,0.192608,-0.0201648,0.217735,3.54863
0.114924,0.0856701,0.847861,0.201745,0.011924,0.135338,3.54863
0.271667,0.0531575,0.925656,0.219826,0.0330129,0.0880542,3.54863
0.302683,0.0795457,0.988025,0.231012,0.0503784,0.0573589,3.54863
0.315192,0.233688,1.04475,0.224362,0.0650793,0.0514322,3.54863
0.315192,0.233688,1.04475,0.224362,0.0650793,0.0514322,3.75209
0.273955,0.385948,1.06704,0.215727,0.081647,0.042351,3.75209
0.181721,0.403842,1.08007,0.223294,0.0862562,0.0198743,3.75209
0.12514,0.391105,1.1519,0.221379,0.0917531,-0.000888169,3.75209
0.129105,0.353328,1.26976,0.210638,0.109335,-0.026782,3.75209
0.147672,0.316614,1.41323,0.190897,0.121361,-0.0508307,3.75209
0.232136,0.336695,1.53739,0.158778,0.122134,-0.0645734,3.75209
0.241675,0.344574,1.60792,0.135236,0.11306,-0.0668069,3.75209
0.126716,0.373988,1.67026,0.105469,0.0888449,-0.0691947,3.75209
0.0160704,0.38242,1.69577,0.0803892,0.0644485,-0.0801356,3.75209
-0.0422719,0.25647,1.68465,0.0739571,0.0252154,-0.120228,3.75209
0.0222261,-0.0296843,1.67647,0.0492077,-0.0215431,-0.161088,3.75209
0.153627,-0.489495,1.68777,0.00912089,-0.0777238,-0.181638,3.75209
0.138092,-0.892114,1.57709,-0.0273855,-0.14299,-0.149308,3.75209
-0.250795,-1.15235,1.21546,-0.00366842,-0.203531,-0.122999,3.75209
-0.665792,-1.21845,0.778935,0.026501,-0.198061,-0.174612,3.75209
-0.5405,-0.88591,0.519632,0.0237022,-0.122511,-0.223412,3.75209
-0.00237713,-0.292606,0.531143,0.0642418,-0.0359759,-0.240497,3.75209
0.456729,0.0546951,0.785564,0.101223,0.0349468,-0.265609,3.75209
0.583189,-0.0487944,1.00713,0.100951,0.124468,-0.333332,3.75209
0.790313,-0.16539,1.07472,0.0852162,0.194489,-0.357482,3.75209
1.08016,-0.00118478,1.02846,0.039854,0.273184,-0.313624,3.75209
1.24179,0.406375,0.979469,-0.00839113,0.313872,-0.21039,3.75209
1.24117,0.951411,0.911031,-0.00925389,0.302997,-0.0596656,3.75209
1.1295,1.44281,0.836734,-0.00107749,0.278267,0.0945547,3.75209
0.877793,1.72229,0.786641,0.0165209,0.236377,0.210723,3.75209
0.576419,1.75587,0.770439,0.0221227,0.210583,0.285203,3.75209
0.306617,1.58494,0.780136,0.0131077,0.192364,0.325605,3.75209
0.117564,1.25974,0.827865,0.00575182,0.165934,0.336349,3.75209
0.0208586,0.900499,0.909115,-0.0105619,0.144225,0.334092,3.75209
-0.032653,0.495764,0.986452,-0.0337508,0.133198,0.320488,3.75209
-0.0276401,0.152553,1.02924,-0.0551207,0.11266,0.320505,3.75209
0.0731261,-0.263862,1.04399,-0.0561908,0.113777,0.291292,3.75209
0.341375,-0.617073,1.07468,-0.0757685,0.114904,0.285096,3.75209
0.64995,-0.844157,1.09827,-0.0810702,0.121599,0.297629,3.75209
0.723185,-0.965707,1.1296,-0.0798874,0.10726,0.312243,3.75209
0.475892,-0.811044,1.13248,-0.0787384,0.086612,0.346683,3.75209
0.00955103,-0.417903,1.12839,-0.0775905,0.051876,0.36924,3.75209
-0.536262,0.0677235,1.11322,-0.082121,0.0091148,0.360985,3.75209
-1.03841,0.364979,1.04476,-0.0796821,-0.028315,0.285363,3.75209
-1.32102,0.446283,0.874954,-0.0648349,-0.0379565,0.178689,3.75209
-1.35598,0.31805,0.711445,-0.0421828,-0.0323678,0.050045,3.75209
-1.09618,0.188009,0.731641,-0.0304134,-0.0377542,-0.0455019,3.75209
-0.663568,0.164315,0.923299,0.00266746,-0.0414255,-0.0922375,3.75209
-0.385647,0.276165,1.23253,0.0189424,-0.0622527,-0.0986982,3.75209
-0.386531,0.434771,1.51601,0.0380907,-0.100136,-0.107041,3.75209
-0.538508,0.499234,1.6558,0.0471989,-0.13542,-0.161496,3.75209
-0.623744,0.442159,1.55904,0.0542209,-0.12438,-0.252076,3.75209
-0.488729,0.399813,1.39629,0.0385732,-0.108467,-0.330729,3.75209
-0.488729,0.399813,1.39629,0.0385732,-0.108467,-0.330729,3.97934
-0.220492,0.454438,1.33288,0.0472847,-0.119385,-0.35805,3.97934
-0.157914,0.469829,1.34278,0.08916,-0.111375,-0.35827,3.97934
-0.169876,0.498962,1.43702,0.121691,-0.105204,-0.333043,3.97934
-0.0135628,0.583926,1.62371,0.143166,-0.0772146,-0.282997,3.97934
0.333771,0.683524,1.86742,0.169292,-0.0640895,-0.199727,3.97934
0.709966,0.784937,2.14091,0.186061,-0.076523,-0.0705415,3.97934
0.808472,0.793852,2.3419,0.207517,-0.11856,0.0366149,3.97934
0.620091,0.643353,2.41203,0.221259,-0.154537,0.094851,3.97934
0.334657,0.32504,2.32162,0.233041,-0.158167,0.0832586,3.97934
0.183147,-0.0369842,2.14978,0.227365,-0.131102,0.045405,3.97934
0.232988,-0.2934,1.98234,0.227067,-0.0916167,8.22544e-06,3.97934
0.500164,-0.325859,1.89633,0.227056,-0.0424479,-0.0455041,3.97934
0.746434,-0.0911559,1.93657,0.211831,0.0111317,-0.0387399,3.97934
0.788011,0.147107,2.02228,0.225188,0.0349127,-0.0539263,3.97934
0.822224,0.39509,2.08347,0.222221,0.0537099,-0.0451773,3.97934
0.848257,0.562048,2.06678,0.199023,0.0741474,-0.0371846,3.97934
0.896648,0.603375,1.94767,0.177196,0.088979,-0.0395505,3.97934
0.977004,0.604629,1.735,0.163998,0.100635,-0.0285421,3.97934
0.997542,0.585599,1.51438,0.158907,0.113895,-0.0119544,3.97934
0.954744,0.672225,1.35818,0.141303,0.13473,0.0176517,3.97934
0.865779,0.923266,1.25281,0.123675,0.141971,0.0665123,3.97934
0.705344,1.15613,1.15531,0.103575,0.142967,0.093854,3.97934
0.490526,1.27812,1.01572,0.0746056,0.147566,0.10313,3.97934
0.269967,1.37104,0.842012,0.0370881,0.140319,0.113017,3.97934
0.0263608,1.42222,0.627902,0.00823474,0.125831,0.110857,3.97934
-0.148735,1.45518,0.400375,-0.0166162,0.128973,0.0998568,3.97934
-0.225896,1.50314,0.198213,-0.0441702,0.125734,0.0651347,3.97934
-0.278268,1.48804,0.04376,-0.0521677,0.123514,0.0355151,3.97934
-0.382048,1.26927,-0.0443025,-0.0441014,0.114325,-0.00705504,3.97934
-0.384722,0.90381,-0.100635,-0.0477563,0.123139,-0.0684353,3.97934
-0.17064,0.502347,-0.0787331,-0.0578357,0.117065,-0.108012,3.97934
0.0162057,0.133192,-0.0014746,-0.0528457,0.0637642,-0.100519,3.97934
-0.0796831,-0.0477363,-0.0307789,-0.0602368,0.0509634,-0.0574668,3.97934
-0.367207,-0.01766,-0.152983,-0.0618388,0.0247665,-0.0215824,3.97934
-0.642039,0.0817402,-0.31432,-0.0598793,0.0695265,-0.0262494,3.97934
-0.575182,0.298354,-0.197513,-0.057549,0.076279,-0.00524086,3.97934
-0.278867,0.461014,0.160246,-0.0397786,0.0459838,0.0414848,3.97934
-0.0762744,0.340476,0.477701,-0.00754483,0.0231529,0.0821409,3.97934
-0.0382198,0.0292739,0.631132,0.0263842,-0.0160468,0.116202,3.97934
-0.138465,-0.250592,0.652646,0.0549523,-0.0492667,0.146167,3.97934
-0.386798,-0.485024,0.619862,0.0789836,-0.0605053,0.151711,3.97934
-0.629711,-0.572994,0.626542,0.0915272,-0.0615168,0.151127,3.97934
-0.74957,-0.59339,0.663599,0.0969799,-0.0382462,0.109404,3.97934
-0.725396,-0.635135,0.722724,0.119407,-0.0353415,0.0738777,3.97934
-0.587322,-0.679515,0.797004,0.129888,-0.0312843,0.058471,3.97934
-0.44402,-0.780818,0.862677,0.145797,-0.0387638,0.0698829,3.97934
-0.366397,-0.906843,0.926389,0.156664,-0.0543609,0.0902969,3.97934
-0.420028,-0.883388,0.948674,0.14999,-0.0482702,0.105759,3.97934
-0.420028,-0.883388,0.948674,0.14999,-0.0482702,0.105759,4.18015
-0.594388,-0.691528,0.972221,0.14379,-0.057596,0.100821,4.18015
-0.661208,-0.420828,1.00042,0.127461,-0.0563879,0.0711083,4.18015
-0.588872,-0.199894,0.999234,0.108527,-0.0552612,0.0248317,4.18015
-0.485768,-0.110956,0.952144,0.0938828,-0.0574583,-0.0113822,4.18015
-0.354612,-0.112224,0.849028,0.0769306,-0.0590244,-0.0484602,4.18015
-0.188238,-0.0720688,0.72675,0.0677719,-0.0510156,-0.050752,4.18015
-0.0944349,-0.00206859,0.702846,0.06428,-0.0562509,-0.0354046,4.18015
-0.0653062,0.114147,0.737607,0.0567228,-0.0550099,-0.00511789,4.18015
-0.0550539,0.236771,0.787651,0.0493312,-0.07155,0.0294389,4.18015
-0.0211798,0.34313,0.815862,0.0490758,-0.0870926,0.0531605,4.18015
0.0268192,0.399166,0.840932,0.0492505,-0.0985472,0.0698156,4.18015
0.0343671,0.356818,0.88931,0.0617352,-0.123297,0.0585026,4.18015
-0.0715849,0.274367,0.887172,0.085786,-0.14353,0.0204422,4.18015
-0.336288,0.171323,0.888427,0.101928,-0.147122,-0.0670003,4.18015
-0.487493,0.037112,0.974407,0.124311,-0.134564,-0.193519,4.18015
-0.312836,0.0956144,1.20214,0.11763,-0.105566,-0.279805,4.18015
-0.0205488,0.251419,1.46371,0.0892473,-0.0746253,-0.318927,4.18015
0.14167,0.332964,1.61159,0.101439,-0.0752416,-0.329495,4.18015
0.0592412,0.341778,1.64869,0.091024,-0.0738915,-0.304439,4.18015
-0.221555,0.197285,1.50512,0.0647885,-0.00899992,-0.324701,4.18015
-0.474205,0.0172291,1.27077,0.0408623,0.0685404,-0.387503,4.18015
-0.26459,-0.0120589,1.17781,0.0337295,0.15696,-0.42668,4.18015
0.310049,0.20191,1.31998,0.0461714,0.215873,-0.377592,4.18015
0.756871,0.515351,1.64924,0.036991,0.221329,-0.223776,4.18015
0.757449,0.646657,1.8103,0.0490291,0.182327,-0.0993466,4.18015
0.54441,0.538297,1.69388,0.0612869,0.145812,-0.0226805,4.18015
0.298893,0.347491,1.4178,0.0692935,0.122351,0.0184504,4.18015
0.179557,0.282377,1.16625,0.0833481,0.12252,0.0415925,4.18015
0.212704,0.362387,1.08341,0.10159,0.12828,0.0579635,4.18015
0.225068,0.511955,1.1223,0.134238,0.127531,0.074176,4.18015
0.162857,0.684752,1.23175,0.166692,0.110824,0.103828,4.18015
0.070255,0.811297,1.33573,0.182759,0.0848972,0.131806,4.18015
-0.00284411,0.77874,1.34411,0.186039,0.070964,0.150817,4.18015
-0.0736711,0.613756,1.25809,0.181788,0.0542297,0.181839,4.18015
-0.201722,0.32867,1.11873,0.177115,0.0406836,0.204326,4.18015
-0.267287,0.0239366,1.0071,0.175914,0.0426584,0.183061,4.18015
-0.0857598,-0.187715,1.00347,0.151548,0.0700389,0.138252,4.18015
0.150854,-0.226792,1.04073,0.123131,0.0910531,0.104038,4.18015
0.238186,-0.232403,1.03537,0.101797,0.0977842,0.0761495,4.18015
0.264949,-0.194687,0.972318,0.0793645,0.0817365,0.0779467,4.18015
0.277658,-0.133776,0.885802,0.0434555,0.0713918,0.0936716,4.18015
0.257693,0.00482629,0.796487,0.00126197,0.0809472,0.0994054,4.18015
0.23438,0.203441,0.720586,-0.0333309,0.0894128,0.114599,4.18015
0.154097,0.300567,0.631295,-0.0587834,0.0819255,0.122458,4.18015
0.0460263,0.26367,0.457683,-0.0648099,0.0773094,0.113928,4.18015
-0.0240295,0.132365,0.2588,-0.0576093,0.0668247,0.0789576,4.18015
-0.0166309,0.097819,0.0963036,-0.0450598,0.0616598,0.00343442,4.18015
-0.0230322,0.472,0.00405391,-0.0654213,0.0573404,0.025952,4.18015
-0.0230322,0.472,0.00405391,-0.0654213,0.0573404,0.025952,4.35718
-0.0915598,0.868266,-0.0307949,-0.0910295,0.0678244,0.0216988,4.35718
-0.171742,0.804941,0.00609984,-0.0486486,0.021707,-0.0149861,4.35718
-0.253774,0.442899,0.0743036,0.0182385,-0.024749,-0.0321091,4.35718
-0.233633,-0.0468881,0.0952144,0.0677723,-0.0415339,-0.146666,4.35718
-0.159555,0.107612,0.0282579,0.0195921,-0.0391626,-0.128841,4.35718
-0.12221,0.421162,-0.151646,-0.0224844,-0.0094206,-0.18131,4.35718
-0.049845,0.269298,-0.272289,-0.0135365,0.0162431,-0.263484,4.35718
-0.0126304,-0.32381,-0.270692,0.0213778,0.000102237,-0.300489,4.35718
-0.158991,-0.575464,-0.294082,0.0132964,-0.0196154,-0.242109,4.35718
-0.529813,-0.634052,-0.376974,0.00521505,0.013625,-0.286703,4.35718
-0.79866,-0.528776,-0.397089,-0.0279685,0.072643,-0.303595,4.35718
-0.657018,-0.364552,-0.352968,-0.0660523,0.113555,-0.350129,4.35718
0.0290238,-0.0548996,-0.259913,-0.0922974,0.142455,-0.240694,4.35718
0.68703,-0.0792251,-0.171853,-0.0611549,0.125556,-0.151663,4.35718
0.89143,-0.406686,-0.154857,-0.0398581,0.0936041,-0.0925128,4.35718
0.744911,-0.525459,-0.158156,-0.0707903,0.074569,0.0155889,4.35718
0.519595,-0.385885,-0.129997,-0.101381,0.0541759,0.087167,4.35718
0.407336,-0.0847252,-0.0748887,-0.12715,0.0588317,0.136189,4.35718
0.427168,0.266866,-0.0558611,-0.115856,0.0599584,0.186883,4.35718
0.368742,0.0101408,-0.116265,-0.0679844,0.048227,0.120641,4.35718
0.420484,-0.000297171,-0.20613,-0.0491322,0.0457349,0.270329,4.35718
0.426326,-0.240244,-0.266043,-0.0426004,0.0405415,0.213174,4.35718
0.375632,-0.171861,-0.248471,-0.0474323,0.0282008,0.288859,4.35718
0.210246,-0.126167,-0.17233,-0.0550537,0.0131845,0.291952,4.35718
0.0488523,-0.13428,-0.14586,-0.0662015,0.00857189,0.269901,4.35718
0.0203528,-0.145234,-0.218947,-0.0561383,0.0203745,0.255145,4.35718
0.0540937,-0.232991,-0.287003,-0.0598165,0.0192693,0.226979,4.35718
0.0939409,-0.315824,-0.319377,-0.0648845,0.00405738,0.2085,4.35718
0.0900544,-0.31485,-0.35415,-0.0641311,-0.0107097,0.21134,4.35718
-0.00103634,-0.247927,-0.401576,-0.0560413,-0.0358557,0.190344,4.35718
-0.175169,-0.205225,-0.459126,-0.0455989,-0.0526933,0.159473,4.35718
-0.34764,-0.214608,-0.486678,-0.0361479,-0.0666331,0.110885,4.35718
-0.421708,-0.276181,-0.493616,-0.0242487,-0.0706315,0.0351921,4.35718
-0.368542,-0.280335,-0.474287,-0.0188257,-0.0693747,-0.0107198,4.35718
-0.347113,-0.291418,-0.430675,-0.017275,-0.0755206,-0.0707043,4.35718
-0.387052,-0.251945,-0.364705,-0.00965339,-0.0909008,-0.122663,4.35718
-0.40304,-0.0792554,-0.276725,-0.00876414,-0.104019,-0.149922,4.35718
-0.382627,0.0979372,-0.189949,0.00993229,-0.107659,-0.191896,4.35718
-0.288778,0.200535,-0.0654821,0.0254477,-0.111179,-0.205218,4.35718
-0.225755,0.163981,0.0135218,0.0399146,-0.110025,-0.208672,4.35718
-0.288998,0.00672773,0.00589815,0.0463675,-0.0967801,-0.212383,4.35718
-0.408513,-0.10377,-0.0561991,0.0498156,-0.0623561,-0.208525,4.35718
-0.449066,-0.0916856,-0.0336777,0.0548751,-0.0195179,-0.204286,4.35718
-0.311122,0.0182583,0.112518,0.0711267,0.00802174,-0.171667,4.35718
-0.0811569,-0.00152413,0.307398,0.109339,0.0232989,-0.128379,4.35718
0.0863954,-0.234202,0.477668,0.114308,0.00760183,-0.0632254,4.35718
-0.00684127,-0.347054,0.466692,0.127904,-0.012124,0.0020262,4.35718
-0.199597,-0.257362,0.340333,0.174979,-0.00749846,0.0499093,4.35718
-0.199597,-0.257362,0.340333,0.174979,-0.00749846,0.0499093,4.4893
-0.231813,-0.10144,0.355603,0.157141,0.0308889,0.0750088,4.4893
-0.109885,-0.0340578,0.560219,0.123252,0.0344135,0.0574725,4.4893
0.0163599,0.0303361,0.746691,0.121773,0.0164983,0.0715575,4.4893
0.0684038,0.0950902,0.794489,0.0924178,0.00271714,0.079623,4.4893
0.0555127,0.213699,0.718469,0.0781982,-0.0127417,0.112031,4.4893
-0.0088681,0.293357,0.583852,0.07061,-0.0084479,0.119142,4.4893
-0.0555194,0.309376,0.503607,0.0715269,-0.00250416,0.123916,4.4893
-0.0541391,0.283253,0.49123,0.0665624,0.0077396,0.116082,4.4893
0.0477681,0.234944,0.50652,0.0426945,0.0155572,0.0957957,4.4893
0.199214,0.243727,0.494648,0.0323742,0.00326371,0.109214,4.4893
0.262046,0.185235,0.427632,0.0342047,0.00278753,0.103796,4.4893
0.308732,0.160781,0.388168,0.01656,-0.00213774,0.0764118,4.4893
0.339143,0.277978,0.328225,0.0078932,0.000374526,0.078774,4.4893
0.241108,0.402658,0.253079,0.00742025,0.00218216,0.0707132,4.4893
0.0692163,0.53005,0.204258,0.000451975,-0.0122753,0.0654055,4.4893
-0.130112,0.587634,0.154988,0.00264924,-0.0068408,0.0346684,4.4893
-0.222067,0.530999,0.140149,0.00432433,0.00242189,-0.0210522,4.4893
-0.153652,0.434301,0.150127,0.0125542,0.00114626,-0.0571162,4.4893
-0.0654018,0.320025,0.124597,0.00673294,0.0235269,-0.0983284,4.4893
-0.0123178,0.232689,0.0952415,-0.0197939,0.0515174,-0.12406,4.4893
-0.0488383,0.200131,0.0498194,-0.0373961,0.0802541,-0.137415,4.4893
-0.199481,0.143455,0.00737235,-0.0214772,0.0814908,-0.16933,4.4893
-0.297585,0.0979157,0.0046293,-0.00140975,0.0602145,-0.171925,4.4893
-0.383388,0.0621615,-0.0448207,-0.00134923,0.0603385,-0.153544,4.4893
-0.615189,0.0159791,-0.18537,0.0103547,0.0462326,-0.137276,4.4893
-0.964126,-0.0683406,-0.347905,0.0114,0.0276036,-0.158395,4.4893
-1.11453,-0.160006,-0.430111,-0.00351447,0.0378522,-0.181752,4.4893
-0.794264,-0.137561,-0.360592,-0.0226342,0.0519043,-0.170628,4.4893
-0.205782,-0.158156,-0.222606,-0.0305884,0.062282,-0.140075,4.4893
0.257464,-0.298688,-0.156819,-0.0362723,0.0603445,-0.104223,4.4893
0.391335,-0.431952,-0.146608,-0.0643979,0.0422171,-0.0720118,4.4893
0.296683,-0.334864,-0.177622,-0.084046,0.0285785,-0.022935,4.4893
0.150709,0.00820535,-0.20306,-0.0863085,0.0165327,0.0390736,4.4893
0.0974799,0.311575,-0.165242,-0.0838042,0.0111701,0.0716668,4.4893
0.180772,0.476164,-0.0635919,-0.0710927,0.0178227,0.109781,4.4893
0.271726,0.441047,0.0472592,-0.0415099,-0.00710599,0.136292,4.4893
0.303939,0.256867,0.135684,-0.0265752,-0.031864,0.166693,4.4893
0.271401,0.0366277,0.114121,-0.0319654,-0.026325,0.17865,4.4893
0.196413,-0.111245,-0.0159244,-0.045472,-0.0194451,0.198764,4.4893
0.0578724,-0.194465,-0.186677,-0.0526734,-0.0108157,0.187863,4.4893
-0.0656454,-0.0924163,-0.328642,-0.0632728,-0.00176927,0.1895,4.4893
-0.174763,0.101571,-0.422846,-0.056466,0.00188993,0.17679,4.4893
-0.169179,0.235861,-0.408702,-0.0407423,-0.00256469,0.146847,4.4893
0.0466287,0.255414,-0.301891,-0.0416765,0.00384584,0.127185,4.4893
0.358288,0.138344,-0.208216,-0.0475349,0.000279225,0.137174,4.4893
0.507096,-0.105957,-0.237823,-0.0557895,-0.0151911,0.148986,4.4893
0.444108,-0.246757,-0.372279,-0.0713431,-0.0412413,0.18569,4.4893
0.245985,-0.167247,-0.549513,-0.0892157,-0.0616269,0.214491,4.4893
0.245985,-0.167247,-0.549513,-0.0892157,-0.0616269,0.214491,4.66898
0.0216594,0.0166075,-0.704375,-0.089597,-0.0810546,0.201062,4.66898
-0.114614,0.136576,-0.784491,-0.0669465,-0.0918608,0.160896,4.66898
-0.204738,0.0308286,-0.800447,-0.0362257,-0.0920614,0.0686351,4.66898
-0.197085,-0.1807,-0.753522,0.0160475,-0.0953309,-0.0357162,4.66898
-0.0813269,-0.362963,-0.629012,0.0501985,-0.0849022,-0.115448,4.66898
0.0841602,-0.448715,-0.447152,0.0638662,-0.0679794,-0.17128,4.66898
0.192117,-0.39002,-0.24222,0.0749399,-0.0722816,-0.183288,4.66898
0.200202,-0.279527,0.0145835,0.0769074,-0.100299,-0.192729,4.66898
0.0961502,-0.191824,0.261399,0.0567954,-0.118518,-0.212205,4.66898
-0.100474,-0.191187,0.389533,0.0424895,-0.110662,-0.25261,4.66898
-0.29585,-0.173821,0.301828,0.0302804,-0.0653269,-0.284817,4.66898
-0.425968,-0.0927457,0.105761,0.0210225,-0.0107779,-0.32921,4.66898
-0.278398,0.142225,0.0239132,0.0385092,0.0150676,-0.325669,4.66898
0.0215223,0.332225,0.135031,0.0766539,0.0316426,-0.271225,4.66898
0.225558,0.289792,0.380663,0.115002,0.0149208,-0.192537,4.66898
0.212163,0.156775,0.561876,0.142017,-0.0113433,-0.108315,4.66898
0.0261119,0.199639,0.551852,0.138941,-0.027456,-0.0101061,4.66898
-0.227865,0.283579,0.423661,0.133481,-0.0492057,0.0588217,4.66898
-0.46594,0.32473,0.409984,0.147413,-0.077271,0.114873,4.66898
-0.670949,0.407978,0.525393,0.150719,-0.108384,0.147885,4.66898
-0.755845,0.618731,0.65094,0.15804,-0.133323,0.164052,4.66898
-0.828899,0.647917,0.680901,0.164591,-0.132899,0.133818,4.66898
-0.877548,0.50709,0.678644,0.139646,-0.127505,0.092906,4.66898
-0.65122,0.397455,0.623837,0.12276,-0.111718,-0.0381529,4.66898
0.0930079,0.470564,0.580108,0.0778355,-0.0451984,-0.123969,4.66898
0.843272,0.572378,0.60147,0.0493889,0.0166625,-0.137716,4.66898
1.18286,0.645755,0.666726,0.0355354,0.00241917,-0.0892836,4.66898
1.21503,0.665428,0.682555,0.0235726,0.00880203,0.00354272,4.66898
1.13725,0.630887,0.606443,0.00667799,0.0188017,0.0732077,4.66898
1.11105,0.634131,0.450625,-0.0129921,0.0329453,0.128571,4.66898
1.09883,0.633376,0.324427,-0.0296828,0.0735327,0.177964,4.66898
1.02173,0.570003,0.293558,-0.0318764,0.102334,0.220655,4.66898
0.925627,0.444303,0.317359,-0.0148498,0.122583,0.239543,4.66898
0.799607,0.332323,0.338854,-0.00673823,0.14191,0.263732,4.66898
0.556027,0.28863,0.337661,-0.00303674,0.153791,0.284098,4.66898
0.245719,0.25078,0.368924,-0.00165561,0.160184,0.284769,4.66898
0.0149791,0.179765,0.460126,0.00193982,0.162105,0.237598,4.66898
-0.0920319,0.0462727,0.552896,-0.00520071,0.164522,0.20008,4.66898
-0.11804,-0.265854,0.627716,0.00477633,0.167272,0.0812945,4.66898
-0.0876901,-0.531349,0.676309,-0.00474733,0.165229,0.00226718,4.66898
-0.176665,-0.611169,0.604861,-0.0230035,0.166221,-0.0714258,4.66898
-0.351736,-0.421893,0.492659,-0.0225988,0.14648,-0.132175,4.66898
-0.625724,-0.192574,0.399368,-0.0309828,0.138436,-0.152918,4.66898
-1.00688,-0.19724,0.348303,-0.0457988,0.100475,-0.188538,4.66898
-1.4515,-0.327967,0.170081,-0.07099,0.0981975,-0.217745,4.66898
-1.77362,-0.401661,-0.207734,-0.114197,0.14059,-0.262804,4.66898
-1.63448,-0.337966,-0.557536,-0.126696,0.173334,-0.312698,4.66898
-1.04212,-0.14643,-0.637048,-0.0858775,0.155567,-0.319622,4.66898
-1.04212,-0.14643,-0.637048,-0.0858775,0.155567,-0.319622,4.85922
-0.432203,-0.0554358,-0.429124,-0.0625351,0.121545,-0.261821,4.85922
-0.12036,-0.140113,-0.203119,-0.0534304,0.0851757,-0.16987,4.85922
-0.0600856,-0.186586,-0.104948,-0.0666261,0.0440188,-0.060605,4.85922
-0.143333,-0.183702,-0.104109,-0.0899822,0.00603532,0.0235558,4.85922
-0.187072,-0.134625,-0.157895,-0.100777,-0.0284822,0.0854208,4.85922
-0.182669,-0.0941156,-0.234389,-0.0991878,-0.0538914,0.139906,4.85922
-0.150229,-0.0752379,-0.280968,-0.0806905,-0.0819626,0.189831,4.85922
-0.114387,-0.127576,-0.262733,-0.0602343,-0.100738,0.228202,4.85922
-0.138622,-0.265735,-0.207335,-0.0431928,-0.114197,0.240164,4.85922
-0.186637,-0.364844,-0.161166,-0.0420832,-0.113685,0.245612,4.85922
-0.178834,-0.375447,-0.166119,-0.0464813,-0.105769,0.22993,4.85922
-0.108365,-0.339939,-0.202003,-0.0377952,-0.0922883,0.199949,4.85922
0.0522781,-0.304509,-0.223875,-0.0385142,-0.0677303,0.151912,4.85922
0.162424,-0.319116,-0.27531,-0.0280879,-0.0477619,0.12669,4.85922
0.203673,-0.398611,-0.314197,0.00856041,-0.0373805,0.0875835,4.85922
0.151435,-0.444482,-0.320526,0.0113361,-0.0250099,0.0683186,4.85922
0.114651,-0.39893,-0.333414,0.0147406,-0.0115499,0.0218413,4.85922
0.157524,-0.268116,-0.33642,0.00499064,-0.0105414,0.000772893,4.85922
0.127206,-0.155234,-0.354802,-0.0042011,-0.00619499,-0.0141652,4.85922
0.182363,-0.0221837,-0.34491,-0.0052011,-0.016428,-0.00730807,4.85922
0.170805,-0.00349248,-0.302306,0.01491,-0.043858,-0.0098114,4.85922
0.188934,0.0197672,-0.19915,0.0210041,-0.0696379,-0.0246497,4.85922
0.0934556,-0.0629414,-0.0962915,0.0417046,-0.113793,-0.0498285,4.85922
-0.106294,-0.326579,-0.0375801,0.0683047,-0.1334,-0.145383,4.85922
-0.0736536,-0.548145,0.098384,0.0774664,-0.115678,-0.264146,4.85922
0.236706,-0.48849,0.363419,0.0780442,-0.11502,-0.312348,4.85922
0.517413,-0.240872,0.773039,0.0989245,-0.140119,-0.303926,4.85922
0.465618,0.0197164,1.12065,0.0982667,-0.156553,-0.26865,4.85922
0.173408,0.250124,1.24971,0.0845132,-0.149156,-0.223135,4.85922
-0.0919678,0.329663,1.1242,0.0434419,-0.0841309,-0.216506,4.85922
-0.0487129,0.37209,0.954079,0.0490431,-0.0307851,-0.209834,4.85922
0.151004,0.503796,0.967638,0.0740573,-0.00767432,-0.15713,4.85922
0.296515,0.715556,1.1387,0.090844,0.0163451,-0.085431,4.85922
0.290627,0.891142,1.31728,0.0933726,0.0144696,-0.0154229,4.85922
0.158352,0.976055,1.31768,0.0707774,0.0218724,0.0296756,4.85922
0.0558293,0.929638,1.14968,0.0541109,0.0090605,0.0659561,4.85922
0.00406899,0.813692,0.950831,0.0483272,0.00330204,0.0848223,4.85922
0.0286488,0.673351,0.82206,0.0397689,0.0123612,0.0958524,4.85922
-0.00527579,0.525516,0.740453,0.0411337,0.0109353,0.114614,4.85922
-0.0885722,0.459267,0.674289,0.0417951,0.0134343,0.128551,4.85922
-0.117019,0.482387,0.646313,0.0278117,0.0289382,0.135671,4.85922
-0.0994316,0.51253,0.623363,0.0180876,0.0289955,0.149015,4.85922
-0.111385,0.566551,0.577857,0.00378753,0.0249767,0.183585,4.85922
-0.210475,0.628953,0.503249,-0.00714481,0.0256107,0.215373,4.85922
-0.20957,0.644383,0.441504,-0.0207864,0.0207908,0.218037,4.85922
-0.200077,0.563097,0.370387,-0.0335699,0.0420486,0.207066,4.85922
-0.0413554,0.382317,0.346347,-0.0278283,0.0434667,0.174876,4.85922
0.15493,0.272499,0.327783,-0.0266856,0.0387262,0.181044,4.85922
0.15493,0.272499,0.327783,-0.0266856,0.0387262,0.181044,5.04155
0.180214,0.28681,0.319912,-0.0306958,0.0415551,0.211111,5.04155
0.0592875,0.376646,0.338678,-0.0332457,0.0181961,0.235035,5.04155
-0.152351,0.455903,0.279083,-0.0307035,-0.000285223,0.232303,5.04155
-0.301055,0.394183,0.169984,-0.00869694,-0.0184127,0.167128,5.04155
-0.30942,0.195529,0.0868538,0.00797072,-0.0191537,0.095427,5.04155
-0.313481,-0.0945391,0.014449,0.0246346,-0.021659,0.0171968,5.04155
-0.17277,-0.301329,0.00903068,0.05699,-0.00784853,-0.0960163,5.04155
-0.00421978,-0.315941,0.122601,0.0650377,-0.00450122,-0.144919,5.04155
-0.113222,-0.245927,0.254456,0.067053,-0.0221946,-0.185482,5.04155
-0.34501,-0.0710386,0.281574,0.0476919,-0.0227658,-0.238722,5.04155
-0.563805,0.232747,0.181605,0.00989185,-0.00127505,-0.302068,5.04155
-0.691147,0.672593,0.0138844,-0.0330868,0.0145615,-0.327451,5.04155
-0.586278,1.03492,-0.280482,-0.0465242,0.0374158,-0.33738,5.04155
-0.410183,1.14337,-0.653486,-0.01235,0.0325745,-0.288587,5.04155
-0.456235,0.83488,-0.983708,0.0377143,-0.00625408,-0.239112,5.04155
-0.590289,0.211809,-1.22607,0.0782866,-0.0378631,-0.204653,5.04155
-0.68692,-0.448554,-1.26639,0.0952545,-0.0308008,-0.201443,5.04155
-0.473468,-0.904907,-1.00882,0.0827644,0.0038258,-0.201754,5.04155
0.119098,-1.07611,-0.540694,0.041045,0.041536,-0.178189,5.04155
0.650366,-1.05316,-0.123287,-0.00167772,0.0805407,-0.148544,5.04155
0.711352,-0.934442,0.128188,-0.0541171,0.0877844,-0.103935,5.04155
0.468543,-0.715232,0.181057,-0.107576,0.0951419,-0.0837135,5.04155
0.386804,-0.355412,0.156433,-0.127856,0.0787318,-0.0624964,5.04155
0.564194,-0.0040196,0.133563,-0.13914,0.0743884,-0.0329901,5.04155
0.824986,0.187999,0.0960481,-0.136698,0.088443,0.0176409,5.04155
0.886773,0.262244,0.0482056,-0.135332,0.0886497,0.107696,5.04155
0.793121,0.22594,-0.0447166,-0.134539,0.0781906,0.192491,5.04155
0.611446,0.115281,-0.210128,-0.135965,0.0734299,0.256898,5.04155
0.484998,-0.0078696,-0.382171,-0.131025,0.0627998,0.296401,5.04155
0.398272,-0.138106,-0.549543,-0.116225,0.0472899,0.305935,5.04155
0.337624,-0.265895,-0.730242,-0.101941,0.0381289,0.291585,5.04155
0.293417,-0.36285,-0.910375,-0.0827357,0.028509,0.264775,5.04155
0.323396,-0.466724,-1.01515,-0.0500879,0.0423857,0.207589,5.04155
0.449593,-0.447753,-0.926342,-0.0531923,0.0644874,0.179948,5.04155
0.545597,-0.355985,-0.768829,-0.0551507,0.0831293,0.145614,5.04155
0.557325,-0.222792,-0.679835,-0.0507182,0.0910454,0.139486,5.04155
0.491885,-0.0863587,-0.644337,-0.0588426,0.0878191,0.152102,5.04155
0.353807,0.00345358,-0.640605,-0.0681481,0.0746205,0.169002,5.04155
0.189118,-0.000728015,-0.66629,-0.0552475,0.0510571,0.170625,5.04155
0.0355843,-0.0956088,-0.67445,-0.0432605,0.0320515,0.153666,5.04155
-0.0994917,-0.22147,-0.640906,-0.0327422,0.00379495,0.128867,5.04155
-0.216916,-0.313429,-0.598405,-0.0122894,-0.0203717,0.0916772,5.04155
-0.319819,-0.340849,-0.526431,0.0161864,-0.0608196,0.0619511,5.04155
-0.427158,-0.440395,-0.41463,0.0606211,-0.0924289,-0.0139894,5.04155
-0.451863,-0.60164,-0.241934,0.0949406,-0.137064,-0.0861608,5.04155
-0.399119,-0.773572,-0.126454,0.097147,-0.156629,-0.178706,5.04155
-0.198367,-0.743619,-0.137059,0.0991331,-0.171327,-0.271818,5.04155
0.000599027,-0.24267,-0.257219,0.110099,-0.183162,-0.327824,5.04155
0.000599027,-0.24267,-0.257219,0.110099,-0.183162,-0.327824,5.25557
-0.0967102,0.305234,-0.437112,0.164633,-0.199203,-0.387305,5.25557
-0.275321,0.457028,-0.569581,0.240061,-0.214817,-0.459497,5.25557
-0.257177,0.287038,-0.582775,0.32732,-0.180205,-0.513666,5.25557
-0.0791676,0.223442,-0.434428,0.321861,-0.105992,-0.480377,5.25557
0.218551,0.506594,-0.145624,0.26017,-0.0337368,-0.331933,5.25557
0.379859,0.661378,0.247517,0.226792,-0.0243178,-0.226464,5.25557
0.548257,1.13967,0.662427,0.171452,-0.0394323,0.0692697,5.25557
0.523283,0.836756,0.90699,0.12597,-0.0603628,0.0201336,5.25557
0.446296,0.306688,0.989236,0.0943642,-0.0904309,0.0642298,5.25557
0.457538,-0.10205,0.927663,0.0282911,-0.050089,0.0974537,5.25557
0.584955,-0.239355,0.796385,-0.0670873,-0.0110162,0.16007,5.25557
0.657422,-0.266025,0.598656,-0.146635,0.0270134,0.1727,5.25557
0.750771,0.0695817,0.390884,-0.209353,0.00870384,0.268281,5.25557
0.555819,0.335988,0.113121,-0.248823,0.0144604,0.352506,5.25557
0.0684334,0.143197,-0.220495,-0.235468,0.0691117,0.308366,5.25557
-0.135988,-0.0159016,-0.467272,-0.151918,0.0901121,0.335593,5.25557
-0.00345035,-0.352426,-0.594777,-0.090288,0.130909,0.302221,5.25557
0.239449,-0.663558,-0.57244,-0.0790048,0.168457,0.329239,5.25557
0.423051,-0.869724,-0.494657,-0.0485899,0.175325,0.294628,5.25557
0.253308,-0.949055,-0.356721,-0.00192277,0.138258,0.182036,5.25557
-0.324759,-0.874247,-0.123736,0.000987679,0.0842742,0.0737794,5.25557
-0.556132,-0.293991,0.161471,-0.0113706,0.0719234,0.152947,5.25557
-0.558289,0.139595,0.240982,-0.00479253,0.0740249,0.0689948,5.25557
-0.532842,0.388322,0.133364,0.0194693,0.0503754,0.0342993,5.25557
-0.481147,0.493656,0.0980538,0.0384065,-0.00243318,0.0201007,5.25557
-0.451201,0.521735,0.120025,0.0581794,-0.0340602,0.00536054,5.25557
-0.446162,0.334083,0.195896,0.0559073,-0.0567351,-0.0413663,5.25557
-0.318325,0.0902164,0.321994,0.0410188,-0.0858947,-0.0691555,5.25557
-0.0117853,-0.0055617,0.363239,0.0525193,-0.0793978,-0.0603307,5.25557
0.266468,-0.0477079,0.367322,0.054704,-0.0634331,-0.0630118,5.25557
0.339374,-0.0785672,0.429652,0.0328223,-0.0789713,-0.0599759,5.25557
0.210838,-0.162064,0.500823,0.0118395,-0.0971467,-0.0739847,5.25557
0.0553328,-0.234336,0.498772,0.0180532,-0.0806801,-0.12917,5.25557
-0.0221778,-0.249292,0.454246,0.0314149,-0.073696,-0.193726,5.25557
0.0882883,-0.149328,0.438993,0.0422472,-0.0668691,-0.253739,5.25557
0.163624,-0.17043,0.368248,0.0411475,-0.0456544,-0.295565,5.25557
0.079623,-0.473393,0.2216,0.0395397,-0.0300947,-0.328668,5.25557
-0.145779,-0.895424,0.017903,0.0215366,0.00556098,-0.352643,5.25557
-0.401579,-1.01328,-0.10743,-0.0227626,0.0456651,-0.353098,5.25557
-0.427896,-0.712504,-0.0913078,-0.0852566,0.105853,-0.3368,5.25557
-0.0260783,-0.193312,0.0602386,-0.126569,0.137867,-0.279216,5.25557
0.514491,0.195551,0.186029,-0.128576,0.137322,-0.18354,5.25557
0.746029,0.138671,0.126426,-0.102005,0.127759,-0.0958176,5.25557
0.685991,-0.14209,-0.00131053,-0.0867095,0.0891863,-0.018442,5.25557
0.542409,-0.266306,-0.136499,-0.0838149,0.0830298,0.0529047,5.25557
0.41908,-0.197624,-0.213113,-0.110635,0.0935925,0.109492,5.25557
0.36987,0.0196112,-0.265292,-0.145421,0.102253,0.158801,5.25557
0.36987,0.0196112,-0.265292,-0.145421,0.102253,0.158801,5.48282
0.412118,0.196177,-0.360036,-0.148315,0.116253,0.194286,5.48282
0.529104,0.20177,-0.465607,-0.134697,0.116295,0.245777,5.48282
0.702973,-0.0696891,-0.570649,-0.116225,0.120119,0.289421,5.48282
0.882047,-0.431852,-0.719111,-0.0985318,0.12813,0.340628,5.48282
0.820542,-0.651564,-0.899253,-0.0726523,0.141153,0.386645,5.48282
0.464838,-0.549206,-0.92353,-0.0535328,0.120648,0.408675,5.48282
-0.0994004,-0.190764,-0.735947,-0.0469306,0.0863291,0.399258,5.48282
-0.550431,0.132268,-0.458333,-0.0206061,0.0346394,0.334746,5.48282
-0.705484,0.161268,-0.270074,-0.00585644,0.0139031,0.245493,5.48282
-0.595871,0.00105936,-0.22342,-0.0338804,-0.0063796,0.160848,5.48282
-0.317403,-0.138076,-0.303897,-0.0541691,-0.0250825,0.109761,5.48282
-0.0453207,-0.182233,-0.49439,-0.0512497,-0.0406074,0.0868496,5.48282
0.068309,-0.159822,-0.665406,-0.025769,-0.0587424,0.081866,5.48282
-0.00149914,-0.0789127,-0.657245,-0.0090211,-0.0856,0.0927615,5.48282
-0.135154,-0.0414091,-0.518689,0.00800735,-0.100902,0.0822284,5.48282
-0.203759,-0.023624,-0.380389,0.0209434,-0.109525,0.0755457,5.48282
-0.199178,-0.0327097,-0.280856,0.0160995,-0.121654,0.0663988,5.48282
-0.15873,-0.073059,-0.227121,0.0114698,-0.122116,0.0545893,5.48282
-0.0929511,-0.0487127,-0.196277,0.0120366,-0.123089,0.0649333,5.48282
-0.0135178,-0.0325379,-0.14878,0.0269763,-0.13768,0.0733774,5.48282
0.0384585,-0.15826,-0.0483058,0.0266968,-0.158006,0.0672646,5.48282
0.0293284,-0.327068,0.0652825,0.0198602,-0.183663,0.0581678,5.48282
0.0181768,-0.80405,0.123795,0.00736266,-0.198087,-0.0282027,5.48282
0.0650108,-1.17697,0.00822647,0.0148188,-0.165534,-0.100865,5.48282
0.151887,-0.938333,-0.245666,0.0075875,-0.119211,-0.13356,5.48282
0.183311,-0.080606,-0.347873,-0.0123549,-0.115027,-0.0994492,5.48282
-0.0173835,0.64265,-0.212724,-0.0279658,-0.114175,-0.132458,5.48282
-0.25175,0.95109,0.00778797,0.00471934,-0.108145,-0.133296,5.48282
-0.260729,0.401189,0.00668876,0.103223,-0.0963188,-0.206569,5.48282
-0.0434803,-0.0913574,0.0278419,0.0982876,-0.121214,-0.147586,5.48282
0.158592,-0.391019,0.0539797,0.0677123,-0.0699147,-0.0892801,5.48282
0.263106,-0.444874,0.130541,0.112026,-0.0671887,-0.0651144,5.48282
0.37887,-0.185838,0.11776,0.174494,-0.0326673,-0.0356242,5.48282
0.315766,0.0384279,0.235316,0.127068,-0.0339337,0.0149115,5.48282
