rotationRate_x,rotationRate_y,rotationRate_z,acceleration_x,acceleration_y,acceleration_z,relativeAltitude
-1.15358,0.547618,0.40066,-0.17479,-0.00445606,-0.49303,0
-1.04801,0.786097,0.236515,-0.221391,-0.0578211,-0.452745,0
-0.78269,1.03349,0.0965275,-0.254299,-0.0971849,-0.396552,0
-0.399981,1.1735,-0.0125823,-0.30431,-0.111019,-0.296811,0
-0.0189009,1.07603,-0.0900946,-0.36703,-0.107188,-0.173106,0
0.327103,0.748661,-0.191745,-0.440087,-0.0993038,-0.0579618,0
0.604371,0.355473,-0.33542,-0.509304,-0.0810726,0.0215554,0
0.699175,-0.00869165,-0.581235,-0.590979,-0.0589305,0.0896893,0
0.672302,-0.177251,-0.959625,-0.669122,-0.0323902,0.119527,0
0.619487,-0.159075,-1.45738,-0.692607,-0.00881983,0.146846,0
0.572609,-0.0473312,-1.90746,-0.627059,0.0517959,0.197038,0
0.535336,0.150078,-2.14371,-0.502366,0.124142,0.265539,0
0.539294,0.242818,-2.17121,-0.395998,0.181337,0.343421,0
0.616194,0.14651,-2.09691,-0.320516,0.202814,0.414901,0
0.679769,-0.173305,-2.00177,-0.273919,0.204187,0.478815,0
0.685245,-0.591329,-1.95189,-0.241104,0.189864,0.502914,0
0.666469,-0.957199,-1.94969,-0.200947,0.175527,0.466696,0
0.642305,-1.2008,-1.93481,-0.150588,0.19407,0.402226,0
0.542633,-1.36586,-1.92211,-0.1011,0.202266,0.345201,0
0.392489,-1.55964,-1.92356,-0.0284248,0.187243,0.251321,0
0.241284,-1.44445,-1.94708,-0.0180787,0.198761,0.132702,0
0.00106282,-1.20141,-2.02323,0.0216231,0.179576,0.0618567,0
-0.359757,-1.03148,-2.0601,0.102969,0.144843,0.0104324,0
-0.359757,-1.03148,-2.0601,0.102969,0.144843,0.0104324,0.0977631
-0.874623,-0.496786,-1.98748,0.176539,0.120685,-0.239199,0.0977631
-0.867583,-0.18996,-1.84093,0.232752,0.0857141,-0.339381,0.0977631
-0.596656,0.0953191,-1.61256,0.284144,0.0503635,-0.416894,0.0977631
-0.253904,0.170101,-1.34728,0.31045,0.0228115,-0.399497,0.0977631
-0.0706941,0.108908,-1.08069,0.32273,-0.0301649,-0.315879,0.0977631
-0.12429,0.140707,-0.910934,0.294567,-0.0884813,-0.259468,0.0977631
-0.289993,0.278026,-0.78211,0.269585,-0.131467,-0.255614,0.0977631
-0.406991,0.437575,-0.697051,0.237175,-0.157183,-0.294135,0.0977631
-0.410175,0.464124,-0.62228,0.217675,-0.1795,-0.345691,0.0977631
-0.405243,0.328368,-0.579312,0.203525,-0.19588,-0.378292,0.0977631
-0.38738,0.306658,-0.492124,0.235237,-0.169515,-0.42294,0.0977631
-0.199908,0.511982,-0.242703,0.278965,-0.0952973,-0.458918,0.0977631
0.142034,0.868594,0.0949252,0.281227,-0.0308847,-0.405709,0.0977631
0.430448,1.15154,0.448378,0.241341,-0.00769082,-0.229755,0.0977631
0.613127,1.04515,0.752253,0.209988,-0.0197527,-0.0214931,0.0977631
0.771653,0.581976,1.01564,0.194058,-0.0191391,0.12222,0.0977631
0.881307,0.0899734,1.22373,0.155049,-0.00271604,0.188144,0.0977631
0.845269,-0.205397,1.28909,0.111079,-0.0143545,0.220775,0.0977631
0.709495,-0.235488,1.24433,0.0631334,-0.0103437,0.216443,0.0977631
0.567431,-0.154409,1.171,0.0517564,0.00653923,0.20323,0.0977631
0.471799,-0.120371,1.12742,0.0684244,0.0228865,0.198491,0.0977631
0.439054,-0.190539,1.1184,0.0878331,0.0495731,0.199478,0.0977631
0.461784,-0.268869,1.1279,0.107487,0.0585662,0.187984,0.0977631
0.505079,-0.2262,1.15704,0.122701,0.0756257,0.184354,0.0977631
0.518172,-0.141809,1.1914,0.12188,0.0944574,0.211633,0.0977631
0.475441,-0.114097,1.20977,0.115248,0.0957762,0.243471,0.0977631
0.405376,-0.118327,1.1705,0.0923881,0.0939966,0.246072,0.0977631
0.367698,-0.0603097,1.08765,0.0780442,0.0925096,0.218596,0.0977631
0.331523,0.0340008,1.02492,0.077897,0.114403,0.209951,0.0977631
0.213646,0.0573079,0.964521,0.0782894,0.1185,0.219744,0.0977631
0.0366222,0.0552446,0.883856,0.07564,0.0999856,0.199088,0.0977631
-0.134488,0.068436,0.793337,0.0590118,0.0952981,0.141914,0.0977631
-0.236522,0.0615454,0.697293,0.0283058,0.0905206,0.0608614,0.0977631
-0.321542,0.0925761,0.566819,0.00871281,0.0762426,0.000390947,0.0977631
-0.466646,0.101491,0.483739,0.0096062,0.0768522,-0.0387607,0.0977631
-0.647533,0.104977,0.392342,0.00310066,0.0632829,-0.0760061,0.0977631
-0.789803,0.0218853,0.27723,-0.00677443,0.027363,-0.142465,0.0977631
-0.876757,-0.144441,0.150281,-0.0139372,0.0249346,-0.221134,0.0977631
-0.93817,-0.34518,0.0835941,-0.00529703,0.0167172,-0.324874,0.0977631
-0.834803,-0.409133,0.059287,0.00758608,0.0177394,-0.455596,0.0977631
-0.568115,-0.231957,0.0912228,-0.00207655,0.0389873,-0.550936,0.0977631
-0.318526,0.10556,0.131044,-0.0532206,0.0520786,-0.533801,0.0977631
-0.248235,0.218439,0.037181,-0.103789,-0.0041374,-0.40001,0.0977631
-0.231875,0.198627,-0.177826,-0.141604,-0.0533738,-0.296093,0.0977631
-0.123675,0.27253,-0.342469,-0.174885,-0.025081,-0.249787,0.0977631
0.141124,0.324092,-0.371153,-0.178119,0.0317998,-0.195637,0.0977631
0.426942,0.467888,-0.383637,-0.185413,0.0592091,-0.092702,0.0977631
0.501898,0.51893,-0.415685,-0.2119,0.0783642,0.0597399,0.0977631
0.384481,0.431132,-0.502976,-0.241042,0.0809876,0.180874,0.0977631
0.24556,0.247607,-0.62809,-0.279135,0.0883596,0.227921,0.0977631
0.24556,0.247607,-0.62809,-0.279135,0.0883596,0.227921,0.195541
0.155587,0.0912155,-0.711258,-0.280652,0.0996033,0.2294,0.195541
0.196954,0.0600236,-0.717612,-0.259003,0.106325,0.20781,0.195541
0.304364,0.116285,-0.686712,-0.233282,0.106955,0.223796,0.195541
0.336365,0.137732,-0.648083,-0.215808,0.0881876,0.293547,0.195541
0.268462,0.00921293,-0.622553,-0.202089,0.0580815,0.365591,0.195541
0.193645,-0.211674,-0.636391,-0.187962,0.0208231,0.3937,0.195541
0.162352,-0.412629,-0.702857,-0.177725,-0.00965323,0.368308,0.195541
0.178628,-0.452362,-0.786783,-0.155881,-0.028131,0.314966,0.195541
0.200344,-0.380327,-0.827443,-0.110644,-0.0309577,0.277349,0.195541
0.222744,-0.329306,-0.835943,-0.055538,-0.0402745,0.269443,0.195541
0.141288,-0.504096,-0.818394,-0.00393185,-0.0374822,0.28383,0.195541
0.00488292,-0.682122,-0.756588,0.0438278,-0.0546284,0.23532,0.195541
-0.0307856,-0.781622,-0.689459,0.0682627,-0.0639206,0.107253,0.195541
0.0208305,-0.702641,-0.621857,0.0857852,-0.0846557,-0.0182087,0.195541
0.0469406,-0.504087,-0.530409,0.12034,-0.103203,-0.102402,0.195541
0.0327726,-0.336739,-0.377912,0.158475,-0.0991941,-0.139484,0.195541
-0.0380379,-0.278957,-0.187038,0.176331,-0.0882131,-0.169593,0.195541
-0.100088,-0.197486,-0.039415,0.147054,-0.112168,-0.236429,0.195541
-0.128854,-0.169437,-0.0489362,0.0914016,-0.143456,-0.300966,0.195541
-0.107033,-0.176425,-0.0913281,0.108909,-0.173787,-0.361996,0.195541
-0.0351774,0.0535166,-0.0868397,0.145775,-0.152209,-0.403826,0.195541
-0.0445904,0.428318,0.0448157,0.205795,-0.108092,-0.37269,0.195541
-0.213598,0.724148,0.233263,0.231755,-0.0769403,-0.286118,0.195541
-0.439495,0.753117,0.379645,0.205516,-0.0744624,-0.237339,0.195541
-0.45342,0.506683,0.419821,0.159466,-0.0818378,-0.281386,0.195541
-0.210085,0.188616,0.479905,0.159938,-0.0205096,-0.324632,0.195541
0.139976,0.071413,0.679013,0.199689,0.0537452,-0.30874,0.195541
0.465482,0.290946,0.935597,0.217799,0.107205,-0.229991,0.195541
0.620425,0.589037,1.18508,0.198215,0.133605,-0.0666473,0.195541
0.560438,0.741794,1.29806,0.120051,0.0990972,0.114399,0.195541
0.365029,0.682948,1.20863,0.0348943,0.0233267,0.233824,0.195541
0.19914,0.537003,0.986016,-0.0257125,-0.0248468,0.272948,0.195541
0.0956354,0.358393,0.697246,-0.0411797,-0.0466319,0.266169,0.195541
-0.00399009,0.175301,0.514877,0.011915,-0.0394546,0.248751,0.195541
-0.0813082,0.0325456,0.500562,0.0636512,-0.00163002,0.199006,0.195541
-0.0211376,-0.110848,0.590405,0.0789764,0.0419951,0.120303,0.195541
0.216409,-0.129955,0.684099,0.0623542,0.0611502,0.0655277,0.195541
0.462858,-0.0213936,0.735078,0.0252651,0.068445,0.102498,0.195541
0.55238,0.150395,0.718958,-0.0195943,0.0847476,0.223654,0.195541
0.443657,0.341373,0.627846,-0.0560544,0.0976076,0.355308,0.195541
0.218857,0.422648,0.495274,-0.0641287,0.0850839,0.444646,0.195541
0.0693567,0.318233,0.375727,-0.0469439,0.0837741,0.448859,0.195541
0.0896836,0.141399,0.341289,-0.00556286,0.107639,0.415661,0.195541
0.122851,0.0401401,0.34801,0.0279657,0.131674,0.389363,0.195541
0.0382935,-0.0913876,0.365884,0.0620781,0.137532,0.381168,0.195541
-0.131755,-0.236062,0.414258,0.114801,0.130254,0.340028,0.195541
-0.358026,-0.322004,0.470945,0.150963,0.122371,0.234011,0.195541
-0.544754,-0.199911,0.536498,0.166099,0.0988988,0.0783712,0.195541
-0.652165,-0.109155,0.596348,0.180971,0.0695551,-0.0715939,0.195541
-0.718753,-0.127067,0.66938,0.20717,0.0433252,-0.185079,0.195541
-0.815229,-0.27677,0.791063,0.232695,0.0371985,-0.280938,0.430695
-0.718753,-0.127067,0.66938,0.20717,0.0433252,-0.185079,0.430695
-0.911295,-0.42404,0.964327,0.241936,0.0377665,-0.39105,0.430695
-0.982701,-0.535213,1.15536,0.236343,0.0203933,-0.516634,0.430695
-0.909645,-0.475198,1.33685,0.199663,-0.019357,-0.660503,0.430695
-0.702117,-0.26456,1.4281,0.125016,-0.0466857,-0.744655,0.430695
-0.514761,-0.0380527,1.4394,0.0782394,-0.0748014,-0.691539,0.430695
-0.447258,0.0742891,1.44783,0.0776661,-0.0963841,-0.532386,0.430695
-0.473577,0.0811418,1.43728,0.0712375,-0.0979186,-0.394055,0.430695
-0.484832,0.0235196,1.41134,0.0625828,-0.0870546,-0.319901,0.430695
-0.348912,-0.00565134,1.44497,0.0727241,-0.0501909,-0.291111,0.430695
-0.0411638,0.123526,1.55544,0.0730716,0.0149791,-0.268142,0.430695
0.327586,0.354999,1.71661,0.0689674,0.0740737,-0.187022,0.430695
0.586925,0.575472,1.86402,0.0483634,0.10869,-0.0476857,0.430695
0.62197,0.713861,1.94375,-0.00495807,0.119509,0.110673,0.430695
0.502238,0.639601,1.88628,-0.0721869,0.0885437,0.230618,0.430695
0.399457,0.364973,1.72049,-0.117716,0.0732562,0.281296,0.430695
0.43499,0.0146456,1.52753,-0.127687,0.0780231,0.290159,0.430695
0.574753,-0.242624,1.37225,-0.11154,0.102837,0.288224,0.430695
0.66153,-0.345996,1.24033,-0.0908954,0.119395,0.314391,0.430695
0.636669,-0.273141,1.08829,-0.076788,0.111846,0.338453,0.430695
0.522676,-0.162512,0.919635,-0.0651616,0.104568,0.363242,0.430695
0.382351,-0.12302,0.771264,-0.0423175,0.103163,0.365635,0.430695
0.290651,-0.125171,0.640917,-0.00949751,0.112189,0.322464,0.430695
0.260994,-0.0288147,0.565032,0.0218234,0.132741,0.250829,0.430695
0.207487,0.223884,0.541723,0.0381157,0.149885,0.204105,0.430695
0.136952,0.46413,0.548538,0.0484928,0.137014,0.186046,0.430695
0.0721203,0.642739,0.5343,0.0432356,0.119525,0.183257,0.430695
-0.0192734,0.609046,0.579442,0.0400833,0.115375,0.209993,0.430695
-0.0927134,0.385356,0.685582,0.0347212,0.104082,0.21448,0.430695
-0.109654,0.172354,0.717829,-0.00687078,0.0683626,0.166183,0.430695
-0.152724,0.131449,0.651833,-0.03778,0.0293614,0.102307,0.430695
-0.253522,0.225989,0.583109,-0.0363856,0.0153018,0.0474029,0.430695
-0.365502,0.374243,0.611377,-0.0156383,0.0362849,0.00823539,0.430695
-0.391522,0.436039,0.745484,-0.00833482,0.0485679,-0.0299801,0.430695
-0.289835,0.414437,0.880018,-0.0457685,0.0322917,-0.0679993,0.430695
-0.11537,0.38834,0.918713,-0.0940371,-0.0126885,-0.0687525,0.430695
-0.0573456,0.415605,0.895791,-0.137117,-0.043455,-0.0190684,0.430695
-0.133102,0.505544,0.84926,-0.163793,-0.0579001,0.0468515,0.430695
-0.236662,0.554819,0.777081,-0.176266,-0.0698041,0.0822888,0.430695
-0.269381,0.549957,0.727708,-0.157813,-0.0763357,0.0839111,0.430695
-0.205178,0.519221,0.727379,-0.136092,-0.0606535,0.0655529,0.430695
-0.147202,0.477233,0.780388,-0.114555,-0.0421219,0.0797426,0.430695
-0.165495,0.341259,0.823283,-0.0916372,-0.0538909,0.0897545,0.430695
-0.179425,0.163792,0.850165,-0.0677462,-0.0660033,0.0450221,0.430695
-0.122255,0.0881102,0.904775,-0.0459684,-0.0439631,-0.0490862,0.430695
-0.0429488,0.0643788,0.982112,-0.0246129,-0.0280609,-0.117689,0.430695
-0.0557742,0.0246522,1.02958,-0.00222529,-0.0353988,-0.142545,0.430695
-0.146262,-0.0313154,1.08107,0.00359268,-0.0353381,-0.175474,0.430695
-0.212735,-0.0498105,1.03939,-0.0399289,-0.0228206,-0.222606,0.430695
-0.212707,-0.0251383,0.931775,-0.0557044,-0.0371153,-0.284793,0.430695
-0.161487,0.0537979,0.854198,-0.0315561,-0.0307466,-0.300382,0.430695
-0.161487,0.0537979,0.854198,-0.0315561,-0.0307466,-0.300382,0.710785
-0.0519563,0.312343,0.855329,0.00592275,0.00295523,-0.269686,0.710785
0.00736988,0.575434,0.913148,0.053428,0.0104239,-0.168771,0.710785
-0.0539152,0.680283,0.999899,0.0725591,0.0136136,-0.0241818,0.710785
-0.1234,0.562315,1.05617,0.0791131,-0.0023293,0.0893228,0.710785
-0.124143,0.349969,1.09591,0.0943202,-0.00819093,0.148296,0.710785
-0.0698313,0.267206,1.19327,0.119177,0.0156018,0.170289,0.710785
-0.0159073,0.27595,1.35159,0.155106,0.043455,0.204827,0.710785
0.000502798,0.225177,1.54247,0.185449,0.0454432,0.253258,0.710785
-0.0488403,-0.00903709,1.71411,0.213728,0.0124943,0.284853,0.710785
-0.0967755,-0.289921,1.83072,0.235635,-0.0284717,0.262998,0.710785
-0.173617,-0.467352,1.88806,0.249095,-0.0604952,0.187296,0.710785
-0.24977,-0.40217,1.88078,0.237658,-0.0884673,0.0606278,0.710785
-0.289366,-0.264156,1.75332,0.217085,-0.122202,-0.0530124,0.710785
-0.295047,-0.199032,1.6136,0.236701,-0.135555,-0.137057,0.710785
-0.170304,-0.341734,1.56275,0.265396,-0.106694,-0.209669,0.710785
0.0730353,-0.602947,1.59465,0.291303,-0.0755998,-0.299916,0.710785
0.370771,-0.534492,1.61145,0.267123,-0.0565192,-0.387248,0.710785
0.635443,-0.0694918,1.5659,0.211259,-0.0296682,-0.399049,0.710785
0.764006,0.448387,1.44808,0.160174,-0.0341067,-0.292683,0.710785
0.754259,0.737856,1.28217,0.123071,-0.0312438,-0.113516,0.710785
0.702173,0.804313,1.14086,0.109452,-0.0149897,0.0335024,0.710785
0.630369,0.678508,1.0159,0.110743,0.00139511,0.138577,0.710785
0.53758,0.505246,0.933647,0.119696,0.0142545,0.194668,0.710785
0.376849,0.301714,0.870146,0.124992,0.0311231,0.220351,0.710785
0.241303,0.244828,0.845439,0.122772,0.0454818,0.176131,0.710785
0.178327,0.310851,0.803071,0.101782,0.0564769,0.110887,0.710785
0.1108,0.387037,0.76106,0.0822531,0.0655207,0.082095,0.710785
0.0391436,0.443805,0.733772,0.0699768,0.0642381,0.0466074,0.710785
0.0335923,0.48318,0.726069,0.0407064,0.0709307,0.000417888,0.710785
0.0905137,0.476138,0.724443,0.0129202,0.0773016,-0.0250134,0.710785
0.156836,0.48351,0.75208,0.0104329,0.064509,-0.02777,0.710785
0.177035,0.499558,0.772309,-0.0184803,0.0594728,-0.00636458,0.710785
0.153331,0.505529,0.779385,-0.0354816,0.0397057,0.0297215,0.710785
0.0950341,0.397346,0.756197,-0.0649947,0.0187173,0.0624464,0.710785
0.030027,0.264158,0.691043,-0.0858508,-0.00245214,0.0658082,0.710785
-0.00259828,0.165188,0.656281,-0.0902325,-0.0110787,0.0406989,0.710785
0.0430588,0.124244,0.638019,-0.097845,-0.00935042,0.00728333,0.710785
0.0946416,0.0910438,0.619176,-0.0999016,-0.0231028,0.0106446,0.710785
0.0507068,0.091646,0.585898,-0.100797,-0.045232,0.0480161,0.710785
-0.134342,0.0743392,0.511972,-0.109564,-0.0608518,0.0929693,0.710785
-0.410722,-0.143471,0.366622,-0.121409,-0.0956568,0.113614,0.710785
-0.615008,-0.448252,0.142873,-0.144331,-0.108768,0.0433674,0.710785
-0.724613,-0.622952,-0.0419959,-0.128016,-0.0992312,-0.0932353,0.710785
-0.681471,-0.441208,-0.0759687,-0.0803258,-0.0478662,-0.223691,0.710785
-0.398718,-0.0716286,0.0389588,-0.00590414,-0.0153044,-0.302472,0.710785
0.0194669,0.142147,0.248396,0.0339484,0.0168515,-0.248558,0.710785
0.288862,0.0706168,0.389447,0.0205187,0.00119925,-0.08169,0.710785
0.348191,-0.167193,0.389975,-0.0164812,-0.0260726,0.0763949,0.710785
0.275014,-0.377101,0.304054,-0.0406846,-0.027777,0.152485,0.710785
0.141576,-0.466325,0.19392,-0.0412126,-0.0282836,0.153152,0.710785
0.0783138,-0.419813,0.0666904,-0.0473305,-2.89381e-05,0.102127,0.710785
0.115831,-0.349185,-0.0273906,-0.0210538,0.0311477,0.0492079,0.710785
0.162644,-0.29937,-0.0784185,0.0164789,0.0671942,0.0366337,0.710785
0.141999,-0.257486,-0.115484,0.0394134,0.0966529,0.0470392,0.710785
0.0277493,-0.226184,-0.191465,0.0506868,0.0950818,0.0515689,0.710785
-0.175796,-0.268144,-0.22827,0.0961003,0.105325,0.0433241,0.710785
-0.300499,-0.299656,-0.174777,0.128916,0.12328,-0.0306552,0.710785
-0.277501,-0.321405,-0.0836653,0.144412,0.132871,-0.119809,0.710785
-0.1575,-0.279607,0.0361736,0.148499,0.128434,-0.192498,0.710785
0.0275747,-0.0711581,0.144605,0.121836,0.12223,-0.227769,0.710785
0.1993,0.169649,0.232197,0.0826534,0.115814,-0.184737,0.710785
0.286629,0.302509,0.281692,0.0358132,0.101459,-0.0835773,0.710785
0.299523,0.354478,0.271564,-0.00791615,0.0780639,0.0169581,0.710785
0.263537,0.338781,0.22008,-0.0435401,0.0639737,0.0840511,0.710785
0.170603,0.28425,0.159599,-0.0769715,0.0615269,0.130746,0.710785
0.042617,0.238954,0.100561,-0.0904272,0.0501439,0.151945,0.710785
-0.107757,0.179906,0.0254302,-0.10175,0.042601,0.162256,0.710785
-0.243909,0.100734,-0.0474353,-0.105126,0.0345449,0.146831,0.710785
-0.314883,0.0402153,-0.0926187,-0.0946373,0.0289536,0.0984486,0.710785
-0.332505,0.0323183,-0.0971022,-0.0847884,0.0368463,0.0510665,0.710785
-0.305332,0.10091,-0.0579523,-0.0732143,0.0346155,0.0175869,0.710785
-0.266463,0.133289,-0.020086,-0.069644,0.0173413,0.00590527,0.710785
-0.206849,0.118638,0.0121203,-0.0702746,-0.0057835,0.00795227,0.710785
-0.141616,0.110974,0.0257563,-0.07862,-0.0240955,0.0221018,0.710785
-0.129263,0.0692451,0.0207384,-0.0868357,-0.04442,0.049632,0.710785
-0.129263,0.0692451,0.0207384,-0.0868357,-0.04442,0.049632,0.938019
-0.150887,0.0629111,-0.00714393,-0.100349,-0.0623137,0.0562676,0.938019
-0.173135,0.136554,-0.0821521,-0.11621,-0.0786434,0.0461435,0.938019
-0.188825,0.24518,-0.150484,-0.121886,-0.0824007,0.0434447,0.938019
-0.184235,0.287008,-0.185236,-0.110239,-0.0851109,0.0545099,0.938019
-0.180469,0.238642,-0.217029,-0.108212,-0.0882233,0.0627663,0.938019
-0.120368,0.128589,-0.237769,-0.0989702,-0.0967337,0.0489726,0.938019
-0.0570291,0.0694159,-0.277537,-0.0894595,-0.0911936,0.036045,0.938019
-0.0919503,0.120295,-0.275072,-0.0715316,-0.0761632,0.0375318,0.938019
-0.147854,0.215758,-0.25973,-0.0640202,-0.0731004,0.0271012,0.938019
-0.14753,0.257723,-0.270508,-0.0611082,-0.0739453,0.0144255,0.938019
-0.112702,0.223019,-0.245596,-0.0511933,-0.0702123,0.0187256,0.938019
-0.105325,0.154905,-0.244225,-0.0505529,-0.071921,0.0306144,0.938019
-0.162834,0.140143,-0.257293,-0.0476473,-0.0788742,0.0335766,0.938019
-0.250598,0.188849,-0.260035,-0.0539327,-0.0794984,0.0106199,0.938019
-0.254209,0.199756,-0.27891,-0.0580402,-0.0897746,-0.0345132,0.938019
-0.190396,0.133152,-0.261462,-0.0343358,-0.0967902,-0.0732965,0.938019
-0.134774,0.0830183,-0.217665,-0.0215986,-0.0922907,-0.107231,0.938019
-0.131845,0.100976,-0.188247,-0.0374635,-0.0920747,-0.142807,0.938019
-0.163453,0.144011,-0.178342,-0.0446379,-0.094969,-0.183186,0.938019
-0.174002,0.1869,-0.18445,-0.0690486,-0.0982285,-0.245843,0.938019
-0.167652,0.216905,-0.242276,-0.10177,-0.0994698,-0.297837,0.938019
-0.18185,0.104025,-0.320475,-0.117443,-0.0933667,-0.334882,0.938019
-0.19507,-0.00322342,-0.412446,-0.120666,-0.0761686,-0.378057,0.938019
-0.145891,0.0118574,-0.46437,-0.0871633,-0.0410473,-0.418959,0.938019
-0.113286,0.0589527,-0.425679,-0.051147,0.0228417,-0.393003,0.938019
-0.107178,-0.00082303,-0.345312,-0.0229321,0.070001,-0.324057,0.938019
-0.0904975,-0.0789479,-0.320372,-0.0253521,0.0839797,-0.277549,0.938019
0.0323171,-0.0492655,-0.310131,-0.000843786,0.0856907,-0.253094,0.938019
0.329392,0.173223,-0.239817,0.0571792,0.101446,-0.174404,0.938019
0.489497,0.369734,-0.114556,0.103041,0.113637,0.0156099,0.938019
0.439524,0.225038,0.0644806,0.143734,0.0921329,0.208827,0.938019
0.305221,-0.281624,0.159989,0.145611,0.0430474,0.278041,0.938019
0.155915,-0.765775,0.0819022,0.0957999,0.0011372,0.23818,0.938019
0.115327,-0.880701,-0.131779,0.0652908,-0.0244473,0.100595,0.938019
0.134818,-0.67391,-0.342426,0.0837053,0.0101736,-0.00313848,0.938019
0.159483,-0.233683,-0.390463,0.140851,0.0547841,-0.0416743,0.938019
0.18592,0.0433992,-0.324885,0.19645,0.072777,-0.0108691,0.938019
0.29643,0.10736,-0.217488,0.200791,0.0675229,0.0304273,0.938019
0.450193,0.0971516,-0.171455,0.15789,0.0600793,0.0773716,0.938019
0.54686,0.186901,-0.185638,0.125088,0.047794,0.14012,0.938019
0.542771,0.313734,-0.209922,0.111236,0.0569576,0.21964,0.938019
0.475283,0.408902,-0.21462,0.106456,0.0725591,0.280913,0.938019
0.383162,0.344688,-0.182286,0.130919,0.0784557,0.317482,0.938019
0.351987,0.217383,-0.0870493,0.15087,0.08496,0.306512,0.938019
0.368645,0.0908602,0.0258428,0.137323,0.0969325,0.281732,0.938019
0.306301,-0.0830117,0.099679,0.109542,0.0820833,0.271087,0.938019
0.17738,-0.0773463,0.0766879,0.0547056,0.0484826,0.223024,0.938019
0.0065699,0.0618687,-0.025223,0.0177158,0.0219677,0.168213,0.938019
-0.172541,0.140638,-0.0990919,0.0199235,0.00652862,0.129119,0.938019
-0.296147,0.0183167,-0.114301,0.0287246,0.00325702,0.080992,0.938019
-0.34216,-0.248382,-0.105099,0.0322896,-0.00122151,-0.0119429,0.938019
-0.316833,-0.399209,-0.0996215,0.0295929,-0.00329487,-0.144978,0.938019
-0.182629,-0.2355,-0.0511845,0.0401454,0.00379889,-0.277551,0.938019
-0.0367478,0.04101,0.0412539,0.0440861,0.038257,-0.291822,0.938019
-0.0367478,0.04101,0.0412539,0.0440861,0.038257,-0.291822,0.948593
-0.0258551,0.11646,0.157348,0.0475431,0.0505475,-0.181806,0.948593
-0.110523,-0.0125097,0.175203,0.0290469,0.0144318,-0.0886829,0.948593
-0.218606,-0.0496767,0.095677,0.0193013,-0.0369983,-0.0668024,0.948593
-0.365495,-0.105558,-0.0325716,0.0246802,-0.0871886,-0.081649,0.948593
-0.513637,-0.272221,-0.0469746,0.066009,-0.0938133,-0.12376,0.948593
-0.706958,-0.453501,-0.058698,0.0344343,-0.0597134,-0.191167,0.948593
-0.943415,-0.803424,-0.205517,-0.0647488,-0.0820975,-0.315454,0.948593
-0.82524,-0.944726,-0.486482,-0.103082,-0.111904,-0.525967,0.948593
-0.468926,-0.577661,-0.707546,-0.102622,-0.0416061,-0.664428,0.948593
-0.0594873,0.16526,-0.687885,-0.0788734,0.0551972,-0.613209,0.948593
0.205725,0.684495,-0.578115,-0.0613433,0.099141,-0.380059,0.948593
0.362831,0.840186,-0.525202,-0.0881573,0.0825539,-0.121094,0.948593
0.490662,0.665382,-0.558252,-0.140316,0.089518,0.0663025,0.948593
0.518779,0.224873,-0.625167,-0.139958,0.0947275,0.191343,0.948593
0.442732,-0.250823,-0.669039,-0.108807,0.106806,0.252955,0.948593
0.332089,-0.462642,-0.659801,-0.0991821,0.145014,0.207671,0.948593
0.266932,-0.400358,-0.624042,-0.114411,0.178795,0.131789,0.948593
0.317202,-0.252043,-0.631994,-0.115928,0.168729,0.0861034,0.948593
0.432053,-0.166977,-0.651782,-0.107032,0.156351,0.107493,0.948593
0.486013,-0.173827,-0.670775,-0.0930545,0.141537,0.191858,0.948593
0.410434,-0.283538,-0.684048,-0.0809319,0.116722,0.277525,0.948593
0.290945,-0.389227,-0.71963,-0.0733124,0.089619,0.306988,0.948593
0.193707,-0.416708,-0.776497,-0.0754848,0.0753953,0.280204,0.948593
0.17208,-0.333063,-0.843303,-0.0727238,0.0600397,0.226353,0.948593
0.173697,-0.250736,-0.898161,-0.0551588,0.0578206,0.20864,0.948593
0.144583,-0.261119,-0.916708,-0.0289093,0.0546194,0.209094,0.948593
0.115255,-0.342705,-0.87686,0.00351287,0.0548157,0.193736,0.948593
0.0999589,-0.356757,-0.838366,0.00504362,0.0513742,0.155951,0.948593
0.067639,-0.300392,-0.809475,-0.00442187,0.0452273,0.131854,0.948593
0.0628623,-0.26618,-0.79268,-0.0115906,0.0408385,0.122267,0.948593
0.0478294,-0.243992,-0.785838,-0.00598998,0.0384386,0.13751,0.948593
-0.0237521,-0.213624,-0.773922,0.00780284,0.0262313,0.166205,0.948593
-0.193536,-0.134174,-0.811735,0.00879007,-0.00161648,0.192691,0.948593
-0.401753,-0.105004,-0.827117,0.0254613,-0.0343286,0.190892,0.948593
-0.479909,-0.125138,-0.81512,0.0458375,-0.0592484,0.137645,0.948593
-0.46039,-0.112544,-0.771953,0.056399,-0.0652282,0.0717188,0.948593
-0.471394,-0.0901475,-0.702088,0.0781327,-0.0829113,0.0333872,0.948593
-0.530811,-0.131574,-0.607812,0.106055,-0.096921,-0.00269282,0.948593
-0.533292,-0.161633,-0.488398,0.112278,-0.0894528,-0.084939,0.948593
-0.433242,-0.0998925,-0.363875,0.118072,-0.0925035,-0.182686,0.948593
-0.298487,-0.0396882,-0.18987,0.130298,-0.0797806,-0.233288,0.948593
-0.202229,0.0403703,0.0108323,0.124984,-0.0824733,-0.260767,0.948593
-0.14303,0.0290094,0.170499,0.101506,-0.107891,-0.282397,0.948593
-0.080086,-0.00177165,0.241246,0.0430526,-0.133514,-0.321777,0.948593
-0.0456585,0.0760917,0.233751,-0.00308284,-0.148138,-0.35682,0.948593
-0.0272072,0.266077,0.148579,-0.0429084,-0.155452,-0.37859,0.948593
-0.0248639,0.450583,0.0369939,-0.0417748,-0.142253,-0.357976,0.948593
-0.0221605,0.542066,0.0317901,0.00338959,-0.110571,-0.313099,0.948593
0.0230634,0.566252,0.0897746,0.0317747,-0.0831384,-0.271628,0.948593
0.10122,0.550867,0.143053,0.0376846,-0.0751938,-0.216621,0.948593
0.147305,0.486094,0.191502,0.0457647,-0.0595533,-0.141131,0.948593
0.225797,0.458183,0.285943,0.0582316,-0.0234008,-0.0867336,0.948593
0.374445,0.571032,0.414054,0.055762,0.0326044,-0.029849,0.948593
0.497243,0.827462,0.580587,0.0602956,0.0664316,0.0773678,0.948593
0.497243,0.827462,0.580587,0.0602956,0.0664316,0.0773678,1.11507
0.497567,0.817468,0.743906,0.0623744,0.0652377,0.242243,1.11507
0.366331,0.488175,0.844765,0.0621931,0.0422937,0.361598,1.11507
0.0970504,0.0729196,0.858317,0.0456344,0.000540376,0.381322,1.11507
-0.149163,-0.251627,0.776785,0.020813,-0.0363401,0.29209,1.11507
-0.199091,-0.406472,0.6578,0.0238732,-0.0340406,0.149468,1.11507
-0.185878,-0.548632,0.57839,0.0524388,5.35697e-05,0.0382758,1.11507
-0.209883,-0.624732,0.582144,0.088489,0.0338344,-0.0383093,1.11507
-0.129839,-0.404413,0.610151,0.0970133,0.0527667,-0.145235,1.11507
0.0944345,0.0497333,0.619651,0.0697269,0.0755867,-0.176444,1.11507
0.286133,0.406404,0.644639,0.0492525,0.0964474,-0.0658482,1.11507
0.361185,0.492562,0.640548,0.0220522,0.0965859,0.118628,1.11507
0.313829,0.419165,0.593571,-0.0206965,0.105218,0.284386,1.11507
0.254979,0.297716,0.536156,-0.0315571,0.101568,0.366345,1.11507
0.207528,0.15488,0.503549,0.00211436,0.100935,0.3922,1.11507
0.142998,0.0546841,0.536649,0.0297418,0.114085,0.38357,1.11507
0.0521345,-0.00366286,0.564837,0.0389613,0.101322,0.340935,1.11507
-0.0404327,-0.0298445,0.556104,0.0391224,0.0691372,0.285176,1.11507
-0.158149,-0.0226588,0.499405,0.0419658,0.042047,0.232888,1.11507
-0.284939,-0.0147444,0.446626,0.0465447,0.0325207,0.163889,1.11507
-0.37496,-0.0578336,0.419223,0.0599263,0.0342021,0.0836605,1.11507
-0.342256,-0.0498977,0.45055,0.0692476,0.048029,-0.0140943,1.11507
-0.194736,0.0493175,0.504519,0.0443286,0.0641427,-0.0924814,1.11507
-0.0149043,0.304153,0.5122,0.000433594,0.0599066,-0.109642,1.11507
0.0394538,0.433501,0.485275,-0.0221294,0.0491631,-0.0266024,1.11507
-0.0155061,0.344215,0.510095,0.00790733,0.0250964,0.0431634,1.11507
-0.0695046,0.193133,0.526278,-0.00775116,-0.000980243,0.0220015,1.11507
-0.215995,-0.0288099,0.430929,-0.0463665,-0.0476571,-0.0285705,1.11507
-0.530419,-0.286928,0.306489,-0.0487247,-0.0825878,-0.1166,1.11507
-0.834479,-0.467721,0.183004,-0.0517876,-0.082223,-0.270002,1.11507
-0.992014,-0.379639,0.0720124,-0.0208231,-0.0836277,-0.44997,1.11507
-0.905954,-0.0367645,0.0365205,0.00634381,-0.0691019,-0.591988,1.11507
-0.688502,0.224171,0.0414638,0.0157949,-0.0670153,-0.601189,1.11507
-0.504251,0.23015,0.0731808,0.0380893,-0.0861349,-0.488365,1.11507
-0.450251,0.0975059,0.0882748,0.0372958,-0.105401,-0.354393,1.11507
-0.515162,-0.135334,0.0297941,0.00704665,-0.128735,-0.28081,1.11507
-0.621565,-0.386132,-0.136461,-0.0296065,-0.160031,-0.288865,1.11507
-0.656383,-0.543282,-0.353475,-0.0566671,-0.137151,-0.37841,1.11507
-0.475877,-0.315915,-0.423844,-0.02574,-0.0469681,-0.497327,1.11507
-0.0618682,0.194863,-0.336382,0.0214967,0.0331452,-0.51804,1.11507
0.413494,0.701752,-0.133705,0.0439696,0.0826276,-0.354637,1.11507
0.703426,0.757051,0.0755813,0.0139394,0.0968838,-0.064533,1.11507
0.879029,0.446321,0.239006,-0.0275346,0.0744284,0.160422,1.11507
0.926342,-0.146636,0.312113,-0.0753566,0.0559657,0.314059,1.11507
0.905894,-0.63515,0.268627,-0.149798,0.0511868,0.343905,1.11507
0.76016,-0.782658,0.0284685,-0.231962,0.0420514,0.321418,1.11507
0.552155,-0.683077,-0.271577,-0.248802,0.057667,0.3106,1.11507
0.379366,-0.42007,-0.512476,-0.212513,0.0857477,0.298865,1.11507
0.255863,-0.115024,-0.650852,-0.148895,0.112008,0.320792,1.11507
0.187858,-0.122804,-0.64435,-0.0659607,0.120424,0.361153,1.11507
0.276597,-0.285938,-0.566682,-0.0155652,0.119027,0.355608,1.11507
0.448653,-0.393862,-0.49383,-0.00927216,0.129849,0.322181,1.11507
0.592913,-0.412269,-0.408592,-0.0112914,0.136967,0.311887,1.11507
0.641983,-0.400105,-0.377118,-0.0318222,0.130502,0.333045,1.11507
0.530071,-0.423934,-0.45011,-0.0781251,0.128121,0.354507,1.11507
0.530071,-0.423934,-0.45011,-0.0781251,0.128121,0.354507,1.27625
0.256244,-0.426108,-0.589086,-0.120684,0.141706,0.355043,1.27625
-0.0635963,-0.450054,-0.767366,-0.138169,0.138612,0.298577,1.27625
-0.283161,-0.310483,-0.978834,-0.152588,0.123977,0.198752,1.27625
-0.463331,-0.114117,-1.16838,-0.135215,0.112386,0.136236,1.27625
-0.579446,0.0642526,-1.25244,-0.0828286,0.10372,0.0804703,1.27625
-0.647724,0.0753031,-1.25181,-0.0212593,0.0887232,0.0580343,1.27625
-0.692913,-0.0106464,-1.18111,0.0313955,0.0529008,0.0244011,1.27625
-0.684492,-0.0657186,-1.06764,0.0609611,0.0229647,-0.0335212,1.27625
-0.617369,-0.0553005,-0.902818,0.0883584,-0.0029557,-0.0923346,1.27625
-0.535262,-0.0296689,-0.699092,0.0998805,-0.0279649,-0.125608,1.27625
-0.352835,0.0420699,-0.522597,0.0833404,-0.0697094,-0.184634,1.27625
-0.190007,0.0688698,-0.42333,0.0452414,-0.113938,-0.189817,1.27625
-0.15815,-0.00530746,-0.413707,0.031399,-0.167246,-0.161681,1.27625
-0.294083,-0.125277,-0.440579,0.0487375,-0.196988,-0.150267,1.27625
-0.470452,-0.126203,-0.490691,0.0500369,-0.22216,-0.232651,1.27625
-0.592227,-0.0646609,-0.58468,0.0441913,-0.227798,-0.365516,1.27625
-0.65705,-0.027226,-0.637676,0.0700499,-0.235039,-0.492485,1.27625
-0.623092,0.0331044,-0.560875,0.141629,-0.22022,-0.595306,1.27625
-0.466193,0.223422,-0.366095,0.172405,-0.159385,-0.657578,1.27625
-0.164536,0.616038,-0.130515,0.174446,-0.0956422,-0.641756,1.27625
0.188239,0.935903,0.153359,0.184799,-0.0569351,-0.492461,1.27625
0.56806,1.12735,0.437591,0.159825,-0.0428715,-0.285556,1.27625
0.830889,1.11513,0.686536,0.113924,-0.013328,-0.0406483,1.27625
0.842433,0.867599,0.916362,0.0774075,-0.0157536,0.184351,1.27625
0.698591,0.301056,1.04088,0.0362233,-0.0437662,0.321977,1.27625
0.567548,-0.346063,1.04743,0.0202798,-0.064776,0.339344,1.27625
0.554032,-0.610014,0.97627,0.00361573,-0.0542085,0.253261,1.27625
0.528004,-0.478373,0.881204,0.0259251,-0.0369712,0.192759,1.27625
0.444467,-0.205598,0.846466,0.0785264,-0.00746781,0.193646,1.27625
0.357606,-0.108994,0.883553,0.141778,0.0215575,0.236513,1.27625
0.347643,-0.198674,0.986869,0.199714,0.029042,0.258106,1.27625
0.426679,-0.26473,1.07436,0.224026,0.0328104,0.250988,1.27625
0.492503,-0.200964,1.11752,0.234482,0.0341258,0.246954,1.27625
0.463926,-0.0510154,1.17049,0.249533,0.0505256,0.264632,1.27625
0.419633,-0.00418523,1.25675,0.274157,0.069232,0.288081,1.27625
0.425457,-0.108168,1.36755,0.288753,0.0937759,0.28825,1.27625
0.476953,-0.162928,1.44446,0.278519,0.106058,0.258806,1.27625
0.460685,-0.131152,1.47388,0.251945,0.115098,0.240432,1.27625
0.35405,-0.0464568,1.47066,0.225795,0.1197,0.218195,1.27625
0.245939,0.100718,1.41722,0.203979,0.117811,0.171784,1.27625
0.139468,0.165716,1.34821,0.204228,0.109858,0.133066,1.27625
0.00415625,0.141347,1.3369,0.221021,0.1122,0.0961176,1.27625
-0.140468,0.0563201,1.30897,0.204977,0.0945502,0.0310863,1.27625
-0.25457,0.0620045,1.21023,0.186133,0.0537834,-0.0706382,1.27625
-0.408118,0.163724,1.08474,0.147586,0.0282208,-0.160149,1.27625
-0.57138,0.253007,0.930929,0.118997,0.0137604,-0.238096,1.27625
-0.7388,0.185639,0.832065,0.120376,0.00114907,-0.318665,1.27625
-0.831106,0.105782,0.79656,0.120716,0.00800164,-0.416269,1.27625
-0.792983,0.223575,0.804034,0.119764,0.0040282,-0.513515,1.27625
-0.722803,0.554168,0.809263,0.0967342,-9.36687e-05,-0.552242,1.27625
-0.677146,0.828686,0.869624,0.101001,-0.027966,-0.503976,1.27625
-0.608648,0.833607,0.917021,0.0931216,-0.0592766,-0.408218,1.27625
-0.523956,0.713476,0.923173,0.064083,-0.0764054,-0.325511,1.27625
-0.523956,0.713476,0.923173,0.064083,-0.0764054,-0.325511,1.40308
-0.45529,0.64072,0.894634,0.0330124,-0.0700819,-0.284137,1.40308
-0.324543,0.822455,0.909487,0.0037015,-0.0318973,-0.277804,1.40308
-0.0884539,1.08973,1.00483,-0.00992787,0.0226176,-0.229844,1.40308
0.181018,1.18733,1.16898,-0.0316193,0.0748107,-0.112062,1.40308
0.386452,0.949572,1.34166,-0.0712882,0.116832,0.0400197,1.40308
0.474189,0.514377,1.45566,-0.134927,0.135213,0.154084,1.40308
0.441556,0.0457159,1.442,-0.202092,0.120977,0.20657,1.40308
0.396721,-0.154113,1.31222,-0.261771,0.131704,0.181208,1.40308
0.377374,-0.115315,1.17988,-0.257455,0.154735,0.142442,1.40308
0.43648,0.0429862,1.11483,-0.230526,0.179839,0.134376,1.40308
0.556296,0.230567,1.04321,-0.211632,0.180153,0.165992,1.40308
0.602965,0.288266,0.983372,-0.194228,0.177181,0.270837,1.40308
0.55807,0.220129,0.922739,-0.184911,0.164645,0.380746,1.40308
0.478606,0.0722436,0.823534,-0.179543,0.137855,0.444254,1.40308
0.36465,-0.182592,0.68084,-0.158158,0.101974,0.470184,1.40308
0.164158,-0.391847,0.490355,-0.142013,0.0785297,0.458435,1.40308
-0.0436328,-0.37132,0.297593,-0.11717,0.0528218,0.376363,1.40308
-0.211391,-0.241479,0.125274,-0.0822875,0.0601384,0.292288,1.40308
-0.342675,-0.10488,0.0386473,-0.0221345,0.0540262,0.211415,1.40308
-0.40357,-0.0202775,0.047587,0.0045341,0.0601452,0.124816,1.40308
-0.377457,0.000667746,0.0723191,-0.00212409,0.0366175,0.0467585,1.40308
-0.271871,0.0147539,0.051509,-0.0119148,0.00391766,-0.0190935,1.40308
-0.255577,0.10002,-0.00725056,-0.0165693,-0.0204056,-0.0447124,1.40308
-0.326945,0.239819,-0.00547358,-0.00709983,-0.0168653,-0.0490406,1.40308
-0.374871,0.335101,0.0701529,0.0156706,-0.0139697,-0.0535762,1.40308
-0.303311,0.336718,0.197142,0.0166565,-0.0181241,-0.0677601,1.40308
-0.179937,0.273131,0.296067,-0.0138804,-0.0317485,-0.0656649,1.40308
-0.0951209,0.2171,0.361267,-0.0496748,-0.0509375,-0.0384293,1.40308
-0.0555345,0.204976,0.387464,-0.0861512,-0.0647482,-0.0138453,1.40308
-0.0344873,0.24346,0.40171,-0.123247,-0.0688047,0.00359708,1.40308
0.0178037,0.301454,0.385269,-0.147433,-0.0858086,0.0186573,1.40308
0.119193,0.309008,0.365,-0.154877,-0.0858145,0.0468823,1.40308
0.196643,0.219955,0.347724,-0.154622,-0.0766064,0.0869169,1.40308
0.222196,0.0977943,0.330535,-0.135763,-0.0824636,0.113053,1.40308
0.223356,-0.0120759,0.28687,-0.118656,-0.0879895,0.0924646,1.40308
0.242023,-0.151257,0.290586,-0.0665813,-0.0899882,0.038183,1.40308
0.324005,-0.320932,0.352103,-0.0134825,-0.0790485,-0.0375457,1.40308
0.358021,-0.385882,0.379529,0.0124057,-0.094724,-0.0991148,1.40308
0.309479,-0.31211,0.358012,0.0275599,-0.136593,-0.148935,1.40308
0.106751,-0.21132,0.281757,0.0230225,-0.137131,-0.169424,1.40308
-0.174546,-0.179384,0.230269,0.0170824,-0.134646,-0.22448,1.40308
-0.359,-0.345139,0.0917344,-0.0183767,-0.124877,-0.346699,1.40308
-0.377453,-0.365568,-0.062591,-0.00840495,-0.12426,-0.488292,1.40308
-0.137515,0.101856,-0.118535,0.00532607,-0.0413316,-0.583891,1.40308
0.270152,0.737139,0.0170714,0.0752394,0.0457451,-0.479757,1.40308
0.508691,1.27534,0.224744,0.114893,0.0933608,-0.171878,1.40308
0.581594,1.52882,0.445242,0.091944,0.117115,0.140041,1.40308
0.582036,1.39843,0.617523,0.0543372,0.134224,0.390783,1.40308
0.505713,0.984527,0.769548,0.062608,0.11808,0.545047,1.40308
0.373304,0.61481,0.928744,0.085446,0.111739,0.609037,1.40308
0.1473,0.23595,1.15769,0.171068,0.0751572,0.635557,1.40308
-0.179447,-0.0508387,1.41964,0.231586,0.0400236,0.611727,1.40308
-0.455133,-0.517463,1.7323,0.312498,-0.0216872,0.539233,1.40308
-0.577607,-0.950079,1.93698,0.29373,-0.0408251,0.388199,1.40308
-0.577607,-0.950079,1.93698,0.29373,-0.0408251,0.388199,1.55104
-0.599168,-1.07973,1.9798,0.237884,-0.0634034,0.203051,1.55104
-0.72326,-0.933799,1.83842,0.204709,-0.107518,0.0739272,1.55104
-0.987291,-0.83434,1.62045,0.204552,-0.130779,-0.0485365,1.55104
-1.06265,-0.866233,1.49891,0.275104,-0.127389,-0.251657,1.55104
-0.566932,-0.810073,1.59523,0.346299,-0.0529955,-0.496375,1.55104
0.167608,-0.549618,1.79355,0.364668,0.0153985,-0.571885,1.55104
0.515667,-0.146196,1.90919,0.309425,0.0183913,-0.43954,1.55104
0.370911,0.175995,1.72555,0.183298,-0.0511656,-0.254252,1.55104
0.20843,0.390018,1.38241,0.0925229,-0.0820532,-0.168329,1.55104
0.280733,0.4826,1.03873,0.0679391,-0.0621408,-0.149274,1.55104
0.39512,0.575715,0.80132,0.0818858,-0.00703144,-0.0824184,1.55104
0.390031,0.722722,0.687592,0.0930922,0.0514944,0.015236,1.55104
0.280553,0.789633,0.599127,0.0921521,0.0775823,0.105935,1.55104
0.181949,0.788409,0.516013,0.0755211,0.100923,0.1654,1.55104
0.113409,0.709533,0.449573,0.0393177,0.133049,0.193812,1.55104
0.0488121,0.613916,0.387974,0.00824554,0.132162,0.200635,1.55104
-0.00215555,0.57331,0.326598,-0.0098074,0.117702,0.18427,1.55104
-0.0888291,0.597029,0.290054,-0.0262343,0.104706,0.175378,1.55104
-0.209139,0.54511,0.262232,-0.0316561,0.0699361,0.157583,1.55104
-0.265176,0.449241,0.239682,-0.040555,0.0292936,0.112391,1.55104
-0.224331,0.273499,0.223219,-0.0279504,0.00736552,0.0622842,1.55104
-0.218098,0.194066,0.277592,-0.0141732,0.0132239,0.0343066,1.55104
-0.316143,0.178912,0.340078,-0.0178833,-0.0153446,0.0281554,1.55104
-0.409534,0.0858499,0.336514,-0.0215245,-0.0752454,0.000614464,1.55104
-0.471608,-0.0919705,0.307457,-0.0366974,-0.0814212,-0.0447457,1.55104
-0.464891,-0.251612,0.296347,-0.0173628,-0.0970686,-0.119351,1.55104
-0.455896,-0.305416,0.311657,0.0217377,-0.105378,-0.171354,1.55104
-0.560028,-0.206136,0.34377,0.0367223,-0.102439,-0.176697,1.55104
-0.817134,-0.0421539,0.348902,0.04636,-0.124961,-0.153682,1.55104
-1.10636,0.100415,0.313036,0.0406186,-0.151094,-0.165202,1.55104
-1.3049,-0.0442606,0.263173,0.0272749,-0.140954,-0.203673,1.55104
-1.31348,-0.356107,0.236639,0.024655,-0.137278,-0.308912,1.55104
-1.06586,-0.51624,0.195233,-0.00301356,-0.107512,-0.441434,1.55104
-0.75808,-0.532085,0.196208,-0.00686629,-0.0650656,-0.488711,1.55104
-0.548833,-0.318892,0.205841,0.00853623,-0.0315954,-0.466461,1.55104
-0.518973,0.0826747,0.190113,-0.00104057,-0.000696976,-0.404799,1.55104
-0.468465,0.362412,0.157799,-0.0264699,0.0138558,-0.348801,1.55104
-0.232019,0.422993,0.0834396,-0.0521502,0.0206648,-0.317361,1.55104
0.179417,0.256465,0.0734313,-0.0751313,0.0816407,-0.27322,1.55104
0.571545,-0.0222797,0.0823345,-0.0881642,0.143137,-0.187237,1.55104
0.772008,-0.142533,0.0697243,-0.126508,0.183882,-0.0989382,1.55104
0.837843,-0.0688732,-0.0530555,-0.17711,0.20216,-0.0222046,1.55104
0.834745,0.0545608,-0.275106,-0.21632,0.207528,0.0532653,1.55104
0.731796,0.16282,-0.49307,-0.196607,0.223453,0.156315,1.55104
0.625052,0.235542,-0.593057,-0.149585,0.241996,0.228191,1.55104
0.591293,0.197506,-0.597132,-0.104602,0.250422,0.287438,1.55104
0.627733,0.0519858,-0.537129,-0.069315,0.231946,0.332092,1.55104
0.672804,-0.121657,-0.50376,-0.0678447,0.213954,0.371368,1.55104
0.651709,-0.2198,-0.535939,-0.0878461,0.193174,0.399973,1.55104
0.566869,-0.173389,-0.620637,-0.0918797,0.171406,0.407851,1.55104
0.440166,-0.1109,-0.696047,-0.0889695,0.163661,0.414811,1.55104
0.277092,-0.126215,-0.73658,-0.0635581,0.158357,0.423502,1.55104
0.131644,-0.200153,-0.721503,-0.043986,0.149083,0.397349,1.55104
0.0260365,-0.25422,-0.750517,-0.0543726,0.120727,0.345905,1.55104
0.0260365,-0.25422,-0.750517,-0.0543726,0.120727,0.345905,1.72807
-0.0787306,-0.271156,-0.802422,-0.0436542,0.0889575,0.294671,1.72807
-0.201037,-0.273933,-0.830075,-0.0205229,0.070721,0.253693,1.72807
-0.359971,-0.349078,-0.822864,0.00909987,0.0486329,0.199651,1.72807
-0.519415,-0.462121,-0.780377,0.0319979,0.0119629,0.109205,1.72807
-0.615168,-0.482876,-0.749039,0.0378395,-0.029467,-0.0162158,1.72807
-0.667316,-0.455799,-0.743027,0.0316451,-0.0732546,-0.149547,1.72807
-0.656167,-0.391362,-0.742429,0.03315,-0.131983,-0.300909,1.72807
-0.509597,-0.347503,-0.763558,0.0364558,-0.164949,-0.454751,1.72807
-0.285754,-0.20596,-0.753401,0.0491971,-0.174875,-0.570011,1.72807
-0.0863069,0.0659089,-0.690481,0.0561368,-0.147727,-0.60356,1.72807
0.097906,0.43558,-0.651249,0.036198,-0.142008,-0.590933,1.72807
0.230722,0.727266,-0.701873,0.0261568,-0.161824,-0.482051,1.72807
0.194687,0.832454,-0.735369,0.0563613,-0.164765,-0.316346,1.72807
0.0385577,0.728455,-0.707496,0.107357,-0.159298,-0.205859,1.72807
-0.0571246,0.56746,-0.615065,0.159997,-0.153266,-0.213457,1.72807
0.00571504,0.60051,-0.473148,0.172771,-0.105724,-0.284558,1.72807
0.206605,0.78328,-0.250256,0.198339,-0.0477086,-0.274,1.72807
0.504875,0.886499,0.0630079,0.219295,0.00778897,-0.161467,1.72807
0.756907,0.915622,0.405747,0.215349,0.0390728,0.0282609,1.72807
0.849293,0.68607,0.700309,0.198101,0.0430653,0.24667,1.72807
0.732199,0.180643,0.926652,0.177358,0.0198038,0.384016,1.72807
0.588426,-0.272488,1.08831,0.157838,-0.000430554,0.369829,1.72807
0.602506,-0.473644,1.1852,0.129995,0.0206763,0.244818,1.72807
0.691307,-0.373967,1.1976,0.116622,0.0269687,0.150754,1.72807
0.635397,-0.0741537,1.14692,0.114647,0.0256175,0.150106,1.72807
0.395141,0.111713,1.05753,0.119762,0.0133629,0.190965,1.72807
0.215931,0.140947,1.02343,0.150969,0.0171078,0.189554,1.72807
0.238773,0.101579,1.05634,0.189321,0.0428109,0.149081,1.72807
0.3517,0.159035,1.09224,0.193376,0.0675543,0.140297,1.72807
0.345113,0.145962,1.12951,0.214054,0.0802394,0.211004,1.72807
0.223328,0.130737,1.19351,0.235446,0.101027,0.264616,1.72807
0.109603,0.141508,1.24337,0.237048,0.126281,0.267542,1.72807
0.0497773,0.126886,1.28414,0.24366,0.142683,0.2469,1.72807
0.0641528,0.137065,1.32479,0.241631,0.16555,0.207615,1.72807
0.0831287,0.18745,1.38144,0.248692,0.205381,0.189386,1.72807
0.04597,0.264629,1.49955,0.257646,0.23742,0.189734,1.72807
-0.0314515,0.291479,1.59036,0.249675,0.241772,0.193572,1.72807
-0.141357,0.2156,1.66215,0.239622,0.220734,0.183078,1.72807
-0.313531,0.0324106,1.66578,0.224432,0.173831,0.13026,1.72807
-0.516919,-0.0815601,1.58306,0.1871,0.131415,0.00904292,1.72807
-0.666691,-0.0230303,1.46366,0.156856,0.114033,-0.162854,1.72807
-0.682181,0.192188,1.39609,0.148833,0.116902,-0.318286,1.72807
-0.691272,0.3283,1.399,0.146605,0.12577,-0.378854,1.72807
-0.761897,0.26867,1.45278,0.139386,0.100126,-0.387775,1.72807
-0.813499,0.0746542,1.44818,0.0766241,0.0625792,-0.446696,1.72807
-0.759187,0.0211851,1.40418,-0.00682258,0.013937,-0.555601,1.72807
-0.608575,0.252942,1.27963,-0.106405,-0.0217339,-0.643139,1.72807
-0.528139,0.496064,1.07259,-0.186571,-0.0646117,-0.620757,1.72807
-0.526207,0.5263,0.800744,-0.237565,-0.104325,-0.544729,1.72807
-0.44873,0.529133,0.509997,-0.28845,-0.101821,-0.529659,1.72807
-0.203847,0.654541,0.25705,-0.314179,-0.0634976,-0.538392,1.72807
0.132647,0.891971,0.0954956,-0.309554,0.00203791,-0.477132,1.72807
0.45072,1.12672,0.0528437,-0.324152,0.0883183,-0.329439,1.72807
0.707026,1.18905,0.062627,-0.362526,0.163577,-0.135043,1.72807
0.707026,1.18905,0.062627,-0.362526,0.163577,-0.135043,1.9104
0.892482,0.945788,0.035704,-0.419608,0.200492,0.0523444,1.9104
0.943447,0.47738,-0.0719229,-0.48212,0.222495,0.20875,1.9104
0.851532,0.0269607,-0.26164,-0.512741,0.233263,0.29986,1.9104
0.652538,-0.252668,-0.516678,-0.504987,0.238436,0.336422,1.9104
0.440597,-0.255562,-0.779278,-0.481959,0.260883,0.329837,1.9104
0.276703,-0.234695,-1.01534,-0.413621,0.263343,0.332729,1.9104
0.220796,-0.273726,-1.10484,-0.309906,0.272637,0.333336,1.9104
0.240909,-0.386524,-1.06446,-0.231904,0.293884,0.341475,1.9104
0.289462,-0.463835,-0.983965,-0.186199,0.279584,0.35694,1.9104
0.263966,-0.565363,-0.95436,-0.193186,0.25211,0.401055,1.9104
0.156064,-0.68572,-1.03018,-0.202968,0.203912,0.427662,1.9104
0.0364452,-0.828644,-1.14151,-0.177642,0.181488,0.421246,1.9104
-0.0637113,-0.883376,-1.20916,-0.131232,0.180732,0.383338,1.9104
-0.175585,-0.999717,-1.21238,-0.0639244,0.172302,0.343955,1.9104
-0.298535,-1.08682,-1.19518,-0.0182834,0.154238,0.284417,1.9104
-0.40349,-1.11375,-1.24156,0.00116943,0.109232,0.197542,1.9104
-0.531158,-0.969509,-1.34299,0.017842,0.0751269,0.1137,1.9104
-0.730138,-0.721515,-1.46976,0.05202,0.0416397,0.0452973,1.9104
-0.903831,-0.425705,-1.55596,0.111861,0.021462,-0.0220525,1.9104
-0.996794,-0.112329,-1.53183,0.177925,0.0287213,-0.0933211,1.9104
-0.973167,0.0157814,-1.35071,0.233413,0.0277699,-0.138332,1.9104
-0.677189,-0.085199,-1.04837,0.265599,0.0105025,-0.198109,1.9104
-0.238293,-0.271996,-0.784483,0.246211,-0.0384055,-0.215239,1.9104
0.00697596,-0.288556,-0.666085,0.192934,-0.10006,-0.166403,1.9104
-0.033325,-0.142871,-0.631167,0.162696,-0.144513,-0.108835,1.9104
-0.162128,-0.0105001,-0.615323,0.143558,-0.169129,-0.105535,1.9104
-0.175805,0.0128142,-0.60147,0.131241,-0.183177,-0.151523,1.9104
-0.0718147,-0.0196248,-0.562338,0.114374,-0.179856,-0.215869,1.9104
0.0757605,0.00854336,-0.510288,0.100805,-0.173272,-0.273613,1.9104
0.230729,0.215285,-0.47499,0.0634395,-0.169916,-0.311961,1.9104
0.302923,0.397283,-0.48092,0.0433302,-0.1801,-0.283548,1.9104
0.243408,0.450832,-0.510908,0.029246,-0.19526,-0.227509,1.9104
0.111853,0.38698,-0.571742,0.0194592,-0.203788,-0.215748,1.9104
0.02599,0.39204,-0.654659,0.016663,-0.208787,-0.262772,1.9104
-0.0928077,0.286715,-0.733363,0.0373768,-0.192722,-0.287356,1.9104
-0.206961,0.175975,-0.694307,0.100155,-0.155708,-0.335388,1.9104
-0.153299,0.219267,-0.544483,0.163827,-0.10937,-0.404474,1.9104
0.0312695,0.474863,-0.285645,0.204592,-0.0489703,-0.397807,1.9104
0.371681,0.880532,0.0396176,0.20009,-0.00476722,-0.337054,1.9104
0.690314,1.13191,0.332164,0.171073,0.0104084,-0.143727,1.9104
0.831095,1.03558,0.631862,0.159279,0.0237726,0.111641,1.9104
0.796165,0.571215,0.913847,0.137957,0.0212234,0.296709,1.9104
0.670602,-0.103419,1.09476,0.100981,-0.000385627,0.352629,1.9104
0.544296,-0.468906,1.10727,0.0328218,-0.00380555,0.255616,1.9104
0.455381,-0.410463,1.0214,-0.0084912,0.0138194,0.120186,1.9104
0.423522,-0.134885,0.920159,-0.0142364,0.0457785,0.0427182,1.9104
0.428323,0.211317,0.841857,0.0174925,0.0709057,0.0423231,1.9104
0.446875,0.355917,0.871691,0.06061,0.107372,0.120555,1.9104
0.475007,0.252096,0.98253,0.0908433,0.139922,0.223147,1.9104
0.502818,0.0837158,1.09794,0.0989088,0.151351,0.295861,1.9104
0.530078,-0.0275122,1.15708,0.0751806,0.146315,0.340999,1.9104
0.481788,-0.0411317,1.11746,0.0445531,0.140618,0.386838,1.9104
0.311549,-0.0136367,1.03882,0.0373307,0.137604,0.428633,1.9104
0.0871605,0.00105464,0.936198,0.0454162,0.131442,0.432218,1.9104
0.0871605,0.00105464,0.936198,0.0454162,0.131442,0.432218,2.10857
-0.0725327,-0.0529286,0.881991,0.0807273,0.141466,0.386058,2.10857
-0.115623,-0.0983859,0.876983,0.107923,0.16343,0.307912,2.10857
-0.136921,-0.0862881,0.86283,0.116453,0.159949,0.242016,2.10857
-0.204261,-0.0169608,0.815371,0.121112,0.134141,0.185985,2.10857
-0.284599,0.0682467,0.772719,0.141755,0.108231,0.116418,2.10857
-0.356198,0.0937952,0.713526,0.136415,0.0748785,0.0372564,2.10857
-0.444703,0.0695837,0.641426,0.136856,0.0354888,-0.0532095,2.10857
-0.525156,-0.00844611,0.641697,0.151364,0.0426451,-0.163222,2.10857
-0.605039,0.0925962,0.676444,0.127621,0.0482139,-0.280115,2.10857
-0.647513,0.261532,0.662177,0.0467582,0.0433238,-0.388611,2.10857
-0.715897,0.206664,0.570173,-0.00899078,0.00156674,-0.417106,2.10857
-0.823618,0.0355713,0.470287,-0.0700659,-0.0177825,-0.46346,2.10857
-0.860497,-0.0113463,0.3808,-0.108425,-0.0354043,-0.537758,2.10857
-0.785997,0.114002,0.329268,-0.149746,-0.0439103,-0.597325,2.10857
-0.654051,0.31008,0.242834,-0.209061,-0.0440598,-0.582952,2.10857
-0.518774,0.405765,0.0708832,-0.246092,-0.0698143,-0.489074,2.10857
-0.464978,0.415357,-0.150492,-0.259472,-0.0842602,-0.363232,2.10857
-0.420195,0.388549,-0.32579,-0.245546,-0.0695543,-0.272717,2.10857
-0.275029,0.238958,-0.363908,-0.19822,-0.040466,-0.229951,2.10857
0.124845,0.135368,-0.254096,-0.182775,0.0104561,-0.252142,2.10857
0.610029,0.125341,-0.157757,-0.224223,0.0594159,-0.206657,2.10857
0.873014,-0.0208888,-0.144199,-0.268338,0.0677993,-0.0502784,2.10857
0.920603,-0.229182,-0.237502,-0.319574,0.0742552,0.0829344,2.10857
0.855871,-0.447778,-0.426474,-0.358551,0.083542,0.146042,2.10857
0.719294,-0.530153,-0.68038,-0.374866,0.110876,0.191783,2.10857
0.548374,-0.492083,-0.919103,-0.33866,0.141899,0.22874,2.10857
0.405479,-0.400181,-1.10903,-0.267584,0.165433,0.259151,2.10857
0.325397,-0.370237,-1.20393,-0.182788,0.190529,0.296475,2.10857
0.325335,-0.394073,-1.1887,-0.104109,0.212688,0.330794,2.10857
0.371264,-0.507842,-1.11633,-0.0468299,0.217395,0.370272,2.10857
0.430833,-0.621899,-1.03437,-0.0145808,0.213882,0.405788,2.10857
0.443091,-0.720299,-0.957965,-0.00800942,0.232016,0.446039,2.10857
0.359125,-0.783758,-0.931455,-0.011721,0.238251,0.46929,2.10857
0.203653,-0.750658,-0.919723,-0.00632861,0.230493,0.455731,2.10857
-0.00155443,-0.666549,-0.978436,-0.00231098,0.224132,0.435585,2.10857
-0.272248,-0.652345,-0.984579,0.0474171,0.208838,0.403821,2.10857
-0.52569,-0.738792,-0.975001,0.0667441,0.190346,0.316415,2.10857
-0.696019,-0.784158,-1.03945,0.0714275,0.136618,0.162084,2.10857
-0.885444,-0.590578,-1.15386,0.0881482,0.0831211,0.029189,2.10857
-1.13907,-0.247446,-1.22725,0.129618,0.0492009,-0.0603213,2.10857
-1.3482,0.112179,-1.21241,0.166011,0.0270712,-0.1465,2.10857
-1.31392,0.346594,-1.07271,0.204163,0.00711854,-0.25162,2.10857
-0.978786,0.342742,-0.772608,0.243482,-0.0170305,-0.313407,2.10857
-0.410751,0.243503,-0.437171,0.222308,-0.0572763,-0.315034,2.10857
0.00243142,0.134246,-0.220111,0.172791,-0.121057,-0.196431,2.10857
0.0525552,0.127318,-0.109537,0.117353,-0.182915,-0.0579662,2.10857
-0.0506863,0.17334,-0.066876,0.0560095,-0.214514,-0.00698835,2.10857
-0.135536,0.123845,-0.110687,0.0193943,-0.25782,-0.0277997,2.10857
-0.158334,0.0415078,-0.218039,-0.00494912,-0.288328,-0.0939445,2.10857
-0.226929,-0.0895052,-0.352593,-0.0122621,-0.285812,-0.152172,2.10857
-0.256064,-0.160157,-0.461184,0.0271634,-0.275741,-0.255772,2.10857
-0.272844,-0.0238309,-0.501467,0.0739489,-0.22259,-0.363041,2.10857
-0.403347,0.129472,-0.434692,0.113477,-0.190684,-0.419252,2.10857
-0.52566,-0.0250037,-0.286385,0.155401,-0.179832,-0.500258,2.10857
-0.52566,-0.0250037,-0.286385,0.155401,-0.179832,-0.500258,2.31732
-0.434577,-0.168887,-0.0950831,0.160384,-0.142393,-0.641633,2.31732
-0.152413,-0.0128509,0.0842743,0.14147,-0.087073,-0.722587,2.31732
0.134024,0.299778,0.299069,0.152121,-0.0583603,-0.662109,2.31732
0.433298,0.557119,0.510032,0.150549,-0.0455924,-0.493035,2.31732
0.794389,0.7719,0.708538,0.127887,-0.015032,-0.283712,2.31732
1.07565,0.853959,0.853856,0.0956736,0.0219265,-0.0179651,2.31732
1.14041,0.716506,0.955355,0.0599289,0.0311285,0.246422,2.31732
0.977389,0.305601,0.984402,0.0374539,0.0137779,0.426872,2.31732
0.654865,-0.144307,0.951251,0.0290803,-0.0104317,0.481508,2.31732
0.318092,-0.280229,0.817352,0.01346,-0.00197297,0.436711,2.31732
0.105449,-0.301055,0.682766,0.0364664,0.0161325,0.35239,2.31732
0.079599,-0.278601,0.579947,0.0574642,0.0460371,0.283458,2.31732
0.196208,-0.240676,0.547668,0.0801734,0.0894011,0.258403,2.31732
0.375407,-0.262848,0.554209,0.105388,0.115541,0.279087,2.31732
0.55037,-0.362426,0.667577,0.154396,0.137457,0.323317,2.31732
0.699971,-0.415218,0.768609,0.135708,0.179013,0.350349,2.31732
0.762941,-0.448379,0.856175,0.142439,0.178613,0.3475,2.31732
0.727794,-0.39896,0.887743,0.145827,0.171983,0.329265,2.31732
0.60214,-0.283158,0.965842,0.169554,0.173476,0.290753,2.31732
0.389055,-0.160268,1.01098,0.166155,0.164371,0.235258,2.31732
0.16647,0.0382261,0.987275,0.137282,0.118084,0.153516,2.31732
0.0240722,0.129358,0.836603,0.0868349,0.0785711,0.0892783,2.31732
-0.0339175,0.121839,0.658761,0.0730873,0.0592604,0.0417386,2.31732
-0.0883406,-0.0171615,0.563089,0.0883489,0.0506425,0.0100167,2.31732
-0.128157,-0.128865,0.522242,0.0928839,0.0425791,-0.0356984,2.31732
-0.151014,0.00876345,0.452615,0.0705517,0.0445995,-0.0794212,2.31732
-0.198679,0.330147,0.412534,0.0558544,0.0481934,-0.0806048,2.31732
-0.22357,0.600679,0.423554,0.067409,0.0485182,-0.0397874,2.31732
-0.240301,0.643518,0.512865,0.0946343,0.034792,0.0439975,2.31732
-0.262898,0.564617,0.51194,0.072697,0.00601768,0.107458,2.31732
-0.272513,0.329246,0.532422,0.0533703,-0.0335549,0.155443,2.31732
-0.35386,0.169234,0.508525,0.0412284,-0.075396,0.17583,2.31732
-0.453532,0.0287943,0.478689,0.0348922,-0.102328,0.144057,2.31732
-0.530542,0.0048657,0.476467,0.0211057,-0.103197,0.0946749,2.31732
-0.581944,-0.0306951,0.497016,0.0215873,-0.111634,0.0377197,2.31732
-0.557409,0.0127237,0.516227,0.0184742,-0.11976,-0.0440424,2.31732
-0.515639,0.0662617,0.526613,0.0156326,-0.144959,-0.100586,2.31732
-0.463219,0.126558,0.482377,-0.0010726,-0.171616,-0.1586,2.31732
-0.549785,0.201817,0.434683,0.0195017,-0.184169,-0.174107,2.31732
-0.600183,0.116785,0.432292,0.0385149,-0.168322,-0.204921,2.31732
-0.588568,0.0420748,0.424981,0.0310685,-0.146353,-0.266327,2.31732
-0.534562,0.0261599,0.450259,0.0501978,-0.134132,-0.310197,2.31732
-0.556113,-0.0409136,0.514694,0.0694765,-0.126836,-0.31376,2.31732
-0.679498,-0.212987,0.533367,0.0430255,-0.126435,-0.310445,2.31732
-0.874989,-0.508161,0.425666,-0.026985,-0.130568,-0.353233,2.31732
-0.897998,-0.670298,0.22357,-0.0575737,-0.136607,-0.489697,2.31732
-0.646641,-0.606035,0.0968109,-0.0500527,-0.0808231,-0.618717,2.31732
-0.271828,-0.212791,0.0903523,-0.0238563,-0.0101219,-0.624219,2.31732
0.0815364,0.251498,0.152965,-0.00918608,0.0355915,-0.514293,2.31732
0.259707,0.617847,0.153275,-0.0267286,0.0372584,-0.31979,2.31732
0.356525,0.694094,0.12076,-0.0547078,0.0389863,-0.129988,2.31732
0.451384,0.414637,0.0811517,-0.0659067,0.0684311,-0.00399244,2.31732
0.581721,-0.0643773,0.0873293,-0.0544563,0.0912945,0.0314536,2.31732
0.581721,-0.0643773,0.0873293,-0.0544563,0.0912945,0.0314536,2.51549
0.777052,-0.297743,0.132927,-0.0775473,0.133505,-0.00926137,2.51549
0.91,-0.165998,0.126817,-0.151987,0.167523,-0.0335814,2.51549
0.960993,0.0346031,0.0123132,-0.199003,0.161997,0.00538856,2.51549
0.963131,0.158866,-0.137273,-0.188292,0.166565,0.0974278,2.51549
0.919574,0.230538,-0.217491,-0.157468,0.184866,0.205487,2.51549
0.842058,0.198039,-0.212137,-0.10533,0.207381,0.298589,2.51549
0.765434,0.131873,-0.157336,-0.0834283,0.212778,0.354155,2.51549
0.723545,-0.00732926,-0.103606,-0.0801251,0.190656,0.382683,2.51549
0.749592,-0.0345246,-0.154593,-0.108245,0.162437,0.357738,2.51549
0.770065,-0.0223831,-0.267009,-0.103696,0.14597,0.336411,2.51549
0.688718,0.0126125,-0.327217,-0.077239,0.157689,0.354876,2.51549
0.530227,0.0418945,-0.31662,-0.0460176,0.162569,0.370291,2.51549
0.380303,0.0505926,-0.302336,-0.0319083,0.14836,0.372153,2.51549
0.224931,-0.0743883,-0.300909,-0.0139937,0.123798,0.360245,2.51549
0.0806435,-0.268682,-0.288504,0.00270214,0.0991355,0.30047,2.51549
0.0228787,-0.267884,-0.283368,-0.0198224,0.0892676,0.193045,2.51549
-0.0115351,-0.150591,-0.276174,-0.0291087,0.0799874,0.132953,2.51549
-0.084915,-0.115383,-0.270387,-0.0131749,0.0500948,0.121163,2.51549
-0.160886,-0.0790474,-0.251256,-0.0159463,0.0318367,0.0957209,2.51549
-0.162753,-0.0392718,-0.263702,-0.0285698,0.0102676,0.0569744,2.51549
-0.133634,-0.0271881,-0.280061,-0.0390022,-0.00715277,0.046199,2.51549
-0.136029,0.000642061,-0.281478,-0.0310411,-0.0272589,0.0610553,2.51549
-0.148889,0.0213096,-0.257955,-0.0254671,-0.0408707,0.073867,2.51549
-0.16071,0.0476497,-0.268146,-0.0370484,-0.0713153,0.0888036,2.51549
-0.212239,0.00628438,-0.315879,-0.0487655,-0.10104,0.117543,2.51549
-0.273793,-0.0156249,-0.360009,-0.0472004,-0.122086,0.123926,2.51549
-0.314845,-0.00421232,-0.385169,-0.0387225,-0.133101,0.105768,2.51549
-0.301202,0.00133504,-0.401648,-0.0229458,-0.14557,0.0689812,2.51549
-0.184494,0.0666856,-0.373718,0.0094117,-0.152128,0.0240073,2.51549
-0.0519259,0.0957407,-0.3044,0.0221849,-0.135417,0.0277627,2.51549
-0.00151366,0.0906202,-0.266683,0.0286318,-0.156684,0.0515088,2.51549
-0.0302091,0.0194791,-0.249355,0.0567984,-0.174397,0.0623066,2.51549
-0.0937375,-0.0569203,-0.209472,0.0773844,-0.162384,0.0322691,2.51549
-0.142245,-0.0377597,-0.15368,0.081937,-0.153858,-0.0564878,2.51549
-0.0998458,0.151282,-0.121987,0.0754345,-0.140976,-0.161766,2.51549
-0.0191682,0.370899,-0.100515,0.0853174,-0.136367,-0.19054,2.51549
-0.0702856,0.254251,-0.0535186,0.115809,-0.117629,-0.120019,2.51549
-0.27025,0.119831,-0.0393023,0.112881,-0.111671,-0.105078,2.51549
-0.439067,-0.0980929,-0.071223,0.0763068,-0.103271,-0.174564,2.51549
-0.406481,-0.151901,-0.118374,0.0527287,-0.0713404,-0.307937,2.51549
-0.258929,0.0476967,-0.0849476,0.0744947,-0.0291892,-0.361339,2.51549
-0.086503,0.330453,0.0279013,0.093743,0.00412314,-0.306782,2.51549
0.0211942,0.521334,0.143109,0.0967661,0.0207063,-0.162679,2.51549
0.0130789,0.644337,0.227593,0.0875519,0.022914,-0.0324897,2.51549
0.00661744,0.703499,0.351757,0.0789694,0.0366575,0.0557402,2.51549
0.068501,0.747014,0.470292,0.0663121,0.0586853,0.10683,2.51549
0.172364,0.601283,0.606444,0.082511,0.0673333,0.128027,2.51549
0.29086,0.313282,0.762088,0.102456,0.0695017,0.125354,2.51549
0.349535,-0.0204081,0.866049,0.0867953,0.0799155,0.117834,2.51549
0.345092,-0.266376,0.922314,0.0572205,0.0853931,0.0948477,2.51549
0.265255,-0.410621,0.90554,0.0152858,0.0876701,0.0678639,2.51549
0.0779666,-0.631216,0.787093,-0.0422295,0.0905972,0.0355331,2.51549
-0.147622,-0.901333,0.515379,-0.124977,0.0947748,-0.0898892,2.51549
-0.208907,-0.826569,0.237129,-0.137445,0.103499,-0.283173,2.51549
-0.208907,-0.826569,0.237129,-0.137445,0.103499,-0.283173,2.71631
-0.0558608,-0.284877,0.0939189,-0.122586,0.169021,-0.388002,2.71631
0.282138,0.318612,0.169722,-0.0822764,0.226359,-0.361248,2.71631
0.683084,0.665577,0.247606,-0.0651027,0.224119,-0.193027,2.71631
0.850924,0.534919,0.20257,-0.08381,0.195363,0.0570953,2.71631
0.749682,0.24373,0.106563,-0.108668,0.170528,0.231205,2.71631
0.509287,-0.0202551,-0.0750812,-0.131138,0.130423,0.305329,2.71631
0.267735,-0.305786,-0.320026,-0.105781,0.0988496,0.303246,2.71631
0.100418,-0.441558,-0.55245,-0.101228,0.110402,0.222117,2.71631
0.0298312,-0.428304,-0.715134,-0.0728097,0.134236,0.111051,2.71631
0.080704,-0.391446,-0.784109,-0.029151,0.159676,0.0274186,2.71631
0.2299,-0.376707,-0.780866,0.0135662,0.166126,-0.0231438,2.71631
0.339937,-0.382986,-0.783466,0.012495,0.161045,-0.0299894,2.71631
0.336738,-0.364034,-0.833947,-0.00212432,0.146095,-0.0146178,2.71631
0.214662,-0.345554,-0.953239,-0.0295402,0.126135,0.00985235,2.71631
0.031572,-0.396277,-1.13025,-0.0478328,0.107937,0.0171451,2.71631
-0.107855,-0.392345,-1.3005,-0.045936,0.0935067,-0.0234061,2.71631
-0.157525,-0.342219,-1.40179,-0.0204424,0.0842952,-0.062657,2.71631
-0.216173,-0.341064,-1.45537,-0.0112371,0.0758926,-0.0560518,2.71631
-0.301995,-0.443237,-1.5524,-0.0202343,0.0528992,-0.052736,2.71631
-0.435415,-0.513553,-1.74339,-0.0565309,0.0247671,-0.0810667,2.71631
-0.539591,-0.404017,-1.92861,-0.0702877,0.0243567,-0.133626,2.71631
-0.55114,-0.212442,-2.02178,-0.0604065,0.0411658,-0.169093,2.71631
-0.460642,-0.108351,-2.02229,-0.0483673,0.0588413,-0.157859,2.71631
-0.364196,-0.241976,-1.98857,-0.0567783,0.0677352,-0.115173,2.71631
-0.251054,-0.404745,-1.96912,-0.108695,0.0710664,-0.122619,2.71631
-0.150868,-0.426603,-1.99248,-0.168404,0.0755809,-0.13334,2.71631
0.0142395,-0.320658,-2.00009,-0.194159,0.0945386,-0.130589,2.71631
0.201864,-0.261258,-1.96946,-0.218975,0.129528,-0.0732732,2.71631
0.333179,-0.287507,-1.93326,-0.255652,0.156092,0.013272,2.71631
0.46069,-0.405856,-1.94781,-0.319207,0.180932,0.0776825,2.71631
0.539739,-0.614193,-2.06021,-0.381286,0.193317,0.133768,2.71631
0.486668,-0.955985,-2.25499,-0.419595,0.215792,0.183742,2.71631
0.315638,-1.22823,-2.51694,-0.42416,0.237303,0.178324,2.71631
-0.0142296,-1.52131,-2.73508,-0.381035,0.282229,0.146774,2.71631
-0.362739,-1.82079,-2.87566,-0.332211,0.337464,0.0428948,2.71631
-0.57383,-1.97716,-2.94978,-0.278091,0.389501,-0.132783,2.71631
-0.584857,-1.78894,-2.98586,-0.218795,0.393122,-0.326705,2.71631
-0.42433,-1.3441,-2.96158,-0.146196,0.394459,-0.45365,2.71631
-0.211106,-0.956733,-2.84291,-0.057789,0.393468,-0.441064,2.71631
-0.0353661,-0.789199,-2.67495,0.0131869,0.372321,-0.325156,2.71631
0.0425125,-0.860851,-2.56701,0.0316874,0.327025,-0.198291,2.71631
0.0439502,-0.956496,-2.54342,0.0404169,0.27693,-0.126175,2.71631
-0.044303,-1.00117,-2.54295,0.0513152,0.242866,-0.0821027,2.71631
-0.111582,-0.938589,-2.50225,0.0758472,0.225635,-0.09415,2.71631
-0.06818,-0.805215,-2.41009,0.102386,0.219865,-0.125921,2.71631
0.0367803,-0.67926,-2.2999,0.114097,0.200428,-0.127211,2.71631
0.121955,-0.622901,-2.19689,0.136023,0.166458,-0.0928006,2.71631
0.181575,-0.549488,-2.07055,0.151706,0.149403,-0.058332,2.71631
0.224141,-0.425579,-1.94052,0.148654,0.128739,-0.0319381,2.71631
0.228498,-0.298118,-1.86113,0.136677,0.0938159,0.00716627,2.71631
0.197275,-0.227813,-1.81023,0.142586,0.07137,0.0330133,2.71631
0.12354,-0.182115,-1.76081,0.156032,0.0468406,0.0558051,2.71631
0.0386591,-0.195537,-1.68321,0.159999,0.0401666,0.0442046,2.71631
0.0117578,-0.158386,-1.62382,0.142551,0.0254194,-0.00515133,2.71631
0.0117578,-0.158386,-1.62382,0.142551,0.0254194,-0.00515133,2.93826
0.0581937,-0.137399,-1.51432,0.15122,0.0409229,-0.040211,2.93826
0.106001,-0.11334,-1.35801,0.156152,0.0613201,-0.0524693,2.93826
0.154301,-0.0542855,-1.16412,0.151111,0.0700232,-0.0543368,2.93826
0.242426,0.019044,-0.956574,0.133361,0.0809854,-0.0534123,2.93826
0.350953,0.0535272,-0.780464,0.094376,0.0840186,-0.029773,2.93826
0.401352,0.0885112,-0.656281,0.0582068,0.0727628,0.0205106,2.93826
0.365429,0.172747,-0.560686,0.0271084,0.0711374,0.0691881,2.93826
0.295131,0.198659,-0.484041,0.0197099,0.0642425,0.111501,2.93826
0.204748,0.122504,-0.402636,0.0312743,0.0570135,0.13492,2.93826
0.348636,-0.108128,-0.394662,0.0203298,0.0496445,0.12825,2.93826
0.293915,-0.684415,-0.363585,0.0518115,0.0249434,0.149784,2.93826
-0.0396506,-0.587073,-0.3503,0.00154792,0.0142988,0.103706,2.93826
-0.235419,-0.0951843,-0.51082,-0.0435918,-0.00308657,-0.0285839,2.93826
-0.107095,0.159495,-0.589796,8.37594e-05,0.00796717,-0.093339,2.93826
0.0851072,-0.0677198,-0.45321,0.0593674,0.0506333,-0.0239095,2.93826
