rotationRate_x,rotationRate_y,rotationRate_z,acceleration_x,acceleration_y,acceleration_z,relativeAltitude,altitude_pressure
-0.217753,0.341258,-0.0903664,-0.00871659,0.0777179,-0.42065,0.001,0.0001
0.186157,0.79986,0.00664653,-0.0214088,0.104961,-0.290898,0.001,0.0001
0.4282,1.03547,0.110833,-0.00264089,0.109444,-0.118714,0.001,0.0001
0.470496,0.906734,0.196705,0.0501154,0.0758607,0.016522,0.001,0.0001
0.439115,0.574711,0.266221,0.0617716,0.0660704,0.101938,0.001,0.0001
0.374911,0.181595,0.290434,0.0717927,0.0726468,0.169435,0.001,0.0001
0.33627,-0.190212,0.303401,0.0672745,0.0773469,0.200085,0.001,0.0001
0.303586,-0.336746,0.269373,0.0396093,0.0863189,0.21733,0.001,0.0001
0.233349,-0.235588,0.212193,0.0170892,0.0898207,0.250772,0.001,0.0001
0.180846,-0.085813,0.140119,0.00149181,0.0931766,0.260987,0.001,0.0001
0.156866,-0.0018742,0.0594865,-0.00302821,0.0931155,0.263032,0.001,0.0001
0.126947,-0.00923928,0.0158683,0.00629903,0.0857015,0.268862,0.001,0.0001
0.0344484,-0.0480588,0.00118411,0.0199598,0.077563,0.277995,0.001,0.0001
-0.102533,-0.111723,0.0163033,0.0272453,0.0649338,0.279412,0.001,0.0001
-0.202742,-0.130183,0.0393255,0.0227714,0.055726,0.260598,0.001,0.0001
-0.218022,-0.107063,0.0621229,0.016471,0.0356112,0.238309,0.001,0.0001
-0.130138,-0.23851,0.0418537,0.0197117,0.0215932,0.185402,0.001,0.0001
0.0248752,-0.327884,0.014741,0.020802,0.00952552,0.131968,0.001,0.0001
0.0103995,-0.345522,0.0243729,0.0323073,-0.0147944,0.1439,0.001,0.0001
-0.140134,-0.356328,0.0395479,0.0425684,-0.0416011,0.13647,0.001,0.0001
-0.28739,-0.257875,0.0281889,0.0430406,-0.066293,0.115146,0.001,0.0001
-0.442,-0.0405252,-0.0106846,0.0449176,-0.085619,0.103867,0.001,0.0001
-0.524034,0.192633,-0.0408284,0.0570834,-0.0899507,0.0760345,0.001,0.0001
-0.451307,0.361079,-0.0444289,0.0702231,-0.101585,0.0294394,0.001,0.0001
-0.371977,0.323373,-0.0347098,0.0994241,-0.114936,0.00103021,0.001,0.0001
-0.291849,0.127924,-0.0277446,0.123515,-0.135459,-0.0340372,0.001,0.0001
-0.252698,-0.0812636,-0.0726239,0.130068,-0.13262,-0.0709369,0.001,0.0001
-0.110228,-0.364665,-0.232107,0.0972376,-0.0941077,-0.171775,0.001,0.0001
0.141265,-0.430413,-0.512966,0.0514171,-0.0582813,-0.304815,0.001,0.0001
0.240098,-0.0485058,-0.846828,0.0394191,-0.0433454,-0.376734,0.001,0.0001
0.145405,0.44225,-0.965276,0.035579,-0.0334004,-0.402771,0.001,0.0001
0.0383913,0.60266,-0.779626,0.0207333,-0.000700325,-0.394416,0.001,0.0001
-0.0427779,0.338902,-0.582772,0.0310118,0.0123192,-0.415626,0.001,0.0001
-0.126414,-0.0184003,-0.604225,0.0262503,0.0443194,-0.395752,0.001,0.0001
-0.129612,-0.143332,-0.638651,-0.00815742,0.0793006,-0.348808,0.001,0.0001
-0.0555396,0.159982,-0.519518,-0.0155284,0.113808,-0.241238,0.001,0.0001
0.0281175,0.558611,-0.281991,-0.0371966,0.147673,-0.160899,0.001,0.0001
0.133253,0.797368,-0.0231711,-0.0470477,0.165977,-0.072723,0.001,0.0001
0.212325,0.627477,0.193305,-0.0298125,0.120731,-0.00175405,0.001,0.0001
0.229494,0.145701,0.263733,-0.0327248,0.104335,0.0424908,0.001,0.0001
0.217503,-0.249289,0.18301,-0.0663438,0.11504,0.0829598,0.001,0.0001
0.191434,-0.356641,-0.0249785,-0.078486,0.114063,0.128297,0.001,0.0001
0.170785,-0.165796,-0.208246,-0.066806,0.096869,0.157081,0.001,0.0001
0.104087,0.129836,-0.252257,-0.0496616,0.069796,0.191978,0.001,0.0001
0.0276986,0.317884,-0.218444,-0.0292376,0.0564563,0.20697,0.001,0.0001
0.0168564,0.292949,-0.118903,-0.00953583,0.0404849,0.208539,0.001,0.0001
0.0941019,0.135655,-0.00546371,-0.00801835,0.0285386,0.202577,0.001,0.0001
0.181104,0.0165656,0.0551077,-0.0165859,0.0309673,0.210671,0.001,0.0001
0.280738,-0.0359338,0.0788479,-0.0291609,0.0396666,0.225392,0.001,0.0001
0.341231,-0.031641,0.101536,-0.0423502,0.0340392,0.24678,0.001,0.0001
0.309931,0.0168154,0.125975,-0.0469951,0.0288708,0.275657,0.001,0.0001
0.309931,0.0168154,0.125975,-0.0469951,0.0288708,0.275657,0.0422821,-0.000526428
0.21536,-0.00252802,0.128309,-0.0447839,0.018658,0.294542,0.0422821,-0.000526428
0.12529,-0.0921765,0.0680995,-0.0509071,0.0157443,0.273867,0.0422821,-0.000526428
0.0107661,-0.121891,-0.037004,-0.0500065,0.00426862,0.259441,0.0422821,-0.000526428
-0.181776,-0.196983,-0.149026,-0.0486407,-0.00189932,0.225543,0.0422821,-0.000526428
-0.366183,-0.202536,-0.324837,-0.0432123,-0.00694366,0.169586,0.0422821,-0.000526428
-0.484259,-0.112516,-0.422289,-0.041099,0.00150406,0.0993966,0.0422821,-0.000526428
-0.570971,0.148256,-0.375801,-0.0388026,0.0110148,0.0628756,0.0422821,-0.000526428
-0.590454,0.32495,-0.225188,-0.0118209,-0.00801139,0.0247598,0.0422821,-0.000526428
-0.537184,0.341875,-0.078134,-0.00295047,-0.00729834,0.00831681,0.0422821,-0.000526428
-0.420792,0.225186,0.0488711,0.014835,-0.0193769,0.0179257,0.0422821,-0.000526428
-0.330331,-0.0113756,0.1815,0.0242435,-0.0465922,0.0324794,0.0422821,-0.000526428
-0.303993,-0.200127,0.267308,0.0263252,-0.0597989,0.0565028,0.0422821,-0.000526428
-0.308379,-0.230903,0.323,0.0199277,-0.0826405,0.0705201,0.0422821,-0.000526428
-0.354818,-0.243168,0.334495,0.0157221,-0.0988491,0.0573891,0.0422821,-0.000526428
-0.396601,-0.201828,0.336001,0.0118574,-0.101246,0.0345713,0.0422821,-0.000526428
-0.411626,-0.21102,0.357452,0.00947712,-0.109598,0.00648755,0.0422821,-0.000526428
-0.391526,-0.278292,0.350601,0.00979515,-0.108944,-0.0246361,0.0422821,-0.000526428
-0.306907,-0.252847,0.363506,0.00362355,-0.0950693,-0.0597542,0.0422821,-0.000526428
-0.203715,-0.140219,0.418422,-0.00237043,-0.10019,-0.071902,0.0422821,-0.000526428
-0.152151,-0.0584007,0.424688,-0.00454157,-0.108908,-0.0682975,0.0422821,-0.000526428
-0.109031,0.0267681,0.399589,-0.0107318,-0.114589,-0.0630717,0.0422821,-0.000526428
-0.0978191,0.104332,0.34922,-0.0132107,-0.127789,-0.0647339,0.0422821,-0.000526428
-0.169974,0.220442,0.271055,-0.00625736,-0.119815,-0.089375,0.0422821,-0.000526428
-0.267102,0.388752,0.206579,0.00192966,-0.11585,-0.135768,0.0422821,-0.000526428
-0.28015,0.556898,0.186295,0.019697,-0.113967,-0.200669,0.0422821,-0.000526428
-0.211583,0.761522,0.19189,0.0409133,-0.0820578,-0.258983,0.0422821,-0.000526428
-0.130207,0.794445,0.243181,0.0605615,-0.0672353,-0.305054,0.0422821,-0.000526428
-0.0419939,0.609723,0.199432,0.0780011,-0.0482856,-0.349341,0.0422821,-0.000526428
-0.0516039,0.0913334,0.0812532,0.0799524,-0.0414209,-0.432687,0.0422821,-0.000526428
-0.0898823,0.0302126,-0.0482833,0.0743462,0.000849664,-0.408526,0.0422821,-0.000526428
0.00904132,0.129477,-0.087973,0.0237444,0.0730223,-0.422932,0.0422821,-0.000526428
0.205919,0.508522,-0.0048346,0.00863686,0.12932,-0.347797,0.0422821,-0.000526428
0.326509,0.838967,0.177364,0.0173513,0.118409,-0.233889,0.0422821,-0.000526428
0.27875,1.001,0.307334,0.0442321,0.103717,-0.102799,0.0422821,-0.000526428
0.243829,0.732524,0.383851,0.0682787,0.089748,-0.0372264,0.0422821,-0.000526428
0.347222,0.273678,0.511234,0.06054,0.100287,-0.0118084,0.0422821,-0.000526428
0.527554,-0.101631,0.64478,0.0300982,0.108569,0.0277299,0.0422821,-0.000526428
0.678284,-0.303962,0.70206,-0.0178774,0.133566,0.0583614,0.0422821,-0.000526428
0.758,-0.316406,0.678213,-0.0607184,0.144247,0.113258,0.0422821,-0.000526428
0.767117,-0.314767,0.582484,-0.0862775,0.137804,0.135688,0.0422821,-0.000526428
0.695655,-0.208008,0.463073,-0.0991119,0.122262,0.18132,0.0422821,-0.000526428
0.576606,-0.0494493,0.344534,-0.117573,0.122736,0.213458,0.0422821,-0.000526428
0.452614,0.127204,0.21009,-0.121995,0.117778,0.234626,0.0422821,-0.000526428
0.333772,0.288435,0.098694,-0.116638,0.111599,0.267081,0.0422821,-0.000526428
0.229745,0.3058,0.015875,-0.10905,0.104433,0.2698,0.0422821,-0.000526428
0.161362,0.286637,-0.0546641,-0.0970807,0.095672,0.26677,0.0422821,-0.000526428
0.104299,0.285255,-0.0800888,-0.0843174,0.0786007,0.281967,0.0422821,-0.000526428
0.0463118,0.223467,-0.100552,-0.0746425,0.063996,0.278554,0.0422821,-0.000526428
-0.026337,0.126281,-0.126794,-0.0545144,0.0372436,0.267696,0.0422821,-0.000526428
-0.150877,0.0131207,-0.139215,-0.0351695,0.002454,0.254432,0.0422821,-0.000526428
-0.150877,0.0131207,-0.139215,-0.0351695,0.002454,0.254432,0.0449066,-0.000526428
-0.34395,-0.0235439,-0.157098,-0.0150557,-0.0177386,0.245935,0.0449066,-0.000526428
-0.476128,-0.0175639,-0.155558,0.00641975,-0.0387085,0.209052,0.0449066,-0.000526428
-0.52993,-0.0335903,-0.120302,0.0193436,-0.0565082,0.167062,0.0449066,-0.000526428
-0.557672,-0.0291988,-0.0731695,0.0301998,-0.0583048,0.126233,0.0449066,-0.000526428
-0.529683,-0.0588338,0.0122869,0.0564571,-0.0715547,0.0894731,0.0449066,-0.000526428
-0.469802,-0.15068,0.123581,0.0760821,-0.0891172,0.0505644,0.0449066,-0.000526428
-0.399966,-0.206139,0.254457,0.0851471,-0.0973273,0.0314834,0.0449066,-0.000526428
-0.329043,-0.224715,0.395898,0.0926623,-0.119045,0.0135683,0.0449066,-0.000526428
-0.291892,-0.197977,0.497283,0.0964345,-0.137392,-0.000490725,0.0449066,-0.000526428
-0.235399,-0.175444,0.540227,0.101789,-0.152332,-0.0162565,0.0449066,-0.000526428
-0.165861,-0.19378,0.54591,0.0977155,-0.163353,-0.0441942,0.0449066,-0.000526428
-0.117754,-0.16817,0.525292,0.101343,-0.167611,-0.0627691,0.0449066,-0.000526428
-0.0986728,-0.109402,0.524192,0.106268,-0.180511,-0.0865101,0.0449066,-0.000526428
-0.0744717,-0.0800834,0.520587,0.0944205,-0.157365,-0.129942,0.0449066,-0.000526428
0.0267806,-0.065048,0.494441,0.0783964,-0.128818,-0.187162,0.0449066,-0.000526428
0.155621,0.0140725,0.523298,0.0841394,-0.113098,-0.22577,0.0449066,-0.000526428
0.198069,-0.0220523,0.565279,0.0827662,-0.0874372,-0.265302,0.0449066,-0.000526428
0.0167829,-0.176627,0.513278,0.0787048,-0.0743399,-0.285731,0.0449066,-0.000526428
-0.386135,-0.551991,0.25771,0.0745419,-0.0370801,-0.356811,0.0449066,-0.000526428
-0.626118,-0.508314,0.00956702,0.0616001,0.0242324,-0.411356,0.0449066,-0.000526428
-0.609739,0.0955487,0.028921,0.0558073,0.08882,-0.378069,0.0449066,-0.000526428
-0.350261,0.608852,0.291084,0.0498791,0.15038,-0.333684,0.0449066,-0.000526428
-0.0506807,0.757948,0.586689,0.0519546,0.157873,-0.211649,0.0449066,-0.000526428
0.0885792,0.669947,0.72094,0.0324512,0.141447,-0.0511143,0.0449066,-0.000526428
0.108229,0.415271,0.634692,-0.00449364,0.119606,0.0700133,0.0449066,-0.000526428
0.0865044,0.0724196,0.393373,-0.0316191,0.127157,0.127304,0.0449066,-0.000526428
0.0962837,-0.245428,0.0950424,-0.055546,0.154303,0.106566,0.0449066,-0.000526428
0.117601,-0.330531,-0.108333,-0.0622836,0.17891,0.0836047,0.0449066,-0.000526428
0.125692,-0.277949,-0.227844,-0.0696297,0.190404,0.0507435,0.0449066,-0.000526428
0.127044,-0.186292,-0.373958,-0.0763772,0.1931,0.000266254,0.0449066,-0.000526428
0.0784317,-0.00624299,-0.549848,-0.0854206,0.199528,-0.0250701,0.0449066,-0.000526428
0.0447452,0.226159,-0.676991,-0.0990476,0.204363,-0.0259358,0.0449066,-0.000526428
0.115948,0.464306,-0.73031,-0.103868,0.200798,0.0142206,0.0449066,-0.000526428
0.152138,0.630176,-0.664655,-0.111316,0.168807,0.0688109,0.0449066,-0.000526428
0.0691582,0.885734,-0.489361,-0.119665,0.112993,0.192456,0.0449066,-0.000526428
-0.00917879,1.04673,-0.344911,-0.126493,0.0556066,0.281759,0.0449066,-0.000526428
-0.0974801,0.929864,-0.300188,-0.123826,0.00241056,0.302754,0.0449066,-0.000526428
-0.222395,0.633034,-0.300952,-0.117044,-0.0414144,0.309494,0.0449066,-0.000526428
-0.345196,0.25791,-0.33086,-0.103982,-0.0706697,0.295354,0.0449066,-0.000526428
-0.436146,-0.147655,-0.359244,-0.0765323,-0.105472,0.274525,0.0449066,-0.000526428
-0.464447,-0.604519,-0.384435,-0.0515716,-0.119655,0.235746,0.0449066,-0.000526428
-0.285382,-0.86712,-0.406315,-0.0307787,-0.0850711,0.149538,0.0449066,-0.000526428
0.0222972,-0.732816,-0.356181,-0.00551715,-0.064673,0.0984626,0.0449066,-0.000526428
0.18868,-0.380721,-0.255428,0.00952269,-0.0570177,0.0861274,0.0449066,-0.000526428
0.0621827,-0.104841,-0.157215,0.0287444,-0.0732037,0.108036,0.0449066,-0.000526428
-0.158474,-0.111735,-0.0917983,0.0452468,-0.0953134,0.110995,0.0449066,-0.000526428
-0.247852,-0.225934,-0.0672792,0.0582252,-0.0996795,0.0811134,0.0449066,-0.000526428
-0.155554,-0.316872,-0.0492624,0.0470702,-0.0923358,0.0481738,0.0449066,-0.000526428
-0.0248059,-0.346823,-0.0271517,0.0448163,-0.0775733,0.0236069,0.0449066,-0.000526428
0.037335,-0.292185,0.0277341,0.0317125,-0.0778782,0.0317547,0.0449066,-0.000526428
0.037335,-0.292185,0.0277341,0.0317125,-0.0778782,0.0317547,0.0951233,-0.00111389
0.00124841,-0.24901,0.0535364,0.0230245,-0.0755624,0.0403737,0.0951233,-0.00111389
0.00089874,-0.203286,0.0490118,0.0201016,-0.0875763,0.0150208,0.0951233,-0.00111389
-0.070746,-0.0500613,0.05446,0.0122676,-0.098906,0.0370945,0.0951233,-0.00111389
-0.165647,0.00311407,0.035648,0.0224912,-0.0918061,0.0131396,0.0951233,-0.00111389
-0.0936769,0.122833,0.104522,0.0266635,-0.0858055,-0.0567018,0.0951233,-0.00111389
-0.0547713,0.256981,0.195004,0.0268297,-0.0876422,-0.072728,0.0951233,-0.00111389
-0.088873,0.249616,0.244903,0.039656,-0.0935866,-0.103743,0.0951233,-0.00111389
-0.0738432,0.196202,0.344647,0.0724536,-0.112285,-0.172732,0.0951233,-0.00111389
-0.0721049,0.223185,0.4562,0.0728222,-0.101407,-0.22544,0.0951233,-0.00111389
-0.0867441,0.37661,0.550001,0.0697895,-0.0988369,-0.266022,0.0951233,-0.00111389
-0.0104143,0.559999,0.659623,0.0717591,-0.113246,-0.312786,0.0951233,-0.00111389
0.108317,0.688141,0.801587,0.0543734,-0.101553,-0.312367,0.0951233,-0.00111389
0.220083,0.627079,0.910204,0.0481636,-0.0996406,-0.282892,0.0951233,-0.00111389
0.238269,0.374385,0.879845,0.0507357,-0.104053,-0.261257,0.0951233,-0.00111389
0.172368,0.0592676,0.729227,0.0348376,-0.0564407,-0.252494,0.0951233,-0.00111389
0.113624,-0.0693793,0.603173,0.0156428,0.00927065,-0.257385,0.0951233,-0.00111389
0.130654,0.0144971,0.585697,0.00578994,0.0734364,-0.260137,0.0951233,-0.00111389
0.272811,0.155242,0.654154,-0.00327945,0.127599,-0.242474,0.0951233,-0.00111389
0.453069,0.229634,0.724873,-0.0147541,0.152722,-0.199214,0.0951233,-0.00111389
0.512453,0.174582,0.65871,-0.0166262,0.126506,-0.118569,0.0951233,-0.00111389
0.45474,-0.0118796,0.449715,-0.0295591,0.114043,-0.0391616,0.0951233,-0.00111389
0.363519,-0.197874,0.193772,-0.0425081,0.0992773,0.0104708,0.0951233,-0.00111389
0.2437,-0.151953,-0.0397955,-0.0553533,0.099387,0.079493,0.0951233,-0.00111389
0.195239,0.0666413,-0.140016,-0.0667423,0.111677,0.132139,0.0951233,-0.00111389
0.186697,0.274503,-0.123337,-0.0602139,0.10033,0.171551,0.0951233,-0.00111389
0.131836,0.410168,-0.0880209,-0.0551606,0.0835159,0.215836,0.0951233,-0.00111389
0.0627087,0.337907,-0.0604866,-0.0428421,0.0678607,0.237664,0.0951233,-0.00111389
0.0505306,0.145578,-0.0406205,-0.0313402,0.0539449,0.233394,0.0951233,-0.00111389
0.03565,-0.00613839,-0.0271083,-0.0192522,0.0455219,0.24175,0.0951233,-0.00111389
0.0343861,-0.137714,0.0217525,-0.00412247,0.0340098,0.241655,0.0951233,-0.00111389
0.0156658,-0.252064,0.11776,0.0133155,0.0249764,0.223365,0.0951233,-0.00111389
0.0271713,-0.37175,0.213031,0.0198695,0.0271697,0.192979,0.0951233,-0.00111389
0.111584,-0.474067,0.248299,0.0127181,0.0382897,0.147419,0.0951233,-0.00111389
0.191049,-0.451676,0.242944,0.00637943,0.0399836,0.131826,0.0951233,-0.00111389
0.207432,-0.331854,0.239327,0.00142552,0.0289674,0.138473,0.0951233,-0.00111389
0.141357,-0.202629,0.20533,-0.00361052,0.0144975,0.161356,0.0951233,-0.00111389
0.0372597,-0.168473,0.127915,-0.0039676,-0.00982755,0.168038,0.0951233,-0.00111389
-0.0615341,-0.182046,0.0309576,-0.000726238,-0.0301007,0.171106,0.0951233,-0.00111389
-0.125788,-0.190277,-0.0566667,-0.000148401,-0.0414397,0.155824,0.0951233,-0.00111389
-0.181483,-0.137995,-0.123818,0.00513847,-0.0575725,0.147817,0.0951233,-0.00111389
-0.238823,-0.0775152,-0.167985,0.00913854,-0.0638482,0.121342,0.0951233,-0.00111389
-0.286142,-0.0151386,-0.161711,0.0253774,-0.0805259,0.103324,0.0951233,-0.00111389
-0.304556,0.00346967,-0.129069,0.0341127,-0.0785063,0.0628918,0.0951233,-0.00111389
-0.276095,0.0383619,-0.101832,0.0444421,-0.0820625,0.0335572,0.0951233,-0.00111389
-0.16397,-0.0148078,-0.0341124,0.0468884,-0.077743,0.0107144,0.0951233,-0.00111389
-0.104242,-0.0410102,0.0373108,0.0623996,-0.0862347,-0.00690103,0.0951233,-0.00111389
-0.0254647,-0.123398,0.0956857,0.0641159,-0.0881006,-0.0254267,0.0951233,-0.00111389
0.0132656,-0.213522,0.127296,0.0706621,-0.0850216,-0.0730468,0.0951233,-0.00111389
0.104052,-0.286338,0.191887,0.0906756,-0.0776722,-0.130024,0.0951233,-0.00111389
0.268311,-0.32259,0.297655,0.0893629,-0.0651492,-0.194893,0.0951233,-0.00111389
0.268311,-0.32259,0.297655,0.0893629,-0.0651492,-0.194893,0.110977,-0.00130463
0.436929,-0.332312,0.401827,0.0873837,-0.0536069,-0.230257,0.110977,-0.00130463
0.381253,-0.232892,0.458642,0.0957722,-0.0945137,-0.201203,0.110977,-0.00130463
0.0243763,-0.165863,0.343247,0.103724,-0.14299,-0.168349,0.110977,-0.00130463
-0.528338,-0.299599,0.025974,0.0962422,-0.124524,-0.209298,0.110977,-0.00130463
-0.883319,-0.499287,-0.359257,0.0668813,-0.0412706,-0.326246,0.110977,-0.00130463
-0.741184,-0.318316,-0.525319,0.0395725,0.0331435,-0.394087,0.110977,-0.00130463
-0.198279,-0.108033,-0.487043,0.0411255,0.125067,-0.401614,0.110977,-0.00130463
0.35333,0.0087277,-0.106722,0.0115785,0.147576,-0.300144,0.110977,-0.00130463
0.575616,-0.132108,0.348135,-0.00532545,0.108765,-0.200321,0.110977,-0.00130463
0.598134,-0.425573,0.508302,-0.0124913,0.0911083,-0.156627,0.110977,-0.00130463
0.765562,-0.638429,0.339699,-0.0650416,0.0971642,-0.146986,0.110977,-0.00130463
1.10344,-0.715795,0.0695315,-0.14278,0.102501,-0.103876,0.110977,-0.00130463
1.29433,-0.697161,-0.242715,-0.174417,0.117745,-0.0059908,0.110977,-0.00130463
1.18358,-0.718639,-0.512916,-0.154265,0.0968629,0.0952271,0.110977,-0.00130463
0.833234,-0.686471,-0.747915,-0.119784,0.0789568,0.161922,0.110977,-0.00130463
0.421401,-0.615359,-0.9833,-0.0951528,0.0952513,0.203492,0.110977,-0.00130463
0.0953973,-0.596002,-1.18431,-0.0467422,0.116296,0.19475,0.110977,-0.00130463
-0.0354185,-0.610603,-1.19717,-0.0028758,0.154249,0.168311,0.110977,-0.00130463
0.0389298,-0.675732,-1.04284,0.0225404,0.198615,0.125287,0.110977,-0.00130463
0.210055,-0.647818,-0.820776,0.0456956,0.195484,0.112915,0.110977,-0.00130463
0.23233,-0.439488,-0.594917,0.0481792,0.195487,0.154844,0.110977,-0.00130463
0.15767,-0.181407,-0.372707,0.0422148,0.180976,0.20211,0.110977,-0.00130463
0.0842984,-0.0258707,-0.211057,0.03548,0.15084,0.245787,0.110977,-0.00130463
0.0191688,-0.0803849,-0.174067,0.0402149,0.117306,0.281438,0.110977,-0.00130463
-0.0416903,-0.308269,-0.188522,0.0527659,0.0755154,0.298429,0.110977,-0.00130463
-0.100063,-0.552797,-0.186639,0.0609386,0.0480042,0.298012,0.110977,-0.00130463
-0.106291,-0.73564,-0.158027,0.0617982,0.0288814,0.27662,0.110977,-0.00130463
-0.139497,-0.71048,-0.110566,0.0676581,-0.00842369,0.249172,0.110977,-0.00130463
-0.24639,-0.617167,-0.085945,0.0586175,-0.038469,0.211998,0.110977,-0.00130463
-0.458793,-0.420044,-0.0992845,0.0461201,-0.064347,0.167621,0.110977,-0.00130463
-0.649326,-0.217733,-0.152334,0.0406953,-0.0932786,0.113207,0.110977,-0.00130463
-0.586599,-0.160412,-0.220827,0.0331185,-0.102667,0.00843704,0.110977,-0.00130463
-0.420146,-0.0512213,-0.231505,0.0258112,-0.103371,-0.045045,0.110977,-0.00130463
-0.329685,0.0756954,-0.184971,0.0301113,-0.0876318,-0.0511355,0.110977,-0.00130463
-0.285241,0.101542,-0.0507843,0.0390139,-0.0910858,-0.0516505,0.110977,-0.00130463
-0.228032,0.0638404,0.0791879,0.0371195,-0.09044,-0.0562953,0.110977,-0.00130463
-0.108752,0.0620266,0.151477,0.0157937,-0.0799406,-0.0449418,0.110977,-0.00130463
0.0493309,0.108997,0.182576,-0.0113784,-0.0796517,-0.0177225,0.110977,-0.00130463
0.141463,0.126844,0.164336,-0.031477,-0.0849358,0.0107805,0.110977,-0.00130463
0.125314,0.152492,0.0830324,-0.0378213,-0.0789335,0.0393625,0.110977,-0.00130463
0.0495061,0.175136,0.0269522,-0.0364256,-0.0822688,0.0374098,0.110977,-0.00130463
-0.041716,0.204423,0.012563,-0.0239286,-0.0915453,0.0173696,0.110977,-0.00130463
-0.0476072,0.23224,-0.00485411,-0.000905998,-0.0910691,-0.0293932,0.110977,-0.00130463
0.0177258,0.237704,-0.00414891,0.0115977,-0.0872714,-0.0603885,0.110977,-0.00130463
0.0610029,0.207418,-0.0150215,0.030627,-0.104851,-0.097797,0.110977,-0.00130463
-0.0506152,0.0751724,-0.0308016,0.0401902,-0.10305,-0.133295,0.110977,-0.00130463
-0.27702,-0.157896,-0.0530842,0.0252769,-0.0841718,-0.227613,0.110977,-0.00130463
-0.40367,-0.189171,-0.0933632,-0.00727964,-0.0452951,-0.321067,0.110977,-0.00130463
-0.372687,0.0698727,-0.151221,-0.0438536,-0.0123224,-0.386575,0.110977,-0.00130463
-0.28462,0.36161,-0.192596,-0.0651599,0.0143314,-0.402719,0.110977,-0.00130463
-0.28462,0.36161,-0.192596,-0.0651599,0.0143314,-0.402719,0.177048,-0.00211334
-0.14092,0.397315,-0.180556,-0.0690924,0.0368215,-0.390317,0.177048,-0.00211334
0.0181114,0.275111,-0.16473,-0.0622962,0.0523945,-0.333491,0.177048,-0.00211334
0.18636,0.230372,-0.150238,-0.05521,0.0710222,-0.240239,0.177048,-0.00211334
0.286495,0.143826,-0.112944,-0.0358283,0.078246,-0.153647,0.177048,-0.00211334
0.287936,-0.00712281,-0.0836172,-0.0189321,0.0866123,-0.0926487,0.177048,-0.00211334
0.218608,-0.153147,-0.0868233,-0.0125613,0.0957592,-0.0606107,0.177048,-0.00211334
0.179697,-0.264381,-0.11987,-0.0220043,0.120363,-0.0571058,0.177048,-0.00211334
0.220713,-0.243437,-0.139781,-0.0306398,0.120411,-0.023012,0.177048,-0.00211334
0.265434,-0.179507,-0.157257,-0.0291589,0.114992,0.0247406,0.177048,-0.00211334
0.253396,-0.0764747,-0.185432,-0.029502,0.109729,0.094499,0.177048,-0.00211334
0.187409,0.0320211,-0.213157,-0.0237067,0.105197,0.163133,0.177048,-0.00211334
0.074004,0.122378,-0.228078,-0.0156467,0.0887099,0.229463,0.177048,-0.00211334
-0.0890709,0.142222,-0.267617,-0.000537053,0.0776389,0.270706,0.177048,-0.00211334
-0.203125,0.0604696,-0.323849,0.0115753,0.0654786,0.296054,0.177048,-0.00211334
-0.228889,-0.131462,-0.364227,0.021382,0.0645103,0.28691,0.177048,-0.00211334
-0.136854,-0.386982,-0.387446,0.0112888,0.0569361,0.263907,0.177048,-0.00211334
0.0296579,-0.511118,-0.454184,0.00863479,0.0320573,0.251869,0.177048,-0.00211334
0.165671,-0.540979,-0.531205,0.0136392,0.0138227,0.224927,0.177048,-0.00211334
0.121596,-0.41312,-0.513234,0.00185583,0.0159324,0.213842,0.177048,-0.00211334
-0.11123,-0.297876,-0.437324,0.00228941,0.00351149,0.170926,0.177048,-0.00211334
-0.315122,-0.102449,-0.326138,0.00263215,-0.0108663,0.134402,0.177048,-0.00211334
-0.407774,0.123386,-0.235286,0.00324212,-0.0209854,0.0807517,0.177048,-0.00211334
-0.365489,0.244787,-0.209685,0.0142983,-0.0248572,0.0304672,0.177048,-0.00211334
-0.235865,0.269393,-0.191669,0.0314488,-0.0448874,0.00650913,0.177048,-0.00211334
-0.139599,0.195444,-0.178884,0.0561172,-0.0523743,0.0100561,0.177048,-0.00211334
-0.096729,0.0819189,-0.104566,0.0725506,-0.0683574,0.0179222,0.177048,-0.00211334
-0.0816251,0.0017583,-0.0296251,0.0825124,-0.0800567,0.0318729,0.177048,-0.00211334
-0.085587,-0.0230907,0.025157,0.0784784,-0.0872501,0.0313638,0.177048,-0.00211334
-0.0794258,0.0207625,0.0617829,0.0657597,-0.0888732,0.0359532,0.177048,-0.00211334
-0.0479918,0.0922118,0.0922308,0.0584894,-0.0922055,0.0359486,0.177048,-0.00211334
-0.0191142,0.138603,0.144033,0.0594281,-0.0990643,0.0444001,0.177048,-0.00211334
-0.00864204,0.100915,0.203671,0.0637968,-0.11102,0.0431535,0.177048,-0.00211334
-0.024577,0.0014873,0.236054,0.0619021,-0.106548,0.0294669,0.177048,-0.00211334
-0.0260977,-0.0647436,0.251797,0.0490814,-0.106495,0.00732559,0.177048,-0.00211334
-0.0340837,-0.0835289,0.237533,0.0332981,-0.0947409,-0.0293661,0.177048,-0.00211334
-0.0551761,-0.0661264,0.194658,0.0177316,-0.0917274,-0.0758908,0.177048,-0.00211334
-0.0506505,0.0277594,0.121329,0.0027334,-0.0818208,-0.117876,0.177048,-0.00211334
-0.00517987,0.149123,0.0869264,0.00605666,-0.0859543,-0.164204,0.177048,-0.00211334
0.00744597,0.272878,0.0554381,0.0169889,-0.0883118,-0.169154,0.177048,-0.00211334
-0.207506,0.0923521,0.0289826,0.0283249,-0.0640026,-0.189261,0.177048,-0.00211334
-0.608315,-0.140612,-0.0257141,0.0136,-0.0310736,-0.233827,0.177048,-0.00211334
-0.897519,-0.269479,-0.21649,-0.0224559,0.0376967,-0.292813,0.177048,-0.00211334
-0.818507,-0.349994,-0.42334,-0.048661,0.114821,-0.365501,0.177048,-0.00211334
-0.365302,-0.340328,-0.485757,-0.0524845,0.174862,-0.393202,0.177048,-0.00211334
0.164769,-0.305941,-0.333011,-0.0630381,0.186272,-0.311378,0.177048,-0.00211334
0.391577,-0.228875,-0.0890767,-0.0395207,0.162566,-0.182972,0.177048,-0.00211334
0.255438,-0.137034,0.118813,-0.0208646,0.121631,-0.0693626,0.177048,-0.00211334
0.0121453,-0.166871,0.151592,-0.0345005,0.111007,-0.0337941,0.177048,-0.00211334
-0.0532367,-0.177882,0.0216944,-0.0490965,0.115136,-0.023317,0.177048,-0.00211334
0.0928889,-0.135914,-0.159978,-0.0752523,0.110453,-0.035502,0.177048,-0.00211334
0.239674,-0.0537784,-0.295037,-0.0748399,0.114252,-0.01748,0.177048,-0.00211334
0.277711,0.101467,-0.350978,-0.0610448,0.110244,0.0525232,0.177048,-0.00211334
0.231554,0.22385,-0.321566,-0.0377811,0.0877634,0.114957,0.177048,-0.00211334
0.177409,0.322698,-0.280822,-0.0080101,0.0657223,0.183978,0.177048,-0.00211334
0.154231,0.347018,-0.247659,0.0217982,0.0470377,0.233112,0.177048,-0.00211334
0.135255,0.287316,-0.179321,0.0577417,0.0201114,0.258936,0.177048,-0.00211334
0.0660164,0.225138,-0.0697401,0.0965215,-0.0146256,0.273788,0.177048,-0.00211334
-0.0111453,0.06112,0.0672336,0.120054,-0.0256657,0.246293,0.177048,-0.00211334
0.0600377,-0.173,0.161685,0.106392,-0.00618665,0.189771,0.177048,-0.00211334
0.300508,-0.341274,0.161195,0.075804,0.0176407,0.131779,0.177048,-0.00211334
0.505625,-0.265276,0.105259,0.0406128,0.0372914,0.113013,0.177048,-0.00211334
0.498639,-0.0189589,0.0635542,0.0108349,0.0466534,0.134333,0.177048,-0.00211334
0.498639,-0.0189589,0.0635542,0.0108349,0.0466534,0.134333,0.200806,-0.00238037
0.293373,0.11721,0.0811316,-0.00169677,0.0372429,0.134419,0.200806,-0.00238037
0.0504208,0.141557,0.150196,-0.023158,0.0273345,0.121664,0.200806,-0.00238037
-0.0404942,0.139163,0.187823,-0.0408581,0.02643,0.0945109,0.200806,-0.00238037
-0.0136029,0.180842,0.158913,-0.0480341,0.00858487,0.0774074,0.200806,-0.00238037
0.0248398,0.266982,0.102046,-0.0552667,-0.00344445,0.103992,0.200806,-0.00238037
-0.0208794,0.291444,0.0751329,-0.0459918,-0.0244413,0.130795,0.200806,-0.00238037
-0.110627,0.274446,0.0816054,-0.025975,-0.0542148,0.161729,0.200806,-0.00238037
-0.20298,0.210241,0.0816909,-0.00622123,-0.0764738,0.16895,0.200806,-0.00238037
-0.230775,0.0928588,0.0862872,0.00891798,-0.091721,0.150975,0.200806,-0.00238037
-0.105475,-0.197804,0.0818252,0.0299207,-0.10942,0.0839392,0.200806,-0.00238037
0.135292,-0.52471,0.0603704,0.0638164,-0.119069,0.0444818,0.200806,-0.00238037
0.344678,-0.797628,0.0342141,0.0894196,-0.116457,-0.00267732,0.200806,-0.00238037
0.434224,-0.801758,0.0663322,0.0937522,-0.124174,-0.0128595,0.200806,-0.00238037
0.372254,-0.55329,0.138996,0.0655194,-0.123099,-0.015705,0.200806,-0.00238037
0.194742,-0.14579,0.203965,0.0415147,-0.121231,-0.0298186,0.200806,-0.00238037
-0.0380702,0.274248,0.250227,0.0227539,-0.12447,-0.0550732,0.200806,-0.00238037
-0.211219,0.540283,0.323915,0.0104831,-0.112462,-0.0974615,0.200806,-0.00238037
-0.216568,0.623827,0.42237,0.00515631,-0.107866,-0.154082,0.200806,-0.00238037
-0.0933562,0.646241,0.520935,0.0199314,-0.121663,-0.190271,0.200806,-0.00238037
-0.043152,0.554166,0.584752,0.0441317,-0.122524,-0.21415,0.200806,-0.00238037
-0.142481,0.509178,0.614045,0.0385385,-0.117166,-0.239201,0.200806,-0.00238037
-0.28226,0.52106,0.583888,0.0527523,-0.112521,-0.253811,0.200806,-0.00238037
-0.407516,0.384892,0.518947,0.0666017,-0.0818487,-0.284621,0.200806,-0.00238037
-0.534071,0.0468755,0.538785,0.0568885,-0.0356437,-0.336384,0.200806,-0.00238037
-0.551935,-0.24024,0.604618,0.0318414,0.0248188,-0.372067,0.200806,-0.00238037
-0.381661,-0.260525,0.64994,0.000802785,0.0913554,-0.425396,0.200806,-0.00238037
0.0126438,-0.0248891,0.687551,-0.0168755,0.0994009,-0.421387,0.200806,-0.00238037
0.323463,0.14551,0.688696,-0.0081437,0.0935276,-0.369486,0.200806,-0.00238037
0.394992,0.114902,0.595468,0.00804966,0.088217,-0.277522,0.200806,-0.00238037
0.405743,0.0554765,0.454295,0.00148782,0.0851081,-0.189581,0.200806,-0.00238037
0.462409,0.200206,0.290732,-0.00334757,0.0943336,-0.0771572,0.200806,-0.00238037
0.507958,0.416673,0.163806,-0.0143187,0.101503,0.0370902,0.200806,-0.00238037
0.459909,0.648475,0.0641765,-0.00899304,0.102051,0.177337,0.200806,-0.00238037
0.297357,0.792029,0.0176021,0.00905909,0.0970923,0.2986,0.200806,-0.00238037
0.0678965,0.926679,0.0469206,0.0355215,0.0806352,0.414107,0.200806,-0.00238037
-0.149133,0.889413,0.139286,0.057051,0.0732607,0.458068,0.200806,-0.00238037
-0.181096,0.698776,0.300446,0.0734375,0.072748,0.446595,0.200806,-0.00238037
-0.0688809,0.494118,0.48778,0.0929323,0.0825615,0.427155,0.200806,-0.00238037
0.100369,0.306361,0.683603,0.0937923,0.0907121,0.405475,0.200806,-0.00238037
0.206852,0.137291,0.858586,0.0957731,0.0910251,0.387487,0.200806,-0.00238037
0.206233,-0.040687,0.970606,0.0964575,0.0806426,0.369027,0.200806,-0.00238037
0.108806,-0.339244,0.964085,0.096837,0.0730331,0.322503,0.200806,-0.00238037
-0.0356957,-0.493062,0.864767,0.0971088,0.0616599,0.29403,0.200806,-0.00238037
-0.236932,-0.426435,0.752115,0.101609,0.0388183,0.250139,0.200806,-0.00238037
-0.447733,-0.201117,0.648128,0.0874031,0.0342355,0.190017,0.200806,-0.00238037
-0.605318,0.0329896,0.590346,0.0914411,0.0214478,0.130812,0.200806,-0.00238037
-0.708862,0.214468,0.596294,0.125266,-0.0158398,0.0975036,0.200806,-0.00238037
-0.758964,0.329211,0.649267,0.16225,-0.0495121,0.0815229,0.200806,-0.00238037
-0.758964,0.329211,0.649267,0.16225,-0.0495121,0.0815229,0.0449219,-0.000518799
-0.838716,0.401966,0.723492,0.217271,-0.0915151,0.0892684,0.0449219,-0.000518799
-0.895305,0.410949,0.831442,0.252838,-0.127314,0.0840206,0.0449219,-0.000518799
-0.902188,0.348036,0.963945,0.288989,-0.162314,0.0664852,0.0449219,-0.000518799
-0.79223,0.308119,1.13084,0.303351,-0.184698,0.0178448,0.0449219,-0.000518799
-0.583832,0.203384,1.27357,0.282514,-0.170067,-0.0465754,0.0449219,-0.000518799
-0.322202,0.160965,1.37696,0.247373,-0.154646,-0.0892067,0.0449219,-0.000518799
-0.0631392,0.168447,1.42173,0.219202,-0.136111,-0.123799,0.0449219,-0.000518799
0.181761,0.254229,1.43541,0.182813,-0.114292,-0.134797,0.0449219,-0.000518799
0.365033,0.309944,1.44347,0.138622,-0.0777932,-0.164077,0.0449219,-0.000518799
0.435114,0.366552,1.45694,0.11486,-0.0581093,-0.187653,0.0449219,-0.000518799
0.34877,0.370049,1.54395,0.118083,-0.0816378,-0.233993,0.0449219,-0.000518799
0.018,0.12432,1.47749,0.104806,-0.0674217,-0.326666,0.0449219,-0.000518799
-0.300328,0.0772935,1.20341,0.0203467,0.032312,-0.353238,0.0449219,-0.000518799
-0.291351,0.179592,1.00975,-0.0819271,0.163116,-0.364894,0.0449219,-0.000518799
0.171505,0.331488,1.08712,-0.140096,0.255045,-0.345906,0.0449219,-0.000518799
0.7782,0.421104,1.53843,-0.17536,0.211905,-0.202859,0.0449219,-0.000518799
1.15619,0.28935,2.04228,-0.178781,0.106885,-0.0806146,0.0449219,-0.000518799
1.14452,-0.133888,2.03059,-0.150782,0.0807186,-0.0887985,0.0449219,-0.000518799
1.27245,-0.181944,1.59241,-0.153688,0.0109307,0.0387715,0.0449219,-0.000518799
1.306,-0.213321,0.882238,-0.16751,0.00542444,0.0533769,0.0449219,-0.000518799
1.08438,-0.0427339,0.236832,-0.156406,0.0304767,0.132756,0.0449219,-0.000518799
0.6525,0.172132,-0.234156,-0.0906484,0.0214454,0.185093,0.0449219,-0.000518799
0.217599,0.314967,-0.568587,-0.0260926,0.0393479,0.217186,0.0449219,-0.000518799
0.0587464,0.334859,-0.746371,0.0272894,0.0648226,0.207356,0.0449219,-0.000518799
0.022672,0.447719,-0.775356,0.0670195,0.0675079,0.207267,0.0449219,-0.000518799
-0.0398084,0.604419,-0.715269,0.0918774,0.0740904,0.234296,0.0449219,-0.000518799
-0.133402,0.70035,-0.592853,0.114823,0.0808551,0.269734,0.0449219,-0.000518799
-0.187815,0.627271,-0.43181,0.127889,0.0753296,0.267073,0.0449219,-0.000518799
-0.210979,0.520588,-0.252701,0.154985,0.0682629,0.275916,0.0449219,-0.000518799
-0.25716,0.343784,-0.00619832,0.170457,0.0497075,0.245897,0.0449219,-0.000518799
-0.299019,0.0555369,0.325471,0.15566,0.0362357,0.214001,0.0449219,-0.000518799
-0.344175,-0.204444,0.682895,0.12144,0.0147516,0.171764,0.0449219,-0.000518799
-0.278909,-0.391798,0.879364,0.0611912,0.0113438,0.125907,0.0449219,-0.000518799
-0.181406,-0.342035,0.840642,-0.00240031,0.0373525,0.0790102,0.0449219,-0.000518799
-0.0999787,-0.0778482,0.647562,-0.0306153,0.0449328,0.0839585,0.0449219,-0.000518799
-0.0875599,0.122155,0.483212,-0.00173241,0.0265117,0.0981045,0.0449219,-0.000518799
-0.183828,0.201619,0.517451,0.0406428,-0.0145743,0.124952,0.0449219,-0.000518799
-0.368176,0.117118,0.667015,0.0658578,-0.0355654,0.116416,0.0449219,-0.000518799
-0.543205,0.066524,0.702611,0.0818474,-0.0634648,0.0859303,0.0449219,-0.000518799
-0.705633,0.097396,0.550981,0.106026,-0.0703531,0.0278704,0.0449219,-0.000518799
-0.803741,0.120124,0.423566,0.103584,-0.0668027,-0.0357621,0.0449219,-0.000518799
-0.768443,0.046749,0.42891,0.112511,-0.0545223,-0.105544,0.0449219,-0.000518799
-0.477956,-0.0880539,0.553051,0.135205,-0.0740614,-0.166844,0.0449219,-0.000518799
-0.179429,-0.0948354,0.736204,0.165798,-0.0965127,-0.194205,0.0449219,-0.000518799
-0.150657,-0.0443644,0.858923,0.179666,-0.134778,-0.172166,0.0449219,-0.000518799
-0.420723,-0.0369874,0.773128,0.201324,-0.137873,-0.178135,0.0449219,-0.000518799
-0.663869,0.0906989,0.544057,0.22015,-0.106434,-0.204844,0.0449219,-0.000518799
-0.568124,0.309723,0.427031,0.241395,-0.0678038,-0.27093,0.0449219,-0.000518799
-0.568124,0.309723,0.427031,0.241395,-0.0678038,-0.27093,0.200821,-0.00236511
-0.21412,0.246713,0.501974,0.277264,0.00709347,-0.272954,0.200821,-0.00236511
0.00201395,0.422574,0.763989,0.317966,0.0691801,-0.20792,0.200821,-0.00236511
0.0854229,0.707373,1.18307,0.350928,0.0904856,-0.0931394,0.200821,-0.00236511
0.147876,0.534141,1.55148,0.371038,0.150596,-0.0600132,0.200821,-0.00236511
0.142875,0.209592,1.85906,0.385531,0.166941,-0.0379751,0.200821,-0.00236511
0.160898,-0.13208,2.09667,0.364843,0.203269,-0.0500757,0.200821,-0.00236511
0.207132,-0.410159,2.2474,0.308817,0.239919,-0.0833719,0.200821,-0.00236511
0.325044,-0.43361,2.25672,0.231328,0.287027,-0.141052,0.200821,-0.00236511
0.602264,-0.179398,2.15679,0.138367,0.324771,-0.186539,0.200821,-0.00236511
0.815952,0.348496,1.98304,0.0542762,0.346091,-0.141534,0.200821,-0.00236511
0.765486,0.74889,1.85917,0.00990937,0.311636,-0.0595468,0.200821,-0.00236511
0.592217,0.861332,1.79408,-0.00845723,0.256404,0.0311344,0.200821,-0.00236511
0.481728,0.778753,1.71886,-0.0350379,0.222955,0.0995548,0.200821,-0.00236511
0.415763,0.658696,1.59772,-0.0480916,0.204782,0.135569,0.200821,-0.00236511
0.418838,0.65254,1.46752,-0.0708043,0.214248,0.16,0.200821,-0.00236511
0.424585,0.686063,1.37948,-0.0918434,0.210961,0.177155,0.200821,-0.00236511
0.304842,0.861135,1.27733,-0.098187,0.191233,0.206158,0.200821,-0.00236511
0.0554194,1.10482,1.1581,-0.085449,0.163604,0.243255,0.200821,-0.00236511
-0.218156,1.13233,1.05129,-0.0764823,0.145135,0.241184,0.200821,-0.00236511
-0.390028,0.899702,0.967847,-0.0623098,0.123395,0.197345,0.200821,-0.00236511
-0.441496,0.613538,0.881928,-0.0569577,0.108369,0.155551,0.200821,-0.00236511
-0.432626,0.419852,0.815922,-0.0535935,0.107934,0.11072,0.200821,-0.00236511
-0.430538,0.355828,0.794385,-0.0533763,0.10714,0.0835481,0.200821,-0.00236511
-0.472682,0.326759,0.792816,-0.0352664,0.0928786,0.0548542,0.200821,-0.00236511
-0.519443,0.185656,0.829336,-0.0018943,0.0753585,0.0302382,0.200821,-0.00236511
-0.593058,0.0956636,0.900929,0.0325235,0.0481375,-0.00977242,0.200821,-0.00236511
-0.669452,-0.0199336,0.937427,0.0452167,0.0359143,-0.0599568,0.200821,-0.00236511
-0.76345,-0.0953943,0.956993,0.0561724,0.00162545,-0.102208,0.200821,-0.00236511
-0.925897,-0.129026,0.902459,0.0318034,-0.0122781,-0.136091,0.200821,-0.00236511
-1.12848,-0.230507,0.703072,0.00206253,-0.00615487,-0.18129,0.200821,-0.00236511
-1.12895,-0.249365,0.45058,-0.0367027,0.0166681,-0.213581,0.200821,-0.00236511
-0.840666,-0.120574,0.430484,-0.0751995,0.0284103,-0.212124,0.200821,-0.00236511
-0.49077,0.0889926,0.629863,-0.0819334,0.0180239,-0.142796,0.200821,-0.00236511
-0.218133,0.122121,0.804415,-0.0695681,-0.0092289,-0.0458186,0.200821,-0.00236511
-0.0811117,0.0257302,0.805685,-0.0512239,-0.0480711,0.0469316,0.200821,-0.00236511
-0.085349,0.0140349,0.703865,-0.0170071,-0.079541,0.14777,0.200821,-0.00236511
-0.285957,0.128737,0.558112,0.0296664,-0.123824,0.224512,0.200821,-0.00236511
-0.662484,0.224996,0.334113,0.0667158,-0.14862,0.260476,0.200821,-0.00236511
-0.980372,0.165496,0.0835214,0.128708,-0.15395,0.225185,0.200821,-0.00236511
-1.03531,-0.0637728,-0.0548485,0.178083,-0.13935,0.156051,0.200821,-0.00236511
-0.85959,-0.306443,-0.0654013,0.211099,-0.113604,0.101673,0.200821,-0.00236511
-0.594889,-0.408974,0.0111935,0.258587,-0.0994829,0.0731647,0.200821,-0.00236511
-0.443275,-0.313405,0.167417,0.276739,-0.115018,0.103457,0.200821,-0.00236511
-0.465532,-0.310784,0.269309,0.293883,-0.117309,0.0946817,0.200821,-0.00236511
-0.48226,-0.25088,0.376905,0.302834,-0.133877,0.0768391,0.200821,-0.00236511
-0.414147,-0.228105,0.484838,0.296347,-0.12728,0.00912994,0.200821,-0.00236511
-0.217342,-0.194925,0.60083,0.280606,-0.0973801,-0.050279,0.200821,-0.00236511
0.0949345,-0.145538,0.758851,0.246205,-0.0588026,-0.106766,0.200821,-0.00236511
0.443513,0.0308752,1.0076,0.198051,-0.0339947,-0.107597,0.200821,-0.00236511
0.443513,0.0308752,1.0076,0.198051,-0.0339947,-0.107597,0.161179,-0.00190735
0.610558,0.160625,1.26846,0.160203,-0.0378023,-0.0746446,0.161179,-0.00190735
0.648623,0.145679,1.4036,0.136381,-0.0530384,-0.0548744,0.161179,-0.00190735
0.691479,0.0713683,1.4056,0.0953614,-0.0492751,-0.0536887,0.161179,-0.00190735
0.796327,-0.10546,1.34062,0.0640457,-0.0378346,-0.0819999,0.161179,-0.00190735
0.896881,-0.285594,1.27734,0.0389651,-0.0233244,-0.116561,0.161179,-0.00190735
0.930167,-0.400564,1.21774,0.0154398,-0.0127761,-0.148445,0.161179,-0.00190735
0.836419,-0.318774,1.12985,-0.00476551,-0.00137767,-0.184785,0.161179,-0.00190735
0.617545,0.108289,1.05458,-0.0290334,-0.0172628,-0.176426,0.161179,-0.00190735
0.244991,0.684348,0.910557,-0.0319195,-0.0230352,-0.148959,0.161179,-0.00190735
-0.15091,1.18978,0.766423,-0.00936129,-0.0464021,-0.104732,0.161179,-0.00190735
-0.477346,1.37543,0.599521,0.0402057,-0.0570713,-0.0743782,0.161179,-0.00190735
-0.582224,1.3134,0.487734,0.098692,-0.0595943,-0.0751261,0.161179,-0.00190735
-0.469017,1.08471,0.44114,0.148835,-0.0308211,-0.058508,0.161179,-0.00190735
-0.31268,1.10905,0.551757,0.160832,0.0176122,0.0251254,0.161179,-0.00190735
-0.256489,1.24348,0.803804,0.159087,0.032126,0.132371,0.161179,-0.00190735
-0.388686,1.03059,1.04494,0.203612,0.0213311,0.171453,0.161179,-0.00190735
-0.583905,0.682347,1.18966,0.261396,0.0125116,0.192211,0.161179,-0.00190735
-0.651598,0.241014,1.30432,0.282909,0.0219272,0.125646,0.161179,-0.00190735
-0.502581,-0.192957,1.35173,0.272564,0.073135,0.0266207,0.161179,-0.00190735
-0.214457,-0.470345,1.35715,0.251137,0.133079,-0.0550965,0.161179,-0.00190735
0.0462086,-0.374016,1.37545,0.221277,0.177333,-0.094569,0.161179,-0.00190735
0.169089,0.0919224,1.49931,0.179115,0.179789,-0.0619542,0.161179,-0.00190735
0.126856,0.479543,1.67509,0.138529,0.165644,-0.0235214,0.161179,-0.00190735
0.0907494,0.541172,1.75626,0.131319,0.144445,-0.00281888,0.161179,-0.00190735
0.110719,0.44594,1.64514,0.140204,0.117447,0.00580865,0.161179,-0.00190735
0.173668,0.424571,1.45126,0.107881,0.0930279,0.029899,0.161179,-0.00190735
0.215287,0.463628,1.21813,0.0816251,0.077166,0.0299715,0.161179,-0.00190735
0.218616,0.509597,0.990565,0.0703031,0.0611341,0.0098452,0.161179,-0.00190735
0.186499,0.615271,0.824996,0.0515485,0.0587625,0.00201428,0.161179,-0.00190735
0.12326,0.858589,0.710861,0.0327847,0.0439517,0.0105357,0.161179,-0.00190735
0.0608471,1.11078,0.604148,0.0183472,0.0315362,0.0263655,0.161179,-0.00190735
0.00406095,1.21086,0.506936,0.0222753,0.0102009,0.0402182,0.161179,-0.00190735
-0.0475578,1.24507,0.443839,0.0299448,-0.0132113,0.0575372,0.161179,-0.00190735
-0.113133,1.22701,0.43138,0.0366157,-0.0260182,0.0688938,0.161179,-0.00190735
-0.199567,1.1153,0.449826,0.0701311,-0.0396752,0.0748969,0.161179,-0.00190735
-0.328231,0.791914,0.495558,0.104009,-0.0595878,0.057698,0.161179,-0.00190735
-0.518253,0.432201,0.565291,0.143645,-0.0723224,0.0115584,0.161179,-0.00190735
-0.694664,0.249385,0.62653,0.159034,-0.0749439,-0.056144,0.161179,-0.00190735
-0.946591,0.124981,0.660892,0.165223,-0.0793276,-0.0896474,0.161179,-0.00190735
-1.47203,-0.243406,0.463657,0.153179,-0.0605834,-0.156637,0.161179,-0.00190735
-1.87667,-0.69153,0.0162718,0.105638,0.0271304,-0.352052,0.161179,-0.00190735
-1.57544,-0.580412,-0.361509,0.0663776,0.149054,-0.459979,0.161179,-0.00190735
-0.825898,-0.238198,-0.369432,0.00686854,0.268327,-0.433261,0.161179,-0.00190735
-0.0707161,0.0759074,0.132239,-0.078477,0.223617,-0.297809,0.161179,-0.00190735
0.157565,0.291252,0.762124,-0.104775,0.153959,-0.0924841,0.161179,-0.00190735
-0.0432071,0.210631,1.19652,-0.125453,0.116812,0.00319588,0.161179,-0.00190735
-0.297194,0.113258,1.25729,-0.13255,0.0823807,0.0578768,0.161179,-0.00190735
-0.383758,-0.0168478,0.927835,-0.146863,0.0684777,0.0806815,0.161179,-0.00190735
-0.383758,-0.0168478,0.927835,-0.146863,0.0684777,0.0806815,0.129471,-0.00152588
-0.259934,-0.120507,0.399646,-0.150862,0.0491368,0.0925708,0.129471,-0.00152588
-0.00364024,-0.280984,0.0447602,-0.159351,0.0404113,0.0590974,0.129471,-0.00152588
0.15551,-0.306186,-0.0421368,-0.124172,0.0495899,0.0924009,0.129471,-0.00152588
0.0991966,-0.307945,0.0834774,-0.0912659,0.0289294,0.105432,0.129471,-0.00152588
-0.0236523,-0.288205,0.242284,-0.0875745,0.0272511,0.130458,0.129471,-0.00152588
-0.0616904,-0.274863,0.260192,-0.072365,0.0220409,0.142472,0.129471,-0.00152588
0.000121254,-0.267191,0.187306,-0.0666506,0.0105712,0.159211,0.129471,-0.00152588
0.08379,-0.313076,0.0974342,-0.0563067,-0.00434726,0.167227,0.129471,-0.00152588
0.0952639,-0.37802,0.0581354,-0.038688,-0.0267932,0.189007,0.129471,-0.00152588
0.0407004,-0.39426,0.0680587,-0.0170575,-0.0466027,0.19092,0.129471,-0.00152588
-0.00945539,-0.317761,0.122497,-0.0147187,-0.0680186,0.196716,0.129471,-0.00152588
-0.0478752,-0.278363,0.149936,-0.00412315,-0.0833649,0.182962,0.129471,-0.00152588
-0.0579445,-0.372998,0.154019,0.0123902,-0.112324,0.162776,0.129471,-0.00152588
0.0101913,-0.496834,0.119664,0.0275356,-0.116334,0.12283,0.129471,-0.00152588
0.0781074,-0.494816,0.100575,0.0396916,-0.121534,0.0940644,0.129471,-0.00152588
0.0819652,-0.350401,0.133396,0.0619435,-0.136534,0.0779223,0.129471,-0.00152588
-0.00109232,-0.21155,0.163757,0.0777689,-0.143264,0.0342222,0.129471,-0.00152588
-0.172371,0.0492609,0.146275,0.087652,-0.133723,-0.0164766,0.129471,-0.00152588
-0.385946,0.4013,0.110252,0.0911353,-0.114103,-0.0787812,0.129471,-0.00152588
-0.550794,0.44737,0.0557037,0.117667,-0.0963227,-0.206383,0.129471,-0.00152588
-0.62279,0.189758,0.0511982,0.151383,-0.0755856,-0.349988,0.129471,-0.00152588
-0.552422,0.000136646,0.115292,0.173195,-0.0570242,-0.453461,0.129471,-0.00152588
-0.452792,0.154266,0.130655,0.1458,-0.00713137,-0.484675,0.129471,-0.00152588
-0.568365,0.49616,0.041896,0.0720467,0.0803654,-0.449753,0.129471,-0.00152588
-0.796647,0.714339,-0.0145196,0.0570494,0.0984189,-0.39946,0.129471,-0.00152588
-0.714621,0.703917,0.0624358,0.0618857,0.0840627,-0.370354,0.129471,-0.00152588
-0.28415,0.589317,0.20929,0.0631873,0.0680132,-0.296047,0.129471,-0.00152588
0.224841,0.347866,0.337973,0.0321627,0.0680879,-0.178352,0.129471,-0.00152588
0.574728,0.0472317,0.374967,-0.00338674,0.0580179,-0.0366135,0.129471,-0.00152588
0.682422,-0.135288,0.307603,-0.0227321,0.0378903,0.0857747,0.129471,-0.00152588
0.632499,-0.13293,0.167558,-0.0337812,0.0363836,0.190799,0.129471,-0.00152588
0.445698,-0.0248419,0.0181615,-0.0369617,0.0508434,0.241582,0.129471,-0.00152588
0.258576,0.142951,-0.0813242,-0.0236708,0.0839595,0.279035,0.129471,-0.00152588
0.204992,0.203677,-0.0489758,-0.00188592,0.0995638,0.268534,0.129471,-0.00152588
0.240016,0.149734,0.0566843,0.00901562,0.131381,0.279147,0.129471,-0.00152588
0.286562,0.0116888,0.191335,0.0142833,0.138729,0.288928,0.129471,-0.00152588
0.244316,-0.114106,0.344638,0.0166019,0.136641,0.328067,0.129471,-0.00152588
0.137999,-0.249941,0.514518,0.0218904,0.124813,0.343981,0.129471,-0.00152588
0.0154263,-0.366816,0.646675,0.0171077,0.108105,0.354922,0.129471,-0.00152588
-0.0668131,-0.453264,0.701746,0.0158601,0.102565,0.341534,0.129471,-0.00152588
-0.103024,-0.46272,0.758037,0.0253541,0.0840307,0.326819,0.129471,-0.00152588
-0.139709,-0.472428,0.845369,0.0338047,0.0664338,0.307028,0.129471,-0.00152588
-0.202916,-0.561398,0.904724,0.0404881,0.0559623,0.272305,0.129471,-0.00152588
-0.339959,-0.671973,0.873347,0.046056,0.0512166,0.217175,0.129471,-0.00152588
-0.48924,-0.621609,0.836727,0.0589527,0.0398527,0.174481,0.129471,-0.00152588
-0.532855,-0.629296,0.766513,0.05839,0.0338056,0.0930638,0.129471,-0.00152588
-0.547207,-0.594412,0.657617,0.064702,0.0215305,0.0314239,0.129471,-0.00152588
-0.583414,-0.616056,0.551521,0.0774556,0.00190997,-0.040736,0.129471,-0.00152588
-0.583414,-0.616056,0.551521,0.0774556,0.00190997,-0.040736,0.0766296,-0.000923157
-0.569637,-1.01344,0.326104,0.0430596,0.0193846,-0.191703,0.0766296,-0.000923157
-0.558922,-1.60509,-0.184693,-0.0464724,0.0887102,-0.383358,0.0766296,-0.000923157
-0.670494,-1.81863,-0.837492,-0.0778968,0.138583,-0.526473,0.0766296,-0.000923157
-0.892801,-1.27579,-1.19249,-0.0569592,0.122838,-0.576673,0.0766296,-0.000923157
-1.05501,-0.323295,-0.947922,-0.102435,0.0893509,-0.537698,0.0766296,-0.000923157
-1.22847,0.1391,-0.396403,-0.0710135,0.00529359,-0.537503,0.0766296,-0.000923157
-1.22206,0.0983985,-0.0942106,0.0366431,-0.0943452,-0.555667,0.0766296,-0.000923157
-0.973077,-0.0868915,-0.130446,0.099486,-0.138699,-0.569096,0.0766296,-0.000923157
-0.489442,-0.00716744,-0.135749,0.0593645,-0.111903,-0.503166,0.0766296,-0.000923157
0.224924,0.223413,0.144417,0.0126347,-0.0750241,-0.380707,0.0766296,-0.000923157
0.920506,0.340007,0.549055,-0.00529056,-0.0507026,-0.237421,0.0766296,-0.000923157
1.30984,0.265885,0.832547,-0.0324041,-0.0201719,-0.0785469,0.0766296,-0.000923157
1.41939,0.0987243,0.821693,-0.0852458,0.013353,0.0595132,0.0766296,-0.000923157
1.27951,0.0153165,0.501675,-0.103651,0.0214399,0.153304,0.0766296,-0.000923157
0.986204,0.174144,0.139198,-0.139394,0.0111145,0.263496,0.0766296,-0.000923157
0.645029,0.53509,-0.199049,-0.143556,0.0256238,0.341313,0.0766296,-0.000923157
0.438187,0.804849,-0.415587,-0.131703,0.0188018,0.353421,0.0766296,-0.000923157
0.380212,0.899977,-0.529072,-0.122593,0.00993109,0.339575,0.0766296,-0.000923157
0.420268,0.977301,-0.585021,-0.111084,0.00752321,0.346851,0.0766296,-0.000923157
0.479829,0.825846,-0.602145,-0.121583,-0.0032566,0.313658,0.0766296,-0.000923157
0.518691,0.665339,-0.633868,-0.132593,-0.00326055,0.286206,0.0766296,-0.000923157
0.551564,0.69815,-0.671735,-0.151377,-0.00115411,0.255734,0.0766296,-0.000923157
0.633139,0.825963,-0.678719,-0.202978,0.0207255,0.232527,0.0766296,-0.000923157
0.77369,0.900512,-0.667527,-0.240776,0.0598418,0.249377,0.0766296,-0.000923157
0.833769,0.889548,-0.573398,-0.24863,0.0645332,0.307421,0.0766296,-0.000923157
0.628791,0.66255,-0.479002,-0.182141,0.0171266,0.328099,0.0766296,-0.000923157
0.249,0.262879,-0.467034,-0.0972347,-0.0214298,0.295299,0.0766296,-0.000923157
-0.0290962,0.00400467,-0.417369,-0.0589536,-0.049691,0.279688,0.0766296,-0.000923157
-0.151871,-0.162625,-0.278031,-0.0560692,-0.0657218,0.237446,0.0766296,-0.000923157
-0.187893,-0.254428,-0.108562,-0.035843,-0.0640045,0.215207,0.0766296,-0.000923157
-0.185799,-0.377338,0.114884,-0.0209391,-0.0824204,0.168524,0.0766296,-0.000923157
-0.1385,-0.454072,0.352124,0.00258985,-0.106292,0.146308,0.0766296,-0.000923157
-0.038282,-0.619142,0.480561,0.0330904,-0.112122,0.101957,0.0766296,-0.000923157
0.0697326,-0.708244,0.543299,0.0553324,-0.126032,0.0836524,0.0766296,-0.000923157
0.0938154,-0.598559,0.57075,0.0631736,-0.150237,0.0776318,0.0766296,-0.000923157
0.010641,-0.387015,0.565575,0.0774018,-0.161907,0.0516353,0.0766296,-0.000923157
-0.158816,-0.366673,0.513415,0.0940039,-0.159605,-0.0297547,0.0766296,-0.000923157
-0.395563,-0.747443,0.387703,0.0994071,-0.138371,-0.21091,0.0766296,-0.000923157
-0.434262,-1.06639,0.24674,0.0839462,-0.0974211,-0.433342,0.0766296,-0.000923157
-0.0278968,-0.829235,0.182636,0.0447363,-0.071503,-0.594895,0.0766296,-0.000923157
0.514468,-0.439415,0.206359,0.00879596,-0.046822,-0.625516,0.0766296,-0.000923157
0.655523,-0.292692,0.406791,0.0148519,-0.093223,-0.542368,0.0766296,-0.000923157
0.441096,-0.32915,0.559703,0.0638449,-0.17228,-0.477803,0.0766296,-0.000923157
0.183109,-0.426099,0.417153,0.082761,-0.157831,-0.380014,0.0766296,-0.000923157
0.0087794,-0.153711,0.119725,0.0690008,-0.125559,-0.286481,0.0766296,-0.000923157
0.118085,0.220294,-0.0770879,0.0708599,-0.0837816,-0.233641,0.0766296,-0.000923157
0.374965,0.454157,-0.146111,0.110276,-0.0414264,-0.156786,0.0766296,-0.000923157
0.522296,0.509731,-0.0852098,0.121963,-0.00305425,-0.053444,0.0766296,-0.000923157
0.522296,0.509731,-0.0852098,0.121963,-0.00305425,-0.053444,0.0924835,-0.00109863
0.501703,0.459676,0.0114389,0.138401,0.0131712,0.0280847,0.0924835,-0.00109863
0.406579,0.365352,0.0150275,0.150173,0.0384877,0.0837185,0.0924835,-0.00109863
0.334,0.346078,-0.0842446,0.13843,0.0746126,0.129936,0.0924835,-0.00109863
0.262428,0.453567,-0.178101,0.111449,0.101023,0.163644,0.0924835,-0.00109863
0.192396,0.554354,-0.224587,0.0979935,0.118605,0.1922,0.0924835,-0.00109863
0.168381,0.576985,-0.193072,0.0764602,0.141593,0.190994,0.0924835,-0.00109863
0.182576,0.554319,-0.0571092,0.0585116,0.142106,0.207909,0.0924835,-0.00109863
0.282351,0.39103,0.122962,0.0242737,0.154711,0.196481,0.0924835,-0.00109863
0.416063,0.256058,0.292444,-0.0128051,0.165517,0.201483,0.0924835,-0.00109863
0.491289,0.258203,0.412514,-0.0450575,0.16989,0.219657,0.0924835,-0.00109863
0.548279,0.2952,0.499424,-0.0674996,0.180357,0.220551,0.0924835,-0.00109863
0.612352,0.332974,0.507737,-0.104949,0.183677,0.233378,0.0924835,-0.00109863
0.590823,0.367568,0.398666,-0.0954112,0.187813,0.268761,0.0924835,-0.00109863
0.446095,0.302483,0.280784,-0.0768768,0.146535,0.292879,0.0924835,-0.00109863
0.198287,0.143027,0.173271,-0.0604453,0.11504,0.298433,0.0924835,-0.00109863
-0.13353,0.0364591,0.072126,-0.0371843,0.0919938,0.288702,0.0924835,-0.00109863
-0.442348,0.0544659,0.00524843,-0.0245912,0.0679219,0.269582,0.0924835,-0.00109863
-0.688946,0.189098,-0.0150819,-0.00507385,0.0513208,0.240117,0.0924835,-0.00109863
-0.862858,0.282721,0.0558898,0.0277604,0.0226744,0.201843,0.0924835,-0.00109863
-1.00094,0.210008,0.161305,0.06547,-0.00855425,0.150628,0.0924835,-0.00109863
-1.02913,-0.00772245,0.272191,0.0816878,-0.0237755,0.0827168,0.0924835,-0.00109863
-0.82317,-0.264434,0.347834,0.104385,-0.0364633,-0.0106514,0.0924835,-0.00109863
-0.489367,-0.39367,0.475697,0.110838,-0.0644571,-0.070645,0.0924835,-0.00109863
-0.26111,-0.429095,0.597142,0.108229,-0.0703928,-0.10122,0.0924835,-0.00109863
-0.24027,-0.416433,0.675153,0.118188,-0.108495,-0.145363,0.0924835,-0.00109863
-0.34736,-0.381762,0.668037,0.0950095,-0.110825,-0.207712,0.0924835,-0.00109863
-0.452337,-0.3566,0.603952,0.0765965,-0.109998,-0.313002,0.0924835,-0.00109863
-0.41667,-0.209258,0.480697,0.0617373,-0.0985447,-0.377247,0.0924835,-0.00109863
-0.446666,-0.086714,0.409229,0.0355734,-0.0607411,-0.403339,0.0924835,-0.00109863
-0.653943,-0.0810732,0.388183,0.0275828,-0.0550264,-0.377584,0.0924835,-0.00109863
-0.932142,-0.301474,0.297703,0.0156741,-0.0349961,-0.376502,0.0924835,-0.00109863
-0.964017,-0.558869,0.14947,-0.00103746,-0.0026691,-0.419371,0.0924835,-0.00109863
-0.625895,-0.371536,0.0398994,-0.00923806,0.0533759,-0.380104,0.0924835,-0.00109863
-0.110229,-0.14865,0.0902643,-0.0214778,0.0791569,-0.318261,0.0924835,-0.00109863
0.331386,-0.115106,0.274182,-0.0237487,0.0755418,-0.216558,0.0924835,-0.00109863
0.516773,-0.201161,0.411135,-0.0238866,0.0767549,-0.127009,0.0924835,-0.00109863
0.534718,-0.149048,0.448426,-0.0504481,0.066382,-0.0438592,0.0924835,-0.00109863
0.502203,0.104604,0.290522,-0.0860196,0.0674552,0.0235023,0.0924835,-0.00109863
0.510669,0.384553,0.0253436,-0.115876,0.0648898,0.0967722,0.0924835,-0.00109863
0.50289,0.484355,-0.222811,-0.103883,0.0552638,0.139729,0.0924835,-0.00109863
0.464178,0.454344,-0.402318,-0.073219,0.041948,0.182652,0.0924835,-0.00109863
0.376821,0.304036,-0.50553,-0.0514697,0.0540468,0.195279,0.0924835,-0.00109863
0.367949,0.154585,-0.509602,-0.0281681,0.0729031,0.214789,0.0924835,-0.00109863
0.463611,-0.0549502,-0.402762,-0.0258709,0.0711892,0.230454,0.0924835,-0.00109863
0.577369,-0.362199,-0.24401,-0.0337868,0.0699756,0.261683,0.0924835,-0.00109863
0.680296,-0.568662,-0.111196,-0.0594365,0.0624999,0.290507,0.0924835,-0.00109863
0.71916,-0.635559,-0.113814,-0.0727236,0.0556784,0.315377,0.0924835,-0.00109863
0.649191,-0.567684,-0.181362,-0.0749524,0.022614,0.337797,0.0924835,-0.00109863
0.649191,-0.567684,-0.181362,-0.0749524,0.022614,0.337797,0.137405,-0.0016098
0.488529,-0.521165,-0.245569,-0.066098,-0.0131436,0.33976,0.137405,-0.0016098
0.339804,-0.564595,-0.303127,-0.0543213,-0.045658,0.295783,0.137405,-0.0016098
0.194241,-0.69474,-0.30332,-0.0352177,-0.0673412,0.229583,0.137405,-0.0016098
0.0404036,-0.720597,-0.254211,-0.0297839,-0.0858498,0.183918,0.137405,-0.0016098
-0.070951,-0.613274,-0.185759,-0.0188598,-0.0980339,0.137783,0.137405,-0.0016098
-0.0957996,-0.480884,-0.093887,-0.0266943,-0.10439,0.0857323,0.137405,-0.0016098
-0.148417,-0.230519,-0.0318029,-0.0377792,-0.101109,0.0886844,0.137405,-0.0016098
-0.228299,-0.0429466,-0.0539365,-0.0342213,-0.0944987,0.111496,0.137405,-0.0016098
-0.234121,-0.147432,-0.131238,-0.0118416,-0.0933309,0.0975373,0.137405,-0.0016098
-0.194955,-0.185957,-0.16549,-0.00668786,-0.104236,0.0894368,0.137405,-0.0016098
-0.239772,-0.101325,-0.229477,-0.0200692,-0.0965423,0.117506,0.137405,-0.0016098
-0.236543,-0.0807781,-0.252228,0.00851876,-0.117392,0.048586,0.137405,-0.0016098
-0.216266,-0.00775963,-0.203555,0.00361549,-0.134153,0.00420213,0.137405,-0.0016098
-0.192575,-0.101653,-0.224023,-0.0274252,-0.117675,-0.0623094,0.137405,-0.0016098
-0.129848,-0.217126,-0.282509,-0.0235049,-0.127691,-0.144971,0.137405,-0.0016098
-0.0305515,-0.109263,-0.331135,-0.0234616,-0.137509,-0.21911,0.137405,-0.0016098
0.0239473,0.148118,-0.355273,-0.0396652,-0.139389,-0.254536,0.137405,-0.0016098
0.0116445,0.237976,-0.321935,-0.0271757,-0.142569,-0.330374,0.137405,-0.0016098
0.0166625,0.222744,-0.256806,-0.028757,-0.159166,-0.372911,0.137405,-0.0016098
-0.0317337,0.199456,-0.241205,-0.0264059,-0.119702,-0.388413,0.137405,-0.0016098
-0.21072,0.0421682,-0.225422,-0.0309839,-0.0586513,-0.402918,0.137405,-0.0016098
-0.290582,-0.138529,-0.159147,-0.0358752,-0.00064671,-0.421433,0.137405,-0.0016098
-0.114145,-0.0555462,-0.0650613,-5.19603e-05,0.0240196,-0.340212,0.137405,-0.0016098
0.118725,0.15486,0.0307871,0.0426993,0.031046,-0.183693,0.137405,-0.0016098
0.169655,0.111651,0.144698,0.0802955,0.0250103,-0.0459437,0.137405,-0.0016098
0.150304,-0.332693,0.223887,0.129806,0.012396,0.0376873,0.137405,-0.0016098
0.176072,-0.8477,0.274013,0.164047,0.0403249,0.0599898,0.137405,-0.0016098
0.290309,-0.876868,0.366613,0.134521,0.0857318,0.0805578,0.137405,-0.0016098
0.416447,-0.500881,0.428612,0.0893473,0.114365,0.123221,0.137405,-0.0016098
0.353827,-0.163183,0.375651,0.0477463,0.120489,0.15602,0.137405,-0.0016098
0.0943417,-0.132123,0.207116,0.0179141,0.109061,0.153936,0.137405,-0.0016098
-0.0625463,-0.176393,0.0199114,0.012915,0.10135,0.0991613,0.137405,-0.0016098
-0.0193281,-0.00100124,-0.0369189,0.016986,0.0886235,0.0809736,0.137405,-0.0016098
0.0277581,0.256234,-0.0112152,-0.0043035,0.0931526,0.0754596,0.137405,-0.0016098
0.067829,0.523743,0.0446306,-0.0234174,0.0818543,0.151076,0.137405,-0.0016098
0.0825242,0.542511,0.0429806,-0.00699671,0.0578214,0.202614,0.137405,-0.0016098
0.0520693,0.360537,-0.00925329,0.0269113,0.0313358,0.248044,0.137405,-0.0016098
0.0463919,0.0943676,-0.0583197,0.0284168,0.00903001,0.270101,0.137405,-0.0016098
0.086619,-0.0695411,-0.0951806,0.0293944,0.00269938,0.263656,0.137405,-0.0016098
0.0693716,-0.132112,-0.15218,0.0171944,0.00325003,0.236752,0.137405,-0.0016098
-0.00582191,-0.0860586,-0.21861,0.0197827,0.00965476,0.217545,0.137405,-0.0016098
-0.100917,-0.0302684,-0.27688,0.0234436,0.0118264,0.182483,0.137405,-0.0016098
-0.22969,-0.00682986,-0.302106,0.0393583,0.0153854,0.159814,0.137405,-0.0016098
-0.391291,-0.0395229,-0.287917,0.0483865,-0.00329803,0.130398,0.137405,-0.0016098
-0.537559,-0.0764001,-0.262691,0.0344397,-0.00381632,0.0946257,0.137405,-0.0016098
-0.595657,-0.083815,-0.224943,0.033793,-0.0240565,0.0581114,0.137405,-0.0016098
-0.575406,-0.0563884,-0.179448,0.029678,-0.0445449,0.0193681,0.137405,-0.0016098
-0.549397,-0.00187912,-0.149426,0.0255243,-0.067938,-0.0108001,0.137405,-0.0016098
-0.549397,-0.00187912,-0.149426,0.0255243,-0.067938,-0.0108001,0.179672,-0.0021286
-0.517968,0.0890264,-0.13793,0.0194752,-0.0875544,-0.0492685,0.179672,-0.0021286
-0.496133,0.210805,-0.149771,0.0236282,-0.117111,-0.0739127,0.179672,-0.0021286
-0.533161,0.229659,-0.169891,0.0429243,-0.137197,-0.122446,0.179672,-0.0021286
-0.512762,0.220434,-0.149215,0.0473492,-0.146858,-0.18866,0.179672,-0.0021286
-0.369373,0.126706,-0.0846252,0.0475544,-0.145228,-0.252571,0.179672,-0.0021286
-0.191493,-0.000141591,0.00802465,0.0408817,-0.132693,-0.278232,0.179672,-0.0021286
-0.177535,-0.172826,0.0792451,0.0419099,-0.128108,-0.270496,0.179672,-0.0021286
-0.496384,-0.505978,0.0988039,0.0525997,-0.10496,-0.252815,0.179672,-0.0021286
-0.921323,-0.814246,0.0696528,0.0665142,-0.0716505,-0.306364,0.179672,-0.0021286
-1.01166,-0.66947,0.0486498,0.0134674,-0.000824615,-0.361795,0.179672,-0.0021286
-0.593595,-0.0231643,0.0721714,-0.0711873,0.0801414,-0.354712,0.179672,-0.0021286
-0.0972523,0.458359,0.129583,-0.0827517,0.12276,-0.273487,0.179672,-0.0021286
0.215607,0.393362,0.227735,-0.0362645,0.11174,-0.210607,0.179672,-0.0021286
0.353674,0.0464539,0.336088,-0.000175547,0.0840567,-0.135167,0.179672,-0.0021286
0.426496,-0.17871,0.441223,-0.0153166,0.0660626,-0.0702866,0.179672,-0.0021286
0.498398,-0.118324,0.466156,-0.076977,0.054279,-0.00560689,0.179672,-0.0021286
0.561191,0.0589042,0.363283,-0.103644,0.0383448,0.0573106,0.179672,-0.0021286
0.577902,0.111001,0.144726,-0.11196,0.0245935,0.105909,0.179672,-0.0021286
0.505932,0.0955408,-0.125478,-0.0859143,0.0185686,0.159785,0.179672,-0.0021286
0.43477,0.159348,-0.323227,-0.0662467,0.0187389,0.233703,0.179672,-0.0021286
0.418654,0.264082,-0.402477,-0.0309285,0.0389321,0.258418,0.179672,-0.0021286
0.413175,0.323635,-0.343182,-0.0135191,0.0478949,0.312051,0.179672,-0.0021286
0.361853,0.23033,-0.230033,0.00455947,0.0557953,0.326684,0.179672,-0.0021286
0.348263,0.05863,-0.134758,0.00598825,0.0517088,0.319756,0.179672,-0.0021286
0.412715,0.0558338,-0.0788482,-0.0144809,0.0463541,0.315903,0.179672,-0.0021286
0.438355,0.0828303,-0.0536086,-0.0351228,0.0366481,0.297931,0.179672,-0.0021286
0.342442,0.0904712,-0.0681112,-0.041473,0.0185191,0.275497,0.179672,-0.0021286
0.14143,0.0503198,-0.128153,-0.0410674,-0.00131007,0.224927,0.179672,-0.0021286
-0.0458871,0.0313994,-0.205183,-0.0398436,-0.0166227,0.159842,0.179672,-0.0021286
-0.145672,-0.0295198,-0.260914,-0.0454604,-0.0253104,0.0800705,0.179672,-0.0021286
-0.149867,-0.0580574,-0.272161,-0.0558426,-0.0153576,0.011849,0.179672,-0.0021286
-0.0843846,0.0457683,-0.234029,-0.0604086,-0.0175104,-0.00942439,0.179672,-0.0021286
-0.0416894,0.137378,-0.135478,-0.0552244,-0.0247687,-0.00565201,0.179672,-0.0021286
-0.0788883,0.110154,-0.0481104,-0.0384319,-0.0481477,0.0138602,0.179672,-0.0021286
-0.150087,0.10096,-0.0276634,-0.0195521,-0.0684938,0.039642,0.179672,-0.0021286
-0.201093,0.124655,-0.0366219,-0.0227411,-0.0970881,0.0551966,0.179672,-0.0021286
-0.241649,0.1291,-0.082837,-0.0240106,-0.104277,0.0548944,0.179672,-0.0021286
-0.268927,0.13505,-0.150614,-0.0223577,-0.117146,0.039924,0.179672,-0.0021286
-0.324606,0.0884017,-0.237605,0.00347742,-0.125328,0.00210619,0.179672,-0.0021286
-0.313208,0.0614373,-0.295429,0.0232241,-0.135038,-0.0607467,0.179672,-0.0021286
-0.267952,0.109956,-0.313389,0.0483013,-0.133681,-0.136309,0.179672,-0.0021286
-0.234743,0.209903,-0.276705,0.0678715,-0.153478,-0.203113,0.179672,-0.0021286
-0.208008,0.119256,-0.27122,0.0771066,-0.155064,-0.27141,0.179672,-0.0021286
-0.158836,-0.152273,-0.306715,0.111786,-0.149258,-0.302099,0.179672,-0.0021286
-0.241766,-0.684596,-0.377601,0.105243,-0.0899224,-0.397735,0.179672,-0.0021286
-0.297005,-0.716433,-0.413996,0.0699402,-0.0321587,-0.456248,0.179672,-0.0021286
-0.127121,-0.224465,-0.286616,0.0185127,0.00917841,-0.457962,0.179672,-0.0021286
0.123218,0.234319,0.0269892,-0.011193,0.0510532,-0.35686,0.179672,-0.0021286
0.367142,0.272088,0.501955,0.0234706,0.0470687,-0.247547,0.179672,-0.0021286
0.367142,0.272088,0.501955,0.0234706,0.0470687,-0.247547,0.198181,-0.00233459
0.620521,-0.124675,0.976393,0.0620825,0.0701213,-0.159442,0.198181,-0.00233459
0.772224,-0.674971,1.09296,0.138338,0.0763892,-0.14357,0.198181,-0.00233459
0.927202,-0.558467,0.774036,0.186735,0.101627,-0.0159981,0.198181,-0.00233459
0.911875,-0.363188,0.529619,0.0561718,0.0556202,0.0200979,0.198181,-0.00233459
0.76568,-0.150447,0.288472,0.0271113,0.0885862,0.0741332,0.198181,-0.00233459
0.534484,0.0661699,0.140751,0.0420542,0.055971,0.116712,0.198181,-0.00233459
0.296342,0.298461,0.0717084,0.0426273,0.0691747,0.162733,0.198181,-0.00233459
0.197489,0.455875,0.0245808,0.0402924,0.0770297,0.164522,0.198181,-0.00233459
0.22182,0.600959,-0.00887671,0.0373875,0.0850291,0.179612,0.198181,-0.00233459
0.217811,0.669911,-0.0252658,0.0239238,0.0892091,0.209579,0.198181,-0.00233459
0.114974,0.699123,-0.0309042,0.0252366,0.095777,0.244548,0.198181,-0.00233459
3.69744e-05,0.739516,-0.0104665,0.00471563,0.0945446,0.25812,0.198181,-0.00233459
-0.09482,0.759259,0.0286651,-0.00852641,0.0889635,0.259702,0.198181,-0.00233459
-0.108126,0.633725,0.0523644,-0.012252,0.0920872,0.227109,0.198181,-0.00233459
-0.039509,0.4944,0.0960874,-0.00762584,0.0920552,0.210061,0.198181,-0.00233459
0.0206379,0.400961,0.16322,-0.00893148,0.0794002,0.213007,0.198181,-0.00233459
0.0061492,0.304234,0.201487,0.00953823,0.0529524,0.220512,0.198181,-0.00233459
-0.0935825,0.181091,0.207551,0.0257611,0.0221895,0.227274,0.198181,-0.00233459
-0.213637,0.0292564,0.18546,0.0240398,-0.00764021,0.223179,0.198181,-0.00233459
-0.30993,-0.0558573,0.125605,0.0419269,-0.0341362,0.191272,0.198181,-0.00233459
-0.362429,0.0260388,0.0956747,0.0402555,-0.0473122,0.163419,0.198181,-0.00233459
-0.391177,0.073592,0.0937813,0.0415371,-0.051995,0.104399,0.198181,-0.00233459
-0.412242,0.183241,0.115154,0.0433677,-0.0500888,0.0640422,0.198181,-0.00233459
-0.454387,0.373149,0.184034,0.0464453,-0.0619018,0.0325245,0.198181,-0.00233459
-0.506157,0.51804,0.258915,0.0721882,-0.0936126,0.0170243,0.198181,-0.00233459
-0.559927,0.360317,0.268642,0.0945418,-0.104972,-0.0419951,0.198181,-0.00233459
-0.529025,0.094062,0.259515,0.109948,-0.109623,-0.106914,0.198181,-0.00233459
-0.429645,-0.190739,0.288471,0.124894,-0.109125,-0.202027,0.198181,-0.00233459
-0.324394,-0.364815,0.374824,0.128942,-0.112339,-0.265373,0.198181,-0.00233459
-0.342347,-0.418385,0.427838,0.111119,-0.103664,-0.282114,0.198181,-0.00233459
-0.611001,-0.438996,0.430036,0.0986732,-0.0724957,-0.278897,0.198181,-0.00233459
-1.02996,-0.429192,0.392778,0.0717823,-0.0350401,-0.300104,0.198181,-0.00233459
-1.22041,-0.333601,0.30984,0.0171426,0.0345883,-0.387928,0.198181,-0.00233459
-1.08713,-0.266033,0.28712,-0.0156021,0.109976,-0.481307,0.198181,-0.00233459
-0.791624,-0.117511,0.636312,-0.0316696,0.098915,-0.412155,0.198181,-0.00233459
-0.326186,-0.0762731,1.19679,-0.0415524,0.0297968,-0.269436,0.198181,-0.00233459
0.183016,0.0181145,1.36742,-0.0285738,0.0380741,-0.152293,0.198181,-0.00233459
0.440706,0.0521043,1.0542,-0.0178287,0.0589321,-0.152608,0.198181,-0.00233459
0.560823,0.0871927,0.661043,-0.0479289,0.0236475,-0.0983839,0.198181,-0.00233459
0.632264,0.104565,0.405455,-0.0957404,0.0255211,-0.0138032,0.198181,-0.00233459
0.647312,0.244465,0.28226,-0.118617,0.0221106,0.0696622,0.198181,-0.00233459
0.622135,0.377459,0.178971,-0.133202,0.0329139,0.153779,0.198181,-0.00233459
0.578223,0.467182,0.0424887,-0.135834,0.037149,0.212116,0.198181,-0.00233459
0.500042,0.632501,-0.134423,-0.116034,0.0321443,0.282992,0.198181,-0.00233459
0.397862,0.806226,-0.280982,-0.0965896,0.0316321,0.334313,0.198181,-0.00233459
0.398927,0.845326,-0.342842,-0.083464,0.0357326,0.335107,0.198181,-0.00233459
0.413912,0.685724,-0.3271,-0.0628293,0.0464887,0.318557,0.198181,-0.00233459
0.398955,0.463249,-0.220523,-0.0690855,0.0252469,0.350089,0.198181,-0.00233459
0.398955,0.463249,-0.220523,-0.0690855,0.0252469,0.350089,0.227234,-0.00270844
0.33836,0.270184,-0.122512,-0.0769027,0.0150094,0.347796,0.227234,-0.00270844
0.169461,0.178616,-0.11861,-0.0564923,-0.00903124,0.322205,0.227234,-0.00270844
-0.0291942,0.152313,-0.159215,-0.0353436,-0.0290964,0.289871,0.227234,-0.00270844
-0.135343,-0.0454467,-0.140658,-0.032623,-0.0537317,0.223386,0.227234,-0.00270844
-0.147635,-0.206345,-0.103211,-0.0125081,-0.0469661,0.141685,0.227234,-0.00270844
-0.0815445,-0.199458,-0.0286168,0.00282493,-0.0518526,0.0717299,0.227234,-0.00270844
0.0189883,-0.102653,0.052009,0.0043025,-0.0585941,0.0223655,0.227234,-0.00270844
0.0721439,-0.0572275,0.0969446,0.00909646,-0.0809634,-0.0188687,0.227234,-0.00270844
0.0786933,-0.0829241,0.0736569,0.013414,-0.103995,-0.0279736,0.227234,-0.00270844
0.00266634,-0.0970929,0.0113802,0.00363122,-0.125779,-0.074828,0.227234,-0.00270844
0.0103502,-0.000863393,0.0100727,-0.0011229,-0.123554,-0.105682,0.227234,-0.00270844
0.11011,0.125637,0.0356837,-0.018136,-0.115684,-0.135603,0.227234,-0.00270844
0.248213,0.21613,0.0778411,0.00673193,-0.104551,-0.150972,0.227234,-0.00270844
0.331961,0.216029,0.147472,0.0140521,-0.0954819,-0.150877,0.227234,-0.00270844
0.34977,0.227497,0.186264,0.0318122,-0.088764,-0.143313,0.227234,-0.00270844
0.296051,0.0789104,0.211054,0.0695583,-0.123858,-0.118685,0.227234,-0.00270844
0.0628005,-0.193482,0.161165,0.0818656,-0.100899,-0.151765,0.227234,-0.00270844
-0.158657,-0.313634,0.0892797,0.0638445,-0.0688151,-0.21916,0.227234,-0.00270844
-0.258441,-0.170961,0.0544396,0.0321108,0.00118151,-0.286154,0.227234,-0.00270844
-0.217136,0.0216013,0.0965547,0.0265573,0.0410899,-0.318422,0.227234,-0.00270844
-0.0966799,0.0639301,0.282924,0.0292767,0.0551026,-0.281902,0.227234,-0.00270844
0.115921,-0.0158816,0.476294,0.0492068,0.0438141,-0.2036,0.227234,-0.00270844
0.319937,-0.271676,0.486021,0.0703535,0.0365047,-0.130643,0.227234,-0.00270844
0.382808,-0.437229,0.395776,0.0657435,0.0332014,-0.0600584,0.227234,-0.00270844
0.26561,-0.288718,0.295164,0.0291614,0.048107,-0.00740594,0.227234,-0.00270844
0.182529,0.0386332,0.207985,-0.00794239,0.067549,0.0236011,0.227234,-0.00270844
0.154978,0.184386,0.0956938,-0.0131448,0.0788165,0.0550451,0.227234,-0.00270844
0.154309,0.220299,-0.00742782,0.00735623,0.0838744,0.10206,0.227234,-0.00270844
0.105088,0.202761,-0.0676967,0.0133527,0.0840331,0.169463,0.227234,-0.00270844
0.0403652,0.234945,-0.0990408,0.030348,0.0780286,0.22346,0.227234,-0.00270844
0.0126414,0.26708,-0.124721,0.0443371,0.0809692,0.244416,0.227234,-0.00270844
0.0589362,0.208699,-0.110071,0.0550557,0.0908156,0.242322,0.227234,-0.00270844
0.144586,0.131207,-0.0449255,0.0585864,0.0986871,0.225466,0.227234,-0.00270844
0.220256,0.106501,0.0310614,0.0520973,0.103375,0.205437,0.227234,-0.00270844
0.228513,0.132519,0.073352,0.0354391,0.107854,0.195364,0.227234,-0.00270844
0.219218,0.16427,0.0806859,0.0142292,0.114724,0.171436,0.227234,-0.00270844
0.208345,0.192727,0.0959442,0.00988774,0.105123,0.153765,0.227234,-0.00270844
0.14668,0.174525,0.0967462,0.0156967,0.0903798,0.13186,0.227234,-0.00270844
0.0640326,0.17734,0.0804436,0.0191924,0.0851318,0.0981345,0.227234,-0.00270844
0.0390535,0.15157,0.126831,0.0217119,0.0695632,0.0792152,0.227234,-0.00270844
-0.0498897,0.151746,0.167346,0.024674,0.0483299,0.0817837,0.227234,-0.00270844
-0.101832,0.0964085,0.197896,0.0366655,0.0300891,0.0820106,0.227234,-0.00270844
-0.141915,0.0687374,0.297646,0.0417624,0.00283018,0.0932029,0.227234,-0.00270844
-0.1503,-0.0155644,0.402129,0.0479049,-0.0247926,0.0945514,0.227234,-0.00270844
-0.184738,-0.0396291,0.498394,0.0424871,-0.051593,0.107124,0.227234,-0.00270844
-0.257176,0.0116605,0.535972,0.0320282,-0.0714976,0.119741,0.227234,-0.00270844
-0.316065,0.0404684,0.503448,0.0186237,-0.0958238,0.111274,0.227234,-0.00270844
-0.333896,0.0494274,0.432656,0.0103277,-0.107763,0.086333,0.227234,-0.00270844
-0.333896,0.0494274,0.432656,0.0103277,-0.107763,0.086333,0.237808,-0.00280762
-0.291128,0.0789867,0.37156,-0.00484045,-0.113235,0.0619093,0.237808,-0.00280762
-0.231826,0.121385,0.355557,0.00474162,-0.122442,0.0496567,0.237808,-0.00280762
-0.179484,0.149602,0.385364,0.00389911,-0.139767,0.0433685,0.237808,-0.00280762
-0.1507,0.185088,0.38244,-0.011192,-0.158191,0.0341873,0.237808,-0.00280762
-0.103971,0.265977,0.328762,-0.0214351,-0.177285,0.0345871,0.237808,-0.00280762
-0.0694717,0.324835,0.26242,-0.0173538,-0.185427,0.0375433,0.237808,-0.00280762
-0.0796331,0.346189,0.204262,-0.00631709,-0.187869,0.0213014,0.237808,-0.00280762
-0.054768,0.355021,0.151203,0.00978896,-0.17384,-0.0117655,0.237808,-0.00280762
0.0540459,0.335149,0.119477,0.0126809,-0.146016,-0.0526874,0.237808,-0.00280762
0.206308,0.364642,0.13349,0.0147525,-0.120943,-0.0775107,0.237808,-0.00280762
0.409691,0.417713,0.130063,0.0170376,-0.108575,-0.0685531,0.237808,-0.00280762
0.651757,-0.192003,0.104501,0.0607439,-0.107504,-0.107103,0.237808,-0.00280762
0.518677,-0.0918756,0.157724,0.0394841,-0.0973005,-0.0507657,0.237808,-0.00280762
0.261355,0.372949,0.124082,0.000828311,-0.0898886,-0.0299276,0.237808,-0.00280762
0.0136836,0.52297,0.100111,0.00210315,-0.115549,-0.0171693,0.237808,-0.00280762
-0.0887877,0.104759,0.21275,0.00756159,-0.0817902,-0.0356465,0.237808,-0.00280762
-0.209808,-0.371175,0.226423,0.0634546,-0.0656231,-0.0668921,0.237808,-0.00280762
