rotationRate_x,rotationRate_y,rotationRate_z,acceleration_x,acceleration_y,acceleration_z,relativeAltitude
0.310112,0.0302856,0.149652,0.0621224,-0.00982431,0.0685938,0
0.224314,-0.0190421,0.120124,0.055037,-0.0221168,0.0851378,0
0.0774207,-0.0507154,0.0696896,0.0298053,-0.0406339,0.083005,0
-0.0822368,-0.0283937,-0.0245609,-0.0080642,-0.0532089,0.0745023,0
-0.229071,0.0490189,-0.148435,-0.0298784,-0.0562093,0.0592291,0
-0.308825,0.0818144,-0.240028,-0.0239866,-0.0502009,0.044641,0
-0.294932,0.0717013,-0.264175,-0.00674969,-0.0478286,0.0249217,0
-0.236345,0.0889579,-0.287078,-0.00998377,-0.0471308,0.0197774,0
-0.201766,0.0766245,-0.312678,-0.00907034,-0.0512491,0.0224871,0
-0.18378,-0.0279822,-0.304548,0.0214667,-0.0731984,0.00679392,0
-0.192599,-0.103581,-0.257153,0.030329,-0.0765904,-0.0181897,0
-0.147857,-0.126684,-0.199706,0.0123246,-0.0800594,-0.0684555,0
-0.0307234,-0.0241637,-0.17905,-0.00259319,-0.0825577,-0.100776,0
0.117035,0.0973876,-0.206347,-0.00774202,-0.0995951,-0.123748,0
0.23368,0.11623,-0.19284,0.00644984,-0.111889,-0.1426,0
0.290061,-0.0297971,-0.130943,0.00380243,-0.126397,-0.161604,0
0.24263,-0.298082,-0.156013,-0.0317064,-0.158522,-0.209995,0
0.11828,-0.559702,-0.262761,-0.065339,-0.177535,-0.276047,0
-0.0414985,-0.677542,-0.426017,-0.0952602,-0.16012,-0.338461,0
-0.231679,-0.652325,-0.594733,-0.137249,-0.116125,-0.378295,0
-0.37962,-0.486734,-0.732469,-0.172043,-0.0535093,-0.378603,0
-0.440389,-0.297311,-0.833046,-0.172435,0.0110164,-0.344323,0
-0.4653,-0.358087,-0.847944,-0.14614,0.0392742,-0.308088,0
-0.360596,-0.641505,-0.767554,-0.105493,0.046149,-0.315629,0
-0.0329702,-0.678235,-0.67488,-0.134197,0.072119,-0.322364,0
0.373474,-0.357852,-0.597517,-0.168934,0.10417,-0.249874,0
0.716297,0.124993,-0.696324,-0.210647,0.143234,-0.100265,0
0.966356,0.294433,-0.798536,-0.244299,0.18297,0.0146472,0
1.13656,0.0129241,-0.848937,-0.241043,0.18371,0.0636802,0
1.04686,-0.496241,-0.944038,-0.246096,0.156283,0.0913576,0
0.743372,-0.80324,-1.11209,-0.243391,0.154847,0.140823,0
0.418728,-0.791193,-1.26636,-0.208535,0.177991,0.157302,0
0.112658,-0.570319,-1.32562,-0.135046,0.202106,0.161587,0
-0.111649,-0.303575,-1.2755,-0.0591919,0.200906,0.174644,0
-0.206572,-0.259658,-1.17536,-0.0138099,0.184734,0.19713,0
-0.160226,-0.409361,-1.08054,9.65223e-05,0.161043,0.208999,0
-0.0223948,-0.555601,-1.02139,0.00213397,0.143946,0.216186,0
0.11418,-0.57478,-0.974986,0.00311603,0.146241,0.22986,0
0.161871,-0.480384,-0.912278,0.0169352,0.152494,0.242118,0
0.150466,-0.431358,-0.808983,0.0392528,0.150507,0.256095,0
0.139406,-0.449946,-0.739908,0.0354121,0.121387,0.25546,0
0.136681,-0.43723,-0.71801,0.0358653,0.094182,0.236488,0
0.113339,-0.404745,-0.674824,0.0414201,0.0898629,0.210534,0
0.0257886,-0.365266,-0.606515,0.0621766,0.0725499,0.169483,0
-0.15894,-0.448836,-0.577085,0.07476,0.0344293,0.0888047,0
-0.374936,-0.445179,-0.566694,0.0913813,-0.00776228,-0.0168689,0
-0.522698,-0.371194,-0.509594,0.100513,-0.0233316,-0.148412,0
-0.543384,-0.354189,-0.393023,0.122497,-0.0335203,-0.264612,0
-0.453427,-0.249083,-0.276238,0.116223,-0.0640228,-0.357279,0
-0.422604,-0.087471,-0.259689,0.0914584,-0.0961599,-0.415418,0
-0.445874,0.133455,-0.257833,0.0955938,-0.133728,-0.479682,0
-0.445874,0.133455,-0.257833,0.0955938,-0.133728,-0.479682,0.00527954
-0.392102,0.50543,-0.212353,0.118567,-0.13964,-0.505835,0.00527954
-0.252423,0.8825,-0.142678,0.13276,-0.115441,-0.442874,0.00527954
-0.147986,0.937899,-0.0164135,0.163319,-0.105219,-0.327862,0.00527954
-0.115529,0.635878,0.128124,0.157536,-0.11527,-0.239236,0.00527954
-0.0784123,0.272591,0.141444,0.0914956,-0.104296,-0.215443,0.00527954
0.0500814,0.173987,0.123037,0.0635683,-0.0662995,-0.213158,0.00527954
0.286542,0.488947,0.16629,0.0611094,-0.0043917,-0.168193,0.00527954
0.530637,0.987871,0.305055,0.0821694,0.030034,-0.0469459,0.00527954
0.680699,1.25617,0.447357,0.0749425,0.0388725,0.0955086,0.00527954
0.664258,1.01088,0.619775,0.0901114,0.02524,0.214728,0.00527954
0.577727,0.549445,0.760825,0.0822989,0.0117043,0.266749,0.00527954
0.492058,0.279441,0.74462,0.0372158,0.0168265,0.270737,0.00527954
0.393955,0.235321,0.625039,0.00952635,0.0321651,0.263517,0.00527954
0.270015,0.359494,0.546447,0.0184194,0.0616308,0.278259,0.00527954
0.148722,0.501046,0.528094,0.0425597,0.0975103,0.307505,0.00527954
0.0536168,0.510565,0.584951,0.0852046,0.116476,0.338919,0.00527954
-0.0134137,0.31388,0.66294,0.121562,0.112935,0.369995,0.00527954
-0.0534466,0.0671778,0.716277,0.122852,0.121861,0.387073,0.00527954
-0.0705128,-0.0612461,0.775402,0.110527,0.146308,0.376809,0.00527954
-0.0808088,-0.0862758,0.911227,0.109465,0.18531,0.354869,0.00527954
-0.158993,0.134648,1.17342,0.17441,0.311054,0.298903,0.00527954
-0.122343,0.14574,1.39433,0.131138,0.234881,0.220221,0.00527954
-0.0409498,0.271948,1.45179,0.149543,0.165934,0.149876,0.00527954
-0.0408496,0.349519,1.41399,0.126365,0.105749,0.104703,0.00527954
-0.179604,0.301794,1.36852,0.107449,0.0797437,0.102948,0.00527954
-0.392843,0.187222,1.26954,0.0858622,0.0691075,0.0989828,0.00527954
-0.57428,0.00867792,1.06403,0.060194,0.068993,0.0581901,0.00527954
-0.70812,0.247061,0.937087,0.0951916,0.0991892,-0.0263323,0.00527954
-0.717952,0.316827,0.936454,0.0839114,0.0942536,-0.0311776,0.00527954
-0.660201,0.36108,0.901209,0.114791,0.0940072,-0.0910958,0.00527954
-0.565982,0.350217,0.89399,0.105981,0.0817747,-0.128165,0.00527954
-0.477498,0.328037,0.893672,0.107297,0.0775206,-0.15576,0.00527954
-0.433337,0.177057,0.904001,0.105997,0.0537068,-0.198573,0.00527954
-0.408402,0.117122,0.935674,0.0785434,0.012908,-0.277769,0.00527954
-0.40992,0.255085,0.895267,0.0154954,-0.0157213,-0.354497,0.00527954
-0.518604,0.267352,0.815209,-0.0209349,-0.0540988,-0.395297,0.00527954
-0.696388,0.0340626,0.768582,-0.0380279,-0.1017,-0.453951,0.00527954
-0.766172,-0.17322,0.725157,-0.0962424,-0.136796,-0.555913,0.00527954
-0.697425,-0.184114,0.610264,-0.194488,-0.147633,-0.637631,0.00527954
-0.518706,-0.0698426,0.428971,-0.291634,-0.147704,-0.677286,0.00527954
-0.279285,0.0294344,0.231609,-0.338993,-0.150301,-0.654951,0.00527954
-0.0310717,0.0726936,0.0310474,-0.356483,-0.141489,-0.596894,0.00527954
0.239846,0.240892,-0.145095,-0.365492,-0.0998608,-0.502909,0.00527954
0.536017,0.546754,-0.28562,-0.388995,-0.0295827,-0.354578,0.00527954
0.810687,0.856743,-0.381653,-0.406494,0.0507862,-0.15895,0.00527954
1.01003,0.989019,-0.424504,-0.410441,0.108909,0.0414392,0.00527954
1.07922,0.78933,-0.474473,-0.43102,0.151396,0.212502,0.00527954
1.02155,0.286846,-0.578863,-0.453893,0.175292,0.32153,0.00527954
0.907062,-0.24964,-0.790454,-0.458222,0.181389,0.359172,0.00527954
0.779319,-0.623887,-1.06913,-0.425449,0.19694,0.359505,0.00527954
0.642467,-0.717249,-1.31096,-0.369062,0.238319,0.349235,0.00527954
0.642467,-0.717249,-1.31096,-0.369062,0.238319,0.349235,0.0132141
0.483971,-0.587775,-1.42377,-0.286943,0.283106,0.352357,0.0132141
0.33049,-0.363106,-1.38098,-0.197536,0.300343,0.364694,0.0132141
0.177675,-0.248848,-1.24775,-0.132986,0.288296,0.392894,0.0132141
0.0467368,-0.452209,-1.10458,-0.101603,0.259748,0.41156,0.0132141
-0.0353054,-0.68151,-0.966007,-0.0855974,0.236793,0.387762,0.0132141
-0.122833,-0.870585,-0.805022,-0.0800129,0.196237,0.349261,0.0132141
-0.168592,-0.872568,-0.906953,-0.110679,0.154873,0.306315,0.0132141
-0.200244,-0.783522,-1.15233,-0.104453,0.141018,0.279567,0.0132141
-0.286913,-0.748871,-1.40889,-0.0951219,0.164442,0.268906,0.0132141
-0.414965,-0.82157,-1.5278,-0.020975,0.238448,0.226733,0.0132141
-0.526728,-0.692007,-1.30957,0.111624,0.126758,0.192892,0.0132141
-0.625422,-0.746649,-1.1982,0.0703448,0.112123,0.1333,0.0132141
-0.632662,-0.692824,-1.22807,0.0371265,0.0831496,0.0599177,0.0132141
-0.571639,-0.510649,-1.25407,0.0714761,0.0413151,-0.00288332,0.0132141
-0.544848,-0.341501,-1.2075,0.0951022,0.0049195,-0.0475438,0.0132141
-0.625818,-0.14757,-1.14117,0.10246,-0.0469414,-0.0875973,0.0132141
-0.805348,-0.199076,-1.08854,0.125097,-0.131579,-0.171101,0.0132141
-0.843894,-0.415417,-0.990526,0.209327,-0.206795,-0.335284,0.0132141
-0.776392,-0.556169,-0.857143,0.251285,-0.216198,-0.506261,0.0132141
-0.755375,-0.555538,-0.672961,0.253123,-0.227626,-0.66193,0.0132141
-0.643889,-0.344368,-0.47385,0.231059,-0.260946,-0.813118,0.0132141
-0.355763,0.0281347,-0.343633,0.190498,-0.276543,-0.89554,0.0132141
-0.0290668,0.398149,-0.290409,0.162061,-0.280472,-0.845949,0.0132141
0.186678,0.660826,-0.239352,0.161531,-0.273648,-0.685,0.0132141
0.326059,0.731423,-0.103781,0.169702,-0.22023,-0.5004,0.0132141
0.504253,0.723885,0.112761,0.158168,-0.138366,-0.345093,0.0132141
0.773819,0.765361,0.347758,0.128022,-0.0626572,-0.200924,0.0132141
1.0613,0.826883,0.547731,0.102497,-0.00513531,-0.0308674,0.0132141
1.18694,0.844824,0.676394,0.0807699,0.0279481,0.156008,0.0132141
1.05663,0.680009,0.787225,0.0756888,0.0395556,0.313233,0.0132141
0.835721,0.290973,0.921807,0.089769,0.0272686,0.360525,0.0132141
0.739747,-0.139819,0.967047,0.0806605,0.0315387,0.307615,0.0132141
0.728501,-0.296221,0.88397,0.0285747,0.0566719,0.235773,0.0132141
0.664683,-0.255806,0.745888,-0.00372295,0.0779738,0.210361,0.0132141
0.538634,-0.106894,0.61092,0.00586685,0.0965747,0.210109,0.0132141
0.426988,0.0413299,0.501156,0.0303113,0.120612,0.227602,0.0132141
0.381172,0.0820889,0.467992,0.0653921,0.152828,0.262693,0.0132141
0.40682,0.00796694,0.473468,0.0692357,0.184507,0.301862,0.0132141
0.480904,-0.0687406,0.485176,0.0744385,0.197554,0.342424,0.0132141
0.385505,-0.17435,0.613919,0.0832616,0.242262,0.400711,0.0132141
0.247955,-0.0820679,0.642983,0.0770303,0.179691,0.413067,0.0132141
0.155768,-0.0967721,0.573029,0.071132,0.146364,0.387048,0.0132141
0.0382147,-0.269918,0.489202,0.0794351,0.14146,0.36466,0.0132141
-0.0439429,-0.405364,0.485413,0.0625369,0.119043,0.274397,0.0132141
-0.10137,-0.116218,0.421524,0.0243064,0.102093,0.145699,0.0132141
-0.0564783,0.157215,0.343134,0.0153384,0.0927805,0.0565295,0.0132141
-0.081095,0.120994,0.342649,0.0871398,0.0649385,0.0128289,0.0132141
-0.197279,-0.0497461,0.424214,0.107874,0.058781,-0.00327587,0.0132141
-0.419034,-0.0504578,0.484345,0.0868134,0.0486263,-0.0578978,0.0132141
-0.530595,0.120241,0.432084,0.0233776,-0.00291258,-0.136247,0.0132141
-0.485423,0.294716,0.264514,-0.0514721,-0.050375,-0.222555,0.0132141
-0.485423,0.294716,0.264514,-0.0514721,-0.050375,-0.222555,0.158539
-0.387604,0.306963,0.14822,-0.0564268,-0.0730844,-0.262207,0.158539
-0.351413,0.253188,0.132894,-0.0158838,-0.077516,-0.269091,0.158539
-0.46514,0.0895544,0.127207,0.0110405,-0.0850871,-0.261023,0.158539
-0.655817,-0.0830991,0.0757282,-0.002181,-0.106964,-0.270188,0.158539
-0.786897,-0.228147,0.0516917,-0.00578646,-0.118523,-0.313894,0.158539
-0.749218,-0.277373,0.094909,0.00808796,-0.113252,-0.387489,0.158539
-0.60317,-0.247274,0.136082,0.00683782,-0.104724,-0.452578,0.158539
-0.418401,-0.276675,0.151244,-0.0138872,-0.0851519,-0.467557,0.158539
-0.234264,-0.291082,0.111271,-0.0448594,-0.0699852,-0.448254,0.158539
0.00113891,-0.220787,0.0574339,-0.0654221,-0.0558787,-0.421353,0.158539
0.281913,-0.0499706,0.00290163,-0.0775432,-0.015421,-0.381286,0.158539
0.443235,0.213947,-0.0692917,-0.0948525,0.0313841,-0.284114,0.158539
0.509221,0.488164,-0.0653526,-0.0874225,0.0673894,-0.144081,0.158539
0.500416,0.516149,-0.0344311,-0.0816486,0.104625,-0.00487095,0.158539
0.453837,0.275145,0.0100327,-0.089986,0.125518,0.114142,0.158539
0.415495,-0.121852,-0.00472961,-0.106972,0.126448,0.175723,0.158539
0.337694,-0.364822,-0.146819,-0.148083,0.111587,0.182527,0.158539
0.211022,-0.339165,-0.287266,-0.178529,0.112796,0.193245,0.158539
0.100834,-0.157115,-0.371452,-0.177643,0.135816,0.203548,0.158539
0.0309452,-0.000952203,-0.408764,-0.146639,0.155876,0.237161,0.158539
0.0753353,0.105426,-0.359631,-0.0959962,0.151633,0.277622,0.158539
0.206843,0.0692542,-0.259313,-0.0538583,0.154448,0.322979,0.158539
0.325734,-0.0658662,-0.188919,-0.0568351,0.156808,0.389824,0.158539
0.386146,-0.177725,-0.173002,-0.0679421,0.13418,0.435644,0.158539
0.341214,-0.321138,-0.217349,-0.0697708,0.108629,0.471348,0.158539
0.191371,-0.407844,-0.257121,-0.0612425,0.0911293,0.480891,0.158539
0.0144277,-0.424198,-0.268221,-0.0347422,0.0754544,0.446767,0.158539
-0.109858,-0.392709,-0.269401,-0.0132217,0.0495435,0.381709,0.158539
-0.163438,-0.394998,-0.266205,0.0121171,0.0188528,0.288521,0.158539
-0.257476,-0.389026,-0.267172,0.0280819,-0.01179,0.195282,0.158539
-0.492623,-0.400037,-0.235136,0.0393734,-0.0284057,0.130766,0.158539
-0.703111,-0.403555,-0.130084,0.0321918,-0.0401325,0.0325833,0.158539
-0.801931,-0.414523,-0.0330872,0.0222309,-0.0578417,-0.117464,0.158539
-0.726138,-0.383986,-0.0104388,-0.0103425,-0.107313,-0.288452,0.158539
-0.445119,-0.219967,-0.0576256,-0.0428849,-0.159621,-0.456322,0.158539
-0.158087,0.0314511,-0.0699963,-0.0318441,-0.186606,-0.547058,0.158539
-0.0942474,0.367127,-0.0153724,-0.00831259,-0.189495,-0.522329,0.158539
-0.253485,0.537458,0.0368408,0.0028071,-0.192215,-0.40604,0.158539
-0.40103,0.63419,-0.0149612,0.00528555,-0.217866,-0.319873,0.158539
-0.416819,0.679925,-0.0998337,0.012955,-0.225672,-0.282979,0.158539
-0.315884,0.662213,-0.0964653,0.0669523,-0.186701,-0.237187,0.158539
-0.200584,0.638176,0.0266615,0.133598,-0.11718,-0.166462,0.158539
-0.0919148,0.685765,0.232864,0.187662,-0.0539864,-0.0839477,0.158539
-0.00282482,0.641229,0.443937,0.212683,-0.0110001,0.00077039,0.158539
0.0555113,0.424605,0.648463,0.212171,0.0263246,0.0776272,0.158539
0.100444,0.249499,0.858576,0.228575,0.0513887,0.113559,0.158539
0.173169,0.299611,1.03497,0.231835,0.0557742,0.0884701,0.158539
0.1963,0.342459,1.14012,0.223154,0.0527175,0.0653983,0.158539
0.10679,0.332632,1.18077,0.218001,0.0408392,0.0678991,0.158539
0.000930238,0.248066,1.16873,0.189909,0.0323461,0.052893,0.158539
0.000930238,0.248066,1.16873,0.189909,0.0323461,0.052893,0.346146
0.02578,0.0185651,1.08091,0.134987,0.0356307,0.00793356,0.346146
0.172358,-0.110836,0.992522,0.118948,0.0494232,-0.0592725,0.346146
0.341131,-0.079694,0.964565,0.122374,0.089273,-0.0869825,0.346146
0.524104,0.149972,1.02294,0.13357,0.138905,-0.0736105,0.346146
0.647366,0.425905,1.11753,0.15082,0.175033,-0.00406021,0.346146
0.661143,0.625741,1.21185,0.151495,0.20286,0.116437,0.346146
0.60726,0.728529,1.29832,0.144649,0.209635,0.235933,0.346146
0.540816,0.717883,1.35693,0.1393,0.210516,0.32074,0.346146
0.472626,0.662857,1.38385,0.127006,0.206243,0.375466,0.346146
0.366341,0.551538,1.40236,0.133391,0.204381,0.414546,0.346146
0.203201,0.423045,1.40055,0.127698,0.188357,0.432516,0.346146
0.0208701,0.284282,1.37852,0.121298,0.167229,0.414565,0.346146
-0.191329,0.150951,1.34756,0.126837,0.151553,0.380578,0.346146
-0.419069,0.0800175,1.33365,0.134498,0.131686,0.316451,0.346146
-0.646866,0.0503686,1.33347,0.13837,0.120438,0.230121,0.346146
-0.802033,-0.0469639,1.33561,0.124122,0.0995174,0.120581,0.346146
-0.798796,-0.102391,1.34033,0.121226,0.0670566,-0.0115482,0.346146
-0.637436,0.0125371,1.35924,0.111072,0.0404618,-0.137175,0.346146
-0.438031,0.315597,1.37106,0.0796113,0.0215476,-0.21212,0.346146
-0.334717,0.632189,1.35233,0.0492591,-0.0106549,-0.1951,0.346146
-0.32613,0.766736,1.35485,0.0375376,-0.0439561,-0.103347,0.346146
-0.31912,0.835394,1.36427,0.0279474,-0.067171,-0.0185757,0.346146
-0.282734,0.864015,1.3977,0.0171904,-0.0845626,0.0394098,0.346146
-0.239579,0.792903,1.41319,0.00550912,-0.108318,0.0881114,0.346146
-0.21299,0.613693,1.37663,-0.00205082,-0.134598,0.126221,0.346146
-0.196014,0.381927,1.31744,6.80387e-05,-0.161539,0.144628,0.346146
-0.184653,0.159125,1.26364,0.0262687,-0.175937,0.133023,0.346146
-0.210366,0.0109571,1.21208,0.0486848,-0.178999,0.097187,0.346146
-0.33077,-0.0851821,1.16319,0.0567392,-0.169039,0.0419056,0.346146
-0.557567,-0.123242,1.13094,0.073978,-0.158132,-0.0728087,0.346146
-0.746934,-0.117164,1.09034,0.0831188,-0.149607,-0.20662,0.346146
-0.689336,0.121543,1.05971,0.05101,-0.114595,-0.395767,0.346146
-0.404551,0.480526,1.11056,0.0538361,-0.088567,-0.55085,0.346146
-0.142867,0.747844,1.18392,0.0714206,-0.0730443,-0.568367,0.346146
-0.0487236,0.773403,1.21494,0.0381689,-0.0597509,-0.460611,0.346146
0.0363929,0.608605,1.07714,-0.0669433,-0.0537161,-0.358699,0.346146
0.16901,0.242415,0.814958,-0.15246,-0.0507859,-0.272182,0.346146
0.382166,0.0184136,0.588523,-0.12766,-0.0464231,-0.210121,0.346146
0.628596,0.0998426,0.518891,-0.102136,0.0240361,-0.171312,0.346146
0.805403,0.380312,0.580553,-0.124207,0.132244,-0.0955073,0.346146
0.853171,0.577189,0.630322,-0.155752,0.190669,0.0223845,0.346146
0.762227,0.515488,0.549142,-0.212802,0.207338,0.154342,0.346146
0.565108,0.242142,0.374784,-0.247551,0.199434,0.263128,0.346146
0.362205,-0.0699191,0.1527,-0.253179,0.179514,0.311939,0.346146
0.219046,-0.182901,-0.0365162,-0.237474,0.17532,0.298664,0.346146
0.077061,-0.0699676,-0.11724,-0.213044,0.196581,0.266248,0.346146
-0.0843865,0.108698,-0.107836,-0.180301,0.195481,0.25538,0.346146
-0.198787,0.111872,-0.0699661,-0.140586,0.164522,0.260167,0.346146
-0.224782,0.028879,-0.0608253,-0.104627,0.113795,0.249816,0.346146
-0.262778,-0.0652145,-0.0563488,-0.104588,0.0798105,0.232393,0.346146
-0.334458,-0.138548,-0.0444286,-0.102062,0.0466475,0.216922,0.346146
-0.382589,-0.176024,-0.0254234,-0.0963095,0.00133815,0.190513,0.346146
-0.360155,-0.175223,0.0162533,-0.0658599,-0.0434639,0.142267,0.346146
-0.320821,-0.14795,0.0668062,-0.0329757,-0.0799256,0.0944561,0.346146
-0.349484,-0.0620969,0.0759323,-0.011663,-0.118486,0.0504093,0.346146
-0.504827,-0.0327612,0.0521105,0.00951032,-0.15694,0.0201375,0.346146
-0.728533,0.00485755,0.00554395,0.0451545,-0.208193,-0.0418001,0.346146
-0.940352,-0.0374451,-0.025627,0.0720384,-0.247179,-0.147143,0.346146
-0.870051,-0.113296,0.0346396,0.157373,-0.279334,-0.340131,0.346146
-0.564046,0.0512322,0.1259,0.244478,-0.288123,-0.555646,0.346146
-0.269132,0.446455,0.275387,0.29701,-0.282767,-0.700591,0.346146
-0.09134,0.813539,0.446518,0.321149,-0.248892,-0.727298,0.346146
0.0373184,0.804358,0.650563,0.341139,-0.203787,-0.670453,0.346146
0.145384,0.400202,0.893326,0.372423,-0.15844,-0.580264,0.346146
0.344014,-0.022542,1.11637,0.358142,-0.0924005,-0.53015,0.346146
0.730819,-0.185498,1.26246,0.266173,0.0145283,-0.520108,0.346146
1.0979,0.135924,1.39548,0.239953,0.103737,-0.436689,0.346146
1.20126,0.749142,1.52557,0.24842,0.175519,-0.271189,0.346146
0.948778,1.07425,1.60269,0.222707,0.2118,-0.0389468,0.346146
0.581039,0.773937,1.67076,0.211121,0.190607,0.146581,0.346146
0.443885,0.149981,1.6341,0.205,0.141905,0.17693,0.346146
0.58314,-0.168117,1.45097,0.13847,0.158263,0.0656611,0.346146
0.736247,-0.112189,1.27141,0.09999,0.192109,-0.013094,0.346146
0.834549,0.163543,1.17414,0.102788,0.238205,-0.0106311,0.346146
0.833168,0.498549,1.13675,0.119404,0.284124,0.0544689,0.346146
0.756236,0.778171,1.14449,0.119482,0.308868,0.160795,0.346146
0.756236,0.778171,1.14449,0.119482,0.308868,0.160795,0.57074
0.648663,0.885883,1.13998,0.089049,0.319391,0.273886,0.57074
0.593695,0.821606,1.072,0.0509282,0.306689,0.363832,0.57074
0.595825,0.638666,0.933506,0.0249156,0.295783,0.420793,0.57074
0.588335,0.488646,0.815131,0.028351,0.292566,0.449796,0.57074
0.436059,0.464959,0.733675,0.0364145,0.314862,0.479036,0.57074
0.117897,0.506031,0.773536,0.0627455,0.346861,0.512263,0.57074
-0.218746,0.39601,0.752218,0.0684109,0.322797,0.513395,0.57074
-0.51436,0.190003,0.678003,0.0682357,0.298917,0.477147,0.57074
-0.688145,-0.0401512,0.582368,0.0387613,0.269552,0.384547,0.57074
-0.817515,-0.319528,0.499155,0.0384622,0.2468,0.274693,0.57074
-0.906827,-0.507706,0.473393,0.0785893,0.209986,0.142549,0.57074
-0.934635,-0.523331,0.530868,0.124138,0.19416,-0.00418347,0.57074
-0.896102,-0.308478,0.650329,0.154351,0.192194,-0.146646,0.57074
-0.84286,0.111677,0.810704,0.137706,0.197298,-0.264882,0.57074
-0.754541,0.414462,0.96898,0.0929735,0.181299,-0.320686,0.57074
-0.637387,0.50331,1.01125,0.0597428,0.10812,-0.347339,0.57074
-0.618957,0.514726,0.961299,-0.00554579,0.0392037,-0.355389,0.57074
-0.690735,0.38666,0.858882,-0.0543707,-0.0216141,-0.368485,0.57074
-0.765088,0.171228,0.696192,-0.0685181,-0.0828922,-0.400274,0.57074
-0.763764,-0.0107577,0.52442,-0.0787362,-0.138197,-0.464991,0.57074
-0.708692,-0.200024,0.349173,-0.0922736,-0.156929,-0.535524,0.57074
-0.63725,-0.347117,0.145589,-0.12438,-0.168146,-0.594437,0.57074
-0.564172,-0.435835,-0.139465,-0.159871,-0.191155,-0.629638,0.57074
-0.390302,-0.374577,-0.403259,-0.171627,-0.194056,-0.652224,0.57074
-0.0539053,-0.161973,-0.527849,-0.153005,-0.144396,-0.652327,0.57074
0.395271,0.239983,-0.536652,-0.136206,-0.0658982,-0.585519,0.57074
0.762921,0.671738,-0.491544,-0.137793,0.0105272,-0.398463,0.57074
0.948045,0.944146,-0.435693,-0.164777,0.0653933,-0.139567,0.57074
0.965536,0.869501,-0.419764,-0.204667,0.0956121,0.10655,0.57074
0.860859,0.465847,-0.473673,-0.24803,0.103829,0.292193,0.57074
0.69423,-0.13978,-0.624025,-0.289108,0.103231,0.398487,0.57074
0.514503,-0.678346,-0.818966,-0.289669,0.113115,0.436271,0.57074
0.395842,-0.916928,-0.970983,-0.259275,0.142098,0.396034,0.57074
0.333168,-0.919868,-1.02158,-0.208673,0.192058,0.357975,0.57074
0.290065,-0.732731,-0.990273,-0.153563,0.23238,0.34777,0.57074
0.279251,-0.466654,-0.905561,-0.117765,0.247364,0.359839,0.57074
0.315466,-0.3588,-0.815689,-0.100596,0.245891,0.385375,0.57074
0.387778,-0.399199,-0.744201,-0.0880731,0.236248,0.398597,0.57074
0.402291,-0.420691,-0.686766,-0.0501001,0.224356,0.39932,0.57074
0.27145,-0.372789,-0.670236,-0.0367652,0.192229,0.398693,0.57074
0.101682,-0.4528,-0.678357,-0.021599,0.158358,0.393463,0.57074
0.0187055,-0.564763,-0.687156,0.0265967,0.123805,0.31923,0.57074
-0.126549,-0.595125,-0.688697,0.0387497,0.117196,0.237265,0.57074
-0.457636,-0.527869,-0.750767,0.0324561,0.0953429,0.197679,0.57074
-0.796,-0.371844,-0.874369,0.0271911,0.0435442,0.135599,0.57074
-1.01364,-0.252808,-1.00977,0.0276692,0.0011183,0.0446046,0.57074
-0.941885,-0.0249353,-0.999501,0.0609554,-0.0238104,-0.0939327,0.57074
-0.714728,0.17382,-0.849896,0.103197,-0.000820845,-0.17269,0.57074
-0.429244,0.401874,-0.602726,0.146465,0.00121295,-0.192738,0.57074
-0.218496,0.48672,-0.367322,0.159986,-0.0274695,-0.152894,0.57074
-0.122196,0.445787,-0.194027,0.139071,-0.0690151,-0.0766097,0.57074
-0.0648409,0.37794,-0.0739432,0.127878,-0.117604,-0.0505582,0.57074
-0.071246,0.281739,-0.050694,0.10857,-0.167159,-0.0762723,0.57074
-0.184588,0.15211,-0.0860539,0.0835606,-0.216187,-0.129769,0.57074
-0.184588,0.15211,-0.0860539,0.0835606,-0.216187,-0.129769,0.594513
-0.345549,-0.0845037,-0.158743,0.0777752,-0.262939,-0.214132,0.594513
-0.436622,-0.218395,-0.234842,0.089405,-0.292505,-0.329831,0.594513
-0.407833,-0.119647,-0.286661,0.0501587,-0.278585,-0.475253,0.594513
-0.240795,0.0182526,-0.310028,0.0262919,-0.251954,-0.575115,0.594513
-0.105585,0.127326,-0.264833,0.0235286,-0.217092,-0.586857,0.594513
-0.108517,0.23087,-0.169299,0.043003,-0.178209,-0.511535,0.594513
-0.130409,0.305752,-0.14668,-0.00294761,-0.154463,-0.422792,0.594513
-0.0260252,0.236454,-0.135301,-0.0101297,-0.1431,-0.33259,0.594513
0.261634,0.181887,-0.0554464,0.00703142,-0.103403,-0.259031,0.594513
0.629492,0.243277,0.128627,0.0387767,-0.0245552,-0.164979,0.594513
0.849885,0.302873,0.337904,0.0534333,0.0447664,-0.0323387,0.594513
0.749519,0.159922,0.499213,0.0431293,0.0826467,0.144914,0.594513
0.477266,-0.166503,0.638654,0.0392266,0.0774394,0.287639,0.594513
0.317461,-0.497218,0.656212,0.0184483,0.068865,0.313923,0.594513
0.329228,-0.651645,0.552111,-0.0221301,0.0752871,0.256354,0.594513
0.384742,-0.676959,0.460699,-0.0163179,0.0950254,0.229907,0.594513
0.436899,-0.544915,0.450526,0.0329496,0.111713,0.227276,0.594513
0.476604,-0.355124,0.513961,0.0902019,0.150835,0.251289,0.594513
0.472748,-0.145375,0.65593,0.128089,0.192621,0.288525,0.594513
0.421003,-0.0508275,0.798634,0.145699,0.214523,0.342664,0.594513
0.35633,-0.0617728,0.854813,0.149802,0.197071,0.379315,0.594513
0.283072,-0.157586,0.823395,0.128098,0.169223,0.388314,0.594513
0.198517,-0.313362,0.761464,0.127045,0.144291,0.370604,0.594513
0.0641421,-0.414704,0.692877,0.131867,0.139463,0.319547,0.594513
-0.0844779,-0.466848,0.604598,0.121383,0.13953,0.256804,0.594513
-0.202746,-0.397125,0.466342,0.114083,0.12251,0.16999,0.594513
-0.342742,-0.328533,0.305181,0.111884,0.108104,0.097468,0.594513
-0.483429,-0.227135,0.208574,0.12668,0.0901096,0.0288997,0.594513
-0.542675,-0.0311908,0.200245,0.144298,0.0910641,-0.0508311,0.594513
-0.539564,0.218449,0.269872,0.134907,0.115719,-0.122954,0.594513
-0.533906,0.401714,0.33883,0.111115,0.0958307,-0.166655,0.594513
-0.568988,0.436352,0.360158,0.0774867,0.0553112,-0.168948,0.594513
-0.596497,0.44334,0.353715,0.038705,0.00536007,-0.206317,0.594513
-0.617397,0.307302,0.389812,0.0071784,-0.0164781,-0.252698,0.594513
-0.59561,0.0200498,0.480373,-0.00502532,-0.0550065,-0.313137,0.594513
-0.510156,-0.28192,0.484058,-0.0574437,-0.100802,-0.424224,0.594513
-0.458142,-0.52355,0.318622,-0.160543,-0.134517,-0.538759,0.594513
-0.467111,-0.546305,0.0943265,-0.250354,-0.154812,-0.655213,0.594513
-0.422802,-0.315015,-0.0833897,-0.271673,-0.112719,-0.701346,0.594513
-0.348609,0.022759,-0.25899,-0.272742,-0.0705614,-0.648512,0.594513
-0.32794,0.213362,-0.433628,-0.24304,-0.0585794,-0.513316,0.594513
-0.26976,0.267121,-0.56397,-0.192527,-0.0405114,-0.38878,0.594513
-0.061813,0.319021,-0.597234,-0.141944,0.00321323,-0.285958,0.594513
0.231716,0.442002,-0.522934,-0.124803,0.0579246,-0.16234,0.594513
0.535551,0.592527,-0.407596,-0.14797,0.0983026,-0.00260621,0.594513
0.747875,0.580086,-0.335538,-0.182762,0.115671,0.186508,0.594513
0.784719,0.341787,-0.354166,-0.217356,0.108358,0.367045,0.594513
0.603806,-0.043171,-0.5069,-0.256348,0.0884394,0.505518,0.594513
0.314326,-0.401903,-0.755334,-0.267072,0.07359,0.559692,0.594513
0.117035,-0.614451,-1.03027,-0.227542,0.0783001,0.521038,0.594513
0.0761464,-0.59403,-1.21099,-0.153985,0.125794,0.465811,0.594513
0.122539,-0.447666,-1.25866,-0.0805732,0.177637,0.444754,0.594513
0.237662,-0.275971,-1.16719,-0.0178454,0.213673,0.449414,0.594513
0.237662,-0.275971,-1.16719,-0.0178454,0.213673,0.449414,0.808548
0.35815,-0.178978,-1.02836,0.0125777,0.223271,0.470997,0.808548
0.348568,-0.154895,-0.963103,0.0227422,0.209958,0.514115,0.808548
0.217418,-0.28702,-0.940517,0.0464026,0.169407,0.517949,0.808548
0.0790384,-0.454797,-0.943019,0.0708061,0.142634,0.455664,0.808548
-0.072965,-0.620175,-0.946818,0.106812,0.125595,0.374716,0.808548
-0.261783,-0.6662,-0.899029,0.134284,0.0959845,0.280441,0.808548
-0.534829,-0.551763,-0.923135,0.101752,0.0492582,0.160855,0.808548
-0.849042,-0.390061,-1.05136,0.0853552,-0.0148221,0.0413361,0.808548
-1.11388,-0.398348,-1.18749,0.098183,-0.0561417,-0.0810798,0.808548
-1.24216,-0.437333,-1.23936,0.115098,-0.0577547,-0.251027,0.808548
-1.14619,-0.363657,-1.06315,0.199392,-0.0527587,-0.414716,0.808548
-0.821947,-0.130425,-0.685304,0.271318,-0.0549399,-0.549151,0.808548
-0.42588,0.228333,-0.24007,0.278049,-0.080122,-0.588181,0.808548
-0.20219,0.394511,0.0876929,0.221713,-0.152117,-0.521051,0.808548
-0.128435,0.351982,0.231664,0.146523,-0.230278,-0.462759,0.808548
-0.0645995,0.37691,0.208093,0.0776693,-0.268178,-0.457776,0.808548
0.00645335,0.4666,0.123606,0.0528105,-0.263929,-0.436861,0.808548
0.128763,0.67824,0.0792726,0.0700998,-0.230455,-0.400319,0.808548
0.232401,0.951885,0.118507,0.112626,-0.168339,-0.307995,0.808548
0.25638,1.16669,0.267669,0.144421,-0.106032,-0.171883,0.808548
0.176577,1.158,0.451174,0.14193,-0.066687,-0.0357909,0.808548
0.152094,0.868553,0.635909,0.133292,-0.0495049,0.0321162,0.808548
0.316929,0.58451,0.79579,0.114667,-0.0223487,0.0338529,0.808548
0.52882,0.48652,0.919496,0.100227,0.0181177,0.0522917,0.808548
0.571853,0.507455,1.03313,0.112055,0.0309676,0.11176,0.808548
0.434898,0.422825,1.10755,0.107578,0.0371931,0.171802,0.808548
0.25222,0.242481,1.14067,0.10949,0.0284716,0.176739,0.808548
0.159223,0.0427702,1.11911,0.0790676,0.0514901,0.132079,0.808548
0.181085,-0.0222395,1.02916,0.0423373,0.0657288,0.0758504,0.808548
0.255705,0.0829888,0.898529,0.0430498,0.0801632,0.0691628,0.808548
0.336126,0.282991,0.845988,0.0800672,0.111574,0.102017,0.808548
0.412303,0.448428,0.904173,0.116818,0.169823,0.177903,0.808548
0.468711,0.535386,1.09153,0.143038,0.220856,0.256723,0.808548
0.524797,0.517384,1.30075,0.120275,0.235815,0.322904,0.808548
0.544073,0.343115,1.43334,0.0952963,0.230052,0.37924,0.808548
0.476596,0.118157,1.48695,0.0800768,0.2126,0.411434,0.808548
0.298072,-0.0425928,1.46418,0.0724072,0.186149,0.405914,0.808548
0.0465449,-0.150073,1.41003,0.075685,0.171385,0.370688,0.808548
-0.189045,-0.229608,1.33563,0.0761968,0.151633,0.290537,0.808548
-0.356892,-0.309786,1.25181,0.10989,0.130169,0.19261,0.808548
-0.454787,-0.241817,1.19867,0.150702,0.112298,0.0748885,0.808548
-0.576736,-0.010392,1.15857,0.16325,0.107983,-0.00985837,0.808548
-0.722172,0.149415,1.15652,0.200069,0.0836194,-0.0571274,0.808548
-0.759005,0.164759,1.17989,0.208213,0.0612185,-0.123295,0.808548
-0.624487,0.20238,1.23101,0.210233,0.0489509,-0.195278,0.808548
-0.425139,0.293751,1.31774,0.21121,0.0326017,-0.202115,0.808548
-0.369131,0.444955,1.38571,0.181313,0.014572,-0.140589,0.808548
-0.426193,0.580346,1.4089,0.14593,-0.0260714,-0.0892267,0.808548
-0.463787,0.710358,1.34579,0.105493,-0.0672495,-0.0679334,0.808548
-0.544519,0.781145,1.28157,0.112862,-0.0995797,-0.0403155,0.808548
-0.712056,0.70202,1.23856,0.116928,-0.127893,-0.0280788,0.808548
-0.829681,0.286094,1.22609,0.118929,-0.144581,-0.0940052,0.808548
-0.735715,-0.389064,1.25191,0.106596,-0.132915,-0.233698,0.808548
-0.688351,-1.06353,1.29577,0.0893934,-0.104413,-0.388955,0.808548
-0.688351,-1.06353,1.29577,0.0893934,-0.104413,-0.388955,1.02522
-0.662689,-1.27316,1.34277,0.0542612,-0.124627,-0.603638,1.02522
-0.398945,-1.03491,1.30995,-0.0126104,-0.128412,-0.811898,1.02522
-0.0139603,-0.354015,1.17079,-0.11203,-0.0916989,-0.871373,1.02522
0.167661,0.401135,0.995341,-0.183474,-0.0328931,-0.741699,1.02522
0.205017,0.943793,0.765566,-0.199618,-0.0290736,-0.549489,1.02522
0.324311,1.22725,0.574027,-0.165101,-0.00320369,-0.390338,1.02522
0.594562,1.31919,0.563188,-0.115828,0.0743062,-0.240249,1.02522
0.904432,1.20317,0.701102,-0.0980822,0.150813,-0.0769398,1.02522
1.09676,0.895131,0.855605,-0.125465,0.195959,0.0831559,1.02522
1.08702,0.395004,0.925087,-0.181947,0.209785,0.203838,1.02522
0.89794,-0.134228,0.81298,-0.250442,0.193448,0.259038,1.02522
0.675133,-0.385026,0.533049,-0.302965,0.169971,0.237466,1.02522
0.489051,-0.293027,0.181952,-0.311163,0.19036,0.215652,1.02522
0.332767,-0.0262877,-0.0946831,-0.259114,0.217893,0.240923,1.02522
0.260813,0.247035,-0.2194,-0.186134,0.242705,0.295359,1.02522
0.308298,0.417572,-0.205587,-0.126989,0.263947,0.370221,1.02522
0.431013,0.420715,-0.104416,-0.0905176,0.271231,0.465046,1.02522
0.521039,0.264898,0.00681542,-0.077263,0.267359,0.565905,1.02522
0.519042,0.00869392,0.0825614,-0.068004,0.247233,0.646011,1.02522
0.428443,-0.238447,0.100038,-0.062215,0.221315,0.686953,1.02522
0.204117,-0.468483,0.0476609,-0.0586172,0.193856,0.694875,1.02522
-0.15276,-0.626519,-0.0301252,-0.0238173,0.156646,0.66664,1.02522
-0.549666,-0.813803,-0.0827885,0.0442764,0.124216,0.561351,1.02522
-0.85176,-0.959973,-0.109302,0.0595204,0.0928867,0.356551,1.02522
-0.971437,-1.02315,-0.214778,0.034292,0.0423503,0.0924965,1.02522
-1.1188,-1.04251,-0.395281,0.0106836,0.0148167,-0.106893,1.02522
-1.34954,-0.94428,-0.520833,0.0149809,-0.0334963,-0.284939,1.02522
-1.32091,-0.6753,-0.496875,0.0373851,-0.0611436,-0.512052,1.02522
-0.893517,-0.057973,-0.354779,0.0392242,-0.0466959,-0.664011,1.02522
-0.349288,0.668502,-0.101459,0.0350526,-0.0503909,-0.628876,1.02522
0.124966,1.13029,0.153114,0.020791,-0.0974761,-0.442234,1.02522
0.455476,1.19285,0.299817,-0.01467,-0.133229,-0.213253,1.02522
0.630153,1.06552,0.353154,-0.0548647,-0.152388,-0.0219849,1.02522
0.663448,0.819732,0.321025,-0.101533,-0.174345,0.131809,1.02522
0.599941,0.47783,0.194596,-0.144593,-0.182928,0.226978,1.02522
0.482085,0.171764,0.0444312,-0.146099,-0.175994,0.265373,1.02522
0.381318,-0.0502566,-0.06379,-0.128658,-0.136466,0.247271,1.02522
0.317433,-0.146637,-0.120312,-0.102477,-0.0891021,0.214434,1.02522
0.288714,-0.150049,-0.123089,-0.0778509,-0.0587807,0.169388,1.02522
0.289018,-0.107482,-0.107318,-0.0594883,-0.0304648,0.122191,1.02522
0.297903,0.00302139,-0.0486105,-0.0370383,-0.00537896,0.0724441,1.02522
0.238659,0.112503,0.0385228,-0.0160517,0.0082221,0.0436267,1.02522
0.0918294,0.126683,0.133338,-0.00978729,0.0142027,0.0106917,1.02522
0.0210876,0.114222,0.208415,-0.0104806,-0.00627306,-0.0910653,1.02522
0.0649133,0.189361,0.258191,-0.025214,-0.0131758,-0.178914,1.02522
0.0625488,0.156327,0.219559,-0.0437587,-0.0335338,-0.210235,1.02522
-0.0612627,0.0392033,0.0931663,-0.0583828,-0.0602117,-0.221661,1.02522
-0.238889,-0.120551,-0.0924666,-0.0483477,-0.0679686,-0.248717,1.02522
-0.304953,-0.0654396,-0.227547,-0.0140542,-0.0444952,-0.303074,1.02522
-0.214616,0.287017,-0.246184,0.0184736,-0.00112265,-0.306263,1.02522
-0.0492149,0.66109,-0.175733,0.0623498,0.0195753,-0.201195,1.02522
0.0383456,0.900388,-0.0704903,0.0947166,0.0214796,-0.0214427,1.02522
-0.000284418,0.930922,0.0642425,0.103192,0.0162673,0.152953,1.02522
-0.101129,0.777326,0.180764,0.0973312,0.00193408,0.273033,1.02522
-0.101129,0.777326,0.180764,0.0973312,0.00193408,0.273033,1.27359
-0.15439,0.471207,0.294827,0.11245,-0.0176963,0.329134,1.27359
-0.132598,0.192657,0.424356,0.125945,-0.0145608,0.33892,1.27359
-0.113282,0.0415723,0.599493,0.148628,0.00635406,0.336835,1.27359
-0.182936,0.0364674,0.807989,0.166128,0.0147443,0.334824,1.27359
-0.312138,0.00128525,0.99872,0.178033,0.00651538,0.31357,1.27359
-0.433526,-0.101087,1.13284,0.184499,-0.0135391,0.235903,1.27359
-0.549223,-0.149037,1.21495,0.194546,-0.0366594,0.102112,1.27359
-0.552342,-0.297223,1.27892,0.212874,-0.0477915,-0.0591798,1.27359
-0.474885,-0.560999,1.26843,0.214075,-0.04238,-0.205062,1.27359
-0.351768,-0.706458,1.24591,0.242995,-0.0382714,-0.336434,1.27359
-0.160025,-0.457929,1.26756,0.249116,0.00629647,-0.43557,1.27359
0.0518647,0.137724,1.34978,0.256212,0.052473,-0.434421,1.27359
0.214584,0.653349,1.50016,0.260073,0.0760681,-0.303953,1.27359
0.326678,0.798023,1.61493,0.253704,0.0545601,-0.12463,1.27359
0.334633,0.6897,1.6695,0.24264,0.0372445,0.0261187,1.27359
0.220104,0.463748,1.7007,0.222593,0.0238784,0.127758,1.27359
0.10351,0.147631,1.67551,0.183224,0.0127999,0.155952,1.27359
0.0734865,-0.180875,1.57909,0.159043,0.00229916,0.122986,1.27359
0.10092,-0.386975,1.42394,0.149762,-0.00322326,0.0562576,1.27359
0.122848,-0.303407,1.28767,0.156499,0.0193052,0.00701571,1.27359
0.129408,-0.134786,1.19945,0.158884,0.048854,-0.0226635,1.27359
0.186363,0.0841497,1.15746,0.152324,0.0728883,-0.0481648,1.27359
0.229656,0.226717,1.11302,0.135893,0.0893078,-0.0331417,1.27359
0.237159,0.349347,1.06274,0.126041,0.0807896,-0.00926286,1.27359
0.264366,0.455152,0.999275,0.109768,0.0778047,0.0083167,1.27359
0.270124,0.636857,0.922477,0.105734,0.0738356,0.0267752,1.27359
0.121631,0.704378,0.875083,0.0931571,0.0664077,0.0695031,1.27359
-0.0669963,0.641203,0.858751,0.0676172,0.0167789,0.0488063,1.27359
-0.175065,0.502478,0.777828,0.0534628,-0.0522744,-0.0262198,1.27359
-0.232818,0.313008,0.692761,0.0430305,-0.0923258,-0.115994,1.27359
-0.241998,0.174032,0.608379,0.0103766,-0.13061,-0.21941,1.27359
-0.305951,-0.111316,0.482408,-0.0220984,-0.155741,-0.287012,1.27359
-0.410705,-0.523223,0.358175,-0.0461159,-0.176092,-0.401841,1.27359
-0.384871,-0.643894,0.209785,-0.0895488,-0.171244,-0.562947,1.27359
-0.296435,-0.405528,0.0682577,-0.117008,-0.137738,-0.648639,1.27359
-0.242204,-0.0233117,0.00214826,-0.114156,-0.106743,-0.634766,1.27359
-0.174766,0.124052,-0.0189487,-0.127582,-0.0723115,-0.584783,1.27359
0.0814652,0.0300358,-0.0602082,-0.132293,-0.0450483,-0.554007,1.27359
0.562864,-0.0227227,-0.073899,-0.121258,0.0109038,-0.513569,1.27359
1.06546,0.234988,-0.0858843,-0.125419,0.105377,-0.384876,1.27359
1.26948,0.590124,-0.0620015,-0.112716,0.178083,-0.154807,1.27359
1.16716,0.718961,-0.0101429,-0.101809,0.217191,0.0741133,1.27359
0.924991,0.448174,0.0340258,-0.100079,0.228149,0.21706,1.27359
0.726111,-0.0588032,0.0635195,-0.102009,0.225852,0.240144,1.27359
0.712689,-0.542375,0.0390029,-0.127554,0.22022,0.187477,1.27359
0.779381,-0.736252,-0.102733,-0.153035,0.220379,0.157928,1.27359
0.714839,-0.665041,-0.323175,-0.140403,0.235269,0.202672,1.27359
0.522774,-0.352869,-0.445894,-0.0896463,0.259399,0.259272,1.27359
0.325657,-0.0615965,-0.452267,-0.0325582,0.279019,0.305205,1.27359
0.233308,0.0523154,-0.401114,0.0136073,0.271326,0.333374,1.27359
0.251672,-0.00826587,-0.303264,0.038792,0.248367,0.355532,1.27359
0.358668,-0.0980846,-0.208162,0.032361,0.216238,0.326918,1.27359
0.447658,-0.144215,-0.156432,0.0254435,0.19449,0.31301,1.27359
0.453349,-0.281677,-0.0953433,0.0403216,0.160057,0.301209,1.27359
0.453349,-0.281677,-0.0953433,0.0403216,0.160057,0.301209,1.49026
0.378176,-0.370199,-0.0707139,0.0442927,0.125365,0.270574,1.49026
0.17644,-0.386404,-0.102597,0.040015,0.0942175,0.250409,1.49026
-0.050446,-0.335724,-0.139413,0.0411832,0.0774549,0.22621,1.49026
-0.18497,-0.200922,-0.193338,0.0154265,0.0501595,0.161284,1.49026
-0.239981,-0.125998,-0.26975,-0.0231833,0.0499494,0.110128,1.49026
-0.276907,-0.191986,-0.327436,-0.0328925,0.0475127,0.0835018,1.49026
-0.315794,-0.261706,-0.34991,-0.0177846,0.0360382,0.0646397,1.49026
-0.383243,-0.263428,-0.334392,-4.41596e-05,0.0301842,0.0407124,1.49026
-0.450079,-0.228281,-0.261859,0.0219568,0.0394017,0.0267691,1.49026
-0.451354,-0.164767,-0.119673,0.044324,0.0442446,0.0235838,1.49026
-0.340135,-0.0804244,0.0718873,0.0645988,0.0406299,0.0176382,1.49026
-0.170937,-0.00599643,0.234974,0.04364,0.0305096,0.0299082,1.49026
-0.061604,0.0280447,0.322591,0.0182482,0.0070076,0.0674949,1.49026
-0.081422,-0.00407971,0.321863,0.00433113,-0.0277148,0.123582,1.49026
-0.185214,-0.0494978,0.235103,-0.00965569,-0.0645673,0.15536,1.49026
-0.289482,-0.0907814,0.147219,-0.0133991,-0.0852436,0.161215,1.49026
-0.358455,-0.0746547,0.0979741,-0.00887494,-0.0842625,0.12477,1.49026
-0.383947,-0.0702174,0.0921439,0.0119919,-0.0767483,0.0706801,1.49026
-0.33743,-0.0181086,0.129952,0.0422647,-0.0782667,-0.00396186,1.49026
-0.349215,0.121611,0.152782,0.0469123,-0.0820873,-0.0726224,1.49026
-0.427523,0.190148,0.185085,0.049817,-0.0933595,-0.106198,1.49026
-0.460151,0.206104,0.223843,0.0736374,-0.117756,-0.170428,1.49026
-0.351851,0.152235,0.273732,0.0764803,-0.100354,-0.272373,1.49026
-0.169944,0.108944,0.320179,0.0649157,-0.0816379,-0.373359,1.49026
-0.097324,0.0741487,0.314894,0.0581286,-0.089087,-0.415179,1.49026
-0.168237,0.136613,0.251876,0.0422144,-0.0949238,-0.414387,1.49026
-0.340188,0.267296,0.1457,0.0142126,-0.0854176,-0.391995,1.49026
-0.467865,0.355233,0.10729,0.0169787,-0.0560603,-0.346615,1.49026
-0.400423,0.36177,0.12816,0.050193,-0.0198168,-0.325043,1.49026
-0.132784,0.36875,0.196899,0.0801276,0.0163175,-0.308178,1.49026
0.193719,0.422907,0.324143,0.106917,0.0658666,-0.252907,1.49026
0.429674,0.551219,0.508461,0.136511,0.105096,-0.157861,1.49026
0.465749,0.592522,0.680617,0.144532,0.119331,-0.0429923,1.49026
0.325897,0.418191,0.786475,0.131137,0.113205,0.0632646,1.49026
0.137354,0.127498,0.803633,0.109563,0.0903859,0.11006,1.49026
0.0303109,-0.139402,0.741402,0.0757768,0.0796651,0.0852261,1.49026
0.112169,-0.154608,0.649474,0.0383892,0.0827299,-0.0213608,1.49026
0.302565,0.044905,0.556961,0.0119139,0.104422,-0.0926942,1.49026
0.467785,0.375702,0.553579,0.0218859,0.137373,-0.0823252,1.49026
0.527317,0.663814,0.605012,0.0354052,0.163476,0.00522834,1.49026
0.502304,0.768827,0.657483,0.033272,0.163846,0.132128,1.49026
0.479815,0.701086,0.691918,0.0244577,0.146655,0.231448,1.49026
0.486957,0.515537,0.687447,0.0252288,0.121452,0.285407,1.49026
0.479187,0.327017,0.657507,0.0212803,0.104432,0.306137,1.49026
0.373942,0.167026,0.610152,0.0170166,0.0947381,0.315649,1.49026
0.198,0.0666411,0.573046,0.0214484,0.0857895,0.308662,1.49026
0.00125786,0.0540471,0.559842,0.0397674,0.0765528,0.276581,1.49026
-0.156164,0.112888,0.543872,0.0300315,0.0693159,0.22772,1.49026
-0.224669,0.142874,0.496336,0.0156746,0.0492816,0.17388,1.49026
-0.241132,0.0649742,0.452345,0.0207543,0.0350667,0.144932,1.49026
-0.23957,-0.0302027,0.46079,0.0429584,0.0294243,0.121352,1.49026
-0.266026,-0.106913,0.486341,0.0475229,0.0424502,0.104752,1.49026
-0.312926,-0.128403,0.504811,0.0418298,0.0425727,0.0902004,1.49026
-0.35893,-0.0962919,0.492139,0.0269785,0.0316413,0.0720586,1.49026
-0.35893,-0.0962919,0.492139,0.0269785,0.0316413,0.0720586,1.72807
-0.392894,-0.0122604,0.481755,0.0172374,0.0229268,0.0534036,1.72807
-0.414542,0.041879,0.494071,0.0183708,0.016239,0.0542323,1.72807
-0.412573,-0.0308586,0.497416,0.0229629,0.000364482,0.065959,1.72807
-0.35919,-0.146209,0.493344,0.0368883,-0.0184052,0.0601927,1.72807
-0.297299,-0.176524,0.489831,0.0486505,-0.0275514,0.0278205,1.72807
-0.292578,-0.177677,0.520278,0.0611016,-0.0288221,0.000829637,1.72807
-0.350997,-0.283645,0.546986,0.0757407,-0.0243603,-0.00756806,1.72807
-0.377843,-0.398574,0.510218,0.0689458,-0.0372019,-0.053504,1.72807
-0.372526,-0.407737,0.437453,0.0381493,-0.0353087,-0.135439,1.72807
-0.379561,-0.255411,0.405189,0.0310902,-0.0101646,-0.219528,1.72807
-0.383347,-0.0189333,0.406375,0.0295847,0.00285977,-0.303555,1.72807
-0.402257,0.182721,0.376452,0.00596508,-0.00393689,-0.34934,1.72807
-0.434551,0.275436,0.311945,-0.0383082,-0.0287698,-0.377376,1.72807
-0.465029,0.249122,0.222495,-0.073107,-0.0541693,-0.392308,1.72807
-0.469243,0.0950062,0.155979,-0.0908749,-0.070964,-0.405773,1.72807
-0.430009,-0.129891,0.0550455,-0.12698,-0.0817885,-0.434333,1.72807
-0.387112,-0.340018,-0.150577,-0.199994,-0.0862138,-0.471315,1.72807
-0.283668,-0.275872,-0.339004,-0.240498,-0.081924,-0.507497,1.72807
-0.0458512,0.0801745,-0.41719,-0.240365,-0.0391819,-0.527946,1.72807
0.293551,0.53398,-0.407473,-0.229813,0.0236195,-0.46805,1.72807
0.549968,0.822834,-0.377228,-0.233968,0.0738449,-0.302528,1.72807
0.657311,0.804037,-0.3502,-0.230259,0.0919222,-0.0982378,1.72807
0.643528,0.548853,-0.378358,-0.240707,0.0955293,0.0816789,1.72807
0.528353,0.15465,-0.517438,-0.265621,0.0948854,0.210433,1.72807
0.37971,-0.224432,-0.729912,-0.272565,0.0875965,0.27594,1.72807
0.277151,-0.410229,-0.928165,-0.260018,0.101232,0.285217,1.72807
0.252248,-0.363784,-1.01573,-0.219137,0.147995,0.270124,1.72807
0.339857,-0.208656,-0.95191,-0.160833,0.189078,0.266502,1.72807
0.500707,-0.0773443,-0.775923,-0.107077,0.219507,0.283273,1.72807
0.631948,-0.0833776,-0.625362,-0.0913468,0.231451,0.329685,1.72807
0.679171,-0.271855,-0.589675,-0.0979671,0.205335,0.377928,1.72807
0.710196,-0.437264,-0.676441,-0.102245,0.157521,0.388212,1.72807
0.67025,-0.571859,-0.824139,-0.0950019,0.134996,0.380446,1.72807
0.557784,-0.631758,-0.917412,-0.039973,0.122322,0.355719,1.72807
0.358282,-0.628768,-0.959426,0.015185,0.121917,0.32919,1.72807
0.132259,-0.551139,-0.958991,0.0584305,0.113158,0.280891,1.72807
-0.143979,-0.416088,-0.949535,0.0788651,0.100175,0.224292,1.72807
-0.427633,-0.262405,-0.986604,0.0741561,0.0673519,0.16146,1.72807
-0.654085,-0.165281,-1.07644,0.068398,0.0261877,0.0876212,1.72807
-0.815502,-0.178878,-1.13967,0.065899,0.00817838,0.0163949,1.72807
-0.849001,-0.188017,-1.08748,0.0896362,0.00693753,-0.0658998,1.72807
-0.702197,-0.160493,-0.899678,0.139234,0.0160428,-0.149754,1.72807
-0.392427,0.0504802,-0.545333,0.195768,0.0282694,-0.219674,1.72807
-0.0380538,0.35822,-0.125834,0.199653,0.0510706,-0.238117,1.72807
0.188465,0.45942,0.203057,0.151399,0.0456358,-0.173077,1.72807
0.234269,0.308507,0.333536,0.0947624,-0.0274388,-0.0576871,1.72807
0.138484,-0.0384671,0.274418,0.0292579,-0.0804295,0.0244695,1.72807
0.061971,-0.258754,0.118177,-0.0420413,-0.103554,0.0343997,1.72807
0.114305,-0.174448,-0.0278178,-0.0961116,-0.0766203,-0.0293024,1.72807
0.269423,0.0940416,-0.081507,-0.098815,-0.0368569,-0.0707121,1.72807
0.365745,0.360979,-0.0572095,-0.0608951,0.00266516,-0.0322223,1.72807
0.2793,0.398245,-0.0130402,-0.0422368,0.0257781,0.0784242,1.72807
0.104444,0.134833,-0.0172407,-0.0581467,0.0354998,0.164679,1.72807
0.0215256,-0.19589,-0.140875,-0.0707951,0.00532153,0.166251,1.72807
0.0215256,-0.19589,-0.140875,-0.0707951,0.00532153,0.166251,1.94739
0.0313389,-0.279632,-0.351854,-0.095992,-0.00430483,0.0954048,1.94739
0.0103497,-0.139099,-0.477632,-0.0881962,0.026554,0.0329965,1.94739
-0.0453645,0.0208123,-0.446865,-0.0226503,0.064221,0.0227857,1.94739
-0.0692336,0.0838513,-0.346322,0.0383611,0.0881077,0.0274589,1.94739
-0.0820892,-0.000577681,-0.246122,0.0693578,0.0882768,0.0312156,1.94739
-0.0848844,-0.136284,-0.201033,0.0794821,0.0543079,0.018949,1.94739
-0.087903,-0.228748,-0.239274,0.0652091,0.0194062,-0.0155452,1.94739
-0.0761881,-0.231844,-0.271034,0.0473255,0.00676563,-0.0579892,1.94739
-0.0339789,-0.0711056,-0.288229,0.0308355,-0.00257388,-0.108668,1.94739
0.0162205,0.137257,-0.309437,0.0115876,-0.00335976,-0.126486,1.94739
0.0302129,0.252687,-0.338419,0.00802185,-0.0145317,-0.0953262,1.94739
-0.0174832,0.218882,-0.374014,0.0123753,-0.0254081,-0.0251803,1.94739
-0.094341,0.107789,-0.398992,0.018898,-0.0297217,0.0308536,1.94739
-0.142399,0.0647706,-0.416304,0.0276233,-0.0369995,0.0462813,1.94739
-0.166617,0.00785275,-0.399719,0.0462665,-0.0380859,0.05573,1.94739
-0.169336,-0.103267,-0.310978,0.0905178,-0.0360921,0.0620737,1.94739
-0.150341,-0.222082,-0.214306,0.0996152,-0.0212511,0.0470157,1.94739
-0.11319,-0.304088,-0.123601,0.0993426,-0.0216668,0.0197821,1.94739
-0.0786616,-0.334487,-0.0631051,0.0885609,-0.0216027,-0.017435,1.94739
-0.0339074,-0.302514,-0.0158177,0.0671929,-0.0164625,-0.0491064,1.94739
-0.01066,-0.261459,-0.00926859,0.0460934,-0.0225858,-0.0652003,1.94739
-0.02595,-0.261902,-0.0290452,0.0289941,-0.026978,-0.0589711,1.94739
-0.0859776,-0.306453,-0.0647489,0.017854,-0.0237618,-0.0411436,1.94739
-0.13071,-0.361504,-0.112529,0.0169441,-0.0226902,-0.0355184,1.94739
-0.129793,-0.355517,-0.155278,0.0249397,-0.0137063,-0.0519888,1.94739
-0.1295,-0.280728,-0.127284,0.0417627,0.0025613,-0.0559691,1.94739
-0.118039,-0.211853,-0.0543894,0.0642818,0.0131332,-0.0394307,1.94739
-0.114007,-0.225458,0.0158059,0.0641095,0.0170883,-0.00528944,1.94739
-0.0968995,-0.300402,0.0197127,0.041891,0.00187957,0.020263,1.94739
-0.0775978,-0.385811,-0.016717,0.0163175,-0.0218758,0.0322098,1.94739
-0.0773306,-0.393965,-0.00859532,0.0154343,-0.0239361,0.0339556,1.94739
-0.115044,-0.390672,0.0121031,0.0112645,-0.0146405,0.0418979,1.94739
-0.138278,-0.368157,0.0174769,-0.000207338,-0.0235848,0.0340537,1.94739
-0.127524,-0.375484,-0.00565648,-0.0203667,-0.0393797,0.015711,1.94739
-0.0729572,-0.324418,-0.0451398,-0.0380374,-0.0515769,-0.00689238,1.94739
-0.0324112,-0.228631,-0.104756,-0.056442,-0.0589153,-0.0255465,1.94739
-0.0354863,-0.147321,-0.135541,-0.0523249,-0.0549822,-0.0135761,1.94739
-0.0750789,-0.124759,-0.123426,-0.0278068,-0.0497831,0.00314116,1.94739
-0.119136,-0.133068,-0.0994078,-0.024613,-0.037958,0.00873977,1.94739
-0.132628,-0.1421,-0.0766419,-0.0279877,-0.035482,-0.0054242,1.94739
-0.124472,-0.0761259,-0.0888563,-0.0485081,-0.0479061,-0.0265589,1.94739
-0.088249,0.0443081,-0.101808,-0.0598897,-0.0622908,-0.0342907,1.94739
0.00270163,0.1622,-0.0868084,-0.0516835,-0.0689493,-0.0263793,1.94739
0.0680577,0.238717,-0.071707,-0.0537269,-0.0720467,0.0234768,1.94739
0.0468737,0.18601,-0.106522,-0.063906,-0.0899656,0.100993,1.94739
-0.00927901,0.0662509,-0.175725,-0.079864,-0.115836,0.162975,1.94739
-0.0460487,-0.019475,-0.269491,-0.0831809,-0.127695,0.174815,1.94739
-0.0845157,-0.0220427,-0.362706,-0.100242,-0.122367,0.167254,1.94739
-0.129533,-0.00110568,-0.43127,-0.0922321,-0.114372,0.161959,1.94739
-0.183649,0.0215062,-0.442934,-0.0670228,-0.102975,0.156969,1.94739
-0.234571,-0.0378617,-0.385985,-0.0394142,-0.0854442,0.15463,1.94739
-0.208705,-0.104697,-0.305717,-0.00458809,-0.0889937,0.121111,1.94739
-0.171029,-0.0916341,-0.25964,-8.84235e-05,-0.0912221,0.0767792,1.94739
-0.203736,-0.0796212,-0.231354,-0.00423373,-0.105305,0.0545152,1.94739
-0.203736,-0.0796212,-0.231354,-0.00423373,-0.105305,0.0545152,2.16934
-0.292809,-0.113574,-0.213289,-0.00387904,-0.111893,0.0437606,2.16934
-0.350042,-0.20378,-0.20659,-0.0112611,-0.108592,0.00303549,2.16934
-0.313987,-0.277595,-0.182993,-0.0160353,-0.0987749,-0.0785229,2.16934
-0.17106,-0.293635,-0.131034,-0.0080795,-0.0931161,-0.194335,2.16934
0.0290369,-0.249094,-0.093854,0.000789247,-0.0858797,-0.285371,2.16934
0.0705841,-0.177107,-0.115398,0.00935201,-0.0821152,-0.312251,2.16934
-0.0743461,-0.0300368,-0.147576,0.0155906,-0.0787537,-0.303633,2.16934
-0.291855,0.135723,-0.157421,0.0297673,-0.0601036,-0.300937,2.16934
-0.458604,0.291583,-0.109659,0.0393773,-0.0365159,-0.310663,2.16934
-0.486745,0.451663,-0.0354779,0.032391,-0.0057013,-0.328052,2.16934
-0.365821,0.567983,0.0554301,0.0253541,0.0103996,-0.319456,2.16934
-0.0839743,0.616425,0.156044,0.0436051,0.00527291,-0.287891,2.16934
0.166291,0.60762,0.286831,0.0838271,0.00786869,-0.194314,2.16934
0.221378,0.584283,0.455765,0.114564,0.0250414,-0.0669771,2.16934
0.167896,0.534254,0.620664,0.122157,0.0253301,0.033172,2.16934
0.153605,0.329965,0.731571,0.126418,0.00414212,0.0721492,2.16934
0.175351,0.0388093,0.779795,0.119247,-0.00744674,0.0625743,2.16934
0.144812,-0.168538,0.751781,0.0924083,-0.0107993,0.0294647,2.16934
0.122068,-0.183528,0.658075,0.0571939,-0.0133351,-0.0327338,2.16934
0.143303,-0.0244002,0.556106,0.0457018,-0.00404511,-0.0972674,2.16934
0.211785,0.259826,0.508096,0.0552421,0.0182693,-0.132705,2.16934
0.335252,0.516621,0.518635,0.0700265,0.0462483,-0.114874,2.16934
0.498301,0.676542,0.559124,0.0786255,0.0732004,-0.0362837,2.16934
0.588419,0.694878,0.593679,0.0708361,0.0959878,0.0916157,2.16934
0.63077,0.654103,0.626599,0.0694076,0.109071,0.219824,2.16934
0.658472,0.6125,0.631308,0.0585346,0.117289,0.316632,2.16934
0.627372,0.525956,0.613302,0.0495482,0.128067,0.391249,2.16934
0.518881,0.434316,0.588274,0.0498377,0.130079,0.449643,2.16934
0.347402,0.291105,0.550974,0.0592997,0.125422,0.486735,2.16934
0.198858,0.169321,0.508195,0.074488,0.113266,0.480227,2.16934
0.060398,0.0167964,0.467571,0.0849778,0.120271,0.452102,2.16934
-0.123851,-0.197123,0.39419,0.0773355,0.122953,0.402142,2.16934
-0.291574,-0.371455,0.329935,0.104643,0.0980446,0.322497,2.16934
-0.451014,-0.405007,0.266229,0.122084,0.085045,0.19665,2.16934
-0.66349,-0.25687,0.324481,0.160123,0.0899564,0.059944,2.16934
-0.865587,-0.0139018,0.490505,0.204749,0.0867193,-0.0634723,2.16934
-0.879385,0.176206,0.657493,0.208561,0.0596966,-0.206611,2.16934
-0.647415,0.243685,0.783232,0.170712,0.0153188,-0.335513,2.16934
-0.323551,0.343469,0.843364,0.0989577,-0.018419,-0.422218,2.16934
-0.154724,0.421415,0.84859,0.0320976,-0.0432286,-0.409213,2.16934
-0.18473,0.459554,0.893898,0.0114029,-0.05699,-0.327661,2.16934
-0.285844,0.480281,0.948236,-0.0204024,-0.0610935,-0.265463,2.16934
-0.308664,0.466835,0.973085,-0.075939,-0.0726579,-0.252546,2.16934
-0.261018,0.279242,0.949867,-0.134187,-0.0731652,-0.246933,2.16934
-0.201587,-0.0559471,0.866447,-0.168281,-0.0766063,-0.224063,2.16934
-0.184826,-0.429629,0.717031,-0.192476,-0.0867439,-0.195757,2.16934
-0.220468,-0.625764,0.506816,-0.223142,-0.085754,-0.176385,2.16934
-0.283485,-0.592374,0.280437,-0.247781,-0.0836551,-0.16563,2.16934
-0.295613,-0.411878,0.0348123,-0.27328,-0.0625018,-0.164784,2.16934
-0.270641,-0.217649,-0.266787,-0.294111,-0.0274055,-0.142596,2.16934
-0.259724,-0.026011,-0.512291,-0.286501,0.0154955,-0.118954,2.16934
-0.178916,0.0681833,-0.628348,-0.258436,0.0711128,-0.0959306,2.16934
0.114463,0.108266,-0.613095,-0.229276,0.129672,-0.113981,2.16934
0.114463,0.108266,-0.613095,-0.229276,0.129672,-0.113981,2.33582
0.505832,0.269143,-0.536776,-0.242734,0.185341,-0.13732,2.33582
0.738988,0.205208,-0.491029,-0.284505,0.22579,-0.114699,2.33582
0.55996,-0.121836,-0.551546,-0.328105,0.218169,-0.0805784,2.33582
-0.0507855,-0.77568,-0.758754,-0.318476,0.159229,-0.0614622,2.33582
-0.738553,-1.29931,-1.00979,-0.269631,0.0509746,-0.167379,2.33582
-1.07251,-1.37802,-1.09767,-0.187478,-0.0128564,-0.403613,2.33582
-1.03602,-1.28677,-0.995343,-0.090066,0.0048428,-0.587264,2.33582
-0.893668,-1.12616,-0.828869,0.0195852,-0.02099,-0.652899,2.33582
-0.872996,-0.869635,-0.711831,0.100337,-0.0875405,-0.583997,2.33582
-1.0179,-0.542313,-0.664157,0.109774,-0.143843,-0.29475,2.33582
-1.12547,-0.277447,-0.692073,0.0999139,-0.145685,-0.0909748,2.33582
-1.02316,0.128055,-0.87887,0.0959756,-0.136005,0.115996,2.33582
-0.798153,0.576539,-1.04315,0.166299,-0.155829,0.363417,2.33582
-0.587806,0.617041,-1.07333,0.261176,-0.157171,0.618649,2.33582
-0.376091,0.272799,-0.857754,0.405031,-0.186851,0.787228,2.33582
-0.187618,0.0755237,-0.440288,0.533942,-0.221688,0.847123,2.33582
0.258323,-0.0519544,0.0134875,0.565184,-0.227966,0.822119,2.33582
0.702478,-0.0721474,0.305843,0.497939,-0.211511,0.816955,2.33582
0.998035,0.229867,0.440954,0.429067,-0.199731,0.812651,2.33582
1.12805,0.394264,0.50984,0.394488,-0.179495,0.786131,2.33582
1.27094,0.434317,0.594252,0.387025,-0.160253,0.698817,2.33582
1.4222,0.899735,0.695772,0.417819,-0.189688,0.520529,2.33582
1.34556,1.62817,0.877524,0.525513,-0.251801,0.379774,2.33582
1.01102,1.69252,1.14366,0.692557,-0.357066,0.19709,2.33582
0.466426,0.571683,1.32939,0.837675,-0.529716,-0.160857,2.33582
0.628852,-0.42118,1.2048,0.726951,-0.616831,-0.908105,2.33582
1.37679,-0.418462,0.877366,0.641333,-0.567086,-1.54012,2.33582
1.92545,0.101609,0.851107,0.626935,-0.316834,-1.73917,2.33582
1.91215,0.580973,1.22085,0.530139,-0.072212,-1.65383,2.33582
1.70383,0.92038,1.58788,0.281123,0.0867075,-1.50388,2.33582
1.49196,1.11946,1.69598,0.0197616,0.195583,-1.25619,2.33582
1.08901,1.37697,1.62956,-0.139377,0.257444,-0.928158,2.33582
0.493514,1.81771,1.46158,-0.222483,0.295648,-0.564363,2.33582
-0.146532,2.1979,1.27392,-0.273479,0.337149,-0.229163,2.33582
-0.64743,2.35036,1.12516,-0.290664,0.356957,0.044369,2.33582
-0.859605,2.06377,1.08529,-0.288151,0.36958,0.253589,2.33582
-0.768037,1.31772,1.11382,-0.292338,0.376089,0.408392,2.33582
-0.475172,0.34707,1.10044,-0.31394,0.384046,0.503641,2.33582
-0.2009,-0.510538,1.01059,-0.320832,0.416361,0.552777,2.33582
0.0719694,-1.03647,0.931052,-0.288033,0.427782,0.560594,2.33582
0.422066,-1.04213,0.881386,-0.220361,0.420421,0.535748,2.33582
0.789938,-0.708791,0.872039,-0.181059,0.428882,0.550554,2.33582
1.07865,-0.236221,0.837396,-0.191056,0.418406,0.579116,2.33582
1.21622,0.056157,0.78585,-0.20383,0.368899,0.585349,2.33582
1.13002,0.0800069,0.663475,-0.139936,0.272164,0.555873,2.33582
0.914254,-0.2157,0.532565,-0.0206733,0.148583,0.446047,2.33582
0.695788,-0.508935,0.409196,0.111665,0.0824249,0.306991,2.33582
0.28453,-0.476977,0.306272,0.140229,0.0427999,0.197112,2.33582
-0.589513,-0.314927,0.121556,0.0443341,0.0113781,0.140455,2.33582
-1.54693,-0.332994,-0.221085,-0.0584107,-0.0567515,-0.0429847,2.33582
-1.935,-0.536186,-0.574111,-0.0550349,-0.0650473,-0.389134,2.33582
-1.43781,-0.589692,-0.616865,0.0114862,0.0177145,-0.703521,2.33582
-0.565363,-0.145138,-0.311008,-0.00111473,0.158498,-0.722391,2.33582
0.0962129,0.424491,0.112519,-0.0333957,0.224236,-0.512923,2.33582
0.0962129,0.424491,0.112519,-0.0333957,0.224236,-0.512923,2.47585
0.394201,0.790657,0.469613,-0.0378778,0.161128,-0.245364,2.47585
0.374285,0.887211,0.529772,-0.0744323,0.0684972,0.00783682,2.47585
0.282588,0.910505,0.424853,-0.0973518,0.022864,0.154842,2.47585
0.312058,0.825862,0.420411,-0.0796315,0.031113,0.234106,2.47585
0.318855,0.744088,0.396832,-0.0673988,0.0335092,0.318507,2.47585
0.180886,0.555349,0.38382,-0.0476207,0.00395131,0.386895,2.47585
0.0226876,0.372508,0.325237,-0.0610809,-0.0254661,0.393554,2.47585
-0.0721507,0.226403,0.189444,-0.0680351,-0.0417639,0.357724,2.47585
-0.141662,-0.0445716,0.0549531,-0.0411611,-0.0499523,0.318705,2.47585
-0.186526,-0.345645,-0.0762591,-0.0282984,-0.0461698,0.257314,2.47585
-0.223155,-0.596882,-0.218511,-0.0306303,-0.0351463,0.188558,2.47585
-0.267375,-0.580211,-0.23761,-0.0115569,-0.00153175,0.134085,2.47585
-0.224814,-0.526653,-0.166447,-0.0109643,0.0296213,0.0851015,2.47585
-0.156919,-0.424992,-0.0934903,-0.00838031,0.0209396,0.054544,2.47585
-0.0899232,-0.262439,-0.0654778,-0.0276789,-0.00129089,0.0401696,2.47585
-0.0817296,0.0572353,-0.0222619,-0.0212141,-0.0196083,0.0503543,2.47585
-0.124698,0.238259,0.0288344,-0.0288783,-0.0422282,0.0622423,2.47585
-0.195277,0.16776,-0.0215784,-0.0408508,-0.0688725,0.0646876,2.47585
-0.249321,-0.0285458,-0.0941646,-0.0145116,-0.0806137,0.0327715,2.47585
-0.29135,-0.164949,-0.102211,0.021842,-0.07615,-0.0118808,2.47585
-0.260014,-0.121425,-0.0521602,0.0563107,-0.0743378,-0.0829442,2.47585
-0.184707,0.108741,0.0135252,0.0755185,-0.071273,-0.114561,2.47585
-0.223018,0.245624,0.0714073,0.0818614,-0.0704046,-0.0923537,2.47585
-0.469944,0.22278,0.011595,0.0584254,-0.0908352,-0.0428911,2.47585
-0.852199,0.0617874,-0.100092,0.0562629,-0.0941111,-0.0364551,2.47585
-1.00334,-0.0966488,-0.144361,0.0803873,-0.0517358,-0.132452,2.47585
-0.742315,0.0252661,-0.0342937,0.138868,-0.0168966,-0.239147,2.47585
-0.260403,0.469659,0.205606,0.18413,0.0186006,-0.224955,2.47585
0.216898,0.85195,0.452872,0.181796,0.0341803,-0.115171,2.47585
0.500925,0.967893,0.585577,0.162308,0.0173934,0.0280257,2.47585
0.481088,0.832318,0.675768,0.155119,-3.30806e-05,0.149311,2.47585
0.321547,0.677358,0.737263,0.155887,-0.0117362,0.199779,2.47585
0.253502,0.645481,0.787976,0.159804,-0.00637281,0.163312,2.47585
0.369545,0.693891,0.883437,0.166338,0.0194866,0.0780295,2.47585
0.566882,0.875396,1.01963,0.171419,0.060397,0.0123131,2.47585
0.650812,1.0028,1.14238,0.181002,0.0844742,0.0124611,2.47585
0.512468,0.839689,1.14174,0.194014,0.0718369,0.0620887,2.47585
0.317738,0.691164,1.06561,0.210237,0.0534319,0.0488284,2.47585
0.0630664,0.686496,0.934912,0.195713,0.0628979,0.0237703,2.47585
-0.271007,0.752,0.858486,0.171957,0.105443,0.016247,2.47585
-0.608814,0.857438,0.87348,0.141338,0.126368,-0.0361086,2.47585
-0.705009,1.10846,0.854704,0.0776669,0.0917848,-0.121789,2.47585
0.018401,1.08005,0.643372,0.0227069,0.092159,-0.111269,2.47585
0.334978,-0.107426,0.51157,0.0785947,0.0103127,0.0862085,2.47585
-0.0632472,-0.633637,0.686508,0.0195307,0.0089252,0.22788,2.47585
-0.529909,-0.183196,0.591752,-0.0571099,-0.0149626,0.111456,2.47585
-0.856744,0.514624,0.474902,-0.0670071,0.0134018,0.0184475,2.47585
-0.648853,0.659245,0.45096,-0.00247419,0.0211898,-0.0150272,2.47585
-0.157887,-0.0724254,0.60564,0.0663327,0.029864,-0.00702786,2.47585
