rotationRate_x,rotationRate_y,rotationRate_z,acceleration_x,acceleration_y,acceleration_z,relativeAltitude,altitude_pressure
0.455771,-0.218603,-0.84877,-0.233001,0.345069,0.230202,0.001,0.0001
0.0918713,0.143271,-0.950304,-0.167939,0.38521,0.272251,0.001,0.0001
-0.165071,0.349315,-0.907366,-0.114285,0.401379,0.293086,0.001,0.0001
-0.25178,0.354462,-0.785044,-0.0725346,0.389305,0.29506,0.001,0.0001
-0.286474,0.245315,-0.645477,-0.0436142,0.355515,0.299112,0.001,0.0001
-0.378159,0.115822,-0.515243,-0.0290245,0.304882,0.287771,0.001,0.0001
-0.52711,-0.0971548,-0.446055,-0.00242532,0.241853,0.257317,0.001,0.0001
-0.739969,-0.274713,-0.421102,0.0254141,0.17529,0.202439,0.001,0.0001
-1.02358,-0.355535,-0.436873,0.0453283,0.108372,0.134522,0.001,0.0001
-1.32948,-0.382547,-0.51253,0.0563429,0.0323241,0.0652242,0.001,0.0001
-1.52206,-0.340692,-0.631426,0.0702698,-0.0354389,-0.0288832,0.001,0.0001
-1.50812,-0.3389,-0.702209,0.111557,-0.0822987,-0.115016,0.001,0.0001
-1.27427,-0.315831,-0.63019,0.177335,-0.0999189,-0.188749,0.001,0.0001
-0.935871,-0.189443,-0.402601,0.211952,-0.0906161,-0.216792,0.001,0.0001
-0.620218,0.0333167,-0.12954,0.218975,-0.0917776,-0.213321,0.001,0.0001
-0.456478,0.230528,0.0461017,0.207366,-0.156577,-0.151011,0.001,0.0001
-0.403395,0.432216,0.0913011,0.179039,-0.224763,-0.0821123,0.001,0.0001
-0.326212,0.516627,0.111631,0.158308,-0.247449,-0.0298013,0.001,0.0001
-0.168259,0.471481,0.177135,0.153426,-0.243744,0.0109211,0.001,0.0001
0.0639862,0.408137,0.269087,0.152791,-0.238628,0.0341283,0.001,0.0001
0.232764,0.403384,0.352888,0.144266,-0.234327,0.073082,0.001,0.0001
0.269683,0.439132,0.373898,0.124309,-0.245772,0.111314,0.001,0.0001
0.218044,0.443886,0.308663,0.111937,-0.263645,0.12085,0.001,0.0001
0.136991,0.381598,0.25514,0.112568,-0.24829,0.0977103,0.001,0.0001
0.00339953,0.287721,0.237133,0.126445,-0.224547,0.0405878,0.001,0.0001
-0.220267,-0.0391032,0.24911,0.161,-0.208103,-0.0633545,0.001,0.0001
-0.315772,-0.442122,0.34519,0.194586,-0.18154,-0.306584,0.001,0.0001
-0.165,-0.610186,0.437307,0.144618,-0.135268,-0.628961,0.001,0.0001
0.189066,-0.551784,0.527076,0.118274,-0.100583,-0.890177,0.001,0.0001
0.676814,-0.227065,0.626795,0.115914,-0.0711904,-1.00903,0.001,0.0001
1.11187,0.33011,0.706474,0.0561114,-0.0121957,-0.95565,0.001,0.0001
1.28454,0.984627,0.741504,-0.0113514,0.0232591,-0.736114,0.001,0.0001
1.19865,1.43866,0.718111,-0.0446115,0.0188979,-0.449176,0.001,0.0001
1.01653,1.58933,0.683809,-0.0724681,0.0202475,-0.206965,0.001,0.0001
0.908698,1.51728,0.670928,-0.0866954,0.0505834,-0.0350056,0.001,0.0001
0.950121,1.38807,0.717208,-0.0798938,0.10638,0.100854,0.001,0.0001
1.0364,1.29431,0.810936,-0.0760427,0.170935,0.239938,0.001,0.0001
1.03044,1.27082,0.928308,-0.0799446,0.215051,0.373789,0.001,0.0001
0.88702,1.21094,1.07611,-0.064424,0.223269,0.485356,0.001,0.0001
0.637957,0.934807,1.27254,-0.015774,0.206372,0.551569,0.001,0.0001
0.431663,0.47561,1.48058,0.030186,0.175712,0.54475,0.001,0.0001
0.355985,-0.118497,1.60741,0.0135509,0.172929,0.469972,0.001,0.0001
0.358901,-0.604098,1.63532,-0.00159755,0.176517,0.359332,0.001,0.0001
0.309468,-0.8564,1.62971,0.016865,0.172907,0.254533,0.001,0.0001
0.210007,-0.934663,1.60231,0.0466839,0.174177,0.147276,0.001,0.0001
0.100602,-0.877925,1.52063,0.0496163,0.168576,0.0331386,0.001,0.0001
0.078312,-0.698449,1.398,0.0537707,0.157355,-0.0853718,0.001,0.0001
0.199369,-0.41428,1.26911,0.0406823,0.166117,-0.160462,0.001,0.0001
0.378041,-0.141916,1.15418,0.0158821,0.198555,-0.172958,0.001,0.0001
0.483582,0.0545206,1.02071,-0.000669554,0.208846,-0.11091,0.001,0.0001
0.442315,0.137527,0.795383,-0.00343356,0.191106,-0.0272515,0.001,0.0001
0.442315,0.137527,0.795383,-0.00343356,0.191106,-0.0272515,0.001,0.0001
0.275075,0.149368,0.496343,0.000400946,0.169194,0.0447901,0.001,0.0001
-0.00727584,0.195402,0.203415,0.0206356,0.167961,0.0844399,0.001,0.0001
-0.241415,0.345579,-0.00476148,0.0553697,0.194409,0.0716643,0.001,0.0001
-0.405783,0.489154,-0.112469,0.0837601,0.225836,0.0691047,0.001,0.0001
-0.529902,0.625564,-0.125125,0.124261,0.237519,0.0724376,0.001,0.0001
-0.598409,0.710734,-0.0703303,0.146419,0.232276,0.0752138,0.001,0.0001
-0.63449,0.759559,-0.00944279,0.124841,0.219541,0.0835979,0.001,0.0001
-0.617252,0.835239,0.0691795,0.103969,0.200734,0.088198,0.001,0.0001
-0.590033,0.876965,0.148148,0.0843112,0.184095,0.100437,0.001,0.0001
-0.630495,0.877383,0.184254,0.0405042,0.149716,0.13507,0.001,0.0001
-0.712927,0.831208,0.209764,0.00807755,0.121367,0.14791,0.001,0.0001
-0.782422,0.691208,0.234533,-0.0115763,0.0940949,0.130832,0.001,0.0001
-0.871568,0.492385,0.262747,-0.0404826,0.0709412,0.105469,0.001,0.0001
-0.96796,0.362023,0.311616,-0.0554926,0.052468,0.0373546,0.001,0.0001
-1.00147,0.24922,0.375089,-0.0675415,0.0287244,-0.0664428,0.001,0.0001
-1.01435,0.088963,0.441648,-0.0694331,-0.00549443,-0.162038,0.001,0.0001
-0.996129,-0.0818057,0.48806,-0.0786452,-0.0633277,-0.290027,0.001,0.0001
-0.92333,-0.222652,0.425594,-0.0908229,-0.144089,-0.418764,0.001,0.0001
-0.737299,-0.167789,0.324834,-0.103092,-0.16564,-0.531023,0.001,0.0001
-0.494727,0.116446,0.269538,-0.115303,-0.155103,-0.567808,0.001,0.0001
-0.349532,0.272875,0.260911,-0.10109,-0.16587,-0.489524,0.001,0.0001
-0.29333,0.087375,0.274417,-0.0850376,-0.186973,-0.403632,0.001,0.0001
-0.280024,-0.359104,0.244305,-0.106364,-0.198014,-0.353224,0.001,0.0001
-0.210792,-0.717301,0.119876,-0.170136,-0.182601,-0.390279,0.001,0.0001
-0.00918528,-0.733665,-0.134606,-0.243918,-0.146719,-0.45596,0.001,0.0001
0.212119,-0.540009,-0.440691,-0.275978,-0.0940121,-0.436311,0.001,0.0001
0.440734,-0.256153,-0.663054,-0.242806,-0.0322442,-0.370812,0.001,0.0001
0.668356,-0.081884,-0.783093,-0.216529,0.0409261,-0.264857,0.001,0.0001
0.830963,-0.138732,-0.853317,-0.22102,0.0920915,-0.133396,0.001,0.0001
0.918392,-0.314419,-0.938652,-0.22684,0.117644,-0.0196967,0.001,0.0001
0.917323,-0.55478,-1.11599,-0.232385,0.126976,0.0715153,0.001,0.0001
0.78629,-0.733472,-1.37491,-0.218146,0.128423,0.142621,0.001,0.0001
0.553547,-0.749714,-1.62333,-0.176345,0.146095,0.173234,0.001,0.0001
0.343602,-0.635135,-1.77544,-0.117038,0.180544,0.179526,0.001,0.0001
0.221648,-0.497583,-1.82334,-0.0533303,0.214604,0.184843,0.001,0.0001
0.21451,-0.34822,-1.76633,-0.00022419,0.242478,0.19643,0.001,0.0001
0.247431,-0.222413,-1.62068,0.039453,0.262418,0.243496,0.001,0.0001
0.271079,-0.149311,-1.45124,0.0611195,0.256314,0.291669,0.001,0.0001
0.327171,-0.199872,-1.26348,0.0653734,0.242312,0.315546,0.001,0.0001
0.461927,-0.343329,-1.08415,0.0428908,0.240239,0.328571,0.001,0.0001
0.619159,-0.521581,-0.926455,0.0215544,0.247503,0.339804,0.001,0.0001
0.684074,-0.642155,-0.820335,0.0104809,0.23109,0.368365,0.001,0.0001
0.532965,-0.747645,-0.80819,0.00607044,0.197344,0.415372,0.001,0.0001
0.173016,-0.875976,-0.864218,0.0054484,0.158501,0.419557,0.001,0.0001
-0.254506,-1.00122,-0.973924,0.000806943,0.127018,0.352847,0.001,0.0001
-0.561271,-1.00658,-1.1388,-0.0204945,0.0874029,0.227076,0.001,0.0001
-0.724779,-0.819566,-1.32666,-0.0212792,0.0687019,0.0894867,0.001,0.0001
-0.846525,-0.52988,-1.4282,0.0171316,0.064063,-0.00052011,0.001,0.0001
-1.01145,-0.203174,-1.44135,0.0620295,0.0452409,-0.0411756,0.001,0.0001
-1.1323,0.0706812,-1.3717,0.113265,0.00364551,-0.072583,0.001,0.0001
-1.05411,0.247082,-1.2209,0.144402,-0.0325611,-0.115253,0.001,0.0001
-1.05411,0.247082,-1.2209,0.144402,-0.0325611,-0.115253,0.001,0.0001
-0.796277,0.247009,-0.998366,0.147143,-0.0579801,-0.130822,0.001,0.0001
-0.475685,0.136301,-0.742713,0.150949,-0.100814,-0.113062,0.001,0.0001
-0.241296,0.00278807,-0.532697,0.136431,-0.154128,-0.0706773,0.001,0.0001
-0.17922,-0.0727036,-0.441098,0.100584,-0.210759,-0.0476818,0.001,0.0001
-0.261774,-0.0960955,-0.465266,0.0794666,-0.268385,-0.0492596,0.001,0.0001
-0.433707,-0.147308,-0.546534,0.0650837,-0.304264,-0.0861526,0.001,0.0001
-0.550915,-0.142301,-0.62837,0.0567422,-0.319249,-0.193255,0.001,0.0001
-0.556418,-0.115186,-0.677314,0.0659179,-0.312869,-0.338466,0.001,0.0001
-0.406779,-0.109141,-0.626452,0.1172,-0.297629,-0.472925,0.001,0.0001
-0.153772,-0.143079,-0.474876,0.159598,-0.260199,-0.55316,0.001,0.0001
0.038197,-0.104181,-0.259186,0.179082,-0.219904,-0.561737,0.001,0.0001
0.103661,0.0279783,-0.05235,0.18327,-0.202114,-0.523546,0.001,0.0001
0.108112,0.3399,0.0603767,0.162026,-0.17715,-0.456671,0.001,0.0001
0.163332,0.727253,0.16765,0.163051,-0.137833,-0.35411,0.001,0.0001
0.322038,0.943988,0.341501,0.189381,-0.0822852,-0.214167,0.001,0.0001
0.583461,0.991913,0.641146,0.215331,-0.0191031,-0.064909,0.001,0.0001
0.820441,0.891602,1.02983,0.214838,0.0473463,0.093927,0.001,0.0001
0.919992,0.634471,1.41302,0.205357,0.080357,0.234838,0.001,0.0001
0.88003,0.235398,1.69933,0.182762,0.0644138,0.326,0.001,0.0001
0.755247,-0.137781,1.82276,0.151694,0.0382268,0.32796,0.001,0.0001
0.565004,-0.340471,1.8034,0.109084,0.0280229,0.30213,0.001,0.0001
0.367586,-0.259993,1.69635,0.0900147,0.0255134,0.244129,0.001,0.0001
0.30714,0.0407349,1.6168,0.118912,0.0357033,0.165178,0.001,0.0001
0.417602,0.327267,1.61737,0.158985,0.0721264,0.135481,0.001,0.0001
0.60238,0.509027,1.71222,0.188836,0.118299,0.169965,0.001,0.0001
0.68736,0.595907,1.82082,0.181794,0.154092,0.257173,0.001,0.0001
0.648462,0.552201,1.90003,0.167204,0.164118,0.344488,0.001,0.0001
0.599434,0.446025,1.90842,0.141969,0.162121,0.364864,0.001,0.0001
0.544977,0.35956,1.82899,0.108339,0.163119,0.357715,0.001,0.0001
0.397035,0.261782,1.68924,0.0862921,0.158611,0.348133,0.001,0.0001
0.210731,0.188375,1.52839,0.089513,0.149509,0.292918,0.001,0.0001
0.0377526,0.0266667,1.37295,0.115024,0.139183,0.20502,0.001,0.0001
-0.21402,-0.306676,1.19704,0.136992,0.124276,0.104549,0.001,0.0001
-0.551099,-0.545458,0.98582,0.121079,0.124261,-0.0925491,0.001,0.0001
-0.914472,-0.493012,0.761752,0.102665,0.135777,-0.337012,0.001,0.0001
-1.08503,-0.129866,0.531241,0.0679379,0.14838,-0.577272,0.001,0.0001
-0.975728,0.379239,0.295505,0.0286093,0.168258,-0.76147,0.001,0.0001
-0.727075,0.794861,0.1287,0.0141624,0.186984,-0.794303,0.001,0.0001
-0.605549,1.0666,0.0211521,-0.00203722,0.182501,-0.670044,0.001,0.0001
-0.643079,1.1197,-0.0939172,-0.0464102,0.129528,-0.508746,0.001,0.0001
-0.644006,0.961273,-0.187779,-0.0893835,0.0801982,-0.404795,0.001,0.0001
-0.43195,0.823617,-0.247978,-0.156613,0.0582366,-0.369999,0.001,0.0001
-0.145835,0.796111,-0.338253,-0.214875,0.0321466,-0.293627,0.001,0.0001
0.0545234,0.768252,-0.534186,-0.269774,-0.00320537,-0.169905,0.001,0.0001
0.058282,0.723368,-0.809669,-0.298144,-0.0289976,-0.036906,0.001,0.0001
-0.0409542,0.649962,-0.993713,-0.291264,-0.0279129,0.056976,0.001,0.0001
-0.0501524,0.572419,-1.04217,-0.297521,0.019224,0.0858327,0.001,0.0001
0.0474912,0.427766,-1.03653,-0.311743,0.0611753,0.113308,0.001,0.0001
0.127457,0.212865,-1.06161,-0.330138,0.0743085,0.159661,0.001,0.0001
0.101201,-0.0551231,-1.12906,-0.319909,0.0788837,0.211415,0.001,0.0001
0.101201,-0.0551231,-1.12906,-0.319909,0.0788837,0.211415,0.0977783,-0.00114441
-0.0471735,-0.236811,-1.20308,-0.287684,0.0737052,0.248555,0.0977783,-0.00114441
-0.159516,-0.213804,-1.2029,-0.250573,0.0857024,0.231084,0.0977783,-0.00114441
-0.11384,-0.0951343,-1.12239,-0.211152,0.104545,0.214583,0.0977783,-0.00114441
0.034274,-0.030983,-0.964796,-0.17855,0.11472,0.241522,0.0977783,-0.00114441
0.194631,-0.0720242,-0.768759,-0.15194,0.102638,0.309154,0.0977783,-0.00114441
0.302546,-0.242069,-0.603903,-0.149291,0.0821605,0.396844,0.0977783,-0.00114441
0.321177,-0.507604,-0.517704,-0.165525,0.0664055,0.470351,0.0977783,-0.00114441
0.26203,-0.718617,-0.516229,-0.182585,0.0459235,0.499722,0.0977783,-0.00114441
0.145694,-0.860973,-0.592756,-0.180245,0.0321188,0.492203,0.0977783,-0.00114441
0.0116104,-1.01712,-0.678545,-0.131357,0.017257,0.457895,0.0977783,-0.00114441
-0.134972,-1.20628,-0.6871,-0.0411511,-0.0069951,0.373368,0.0977783,-0.00114441
-0.220084,-1.41859,-0.586443,0.0482462,-0.0296198,0.2038,0.0977783,-0.00114441
-0.193974,-1.48927,-0.468797,0.0949602,-0.0501329,-0.017707,0.0977783,-0.00114441
-0.301388,-1.34233,-0.463625,0.11456,-0.105168,-0.221663,0.0977783,-0.00114441
-0.742081,-1.08347,-0.634575,0.124471,-0.191937,-0.370777,0.0977783,-0.00114441
-1.20082,-0.827933,-0.856195,0.164216,-0.271088,-0.569776,0.0977783,-0.00114441
-1.21146,-0.557784,-0.968937,0.232519,-0.294728,-0.838484,0.0977783,-0.00114441
-0.707824,-0.0319015,-0.840201,0.297671,-0.239125,-1.0269,0.0977783,-0.00114441
-0.0254882,0.690199,-0.46079,0.354421,-0.174005,-0.993202,0.0977783,-0.00114441
0.446401,1.22908,0.0240301,0.381363,-0.163653,-0.733882,0.0977783,-0.00114441
0.694072,1.44604,0.419314,0.336538,-0.187824,-0.427007,0.0977783,-0.00114441
0.796865,1.35624,0.692664,0.248668,-0.184458,-0.176662,0.0977783,-0.00114441
0.838422,1.06501,0.897888,0.189069,-0.175872,-0.00822037,0.0977783,-0.00114441
0.853059,0.737675,1.02974,0.128573,-0.153639,0.0961801,0.0977783,-0.00114441
0.832971,0.479054,1.09736,0.0852769,-0.122492,0.159415,0.0977783,-0.00114441
0.815702,0.389085,1.17326,0.0714495,-0.0786784,0.196188,0.0977783,-0.00114441
0.778836,0.389884,1.26567,0.0818712,-0.0488551,0.236103,0.0977783,-0.00114441
0.667966,0.378032,1.38205,0.109714,-0.0345578,0.262774,0.0977783,-0.00114441
0.495951,0.163663,1.47882,0.12306,-0.0378692,0.290452,0.0977783,-0.00114441
0.313674,-0.172461,1.48008,0.106252,-0.0426629,0.264433,0.0977783,-0.00114441
0.189839,-0.421076,1.39715,0.0980906,-0.0412185,0.178434,0.0977783,-0.00114441
0.175869,-0.408284,1.28124,0.123679,-0.0289766,0.0786631,0.0977783,-0.00114441
0.323971,-0.198265,1.22364,0.169381,0.00657839,0.0116861,0.0977783,-0.00114441
0.566518,0.127383,1.29967,0.210444,0.0780594,0.0177406,0.0977783,-0.00114441
0.7243,0.364766,1.49071,0.237334,0.155985,0.116564,0.0977783,-0.00114441
0.738413,0.418182,1.69501,0.244988,0.188218,0.240851,0.0977783,-0.00114441
0.672439,0.29791,1.82199,0.216028,0.196111,0.324067,0.0977783,-0.00114441
0.631237,0.148749,1.83577,0.16525,0.209258,0.342566,0.0977783,-0.00114441
0.586676,0.0447432,1.81586,0.152546,0.227572,0.3372,0.0977783,-0.00114441
0.496151,-0.0423776,1.81473,0.167168,0.23437,0.324994,0.0977783,-0.00114441
0.300628,-0.257057,1.83928,0.194552,0.248492,0.299318,0.0977783,-0.00114441
0.110165,-0.473692,1.88608,0.214548,0.248583,0.193501,0.0977783,-0.00114441
-0.00461833,-0.578902,1.85039,0.182327,0.238189,0.0228662,0.0977783,-0.00114441
-0.0260643,-0.436613,1.68968,0.138272,0.201367,-0.165788,0.0977783,-0.00114441
-0.0266549,-0.171895,1.47805,0.100256,0.190043,-0.294527,0.0977783,-0.00114441
-0.110984,0.119751,1.32941,0.0931225,0.202705,-0.346922,0.0977783,-0.00114441
-0.254665,0.422045,1.23434,0.082932,0.198976,-0.373905,0.0977783,-0.00114441
-0.404877,0.672819,1.09121,0.0488451,0.161691,-0.368841,0.0977783,-0.00114441
-0.546684,0.782554,0.860098,0.0177189,0.0895227,-0.332325,0.0977783,-0.00114441
-0.725939,0.75778,0.619098,0.00558019,0.0266821,-0.284817,0.0977783,-0.00114441
-0.902157,0.687059,0.40586,0.0124002,-0.0344981,-0.257877,0.0977783,-0.00114441
-0.902157,0.687059,0.40586,0.0124002,-0.0344981,-0.257877,0.161179,-0.00191498
-0.963521,0.658569,0.262141,0.0207068,-0.0687384,-0.281146,0.161179,-0.00191498
-0.882888,0.690628,0.235026,0.022298,-0.0730536,-0.29938,0.161179,-0.00191498
-0.728481,0.755605,0.261037,0.00185244,-0.0828237,-0.288121,0.161179,-0.00191498
-0.568476,0.752642,0.246005,-0.0422644,-0.104319,-0.236789,0.161179,-0.00191498
-0.416904,0.75919,0.173529,-0.0860109,-0.122313,-0.185902,0.161179,-0.00191498
-0.23368,0.790063,0.117285,-0.105687,-0.113191,-0.149355,0.161179,-0.00191498
-0.00925949,0.837528,0.148436,-0.10982,-0.056572,-0.100918,0.161179,-0.00191498
0.199418,0.834708,0.294443,-0.103766,0.00721976,-0.0296449,0.161179,-0.00191498
0.34973,0.715474,0.498356,-0.111664,0.0638632,0.0517402,0.161179,-0.00191498
0.448281,0.47219,0.693022,-0.13465,0.100028,0.117322,0.161179,-0.00191498
0.525162,0.224108,0.81381,-0.173209,0.110526,0.160137,0.161179,-0.00191498
0.580625,0.0582207,0.840596,-0.208776,0.11208,0.188313,0.161179,-0.00191498
0.616742,-0.00894851,0.780402,-0.222095,0.108093,0.217384,0.161179,-0.00191498
0.643876,0.0193796,0.68981,-0.209659,0.111102,0.249179,0.161179,-0.00191498
0.596815,0.0963122,0.590919,-0.191652,0.11736,0.31076,0.161179,-0.00191498
0.441224,0.138086,0.488835,-0.164845,0.104578,0.382523,0.161179,-0.00191498
0.243474,0.13944,0.366646,-0.137264,0.0668179,0.41226,0.161179,-0.00191498
0.0675266,0.0517939,0.234973,-0.108665,0.0430046,0.412357,0.161179,-0.00191498
-0.043911,-0.0496745,0.135844,-0.0873948,0.0331069,0.379968,0.161179,-0.00191498
-0.112486,-0.122201,0.0311081,-0.0631888,0.0217098,0.331774,0.161179,-0.00191498
-0.205967,-0.18987,-0.033326,-0.0230111,0.00319728,0.287553,0.161179,-0.00191498
-0.349951,-0.216902,-0.0330896,0.00875963,-0.00370026,0.239772,0.161179,-0.00191498
-0.527458,-0.239148,-0.0245244,0.0177423,-0.0265314,0.166998,0.161179,-0.00191498
-0.638024,-0.239732,-0.0582751,0.0182143,-0.0690875,0.0668783,0.161179,-0.00191498
-0.629836,-0.153879,-0.147763,0.0111053,-0.0920387,-0.034779,0.161179,-0.00191498
-0.570992,0.111806,-0.235481,0.0117081,-0.0893511,-0.103641,0.161179,-0.00191498
-0.472011,0.463505,-0.23626,0.0475696,-0.0723117,-0.120034,0.161179,-0.00191498
-0.328996,0.761318,-0.121559,0.103136,-0.0539706,-0.0776381,0.161179,-0.00191498
-0.241175,0.958773,0.0683291,0.147022,-0.0485197,0.00186324,0.161179,-0.00191498
-0.212417,0.99989,0.313189,0.177813,-0.0599158,0.0810402,0.161179,-0.00191498
-0.170771,0.880269,0.577952,0.19604,-0.0796562,0.119427,0.161179,-0.00191498
-0.0747127,0.650238,0.834723,0.198963,-0.0969529,0.0982864,0.161179,-0.00191498
0.0122102,0.445119,1.11018,0.208564,-0.0953578,0.0529335,0.161179,-0.00191498
0.0540257,0.329135,1.39444,0.223001,-0.113701,-0.00725043,0.161179,-0.00191498
-0.0104262,0.0374458,1.56628,0.185545,-0.155261,-0.0722581,0.161179,-0.00191498
-0.199395,-0.697311,1.55965,0.12571,-0.202272,-0.170047,0.161179,-0.00191498
-0.250643,-1.21047,1.43519,0.0807837,-0.206811,-0.359507,0.161179,-0.00191498
-0.160116,-1.03497,1.23977,0.0150465,-0.138991,-0.527515,0.161179,-0.00191498
0.0289192,-0.268257,1.13757,0.000392525,-0.0570842,-0.56004,0.161179,-0.00191498
0.329172,0.62722,1.11937,0.0266902,0.0110392,-0.434661,0.161179,-0.00191498
0.683477,1.34255,1.12062,0.0414079,0.0565534,-0.204344,0.161179,-0.00191498
0.898082,1.72354,1.16666,0.0573067,0.0998697,0.0824838,0.161179,-0.00191498
0.856655,1.67902,1.37043,0.106027,0.126948,0.35146,0.161179,-0.00191498
0.645813,1.15259,1.67259,0.175153,0.10486,0.521141,0.161179,-0.00191498
0.398885,0.326988,1.93585,0.230787,0.0483243,0.572057,0.161179,-0.00191498
0.0992339,-0.608995,2.00021,0.209986,0.00153172,0.529935,0.161179,-0.00191498
-0.289632,-1.39849,1.93482,0.168879,-0.0219939,0.386684,0.161179,-0.00191498
-0.610305,-1.72468,1.74553,0.146086,-0.0507873,0.13744,0.161179,-0.00191498
-0.529357,-1.44548,1.42757,0.133782,-0.0747264,-0.198487,0.161179,-0.00191498
-0.151739,-0.582311,1.20679,0.178129,-0.0265449,-0.426228,0.161179,-0.00191498
0.143179,0.28743,1.2778,0.271055,0.0461235,-0.409099,0.161179,-0.00191498
0.221424,0.748187,1.51329,0.325076,0.0722683,-0.243867,0.161179,-0.00191498
0.247271,0.815093,1.66798,0.299525,0.0336941,-0.101484,0.161179,-0.00191498
0.29106,0.621016,1.63562,0.23499,0.00203869,-0.00424945,0.161179,-0.00191498
0.371392,0.398957,1.52382,0.21013,-0.013164,0.049825,0.161179,-0.00191498
0.384847,0.252658,1.3952,0.202606,-0.0042854,0.0914018,0.161179,-0.00191498
0.304747,0.267143,1.33859,0.205935,0.0183209,0.107813,0.161179,-0.00191498
0.221301,0.339782,1.36794,0.212733,0.0439398,0.0875471,0.161179,-0.00191498
0.278526,0.355948,1.38384,0.191527,0.0450271,0.0304991,0.161179,-0.00191498
0.386431,0.312396,1.32462,0.146595,0.0459639,-0.00962096,0.161179,-0.00191498
0.362985,0.273411,1.21315,0.121007,0.0434047,-0.00883323,0.161179,-0.00191498
0.210725,0.319931,1.07603,0.0985799,0.0439253,-0.0256663,0.161179,-0.00191498
0.0205087,0.375092,0.914737,0.074268,0.0384508,-0.0676358,0.161179,-0.00191498
-0.155893,0.328431,0.755833,0.0479267,0.0457878,-0.124746,0.161179,-0.00191498
-0.334139,0.132689,0.68989,0.0415549,0.0725154,-0.184446,0.161179,-0.00191498
-0.405461,-0.126348,0.688077,0.034281,0.0697894,-0.282521,0.161179,-0.00191498
-0.444446,-0.0663547,0.585268,-0.03895,0.0677269,-0.395803,0.161179,-0.00191498
-0.59633,0.345291,0.368227,-0.123149,0.0447921,-0.432722,0.161179,-0.00191498
-0.833865,0.692377,0.0836026,-0.176243,-0.00301924,-0.398489,0.161179,-0.00191498
-0.957964,0.748006,-0.120278,-0.174229,-0.040945,-0.352405,0.161179,-0.00191498
-0.867572,0.549062,-0.261417,-0.175804,-0.0525043,-0.340317,0.161179,-0.00191498
-0.610459,0.389573,-0.335579,-0.1773,-0.0397694,-0.336402,0.161179,-0.00191498
-0.297369,0.429303,-0.36946,-0.179195,-0.0123535,-0.299007,0.161179,-0.00191498
0.00753968,0.613558,-0.386997,-0.185692,0.0301904,-0.215314,0.161179,-0.00191498
0.211391,0.732902,-0.39062,-0.191743,0.0684696,-0.0900778,0.161179,-0.00191498
0.211391,0.732902,-0.39062,-0.191743,0.0684696,-0.0900778,0.227234,-0.00270081
0.242299,0.609894,-0.405774,-0.202447,0.0942351,0.0465021,0.227234,-0.00270081
0.128858,0.33379,-0.410921,-0.207838,0.113933,0.132102,0.227234,-0.00270081
-0.0147698,0.034917,-0.419568,-0.222823,0.136459,0.148577,0.227234,-0.00270081
-0.114348,-0.168618,-0.462235,-0.235767,0.146065,0.126996,0.227234,-0.00270081
-0.118669,-0.288614,-0.559448,-0.232549,0.139951,0.0903316,0.227234,-0.00270081
-0.0237175,-0.276561,-0.680344,-0.212897,0.14145,0.0703993,0.227234,-0.00270081
0.0758292,-0.158408,-0.767625,-0.172172,0.151177,0.102336,0.227234,-0.00270081
0.0860803,-0.0250914,-0.804729,-0.132678,0.161448,0.186555,0.227234,-0.00270081
0.0766633,0.067321,-0.794344,-0.0974899,0.160005,0.25346,0.227234,-0.00270081
0.102561,0.0522444,-0.772052,-0.0860309,0.151725,0.309653,0.227234,-0.00270081
0.138681,-0.0574768,-0.794039,-0.0911482,0.13889,0.346121,0.227234,-0.00270081
0.1087,-0.210734,-0.833581,-0.0839366,0.127136,0.384259,0.227234,-0.00270081
-0.00331118,-0.430363,-0.886573,-0.0724197,0.117129,0.401792,0.227234,-0.00270081
-0.13035,-0.658472,-0.84147,-0.0306796,0.115876,0.353312,0.227234,-0.00270081
-0.244234,-0.853852,-0.778218,-0.0243736,0.104898,0.266334,0.227234,-0.00270081
-0.322117,-0.957757,-0.729119,-0.0053064,0.0737765,0.151873,0.227234,-0.00270081
-0.43917,-0.932795,-0.672147,0.0159115,0.0384446,0.0558234,0.227234,-0.00270081
-0.563272,-0.841987,-0.647522,0.0284134,-0.0251894,-0.036217,0.227234,-0.00270081
-0.675573,-0.763631,-0.69451,0.028538,-0.0754038,-0.117856,0.227234,-0.00270081
-0.79199,-0.631531,-0.749814,0.0411973,-0.121959,-0.200798,0.227234,-0.00270081
-0.885221,-0.428655,-0.833732,0.0471688,-0.166132,-0.28808,0.227234,-0.00270081
-0.903717,-0.257525,-0.944154,0.0734248,-0.218174,-0.380916,0.227234,-0.00270081
-0.801089,-0.103289,-0.979782,0.156808,-0.258384,-0.470302,0.227234,-0.00270081
-0.545618,0.144154,-0.812239,0.271118,-0.254749,-0.537857,0.227234,-0.00270081
-0.175204,0.532147,-0.427749,0.348876,-0.207143,-0.546286,0.227234,-0.00270081
0.185818,0.792433,0.0358004,0.397206,-0.201928,-0.465674,0.227234,-0.00270081
0.488833,0.745714,0.40068,0.384365,-0.231985,-0.338941,0.227234,-0.00270081
0.758622,0.644157,0.641887,0.335623,-0.23699,-0.245312,0.227234,-0.00270081
1.02053,0.71049,0.812587,0.293074,-0.204833,-0.181506,0.227234,-0.00270081
1.16828,0.878297,0.957308,0.280888,-0.158128,-0.0863798,0.227234,-0.00270081
1.07889,0.843334,1.17315,0.302487,-0.115621,0.0405427,0.227234,-0.00270081
0.88796,0.481765,1.40407,0.306584,-0.0947166,0.105385,0.227234,-0.00270081
0.804774,0.0635324,1.52331,0.241298,-0.0547394,0.0504454,0.227234,-0.00270081
0.811504,-0.121819,1.52944,0.159347,0.00649279,-0.0436161,0.227234,-0.00270081
0.902822,0.0063393,1.51119,0.105188,0.0833173,-0.0915184,0.227234,-0.00270081
1.01354,0.382968,1.46157,0.0473597,0.165359,-0.0609205,0.227234,-0.00270081
1.04058,0.80531,1.44862,0.0106787,0.243742,0.0630211,0.227234,-0.00270081
0.990612,1.05517,1.48225,-0.00350088,0.292502,0.218194,0.227234,-0.00270081
0.886573,1.07089,1.52534,-0.027213,0.320847,0.356184,0.227234,-0.00270081
0.735794,0.919629,1.53614,-0.0507446,0.341677,0.445471,0.227234,-0.00270081
0.538426,0.737757,1.51782,-0.0617953,0.353159,0.479487,0.227234,-0.00270081
0.334277,0.584763,1.48504,-0.0642139,0.358283,0.4669,0.227234,-0.00270081
0.157628,0.37982,1.44895,-0.0524879,0.349572,0.420592,0.227234,-0.00270081
0.00275531,0.147618,1.41171,-0.0173117,0.316024,0.344145,0.227234,-0.00270081
-0.132124,0.000246794,1.34173,-0.0254464,0.289179,0.209574,0.227234,-0.00270081
-0.215769,-0.0942602,1.20933,-0.0376924,0.254414,0.0642644,0.227234,-0.00270081
-0.342532,-0.221885,1.02106,-0.0521763,0.233355,-0.0305865,0.227234,-0.00270081
-0.740184,-0.279774,0.731946,-0.089951,0.209241,-0.0828232,0.227234,-0.00270081
-1.32424,-0.219179,0.285843,-0.131888,0.134933,-0.167216,0.227234,-0.00270081
-1.72144,0.0238221,-0.28347,-0.134202,0.0619777,-0.316021,0.227234,-0.00270081
-1.84676,0.346317,-0.826595,-0.0967319,0.0542266,-0.448414,0.227234,-0.00270081
-1.84007,0.613456,-1.08733,-0.00462925,0.105614,-0.480383,0.227234,-0.00270081
-1.71998,0.635131,-1.02995,0.080674,0.144419,-0.466168,0.227234,-0.00270081
-1.44616,0.566287,-0.836882,0.120267,0.136048,-0.466562,0.227234,-0.00270081
-1.44616,0.566287,-0.836882,0.120267,0.136048,-0.466562,0.0184937,-0.000205994
-1.07516,0.528569,-0.653772,0.106646,0.0897844,-0.462582,0.0184937,-0.000205994
-0.639508,0.571827,-0.474111,0.0559135,0.0517929,-0.427598,0.0184937,-0.000205994
-0.201709,0.636687,-0.326363,-0.0172138,0.0304633,-0.345751,0.0184937,-0.000205994
0.147557,0.621261,-0.231225,-0.102583,0.0163419,-0.214138,0.0184937,-0.000205994
0.332036,0.523705,-0.231274,-0.202745,0.0121205,-0.0768402,0.0184937,-0.000205994
0.356414,0.379492,-0.351393,-0.285655,-0.00334516,0.0329117,0.0184937,-0.000205994
0.263667,0.202964,-0.612731,-0.346285,-0.0218434,0.106863,0.0184937,-0.000205994
0.107949,-0.0725826,-0.897979,-0.346498,-0.0324308,0.160815,0.0184937,-0.000205994
0.00780407,-0.273412,-1.08184,-0.306322,-0.00249891,0.160554,0.0184937,-0.000205994
0.0544121,-0.293517,-1.12125,-0.263134,0.0670263,0.133555,0.0184937,-0.000205994
0.205331,-0.145422,-1.07312,-0.233242,0.113864,0.145381,0.0184937,-0.000205994
0.274793,0.0259623,-1.04059,-0.23071,0.120898,0.224693,0.0184937,-0.000205994
0.251158,0.0969421,-1.06524,-0.229348,0.097736,0.319665,0.0184937,-0.000205994
0.222743,0.0463166,-1.14067,-0.231562,0.0772828,0.385185,0.0184937,-0.000205994
0.1873,-0.0522546,-1.21801,-0.228005,0.0722802,0.432885,0.0184937,-0.000205994
0.162619,-0.19892,-1.27023,-0.196681,0.0645193,0.45511,0.0184937,-0.000205994
0.120193,-0.40916,-1.27801,-0.152744,0.0589784,0.453372,0.0184937,-0.000205994
-0.00498046,-0.554344,-1.28558,-0.115026,0.0449213,0.421403,0.0184937,-0.000205994
-0.155324,-0.671035,-1.25739,-0.0544858,0.0203859,0.344027,0.0184937,-0.000205994
-0.232504,-0.772014,-1.22792,0.0121426,-0.0208539,0.215148,0.0184937,-0.000205994
-0.204313,-0.874515,-1.19615,0.0926299,-0.0622088,0.0583331,0.0184937,-0.000205994
-0.0938748,-0.834883,-0.979858,0.199243,-0.060425,-0.105642,0.0184937,-0.000205994
-0.0103031,-0.548386,-0.618394,0.284232,-0.0573015,-0.227011,0.0184937,-0.000205994
-0.133026,-0.332833,-0.367983,0.273652,-0.113058,-0.261173,0.0184937,-0.000205994
-0.508371,-0.47634,-0.437851,0.166166,-0.222261,-0.330225,0.0184937,-0.000205994
-0.780369,-0.808249,-0.83908,0.102768,-0.340676,-0.509577,0.0184937,-0.000205994
-0.690381,-0.832071,-1.19255,0.134588,-0.339181,-0.757694,0.0184937,-0.000205994
-0.312214,-0.288545,-1.13962,0.184163,-0.185995,-0.888461,0.0184937,-0.000205994
0.104468,0.502777,-0.713665,0.239007,-0.069389,-0.820503,0.0184937,-0.000205994
0.412715,1.04948,-0.23484,0.237863,-0.0517234,-0.600643,0.0184937,-0.000205994
0.5874,1.07251,0.0611304,0.17214,-0.0897872,-0.332847,0.0184937,-0.000205994
0.714265,0.837511,0.222212,0.110303,-0.115113,-0.131341,0.0184937,-0.000205994
0.85597,0.610558,0.337115,0.0628352,-0.0945288,0.00835359,0.0184937,-0.000205994
0.974329,0.532072,0.433931,0.048489,-0.0617764,0.125205,0.0184937,-0.000205994
0.979528,0.516275,0.531364,0.052974,-0.0408017,0.227658,0.0184937,-0.000205994
0.860985,0.449826,0.633812,0.0905426,-0.0478434,0.300464,0.0184937,-0.000205994
0.642722,0.216814,0.782549,0.1281,-0.0379411,0.333121,0.0184937,-0.000205994
0.453668,-0.19526,0.934885,0.139383,-0.0292585,0.292596,0.0184937,-0.000205994
0.353017,-0.61901,0.957089,0.106059,-0.0320223,0.190081,0.0184937,-0.000205994
0.273269,-0.922678,0.856519,0.0850279,-0.0457196,0.0709524,0.0184937,-0.000205994
0.358831,-0.932576,0.764433,0.128769,-0.0542868,-0.0658913,0.0184937,-0.000205994
0.600968,-0.641738,0.748685,0.173729,-0.00441045,-0.14037,0.0184937,-0.000205994
0.825737,-0.199414,0.845757,0.220481,0.0505622,-0.103371,0.0184937,-0.000205994
0.92452,0.211872,0.971788,0.246343,0.0737863,0.00436229,0.0184937,-0.000205994
0.906811,0.48444,1.03619,0.221409,0.0871871,0.134326,0.0184937,-0.000205994
0.831047,0.614023,1.03693,0.185205,0.0946738,0.238792,0.0184937,-0.000205994
0.780271,0.587707,1.00729,0.171685,0.105456,0.296504,0.0184937,-0.000205994
0.752673,0.46744,1.0179,0.184316,0.126507,0.328396,0.0184937,-0.000205994
0.717219,0.361873,1.08279,0.206402,0.163762,0.332374,0.0184937,-0.000205994
0.616079,0.359505,1.18938,0.212616,0.197504,0.322358,0.0184937,-0.000205994
0.509197,0.31235,1.33339,0.230631,0.1901,0.294612,0.0184937,-0.000205994
0.430903,0.303908,1.4017,0.23017,0.1724,0.240174,0.0184937,-0.000205994
0.360517,0.312679,1.42637,0.221876,0.125986,0.160204,0.0184937,-0.000205994
0.246023,0.01985,1.45044,0.210241,0.0898591,0.107992,0.0184937,-0.000205994
0.246023,0.01985,1.45044,0.210241,0.0898591,0.107992,0.221954,-0.0026474
0.00370579,-0.526019,1.3026,0.198355,0.0630924,0.0509959,0.221954,-0.0026474
-0.198867,-0.405171,1.07132,0.226569,-0.0535643,-0.111556,0.221954,-0.0026474
-0.259159,-0.25945,0.903567,0.135131,0.0117819,-0.29311,0.221954,-0.0026474
-0.289121,0.304787,0.756621,0.108175,0.0315168,-0.404482,0.221954,-0.0026474
-0.36236,0.606132,0.726965,0.116672,0.0347557,-0.403605,0.221954,-0.0026474
-0.464935,0.760543,0.723112,0.0992499,0.0402675,-0.390209,0.221954,-0.0026474
-0.535331,0.777933,0.775591,0.0883998,0.0334796,-0.373628,0.221954,-0.0026474
-0.556039,0.770343,0.833432,0.049159,0.0212434,-0.360146,0.221954,-0.0026474
-0.526157,0.762794,0.823302,-0.0047339,-0.0084514,-0.336763,0.221954,-0.0026474
-0.502262,0.793815,0.729699,-0.0642158,-0.0413657,-0.303704,0.221954,-0.0026474
-0.542711,1.0202,0.569715,-0.112903,-0.0510764,-0.265078,0.221954,-0.0026474
-0.579239,1.23087,0.492694,-0.111743,-0.0346966,-0.206498,0.221954,-0.0026474
-0.530103,1.24963,0.53336,-0.0890181,-0.00673124,-0.145783,0.221954,-0.0026474
-0.305149,1.1733,0.668672,-0.0767178,0.0285149,-0.124254,0.221954,-0.0026474
0.0528592,1.17676,0.876339,-0.0883045,0.0701914,-0.0920451,0.221954,-0.0026474
0.37359,1.09561,1.11714,-0.115651,0.114711,-0.011407,0.221954,-0.0026474
0.577452,0.811653,1.34796,-0.149731,0.136562,0.0805062,0.221954,-0.0026474
0.693864,0.312719,1.50421,-0.18393,0.153267,0.140551,0.221954,-0.0026474
0.730213,-0.175037,1.549,-0.210513,0.142881,0.162707,0.221954,-0.0026474
0.685829,-0.432684,1.42363,-0.257855,0.131595,0.152855,0.221954,-0.0026474
0.623709,-0.364726,1.17672,-0.319639,0.139206,0.12401,0.221954,-0.0026474
0.545211,-0.118324,0.857768,-0.34242,0.148228,0.123634,0.221954,-0.0026474
0.455897,0.130419,0.548848,-0.306775,0.148303,0.157215,0.221954,-0.0026474
0.343189,0.193341,0.315562,-0.245489,0.159206,0.213032,0.221954,-0.0026474
0.204654,0.0982795,0.164472,-0.17221,0.158095,0.256732,0.221954,-0.0026474
0.0368787,-0.0472705,0.0923164,-0.117036,0.162659,0.280151,0.221954,-0.0026474
-0.110277,-0.128278,0.0282328,-0.122379,0.173873,0.274911,0.221954,-0.0026474
-0.212676,-0.193925,-0.0788502,-0.131637,0.179968,0.264838,0.221954,-0.0026474
-0.221606,-0.211176,-0.199434,-0.120351,0.173284,0.244516,0.221954,-0.0026474
-0.246279,-0.262882,-0.29798,-0.0986158,0.176572,0.247919,0.221954,-0.0026474
-0.306432,-0.176298,-0.389825,-0.0751707,0.203787,0.231391,0.221954,-0.0026474
-0.482395,-0.256771,-0.409616,-0.0131243,0.145622,0.24709,0.221954,-0.0026474
-0.662714,-0.417983,-0.43826,0.0111936,0.128404,0.228662,0.221954,-0.0026474
-0.786665,-0.524923,-0.45339,0.0058866,0.128799,0.168157,0.221954,-0.0026474
-0.832488,-0.515347,-0.444724,0.0142147,0.103267,0.105188,0.221954,-0.0026474
-0.829367,-0.501657,-0.454468,0.00957318,0.0681268,0.0646004,0.221954,-0.0026474
-0.842369,-0.464413,-0.517796,-0.00763871,0.0305607,0.0492964,0.221954,-0.0026474
-0.917793,-0.305943,-0.550452,0.00580963,-0.00589585,0.0407845,0.221954,-0.0026474
-1.02632,-0.20608,-0.523255,0.0330573,-0.0355344,0.0254183,0.221954,-0.0026474
-1.01492,-0.112951,-0.443203,0.0624116,-0.0671351,-0.00115734,0.221954,-0.0026474
-0.912178,-0.05725,-0.31391,0.0702405,-0.0930219,-0.0156117,0.221954,-0.0026474
-0.801079,0.0353729,-0.187053,0.0570632,-0.121921,-0.00836706,0.221954,-0.0026474
-0.750337,0.015199,-0.0929717,0.0473073,-0.170149,0.0244881,0.221954,-0.0026474
-0.700804,-0.0144375,-0.0664641,0.0389335,-0.228337,0.00777811,0.221954,-0.0026474
-0.640302,-0.042108,-0.049422,0.0346171,-0.25771,-0.00377226,0.221954,-0.0026474
-0.611523,-0.195699,-0.0257379,0.055038,-0.289687,-0.0213057,0.221954,-0.0026474
-0.567565,-0.142012,0.0860254,0.0834747,-0.2753,-0.107293,0.221954,-0.0026474
-0.414505,-0.00716945,0.304547,0.112566,-0.249638,-0.221556,0.221954,-0.0026474
-0.121645,0.0605995,0.448367,0.0983826,-0.270696,-0.309348,0.221954,-0.0026474
0.171781,0.143932,0.490709,0.0676328,-0.300657,-0.335335,0.221954,-0.0026474
0.349881,0.032809,0.4511,0.0489828,-0.315635,-0.301184,0.221954,-0.0026474
0.402464,-0.198629,0.364405,0.0326056,-0.303309,-0.274921,0.221954,-0.0026474
0.370279,-0.46122,0.274648,0.0255126,-0.282754,-0.28753,0.221954,-0.0026474
0.46806,-0.539077,0.240592,0.0421959,-0.235628,-0.348264,0.221954,-0.0026474
0.46806,-0.539077,0.240592,0.0421959,-0.235628,-0.348264,0.229889,-0.00270844
0.729746,-0.292481,0.258426,0.0547945,-0.166481,-0.380226,0.229889,-0.00270844
0.98351,0.0836351,0.323814,0.0653983,-0.0929752,-0.29528,0.229889,-0.00270844
1.09852,0.397778,0.402384,0.0820198,-0.0421673,-0.120177,0.229889,-0.00270844
1.14319,0.625414,0.465384,0.0949992,-0.0090543,0.0637398,0.229889,-0.00270844
1.1626,0.836192,0.531317,0.109494,0.022447,0.224831,0.229889,-0.00270844
1.07963,1.00097,0.57761,0.1197,0.0454515,0.362876,0.229889,-0.00270844
0.87969,0.838902,0.647656,0.156013,0.05174,0.465613,0.229889,-0.00270844
0.564311,0.337353,0.759344,0.236361,0.0477016,0.499702,0.229889,-0.00270844
0.126632,-0.460507,0.939246,0.305569,0.0417468,0.464982,0.229889,-0.00270844
-0.289814,-1.40945,1.13196,0.333519,0.0411039,0.281769,0.229889,-0.00270844
-0.344245,-1.83563,1.20016,0.311479,0.0225662,-0.0476533,0.229889,-0.00270844
0.0555432,-1.46169,1.13108,0.279069,0.0423979,-0.381109,0.229889,-0.00270844
0.519713,-0.533191,1.1575,0.309715,0.104968,-0.501635,0.229889,-0.00270844
0.715537,0.473528,1.34192,0.357562,0.167839,-0.400242,0.229889,-0.00270844
0.650697,1.06335,1.53554,0.369248,0.18764,-0.193202,0.229889,-0.00270844
0.531577,1.18605,1.6607,0.354343,0.157468,-0.0343749,0.229889,-0.00270844
0.444024,1.04569,1.67284,0.323857,0.135637,0.0553085,0.229889,-0.00270844
0.364577,0.811711,1.67862,0.30702,0.133331,0.114037,0.229889,-0.00270844
0.324353,0.663396,1.68744,0.299415,0.131666,0.126447,0.229889,-0.00270844
0.293399,0.644,1.6597,0.28705,0.139015,0.126853,0.229889,-0.00270844
0.188422,0.75872,1.6498,0.272596,0.150343,0.127443,0.229889,-0.00270844
0.0680617,0.948292,1.66689,0.264621,0.153018,0.104791,0.229889,-0.00270844
-0.0271683,1.00082,1.63455,0.246053,0.129671,0.0807253,0.229889,-0.00270844
-0.0555475,1.02797,1.56309,0.232211,0.0955151,0.00785625,0.229889,-0.00270844
-0.178173,1.15502,1.4707,0.215836,0.0757153,-0.0505442,0.229889,-0.00270844
-0.429124,1.25981,1.3803,0.182992,0.0504374,-0.110515,0.229889,-0.00270844
-0.561024,1.25303,1.31543,0.133937,0.0404409,-0.230127,0.229889,-0.00270844
-0.488307,1.10645,1.27819,0.0904122,0.0495254,-0.362371,0.229889,-0.00270844
-0.400617,0.959072,1.32134,0.0595005,0.0617936,-0.432934,0.229889,-0.00270844
-0.392519,0.908167,1.38003,-0.00130536,0.0609426,-0.46619,0.229889,-0.00270844
-0.38827,0.940584,1.35796,-0.0923418,0.039385,-0.483673,0.229889,-0.00270844
-0.362842,1.00178,1.21809,-0.183469,0.0137495,-0.472049,0.229889,-0.00270844
-0.366621,1.0652,1.06489,-0.249843,0.00564897,-0.415719,0.229889,-0.00270844
-0.459277,0.958919,0.915116,-0.295221,0.00216487,-0.334565,0.229889,-0.00270844
-0.528526,0.727867,0.745324,-0.329032,-0.0129995,-0.28871,0.229889,-0.00270844
-0.453615,0.48511,0.523187,-0.360014,-0.0139149,-0.300573,0.229889,-0.00270844
-0.21706,0.334135,0.336802,-0.367453,0.0346062,-0.315262,0.229889,-0.00270844
0.0795908,0.327469,0.222652,-0.382756,0.120794,-0.28182,0.229889,-0.00270844
0.318251,0.422391,0.158083,-0.409852,0.202163,-0.190473,0.229889,-0.00270844
0.447513,0.442855,0.0697885,-0.429887,0.252177,-0.0681547,0.229889,-0.00270844
0.458207,0.221881,-0.095637,-0.439229,0.262089,0.0514241,0.229889,-0.00270844
0.371622,-0.181858,-0.304957,-0.430905,0.266822,0.133367,0.229889,-0.00270844
0.265227,-0.536076,-0.525667,-0.41873,0.274437,0.161534,0.229889,-0.00270844
0.132551,-0.666227,-0.810513,-0.400314,0.27895,0.172226,0.229889,-0.00270844
-0.0373456,-0.542281,-1.08096,-0.340896,0.278973,0.189974,0.229889,-0.00270844
-0.201594,-0.36724,-1.25644,-0.265228,0.286914,0.223463,0.229889,-0.00270844
-0.272248,-0.218347,-1.31659,-0.177711,0.284256,0.251523,0.229889,-0.00270844
-0.231005,-0.189592,-1.26938,-0.106527,0.277089,0.282208,0.229889,-0.00270844
-0.137243,-0.258884,-1.16329,-0.0599299,0.26183,0.330871,0.229889,-0.00270844
-0.0188916,-0.438224,-1.0484,-0.0270312,0.239955,0.382186,0.229889,-0.00270844
0.0245252,-0.602973,-0.964651,-0.0154626,0.214655,0.434244,0.229889,-0.00270844
-0.0899308,-0.733727,-0.979478,-0.0139129,0.176356,0.481495,0.229889,-0.00270844
-0.341489,-0.82444,-1.10135,0.00708295,0.113162,0.484192,0.229889,-0.00270844
-0.630414,-1.01072,-1.24504,0.069782,0.0515033,0.415555,0.229889,-0.00270844
-0.630414,-1.01072,-1.24504,0.069782,0.0515033,0.415555,0.21402,-0.00253296
-0.888023,-1.18538,-1.27329,0.156895,0.00945589,0.286652,0.21402,-0.00253296
-1.07937,-1.22292,-1.20629,0.216096,-0.0273099,0.0979821,0.21402,-0.00253296
-1.10097,-1.05417,-1.08518,0.264002,-0.0863233,-0.129877,0.21402,-0.00253296
-0.976737,-0.978947,-0.986148,0.284362,-0.147773,-0.315669,0.21402,-0.00253296
-0.956367,-1.24272,-0.921862,0.291368,-0.218277,-0.443175,0.21402,-0.00253296
-0.947002,-1.43682,-0.803023,0.325568,-0.272553,-0.626607,0.21402,-0.00253296
-0.651494,-1.18094,-0.573173,0.323546,-0.247151,-0.838534,0.21402,-0.00253296
-0.127798,-0.423092,-0.245342,0.299111,-0.218415,-0.918685,0.21402,-0.00253296
0.333084,0.464564,0.048468,0.253766,-0.216156,-0.784637,0.21402,-0.00253296
0.454535,1.01342,0.117911,0.195758,-0.261999,-0.487823,0.21402,-0.00253296
0.297561,1.27082,0.0398843,0.16502,-0.319287,-0.236375,0.21402,-0.00253296
0.139246,1.24711,-0.0288266,0.19183,-0.328761,-0.0999625,0.21402,-0.00253296
0.224299,1.11452,0.0209387,0.241004,-0.276746,-0.0602531,0.21402,-0.00253296
0.455321,1.10348,0.268779,0.313183,-0.182385,-0.0303982,0.21402,-0.00253296
0.706295,1.19094,0.6902,0.378353,-0.115394,0.0298443,0.21402,-0.00253296
0.835416,1.18182,1.14696,0.418911,-0.0858388,0.119515,0.21402,-0.00253296
0.795225,0.951629,1.55597,0.451566,-0.0955051,0.192664,0.21402,-0.00253296
0.706332,0.52609,1.794,0.427968,-0.115594,0.178043,0.21402,-0.00253296
0.609807,-0.0382892,1.83204,0.354851,-0.110458,0.088257,0.21402,-0.00253296
0.572799,-0.43078,1.76795,0.314906,-0.0854022,-0.0738189,0.21402,-0.00253296
0.764843,-0.415461,1.70569,0.30266,-0.00809097,-0.254487,0.21402,-0.00253296
1.14777,0.11977,1.74399,0.293277,0.1139,-0.363639,0.21402,-0.00253296
1.45888,0.86562,1.91488,0.269962,0.246112,-0.293235,0.21402,-0.00253296
1.59353,1.42759,2.09003,0.216025,0.322912,-0.102333,0.21402,-0.00253296
1.54318,1.64658,2.16519,0.14354,0.352774,0.11338,0.21402,-0.00253296
1.43085,1.53935,2.1862,0.0819451,0.363848,0.265042,0.21402,-0.00253296
1.33114,1.26643,2.15042,0.0551814,0.367453,0.351097,0.21402,-0.00253296
1.22346,0.978623,2.07399,0.0501731,0.369951,0.395304,0.21402,-0.00253296
0.996506,0.756375,1.96504,0.0508918,0.366547,0.41717,0.21402,-0.00253296
0.640031,0.678556,1.84328,0.0749451,0.331203,0.402775,0.21402,-0.00253296
0.326172,0.709257,1.73188,0.119406,0.28321,0.315423,0.21402,-0.00253296
0.0660874,0.838525,1.6614,0.139914,0.261293,0.203234,0.21402,-0.00253296
-0.202439,0.76495,1.6436,0.146263,0.223922,0.117013,0.21402,-0.00253296
-0.220485,0.364921,1.63335,0.134288,0.189138,-0.0346415,0.21402,-0.00253296
-0.110255,-0.191527,1.55726,0.103549,0.191735,-0.179423,0.21402,-0.00253296
-0.165503,-0.404161,1.4705,0.0755111,0.183427,-0.282083,0.21402,-0.00253296
-0.27056,-0.149727,1.33112,0.00281878,0.18064,-0.383776,0.21402,-0.00253296
-0.319035,0.372466,1.1034,-0.077857,0.186806,-0.440507,0.21402,-0.00253296
-0.417657,0.800278,0.88498,-0.12809,0.179356,-0.389083,0.21402,-0.00253296
-0.619838,0.960268,0.687285,-0.14429,0.157644,-0.276402,0.21402,-0.00253296
-0.827344,0.91432,0.546506,-0.152546,0.124999,-0.1963,0.21402,-0.00253296
-0.950479,0.794047,0.41456,-0.171671,0.0934944,-0.173818,0.21402,-0.00253296
-1.04847,0.712545,0.206808,-0.224073,0.0653278,-0.165454,0.21402,-0.00253296
-1.21176,0.572029,-0.067039,-0.267895,0.0349363,-0.156598,0.21402,-0.00253296
-1.29827,0.381887,-0.322776,-0.281008,0.020202,-0.190519,0.21402,-0.00253296
-1.09595,0.167543,-0.461596,-0.261903,0.0477136,-0.267796,0.21402,-0.00253296
-0.619689,0.0953934,-0.456221,-0.251708,0.0919324,-0.321221,0.21402,-0.00253296
-0.148478,0.201454,-0.394178,-0.281723,0.14461,-0.271832,0.21402,-0.00253296
0.0702946,0.298155,-0.396933,-0.326607,0.16502,-0.132296,0.21402,-0.00253296
0.0949611,0.23785,-0.530312,-0.374581,0.143808,0.0117169,0.21402,-0.00253296
0.0553857,0.0162237,-0.757446,-0.41522,0.137686,0.101508,0.21402,-0.00253296
0.0594595,-0.122636,-1.0078,-0.426796,0.146529,0.138113,0.21402,-0.00253296
0.0719969,-0.194309,-1.24004,-0.420753,0.172893,0.18229,0.21402,-0.00253296
0.0719969,-0.194309,-1.24004,-0.420753,0.172893,0.18229,0.192902,-0.00230408
0.0207673,-0.181823,-1.46248,-0.39587,0.176478,0.254967,0.192902,-0.00230408
-0.0951081,-0.203052,-1.67895,-0.355124,0.169484,0.335303,0.192902,-0.00230408
-0.238539,-0.338268,-1.81384,-0.278409,0.177495,0.389342,0.192902,-0.00230408
-0.269359,-0.540921,-1.78636,-0.187825,0.17549,0.372118,0.192902,-0.00230408
-0.159018,-0.755845,-1.7066,-0.135556,0.179748,0.330712,0.192902,-0.00230408
-0.00940999,-0.966668,-1.5787,-0.0844553,0.168108,0.291217,0.192902,-0.00230408
0.0571178,-1.15048,-1.47566,-0.0454714,0.139091,0.266434,0.192902,-0.00230408
0.0302192,-1.23018,-1.45222,-0.0198733,0.0920247,0.219606,0.192902,-0.00230408
-0.0852563,-1.15811,-1.51216,-0.0108124,0.0502091,0.166365,0.192902,-0.00230408
-0.284539,-0.991964,-1.5869,0.0157682,0.0263641,0.12042,0.192902,-0.00230408
-0.486216,-0.883365,-1.62275,0.0597983,-5.54025e-05,0.0642093,0.192902,-0.00230408
-0.573955,-0.863763,-1.632,0.0848032,-0.00646248,-0.0335545,0.192902,-0.00230408
-0.592495,-0.859752,-1.61357,0.10785,-0.0142155,-0.131778,0.192902,-0.00230408
-0.605648,-0.837041,-1.57101,0.143665,-0.0205636,-0.217668,0.192902,-0.00230408
-0.603233,-0.687911,-1.48371,0.177669,-0.0278412,-0.30265,0.192902,-0.00230408
-0.563977,-0.423255,-1.35179,0.212761,-0.0405519,-0.368038,0.192902,-0.00230408
-0.500594,-0.119643,-1.19091,0.24346,-0.0645,-0.397656,0.192902,-0.00230408
-0.381933,0.128023,-0.994836,0.284676,-0.107826,-0.407521,0.192902,-0.00230408
-0.208662,0.272135,-0.770411,0.312922,-0.14908,-0.389667,0.192902,-0.00230408
-0.0677789,0.345159,-0.545239,0.312043,-0.174162,-0.352117,0.192902,-0.00230408
-0.0569926,0.337192,-0.357696,0.301977,-0.215378,-0.290066,0.192902,-0.00230408
-0.128092,0.280903,-0.273296,0.275565,-0.256028,-0.264691,0.192902,-0.00230408
-0.154865,0.314885,-0.257166,0.248846,-0.270125,-0.285319,0.192902,-0.00230408
-0.0395387,0.464229,-0.216088,0.244899,-0.241197,-0.306631,0.192902,-0.00230408
0.241812,0.607431,-0.0530607,0.282353,-0.19682,-0.273265,0.192902,-0.00230408
0.559931,0.632102,0.238214,0.314924,-0.133609,-0.180251,0.192902,-0.00230408
0.824507,0.572212,0.608705,0.325908,-0.0867695,-0.0635396,0.192902,-0.00230408
0.958875,0.464515,0.889771,0.29176,-0.0634658,0.0428427,0.192902,-0.00230408
0.947876,0.310381,1.01432,0.247171,-0.0653594,0.112979,0.192902,-0.00230408
0.806097,0.233288,1.00343,0.204036,-0.0700297,0.121379,0.192902,-0.00230408
0.645683,0.233947,0.918239,0.162826,-0.0554318,0.0682268,0.192902,-0.00230408
0.553751,0.212546,0.863016,0.157732,-0.0239252,0.00707018,0.192902,-0.00230408
0.58227,0.169659,0.863526,0.164128,0.0193545,-0.0365978,0.192902,-0.00230408
0.696221,0.243902,0.957185,0.158671,0.0899433,-0.049432,0.192902,-0.00230408
0.832248,0.413906,1.1208,0.139702,0.161503,-0.00325584,0.192902,-0.00230408
0.912608,0.634433,1.27531,0.0969251,0.212349,0.0952761,0.192902,-0.00230408
0.886835,0.816271,1.34521,0.040991,0.23903,0.234941,0.192902,-0.00230408
0.740945,0.924219,1.34328,-0.00471914,0.253358,0.360111,0.192902,-0.00230408
0.543717,0.983221,1.27162,-0.0427363,0.253273,0.444645,0.192902,-0.00230408
0.316952,0.905873,1.18341,-0.0524632,0.258725,0.503031,0.192902,-0.00230408
0.0803774,0.689883,1.13787,-0.0435323,0.265681,0.522804,0.192902,-0.00230408
-0.136387,0.411493,1.15567,-0.00574787,0.26311,0.487873,0.192902,-0.00230408
-0.298183,0.216201,1.212,0.0214359,0.25749,0.400058,0.192902,-0.00230408
-0.382455,0.0688326,1.26613,0.0362757,0.242237,0.275247,0.192902,-0.00230408
-0.469493,-0.071347,1.2665,0.0417416,0.200013,0.158001,0.192902,-0.00230408
-0.480644,-0.158578,1.23557,0.0454095,0.153501,-0.00782597,0.192902,-0.00230408
-0.46543,-0.190842,1.12489,0.0450611,0.122146,-0.131548,0.192902,-0.00230408
-0.577073,-0.14256,0.961022,0.0249378,0.098931,-0.204397,0.192902,-0.00230408
-0.810292,-0.020525,0.806309,0.00805148,0.075981,-0.258365,0.192902,-0.00230408
-0.98478,0.0878475,0.705017,0.00420462,0.051857,-0.349885,0.192902,-0.00230408
-0.942068,0.0777644,0.608256,-0.0213711,0.0199749,-0.448431,0.192902,-0.00230408
-0.762375,0.0956363,0.49829,-0.0520687,-0.0173611,-0.500097,0.192902,-0.00230408
-0.580801,0.198963,0.350413,-0.0886125,-0.0578779,-0.494818,0.192902,-0.00230408
-0.494632,0.357145,0.178779,-0.125321,-0.107131,-0.438874,0.192902,-0.00230408
-0.494632,0.357145,0.178779,-0.125321,-0.107131,-0.438874,0.2061,-0.00242615
-0.514701,0.444607,-0.00476949,-0.151961,-0.155383,-0.360254,0.2061,-0.00242615
-0.556423,0.359714,-0.219362,-0.187598,-0.208537,-0.310019,0.2061,-0.00242615
-0.487039,0.0973198,-0.441147,-0.207454,-0.249009,-0.31461,0.2061,-0.00242615
-0.274116,-0.236199,-0.63566,-0.203842,-0.250289,-0.354524,0.2061,-0.00242615
0.0301193,-0.453144,-0.76195,-0.191142,-0.219683,-0.379397,0.2061,-0.00242615
0.342037,-0.4073,-0.855012,-0.191078,-0.167545,-0.37178,0.2061,-0.00242615
0.539205,-0.1526,-0.928281,-0.208025,-0.111202,-0.288512,0.2061,-0.00242615
0.599187,0.0448799,-0.971077,-0.218086,-0.0591772,-0.143194,0.2061,-0.00242615
0.592701,0.0311158,-1.01233,-0.213447,-0.0133631,-0.00394791,0.2061,-0.00242615
0.585397,-0.19902,-1.075,-0.227265,0.0347762,0.0895093,0.2061,-0.00242615
0.57459,-0.499196,-1.14667,-0.242166,0.082451,0.144272,0.2061,-0.00242615
0.575214,-0.766088,-1.17664,-0.226309,0.133146,0.168152,0.2061,-0.00242615
0.639059,-0.857529,-1.1553,-0.203971,0.189231,0.175975,0.2061,-0.00242615
0.766166,-0.759864,-1.10409,-0.166199,0.245796,0.199724,0.2061,-0.00242615
0.873904,-0.590089,-1.01884,-0.148592,0.28785,0.267723,0.2061,-0.00242615
0.888202,-0.535543,-0.959805,-0.147038,0.295784,0.367465,0.2061,-0.00242615
0.73435,-0.530053,-1.01648,-0.136685,0.312208,0.438456,0.2061,-0.00242615
0.61389,-0.579435,-0.944982,-0.116894,0.308276,0.445012,0.2061,-0.00242615
0.580267,-0.676698,-0.899458,-0.101755,0.301263,0.406489,0.2061,-0.00242615
0.553151,-0.666665,-0.868981,-0.0685165,0.274754,0.344151,0.2061,-0.00242615
0.511343,-0.547628,-0.812111,-0.0463254,0.231759,0.298354,0.2061,-0.00242615
0.343971,-0.468111,-0.789275,-0.0309177,0.165549,0.29663,0.2061,-0.00242615
0.0503007,-0.630303,-0.799523,0.00597356,0.072103,0.28581,0.2061,-0.00242615
-0.206797,-0.924004,-0.86279,0.0110182,0.000405431,0.192115,0.2061,-0.00242615
-0.374744,-1.02179,-1.01504,-0.0326243,-0.0459198,0.0559058,0.2061,-0.00242615
-0.527727,-0.937497,-1.16195,-0.0163463,-0.0755363,-0.0498285,0.2061,-0.00242615
-0.69259,-0.803579,-1.21322,0.0476275,-0.0852627,-0.112797,0.2061,-0.00242615
-0.857422,-0.689711,-1.19575,0.0842691,-0.0780796,-0.185532,0.2061,-0.00242615
-0.883425,-0.611098,-1.06084,0.134323,-0.0827891,-0.288695,0.2061,-0.00242615
-0.672985,-0.564859,-0.799188,0.183365,-0.0895344,-0.404454,0.2061,-0.00242615
-0.336096,-0.34538,-0.519161,0.218905,-0.103238,-0.465953,0.2061,-0.00242615
-0.0548819,0.124954,-0.279361,0.222069,-0.120586,-0.448482,0.2061,-0.00242615
0.0236075,0.434723,-0.144105,0.204095,-0.131952,-0.347913,0.2061,-0.00242615
-0.0193047,0.556987,-0.0725923,0.221596,-0.147806,-0.237932,0.2061,-0.00242615
-0.133993,0.478162,-0.0638193,0.238683,-0.134596,-0.151079,0.2061,-0.00242615
-0.320233,0.289476,-0.0707502,0.261627,-0.120075,-0.0938671,0.2061,-0.00242615
-0.422621,0.326045,0.0223115,0.287426,-0.0797278,-0.108633,0.2061,-0.00242615
-0.33505,0.611124,0.256242,0.282308,-0.0193985,-0.13266,0.2061,-0.00242615
-0.102284,0.882374,0.535429,0.27206,0.013069,-0.0884712,0.2061,-0.00242615
0.10788,0.949168,0.721783,0.259971,0.000494003,0.0153252,0.2061,-0.00242615
0.132166,0.72586,0.818365,0.258673,-0.0160442,0.139854,0.2061,-0.00242615
-0.0244693,0.427663,0.846055,0.249057,-0.0231921,0.210189,0.2061,-0.00242615
-0.2059,0.272664,0.835066,0.216945,-0.00573164,0.185235,0.2061,-0.00242615
-0.198408,0.335975,0.842308,0.196359,0.0409231,0.100793,0.2061,-0.00242615
-0.0644483,0.481592,0.931792,0.187366,0.0978079,0.0764325,0.2061,-0.00242615
0.110643,0.517337,1.0912,0.172913,0.138139,0.131204,0.2061,-0.00242615
0.254202,0.437984,1.24431,0.145317,0.160696,0.210945,0.2061,-0.00242615
0.353317,0.362944,1.33431,0.113675,0.167531,0.272547,0.2061,-0.00242615
0.405054,0.395528,1.35633,0.085173,0.167083,0.301827,0.2061,-0.00242615
0.385724,0.422568,1.32492,0.060267,0.169652,0.340462,0.2061,-0.00242615
0.280575,0.397505,1.28379,0.054499,0.173459,0.37751,0.2061,-0.00242615
0.121086,0.356832,1.30163,0.0861305,0.178138,0.382025,0.2061,-0.00242615
-0.042414,0.308647,1.34852,0.117505,0.175168,0.362542,0.2061,-0.00242615
-0.269487,0.237599,1.39953,0.127608,0.158705,0.328238,0.2061,-0.00242615
-0.269487,0.237599,1.39953,0.127608,0.158705,0.328238,0.219299,-0.00260925
-0.475735,0.121141,1.43239,0.125762,0.12099,0.241891,0.219299,-0.00260925
-0.653203,-0.110674,1.37451,0.109156,0.0760679,0.120353,0.219299,-0.00260925
-0.778154,-0.330787,1.25655,0.0979576,0.0231124,-0.0588431,0.219299,-0.00260925
-0.766828,-0.353589,1.12518,0.0976421,0.000328064,-0.258009,0.219299,-0.00260925
-0.69252,-0.0827809,1.07025,0.108716,0.00267616,-0.405973,0.219299,-0.00260925
-0.519765,0.378373,1.16142,0.0945908,0.0139408,-0.485283,0.219299,-0.00260925
-0.311123,0.669633,1.28456,0.0707812,0.00495502,-0.459302,0.219299,-0.00260925
-0.160704,0.624962,1.31855,0.0434989,-0.0584106,-0.35735,0.219299,-0.00260925
-0.120274,0.374929,1.26233,-0.0131577,-0.101518,-0.286344,0.219299,-0.00260925
-0.129449,0.151072,1.14107,-0.0796545,-0.124686,-0.278891,0.219299,-0.00260925
-0.112311,0.111407,0.967987,-0.121121,-0.140012,-0.30267,0.219299,-0.00260925
-0.238627,0.150119,0.818139,-0.128641,-0.143437,-0.279701,0.219299,-0.00260925
-0.510678,0.0964129,0.685767,-0.131059,-0.140912,-0.246242,0.219299,-0.00260925
-0.695407,-0.18623,0.55682,-0.156141,-0.124401,-0.277605,0.219299,-0.00260925
-0.630629,-0.350856,0.405145,-0.185424,-0.100554,-0.402878,0.219299,-0.00260925
-0.36885,-0.175003,0.261522,-0.209706,-0.0657932,-0.498261,0.219299,-0.00260925
0.0449496,0.287584,0.160374,-0.218635,-0.0187003,-0.510341,0.219299,-0.00260925
0.432077,0.757346,0.164899,-0.181894,0.0459009,-0.379128,0.219299,-0.00260925
0.644404,0.940816,0.209784,-0.160218,0.08306,-0.157702,0.219299,-0.00260925
0.735287,0.76414,0.226784,-0.167993,0.103268,0.0468321,0.219299,-0.00260925
0.751816,0.326505,0.219111,-0.179937,0.115009,0.176768,0.219299,-0.00260925
0.74201,-0.107203,0.191683,-0.192021,0.12291,0.220867,0.219299,-0.00260925
0.785688,-0.282046,0.0888087,-0.234331,0.146769,0.203545,0.219299,-0.00260925
0.884068,-0.200998,-0.0734255,-0.26244,0.170243,0.181431,0.219299,-0.00260925
0.917411,-0.00459547,-0.234497,-0.241087,0.203965,0.226223,0.219299,-0.00260925
0.809483,0.154951,-0.33278,-0.197195,0.231743,0.316317,0.219299,-0.00260925
0.679093,0.244308,-0.367178,-0.156526,0.247228,0.393262,0.219299,-0.00260925
0.64308,0.204137,-0.353073,-0.134188,0.251482,0.428926,0.219299,-0.00260925
0.66709,0.130745,-0.362381,-0.127865,0.231975,0.450902,0.219299,-0.00260925
0.572611,-0.0184989,-0.438382,-0.113005,0.20003,0.499084,0.219299,-0.00260925
0.367794,-0.259871,-0.505297,-0.0743107,0.16329,0.503638,0.219299,-0.00260925
0.182972,-0.424843,-0.487885,-0.024632,0.135603,0.424909,0.219299,-0.00260925
-0.029755,-0.370985,-0.442363,-0.0092302,0.115708,0.34026,0.219299,-0.00260925
-0.33758,-0.114417,-0.421988,-0.0246226,0.0707231,0.268761,0.219299,-0.00260925
-0.678564,0.283205,-0.487537,-0.0647415,0.00857532,0.206427,0.219299,-0.00260925
-0.767497,0.388813,-0.582906,-0.0939658,-0.0269516,0.191805,0.219299,-0.00260925
-0.859807,-0.318745,-0.729028,-0.0399572,-0.0852895,0.165467,0.219299,-0.00260925
-1.00864,-0.429181,-0.726289,-0.00696589,-0.0898649,0.0279429,0.219299,-0.00260925
-0.918266,-0.0914369,-0.709406,0.00747108,-0.0524463,-0.143238,0.219299,-0.00260925
-0.623722,0.253792,-0.456012,0.0860547,-0.0300614,-0.168983,0.219299,-0.00260925
-0.35997,0.0913237,-0.0131156,0.165987,-0.0147581,-0.0688015,0.219299,-0.00260925
