rotationRate_x,rotationRate_y,rotationRate_z,acceleration_x,acceleration_y,acceleration_z,relativeAltitude,altitude_pressure
-0.52048,0.276107,0.235358,-0.00209164,-0.142015,-0.0657491,0.001,0.0001
-0.41389,0.232438,0.185071,-0.00868764,-0.166659,-0.0972071,0.001,0.0001
-0.311928,0.0487108,0.142232,0.00721923,-0.203474,-0.139233,0.001,0.0001
-0.226145,-0.14523,0.118085,0.0151959,-0.223696,-0.195225,0.001,0.0001
-0.150255,-0.251567,0.0893315,-0.0100428,-0.203242,-0.273974,0.001,0.0001
-0.0383395,-0.110197,0.126025,-0.0252828,-0.17359,-0.327228,0.001,0.0001
0.0877503,-0.00574156,0.188844,-0.0140499,-0.165303,-0.399841,0.001,0.0001
0.194898,-0.260837,0.211388,-0.0100141,-0.142005,-0.497107,0.001,0.0001
0.289952,-0.525481,0.0984314,-0.0367554,-0.0819741,-0.563359,0.001,0.0001
0.381825,-0.539419,-0.15311,-0.088371,0.00172517,-0.561913,0.001,0.0001
0.476677,-0.279538,-0.331085,-0.149389,0.101152,-0.502387,0.001,0.0001
0.573384,0.209965,-0.335503,-0.154777,0.154473,-0.359838,0.001,0.0001
0.633861,0.700295,-0.242035,-0.103555,0.161689,-0.172821,0.001,0.0001
0.581305,0.897509,-0.173626,-0.0442233,0.151643,0.00169897,0.001,0.0001
0.52029,0.770375,-0.243312,0.00293446,0.160016,0.121003,0.001,0.0001
0.459109,0.523956,-0.367285,0.0469186,0.161775,0.197657,0.001,0.0001
0.357981,0.347297,-0.418034,0.0869072,0.175612,0.257439,0.001,0.0001
0.280007,0.167861,-0.328015,0.11004,0.180394,0.275236,0.001,0.0001
0.227413,-0.0748416,-0.182451,0.107999,0.186442,0.255658,0.001,0.0001
0.187137,-0.216461,-0.0984081,0.0803873,0.18761,0.253376,0.001,0.0001
0.121912,-0.157483,-0.0988359,0.0547794,0.165427,0.260573,0.001,0.0001
0.0202038,-0.00474405,-0.142455,0.0415412,0.149187,0.260798,0.001,0.0001
-0.0966547,0.0887593,-0.175464,0.0316988,0.144629,0.252416,0.001,0.0001
-0.197739,0.137064,-0.195399,0.0294304,0.143623,0.230852,0.001,0.0001
-0.254393,0.181297,-0.159312,0.0373177,0.140459,0.211227,0.001,0.0001
-0.256939,0.175416,-0.0715847,0.050081,0.126033,0.178647,0.001,0.0001
-0.197133,0.125856,0.0460803,0.0504745,0.115233,0.152157,0.001,0.0001
-0.173819,0.04857,0.143885,0.0468294,0.0975187,0.133231,0.001,0.0001
-0.222233,-0.0135943,0.16999,0.0513605,0.0654522,0.126232,0.001,0.0001
-0.321347,-0.0594921,0.129274,0.0573062,0.0283717,0.116741,0.001,0.0001
-0.395654,0.00640164,0.111128,0.0562949,-0.00235936,0.100733,0.001,0.0001
-0.483048,0.119969,0.138006,0.0582031,-0.0361198,0.10905,0.001,0.0001
-0.570525,0.171112,0.180846,0.0733513,-0.0673265,0.102363,0.001,0.0001
-0.614742,0.182746,0.238673,0.0881597,-0.0990775,0.0940133,0.001,0.0001
-0.557434,0.147794,0.305303,0.0913224,-0.123321,0.0671528,0.001,0.0001
-0.442836,0.0718707,0.374905,0.084213,-0.147865,0.0464252,0.001,0.0001
-0.32716,-0.0858044,0.384316,0.0714646,-0.163604,0.0202269,0.001,0.0001
-0.215619,-0.17613,0.31547,0.0558202,-0.184782,-0.00136578,0.001,0.0001
-0.189669,-0.142332,0.211272,0.0356587,-0.200197,-0.0254872,0.001,0.0001
-0.235794,-0.0480033,0.0768257,0.0194874,-0.204269,-0.0716541,0.001,0.0001
-0.229268,-0.0091236,-0.0513016,-0.010381,-0.185923,-0.147548,0.001,0.0001
-0.192779,0.00609925,-0.156855,-0.0326605,-0.161757,-0.220866,0.001,0.0001
-0.135808,0.048409,-0.205194,-0.0432841,-0.139619,-0.285833,0.001,0.0001
-0.0716802,0.105109,-0.213555,-0.0606292,-0.114361,-0.323883,0.001,0.0001
-0.125249,0.111037,-0.279724,-0.0494369,-0.0853497,-0.352455,0.001,0.0001
-0.310529,-0.0235266,-0.418693,-0.045851,-0.0434532,-0.40171,0.001,0.0001
-0.365744,-0.337965,-0.508634,-0.0768312,0.0388646,-0.488471,0.001,0.0001
-0.209614,-0.29979,-0.523924,-0.120597,0.11089,-0.505021,0.001,0.0001
0.0670148,0.107824,-0.467999,-0.170393,0.170349,-0.435333,0.001,0.0001
0.364381,0.476656,-0.316621,-0.165168,0.155535,-0.320491,0.001,0.0001
0.470701,0.681224,-0.185735,-0.132493,0.123612,-0.162775,0.001,0.0001
0.470701,0.681224,-0.185735,-0.132493,0.123612,-0.162775,0.0237885,-0.000274658
0.470767,0.638612,-0.191466,-0.101606,0.0930628,-0.0407633,0.0237885,-0.000274658
0.466386,0.445548,-0.314111,-0.0736603,0.0725799,0.0361895,0.0237885,-0.000274658
0.513201,0.325386,-0.418903,-0.0641336,0.0812091,0.0935203,0.0237885,-0.000274658
0.540535,0.317533,-0.451276,-0.043333,0.084484,0.146627,0.0237885,-0.000274658
0.496348,0.241748,-0.425253,-0.00510069,0.0873444,0.17111,0.0237885,-0.000274658
0.398329,0.0886173,-0.353291,0.0248186,0.0983759,0.174474,0.0237885,-0.000274658
0.303254,-0.002894,-0.248349,0.0296559,0.120719,0.180835,0.0237885,-0.000274658
0.283112,0.0835696,-0.139106,0.0156678,0.147731,0.199631,0.0237885,-0.000274658
0.340087,0.251738,-0.00797306,0.0122392,0.153484,0.22969,0.0237885,-0.000274658
0.445086,0.326119,0.111171,0.00703415,0.147604,0.258537,0.0237885,-0.000274658
0.548542,0.253517,0.167706,0.000364296,0.138946,0.291374,0.0237885,-0.000274658
0.590739,0.139,0.132098,-0.00365041,0.126172,0.304768,0.0237885,-0.000274658
0.54676,0.148281,0.0602449,-0.00709141,0.101191,0.32524,0.0237885,-0.000274658
0.378344,0.138431,0.0223653,-0.00745681,0.0738078,0.32431,0.0237885,-0.000274658
0.142167,0.146113,0.0123466,-0.0181145,0.0472559,0.294252,0.0237885,-0.000274658
-0.148901,0.185836,0.0122544,-0.0314267,0.0202845,0.279514,0.0237885,-0.000274658
-0.389993,0.0184772,0.0198007,-0.0450871,0.00365531,0.217643,0.0237885,-0.000274658
-0.515423,-0.082264,-0.0267779,-0.0674082,-0.0103692,0.162887,0.0237885,-0.000274658
-0.548304,0.0192876,-0.193445,-0.12143,-0.0165519,0.11454,0.0237885,-0.000274658
-0.594852,0.34628,-0.294857,-0.0825612,-0.0831667,0.139644,0.0237885,-0.000274658
-0.630765,0.351026,-0.227089,-0.0153958,-0.142274,0.128305,0.0237885,-0.000274658
-0.667784,0.112025,-0.0399042,-0.0129596,-0.142659,0.119149,0.0237885,-0.000274658
-0.693195,-0.141951,0.053868,0.0089037,-0.153698,0.104062,0.0237885,-0.000274658
-0.63654,-0.287726,0.00955896,0.0231117,-0.15617,0.0770314,0.0237885,-0.000274658
-0.538084,-0.288838,-0.0680772,0.0201625,-0.140567,0.0396109,0.0237885,-0.000274658
-0.480641,-0.193908,-0.094941,0.0314842,-0.12282,0.0103616,0.0237885,-0.000274658
-0.476932,-0.074382,-0.0395927,0.053083,-0.113847,-0.00670117,0.0237885,-0.000274658
-0.457802,0.00736499,0.100287,0.0889268,-0.119546,-0.0217294,0.0237885,-0.000274658
-0.387698,-0.0155807,0.279411,0.103657,-0.124281,-0.0337346,0.0237885,-0.000274658
-0.288927,-0.127682,0.45689,0.110246,-0.12186,-0.0604857,0.0237885,-0.000274658
-0.20966,-0.250354,0.592508,0.1008,-0.120594,-0.108776,0.0237885,-0.000274658
-0.226594,-0.221407,0.706832,0.0809889,-0.123827,-0.167639,0.0237885,-0.000274658
-0.275669,0.206535,0.799643,0.0503902,-0.145096,-0.224153,0.0237885,-0.000274658
-0.241885,0.379107,0.866953,0.0252224,-0.159328,-0.313946,0.0237885,-0.000274658
-0.0912323,0.306741,0.783958,-0.0184767,-0.122528,-0.404088,0.0237885,-0.000274658
0.0650993,0.00593435,0.501885,-0.0331943,-0.0982,-0.502589,0.0237885,-0.000274658
0.0916057,-0.170776,0.0927928,-0.038066,-0.0474153,-0.543728,0.0237885,-0.000274658
-0.0655019,0.143009,-0.183527,-0.0408846,-0.0175632,-0.494391,0.0237885,-0.000274658
-0.115414,0.638496,-0.302601,-0.0484749,0.0359335,-0.414636,0.0237885,-0.000274658
-0.0728939,0.98385,-0.31108,-0.0231401,0.112775,-0.340356,0.0237885,-0.000274658
0.0682847,1.00936,-0.151433,0.0241561,0.130815,-0.258319,0.0237885,-0.000274658
0.173911,0.619023,0.00233216,0.0689922,0.142125,-0.19252,0.0237885,-0.000274658
0.127971,0.241218,-0.0917358,0.106077,0.213185,-0.130131,0.0237885,-0.000274658
0.103896,0.157682,-0.186973,0.0830017,0.221175,-0.032504,0.0237885,-0.000274658
0.158118,0.185604,-0.141604,0.0369864,0.223701,0.0341569,0.0237885,-0.000274658
0.234003,0.189652,0.0531846,0.0028919,0.215377,0.0745494,0.0237885,-0.000274658
0.382501,0.213709,0.31995,-0.046944,0.182722,0.156077,0.0237885,-0.000274658
0.51035,0.240342,0.421455,-0.0753534,0.167489,0.21436,0.0237885,-0.000274658
0.595588,0.262159,0.326581,-0.0764148,0.140989,0.287327,0.0237885,-0.000274658
0.610325,0.262902,0.138285,-0.0818711,0.108495,0.351048,0.0237885,-0.000274658
0.478412,0.298404,-0.0674744,-0.0753858,0.100312,0.400092,0.0237885,-0.000274658
0.478412,0.298404,-0.0674744,-0.0753858,0.100312,0.400092,0.0237732,-0.000274658
0.23076,0.365211,-0.165961,-0.0556795,0.0817037,0.443103,0.0237732,-0.000274658
-0.0610279,0.304356,-0.159233,-0.0421211,0.0706513,0.434185,0.0237732,-0.000274658
-0.313001,0.118796,-0.156336,-0.0355568,0.0505206,0.404022,0.0237732,-0.000274658
-0.479108,-0.0778258,-0.228604,-0.0247309,0.0406101,0.340264,0.0237732,-0.000274658
-0.580939,-0.174217,-0.326184,-0.0275501,0.0291086,0.28884,0.0237732,-0.000274658
-0.64168,-0.169785,-0.380599,-0.0221203,0.026327,0.242401,0.0237732,-0.000274658
-0.66766,-0.137324,-0.327039,-0.0154628,0.0298386,0.190225,0.0237732,-0.000274658
-0.705247,-0.134261,-0.187468,0.00507432,0.0113739,0.161602,0.0237732,-0.000274658
-0.776493,-0.0988581,-0.027451,0.0288494,0.0106264,0.108228,0.0237732,-0.000274658
-0.724757,-0.0340721,0.14484,0.0349424,-0.00630438,0.0666413,0.0237732,-0.000274658
-0.68784,0.0373525,0.302397,0.0455212,-0.0330771,0.0531668,0.0237732,-0.000274658
-0.695788,0.0405024,0.39333,0.077763,-0.0670401,0.0317883,0.0237732,-0.000274658
-0.69447,-0.00751174,0.450319,0.0946794,-0.0958861,0.00530148,0.0237732,-0.000274658
-0.585548,-0.0394539,0.495888,0.108612,-0.112108,-0.027629,0.0237732,-0.000274658
-0.366693,0.0128248,0.564096,0.112275,-0.120145,-0.0617074,0.0237732,-0.000274658
-0.162814,0.0609275,0.624837,0.117339,-0.124474,-0.0914243,0.0237732,-0.000274658
-0.0300994,0.0144947,0.643998,0.124986,-0.136675,-0.115889,0.0237732,-0.000274658
0.0416161,-0.0122433,0.629493,0.123691,-0.132092,-0.173717,0.0237732,-0.000274658
0.100558,0.0452178,0.594381,0.105966,-0.125256,-0.225889,0.0237732,-0.000274658
0.157878,0.00799016,0.527164,0.107926,-0.124767,-0.290199,0.0237732,-0.000274658
0.230763,0.013473,0.374803,0.0947155,-0.126732,-0.312469,0.0237732,-0.000274658
0.147348,0.0526816,0.206817,0.0967005,-0.139322,-0.260588,0.0237732,-0.000274658
-0.294734,0.0715782,0.137554,0.0968651,-0.15361,-0.18846,0.0237732,-0.000274658
-0.979798,-0.280547,0.0451108,0.0582084,-0.099645,-0.235524,0.0237732,-0.000274658
-1.23998,-0.734324,-0.194474,0.0173611,0.0282986,-0.428663,0.0237732,-0.000274658
-0.71637,-0.615819,-0.459953,-0.0555565,0.149734,-0.591138,0.0237732,-0.000274658
0.185,-0.038788,-0.514159,-0.108733,0.310819,-0.575862,0.0237732,-0.000274658
0.894158,0.225947,-0.101271,-0.130667,0.233266,-0.449096,0.0237732,-0.000274658
1.21633,0.326473,0.367023,-0.149453,0.187508,-0.220451,0.0237732,-0.000274658
1.23288,0.192241,0.595052,-0.158156,0.148281,-0.0984955,0.0237732,-0.000274658
0.919544,0.366741,0.35577,-0.159743,0.137132,-0.0329552,0.0237732,-0.000274658
0.813764,0.629745,-0.116224,-0.218755,0.129198,0.0803582,0.0237732,-0.000274658
0.83692,0.755474,-0.561358,-0.272014,0.125292,0.101327,0.0237732,-0.000274658
0.821156,0.857123,-0.852009,-0.253606,0.124383,0.154675,0.0237732,-0.000274658
0.717008,0.963635,-0.935231,-0.214436,0.117902,0.232647,0.0237732,-0.000274658
0.62063,0.913079,-0.922065,-0.181484,0.113804,0.277675,0.0237732,-0.000274658
0.552884,0.749176,-0.875037,-0.159422,0.0983163,0.305245,0.0237732,-0.000274658
0.523288,0.472759,-0.860108,-0.142863,0.0889133,0.334267,0.0237732,-0.000274658
0.452987,0.159087,-0.864603,-0.130899,0.0684946,0.356977,0.0237732,-0.000274658
0.326873,-0.100493,-0.864735,-0.114487,0.0498333,0.368014,0.0237732,-0.000274658
0.162029,-0.230234,-0.80846,-0.101312,0.0350714,0.361437,0.0237732,-0.000274658
0.0112572,-0.268307,-0.69002,-0.0826481,0.0287332,0.349134,0.0237732,-0.000274658
-0.110984,-0.348903,-0.551978,-0.0592022,0.0310356,0.318559,0.0237732,-0.000274658
-0.164374,-0.482314,-0.406878,-0.0438465,0.0274855,0.29885,0.0237732,-0.000274658
-0.196345,-0.647632,-0.277792,-0.0178703,0.00699553,0.277026,0.0237732,-0.000274658
-0.261357,-0.775609,-0.186537,0.0059267,-0.0177492,0.278718,0.0237732,-0.000274658
-0.32279,-0.818573,-0.171624,0.0261211,-0.0260781,0.264297,0.0237732,-0.000274658
-0.470122,-0.961365,-0.145285,0.0481349,-0.0621439,0.209761,0.0237732,-0.000274658
-0.668483,-0.986283,-0.190625,0.0427095,-0.0485013,0.188889,0.0237732,-0.000274658
-0.756685,-0.881178,-0.21018,0.0506242,-0.04541,0.118802,0.0237732,-0.000274658
-0.756685,-0.881178,-0.21018,0.0506242,-0.04541,0.118802,0.163818,-0.0019455
-0.820814,-0.668165,-0.156792,0.0455734,-0.0416937,0.0777828,0.163818,-0.0019455
-0.867743,-0.506052,-0.0788666,0.0501962,-0.0485696,0.0408075,0.163818,-0.0019455
-0.929032,-0.372301,-0.0101468,0.0567728,-0.0699065,0.00950456,0.163818,-0.0019455
-0.905168,-0.397744,0.0340132,0.0798559,-0.0844426,-0.0298678,0.163818,-0.0019455
-0.764131,-0.413334,0.0968252,0.0720374,-0.0918863,-0.0846185,0.163818,-0.0019455
-0.551207,-0.452633,0.0985054,0.0778104,-0.101869,-0.0913624,0.163818,-0.0019455
-0.390387,-0.414997,0.107213,0.0922811,-0.120857,-0.116902,0.163818,-0.0019455
-0.29987,-0.337631,0.149447,0.0959326,-0.13506,-0.15939,0.163818,-0.0019455
-0.236654,-0.214727,0.181751,0.0908958,-0.118647,-0.221462,0.163818,-0.0019455
-0.134642,-0.0290695,0.209603,0.104903,-0.0994273,-0.325323,0.163818,-0.0019455
0.0228742,0.189051,0.28596,0.119182,-0.079745,-0.397533,0.163818,-0.0019455
0.0704346,0.478299,0.453898,0.143898,-0.087292,-0.436853,0.163818,-0.0019455
-0.203488,0.790478,0.611458,0.142212,-0.120605,-0.470544,0.163818,-0.0019455
-0.540607,0.811072,0.552907,0.121147,-0.138956,-0.541157,0.163818,-0.0019455
-0.334473,0.581014,0.154834,0.0900966,-0.0696144,-0.638434,0.163818,-0.0019455
0.182297,0.46284,-0.180358,0.0909748,0.0105626,-0.680859,0.163818,-0.0019455
0.651509,0.674235,-0.148694,0.0551324,0.0825982,-0.566741,0.163818,-0.0019455
0.968843,0.890685,0.14255,0.041727,0.16196,-0.396235,0.163818,-0.0019455
1.17227,0.767964,0.547625,0.0457039,0.156628,-0.228896,0.163818,-0.0019455
1.29706,0.388819,0.798662,0.053542,0.155713,-0.0668314,0.163818,-0.0019455
1.30848,-0.140953,0.862779,0.0278483,0.148889,0.0420296,0.163818,-0.0019455
1.17318,-0.433082,0.802102,-0.0268077,0.146585,0.143071,0.163818,-0.0019455
0.917642,-0.353026,0.674951,-0.0766273,0.149455,0.213896,0.163818,-0.0019455
0.656143,-0.0219442,0.593225,-0.109685,0.147008,0.252318,0.163818,-0.0019455
0.414472,0.276188,0.554109,-0.121822,0.143864,0.291775,0.163818,-0.0019455
0.242892,0.265145,0.504579,-0.11324,0.145477,0.297881,0.163818,-0.0019455
0.198817,0.0781004,0.414767,-0.09632,0.149211,0.297352,0.163818,-0.0019455
0.20355,-0.0599387,0.33745,-0.083269,0.139504,0.309764,0.163818,-0.0019455
0.197597,-0.0840807,0.265535,-0.0817959,0.140435,0.333437,0.163818,-0.0019455
0.167615,-0.0729611,0.205241,-0.0778365,0.146571,0.344726,0.163818,-0.0019455
0.106182,-0.0700994,0.186634,-0.088946,0.145622,0.319152,0.163818,-0.0019455
0.0325013,-0.000396286,0.174714,-0.0979777,0.147917,0.323443,0.163818,-0.0019455
0.00271981,-0.0418163,0.119376,-0.0925997,0.130078,0.302866,0.163818,-0.0019455
-0.0425208,-0.108099,-0.0217918,-0.101474,0.106883,0.290039,0.163818,-0.0019455
-0.131424,-0.140511,-0.196696,-0.109977,0.0929228,0.302084,0.163818,-0.0019455
-0.298018,-0.198177,-0.353158,-0.0987407,0.0719507,0.280436,0.163818,-0.0019455
-0.571575,-0.184702,-0.431955,-0.0824075,0.0565485,0.263737,0.163818,-0.0019455
-0.824936,-0.208706,-0.438788,-0.0536615,0.0400298,0.212239,0.163818,-0.0019455
-0.943971,-0.181585,-0.398691,-0.0158036,0.0144815,0.138804,0.163818,-0.0019455
-0.933027,-0.154116,-0.307458,0.0256271,0.000254489,0.0767213,0.163818,-0.0019455
-0.83958,-0.238096,-0.176281,0.0590586,-0.0108449,0.0121226,0.163818,-0.0019455
-0.712931,-0.358605,-0.0462526,0.0928434,-0.0383325,-0.030118,0.163818,-0.0019455
-0.597406,-0.382529,0.0709001,0.112799,-0.0688968,-0.056639,0.163818,-0.0019455
-0.490321,-0.324204,0.179244,0.112132,-0.0954248,-0.0776752,0.163818,-0.0019455
-0.379985,-0.182846,0.242004,0.111634,-0.114891,-0.0916383,0.163818,-0.0019455
-0.252683,-0.0649079,0.254892,0.107987,-0.137845,-0.104736,0.163818,-0.0019455
-0.135687,0.0271072,0.216482,0.106449,-0.153036,-0.109046,0.163818,-0.0019455
-0.0149627,0.0617994,0.163214,0.10868,-0.152395,-0.11752,0.163818,-0.0019455
0.0965672,0.137277,0.147716,0.110253,-0.147673,-0.12611,0.163818,-0.0019455
0.198024,0.162734,0.147261,0.108687,-0.123451,-0.152098,0.163818,-0.0019455
0.198024,0.162734,0.147261,0.108687,-0.123451,-0.152098,0.184967,-0.00219727
0.271426,0.109186,0.180051,0.118536,-0.105661,-0.188617,0.184967,-0.00219727
0.341005,0.0642436,0.212012,0.125532,-0.0923831,-0.239683,0.184967,-0.00219727
0.398088,0.0774988,0.261343,0.127104,-0.0810757,-0.286389,0.184967,-0.00219727
0.43926,0.0805379,0.339613,0.123092,-0.0707846,-0.315828,0.184967,-0.00219727
0.313897,-0.0682953,0.349968,0.132286,-0.0909644,-0.296952,0.184967,-0.00219727
-0.119772,-0.613329,0.174604,0.110488,-0.0721277,-0.306406,0.184967,-0.00219727
-0.567662,-1.02081,-0.10557,0.0724249,-0.0227449,-0.359005,0.184967,-0.00219727
-0.675128,-0.658568,-0.194254,0.0311709,0.0338968,-0.364938,0.184967,-0.00219727
-0.324158,-0.0418104,-0.0129132,-0.0340781,0.123361,-0.356634,0.184967,-0.00219727
0.233093,0.133133,0.299918,-0.0688277,0.166601,-0.259167,0.184967,-0.00219727
0.54825,-0.00236593,0.515116,-0.0611476,0.147011,-0.144268,0.184967,-0.00219727
0.58672,-0.102649,0.486832,-0.0875347,0.131363,-0.0310097,0.184967,-0.00219727
0.412457,0.0797091,0.218728,-0.120609,0.117781,0.0395627,0.184967,-0.00219727
0.3016,0.351793,-0.0724388,-0.158941,0.114754,0.0812312,0.184967,-0.00219727
0.183611,0.626195,-0.285328,-0.156733,0.112835,0.10178,0.184967,-0.00219727
0.0100565,0.864484,-0.405321,-0.129967,0.117643,0.153153,0.184967,-0.00219727
-0.105191,0.931411,-0.452534,-0.111597,0.107422,0.182463,0.184967,-0.00219727
-0.127723,0.801397,-0.495992,-0.0865003,0.106537,0.211275,0.184967,-0.00219727
0.053898,0.377528,-0.546186,-0.0566329,0.106188,0.196276,0.184967,-0.00219727
0.391774,-0.0431914,-0.547062,-0.0404947,0.114489,0.207906,0.184967,-0.00219727
0.61671,-0.224936,-0.439615,-0.0353642,0.0954471,0.261731,0.184967,-0.00219727
0.724114,-0.314346,-0.303409,-0.0408405,0.0809336,0.300574,0.184967,-0.00219727
0.693006,-0.377236,-0.208474,-0.053357,0.062835,0.324022,0.184967,-0.00219727
0.607112,-0.444955,-0.161726,-0.0538155,0.056612,0.31544,0.184967,-0.00219727
0.54726,-0.529364,-0.141929,-0.05114,0.0470702,0.281911,0.184967,-0.00219727
0.458006,-0.600017,-0.144044,-0.0365778,0.04354,0.23253,0.184967,-0.00219727
0.320853,-0.622195,-0.101134,-0.0139841,0.0310765,0.181505,0.184967,-0.00219727
0.277235,-0.565298,-0.0411769,-0.00351866,0.0367771,0.142422,0.184967,-0.00219727
0.246686,-0.803264,0.0675281,0.00193749,0.0361264,0.0358472,0.184967,-0.00219727
0.144379,-0.832582,0.197644,0.0161836,0.0226659,0.037095,0.184967,-0.00219727
0.026275,-0.703031,0.334346,0.0132539,0.00857301,0.0300809,0.184967,-0.00219727
-0.0490841,-0.583172,0.429927,-0.00448747,-0.0100338,0.0192399,0.184967,-0.00219727
-0.0910893,-0.480092,0.372773,-0.020455,-0.0378458,0.0229104,0.184967,-0.00219727
-0.0785841,-0.432766,0.150254,-0.0546329,-0.0821921,0.0385203,0.184967,-0.00219727
-0.0396145,-0.236437,-0.194227,-0.0995356,-0.123595,0.0648844,0.184967,-0.00219727
-0.114649,0.00332295,-0.390001,-0.0908819,-0.184453,0.121114,0.184967,-0.00219727
-0.286778,0.0788657,-0.380934,-0.0600371,-0.208591,0.159119,0.184967,-0.00219727
-0.441893,0.0139829,-0.35597,-0.0435947,-0.202648,0.16256,0.184967,-0.00219727
-0.461992,-0.0789234,-0.417337,-0.0148139,-0.172495,0.136646,0.184967,-0.00219727
-0.435828,-0.172066,-0.486618,0.0086934,-0.141265,0.113971,0.184967,-0.00219727
-0.395618,-0.263342,-0.468062,0.0461962,-0.116641,0.0721736,0.184967,-0.00219727
-0.406324,-0.334073,-0.353233,0.0677675,-0.0820396,0.0286834,0.184967,-0.00219727
-0.476652,-0.284211,-0.174443,0.0700614,-0.0536385,-0.036359,0.184967,-0.00219727
-0.4289,-0.233724,-0.015733,0.0692482,-0.0385194,-0.118897,0.184967,-0.00219727
-0.264735,-0.296857,0.11171,0.077067,-0.0450128,-0.23988,0.184967,-0.00219727
-0.0143841,-0.265364,0.18491,0.0516696,-0.0485516,-0.306758,0.184967,-0.00219727
0.0288116,-0.125127,0.16868,0.0479972,-0.06096,-0.34956,0.184967,-0.00219727
-0.0245867,0.120965,0.197623,0.055882,-0.10156,-0.378806,0.184967,-0.00219727
-0.129987,0.202141,0.210482,0.0588077,-0.10582,-0.424374,0.184967,-0.00219727
-0.27782,-0.0121247,0.123348,0.0498452,-0.102342,-0.482818,0.184967,-0.00219727
-0.27782,-0.0121247,0.123348,0.0498452,-0.102342,-0.482818,0.161179,-0.00189972
-0.343847,-0.317853,-0.111285,-0.0220369,-0.0169618,-0.592399,0.161179,-0.00189972
-0.238318,0.0440064,-0.229672,-0.074097,0.0360395,-0.578742,0.161179,-0.00189972
-0.0367289,0.569367,-0.315871,-0.111417,0.0687121,-0.466266,0.161179,-0.00189972
0.0697639,0.742735,-0.393413,-0.0980076,0.0451762,-0.277977,0.161179,-0.00189972
0.174994,0.518596,-0.485104,-0.0401303,0.0386837,-0.1265,0.161179,-0.00189972
0.273326,0.242501,-0.4351,0.0169305,0.0433803,0.00202638,0.161179,-0.00189972
0.305603,0.0230822,-0.294247,0.0156403,0.0559863,0.099556,0.161179,-0.00189972
0.224809,-0.0910455,-0.219365,-0.00343593,0.0768553,0.169354,0.161179,-0.00189972
0.146171,-0.17044,-0.22138,0.00853487,0.0872911,0.203457,0.161179,-0.00189972
0.186623,-0.16431,-0.15891,-0.00260478,0.105088,0.209753,0.161179,-0.00189972
0.309673,-0.0525978,0.012258,3.18885e-05,0.107283,0.228319,0.161179,-0.00189972
0.440387,0.122153,0.260007,0.0176609,0.109706,0.272122,0.161179,-0.00189972
0.573502,0.222131,0.538745,0.0299378,0.098938,0.31181,0.161179,-0.00189972
0.652103,0.188286,0.758659,0.0184918,0.105474,0.339461,0.161179,-0.00189972
0.674173,0.0825237,0.879573,-0.00652264,0.113445,0.349524,0.161179,-0.00189972
0.641624,-0.00915065,0.873427,-0.0157651,0.113842,0.355498,0.161179,-0.00189972
0.547378,-0.178126,0.750029,-0.0209713,0.122117,0.307019,0.161179,-0.00189972
0.492483,-0.302584,0.549638,-0.0250463,0.141929,0.224427,0.161179,-0.00189972
0.501868,-0.296589,0.356091,-0.0279762,0.14232,0.173572,0.161179,-0.00189972
0.410098,-0.313785,0.121637,-0.0305653,0.141529,0.131629,0.161179,-0.00189972
0.21248,-0.278829,-0.0781373,0.00940118,0.105315,0.108272,0.161179,-0.00189972
-0.055933,-0.134286,-0.157171,0.0196789,0.0748944,0.101877,0.161179,-0.00189972
-0.291233,0.137091,-0.130035,0.0328939,0.0375418,0.0949484,0.161179,-0.00189972
-0.442724,0.366666,-0.0157604,0.0597614,-0.0202117,0.0970954,0.161179,-0.00189972
-0.495598,0.410482,0.0806689,0.0727584,-0.0673555,0.0923726,0.161179,-0.00189972
-0.460393,0.385914,0.141812,0.0932731,-0.113653,0.0843416,0.161179,-0.00189972
-0.359062,0.255167,0.210142,0.108729,-0.152233,0.0635883,0.161179,-0.00189972
-0.254854,0.0986191,0.323314,0.106325,-0.175828,0.0442402,0.161179,-0.00189972
-0.168437,0.0624019,0.445576,0.0720402,-0.17735,0.0250584,0.161179,-0.00189972
-0.102729,0.128288,0.497661,0.0445594,-0.173991,0.0145116,0.161179,-0.00189972
-0.00971192,0.171137,0.450367,0.0271685,-0.167301,-0.0180926,0.161179,-0.00189972
0.123452,0.205018,0.3563,0.0270786,-0.152726,-0.0412332,0.161179,-0.00189972
0.159735,0.31473,0.287848,0.0419381,-0.138504,-0.0482144,0.161179,-0.00189972
0.112392,0.496442,0.263373,0.0606483,-0.12849,-0.0373883,0.161179,-0.00189972
0.0419492,0.6469,0.294695,0.0920423,-0.113979,-0.0302039,0.161179,-0.00189972
-0.0134584,0.571833,0.321667,0.113652,-0.102412,-0.0658005,0.161179,-0.00189972
-0.00608783,0.175366,0.408313,0.0884008,-0.0787404,-0.128094,0.161179,-0.00189972
0.090672,-0.323657,0.427527,0.0132317,-0.0700866,-0.217391,0.161179,-0.00189972
0.0163828,-0.404962,0.295893,-0.031476,-0.0479984,-0.267337,0.161179,-0.00189972
-0.46692,-0.180783,0.184318,-0.00293004,-0.0348945,-0.270304,0.161179,-0.00189972
-1.10076,-0.294606,0.299147,0.0364701,-0.0459187,-0.438997,0.161179,-0.00189972
-1.29114,-0.0134208,0.558489,0.0621763,-0.0328139,-0.53386,0.161179,-0.00189972
-0.754188,0.500505,0.910533,0.035568,0.0084531,-0.561856,0.161179,-0.00189972
-0.0513322,0.885328,1.1864,-0.051469,0.0885421,-0.418775,0.161179,-0.00189972
0.302497,0.902098,1.24059,-0.124794,0.0669969,-0.226048,0.161179,-0.00189972
0.148466,0.58016,0.910032,-0.145934,0.0490583,-0.0899558,0.161179,-0.00189972
-0.0884648,0.452449,0.236337,-0.114633,0.0714119,-0.00758475,0.161179,-0.00189972
-0.217302,0.684912,-0.273056,-0.115709,0.048648,0.0592624,0.161179,-0.00189972
-0.243825,0.919776,-0.52593,-0.114103,0.0779769,0.0747167,0.161179,-0.00189972
-0.00399365,0.967503,-0.66405,-0.0878809,0.122543,0.0477962,0.161179,-0.00189972
0.346256,0.90713,-0.728239,-0.0751683,0.156032,0.0789374,0.161179,-0.00189972
0.631213,0.758044,-0.690948,-0.0564457,0.187334,0.126643,0.161179,-0.00189972
0.791258,0.614393,-0.53555,-0.0385408,0.187448,0.198312,0.161179,-0.00189972
0.886762,0.403031,-0.309083,-0.0411355,0.175822,0.269163,0.161179,-0.00189972
0.942219,0.10694,-0.144443,-0.0431547,0.171779,0.314578,0.161179,-0.00189972
0.972499,-0.243759,-0.0916807,-0.0440098,0.176091,0.333688,0.161179,-0.00189972
0.944345,-0.491494,-0.125496,-0.0369199,0.181798,0.352441,0.161179,-0.00189972
0.747773,-0.617983,-0.21201,-0.00465122,0.162171,0.359883,0.161179,-0.00189972
0.415949,-0.565793,-0.273468,0.0249131,0.156772,0.331596,0.161179,-0.00189972
0.0548193,-0.202189,-0.15678,0.0332166,0.13444,0.303091,0.161179,-0.00189972
-0.161896,0.151302,0.0811462,0.0418178,0.127294,0.253938,0.161179,-0.00189972
-0.199908,0.290273,0.421104,0.0465359,0.101286,0.175678,0.161179,-0.00189972
-0.199908,0.290273,0.421104,0.0465359,0.101286,0.175678,0.171753,-0.00202942
-0.349558,0.286476,0.77959,0.0598936,0.0532938,0.161551,0.171753,-0.00202942
-0.570496,-0.0295546,1.14129,0.0431066,-0.0197091,0.111716,0.171753,-0.00202942
-0.717737,-0.389941,1.4107,0.00783448,-0.086838,0.0460303,0.171753,-0.00202942
-0.618987,-0.576741,1.54239,-0.0645058,-0.14878,-0.0208349,0.171753,-0.00202942
-0.35006,-0.603262,1.44244,-0.148338,-0.165551,-0.0868947,0.171753,-0.00202942
-0.151204,-0.418393,1.11281,-0.206091,-0.166135,-0.105655,0.171753,-0.00202942
-0.00748769,-0.0981536,0.687187,-0.226446,-0.16486,-0.0897076,0.171753,-0.00202942
0.0710072,0.178791,0.357183,-0.192801,-0.178073,-0.072026,0.171753,-0.00202942
-0.0251774,0.423656,0.211415,-0.123306,-0.194799,-0.0085842,0.171753,-0.00202942
-0.192556,0.559346,0.208544,-0.0661915,-0.187888,0.0319548,0.171753,-0.00202942
-0.206798,0.547611,0.24048,-0.01796,-0.175838,0.028414,0.171753,-0.00202942
-0.0584923,0.301046,0.284842,0.0168256,-0.142038,-0.0151068,0.171753,-0.00202942
0.110767,-0.0271757,0.384625,0.0504228,-0.11279,-0.0613632,0.171753,-0.00202942
0.213243,-0.158639,0.528246,0.0743691,-0.101444,-0.0843491,0.171753,-0.00202942
0.238106,-0.158183,0.744351,0.112006,-0.131959,-0.134302,0.171753,-0.00202942
0.225452,-0.298919,0.91163,0.144682,-0.165898,-0.193148,0.171753,-0.00202942
0.0908291,-0.536561,0.912895,0.155258,-0.201302,-0.27851,0.171753,-0.00202942
-0.191184,-1.18331,0.66873,0.156916,-0.223182,-0.402964,0.171753,-0.00202942
-0.454302,-1.35189,0.309157,0.14042,-0.222795,-0.55255,0.171753,-0.00202942
-0.427627,-0.58468,0.0943695,0.0541892,-0.190092,-0.674515,0.171753,-0.00202942
-0.0296382,0.377234,0.00594724,-0.0276161,-0.00826706,-0.625155,0.171753,-0.00202942
0.240695,0.856598,0.118838,-0.0254643,0.0427445,-0.557687,0.171753,-0.00202942
0.453269,0.661863,0.276613,0.00367409,0.093587,-0.474572,0.171753,-0.00202942
0.736547,0.530008,0.465654,0.037828,0.0999924,-0.309076,0.171753,-0.00202942
0.950384,0.358859,0.615171,0.0253712,0.120225,-0.164159,0.171753,-0.00202942
1.00824,0.217923,0.679822,-2.84612e-06,0.146882,-0.00642532,0.171753,-0.00202942
0.960093,0.078953,0.675918,-0.0210205,0.154446,0.143884,0.171753,-0.00202942
0.799579,-0.132986,0.570355,-0.033628,0.178371,0.261281,0.171753,-0.00202942
0.537444,-0.345682,0.384367,-0.0519627,0.206227,0.341734,0.171753,-0.00202942
0.179985,-0.295393,0.215534,-0.045972,0.198378,0.457895,0.171753,-0.00202942
-0.203139,-0.20793,0.104219,-0.0276175,0.18941,0.521344,0.171753,-0.00202942
-0.502903,-0.243086,0.0432525,-0.0200388,0.195238,0.533718,0.171753,-0.00202942
-0.721988,-0.238462,0.0202112,-0.0131907,0.19144,0.531604,0.171753,-0.00202942
-0.85246,-0.0718311,0.00254914,-0.00561782,0.179863,0.512296,0.171753,-0.00202942
-0.724623,0.0796994,-0.0141817,0.00729201,0.165605,0.424132,0.171753,-0.00202942
-0.245174,0.205334,-0.0257538,0.0237809,0.143613,0.293066,0.171753,-0.00202942
0.163068,0.280488,-0.0473071,0.0479539,0.137938,0.240445,0.171753,-0.00202942
0.312834,0.0920959,-0.0417483,0.0846558,0.137818,0.198493,0.171753,-0.00202942
0.166688,-0.283017,0.0209334,0.0992648,0.112983,0.193954,0.171753,-0.00202942
-0.170146,-0.35149,0.0727807,0.113504,0.0673753,0.205943,0.171753,-0.00202942
-0.495862,-0.0718899,0.0962751,0.1042,0.0318211,0.203826,0.171753,-0.00202942
-0.718829,0.327398,0.0723467,0.0898722,0.0226768,0.190487,0.171753,-0.00202942
-0.820625,0.574208,0.0655646,0.0913254,0.000310719,0.150009,0.171753,-0.00202942
-0.952829,0.687815,0.0933797,0.144426,-0.0577851,0.149033,0.171753,-0.00202942
-1.09903,0.678192,0.199734,0.173388,-0.0852457,0.136794,0.171753,-0.00202942
-1.1846,0.532911,0.3591,0.189082,-0.115189,0.0979157,0.171753,-0.00202942
-1.18448,0.276791,0.521763,0.187941,-0.134657,0.0408032,0.171753,-0.00202942
-1.06296,0.0554555,0.653265,0.168919,-0.130455,-0.0132418,0.171753,-0.00202942
-1.06296,0.0554555,0.653265,0.168919,-0.130455,-0.0132418,0.0264282,-0.000305176
-0.883857,-0.0905569,0.780959,0.145958,-0.138105,-0.0561724,0.0264282,-0.000305176
-0.640807,-0.185295,0.893448,0.119783,-0.145691,-0.10337,0.0264282,-0.000305176
-0.388943,-0.205176,0.949374,0.09092,-0.152927,-0.120894,0.0264282,-0.000305176
-0.245387,-0.0655359,0.941767,0.061573,-0.153212,-0.133114,0.0264282,-0.000305176
-0.190812,0.154535,0.89584,0.0437303,-0.167654,-0.112041,0.0264282,-0.000305176
-0.13341,0.320429,0.841341,0.0398593,-0.164881,-0.10218,0.0264282,-0.000305176
-0.0620683,0.423774,0.816359,0.0449566,-0.173157,-0.0812857,0.0264282,-0.000305176
0.00704201,0.46016,0.818369,0.0539166,-0.169355,-0.0517334,0.0264282,-0.000305176
0.0451282,0.396362,0.83903,0.0614522,-0.161273,-0.0321085,0.0264282,-0.000305176
0.0921009,0.261486,0.881196,0.0693567,-0.154941,-0.0327291,0.0264282,-0.000305176
0.208881,0.138946,0.943124,0.0623415,-0.144734,-0.0596465,0.0264282,-0.000305176
0.284326,-0.0633303,0.973553,0.0503715,-0.13472,-0.076192,0.0264282,-0.000305176
0.313866,-0.236798,0.981474,0.0383354,-0.11184,-0.0869493,0.0264282,-0.000305176
0.331161,-0.347322,0.975828,0.0320199,-0.114272,-0.113095,0.0264282,-0.000305176
0.176695,-0.526291,0.872131,-0.0103251,-0.0624249,-0.146797,0.0264282,-0.000305176
-0.0588184,-0.620784,0.684353,-0.0359997,-0.0321834,-0.173524,0.0264282,-0.000305176
-0.169215,-0.45817,0.503623,-0.0396769,-0.0250791,-0.188159,0.0264282,-0.000305176
-0.119768,-0.245459,0.413585,-0.0682989,0.0155337,-0.194834,0.0264282,-0.000305176
-0.00912896,0.07139,0.402349,-0.0515611,0.0505384,-0.119042,0.0264282,-0.000305176
0.164817,0.146323,0.470227,-0.0228905,0.0596046,-0.0720367,0.0264282,-0.000305176
0.345534,-0.010156,0.541635,0.00718686,0.0725501,-0.0203446,0.0264282,-0.000305176
0.524231,-0.154259,0.58674,0.0299887,0.0729685,0.0448533,0.0264282,-0.000305176
0.661765,-0.161275,0.585245,0.0435007,0.0687994,0.114734,0.0264282,-0.000305176
0.718908,-0.17645,0.55115,0.0554613,0.0530566,0.161889,0.0264282,-0.000305176
0.6111,-0.199168,0.496499,0.0757955,0.0319336,0.20282,0.0264282,-0.000305176
0.319969,-0.242539,0.386429,0.109052,-0.00711659,0.213092,0.0264282,-0.000305176
-0.0364752,-0.234097,0.201759,0.119274,-0.017633,0.193221,0.0264282,-0.000305176
-0.329449,-0.102179,0.0355217,0.10454,-0.000104785,0.15472,0.0264282,-0.000305176
-0.471834,0.144771,-0.0158761,0.0909066,0.0254612,0.107948,0.0264282,-0.000305176
-0.417974,0.410484,0.0319802,0.0841942,0.0425072,0.0732417,0.0264282,-0.000305176
-0.275091,0.612546,0.138682,0.0831985,0.0599255,0.0761562,0.0264282,-0.000305176
-0.215597,0.612934,0.314852,0.0865301,0.0498155,0.0972599,0.0264282,-0.000305176
-0.223027,0.493849,0.482362,0.0837533,0.0278027,0.152243,0.0264282,-0.000305176
-0.287557,0.356625,0.577565,0.0807154,-0.00723282,0.17213,0.0264282,-0.000305176
-0.297975,0.252095,0.575689,0.0545504,-0.0154033,0.163241,0.0264282,-0.000305176
-0.263692,0.186171,0.550693,0.0419197,-0.0258359,0.141703,0.0264282,-0.000305176
-0.262818,0.232245,0.532608,0.0451102,-0.0405778,0.135397,0.0264282,-0.000305176
-0.28394,0.314673,0.573251,0.0541533,-0.0537087,0.111036,0.0264282,-0.000305176
-0.330975,0.319618,0.668309,0.0810914,-0.0862782,0.085795,0.0264282,-0.000305176
-0.353828,0.200144,0.706289,0.0936551,-0.0978869,0.0359219,0.0264282,-0.000305176
-0.362522,0.114089,0.715097,0.110941,-0.117524,-0.0185809,0.0264282,-0.000305176
-0.419716,0.134215,0.736727,0.115796,-0.137574,-0.0727037,0.0264282,-0.000305176
-0.531741,0.0635596,0.652702,0.0866702,-0.0980153,-0.178835,0.0264282,-0.000305176
-0.527345,0.123563,0.541406,0.054112,-0.0293431,-0.275008,0.0264282,-0.000305176
-0.268217,0.418729,0.649108,0.0561385,-0.0368918,-0.30315,0.0264282,-0.000305176
-0.016113,0.506,0.957986,0.0725547,-0.037787,-0.289586,0.0264282,-0.000305176
-0.0110695,0.253028,1.23012,0.0665583,-0.0496871,-0.2317,0.0264282,-0.000305176
-0.0941487,0.0194932,1.29609,0.102644,-0.0574864,-0.158372,0.0264282,-0.000305176
-0.0941487,0.0194932,1.29609,0.102644,-0.0574864,-0.158372,0.145325,-0.00172424
-0.131498,0.0461074,1.31517,0.113444,-0.0636639,-0.0657763,0.145325,-0.00172424
-0.118705,0.0750387,1.34855,0.133554,-0.0636539,-0.017903,0.145325,-0.00172424
-0.0716246,-0.0470388,1.37653,0.162509,-0.0458218,-0.00980651,0.145325,-0.00172424
0.0224554,-0.125584,1.43571,0.192323,-0.0229194,0.0136205,0.145325,-0.00172424
0.151432,-0.0953791,1.51927,0.211035,0.00299101,0.0549604,0.145325,-0.00172424
0.223703,-0.0447749,1.58644,0.236449,0.0222936,0.0978979,0.145325,-0.00172424
0.204407,-0.119021,1.6239,0.257206,0.0363396,0.114188,0.145325,-0.00172424
0.153683,-0.299833,1.62778,0.272065,0.055524,0.0973256,0.145325,-0.00172424
0.193204,-0.507576,1.59271,0.282094,0.0737882,0.0415787,0.145325,-0.00172424
0.280292,-0.659604,1.49728,0.254704,0.117105,-0.0351827,0.145325,-0.00172424
0.378723,-0.540673,1.34155,0.203515,0.170624,-0.112671,0.145325,-0.00172424
0.473129,-0.0137917,1.2092,0.156249,0.199707,-0.109713,0.145325,-0.00172424
0.545978,0.52541,1.19803,0.114815,0.208336,-0.0601719,0.145325,-0.00172424
0.518392,0.79817,1.31327,0.102452,0.170794,0.0149358,0.145325,-0.00172424
0.445388,0.829863,1.35424,0.125789,0.125845,0.0986088,0.145325,-0.00172424
0.38006,0.706758,1.27912,0.124808,0.0856525,0.144315,0.145325,-0.00172424
0.327252,0.552925,1.08287,0.118659,0.0623929,0.167145,0.145325,-0.00172424
0.236723,0.538539,0.874266,0.118561,0.0354975,0.185676,0.145325,-0.00172424
0.0916689,0.630792,0.723456,0.110465,0.032134,0.194637,0.145325,-0.00172424
-0.037948,0.711886,0.695829,0.112033,0.0286313,0.170024,0.145325,-0.00172424
-0.0905184,0.695442,0.73085,0.113787,0.0227706,0.131155,0.145325,-0.00172424
-0.0392327,0.579243,0.782729,0.124277,0.00770664,0.0876286,0.145325,-0.00172424
0.0277617,0.405132,0.774626,0.111218,-0.0110132,0.0491391,0.145325,-0.00172424
0.05055,0.267782,0.671744,0.0916212,-0.00930098,0.0263448,0.145325,-0.00172424
-0.0324324,0.293526,0.596047,0.0742861,-0.026646,0.00162166,0.145325,-0.00172424
-0.177793,0.389148,0.557476,0.0631099,-0.0363774,0.00628865,0.145325,-0.00172424
-0.293719,0.428719,0.565846,0.0697694,-0.0395454,-0.0308169,0.145325,-0.00172424
-0.319076,0.333093,0.605193,0.0814598,-0.0334798,-0.0771028,0.145325,-0.00172424
-0.334332,0.140446,0.698023,0.0965315,-0.0588542,-0.100378,0.145325,-0.00172424
-0.507646,-0.0684681,0.670962,0.103555,-0.0678832,-0.133548,0.145325,-0.00172424
-0.679839,-0.0508396,0.651389,0.0572937,-0.0279209,-0.112697,0.145325,-0.00172424
-0.729862,0.156895,0.688109,0.0581763,-0.0226741,-0.10319,0.145325,-0.00172424
-0.650776,0.274326,0.805062,0.0425398,0.0139517,-0.0857398,0.145325,-0.00172424
-0.423009,0.195999,0.964075,0.0334922,0.0471224,-0.0583143,0.145325,-0.00172424
-0.18322,0.0646656,1.14897,0.0500914,0.040249,-0.00511944,0.145325,-0.00172424
0.0212274,-0.212214,1.25398,0.0546183,0.0439314,0.00875467,0.145325,-0.00172424
0.169266,-0.499212,1.23532,0.0484867,0.0542549,-0.00518423,0.145325,-0.00172424
0.284542,-0.551623,1.18014,0.0312091,0.0766771,0.00635171,0.145325,-0.00172424
0.294358,-0.455843,1.11055,0.0150203,0.0639806,-0.0177704,0.145325,-0.00172424
0.202504,-0.371949,0.903689,-0.00580247,0.075289,-0.0421942,0.145325,-0.00172424
0.117831,-0.195884,0.63051,-0.0110163,0.0899123,-0.0581169,0.145325,-0.00172424
0.0633811,0.160178,0.438191,-0.0112708,0.0888891,-0.0226269,0.145325,-0.00172424
-0.0113829,0.482129,0.380253,0.0112813,0.0719575,0.0280822,0.145325,-0.00172424
-0.133688,0.712279,0.389704,0.0450738,0.0516115,0.114418,0.145325,-0.00172424
-0.197661,0.695077,0.403624,0.0628077,0.0306452,0.163194,0.145325,-0.00172424
-0.244928,0.62459,0.423887,0.0779344,0.00331296,0.220707,0.145325,-0.00172424
-0.314608,0.483991,0.440461,0.0802467,-0.0137747,0.257566,0.145325,-0.00172424
-0.41431,0.306317,0.484707,0.0832042,-0.0326394,0.263106,0.145325,-0.00172424
-0.41431,0.306317,0.484707,0.0832042,-0.0326394,0.263106,0.116257,-0.00136566
-0.485305,0.136701,0.554184,0.079038,-0.0472653,0.24438,0.116257,-0.00136566
-0.500373,0.0375278,0.640434,0.0767057,-0.054081,0.200203,0.116257,-0.00136566
-0.484021,0.0225603,0.72587,0.0699642,-0.0617201,0.154156,0.116257,-0.00136566
-0.433814,0.0254819,0.783135,0.0623579,-0.0617422,0.102806,0.116257,-0.00136566
-0.382181,0.0296559,0.82258,0.0545167,-0.0558777,0.0610545,0.116257,-0.00136566
-0.316342,0.0224227,0.863976,0.0495595,-0.040815,0.0223114,0.116257,-0.00136566
-0.233479,0.0345651,0.952606,0.044148,-0.0478425,-0.0141789,0.116257,-0.00136566
-0.135254,0.00805339,1.01883,0.0418166,-0.0525904,-0.0364051,0.116257,-0.00136566
-0.0652561,-0.057201,1.01429,0.0342276,-0.0452323,-0.0621729,0.116257,-0.00136566
-0.0561699,-0.0270891,0.975245,0.0336794,-0.0591625,-0.0705857,0.116257,-0.00136566
-0.109419,0.0745853,0.949572,0.0373885,-0.0738285,-0.0687571,0.116257,-0.00136566
-0.20456,0.173038,0.942822,0.0482887,-0.0867637,-0.0782462,0.116257,-0.00136566
-0.259141,0.227501,0.957073,0.0536192,-0.0861446,-0.0931993,0.116257,-0.00136566
-0.2481,0.334318,1.0531,0.0695506,-0.0946527,-0.09201,0.116257,-0.00136566
-0.288451,0.22847,1.22817,0.117891,-0.161869,-0.115405,0.116257,-0.00136566
-0.434763,-0.212534,1.20105,0.112629,-0.106841,-0.178016,0.116257,-0.00136566
-0.488218,-0.500225,1.08794,0.102288,-0.0645703,-0.249191,0.116257,-0.00136566
-0.273494,-0.441482,1.08118,0.0874422,-9.34154e-05,-0.297986,0.116257,-0.00136566
0.0211328,-0.266043,1.17559,0.110177,0.0773167,-0.278088,0.116257,-0.00136566
0.268692,-0.156842,1.47456,0.103372,0.0920485,-0.191285,0.116257,-0.00136566
0.35947,-0.100182,1.78085,0.13852,0.0723169,-0.0626222,0.116257,-0.00136566
0.318403,-0.206564,1.81041,0.207952,0.0363683,0.0169279,0.116257,-0.00136566
0.255703,-0.442173,1.62605,0.221603,0.0168551,0.081102,0.116257,-0.00136566
0.121044,-0.630263,1.32712,0.208559,0.0401686,0.0938792,0.116257,-0.00136566
1.26369e-05,-0.521419,1.13522,0.217477,0.0521553,0.0828571,0.116257,-0.00136566
-0.0314547,-0.263967,1.10401,0.222565,0.0699412,0.0470824,0.116257,-0.00136566
0.0429602,-0.0577924,1.15253,0.232104,0.0846459,0.0244932,0.116257,-0.00136566
0.108666,0.0947229,1.2086,0.223207,0.108869,0.0139483,0.116257,-0.00136566
0.154289,0.197809,1.22995,0.223944,0.0870335,0.0378777,0.116257,-0.00136566
0.151245,0.244763,1.14576,0.222234,0.0619688,0.0578781,0.116257,-0.00136566
0.123561,0.319852,1.00825,0.214682,0.0387114,0.0666432,0.116257,-0.00136566
0.108098,0.474768,0.841954,0.209084,0.00713496,0.0442804,0.116257,-0.00136566
0.0825571,0.661377,0.626954,0.186499,0.00672531,0.0180712,0.116257,-0.00136566
0.131924,0.838047,0.469921,0.152854,0.0370635,-0.0147631,0.116257,-0.00136566
0.272204,0.933756,0.439808,0.125084,0.0602365,-0.0349227,0.116257,-0.00136566
0.373594,0.946126,0.510982,0.120528,0.0397749,-0.0364938,0.116257,-0.00136566
0.336389,0.876857,0.557475,0.0949253,0.0337913,-0.034615,0.116257,-0.00136566
0.250208,0.82498,0.577685,0.0555633,0.0345258,-0.0543385,0.116257,-0.00136566
0.19848,0.928023,0.654848,0.0186472,0.0304878,-0.0726589,0.116257,-0.00136566
0.169989,1.14818,0.798894,0.0114336,0.0124168,-0.0758423,0.116257,-0.00136566
0.138219,1.37013,0.935157,-0.0035617,-0.0128343,-0.063612,0.116257,-0.00136566
0.180144,1.40032,0.956511,-0.00247042,-0.0323018,-0.0624454,0.116257,-0.00136566
0.289604,1.23867,0.913422,0.0110488,-0.0530665,-0.0789777,0.116257,-0.00136566
0.32028,0.972595,0.884588,0.0326599,-0.0851543,-0.0896047,0.116257,-0.00136566
0.195382,0.762603,0.880737,0.0492684,-0.105863,-0.105937,0.116257,-0.00136566
0.0140062,0.621933,0.874687,0.0615651,-0.117498,-0.141679,0.116257,-0.00136566
-0.134646,0.554945,0.859901,0.0548964,-0.106667,-0.201953,0.116257,-0.00136566
-0.32889,0.635865,0.908457,0.0677397,-0.116336,-0.187733,0.116257,-0.00136566
-0.32889,0.635865,0.908457,0.0677397,-0.116336,-0.187733,0.105698,-0.00125885
-0.630802,0.415814,0.901775,0.0943068,-0.128,-0.169585,0.105698,-0.00125885
-0.831069,-0.268015,0.708508,0.0484711,-0.0274928,-0.245437,0.105698,-0.00125885
-0.684781,-0.613822,0.536922,-0.0545986,0.114583,-0.282847,0.105698,-0.00125885
-0.281913,-0.577361,0.411313,-0.0755346,0.186064,-0.256177,0.105698,-0.00125885
0.154345,-0.60516,0.48122,-0.0918008,0.246914,-0.19942,0.105698,-0.00125885
0.408667,-0.662341,0.74323,-0.0916946,0.24627,-0.113906,0.105698,-0.00125885
0.537034,-0.666593,0.993451,-0.103599,0.249525,-0.00965571,0.105698,-0.00125885
0.59721,-0.704227,1.0753,-0.109682,0.228995,0.0526345,0.105698,-0.00125885
0.586203,-0.728682,0.88907,-0.121695,0.214477,0.097294,0.105698,-0.00125885
0.513377,-0.710899,0.542506,-0.144517,0.197301,0.14971,0.105698,-0.00125885
0.318183,-0.608466,0.17451,-0.128958,0.173123,0.201983,0.105698,-0.00125885
0.0185957,-0.43149,-0.0508035,-0.0849642,0.131415,0.239565,0.105698,-0.00125885
-0.268706,-0.222852,-0.158284,-0.0374693,0.103949,0.277608,0.105698,-0.00125885
-0.491568,-0.130321,-0.205254,0.00648741,0.0812156,0.273693,0.105698,-0.00125885
-0.657679,-0.103947,-0.224813,0.0368145,0.0596695,0.272337,0.105698,-0.00125885
-0.765514,-0.155405,-0.233561,0.0517041,0.0456597,0.263905,0.105698,-0.00125885
-0.807747,-0.306379,-0.222543,0.0567963,0.0315217,0.231228,0.105698,-0.00125885
-0.791475,-0.434006,-0.206022,0.0481229,0.0295971,0.197817,0.105698,-0.00125885
-0.697448,-0.491367,-0.185801,0.0361981,0.0229654,0.162623,0.105698,-0.00125885
-0.600811,-0.473605,-0.141555,0.022005,0.0125157,0.140599,0.105698,-0.00125885
-0.567972,-0.383713,-0.108563,0.0114405,0.00112183,0.137035,0.105698,-0.00125885
-0.604563,-0.252838,-0.0833906,0.0154929,-0.0341699,0.13555,0.105698,-0.00125885
-0.662378,-0.263944,-0.109271,0.018001,-0.055393,0.109933,0.105698,-0.00125885
-0.653101,-0.264341,-0.136116,0.0289019,-0.0748359,0.0622723,0.105698,-0.00125885
-0.586063,-0.282294,-0.180042,0.0224978,-0.0747911,-0.0112833,0.105698,-0.00125885
-0.569485,-0.296211,-0.211538,0.0222855,-0.0650094,-0.0780373,0.105698,-0.00125885
-0.530416,-0.0824799,-0.224972,0.0336805,-0.0768197,-0.154349,0.105698,-0.00125885
-0.460073,0.255731,-0.196768,0.0402121,-0.0848847,-0.21417,0.105698,-0.00125885
-0.384447,0.47758,-0.130211,0.0583256,-0.0744936,-0.26222,0.105698,-0.00125885
-0.295695,0.515502,-0.0174385,0.0822623,-0.101499,-0.29067,0.105698,-0.00125885
-0.283393,0.519567,0.0524768,0.106856,-0.1391,-0.298136,0.105698,-0.00125885
-0.439819,0.457301,0.18857,0.0988021,-0.159871,-0.303859,0.105698,-0.00125885
-0.525039,-0.0762526,0.296693,0.0520136,-0.106917,-0.402555,0.105698,-0.00125885
-0.222029,-0.423386,0.241619,0.0190365,0.010829,-0.505372,0.105698,-0.00125885
0.387585,-0.344545,0.328085,0.0189588,0.0536224,-0.482997,0.105698,-0.00125885
1.01535,-0.171879,0.685696,0.016695,0.0744335,-0.367531,0.105698,-0.00125885
1.21184,-0.00107569,1.2002,0.0216094,0.0662856,-0.19294,0.105698,-0.00125885
1.03943,0.0659573,1.61855,0.0283891,0.0455314,-0.0557713,0.105698,-0.00125885
0.798759,0.0636542,1.69667,0.0472837,0.0447994,0.0203717,0.105698,-0.00125885
0.655853,0.0763798,1.3795,0.0730553,0.0521042,0.0484833,0.105698,-0.00125885
0.639071,0.0925348,0.984297,0.0322783,0.0337458,0.0669084,0.105698,-0.00125885
0.607148,0.00943101,0.614138,0.0329521,0.0512587,0.0758425,0.105698,-0.00125885
0.521989,-0.102859,0.389819,0.0456718,0.0553479,0.11518,0.105698,-0.00125885
0.448519,-0.0640043,0.316991,0.072121,0.0565804,0.183849,0.105698,-0.00125885
0.442235,0.0424894,0.324898,0.0770943,0.0607533,0.229825,0.105698,-0.00125885
0.453091,0.160368,0.374709,0.0624516,0.0651564,0.25084,0.105698,-0.00125885
0.498753,0.169386,0.399175,0.0603016,0.0718757,0.268176,0.105698,-0.00125885
0.503903,0.126547,0.393962,0.0485839,0.0650306,0.266656,0.105698,-0.00125885
0.503903,0.126547,0.393962,0.0485839,0.0650306,0.266656,0.0396423,-0.000457764
0.434887,0.160105,0.347232,0.0376081,0.0538759,0.280288,0.0396423,-0.000457764
0.351438,0.196255,0.24127,0.025899,0.0455504,0.257052,0.0396423,-0.000457764
0.28431,0.235809,0.103486,0.024005,0.0407742,0.221508,0.0396423,-0.000457764
0.218554,0.280417,-0.00539036,0.0294864,0.0402514,0.198711,0.0396423,-0.000457764
0.14512,0.25734,-0.0755226,0.0335722,0.0429905,0.176839,0.0396423,-0.000457764
0.106005,0.186577,-0.117729,0.0410934,0.0528829,0.150407,0.0396423,-0.000457764
0.0936256,0.167681,-0.12181,0.0525812,0.0499605,0.139679,0.0396423,-0.000457764
0.0473372,0.229212,-0.111589,0.0568338,0.0503897,0.13032,0.0396423,-0.000457764
-0.0838361,0.410829,-0.0684925,0.0676997,0.0439903,0.125749,0.0396423,-0.000457764
-0.259365,0.562978,-0.0118396,0.0676863,0.0275691,0.0975766,0.0396423,-0.000457764
-0.403834,0.625296,0.01081,0.0884656,0.00204046,0.0384138,0.0396423,-0.000457764
-0.43097,0.491767,0.00642021,0.100536,-0.0134397,-0.0588924,0.0396423,-0.000457764
-0.372122,0.193133,0.00876262,0.118691,-0.0287371,-0.163826,0.0396423,-0.000457764
-0.277791,-0.00269203,0.0326859,0.123665,-0.0389791,-0.255133,0.0396423,-0.000457764
-0.332731,0.131912,0.0811546,0.0981475,-0.0339718,-0.271502,0.0396423,-0.000457764
-0.651563,0.345017,0.155835,0.0784741,-0.0567926,-0.28221,0.0396423,-0.000457764
-1.19227,0.355958,0.0941158,0.0505769,-0.0585126,-0.323338,0.0396423,-0.000457764
-1.45949,0.110814,-0.0854603,0.0146143,-0.00539401,-0.465742,0.0396423,-0.000457764
-1.11804,-0.038593,-0.165525,0.000190578,0.0639865,-0.595713,0.0396423,-0.000457764
-0.309678,0.0726416,0.103469,-0.0450983,0.131775,-0.628261,0.0396423,-0.000457764
0.459257,0.296089,0.788376,-0.102744,0.163561,-0.519053,0.0396423,-0.000457764
0.838628,0.378766,1.49319,-0.143542,0.130118,-0.373732,0.0396423,-0.000457764
0.975314,0.360993,1.68934,-0.160816,0.105958,-0.250793,0.0396423,-0.000457764
1.03689,0.286044,1.28915,-0.169913,0.097627,-0.153098,0.0396423,-0.000457764
1.06324,0.240448,0.784104,-0.235994,0.0873662,0.00197679,0.0396423,-0.000457764
1.00988,0.271184,0.329638,-0.247398,0.124843,0.145089,0.0396423,-0.000457764
0.936249,0.301217,0.0710496,-0.206135,0.089999,0.264943,0.0396423,-0.000457764
0.771799,0.311894,-0.0292488,-0.160715,0.0534552,0.348925,0.0396423,-0.000457764
0.600061,0.194768,-0.144225,-0.13431,0.0697217,0.398255,0.0396423,-0.000457764
0.468383,-0.176763,-0.27739,-0.121123,0.0999585,0.410102,0.0396423,-0.000457764
0.387287,-0.583036,-0.36158,-0.0992665,0.102487,0.447955,0.0396423,-0.000457764
0.296756,-0.886542,-0.417905,-0.0751408,0.0950144,0.466093,0.0396423,-0.000457764
0.172977,-0.964926,-0.529423,-0.0452382,0.0922768,0.451061,0.0396423,-0.000457764
0.0442287,-0.845464,-0.638502,-0.0205012,0.0856741,0.415119,0.0396423,-0.000457764
-0.122318,-0.71196,-0.738786,0.0088677,0.0742589,0.354229,0.0396423,-0.000457764
-0.292928,-0.587057,-0.779306,0.0375802,0.0729708,0.277639,0.0396423,-0.000457764
-0.419431,-0.453126,-0.740827,0.0539014,0.0665121,0.21279,0.0396423,-0.000457764
-0.503043,-0.328427,-0.618616,0.0651232,0.0613743,0.149082,0.0396423,-0.000457764
-0.526707,-0.163756,-0.426038,0.0656712,0.0551339,0.10109,0.0396423,-0.000457764
-0.524371,-0.0569555,-0.166206,0.0577832,0.022768,0.0568961,0.0396423,-0.000457764
-0.537634,0.0172653,0.000198408,0.0443957,-0.0061022,0.0417904,0.0396423,-0.000457764
-0.572422,0.0617251,0.0155535,0.0294464,-0.0495992,0.0375323,0.0396423,-0.000457764
-0.604104,0.11602,-0.0708802,0.0110163,-0.0771373,0.0364056,0.0396423,-0.000457764
-0.617165,0.200079,-0.156855,-0.00309384,-0.0987636,0.0264484,0.0396423,-0.000457764
-0.59326,0.300651,-0.183261,-0.0123455,-0.116255,0.0199822,0.0396423,-0.000457764
-0.545474,0.371257,-0.16767,-0.0185847,-0.118081,0.0142999,0.0396423,-0.000457764
-0.510717,0.385054,-0.1335,-0.0187095,-0.130248,0.0185844,0.0396423,-0.000457764
-0.490766,0.292238,-0.0957067,-0.0132494,-0.146181,0.0181893,0.0396423,-0.000457764
-0.490766,0.292238,-0.0957067,-0.0132494,-0.146181,0.0181893,0.084549,-0.000991821
-0.47451,0.173929,-0.0779613,-0.00843223,-0.159486,0.0032351,0.084549,-0.000991821
-0.458488,0.0835546,-0.0994128,-0.00635307,-0.161143,-0.0260537,0.084549,-0.000991821
-0.417752,0.088944,-0.0748874,0.00493403,-0.15546,-0.0655984,0.084549,-0.000991821
-0.355623,0.0660106,-0.0252617,0.0227002,-0.143028,-0.128826,0.084549,-0.000991821
-0.251381,-0.0792114,0.040711,0.031947,-0.121107,-0.211862,0.084549,-0.000991821
-0.0709204,-0.200043,0.0758234,0.0421622,-0.100568,-0.292737,0.084549,-0.000991821
0.109814,-0.2842,0.107714,0.0566181,-0.0867339,-0.367737,0.084549,-0.000991821
0.260161,-0.398059,0.179388,0.0446251,-0.0723318,-0.411273,0.084549,-0.000991821
0.304207,-0.64656,0.204826,0.0219173,-0.049488,-0.455365,0.084549,-0.000991821
0.189164,-0.768731,0.0387197,-0.0119122,-0.000919163,-0.465596,0.084549,-0.000991821
0.0811831,-0.614273,-0.198181,-0.0146519,0.0235781,-0.447946,0.084549,-0.000991821
0.0523678,-0.199406,-0.300528,-0.0230134,0.0427932,-0.390399,0.084549,-0.000991821
0.0971048,0.283954,-0.217936,-0.0203879,0.0760521,-0.302207,0.084549,-0.000991821
0.138523,0.671894,-0.0153507,-0.000820819,0.0789839,-0.182994,0.084549,-0.000991821
0.173255,0.734287,0.149663,0.022758,0.075056,-0.0869324,0.084549,-0.000991821
0.210041,0.406189,0.171742,0.0545022,0.0654863,-0.0303556,0.084549,-0.000991821
0.258015,-0.10859,0.122278,0.0558667,0.0576165,0.00818884,0.084549,-0.000991821
0.265867,-0.448878,0.0524948,0.0310439,0.0784424,0.0610164,0.084549,-0.000991821
0.267536,-0.473353,0.00700851,0.00958266,0.0853632,0.109227,0.084549,-0.000991821
0.305316,-0.314657,-0.0118809,0.0104515,0.0807246,0.160125,0.084549,-0.000991821
0.244822,-0.130512,0.00957142,0.0176044,0.071848,0.198859,0.084549,-0.000991821
0.106347,0.14321,0.019508,0.0148427,0.0615129,0.248228,0.084549,-0.000991821
-0.00056473,0.241493,-0.0351399,0.0254171,0.0595294,0.260467,0.084549,-0.000991821
-0.0567047,0.177884,-0.08547,0.0351767,0.0588044,0.261234,0.084549,-0.000991821
-0.0164056,0.0631122,-0.0844342,0.0362769,0.0672134,0.263636,0.084549,-0.000991821
0.107089,-0.0822249,-0.0448036,0.0301459,0.0794529,0.237913,0.084549,-0.000991821
0.226687,-0.128959,0.00869361,0.0276418,0.0820054,0.244868,0.084549,-0.000991821
0.284872,-0.153839,0.0314377,0.0170577,0.0816616,0.246919,0.084549,-0.000991821
0.190764,-0.0835524,-0.00551323,0.0240469,0.0719503,0.242953,0.084549,-0.000991821
0.0337137,0.0705552,-0.0650274,0.0228354,0.0433555,0.258964,0.084549,-0.000991821
-0.133622,0.165996,-0.13304,0.0314704,0.0307481,0.234896,0.084549,-0.000991821
-0.294764,0.156499,-0.183358,0.0338732,0.0140175,0.201702,0.084549,-0.000991821
-0.440811,0.0913408,-0.245749,0.037737,0.00941643,0.167811,0.084549,-0.000991821
-0.539017,0.0981842,-0.273511,0.0309068,0.000349417,0.14591,0.084549,-0.000991821
-0.602555,0.186382,-0.247453,0.0196211,-0.0141556,0.115562,0.084549,-0.000991821
-0.649577,0.331816,-0.199087,0.00808351,-0.0319491,0.1088,0.084549,-0.000991821
-0.667284,0.43648,-0.144759,0.00825716,-0.0543471,0.0901417,0.084549,-0.000991821
-0.674068,0.522549,-0.072872,0.0159032,-0.0888644,0.0824785,0.084549,-0.000991821
-0.678206,0.517534,0.0125672,0.0174974,-0.120658,0.0706851,0.084549,-0.000991821
-0.663354,0.464612,0.0665617,0.0137105,-0.132844,0.0506646,0.084549,-0.000991821
-0.576646,0.378216,0.113024,0.0157596,-0.147571,0.0151569,0.084549,-0.000991821
-0.462195,0.272987,0.144804,0.0148514,-0.153638,-0.0271509,0.084549,-0.000991821
-0.328479,0.208829,0.16684,0.0279133,-0.151908,-0.0678077,0.084549,-0.000991821
-0.25056,0.141633,0.221341,0.040809,-0.167801,-0.105352,0.084549,-0.000991821
-0.312849,0.133065,0.234717,0.0583067,-0.170268,-0.144525,0.084549,-0.000991821
-0.451163,0.281113,0.204735,0.0756068,-0.159401,-0.18957,0.084549,-0.000991821
-0.702824,0.628782,0.174808,0.0694275,-0.126401,-0.224524,0.084549,-0.000991821
-0.980754,0.916023,0.0944188,0.0641465,-0.0861008,-0.258253,0.084549,-0.000991821
-0.968334,0.762561,-0.120209,0.0746076,-0.0376226,-0.343318,0.084549,-0.000991821
-0.968334,0.762561,-0.120209,0.0746076,-0.0376226,-0.343318,0.0819092,-0.000991821
-0.782896,0.435293,-0.372457,0.119068,-0.0137576,-0.370054,0.0819092,-0.000991821
-0.570569,0.103787,-0.482656,0.151863,-0.0114962,-0.361516,0.0819092,-0.000991821
-0.399137,-0.236746,-0.434557,0.170184,-0.024214,-0.349385,0.0819092,-0.000991821
-0.182148,-0.567141,-0.311476,0.149295,0.0257388,-0.354313,0.0819092,-0.000991821
0.0370459,-0.674828,-0.0930436,0.11798,0.0723536,-0.350329,0.0819092,-0.000991821
0.301277,-0.613705,0.20964,0.0419624,0.110606,-0.330016,0.0819092,-0.000991821
0.616218,-0.362556,0.517648,-0.0386193,0.144688,-0.275374,0.0819092,-0.000991821
0.841882,-0.0339463,0.77012,-0.104211,0.150511,-0.202751,0.0819092,-0.000991821
0.957255,0.175627,0.839591,-0.132528,0.148395,-0.140087,0.0819092,-0.000991821
1.00344,0.256797,0.693189,-0.144856,0.152594,-0.0757025,0.0819092,-0.000991821
0.979763,0.251522,0.375771,-0.149696,0.153719,-0.0123578,0.0819092,-0.000991821
0.913492,0.25053,0.0146121,-0.140738,0.137932,0.0562118,0.0819092,-0.000991821
0.805283,0.225543,-0.236177,-0.137987,0.124652,0.115551,0.0819092,-0.000991821
0.715038,0.251443,-0.325791,-0.134527,0.122764,0.171004,0.0819092,-0.000991821
0.683035,0.231614,-0.274977,-0.134865,0.118537,0.212246,0.0819092,-0.000991821
0.713251,0.20601,-0.184347,-0.136068,0.118101,0.254678,0.0819092,-0.000991821
0.735037,0.186087,-0.1173,-0.1285,0.110851,0.303408,0.0819092,-0.000991821
0.703767,0.162563,-0.101033,-0.118989,0.105499,0.357692,0.0819092,-0.000991821
0.616086,0.0558046,-0.157549,-0.0881939,0.0910813,0.390461,0.0819092,-0.000991821
0.505128,-0.0906949,-0.152186,-0.0519308,0.0658836,0.4245,0.0819092,-0.000991821
0.34196,-0.24873,-0.035298,-0.0267378,0.0606429,0.436027,0.0819092,-0.000991821
0.169559,-0.467393,0.0827461,-0.00215361,0.0431029,0.415474,0.0819092,-0.000991821
0.03498,-0.682242,0.0763819,0.00488946,0.0417575,0.353872,0.0819092,-0.000991821
-0.0676131,-0.756984,-0.0251054,0.00418514,0.0330896,0.293028,0.0819092,-0.000991821
-0.222915,-0.714562,-0.172827,0.00801802,0.0164683,0.218982,0.0819092,-0.000991821
-0.473776,-0.624407,-0.316883,0.00448864,0.00988011,0.149587,0.0819092,-0.000991821
-0.711851,-0.508735,-0.382985,0.00047306,0.0111457,0.0700191,0.0819092,-0.000991821
-0.788413,-0.300408,-0.348377,-0.00244334,0.00118507,-0.00218511,0.0819092,-0.000991821
-0.713063,-0.0268962,-0.233962,-0.0277947,-0.0137174,-0.025616,0.0819092,-0.000991821
-0.578655,0.134014,-0.131676,-0.0317594,-0.0258306,-0.0323709,0.0819092,-0.000991821
-0.539577,0.0927615,-0.0653956,-0.0130336,-0.0707182,-0.00418556,0.0819092,-0.000991821
-0.544174,-0.067099,-0.0814785,-0.00438096,-0.0994829,0.0141144,0.0819092,-0.000991821
-0.516072,-0.160988,-0.10337,0.00300797,-0.132602,0.0270575,0.0819092,-0.000991821
-0.496152,-0.195333,-0.0803729,0.00812982,-0.150535,0.0291902,0.0819092,-0.000991821
-0.471711,-0.301578,0.0437032,0.0309094,-0.151362,0.00958002,0.0819092,-0.000991821
-0.427653,-0.41645,0.227715,0.0307608,-0.156782,-0.0310936,0.0819092,-0.000991821
-0.349094,-0.494198,0.335688,0.0266624,-0.137797,-0.0690203,0.0819092,-0.000991821
-0.231357,-0.539859,0.351578,0.0414307,-0.139177,-0.0970464,0.0819092,-0.000991821
-0.177047,-0.393689,0.324064,0.0326242,-0.136601,-0.152448,0.0819092,-0.000991821
-0.100388,-0.126424,0.303089,0.0347668,-0.132761,-0.183245,0.0819092,-0.000991821
-0.01323,-0.00314175,0.321967,0.0409741,-0.126949,-0.271429,0.0819092,-0.000991821
0.00457615,0.0995803,0.312023,0.0479526,-0.127189,-0.352114,0.0819092,-0.000991821
-0.0431751,-0.016565,0.175055,0.0428676,-0.0978198,-0.459494,0.0819092,-0.000991821
-0.0704905,-0.115003,-0.0859723,0.0247052,-0.0314942,-0.525469,0.0819092,-0.000991821
-0.0656721,-0.0433229,-0.27829,-0.033797,0.0489194,-0.53129,0.0819092,-0.000991821
-0.096215,0.262412,-0.329594,-0.064158,0.1234,-0.453784,0.0819092,-0.000991821
-0.0614619,0.737973,-0.171989,-0.0508956,0.131964,-0.326684,0.0819092,-0.000991821
0.0544161,1.12057,0.191895,-0.0280073,0.0912575,-0.163669,0.0819092,-0.000991821
0.0544161,1.12057,0.191895,-0.0280073,0.0912575,-0.163669,0.0951233,-0.00112152
0.169882,1.06445,0.555359,-0.00119918,0.0472636,-0.0478436,0.0951233,-0.00112152
0.200937,0.630591,0.700483,0.0351171,0.0214538,7.90358e-05,0.0951233,-0.00112152
0.269468,-0.06186,0.56098,0.0299684,0.0349519,0.00218844,0.0951233,-0.00112152
0.400675,-0.600883,0.302636,0.00101802,0.0634515,-0.00908095,0.0951233,-0.00112152
0.543045,-0.611551,0.187113,-0.0285781,0.074142,0.0292257,0.0951233,-0.00112152
0.612738,-0.391888,0.214297,-0.0493051,0.0780247,0.0777287,0.0951233,-0.00112152
0.56112,-0.102282,0.330667,-0.04339,0.0702623,0.133694,0.0951233,-0.00112152
0.462814,0.103607,0.418971,-0.0348567,0.050516,0.182056,0.0951233,-0.00112152
0.441202,0.0843572,0.396291,-0.0149458,0.0504114,0.199381,0.0951233,-0.00112152
0.526739,-0.0330628,0.335785,-0.00970926,0.0516625,0.221573,0.0951233,-0.00112152
0.634347,-0.124179,0.294115,-0.00268705,0.0638428,0.250783,0.0951233,-0.00112152
0.713205,-0.170127,0.312597,-0.00358263,0.0617306,0.28972,0.0951233,-0.00112152
0.732463,-0.19483,0.319786,-0.00665444,0.0699457,0.317873,0.0951233,-0.00112152
0.708782,-0.194482,0.310651,-0.000363618,0.0612012,0.339361,0.0951233,-0.00112152
0.563231,-0.175,0.277253,0.0115327,0.0332376,0.347778,0.0951233,-0.00112152
0.287891,-0.156531,0.128759,0.0210808,0.0241405,0.338392,0.0951233,-0.00112152
0.0397835,-0.23461,-0.0904161,0.0203614,0.0230152,0.288423,0.0951233,-0.00112152
-0.0780413,-0.343374,-0.293227,0.0212766,0.0209394,0.233175,0.0951233,-0.00112152
-0.220512,-0.336268,-0.415124,0.0182115,0.024368,0.16347,0.0951233,-0.00112152
-0.379536,-0.0608161,-0.425177,0.0214449,0.0146746,0.152968,0.0951233,-0.00112152
-0.453447,0.159518,-0.387532,0.00556843,0.0151482,0.108764,0.0951233,-0.00112152
-0.523017,0.339861,-0.317058,0.017203,-0.0218928,0.0809889,0.0951233,-0.00112152
-0.62345,0.436338,-0.293045,0.0236043,-0.0494359,0.0780999,0.0951233,-0.00112152
-0.694445,0.422555,-0.275564,0.0387504,-0.0812206,0.0686556,0.0951233,-0.00112152
-0.728791,0.409385,-0.219168,0.0377186,-0.112614,0.0578705,0.0951233,-0.00112152
-0.700252,0.3467,-0.118057,0.0389005,-0.130231,0.0429209,0.0951233,-0.00112152
-0.609555,0.207478,0.0180534,0.0451525,-0.149488,0.0155838,0.0951233,-0.00112152
-0.524729,0.0971159,0.123726,0.0450493,-0.169465,0.00570858,0.0951233,-0.00112152
-0.462105,-0.0691952,0.159124,0.0582132,-0.184812,-0.00916582,0.0951233,-0.00112152
-0.443151,-0.187269,0.187369,0.0713022,-0.202373,-0.0480145,0.0951233,-0.00112152
-0.417513,-0.243694,0.196762,0.0699495,-0.190163,-0.086615,0.0951233,-0.00112152
-0.363395,-0.312089,0.195861,0.0757752,-0.167551,-0.170512,0.0951233,-0.00112152
-0.258183,-0.364469,0.190361,0.0723018,-0.147937,-0.26266,0.0951233,-0.00112152
-0.154338,-0.448374,0.181294,0.0653901,-0.110374,-0.341511,0.0951233,-0.00112152
-0.13676,-0.493758,0.120315,0.0532607,-0.109064,-0.395394,0.0951233,-0.00112152
-0.219538,-0.598693,-0.156167,0.0249609,-0.0831656,-0.465986,0.0951233,-0.00112152
-0.286714,-0.551355,-0.549557,-0.0115279,-0.0248555,-0.52683,0.0951233,-0.00112152
-0.281853,-0.398664,-0.821417,-0.0485245,0.0725351,-0.530562,0.0951233,-0.00112152
-0.160865,-0.169123,-0.817323,-0.0836571,0.155135,-0.470376,0.0951233,-0.00112152
0.00889464,0.110273,-0.559304,-0.0786051,0.169386,-0.366937,0.0951233,-0.00112152
0.178264,0.330274,-0.172548,-0.0664315,0.14132,-0.222898,0.0951233,-0.00112152
0.289711,0.294003,0.120148,-0.0673967,0.110815,-0.110456,0.0951233,-0.00112152
0.426755,0.0488858,0.152973,-0.0600252,0.112568,-0.0457751,0.0951233,-0.00112152
0.63744,-0.273686,-0.0336831,-0.0585574,0.118896,0.00323254,0.0951233,-0.00112152
0.773397,-0.528772,-0.284467,-0.0623742,0.128635,0.049006,0.0951233,-0.00112152
0.709452,-0.652303,-0.477611,-0.0603948,0.142959,0.0911356,0.0951233,-0.00112152
0.54937,-0.60157,-0.55579,-0.0538197,0.15985,0.111452,0.0951233,-0.00112152
0.444428,-0.399775,-0.516841,-0.0525315,0.167943,0.124216,0.0951233,-0.00112152
0.444428,-0.399775,-0.516841,-0.0525315,0.167943,0.124216,0.100403,-0.0011673
0.344877,-0.0498645,-0.418994,-0.0526368,0.169617,0.147177,0.100403,-0.0011673
0.323274,0.353758,-0.308362,-0.0506482,0.167912,0.193944,0.100403,-0.0011673
0.384765,0.513349,-0.203988,-0.0348517,0.137523,0.239736,0.100403,-0.0011673
0.490997,0.474245,-0.1528,-0.0162434,0.119687,0.290597,0.100403,-0.0011673
0.58411,0.261445,-0.144369,-0.010157,0.0976259,0.31847,0.100403,-0.0011673
0.597465,0.00631521,-0.171653,0.00255264,0.0809958,0.334131,0.100403,-0.0011673
0.604916,-0.24134,-0.221792,0.00144903,0.0690481,0.329335,0.100403,-0.0011673
0.578284,-0.425539,-0.306599,0.0116471,0.0620154,0.297254,0.100403,-0.0011673
0.475818,-0.38242,-0.365275,0.00647703,0.0592353,0.283324,0.100403,-0.0011673
0.274962,-0.252463,-0.403106,-0.00346567,0.0514471,0.260089,0.100403,-0.0011673
0.0161478,-0.20278,-0.46277,-0.00469696,0.0373883,0.212579,0.100403,-0.0011673
-0.215281,-0.252384,-0.520517,0.00598874,0.0133672,0.152821,0.100403,-0.0011673
-0.3886,-0.308197,-0.557239,0.00931028,0.00443374,0.0809075,0.100403,-0.0011673
-0.516888,-0.27369,-0.532128,0.0126239,-0.000392452,0.0230085,0.100403,-0.0011673
-0.568144,-0.110376,-0.44767,0.0117798,-0.00644755,-0.0185211,0.100403,-0.0011673
-0.520945,0.0208888,-0.32703,0.0142221,-0.0202559,-0.0547666,0.100403,-0.0011673
-0.39081,0.0616026,-0.175587,0.0155998,-0.0409077,-0.0615995,0.100403,-0.0011673
-0.249969,-0.104379,-0.0294644,0.0103597,-0.0730743,-0.0471446,0.100403,-0.0011673
-0.144841,-0.291665,0.059276,0.00411271,-0.102923,-0.0139097,0.100403,-0.0011673
-0.101941,-0.376112,0.104764,-0.0018102,-0.139724,0.0344679,0.100403,-0.0011673
-0.126062,-0.371953,0.0978703,-0.00650314,-0.157217,0.0682111,0.100403,-0.0011673
-0.176798,-0.399548,0.0502246,-0.000349859,-0.167132,0.0781019,0.100403,-0.0011673
-0.213988,-0.387557,-0.0201903,0.00885693,-0.167913,0.0725038,0.100403,-0.0011673
-0.234102,-0.320346,-0.0699287,0.0205607,-0.167071,0.0623885,0.100403,-0.0011673
-0.23028,-0.263823,-0.1047,0.0295177,-0.158977,0.0421581,0.100403,-0.0011673
-0.223352,-0.306483,-0.131726,0.0373466,-0.155983,0.00972176,0.100403,-0.0011673
-0.234373,-0.345333,-0.211266,0.0260837,-0.142134,-0.0100392,0.100403,-0.0011673
-0.240747,-0.308849,-0.38321,0.00600423,-0.136332,-0.0337639,0.100403,-0.0011673
-0.214354,-0.266003,-0.626978,-0.00420182,-0.140988,-0.0458184,0.100403,-0.0011673
-0.0480383,-0.381043,-0.764099,0.0218346,-0.1333,-0.0794174,0.100403,-0.0011673
-0.00824398,-0.37036,-0.713704,0.0285797,-0.165355,-0.0799627,0.100403,-0.0011673
-0.509375,-0.300254,-0.825122,-0.00731023,-0.0971674,-0.101228,0.100403,-0.0011673
-0.904265,-0.065015,-1.13277,-0.0716661,0.0451555,-0.192117,0.100403,-0.0011673
-0.877118,0.0592761,-1.41915,-0.0907244,0.157836,-0.353463,0.100403,-0.0011673
-0.634175,0.0796891,-1.40218,-0.0760547,0.263618,-0.416969,0.100403,-0.0011673
-0.36248,0.465677,-0.906409,-0.0283297,0.244939,-0.320462,0.100403,-0.0011673
-0.225955,0.873733,-0.153766,0.0154327,0.149146,-0.189088,0.100403,-0.0011673
-0.219019,0.942026,0.385308,0.047578,0.0921589,-0.100225,0.100403,-0.0011673
-0.23416,0.551212,0.460152,0.0839531,0.0845075,-0.0868281,0.100403,-0.0011673
-0.152478,0.0420799,0.288759,0.0914417,0.0791965,-0.0959258,0.100403,-0.0011673
-0.0370318,-0.15737,0.274689,0.0286114,0.0658601,-0.0630808,0.100403,-0.0011673
0.0513524,-0.103889,0.383656,0.00136822,0.0766014,-0.0202149,0.100403,-0.0011673
0.182878,0.0987114,0.544047,-0.00463867,0.057715,0.0370205,0.100403,-0.0011673
0.310496,0.191037,0.644913,-0.00849889,0.0421499,0.0987834,0.100403,-0.0011673
0.347696,0.251242,0.617011,-0.000631856,0.0339416,0.160897,0.100403,-0.0011673
0.423909,0.194006,0.575251,-0.0130315,0.0266386,0.198325,0.100403,-0.0011673
0.524315,0.0878386,0.545523,-0.00970477,0.019682,0.209751,0.100403,-0.0011673
0.56879,0.0115491,0.49585,-0.000668915,0.0165512,0.216628,0.100403,-0.0011673
0.56879,0.0115491,0.49585,-0.000668915,0.0165512,0.216628,0.158539,-0.00187683
0.590266,-0.130606,0.389626,0.0127042,0.0176505,0.193277,0.158539,-0.00187683
0.603143,-0.267657,0.235687,0.0344332,0.0198044,0.14982,0.158539,-0.00187683
0.463927,-0.171571,0.0884005,0.037815,0.0163301,0.149259,0.158539,-0.00187683
0.255515,-0.0771994,-0.0307706,0.0540675,0.0110882,0.123052,0.158539,-0.00187683
0.0438664,-0.0287822,-0.0833083,0.0816076,0.00570216,0.0899875,0.158539,-0.00187683
-0.0231485,-0.189798,-0.078969,0.111891,0.0175838,0.0475073,0.158539,-0.00187683
0.0638741,-0.489061,-0.0767162,0.107961,0.0158351,-0.0243701,0.158539,-0.00187683
0.399663,-0.906937,-0.165908,0.146665,0.0409601,-0.027907,0.158539,-0.00187683
0.603561,-1.32972,-0.189372,0.148209,0.0133412,-0.0166053,0.158539,-0.00187683
0.534323,-1.40252,-0.14818,0.146792,-0.0137702,0.0892062,0.158539,-0.00187683
0.274863,-1.01295,-0.0165405,0.120432,-0.0484783,0.117817,0.158539,-0.00187683
0.0667728,-0.303913,0.146033,0.0881024,-0.0617848,0.112232,0.158539,-0.00187683
-0.0755268,0.213446,0.300383,0.0378,-0.0710531,0.0728183,0.158539,-0.00187683
-0.109325,0.370469,0.358172,0.019054,-0.0788794,0.0357615,0.158539,-0.00187683
-0.00176443,0.279502,0.341452,0.0205423,-0.0888774,-0.000648558,0.158539,-0.00187683
0.111151,0.256732,0.354598,0.0099508,-0.0825882,0.0129744,0.158539,-0.00187683
0.117968,0.35965,0.364361,0.0160401,-0.0990695,0.0528314,0.158539,-0.00187683
0.00552902,0.543215,0.338342,0.0383145,-0.127008,0.098316,0.158539,-0.00187683
-0.153703,0.714465,0.338402,0.0714105,-0.14976,0.0916428,0.158539,-0.00187683
-0.201456,0.832806,0.337886,0.0922138,-0.162718,0.0403228,0.158539,-0.00187683
-0.121696,0.489741,0.334747,0.0976402,-0.140263,-0.118459,0.158539,-0.00187683
0.179318,0.0258794,0.301207,0.0849321,-0.0972776,-0.211556,0.158539,-0.00187683
0.569414,-0.3056,0.289251,0.0722459,-0.0548919,-0.284675,0.158539,-0.00187683
0.824794,-0.469015,0.34212,0.0378873,-0.0178732,-0.302364,0.158539,-0.00187683
0.77167,-0.491361,0.378899,-0.0168575,0.0443384,-0.317068,0.158539,-0.00187683
0.467281,0.0540057,0.477468,-0.0559283,0.0700795,-0.252132,0.158539,-0.00187683
0.164922,0.573076,0.675133,-0.0749312,0.0571545,-0.251967,0.158539,-0.00187683
-0.0237603,0.404361,0.77362,-0.0629985,0.0453105,-0.317989,0.158539,-0.00187683
-0.0566957,0.119218,0.650682,-0.0804158,0.0500073,-0.335451,0.158539,-0.00187683
0.0229769,0.0125233,0.252764,-0.0710695,0.0776324,-0.322569,0.158539,-0.00187683
0.0774058,0.127592,-0.042271,-0.133087,0.0689828,-0.281706,0.158539,-0.00187683
0.177866,0.445954,-0.232414,-0.126937,0.0741922,-0.158089,0.158539,-0.00187683
0.285495,0.537676,-0.333423,-0.0974221,0.0687088,-0.0972737,0.158539,-0.00187683
0.401176,0.318244,-0.349998,-0.0781127,0.0604749,-0.0162038,0.158539,-0.00187683
0.504996,-0.0219901,-0.336372,-0.0493346,0.0477584,0.0282826,0.158539,-0.00187683
0.537058,-0.112983,-0.280869,-0.0405072,0.0419921,0.0842463,0.158539,-0.00187683
0.539542,0.00572649,-0.224385,-0.0692613,0.0431527,0.112502,0.158539,-0.00187683
0.435547,0.131137,-0.243542,-0.0849349,0.0311276,0.126017,0.158539,-0.00187683
0.264441,0.225042,-0.287985,-0.0613578,-0.00675189,0.141738,0.158539,-0.00187683
0.147716,0.227756,-0.380682,-0.058258,0.0622749,0.184119,0.158539,-0.00187683
0.0129233,0.344168,-0.310998,-0.0770715,0.0490569,0.194139,0.158539,-0.00187683
-0.00617539,0.423553,-0.153722,-0.12559,0.0458576,0.152866,0.158539,-0.00187683
0.0664124,0.352174,0.0412925,-0.123701,0.0368484,0.131228,0.158539,-0.00187683
0.234309,0.289231,0.122701,-0.0810955,0.0407469,0.195087,0.158539,-0.00187683
0.359175,0.00561666,0.0669068,-0.0407201,0.0460486,0.213412,0.158539,-0.00187683
0.396909,-0.0746412,-0.0407267,-0.0387317,0.0501093,0.270671,0.158539,-0.00187683
0.329526,0.0132132,-0.133331,-0.0641941,0.0366025,0.305467,0.158539,-0.00187683
0.216244,0.165256,-0.203528,-0.0644645,0.0329823,0.322516,0.158539,-0.00187683
0.216244,0.165256,-0.203528,-0.0644645,0.0329823,0.322516,0.161194,-0.00191498
0.0707858,0.233259,-0.219744,-0.0393526,0.0154064,0.313615,0.161194,-0.00191498
-0.0492277,0.23663,-0.22099,-0.0258447,0.000237823,0.274214,0.161194,-0.00191498
-0.11624,0.166908,-0.252032,-0.0184291,-0.0102446,0.217667,0.161194,-0.00191498
-0.1368,0.0960256,-0.320771,-0.00102057,-0.0134185,0.149664,0.161194,-0.00191498
-0.133832,-0.0110525,-0.340431,0.0218206,-0.00422293,0.0738328,0.161194,-0.00191498
-0.176384,-0.07701,-0.277331,0.0396676,-0.00749981,0.0329359,0.161194,-0.00191498
-0.228223,-0.00918419,-0.146666,0.0491639,-0.00737411,0.0170809,0.161194,-0.00191498
-0.34351,0.0817735,0.0053146,0.0509766,-0.0191625,0.00146544,0.161194,-0.00191498
-0.420053,-0.00603888,0.0479026,0.0680956,-0.0192346,-0.0398234,0.161194,-0.00191498
-0.369393,-0.146678,0.0651844,0.0819939,-0.0120901,-0.0613041,0.161194,-0.00191498
-0.272234,-0.189436,0.145296,0.0846822,-0.0200329,-0.066664,0.161194,-0.00191498
-0.16835,-0.198593,0.276815,0.0832699,-0.0324123,-0.051745,0.161194,-0.00191498
-0.122773,-0.191592,0.375,0.0625466,-0.0508963,-0.0294899,0.161194,-0.00191498
-0.130219,-0.173891,0.373022,0.0438341,-0.0681674,-0.008771,0.161194,-0.00191498
-0.149771,-0.0945135,0.323427,0.0271506,-0.0843404,0.0137073,0.161194,-0.00191498
-0.158255,-0.00877662,0.288542,0.0180905,-0.0988045,0.0293875,0.161194,-0.00191498
-0.146343,0.0242756,0.284322,0.0092661,-0.103035,0.0431769,0.161194,-0.00191498
-0.120713,0.0379327,0.311149,0.00669812,-0.11174,0.0527098,0.161194,-0.00191498
-0.100346,0.0357075,0.332892,0.00477325,-0.118968,0.0550546,0.161194,-0.00191498
-0.123824,0.0280421,0.340829,0.0104463,-0.128056,0.043868,0.161194,-0.00191498
-0.20409,0.0632642,0.331311,0.0220737,-0.138672,0.0145372,0.161194,-0.00191498
-0.323424,0.0628463,0.292778,0.0126376,-0.144579,-0.0488284,0.161194,-0.00191498
-0.336101,0.0779887,0.245083,0.0183334,-0.125913,-0.125839,0.161194,-0.00191498
-0.227818,0.174136,0.295911,0.00545846,-0.120185,-0.187841,0.161194,-0.00191498
-0.124415,0.167959,0.364802,-0.00143515,-0.118501,-0.233316,0.161194,-0.00191498
-0.124621,0.11135,0.362145,-0.012104,-0.103101,-0.256178,0.161194,-0.00191498
-0.217974,0.0307495,0.292603,-0.0153989,-0.0994546,-0.280269,0.161194,-0.00191498
-0.357279,-0.110016,0.170017,-0.0512505,-0.0539946,-0.336214,0.161194,-0.00191498
-0.376854,0.0552421,0.0770378,-0.0819304,0.0131551,-0.36764,0.161194,-0.00191498
-0.235966,0.357791,0.144339,-0.077719,0.0351597,-0.319723,0.161194,-0.00191498
-0.0520352,0.536522,0.353014,-0.0535634,0.0295686,-0.206865,0.161194,-0.00191498
0.108771,0.396368,0.481996,0.000136754,0.0250085,-0.119647,0.161194,-0.00191498
0.204232,0.102388,0.456672,0.036462,0.0330033,-0.0766969,0.161194,-0.00191498
0.28014,-0.0586992,0.327713,0.0394593,0.0532466,-0.0476788,0.161194,-0.00191498
0.35857,-0.0615251,0.26277,0.0275244,0.0823021,-0.040587,0.161194,-0.00191498
0.523628,0.0570652,0.229642,0.0156372,0.0948027,0.00353956,0.161194,-0.00191498
0.68531,-0.008905,0.23067,0.0211064,0.118812,0.0317268,0.161194,-0.00191498
0.725816,-0.136226,0.246195,0.0299059,0.104625,0.0713114,0.161194,-0.00191498
0.632155,-0.0933297,0.19304,0.0259874,0.114854,0.126182,0.161194,-0.00191498
0.550352,0.0364866,0.106778,0.00621245,0.10279,0.191655,0.161194,-0.00191498
0.443608,0.172676,0.0109399,-0.00596801,0.0963549,0.22932,0.161194,-0.00191498
0.326027,0.300324,-0.0794551,-0.00233686,0.0923917,0.266667,0.161194,-0.00191498
0.242812,0.350811,-0.139006,0.0189754,0.0918844,0.278897,0.161194,-0.00191498
0.239526,0.253613,-0.166145,0.0421641,0.0914776,0.281011,0.161194,-0.00191498
0.229306,-0.0542503,-0.14095,0.0571769,0.0841824,0.287587,0.161194,-0.00191498
0.198456,-0.563548,-0.126478,0.0721139,0.085649,0.272817,0.161194,-0.00191498
0.0675174,-0.510155,-0.0813811,0.0588683,0.0876896,0.207309,0.161194,-0.00191498
-0.0441078,0.00226975,-0.165644,0.00427605,0.0731651,0.218248,0.161194,-0.00191498
-0.0441078,0.00226975,-0.165644,0.00427605,0.0731651,0.218248,0.126831,-0.00149536
-0.121302,0.104433,-0.23758,-0.0448955,0.0792517,0.143817,0.126831,-0.00149536
-0.182785,0.104812,-0.139329,-0.0574077,0.023119,0.144859,0.126831,-0.00149536
