rotationRate_x,rotationRate_y,rotationRate_z,acceleration_x,acceleration_y,acceleration_z,relativeAltitude
0.017952,-0.059157,1.59359,0.0989216,0.165754,0.115106,1.89983
0.314533,-0.203622,1.61822,0.043644,0.117521,0.0357126,1.89983
0.441115,0.125824,1.48229,-0.0672897,0.0570554,-0.0170225,1.89983
0.289518,0.288906,1.24859,-0.103488,0.00438523,0.0602766,1.89983
0.0272123,0.298567,0.981051,-0.0907777,-0.04599,0.119049,1.89983
-0.147804,0.308334,0.758955,-0.0352007,-0.0681663,0.0937924,1.89983
-0.15045,0.423375,0.694125,0.0383127,-0.0505735,0.00257277,1.89983
0.0359392,0.477831,0.70384,0.101091,-0.0419054,-0.0772431,1.89983
0.245533,0.38745,0.71106,0.159427,-0.0464578,-0.0889633,1.89983
0.32016,0.328629,0.767968,0.206427,-0.0495191,-0.0699745,1.89983
0.320882,0.323028,0.83987,0.245173,-0.0702362,-0.0560004,1.89983
0.299713,0.272195,0.843805,0.226973,-0.0418061,-0.0522534,1.89983
0.28203,0.256843,0.9002,0.19451,0.0608444,-0.0586013,1.89983
0.354748,0.265832,1.05613,0.194782,0.158426,-0.0723527,1.89983
0.316227,0.416734,1.17695,0.156342,0.214613,-0.0501238,1.89983
0.130893,0.485155,1.27785,0.105249,0.24353,0.0263901,1.89983
-0.0534052,0.424806,1.32449,0.0678202,0.232019,0.0823355,1.89983
-0.14425,0.338623,1.34709,0.0424801,0.201793,0.0898764,1.89983
-0.17656,0.292587,1.34706,0.0203827,0.167069,0.0905017,1.89983
-0.246272,0.287852,1.31699,0.00201421,0.125189,0.108633,1.89983
-0.36613,0.250398,1.29623,-0.00163426,0.0672803,0.137686,1.89983
-0.477881,0.196487,1.2535,-0.00882827,0.0230802,0.146138,1.89983
-0.527989,0.151606,1.1706,-0.0284402,-0.0173246,0.115938,1.89983
-0.532562,0.109614,1.04993,-0.0522792,-0.0464839,0.081197,1.89983
-0.525097,0.109788,0.896528,-0.0647711,-0.0641452,0.0579849,1.89983
-0.55448,0.102399,0.752478,-0.0558226,-0.0825535,0.0564007,1.89983
-0.584139,0.108226,0.640379,-0.0359439,-0.089383,0.0454966,1.89983
-0.502692,0.108937,0.567185,-0.0135925,-0.078698,0.00615263,1.89983
-0.361205,0.095604,0.519778,0.016615,-0.0706184,-0.0262047,1.89983
-0.26834,0.0495079,0.526569,0.0498189,-0.0646005,-0.0341345,1.89983
-0.179255,0.0333362,0.60372,0.0759411,-0.0510399,-0.046876,1.89983
-0.0600423,-0.00335669,0.685702,0.0876936,-0.0524443,-0.0733123,1.89983
0.0768749,0.0261023,0.71449,0.0603721,-0.0712155,-0.112328,1.89983
0.143797,0.0345409,0.689323,0.0376228,-0.109485,-0.131295,1.89983
0.0417343,-0.0928865,0.602575,0.0133615,-0.118798,-0.104296,1.89983
-0.23013,-0.286829,0.436891,-0.0510708,-0.0892533,-0.103408,1.89983
-0.336493,-0.224995,0.336841,-0.0305626,-0.102457,-0.226111,1.89983
-0.178065,0.05599,0.388325,0.00353877,-0.0563818,-0.365886,1.89983
0.173444,0.279001,0.560606,0.0452814,-0.0149444,-0.409178,1.89983
0.484643,0.310523,0.65329,0.0420472,-0.0202907,-0.321244,1.89983
0.579001,0.241418,0.575423,-0.0144217,-0.0430255,-0.166616,1.89983
0.474719,0.293223,0.40427,-0.0589611,-0.0514213,-0.0372449,1.89983
0.294643,0.321714,0.23616,-0.0472777,-0.0283456,0.060102,1.89983
0.171883,0.332595,0.182138,-0.00742052,0.022505,0.0953508,1.89983
0.168454,0.34195,0.19036,0.0234174,0.0703579,0.101569,1.89983
0.243132,0.367051,0.171723,0.0315803,0.0911174,0.0958281,1.89983
0.267919,0.364477,0.121778,0.0319389,0.105802,0.119017,1.89983
0.191224,0.370059,0.116826,0.0698232,0.135372,0.15563,1.89983
-0.0379561,0.516458,0.115786,0.0710746,0.172414,0.170336,1.89983
-0.307042,0.408577,0.225108,0.103144,0.208267,0.196458,1.89983
-0.399286,0.107565,0.371563,0.14718,0.222708,0.156875,1.89983
-0.374534,-0.132325,0.54494,0.161786,0.255381,0.0880379,1.89983
-0.374534,-0.132325,0.54494,0.161786,0.255381,0.0880379,0
-0.412716,-0.200906,0.743336,0.139283,0.277377,0.0251679,0
-0.449293,-0.0534666,0.975089,0.113598,0.253611,-0.0486603,0
-0.326905,0.260605,1.22015,0.064516,0.218097,-0.122477,0
-0.145448,0.457337,1.34463,-0.0382978,0.162478,-0.0998093,0
-0.096889,0.43851,1.34966,-0.109494,0.0614449,0.0206427,0
-0.193069,0.350126,1.28652,-0.17026,-0.0242762,0.113962,0
-0.342265,0.253704,1.11095,-0.247439,-0.0942666,0.160725,0
-0.453343,0.168765,0.834913,-0.29197,-0.165964,0.153165,0
-0.49044,0.0680486,0.580284,-0.287645,-0.195111,0.131411,0
-0.452242,-0.0208836,0.459355,-0.24596,-0.191364,0.0996941,0
-0.400709,-0.0967872,0.444351,-0.202667,-0.176873,0.0775939,0
-0.358223,-0.0823363,0.416088,-0.194725,-0.17903,0.0577313,0
-0.360018,-0.107558,0.304026,-0.202739,-0.19865,0.0533524,0
-0.33098,-0.0759818,0.141411,-0.207946,-0.225848,0.0263965,0
-0.307075,-0.0450047,-0.000702269,-0.178812,-0.22039,0.00710922,0
-0.259241,-0.0341038,-0.0780848,-0.123749,-0.204024,-0.00416172,0
-0.163579,-0.0625379,-0.113447,-0.0763223,-0.181029,-0.0258359,0
-0.0345294,-0.0272285,-0.125914,-0.0353697,-0.157794,-0.0573633,0
0.056922,0.0643307,-0.112471,-0.00948951,-0.139027,-0.081141,0
0.137476,0.167727,-0.105719,0.00315252,-0.12585,-0.100733,0
0.227337,0.207856,-0.11733,0.0114732,-0.114355,-0.117782,0
0.252816,0.145339,-0.134545,0.0170601,-0.0939447,-0.117737,0
0.225132,0.107608,-0.128135,0.0467429,-0.0856844,-0.137667,0
0.119873,0.122893,-0.0720638,0.0739933,-0.0628889,-0.179593,0
-0.0294515,0.161747,-0.0432756,0.0599119,-0.0511762,-0.229738,0
-0.22778,0.0503664,-0.158884,-0.00871618,-0.0576048,-0.274225,0
-0.474345,-0.178276,-0.296857,-0.026536,-0.0630612,-0.327152,0
-0.609759,-0.210463,-0.354325,0.000423409,-0.0328154,-0.434457,0
-0.551859,0.0797714,-0.239386,0.0694625,-0.00481284,-0.542381,0
-0.287055,0.441253,0.00482929,0.132956,-0.0115422,-0.579818,0
0.151411,0.588019,0.182202,0.129077,-0.0244932,-0.510264,0
0.593096,0.513397,0.293197,0.0872017,-0.0260517,-0.339936,0
0.929313,0.345032,0.304614,0.0308513,-0.000802234,-0.144428,0
1.0126,0.167887,0.151915,-0.0537121,0.04725,0.0298433,0
0.854183,0.00134042,-0.106687,-0.127797,0.107311,0.160708,0
0.578313,-0.172182,-0.358328,-0.148335,0.186246,0.230243,0
0.351367,-0.235115,-0.47755,-0.104523,0.264535,0.2238,0
0.216026,-0.198323,-0.413851,-0.0122548,0.331395,0.203872,0
0.151738,-0.0888097,-0.196375,0.0673722,0.366566,0.193548,0
0.136913,-0.0205403,0.0374185,0.125752,0.322195,0.202635,0
0.152669,0.00852394,0.207657,0.132129,0.221611,0.207206,0
0.235017,0.00564492,0.271473,0.0946867,0.127283,0.210787,0
0.272752,-0.041717,0.152032,0.0448497,0.053564,0.232433,0
0.195242,-0.0695552,0.0207068,0.0327578,0.0290073,0.261671,0
0.0821721,-0.0429551,-0.00787554,0.0461423,0.0677881,0.267934,0
0.0238953,-0.0222736,0.0583092,0.0740973,0.132267,0.248686,0
0.0455213,-0.00290251,0.121858,0.0588112,0.175387,0.217819,0
0.0166533,-0.0806121,0.158035,0.0507517,0.178207,0.219517,0
-0.0549928,-0.17433,0.213396,0.0645139,0.153543,0.217625,0
-0.14743,-0.229959,0.322633,0.0829049,0.138076,0.192864,0
-0.266197,-0.259803,0.461196,0.0988062,0.111139,0.160551,0
-0.266197,-0.259803,0.461196,0.0988062,0.111139,0.160551,0.0290527
-0.382144,-0.234108,0.527192,0.0790912,0.0570708,0.109536,0.0290527
-0.397026,-0.152817,0.536158,0.0418091,-0.013426,0.0355454,0.0290527
-0.335022,-0.0987364,0.482098,0.00165985,-0.06878,-0.0120188,0.0290527
-0.24821,-0.0148907,0.377669,-0.0251552,-0.114594,-0.0231023,0.0290527
-0.226301,0.00722447,0.243418,-0.0286217,-0.141956,0.0108655,0.0290527
-0.323756,-0.0351008,0.0685284,-0.0169732,-0.155034,0.0642884,0.0290527
-0.538907,0.00966899,-0.0682746,0.0236792,-0.152557,0.0915464,0.0290527
-0.734568,0.0618717,-0.103138,0.071552,-0.132155,0.0651053,0.0290527
-0.78352,0.0309753,-0.0999938,0.10618,-0.105659,-0.0223799,0.0290527
-0.744761,-0.227173,-0.0769957,0.135322,-0.0828321,-0.114812,0.0290527
-0.669069,-0.644393,0.0188661,0.17451,-0.0522709,-0.238288,0.0290527
-0.646572,-0.736777,0.158331,0.151163,-0.000721902,-0.422004,0.0290527
-0.644714,-0.253431,0.207032,0.0549267,0.0364894,-0.605623,0.0290527
-0.680559,0.406658,0.125923,-0.0388385,0.0581198,-0.678838,0.0290527
-0.782276,0.670568,0.0157564,-0.0563665,0.0467034,-0.598173,0.0290527
-0.728846,0.425762,0.0185727,0.0108469,0.0222983,-0.509039,0.0290527
-0.389956,0.0413459,0.0991473,0.0689816,0.0295195,-0.500157,0.0290527
0.146008,0.0294598,0.231947,0.0911919,0.0455094,-0.497062,0.0290527
0.542799,0.395998,0.326923,0.0682672,0.0576798,-0.413527,0.0290527
0.729386,0.800122,0.381994,0.0204487,0.0586,-0.227603,0.0290527
0.762203,1.02287,0.375057,-0.0272178,0.0477465,-0.0389534,0.0290527
0.729691,0.984439,0.405021,-0.0547577,0.0542385,0.116521,0.0290527
0.694868,0.71991,0.441439,-0.0987706,0.0884678,0.210796,0.0290527
0.625827,0.299694,0.454921,-0.140932,0.105489,0.263601,0.0290527
0.576805,-0.0582408,0.388692,-0.18737,0.0846597,0.269062,0.0290527
0.568011,-0.112752,0.295032,-0.196916,0.0627602,0.221187,0.0290527
0.574799,0.0194938,0.262221,-0.182658,0.0719496,0.193062,0.0290527
0.570799,0.193489,0.235544,-0.17763,0.0929359,0.219663,0.0290527
0.529659,0.380994,0.177998,-0.173317,0.0643624,0.259208,0.0290527
0.53342,0.450745,0.104218,-0.16459,0.0614783,0.324707,0.0290527
0.536532,0.384174,0.0277972,-0.13497,0.0638668,0.383697,0.0290527
0.435536,0.229998,-0.0442453,-0.0909652,0.0667271,0.452299,0.0290527
0.237128,0.0673022,-0.055716,-0.0360788,0.0601413,0.481043,0.0290527
0.0551496,-0.0519922,-0.0172935,-0.000337072,0.0770962,0.451651,0.0290527
-0.0959676,-0.0748951,-0.0439168,-0.0315685,0.0973187,0.38281,0.0290527
-0.264556,-0.0899,-0.134308,-0.0385934,0.0793888,0.323474,0.0290527
-0.456318,-0.0500463,-0.230484,-0.00991311,0.0545583,0.260305,0.0290527
-0.626408,0.0548087,-0.25184,0.0302232,0.0552495,0.192101,0.0290527
-0.782383,0.148868,-0.138369,0.0834066,0.0618727,0.143828,0.0290527
-0.989349,0.168206,-0.0196965,0.112642,0.0255014,0.111743,0.0290527
-1.11327,0.0672935,0.0238309,0.0852061,-0.0344523,0.0390753,0.0290527
-1.01748,-0.157268,0.0033246,0.0418144,-0.0809449,-0.0829597,0.0290527
-0.741208,-0.321522,0.0100738,0.039985,-0.102622,-0.217976,0.0290527
-0.503202,-0.240895,0.0974748,0.0570024,-0.113003,-0.302949,0.0290527
-0.357265,0.0480466,0.191983,0.044742,-0.128504,-0.34837,0.0290527
-0.231957,0.330121,0.210877,-0.00415847,-0.14993,-0.372936,0.0290527
-0.0833022,0.450649,0.145965,-0.0384648,-0.197821,-0.379668,0.0290527
0.107343,0.515064,0.0874982,-0.0636495,-0.207036,-0.391097,0.0290527
0.245923,0.497314,0.09297,-0.0808095,-0.181304,-0.371252,0.0290527
0.300539,0.363462,0.201724,-0.0739621,-0.17588,-0.332267,0.0290527
0.300539,0.363462,0.201724,-0.0739621,-0.17588,-0.332267,0.0581207
0.342987,0.227036,0.238183,-0.123206,-0.170896,-0.333936,0.0581207
0.354487,0.109506,0.0514832,-0.208442,-0.179336,-0.340962,0.0581207
0.210109,0.0179929,-0.272434,-0.240246,-0.182419,-0.305657,0.0581207
-0.00743826,0.0188678,-0.603075,-0.221181,-0.166798,-0.298086,0.0581207
-0.0624662,0.121871,-0.735876,-0.106712,-0.127957,-0.338672,0.0581207
0.163199,0.161291,-0.626315,0.0285214,-0.0543234,-0.36344,0.0581207
0.690359,0.235062,-0.430607,0.0845811,-0.00893348,-0.35947,0.0581207
1.19877,0.233023,-0.333503,0.0595861,0.0558759,-0.226429,0.0581207
1.45127,0.22097,-0.356783,0.0177004,0.106287,-0.0258742,0.0581207
1.41859,0.303951,-0.392281,0.01401,0.161779,0.153862,0.0581207
1.15372,0.376349,-0.376005,0.0404618,0.227022,0.28564,0.0581207
0.806964,0.396479,-0.244187,0.0680207,0.308377,0.34799,0.0581207
0.512906,0.187182,-0.102016,0.0706809,0.371161,0.369032,0.0581207
0.367566,-0.170863,0.0463674,0.092428,0.363366,0.344314,0.0581207
0.290624,-0.36057,0.17858,0.103801,0.333984,0.282785,0.0581207
0.272977,-0.316898,0.303106,0.0915945,0.296451,0.218009,0.0581207
0.432035,-0.343952,0.489336,0.0881399,0.274344,0.175388,0.0581207
0.602962,-0.307136,0.584056,0.0587992,0.235683,0.160977,0.0581207
0.631429,-0.10468,0.650259,0.0289817,0.196915,0.192298,0.0581207
0.510696,0.190736,0.611775,-0.043592,0.164857,0.24856,0.0581207
0.350927,0.36161,0.420846,-0.123853,0.107002,0.287734,0.0581207
0.186518,0.234109,0.112507,-0.137121,0.0407217,0.323176,0.0581207
-0.00721444,0.0624375,-0.215668,-0.100437,-0.0152344,0.327536,0.0581207
-0.32415,-0.0457035,-0.467716,-0.0334157,-0.0181141,0.332519,0.0581207
-0.737305,-0.0944846,-0.599511,0.0364272,0.0019902,0.317363,0.0581207
-1.03112,-0.16703,-0.606089,0.109828,0.0238158,0.238255,0.0581207
-1.07073,-0.301324,-0.501284,0.164657,0.049853,0.106922,0.0581207
-0.939812,-0.466801,-0.288135,0.216605,0.0583097,-0.0139135,0.0581207
-0.714558,-0.335139,-0.0369268,0.213128,0.0559947,-0.131864,0.0581207
-0.5288,-0.0303423,0.186006,0.192033,0.0297167,-0.176234,0.0581207
-0.396427,0.215807,0.350563,0.16545,-0.030781,-0.152857,0.0581207
-0.32387,0.252374,0.405389,0.118959,-0.0767079,-0.0724517,0.0581207
-0.295574,0.179159,0.414052,0.0860868,-0.11808,0.00311363,0.0581207
-0.320901,0.0564122,0.383356,0.0733759,-0.141455,0.0595743,0.0581207
-0.370732,-0.0195637,0.360334,0.0746581,-0.141022,0.0770296,0.0581207
-0.44688,-0.0897838,0.363482,0.0912123,-0.122782,0.0761184,0.0581207
-0.530674,-0.13358,0.397727,0.121078,-0.104816,0.0391927,0.0581207
-0.602428,-0.194396,0.469878,0.144238,-0.0839015,-0.0266693,0.0581207
-0.627151,-0.341931,0.516029,0.148784,-0.0910501,-0.107472,0.0581207
-0.63631,-0.426574,0.419847,0.0889267,-0.112475,-0.232015,0.0581207
-0.727394,-0.382523,0.305132,0.0725211,-0.122906,-0.337789,0.0581207
-0.845197,-0.0543492,0.237557,0.0685761,-0.1093,-0.447659,0.0581207
-1.02413,0.311781,0.156495,0.0450996,-0.0605403,-0.497019,0.0581207
-1.25325,0.487246,0.0447416,0.0187518,-0.0642708,-0.499346,0.0581207
-1.28663,0.219834,-0.0361525,-0.00624445,-0.0716562,-0.52788,0.0581207
-0.804239,-0.412439,-0.00314247,0.0290059,-0.0601296,-0.632651,0.0581207
0.109055,-0.566637,0.143752,0.0688167,-0.0110091,-0.770415,0.0581207
1.00397,-0.0395628,0.388439,0.0563788,0.0511375,-0.746798,0.0581207
1.46267,0.561085,0.497004,-0.0144998,0.0784639,-0.483878,0.0581207
1.41489,0.939605,0.365476,-0.105731,0.0386694,-0.13315,0.0581207
1.41489,0.939605,0.365476,-0.105731,0.0386694,-0.13315,0.187592
1.04363,0.955875,0.15238,-0.186308,0.0141014,0.143992,0.187592
0.70881,0.690465,-0.0140728,-0.220561,0.0296574,0.271576,0.187592
0.600703,0.369405,-0.105627,-0.219001,0.0590445,0.258078,0.187592
0.730294,0.0952499,-0.114219,-0.215323,0.109159,0.189777,0.187592
0.934024,-0.0909643,-0.043463,-0.175201,0.144224,0.159777,0.187592
1.10248,-0.104209,0.0566197,-0.158839,0.180161,0.166195,0.187592
1.16655,-0.0545517,0.106757,-0.164442,0.192352,0.210127,0.187592
1.11524,0.0854656,0.0969137,-0.175863,0.184161,0.26118,0.187592
1.00546,0.197411,0.0504398,-0.189564,0.194753,0.320939,0.187592
0.907381,0.199691,-0.0245652,-0.187806,0.203148,0.371397,0.187592
0.794273,0.0767018,-0.0943018,-0.156297,0.20311,0.414521,0.187592
0.644702,0.0156897,-0.187355,-0.157135,0.193912,0.425717,0.187592
0.40681,-0.105975,-0.247828,-0.0992278,0.188947,0.444236,0.187592
0.16685,-0.224869,-0.194039,-0.00794265,0.168505,0.432477,0.187592
-0.0182683,-0.186332,-0.119482,0.0231255,0.163001,0.378435,0.187592
-0.2132,-0.108242,-0.161476,0.0117919,0.120973,0.342911,0.187592
-0.565005,-0.278755,-0.248346,0.023223,0.0676651,0.37217,0.187592
-0.879306,-0.480063,-0.256473,0.0896076,0.0312087,0.32377,0.187592
-0.980032,-0.52783,-0.198509,0.109021,0.0416407,0.172112,0.187592
-1.0182,-0.434405,-0.140159,0.103615,0.0277207,0.0494762,0.187592
-0.993285,-0.283823,-0.0697444,0.0929412,-0.0108625,-0.0468112,0.187592
-0.844764,-0.156772,0.0188939,0.0899969,-0.0381934,-0.132553,0.187592
-0.605195,0.0387883,0.105149,0.0736993,-0.0534405,-0.190617,0.187592
-0.409422,0.15214,0.204389,0.0548332,-0.0754653,-0.185896,0.187592
-0.324387,0.1041,0.289069,0.0381238,-0.117025,-0.128394,0.187592
-0.273332,0.0816523,0.328169,-0.00734775,-0.162217,-0.116198,0.187592
-0.217346,0.094776,0.322655,-0.0381479,-0.199076,-0.129527,0.187592
-0.124816,0.103992,0.279812,-0.0659594,-0.233319,-0.153566,0.187592
-0.0251108,0.0211471,0.18594,-0.0777916,-0.259897,-0.161738,0.187592
0.040194,-0.102571,0.111465,-0.0646645,-0.267265,-0.166953,0.187592
0.0783428,-0.100429,0.0619555,-0.0504645,-0.250016,-0.18788,0.187592
0.000161233,0.000381276,0.0189723,-0.0384784,-0.204984,-0.186372,0.187592
-0.181589,0.0765532,-0.0461791,-0.0413855,-0.179935,-0.182308,0.187592
-0.341589,-0.0473628,-0.164294,-0.0613497,-0.149722,-0.191527,0.187592
-0.423235,-0.259795,-0.280913,-0.0565761,-0.100189,-0.23234,0.187592
-0.370328,-0.261002,-0.374972,-0.0373678,-0.0500904,-0.296868,0.187592
-0.274881,-0.0862159,-0.408541,-0.0314881,0.0246071,-0.331395,0.187592
-0.174201,0.150852,-0.371417,-0.022044,0.075243,-0.316404,0.187592
-0.00019296,0.269933,-0.303556,-0.0157827,0.100061,-0.265571,0.187592
0.342413,0.390965,-0.239517,-0.0346207,0.109809,-0.230188,0.187592
0.633626,0.483546,-0.228114,-0.0646563,0.141158,-0.117613,0.187592
0.722792,0.525902,-0.272431,-0.0887531,0.145372,0.0198859,0.187592
0.608724,0.430603,-0.356556,-0.112424,0.161534,0.15041,0.187592
0.380496,0.169699,-0.439942,-0.119854,0.200549,0.237248,0.187592
0.172912,-0.149835,-0.460131,-0.0877377,0.215399,0.256282,0.187592
0.13433,-0.393264,-0.367183,-0.0149903,0.204121,0.201296,0.187592
0.222797,-0.402783,-0.240364,0.0148673,0.203855,0.10905,0.187592
0.361957,-0.115948,-0.150048,0.0174893,0.171946,0.0577431,0.187592
0.420482,0.177426,-0.122337,-0.00406691,0.128774,0.0840968,0.187592
0.420753,0.217449,-0.157876,-0.0316705,0.0892827,0.168174,0.187592
0.404203,0.16664,-0.207392,-0.0270869,0.0646256,0.220509,0.187592
0.404203,0.16664,-0.207392,-0.0270869,0.0646256,0.220509,0.309143
0.349484,0.111525,-0.255097,-0.0331415,0.0665287,0.252118,0.309143
0.250029,0.121409,-0.319537,-0.0296863,0.0556681,0.273154,0.309143
0.00805079,-0.045494,-0.384015,-0.0069485,0.0456692,0.316986,0.309143
-0.345171,-0.236831,-0.415829,0.0421221,-0.00723055,0.320187,0.309143
-0.513004,-0.357342,-0.386448,0.0732583,-0.0181895,0.227188,0.309143
-0.471307,-0.390311,-0.358627,0.0853013,-0.0115669,0.10055,0.309143
-0.34084,-0.322498,-0.337506,0.097012,-0.023238,0.0172094,0.309143
-0.238556,-0.212934,-0.300281,0.119125,-0.0341285,-0.0171879,0.309143
-0.181929,-0.106296,-0.190445,0.149627,-0.0341265,-0.0162988,0.309143
-0.15204,-0.0380097,-0.0857015,0.15357,-0.0257379,0.00667375,0.309143
-0.164197,-0.0792014,-0.0223451,0.141253,-0.0356054,0.0417696,0.309143
-0.251568,-0.190265,-0.00127096,0.137051,-0.0536624,0.073318,0.309143
-0.370622,-0.274753,0.0382575,0.139737,-0.0621404,0.061606,0.309143
-0.42456,-0.27562,0.103813,0.140703,-0.0553666,-0.00230515,0.309143
-0.391131,-0.249293,0.146696,0.12503,-0.0599049,-0.0848895,0.309143
-0.376425,-0.270104,0.131862,0.102447,-0.0812702,-0.128931,0.309143
-0.375519,-0.310125,0.118982,0.123802,-0.115204,-0.169135,0.309143
-0.359739,-0.354481,0.169362,0.14032,-0.0934104,-0.241804,0.309143
-0.273187,-0.349338,0.266258,0.169473,-0.076798,-0.325393,0.309143
-0.180433,-0.273594,0.305082,0.159999,-0.0573849,-0.387292,0.309143
-0.248041,-0.254768,0.255597,0.131655,-0.0428271,-0.390416,0.309143
-0.460208,-0.237595,0.12179,0.10604,-0.0461997,-0.387453,0.309143
-0.644342,-0.210123,0.0257622,0.0945117,-0.0273166,-0.432116,0.309143
-0.633802,-0.233897,0.0479595,0.106316,0.00259656,-0.509957,0.309143
-0.313776,-0.284522,0.107638,0.0869934,0.0341673,-0.589368,0.309143
0.221753,0.0579711,0.155033,0.0427464,0.0496572,-0.637189,0.309143
0.673927,0.657679,0.239636,-0.00300716,0.0777731,-0.535171,0.309143
0.889414,0.987728,0.309135,-0.0596855,0.0985355,-0.263175,0.309143
0.969644,0.974897,0.288446,-0.133624,0.101246,-0.00639969,0.309143
0.965223,0.692867,0.22288,-0.214521,0.123351,0.184148,0.309143
0.926609,0.343188,0.177611,-0.247095,0.142097,0.29645,0.309143
0.859773,0.107514,0.116853,-0.269586,0.141694,0.347073,0.309143
0.777418,0.0735135,0.0724763,-0.272835,0.129757,0.36208,0.309143
0.661138,0.170049,0.00958072,-0.275847,0.121558,0.381662,0.309143
0.53254,0.151994,-0.0550745,-0.261354,0.0926331,0.419442,0.309143
0.434566,-0.0486182,-0.12002,-0.216886,0.0514657,0.447195,0.309143
0.370003,-0.246211,-0.174617,-0.168734,0.0379045,0.449703,0.309143
0.30159,-0.299075,-0.220704,-0.125157,0.0396305,0.413613,0.309143
0.20471,-0.333976,-0.282891,-0.106691,0.0562038,0.391396,0.309143
0.0547809,-0.479953,-0.335691,-0.0505617,0.046182,0.371683,0.309143
-0.13295,-0.550862,-0.375018,-0.000344068,0.0481778,0.294527,0.309143
-0.255873,-0.56383,-0.346474,0.0293292,0.0727011,0.175317,0.309143
-0.269485,-0.5536,-0.297402,0.0602614,0.0959415,0.0522724,0.309143
-0.21394,-0.490537,-0.193489,0.0942809,0.105974,-0.0387249,0.309143
-0.220082,-0.418337,-0.023877,0.117601,0.130051,-0.070308,0.309143
-0.220295,-0.324671,0.155066,0.109082,0.116047,-0.0922768,0.309143
-0.154999,-0.15343,0.223001,0.0441487,0.0828552,-0.123506,0.309143
-0.0579046,0.0426987,0.174473,-0.0253505,0.018139,-0.115209,0.309143
-0.0335006,0.147885,0.100594,-0.0469163,-0.0334105,-0.0350372,0.309143
-0.0886888,0.125525,0.0461382,-0.0445683,-0.0639729,0.0583137,0.309143
-0.163104,0.00214778,0.0249174,-0.0347663,-0.0934587,0.115461,0.309143
-0.203138,-0.120092,-0.00653121,-0.0418238,-0.108627,0.114312,0.309143
-0.1659,-0.13433,-0.0363748,-0.0627688,-0.111997,0.0671597,0.309143
-0.0810496,-0.0782799,-0.0581554,-0.0633855,-0.116172,0.0203287,0.309143
-0.0561059,-0.0785074,-0.0702873,-0.0373361,-0.124764,0.0189996,0.309143
-0.036254,-0.113102,-0.0648184,-0.020744,-0.134033,-0.00590092,0.309143
0.00793679,-0.154689,-0.0936879,-0.0192544,-0.13613,-0.0556529,0.309143
0.012574,-0.14768,-0.133968,0.000582628,-0.151936,-0.0970678,0.309143
0.0148137,-0.0545853,-0.220147,0.00243852,-0.178873,-0.148581,0.309143
0.0651626,0.00719139,-0.317179,0.0310371,-0.203149,-0.19892,0.309143
0.120348,0.0558768,-0.35644,0.0425204,-0.177984,-0.249298,0.309143
0.133402,0.0304793,-0.349264,0.0517587,-0.126225,-0.271102,0.309143
0.107209,-0.0764594,-0.306922,0.0765956,-0.106308,-0.293246,0.309143
0.07471,-0.153879,-0.268256,0.0728023,-0.075299,-0.333594,0.309143
0.125839,-0.0376969,-0.201493,0.0641876,-0.0407251,-0.400635,0.309143
0.23847,0.219611,-0.144091,0.0564045,-0.0288564,-0.416771,0.309143
0.355813,0.224893,-0.101734,0.0558994,-0.058256,-0.335589,0.309143
0.578727,0.0699598,-0.0717887,0.0676117,-0.0809729,-0.224873,0.309143
0.854082,-0.11609,-0.0438263,0.0691458,-0.0362614,-0.114017,0.309143
1.07637,-0.24927,-0.0171344,0.059925,0.0314514,0.0121306,0.309143
1.06339,-0.269805,-0.0447244,0.0460488,0.112746,0.163528,0.309143
0.729508,-0.246421,-0.0547292,0.0498403,0.186483,0.291042,0.309143
0.255938,-0.238724,0.0500334,0.0893129,0.22776,0.337792,0.309143
-0.110578,-0.154736,0.209809,0.0940816,0.277846,0.272828,0.309143
-0.282953,-0.0456913,0.279799,0.0209773,0.293286,0.169495,0.309143
-0.220663,-0.0518656,0.236948,-0.045648,0.256579,0.0768074,0.309143
-0.220663,-0.0518656,0.236948,-0.045648,0.256579,0.0768074,0.504669
-0.0605798,-0.0759107,0.203033,-0.0573286,0.21874,0.0180155,0.504669
0.0271574,0.0275262,0.193559,-0.0499448,0.188956,0.013321,0.504669
0.0376633,0.240599,0.154579,-0.0434642,0.145633,0.0534589,0.504669
-0.007199,0.349574,0.14911,-0.0172745,0.10921,0.137652,0.504669
-0.0310878,0.314899,0.150516,-0.00440807,0.0835705,0.200913,0.504669
-0.022043,0.212196,0.132215,0.00138761,0.0620229,0.245099,0.504669
-0.0672759,0.106835,0.076177,-0.0056159,0.0453627,0.280134,0.504669
-0.23536,-0.0119198,-0.0258067,-0.00692179,0.0275784,0.315231,0.504669
-0.430407,-0.0759468,-0.0246648,0.0402351,0.0215592,0.30584,0.504669
-0.553195,-0.112708,0.0852407,0.0865973,0.0366661,0.249398,0.504669
-0.595685,-0.166848,0.189463,0.088,0.0292391,0.169574,0.504669
-0.584099,-0.188221,0.158983,0.0487519,-0.0242825,0.0910264,0.504669
-0.579225,-0.200828,0.101727,0.0391539,-0.0755154,0.0406978,0.504669
-0.563004,-0.159276,0.0933941,0.0684698,-0.0847677,0.000375986,0.504669
-0.526669,-0.0683126,0.126087,0.0850017,-0.0805252,-0.0347884,0.504669
-0.459941,0.0947522,0.144752,0.0995796,-0.0944399,-0.0555048,0.504669
-0.398885,0.135448,0.166945,0.10285,-0.108249,-0.0510327,0.504669
-0.320051,0.0772033,0.179199,0.130525,-0.114696,-0.0181077,0.504669
-0.372311,0.103739,0.185746,0.156964,-0.104182,0.0121114,0.504669
-0.51842,0.205635,0.221735,0.176804,-0.0845141,0.0177986,0.504669
-0.608616,0.379039,0.278623,0.199757,-0.0660118,-0.0327215,0.504669
-0.595446,0.487296,0.442826,0.232881,-0.0284267,-0.0957702,0.504669
-0.423048,0.452598,0.692684,0.2512,-0.00934319,-0.152787,0.504669
-0.134542,0.363365,0.838136,0.198048,-0.0122508,-0.197072,0.504669
-0.0283819,0.104262,0.902525,0.15093,-0.0233622,-0.129004,0.504669
-0.222611,-0.0746349,0.929873,0.0900081,-0.0175948,-0.0609121,0.504669
-0.471936,-0.0940871,0.887323,-0.00269119,-0.0230754,-0.0964862,0.504669
-0.629733,-0.0966155,0.746696,-0.0725565,-0.0440943,-0.187413,0.504669
-0.842149,-0.110273,0.504296,-0.151798,-0.0583446,-0.282217,0.504669
-1.0602,-0.293074,0.29637,-0.169859,-0.0524966,-0.364476,0.504669
-0.950482,-0.490112,0.12423,-0.1657,-0.0190961,-0.506442,0.504669
-0.454075,-0.401622,0.0464898,-0.128025,0.0268456,-0.660365,0.504669
0.0754043,-0.00290456,0.138448,-0.0682855,0.0697347,-0.657391,0.504669
0.416825,0.415519,0.352936,-0.040585,0.115977,-0.499701,0.504669
0.581312,0.5357,0.457485,-0.0825431,0.0991308,-0.274372,0.504669
0.68112,0.4,0.384271,-0.158928,0.0575401,-0.0913079,0.504669
0.696086,0.19099,0.228743,-0.210915,0.0363358,0.0397257,0.504669
0.649861,0.0984908,0.0826135,-0.220136,0.0338253,0.114246,0.504669
0.536534,0.0959217,-0.0110602,-0.199336,0.0442968,0.169822,0.504669
0.453049,0.118562,-0.0368703,-0.169655,0.0627143,0.206565,0.504669
0.456879,0.131947,-0.0616955,-0.153977,0.0690425,0.217249,0.504669
0.515389,0.143784,-0.065088,-0.141819,0.0817378,0.242431,0.504669
0.588967,0.0794973,-0.0507988,-0.136857,0.105164,0.282174,0.504669
0.652082,0.0549538,-0.0632292,-0.134079,0.109589,0.316281,0.504669
0.684777,0.0420564,-0.0750133,-0.12645,0.11574,0.352972,0.504669
0.655689,0.0150218,-0.108463,-0.118711,0.107918,0.373733,0.504669
0.544527,0.000660406,-0.161423,-0.103567,0.0822025,0.377584,0.504669
0.378211,-0.0163721,-0.247485,-0.0795755,0.0518831,0.370141,0.504669
0.258753,0.0166979,-0.324007,-0.0556921,0.0552799,0.328977,0.504669
0.112702,-0.0192958,-0.35564,-0.0356937,0.0897142,0.308647,0.504669
-0.0867978,-0.096974,-0.371119,0.0125608,0.0830147,0.290287,0.504669
-0.298643,-0.168002,-0.354577,0.0499481,0.0824069,0.246035,0.504669
-0.476004,-0.19479,-0.275727,0.0724737,0.0972209,0.180572,0.504669
-0.476004,-0.19479,-0.275727,0.0724737,0.0972209,0.180572,0.544312
-0.660801,-0.242749,-0.123748,0.107281,0.100672,0.124121,0.544312
-0.799817,-0.244476,0.0391011,0.124516,0.0558903,0.0478144,0.544312
-0.767845,-0.143196,0.157442,0.0890754,-0.00124332,-0.0607482,0.544312
-0.514386,0.0316055,0.19212,0.0472165,-0.0691148,-0.170774,0.544312
-0.288538,0.187097,0.202743,0.0282405,-0.132918,-0.198929,0.544312
-0.248889,0.28487,0.19419,0.00864389,-0.1832,-0.148255,0.544312
-0.301696,0.258915,0.0985084,-0.0271905,-0.219857,-0.11117,0.544312
-0.328762,0.279821,-0.0527042,-0.0458737,-0.257278,-0.150999,0.544312
-0.331316,0.112926,-0.0914088,0.0145998,-0.256482,-0.183264,0.544312
-0.308732,-0.166463,-0.00950389,0.0811172,-0.224645,-0.253129,0.544312
-0.22553,-0.299129,0.0620635,0.042483,-0.15634,-0.358926,0.544312
-0.0838308,-0.0886186,0.0583138,-0.0277793,-0.108128,-0.473101,0.544312
-0.0384923,0.253453,-0.0521547,-0.0868788,-0.092621,-0.49802,0.544312
-0.146341,0.319856,-0.260878,-0.0969444,-0.115111,-0.424826,0.544312
-0.183494,0.265756,-0.376033,-0.0513027,-0.118202,-0.384626,0.544312
0.0369036,0.196568,-0.300529,0.0113024,-0.0660364,-0.392389,0.544312
0.505749,0.123772,-0.182781,0.0350723,-0.0373276,-0.373333,0.544312
0.95786,0.0133297,-0.153995,-0.0100318,-0.0018571,-0.270775,0.544312
1.1924,-0.0819669,-0.163561,-0.0265771,0.0497448,-0.101196,0.544312
1.20743,-0.0847451,-0.162351,-0.0170868,0.0957652,0.0526963,0.544312
1.06106,-0.04658,-0.117024,0.0212912,0.139849,0.180361,0.544312
0.803645,0.0332611,-0.095762,0.0421059,0.169995,0.26278,0.544312
0.51638,0.0433915,-0.086842,0.0598205,0.180366,0.306088,0.544312
0.35261,-0.0775596,-0.0243481,0.111885,0.187188,0.300756,0.544312
0.336872,-0.217397,0.0745857,0.164325,0.187823,0.25539,0.544312
0.373933,-0.208213,0.208448,0.192794,0.194377,0.208668,0.544312
0.405294,-0.0757412,0.353508,0.182593,0.203697,0.182127,0.544312
0.446648,0.00376645,0.484055,0.177901,0.210285,0.194722,0.544312
0.486588,0.258354,0.486083,0.125767,0.191475,0.186749,0.544312
0.386646,0.494714,0.449583,0.0792876,0.191625,0.235959,0.544312
0.20995,0.58087,0.500737,0.0827997,0.201341,0.317264,0.544312
0.0539742,0.510387,0.534067,0.0714832,0.212699,0.35351,0.544312
-0.0821798,0.453776,0.459522,0.0176895,0.208271,0.347972,0.544312
-0.334052,0.320581,0.390689,0.0147915,0.182738,0.359888,0.544312
-0.684001,0.0809158,0.421509,0.0664482,0.154967,0.37267,0.544312
-0.962584,-0.107601,0.515392,0.099408,0.127063,0.298735,0.544312
-1.08749,-0.0933373,0.550242,0.0625979,0.0930776,0.150789,0.544312
-1.01411,0.025077,0.545978,0.021586,0.0214081,-0.00276178,0.544312
-0.790017,0.0371416,0.529811,0.002047,-0.0303355,-0.104692,0.544312
-0.537399,0.0703467,0.533071,0.0124041,-0.0804981,-0.154341,0.544312
-0.444874,0.18993,0.516013,0.0214488,-0.132032,-0.139415,0.544312
-0.537227,0.381109,0.4722,0.0212815,-0.17793,-0.0946697,0.544312
-0.65844,0.420345,0.469622,0.0362908,-0.197864,-0.0566007,0.544312
-0.602755,0.27144,0.51371,0.0616109,-0.206486,-0.0684807,0.544312
-0.449534,-0.00787539,0.530468,0.0559941,-0.191932,-0.098491,0.544312
-0.30014,-0.32313,0.551079,0.0514691,-0.169858,-0.129917,0.544312
-0.173189,-0.307093,0.601649,0.0752338,-0.134685,-0.199698,0.544312
-0.173101,-0.125905,0.724756,0.0901542,-0.0771134,-0.216166,0.544312
-0.197349,-0.0388699,0.849896,0.108611,-0.0644314,-0.187331,0.544312
-0.306902,0.0877334,0.819983,0.0798477,-0.0768203,-0.148601,0.544312
-0.548067,0.00654944,0.688929,0.0326834,-0.109115,-0.107361,0.544312
-0.707932,-0.383636,0.469143,0.0366489,-0.150472,-0.144446,0.544312
-0.676732,-0.728625,0.267703,0.0707361,-0.142779,-0.290572,0.544312
-0.492811,-0.728514,0.119453,0.0566874,-0.0455553,-0.457202,0.544312
-0.492811,-0.728514,0.119453,0.0566874,-0.0455553,-0.457202,0.750412
-0.246529,-0.340033,0.0244604,0.0804456,0.030449,-0.567122,0.750412
-0.0836031,0.185732,0.121236,0.148547,0.115692,-0.544017,0.750412
0.0820859,0.519908,0.448923,0.208389,0.198358,-0.449647,0.750412
0.396029,0.537829,0.810479,0.205575,0.236717,-0.346609,0.750412
0.755455,0.439451,0.993878,0.106153,0.223515,-0.237802,0.750412
0.9212,0.338825,1.00057,-0.0228115,0.191801,-0.117963,0.750412
0.824457,0.234317,0.915332,-0.112048,0.156013,0.00115639,0.750412
0.592343,0.211628,0.777292,-0.167275,0.116508,0.0690486,0.750412
0.412226,0.224461,0.628656,-0.190513,0.0806757,0.0904163,0.750412
0.375569,0.208258,0.513735,-0.181065,0.0785457,0.0911098,0.750412
0.485152,0.179875,0.508704,-0.140176,0.0958844,0.0936605,0.750412
0.658748,0.183894,0.588868,-0.108357,0.131005,0.123877,0.750412
0.812463,0.231362,0.671085,-0.0963894,0.146161,0.188731,0.750412
0.882898,0.220797,0.694366,-0.110346,0.153271,0.28549,0.750412
0.905393,0.216356,0.647341,-0.129027,0.154628,0.366993,0.750412
0.85126,0.176262,0.55204,-0.133122,0.146885,0.436389,0.750412
0.694112,0.0316292,0.438656,-0.114805,0.156009,0.50559,0.750412
0.466404,-0.123541,0.283892,-0.107915,0.153091,0.522696,0.750412
0.205741,-0.164256,0.174279,-0.0509909,0.151547,0.491737,0.750412
-0.0476646,-0.0916802,0.147541,0.0067023,0.17108,0.422188,0.750412
-0.280062,-0.132989,0.201322,0.0759918,0.165668,0.346842,0.750412
-0.463812,-0.235036,0.261334,0.129515,0.13892,0.245727,0.750412
-0.614774,-0.230525,0.315944,0.142951,0.125247,0.131339,0.750412
-0.701142,-0.115486,0.410998,0.154017,0.118397,0.0119874,0.750412
-0.744497,0.0153722,0.550042,0.168716,0.106294,-0.0725022,0.750412
-0.73756,0.0994412,0.767429,0.182021,0.0904597,-0.124129,0.750412
-0.574531,0.203529,0.967983,0.160085,0.0487893,-0.194615,0.750412
-0.331242,0.343663,1.09063,0.105458,0.00208455,-0.232907,0.750412
-0.18409,0.415768,1.1294,0.0415386,-0.0554591,-0.186522,0.750412
-0.165772,0.451878,1.08471,-0.0048482,-0.116427,-0.107271,0.750412
-0.20658,0.540529,0.972975,-0.0516028,-0.150543,-0.0544668,0.750412
-0.199342,0.60454,0.920302,-0.053724,-0.175208,-0.0266042,0.750412
-0.112661,0.606683,0.92448,-0.0285815,-0.208828,0.00157803,0.750412
-0.0115349,0.55646,0.922407,-0.0217754,-0.237584,0.0314603,0.750412
0.0833763,0.489092,0.841332,-0.031918,-0.285711,0.0463738,0.750412
0.168282,0.354838,0.648533,-0.0727168,-0.290543,0.0434232,0.750412
0.245675,0.238273,0.454123,-0.0919868,-0.236557,0.0240362,0.750412
0.262024,0.182672,0.451758,-0.0382111,-0.113677,0.0059666,0.750412
0.241828,0.127237,0.61742,0.0268081,0.00180614,-0.0107227,0.750412
0.265919,0.120427,0.784457,0.0486805,0.0587675,-0.0567569,0.750412
0.333812,0.178439,0.887898,0.0536691,0.0711165,-0.100693,0.750412
0.332739,0.246211,0.942367,0.0589763,0.0502016,-0.101216,0.750412
0.221198,0.226887,0.958248,0.0532121,0.0398474,-0.066653,0.750412
0.0727088,0.151531,0.884696,0.0145218,0.0426018,-0.0477185,0.750412
0.00949677,0.252669,0.77841,-0.0134607,0.0388758,-0.0841532,0.750412
0.0374633,0.379072,0.699393,-0.017659,0.0597855,-0.103146,0.750412
0.173052,0.521929,0.740229,0.0338058,0.065306,-0.0828691,0.750412
0.184776,0.660005,0.775751,0.0457835,0.0645202,0.0111541,0.750412
0.0400587,0.646986,0.791149,0.0324968,0.0294859,0.127163,0.750412
-0.143343,0.489349,0.722116,0.00786912,-0.0161555,0.185427,0.750412
-0.346962,0.283676,0.53964,-0.0562325,-0.0216714,0.195283,0.750412
-0.503227,0.192355,0.30887,-0.0956487,-0.032627,0.133073,0.750412
-0.495885,0.298526,0.219097,-0.0744395,0.00266895,0.030077,0.750412
-0.403366,0.417841,0.300522,-0.0375058,0.0583426,-0.0146355,0.750412
-0.403366,0.417841,0.300522,-0.0375058,0.0583426,-0.0146355,0.959152
-0.232047,0.376207,0.423825,-0.00884953,0.0671861,-0.0178139,0.959152
-0.0811316,0.19593,0.429544,-0.0217755,0.0360053,0.00538415,0.959152
-0.0555394,0.0337572,0.388611,-0.0163655,0.0219351,0.0380364,0.959152
0.00517046,-0.183086,0.372,0.0124398,0.0277403,0.0427514,0.959152
0.0409838,-0.0730529,0.337937,0.0621148,0.034289,0.00982022,0.959152
-0.100915,0.280938,0.39683,0.121278,0.0765114,0.0235787,0.959152
-0.292961,0.438964,0.498454,0.175132,0.0919338,0.0720342,0.959152
-0.319817,0.243364,0.573549,0.22379,0.0728708,0.0798861,0.959152
-0.226057,0.024392,0.618068,0.263158,0.0661587,0.038079,0.959152
-0.20583,-0.0983955,0.69088,0.297636,0.081843,0.00771827,0.959152
-0.272655,-0.104796,0.787384,0.336218,0.0749562,-0.0204469,0.959152
-0.339977,0.0487794,0.960254,0.376957,0.0808456,-0.0702261,0.959152
-0.39645,0.182152,1.19427,0.383494,0.109921,-0.106711,0.959152
-0.365201,0.280157,1.49038,0.357834,0.138598,-0.140146,0.959152
-0.17522,0.386395,1.68899,0.27292,0.130024,-0.178204,0.959152
0.0344498,0.485696,1.69006,0.177701,0.0741208,-0.158359,0.959152
0.061487,0.521106,1.60675,0.12221,0.0224063,-0.0622535,0.959152
-0.0440985,0.494026,1.53642,0.0970852,0.0282417,0.0384976,0.959152
-0.149045,0.4375,1.54241,0.105155,0.0537066,0.0868164,0.959152
-0.155881,0.375399,1.60302,0.105865,0.0813741,0.085874,0.959152
-0.0654935,0.280885,1.64517,0.0654046,0.103626,0.0687318,0.959152
0.0191404,0.205498,1.59333,0.0103676,0.0943485,0.0604371,0.959152
0.0226221,0.265342,1.42783,-0.0471295,0.0712798,0.0595664,0.959152
-0.0635317,0.358272,1.23985,-0.0576955,0.0550601,0.0806657,0.959152
-0.201212,0.375849,1.17392,0.0157761,0.0568112,0.103114,0.959152
-0.380916,0.467554,1.19365,0.0759705,0.0661855,0.0901649,0.959152
-0.512792,0.476719,1.20069,0.0922882,0.0540344,0.0403281,0.959152
-0.505926,0.356616,1.1202,0.0686481,0.0284283,-0.0366493,0.959152
-0.393744,0.133712,1.05855,0.078221,0.0272702,-0.114287,0.959152
-0.272544,0.0481574,1.1053,0.119094,0.0749017,-0.167295,0.959152
-0.256424,0.199452,1.15054,0.112207,0.110121,-0.188739,0.959152
-0.342946,0.392569,1.14935,0.0855966,0.101214,-0.163193,0.959152
-0.398952,0.520759,1.17388,0.0809748,0.0903284,-0.135181,0.959152
-0.259943,0.708728,1.2238,0.0654922,0.0960526,-0.137355,0.959152
-0.0431194,0.917115,1.24121,0.0317624,0.106377,-0.0818281,0.959152
0.040463,0.994161,1.29415,0.0161856,0.110588,0.0340244,0.959152
-0.0282879,0.968315,1.37385,0.00744622,0.116751,0.14683,0.959152
-0.121365,0.871441,1.45221,-0.00467171,0.0971357,0.196371,0.959152
-0.208921,0.732189,1.44659,-0.036449,0.0805145,0.200789,0.959152
-0.447168,0.441673,1.39572,-0.0676866,0.0615785,0.19409,0.959152
-0.563577,-0.0749619,1.37652,-0.0834155,0.0625228,0.1171,0.959152
-0.536398,-0.399208,1.26302,-0.105567,0.0724653,-0.0416303,0.959152
-0.549862,-0.31395,1.2219,-0.100496,0.0819771,-0.17453,0.959152
-0.551354,0.0849931,1.2316,-0.0932465,0.0891492,-0.275514,0.959152
-0.429495,0.514829,1.31626,-0.0664586,0.0837868,-0.322392,0.959152
-0.18829,0.69048,1.45627,-0.0444342,0.0777593,-0.278047,0.959152
0.0642694,0.689457,1.51524,-0.0568593,0.0368415,-0.164866,0.959152
0.143367,0.626483,1.47515,-0.0877959,-0.00655609,-0.0199078,0.959152
0.0282763,0.556008,1.40742,-0.105909,-0.0390346,0.104424,0.959152
-0.158259,0.506203,1.28857,-0.125915,-0.067688,0.171895,0.959152
-0.346146,0.417505,1.1491,-0.128949,-0.0848072,0.19871,0.959152
-0.417069,0.333237,1.01093,-0.127171,-0.0912531,0.163453,0.959152
-0.400731,0.269198,0.907802,-0.106459,-0.0712523,0.103369,0.959152
-0.327647,0.277216,0.906615,-0.0568039,-0.0491165,0.0359833,0.959152
-0.327647,0.277216,0.906615,-0.0568039,-0.0491165,0.0359833,1.17055
-0.240143,0.296181,0.989139,-0.00454253,-0.0160967,-0.0119364,1.17055
-0.153102,0.2287,1.03737,0.0110251,-0.00589263,-0.0468116,1.17055
-0.0966117,0.0907569,1.04312,0.0216528,-0.0353056,-0.0847682,1.17055
-0.0175459,0.0531939,0.978952,0.0154276,-0.0785938,-0.15538,1.17055
0.0682652,0.198647,0.881315,-0.000269294,-0.0859388,-0.224049,1.17055
0.146287,0.399724,0.728745,-0.0129203,-0.0957376,-0.254775,1.17055
0.149242,0.47324,0.533481,-0.0140708,-0.0995294,-0.228409,1.17055
0.15318,0.580244,0.431501,0.0217451,-0.0772046,-0.193574,1.17055
0.282309,0.761003,0.432272,0.0532538,-0.0181657,-0.184869,1.17055
0.407442,0.873861,0.478453,0.0573338,0.0432396,-0.103492,1.17055
0.450069,0.86168,0.51849,0.0623805,0.0690184,0.0215766,1.17055
0.410561,0.779026,0.56147,0.0564619,0.0937619,0.134471,1.17055
0.315286,0.635937,0.63078,0.0733484,0.11645,0.218912,1.17055
0.190352,0.446288,0.714034,0.0867971,0.143588,0.270523,1.17055
0.00976002,0.199236,0.783504,0.0882834,0.161535,0.300062,1.17055
-0.176338,-0.0277864,0.841118,0.109144,0.150741,0.277755,1.17055
-0.328673,-0.10251,0.847808,0.116672,0.134119,0.200452,1.17055
-0.420197,0.0280549,0.896466,0.139951,0.137002,0.0996464,1.17055
-0.449866,0.15543,0.957701,0.150894,0.170007,0.00991708,1.17055
-0.447526,0.181515,1.09461,0.186505,0.199276,-0.0417201,1.17055
-0.310938,0.345999,1.30141,0.215031,0.205195,-0.10497,1.17055
-0.145766,0.575307,1.45177,0.169501,0.215841,-0.109064,1.17055
-0.107604,0.663056,1.52823,0.114194,0.202018,-0.0150956,1.17055
-0.147198,0.641771,1.52789,0.0515166,0.166252,0.0670484,1.17055
-0.266665,0.412962,1.44489,0.020211,0.116694,0.128508,1.17055
-0.434542,0.248399,1.33483,0.00586465,0.0562016,0.133521,1.17055
-0.532893,0.317727,1.18687,-0.0216396,0.0171954,0.0833355,1.17055
-0.550193,0.410584,1.06953,-0.0164121,-0.00837424,0.0378628,1.17055
-0.575562,0.354017,0.973192,-0.00476713,-0.0329905,0.0519413,1.17055
-0.64283,0.180902,0.838647,0.00250411,-0.0808235,0.0567694,1.17055
-0.675352,0.0808138,0.627449,-0.00673121,-0.122832,0.0101868,1.17055
-0.689622,0.0609201,0.453445,-0.0032306,-0.119344,-0.0717507,1.17055
-0.70833,0.144472,0.385325,0.0333855,-0.0989836,-0.13993,1.17055
-0.618652,0.298137,0.388023,0.0589369,-0.0704164,-0.20853,1.17055
-0.426581,0.479383,0.436871,0.0581197,-0.0363286,-0.24256,1.17055
-0.222801,0.592805,0.526519,0.055238,-0.0073489,-0.205646,1.17055
-0.0840065,0.611353,0.611351,0.0282028,0.00992744,-0.121111,1.17055
-0.0431184,0.487638,0.698407,0.00909464,0.010162,-0.00887203,1.17055
-0.00754221,0.344356,0.783442,-0.00952399,0.011945,0.0563373,1.17055
0.00527462,0.198222,0.822742,-0.0396064,0.00431986,0.0939894,1.17055
-0.0774894,0.0779742,0.815819,-0.0609078,-0.0176995,0.128923,1.17055
-0.247492,-0.0389168,0.772895,-0.0759364,-0.0473623,0.14288,1.17055
-0.359545,-0.176914,0.693555,-0.0702469,-0.0888602,0.0934341,1.17055
-0.427376,-0.340885,0.580865,-0.0565669,-0.112298,0.0327436,1.17055
-0.438997,-0.403922,0.468298,-0.00772355,-0.155647,-0.0631754,1.17055
-0.487192,-0.436055,0.372122,0.0382738,-0.164902,-0.134114,1.17055
-0.532404,-0.466139,0.352308,0.10276,-0.173002,-0.210441,1.17055
-0.504083,-0.489393,0.369581,0.14734,-0.178976,-0.29775,1.17055
-0.470138,-0.473402,0.312934,0.136953,-0.180965,-0.39541,1.17055
-0.567624,-0.412691,0.159678,0.067831,-0.161589,-0.486934,1.17055
-0.573409,-0.462008,0.0924355,0.0610162,-0.121458,-0.579393,1.17055
-0.252977,-0.434573,0.178054,0.107423,-0.0437847,-0.696005,1.17055
0.239489,-0.0865668,0.440044,0.120699,0.0541083,-0.749962,1.17055
0.749507,0.40843,0.733764,0.0842436,0.108237,-0.663019,1.17055
0.749507,0.40843,0.733764,0.0842436,0.108237,-0.663019,1.33437
1.13092,0.71248,0.81292,-0.0129865,0.106171,-0.435126,1.33437
1.3244,0.859772,0.760399,-0.0830292,0.083311,-0.192421,1.33437
1.33772,0.909054,0.632864,-0.135876,0.0834773,0.0267039,1.33437
1.15661,0.82424,0.473485,-0.151756,0.0866274,0.214474,1.33437
0.896768,0.448793,0.327837,-0.134103,0.0592104,0.336908,1.33437
0.603256,0.0089822,0.0778866,-0.138739,0.0539145,0.373776,1.33437
0.330029,-0.166047,-0.126262,-0.121411,0.0815232,0.3383,1.33437
0.156732,-0.113069,-0.239168,-0.0983982,0.138341,0.25853,1.33437
0.114156,0.0756605,-0.264511,-0.0825118,0.210641,0.203717,1.33437
0.144048,0.270398,-0.166131,-0.0547262,0.258734,0.193339,1.33437
0.201599,0.325396,0.0349792,-0.0305835,0.288191,0.222102,1.33437
0.316125,0.289893,0.242373,-0.0223046,0.278441,0.247377,1.33437
0.430106,0.260584,0.372991,-0.0633836,0.259105,0.271502,1.33437
0.424527,0.217366,0.374465,-0.127814,0.225889,0.316805,1.33437
0.292675,0.163155,0.320334,-0.151884,0.17484,0.356886,1.33437
0.137532,0.167246,0.28748,-0.143924,0.1426,0.354654,1.33437
-0.0224826,0.105618,0.271504,-0.124691,0.116099,0.345619,1.33437
-0.163613,-0.0779771,0.288291,-0.0997026,0.0830626,0.318649,1.33437
-0.289772,-0.226592,0.309788,-0.0924375,0.0755815,0.271947,1.33437
-0.495742,-0.320812,0.257347,-0.110528,0.0555708,0.241053,1.33437
-0.788684,-0.450787,0.181172,-0.104604,0.00575,0.219485,1.33437
-0.99308,-0.492688,0.155525,-0.0815549,-0.0319185,0.13207,1.33437
-1.02416,-0.447735,0.158167,-0.0746051,-0.0487923,0.0118149,1.33437
-0.857456,-0.260962,0.147099,-0.092023,-0.0848207,-0.111369,1.33437
-0.598279,-0.0614473,0.0733586,-0.110054,-0.133946,-0.178861,1.33437
-0.421268,0.101168,-0.0289599,-0.114044,-0.183913,-0.165804,1.33437
-0.338736,0.196857,-0.126215,-0.111466,-0.217961,-0.114979,1.33437
-0.249687,0.163845,-0.160097,-0.0796764,-0.22684,-0.0720397,1.33437
-0.14796,0.0769947,-0.199659,-0.0725973,-0.222824,-0.0615391,1.33437
-0.0892255,-0.048854,-0.250768,-0.0635682,-0.233878,-0.0714993,1.33437
-0.0299092,-0.0883698,-0.271636,-0.0298028,-0.233098,-0.130181,1.33437
0.0373475,-0.0354875,-0.273995,-0.0325491,-0.189524,-0.207133,1.33437
0.0863154,-0.110488,-0.207575,0.032561,-0.183137,-0.257187,1.33437
0.188739,-0.125296,-0.119878,0.0559351,-0.157923,-0.331037,1.33437
0.29587,-0.0582787,-0.109479,0.0416357,-0.141575,-0.403989,1.33437
0.278975,-0.150419,-0.147167,0.0502299,-0.119182,-0.392982,1.33437
0.157877,-0.251874,-0.207464,0.0908405,-0.115603,-0.359226,1.33437
-0.0327488,-0.189308,-0.260354,0.121378,-0.0717437,-0.35586,1.33437
-0.249614,-0.0243649,-0.172234,0.163862,0.00302687,-0.335037,1.33437
-0.252993,0.19047,0.0519869,0.201723,0.0727183,-0.352099,1.33437
0.0384264,0.394701,0.31607,0.189926,0.116055,-0.354368,1.33437
0.443822,0.518826,0.524652,0.143627,0.126172,-0.25192,1.33437
0.69974,0.592506,0.552255,0.0555935,0.114659,-0.0688386,1.33437
0.677923,0.65869,0.42436,-0.0272235,0.0918202,0.115239,1.33437
0.419667,0.541669,0.253219,-0.0671051,0.0775891,0.270189,1.33437
0.151753,0.254879,0.0674985,-0.0809963,0.0763745,0.326481,1.33437
0.00989847,-0.0290496,-0.10298,-0.0795093,0.0898443,0.293669,1.33437
0.0458828,-0.189516,-0.136922,-0.0356101,0.12179,0.208664,1.33437
0.211863,-0.15879,-0.0965522,-0.00743869,0.153291,0.127054,1.33437
0.35629,-0.0369224,-0.0201327,0.00904021,0.170801,0.109876,1.33437
0.399983,0.101874,0.0454116,0.00432864,0.169403,0.145546,1.33437
0.317295,0.333483,0.0576467,-0.00954863,0.157526,0.197547,1.33437
0.212505,0.411627,0.0853451,-0.0346994,0.161361,0.255274,1.33437
0.212505,0.411627,0.0853451,-0.0346994,0.161361,0.255274,1.46384
0.207085,0.263534,0.0909999,-0.0247069,0.14443,0.282426,1.46384
0.224383,0.1287,0.110319,-0.00724852,0.13994,0.274068,1.46384
0.148538,0.0933346,0.140887,0.0106596,0.134294,0.272305,1.46384
-0.0122444,0.0148813,0.176438,0.0342602,0.118535,0.284813,1.46384
-0.218626,-0.15118,0.198459,0.035244,0.104641,0.275309,1.46384
-0.363133,-0.223478,0.203669,0.023724,0.0833935,0.19292,1.46384
-0.402626,-0.20056,0.183861,-0.00411934,0.0687724,0.0953311,1.46384
-0.398991,-0.182492,0.136953,-0.0198137,0.0402382,0.0366463,1.46384
-0.452401,-0.19245,0.0617632,-0.0397223,0.00855628,0.0151449,1.46384
-0.549007,-0.193244,-0.0396044,-0.043195,-0.0437506,0.00858313,1.46384
-0.558713,-0.127902,-0.184718,-0.0460099,-0.0935458,-0.0314711,1.46384
-0.486126,-0.0508125,-0.292567,-0.0267911,-0.113938,-0.0686163,1.46384
-0.388548,0.0121675,-0.298749,0.0241534,-0.115151,-0.0762986,1.46384
-0.319506,0.0387544,-0.247082,0.0619834,-0.101337,-0.053721,1.46384
-0.28665,0.0334539,-0.210534,0.0676294,-0.101373,-0.0168281,1.46384
-0.236296,0.042069,-0.218125,0.0523703,-0.108801,-0.00956756,1.46384
-0.222513,0.0314834,-0.233244,0.0493862,-0.0965851,0.0100276,1.46384
-0.280438,-0.113484,-0.208151,0.0784101,-0.0812,0.0340873,1.46384
-0.432814,-0.147507,-0.208163,0.10066,-0.0845204,0.00472897,1.46384
-0.529132,-0.424497,-0.113015,0.136816,-0.0703648,-0.066202,1.46384
-0.34773,-0.767503,-0.0115532,0.174127,-0.0758571,-0.230112,1.46384
-0.335331,-0.992894,0.0183922,0.15215,-0.0705882,-0.339187,1.46384
-0.450777,-0.950859,-0.00466531,0.0910024,-0.0938324,-0.464263,1.46384
-0.4194,-0.739085,-0.0635236,0.0665472,-0.114582,-0.610397,1.46384
-0.221473,-0.409817,-0.0170456,0.0863165,-0.0960692,-0.702712,1.46384
0.105531,-0.0549057,0.107588,0.0934356,-0.0819897,-0.707341,1.46384
0.50286,0.215093,0.111391,0.0384979,-0.0944512,-0.621624,1.46384
0.825617,0.374216,0.0204811,-0.0251101,-0.0960383,-0.448333,1.46384
1.04256,0.447355,-0.0714854,-0.0608654,-0.0477962,-0.264467,1.46384
1.12918,0.462091,-0.126813,-0.0681487,0.0170985,-0.0926032,1.46384
1.04985,0.453911,-0.138051,-0.0870975,0.0919498,0.0526463,1.46384
0.897422,0.305259,-0.104524,-0.104091,0.160712,0.157147,1.46384
0.762167,-0.0128176,-0.0696004,-0.121878,0.210128,0.208903,1.46384
0.761856,-0.35763,-0.0451492,-0.140387,0.240348,0.205199,1.46384
0.861599,-0.502837,-0.0068236,-0.119769,0.252458,0.182013,1.46384
0.878366,-0.431916,0.0325199,-0.103015,0.253166,0.197789,1.46384
0.804467,-0.174145,0.0639197,-0.0984051,0.238031,0.241001,1.46384
0.697458,0.1303,0.048153,-0.112155,0.226772,0.303413,1.46384
0.573336,0.395025,-0.0207349,-0.134228,0.218884,0.374057,1.46384
0.448888,0.544751,-0.102863,-0.156655,0.233705,0.429248,1.46384
0.31088,0.48807,-0.196366,-0.150419,0.219563,0.486723,1.46384
0.16713,0.474339,-0.269646,-0.140644,0.211782,0.496728,1.46384
-0.0449904,0.497038,-0.320757,-0.125417,0.19904,0.510544,1.46384
-0.238985,0.209288,-0.350599,-0.0933254,0.154059,0.502947,1.46384
-0.356301,-0.27434,-0.313093,-0.0371964,0.126386,0.446215,1.46384
-0.560276,-0.699467,-0.281254,-0.0209046,0.124493,0.361294,1.46384
-0.966812,-1.01191,-0.226881,0.0198187,0.0641147,0.268291,1.46384
-1.24778,-0.984135,-0.184933,0.0221929,-0.0103029,0.0780242,1.46384
-1.20118,-0.748998,-0.21069,-0.00680771,-0.0603165,-0.151414,1.46384
-0.894679,-0.347308,-0.219326,-0.0161113,-0.0997318,-0.33907,1.46384
-0.550717,0.0285341,-0.212323,-0.0141428,-0.131197,-0.387097,1.46384
-0.322936,0.247383,-0.249332,-0.0167177,-0.171215,-0.318583,1.46384
-0.203076,0.244424,-0.26537,-0.0122353,-0.180016,-0.179339,1.46384
-0.0976913,0.215078,-0.275773,-0.000512242,-0.180878,-0.079079,1.46384
-0.0976913,0.215078,-0.275773,-0.000512242,-0.180878,-0.079079,1.58275
-0.0520925,0.197675,-0.279025,-0.00352335,-0.16874,0.00692308,1.58275
-0.120412,0.100558,-0.263671,-0.00865601,-0.151192,0.0872261,1.58275
-0.20325,-0.0958805,-0.214238,0.00380372,-0.134722,0.117878,1.58275
-0.177591,-0.219154,-0.108788,0.0203378,-0.117727,0.0608873,1.58275
-0.0653075,-0.222466,-0.0172333,0.0146404,-0.096063,-0.0322558,1.58275
-0.0341375,-0.145951,0.0276147,-0.00110292,-0.10127,-0.0725266,1.58275
-0.0571647,-0.130583,0.00601601,-0.00867617,-0.132753,-0.106065,1.58275
-0.0556388,-0.198584,-0.0321016,-0.00434756,-0.152028,-0.164814,1.58275
-0.0506214,-0.243463,-0.0845767,0.00544447,-0.160998,-0.23709,1.58275
-0.088845,-0.227432,-0.176898,0.00468054,-0.17521,-0.313373,1.58275
-0.136623,-0.11483,-0.298264,0.0150309,-0.180529,-0.385665,1.58275
-0.168097,0.0669103,-0.405756,0.0294991,-0.159423,-0.449186,1.58275
-0.203784,0.217034,-0.397806,0.0748212,-0.116182,-0.458911,1.58275
-0.179995,0.302534,-0.256908,0.133783,-0.0648785,-0.438688,1.58275
-0.119118,0.341361,-0.0957914,0.14119,-0.0187232,-0.39268,1.58275
0.0387031,0.515979,0.054357,0.114698,0.00613362,-0.355852,1.58275
0.251689,0.70309,0.153417,0.07366,0.0207394,-0.246784,1.58275
0.458563,0.814566,0.221343,0.0430962,0.0498369,-0.0779547,1.58275
0.569723,0.814565,0.248756,0.0242029,0.0855038,0.110127,1.58275
0.486915,0.613082,0.211549,-0.00214812,0.121021,0.290382,1.58275
0.225961,0.219434,0.111484,-0.0319902,0.150377,0.411319,1.58275
-0.152726,-0.138945,-0.0453475,-0.0458806,0.179549,0.439866,1.58275
-0.431006,-0.120293,-0.0943947,-0.0357925,0.232591,0.33252,1.58275
-0.479287,0.0171514,-0.00797861,6.39558e-05,0.292744,0.216506,1.58275
-0.293133,0.175923,0.233855,0.0498844,0.307895,0.134456,1.58275
0.00521191,0.255265,0.479462,0.0523226,0.297884,0.114313,1.58275
0.229286,0.193588,0.568101,0.000131309,0.236515,0.160974,1.58275
0.234171,0.104964,0.5314,-0.0386285,0.15032,0.240962,1.58275
0.0998996,0.104333,0.473442,-0.0518514,0.0896856,0.277778,1.58275
-0.00496812,0.0985694,0.42985,-0.0601058,0.0628097,0.264201,1.58275
-0.0691753,-0.040504,0.352758,-0.0653729,0.0478204,0.238364,1.58275
-0.178797,-0.159151,0.251256,-0.0685794,0.0201927,0.197159,1.58275
-0.371898,-0.227365,0.143879,-0.0763271,0.00025481,0.146168,1.58275
-0.50128,-0.450739,0.0766444,-0.0620013,0.000353545,0.0825322,1.58275
-0.539114,-0.589477,0.0574794,-0.0196863,-0.0013243,-0.0138083,1.58275
-0.515364,-0.479589,0.123308,-0.00342257,0.0149246,-0.0994782,1.58275
-0.401528,-0.194586,0.174376,-0.0125479,-0.00229433,-0.169565,1.58275
-0.241672,0.0141351,0.186978,-0.0260613,-0.0327783,-0.163589,1.58275
-0.069413,0.132476,0.180236,-0.0344735,-0.0715215,-0.119425,1.58275
-0.00449209,0.168179,0.125774,-0.0574461,-0.100683,-0.0161402,1.58275
-0.0621972,0.156602,0.0307023,-0.0675735,-0.13572,0.0874505,1.58275
-0.179392,0.0849479,-0.10959,-0.0802864,-0.16233,0.15035,1.58275
-0.248111,0.00632257,-0.223627,-0.0698044,-0.168917,0.161569,1.58275
-0.309966,-0.143615,-0.268485,-0.0275961,-0.158566,0.165479,1.58275
-0.35658,-0.275697,-0.277757,0.000826851,-0.146983,0.131513,1.58275
-0.272166,-0.317516,-0.297345,0.0164275,-0.133392,0.035182,1.58275
-0.158872,-0.300204,-0.273391,0.0529078,-0.101579,-0.0484118,1.58275
-0.116128,-0.234466,-0.170579,0.105417,-0.0676802,-0.0748755,1.58275
-0.0971205,-0.200387,-0.0713545,0.143519,-0.0582022,-0.0933242,1.58275
-0.0715604,-0.17612,-0.00862638,0.152629,-0.0446941,-0.12388,1.58275
-0.0342412,-0.216912,0.0573772,0.175422,-0.0376988,-0.161361,1.58275
-0.0232423,-0.300178,0.157783,0.212762,-0.0334529,-0.197723,1.58275
-0.0383525,-0.355558,0.297535,0.252713,-0.0319231,-0.246769,1.58275
-0.106445,-0.374897,0.413559,0.245983,-0.0317882,-0.304664,1.58275
-0.106445,-0.374897,0.413559,0.245983,-0.0317882,-0.304664,1.69107
-0.149405,-0.267574,0.457438,0.184133,-0.0489727,-0.396175,1.69107
-0.181347,-0.0893738,0.377771,0.0967143,-0.0825944,-0.473922,1.69107
-0.217869,-0.0844451,0.253402,0.0289053,-0.0937649,-0.503127,1.69107
-0.151107,-0.262252,0.15692,-0.00971381,-0.0712739,-0.532318,1.69107
0.0975725,-0.327583,0.106799,-0.0180068,-0.022565,-0.585673,1.69107
0.42669,-0.0746203,0.129046,-0.0165232,-0.00207075,-0.604501,1.69107
0.878371,0.28829,0.232394,-0.0306012,0.0189193,-0.557336,1.69107
1.29341,0.504425,0.294354,-0.0615626,0.0445534,-0.376715,1.69107
1.48405,0.590164,0.309493,-0.106261,0.0691299,-0.128979,1.69107
1.37636,0.564546,0.210347,-0.182909,0.0980967,0.0971019,1.69107
1.07786,0.332012,0.010105,-0.249369,0.113455,0.269183,1.69107
0.762102,-0.0249591,-0.19549,-0.249338,0.137276,0.345238,1.69107
0.628305,-0.388344,-0.27535,-0.197294,0.17395,0.32435,1.69107
0.704983,-0.489527,-0.278841,-0.131652,0.212617,0.236116,1.69107
0.797653,-0.428211,-0.179667,-0.0864275,0.250562,0.222356,1.69107
0.832195,-0.159492,-0.0964869,-0.0863594,0.251348,0.245036,1.69107
0.71515,0.183022,-0.119704,-0.132824,0.240516,0.307983,1.69107
0.559044,0.412773,-0.206697,-0.179366,0.217607,0.391582,1.69107
0.48089,0.492975,-0.276228,-0.180462,0.212678,0.44308,1.69107
0.452958,0.437031,-0.35075,-0.178719,0.211357,0.471304,1.69107
0.370848,0.316471,-0.42577,-0.164532,0.191097,0.503734,1.69107
0.145521,0.0876536,-0.482233,-0.114666,0.154149,0.527851,1.69107
-0.226288,-0.264693,-0.49012,-0.0318981,0.100172,0.513538,1.69107
-0.641178,-0.534365,-0.376105,0.0184277,0.0802212,0.419661,1.69107
-0.922511,-0.813778,-0.25051,0.0578801,0.0600826,0.271459,1.69107
-0.925666,-0.854059,-0.208183,0.0729975,-0.000109553,0.0563804,1.69107
-0.806533,-0.560524,-0.214827,0.0425497,-0.0286002,-0.132409,1.69107
-0.672762,-0.225101,-0.13094,0.0584642,-0.0474974,-0.209238,1.69107
-0.463038,0.0128436,-0.0357114,0.0733048,-0.076414,-0.224006,1.69107
-0.212979,0.140356,0.00230009,0.0410186,-0.101542,-0.183826,1.69107
-0.0738079,0.190576,-0.0350036,-0.00363775,-0.129345,-0.076512,1.69107
-0.0915905,0.202128,-0.13143,-0.0322728,-0.151269,0.0457376,1.69107
-0.226923,0.103894,-0.247114,-0.052183,-0.152225,0.130312,1.69107
-0.37606,-0.0243667,-0.333871,-0.0473326,-0.143597,0.140913,1.69107
-0.48451,-0.141756,-0.323614,-0.0148558,-0.103448,0.0858787,1.69107
-0.471788,-0.185048,-0.21104,0.0231552,-0.070278,-0.0277959,1.69107
-0.348733,-0.0887979,-0.104597,0.0182492,-0.0611225,-0.142387,1.69107
-0.237872,0.0319873,-0.0125789,0.0216852,-0.0799978,-0.208092,1.69107
-0.117223,0.118363,0.0578204,0.0182191,-0.107226,-0.250225,1.69107
0.0445764,0.132455,0.0724704,0.00440133,-0.121256,-0.295676,1.69107
0.0689472,0.0373876,0.0902945,0.0382289,-0.152538,-0.292399,1.69107
-0.0527382,-0.133573,0.0956985,0.0509421,-0.182047,-0.287581,1.69107
-0.164433,-0.257624,0.0290998,0.0599495,-0.232769,-0.351061,1.69107
-0.245019,-0.206956,-0.0787119,0.0414252,-0.225664,-0.45776,1.69107
-0.334916,-0.0539709,-0.118058,0.0346749,-0.167018,-0.51426,1.69107
-0.320222,0.0854217,0.0180537,0.0751562,-0.0814053,-0.5292,1.69107
-0.0740814,0.21995,0.163686,0.0590386,-0.0217585,-0.527461,1.69107
0.370036,0.27754,0.165694,-0.0209141,0.0143428,-0.470845,1.69107
0.790805,0.364906,0.152819,-0.0307424,0.0509895,-0.316944,1.69107
0.981343,0.608032,0.163207,-0.0381738,0.1235,-0.103006,1.69107
0.926534,0.874027,0.170312,-0.0545937,0.178798,0.103072,1.69107
0.691881,0.808226,0.155235,-0.0674164,0.206006,0.292279,1.69107
0.446238,0.430251,0.122753,-0.074756,0.219965,0.400292,1.69107
0.28786,0.0595724,0.100351,-0.0606723,0.229766,0.409656,1.69107
0.28786,0.0595724,0.100351,-0.0606723,0.229766,0.409656,1.79677
0.228729,0.0331737,0.0663848,-0.0697855,0.243648,0.353164,1.79677
0.208539,0.202089,-0.00578457,-0.0788729,0.239072,0.308666,1.79677
0.15605,0.286614,-0.0310022,-0.0554545,0.233632,0.328263,1.79677
0.0889237,0.213501,-0.00116163,-0.0155399,0.229935,0.36431,1.79677
0.0650773,0.105935,0.0430559,0.0131891,0.215371,0.357244,1.79677
0.0617785,0.0646689,0.0601269,0.0129853,0.201854,0.316527,1.79677
0.094888,0.143495,0.0873927,0.0276648,0.186518,0.257703,1.79677
0.0576571,0.17287,0.13796,0.0522566,0.181234,0.256213,1.79677
-0.212952,0.0670814,0.170493,0.0736761,0.158395,0.306942,1.79677
-0.586645,0.01353,0.161725,0.0559784,0.105228,0.281821,1.79677
-0.797688,-0.20625,0.227005,0.0850535,0.0872608,0.193274,1.79677
-0.77313,-0.431046,0.341273,0.101999,0.0753715,0.0524582,1.79677
-0.703228,-0.499316,0.421599,0.0845441,0.0326712,-0.0540645,1.79677
-0.605217,-0.323514,0.393111,0.0160916,-0.020512,-0.146499,1.79677
-0.446121,0.0220435,0.280718,-0.0330087,-0.0876149,-0.210478,1.79677
-0.288495,0.25528,0.214577,-0.0344619,-0.123875,-0.184281,1.79677
-0.2065,0.265929,0.200343,-0.0236333,-0.133945,-0.0695795,1.79677
-0.184243,0.156474,0.147746,-0.041374,-0.146247,0.0285987,1.79677
-0.186407,0.0459772,0.0335126,-0.0692887,-0.155571,0.0845837,1.79677
-0.210747,-0.0214749,-0.0451629,-0.0707848,-0.137272,0.114992,1.79677
-0.251475,-0.0498793,-0.075074,-0.0646101,-0.100826,0.141045,1.79677
-0.36863,-0.0785372,-0.0923643,-0.060139,-0.0727223,0.169201,1.79677
-0.487429,-0.130519,-0.0894802,-0.0479256,-0.0699245,0.169421,1.79677
-0.475627,-0.174421,-0.0775099,-0.028813,-0.0547767,0.111833,1.79677
-0.369895,-0.212253,-0.00755034,0.000921026,-0.0348596,0.0577467,1.79677
-0.281886,-0.137734,0.0589177,0.0335863,-0.0470451,0.0289205,1.79677
-0.291632,-0.0705984,0.097386,0.0496811,-0.0775928,0.0294577,1.79677
-0.388676,-0.206862,0.143766,0.0880511,-0.109369,0.0613577,1.79677
-0.481626,-0.489972,0.168311,0.112434,-0.142846,0.0296971,1.79677
-0.505461,-0.720316,0.208511,0.132317,-0.162461,-0.0907133,1.79677
-0.505422,-0.800392,0.221349,0.122098,-0.160443,-0.250187,1.79677
-0.606758,-0.827118,0.102498,0.0670728,-0.177715,-0.394102,1.79677
-0.628633,-0.730237,-0.0255597,0.0374829,-0.160311,-0.560718,1.79677
-0.443057,-0.476423,-0.0234643,0.0660999,-0.103065,-0.711171,1.79677
-0.199258,-0.287764,0.0847197,0.109058,-0.052288,-0.740528,1.79677
-0.0339944,-0.302483,0.180509,0.104179,-0.0313792,-0.672301,1.79677
0.0941892,-0.242594,0.160597,0.0358065,-0.0442468,-0.619942,1.79677
0.280543,0.00481751,0.0138102,-0.0569132,-0.06184,-0.591028,1.79677
0.568773,0.295482,-0.118458,-0.0901657,-0.0656218,-0.508522,1.79677
0.886454,0.470376,-0.214242,-0.0811132,-0.042066,-0.348069,1.79677
1.12709,0.477402,-0.297257,-0.08334,0.00812279,-0.153435,1.79677
1.13909,0.453763,-0.39422,-0.0996591,0.0519319,0.0336955,1.79677
0.953174,0.344863,-0.47801,-0.118198,0.104467,0.182682,1.79677
0.746237,0.146513,-0.506671,-0.12299,0.162998,0.261109,1.79677
0.652173,-0.114164,-0.487192,-0.111781,0.220168,0.266579,1.79677
0.668942,-0.313184,-0.39666,-0.0812179,0.2525,0.241613,1.79677
0.788902,-0.501543,-0.225927,-0.0466201,0.273872,0.228918,1.79677
0.91103,-0.467131,-0.0276378,-0.045667,0.269783,0.228393,1.79677
0.980264,-0.221241,0.0330957,-0.0814702,0.255678,0.234092,1.79677
0.921718,0.0617062,-0.0236329,-0.13622,0.226528,0.284281,1.79677
0.758951,0.156015,-0.0945448,-0.155886,0.208783,0.373468,1.79677
0.571753,0.054896,-0.109477,-0.127928,0.216879,0.430751,1.79677
0.45179,-0.0408416,-0.0573891,-0.094079,0.2271,0.417296,1.79677
0.345031,-0.0364668,0.0080147,-0.0755002,0.218103,0.397426,1.79677
0.345031,-0.0364668,0.0080147,-0.0755002,0.218103,0.397426,1.94209
0.0914306,0.0102786,0.053706,-0.0622678,0.16812,0.398198,1.94209
-0.271429,-0.0599205,0.0837168,-0.0484454,0.097635,0.405646,1.94209
-0.560472,-0.228448,0.0326022,-0.039357,0.0152375,0.338656,1.94209
-0.686764,-0.494547,-0.032696,-0.0351245,-0.0209994,0.224947,1.94209
-0.614094,-0.702304,-0.0703938,-0.0220055,-0.0375953,0.0790142,1.94209
-0.496273,-0.638468,-0.108774,-0.000131696,-0.0448287,-0.0491406,1.94209
-0.467632,-0.314565,-0.0881176,0.0128795,-0.0409231,-0.124637,1.94209
-0.421472,-0.0224031,-0.0543865,0.00941475,-0.0476222,-0.138475,1.94209
-0.283382,0.0898504,-0.0636847,0.00751038,-0.068777,-0.110763,1.94209
-0.138688,0.157427,-0.0930456,-0.00789972,-0.079524,-0.0496731,1.94209
-0.150284,0.128442,-0.129272,-0.0112132,-0.0811856,0.0544553,1.94209
-0.279088,0.0751435,-0.133074,0.0077657,-0.0862929,0.124014,1.94209
-0.369818,0.088069,-0.0869782,0.0202042,-0.0803806,0.112082,1.94209
-0.375356,0.130945,-0.0341449,0.0197391,-0.0916825,0.0612552,1.94209
-0.343345,0.12009,-0.014687,0.010657,-0.112959,0.0187539,1.94209
-0.312265,0.0776006,-0.0240202,0.00398767,-0.127518,-0.0230851,1.94209
-0.302355,0.122386,-0.0352931,-0.00548084,-0.132057,-0.0869893,1.94209
-0.29479,0.233939,-0.0375276,-0.0232039,-0.121373,-0.154407,1.94209
-0.247581,0.384808,-0.06843,-0.032778,-0.112418,-0.214247,1.94209
-0.195503,0.445453,-0.169243,-0.0625153,-0.0953703,-0.233315,1.94209
-0.277777,0.417761,-0.285704,-0.0564061,-0.0749676,-0.208694,1.94209
-0.486251,0.406596,-0.337336,-0.0212698,-0.0426735,-0.198053,1.94209
-0.566123,0.27944,-0.332944,0.0116865,-6.73681e-05,-0.235484,1.94209
-0.527124,0.263,-0.308149,0.0367797,0.0363195,-0.302664,1.94209
-0.55311,0.220546,-0.265672,0.0463685,0.0615,-0.302548,1.94209
-0.616105,0.147235,-0.236075,0.0694931,0.0597696,-0.282971,1.94209
-0.566934,0.149484,-0.121229,0.100085,0.0718832,-0.294611,1.94209
-0.254846,0.282625,0.101201,0.130125,0.0896465,-0.313116,1.94209
0.15487,0.422749,0.323152,0.115573,0.111979,-0.243681,1.94209
0.361545,0.437052,0.422323,0.0705048,0.0938848,-0.0672755,1.94209
0.299346,0.439187,0.40691,0.0217395,0.0515589,0.0970933,1.94209
0.0930112,0.345344,0.332285,-0.0146432,0.0220789,0.205595,1.94209
-0.0458694,0.193322,0.244962,-0.0137718,0.0122811,0.230502,1.94209
-0.0852625,0.0737873,0.19282,-0.00313716,0.0229021,0.192253,1.94209
-0.116473,-0.0262794,0.115148,-0.0201438,0.0401652,0.159172,1.94209
-0.120194,0.00436894,0.0361132,-0.0162296,0.0183389,0.0954049,1.94209
-0.0847752,0.152022,0.0197494,0.00647831,0.020159,0.0368878,1.94209
0.051339,0.328481,0.0389156,0.0114194,0.0361349,0.00119901,1.94209
0.240384,0.373245,0.0596656,0.0115855,0.0393388,0.0184088,1.94209
0.34026,0.290781,0.0409442,-0.00270025,0.0299478,0.0928852,1.94209
0.326209,0.265421,0.0245744,-0.008081,0.0145954,0.155554,1.94209
0.293359,0.303961,0.00826694,-0.0187749,0.0121559,0.184529,1.94209
0.234075,0.238527,0.000347104,-0.0247279,0.0177224,0.208589,1.94209
0.1629,0.0889332,0.00370155,-0.014245,0.0114163,0.218853,1.94209
0.0762157,-0.0391445,0.00158273,-0.0189175,0.0135932,0.201592,1.94209
0.0260784,-0.080801,-0.00502968,-0.0216735,0.0115734,0.152181,1.94209
0.0303937,-0.0936643,0.0106614,-0.0185316,0.0237614,0.104442,1.94209
0.017781,-0.144085,0.0510318,-0.00577733,0.0261468,0.0905741,1.94209
0.00255492,-0.15149,0.0783289,-0.00889322,0.00591306,0.0742413,1.94209
-0.00950908,-0.158569,0.0424982,-0.0310395,-0.0161231,0.0668138,1.94209
-0.0278975,-0.171057,0.0139177,-0.0207439,-0.041941,0.0661501,1.94209
-0.0130575,-0.18105,0.0219261,-0.00709745,-0.0452253,0.0681247,1.94209
0.0213525,-0.223528,0.0229054,-0.00150262,-0.0487356,0.0745805,1.94209
0.0213525,-0.223528,0.0229054,-0.00150262,-0.0487356,0.0745805,2.12706
-0.00886256,-0.295561,-0.0034697,-0.00569633,-0.0572264,0.0929356,2.12706
-0.119511,-0.353529,-0.0512736,-0.00444771,-0.0614887,0.104577,2.12706
-0.215859,-0.36434,-0.0667636,0.0147633,-0.0629188,0.0772438,2.12706
-0.226512,-0.343886,-0.0558772,0.0342683,-0.0608552,0.0192139,2.12706
-0.204673,-0.29854,-0.0418729,0.0467225,-0.0574926,-0.0279632,2.12706
-0.185152,-0.263075,-0.00470522,0.0679204,-0.0676083,-0.0486031,2.12706
-0.165974,-0.254359,0.053264,0.0980116,-0.074725,-0.0605674,2.12706
-0.155873,-0.304625,0.0963032,0.117803,-0.0913006,-0.0607215,2.12706
-0.182589,-0.408535,0.146993,0.135296,-0.107209,-0.0621717,2.12706
-0.195859,-0.49662,0.233151,0.162765,-0.111019,-0.0912079,2.12706
-0.121995,-0.423298,0.281697,0.15515,-0.113341,-0.178199,2.12706
-0.0553707,-0.291909,0.266917,0.135086,-0.116793,-0.242147,2.12706
-0.146986,-0.334668,0.264847,0.13581,-0.0994552,-0.244568,2.12706
-0.366445,-0.53086,0.283301,0.128021,-0.0687178,-0.263464,2.12706
-0.508194,-0.680493,0.34036,0.106308,-0.0243062,-0.350929,2.12706
-0.458519,-0.69687,0.414031,0.0794743,0.0037303,-0.459288,2.12706
-0.164443,-0.453679,0.383434,0.023357,-0.00442362,-0.554816,2.12706
0.145664,-0.142745,0.25116,-0.039877,-0.0186302,-0.534964,2.12706
0.254513,0.104275,0.058839,-0.0783528,-0.0251372,-0.388205,2.12706
0.269477,0.375895,-0.0790013,-0.085377,0.00293222,-0.230814,2.12706
0.314045,0.605562,-0.141119,-0.0823928,0.0723585,-0.0903625,2.12706
0.376786,0.596049,-0.146171,-0.0930802,0.150225,0.0520578,2.12706
0.368739,0.333726,-0.113594,-0.114987,0.195872,0.167997,2.12706
0.311897,0.0161395,-0.070362,-0.14966,0.225315,0.226124,2.12706
0.233438,-0.225543,-0.0617494,-0.182364,0.23745,0.242645,2.12706
0.181451,-0.123113,-0.143068,-0.219895,0.191526,0.195422,2.12706
0.145637,0.121817,-0.2852,-0.220743,0.133324,0.187656,2.12706
0.138012,0.169481,-0.318108,-0.136534,0.0844671,0.248857,2.12706
0.155441,0.0850505,-0.286595,-0.0769356,0.0548793,0.31833,2.12706
0.202202,-0.0999327,-0.331365,-0.07288,0.00622378,0.35387,2.12706
0.202316,-0.270416,-0.397799,-0.0497211,-0.0111177,0.377645,2.12706
0.125448,-0.277441,-0.366733,-0.00428981,0.0171192,0.358961,2.12706
0.038387,-0.211919,-0.286809,0.0242833,0.0508751,0.302109,2.12706
-0.0252579,-0.134006,-0.182796,0.0699157,0.0671762,0.249091,2.12706
-0.191678,0.13943,-0.129261,0.0737381,0.0648791,0.201317,2.12706
-0.502386,0.466377,-0.131957,0.0388502,0.0412402,0.179355,2.12706
-0.739096,0.382612,-0.104396,0.0389127,0.0115591,0.158472,2.12706
-0.637765,0.0384158,-0.00409516,0.073598,-0.0116367,0.0649403,2.12706
-0.326322,-0.324502,0.124028,0.0854165,-0.0181599,-0.0354996,2.12706
-0.0520374,-0.302776,0.201883,0.0755631,-0.0566234,-0.104329,2.12706
-0.0474567,-0.127799,0.216381,0.0252236,-0.0919436,-0.0924011,2.12706
-0.168492,0.0390512,0.146928,-0.0134259,-0.150565,-0.0545355,2.12706
-0.176022,0.117338,0.0206635,-0.0401853,-0.179994,-0.0478353,2.12706
-0.0609665,0.191605,-0.0631748,-0.039928,-0.164566,-0.060892,2.12706
0.0191499,0.21168,-0.101511,-0.0350101,-0.120789,-0.0315536,2.12706
0.0217505,0.188129,-0.111335,-0.0222669,-0.085801,0.0152106,2.12706
-0.0215784,0.175759,-0.0699801,0.00540213,-0.0556183,0.0383692,2.12706
-0.104032,0.169833,7.51177e-05,0.0198918,-0.0301225,0.0427815,2.12706
-0.217561,0.106297,0.0609551,0.0261189,-0.0334901,0.0309131,2.12706
-0.334055,-0.0289706,0.102489,0.0234683,-0.0589915,-0.0340415,2.12706
-0.347003,-0.0779977,0.178534,0.0379328,-0.0914432,-0.172261,2.12706
-0.227732,-0.109331,0.218014,0.0265153,-0.122908,-0.323575,2.12706
-0.114747,-0.172374,0.242175,0.0559205,-0.176349,-0.424677,2.12706
-0.0951738,-0.308651,0.292358,0.0624144,-0.160457,-0.479658,2.12706
-0.0951738,-0.308651,0.292358,0.0624144,-0.160457,-0.479658,2.32524
-0.0887028,-0.436987,0.257054,0.043018,-0.135147,-0.547916,2.32524
-0.0501961,-0.344591,0.160212,0.0456356,-0.0959703,-0.605401,2.32524
-0.018658,0.0526559,0.177759,0.0565994,0.00212061,-0.59099,2.32524
0.106714,0.435811,0.357909,0.0874128,0.109828,-0.506931,2.32524
0.349469,0.57452,0.61097,0.144092,0.137516,-0.351464,2.32524
0.658465,0.532125,0.691734,0.092569,0.123968,-0.165604,2.32524
0.859326,0.530793,0.587652,-0.00162108,0.135023,0.0278734,2.32524
0.758591,0.564192,0.391448,-0.0562609,0.154517,0.230338,2.32524
0.378247,0.457232,0.210413,-0.0708844,0.184192,0.401954,2.32524
-0.0174236,0.235151,0.152667,-0.022598,0.220197,0.46213,2.32524
-0.173539,-0.00622173,0.235658,0.0267343,0.263078,0.404155,2.32524
-0.0653467,-0.227068,0.406663,0.0716636,0.290787,0.316602,2.32524
0.106001,-0.327734,0.673605,0.0980044,0.302181,0.267009,2.32524
0.20642,-0.248041,0.882394,0.0587705,0.276785,0.237667,2.32524
0.294073,-0.035423,0.949393,-0.00294288,0.20042,0.213445,2.32524
0.325013,0.120738,0.8412,-0.0653157,0.123987,0.23016,2.32524
0.214054,0.259688,0.664617,-0.0781454,0.0686044,0.273867,2.32524
-0.0242367,0.299743,0.571306,-0.0321423,0.0415501,0.300339,2.32524
-0.0942011,0.260787,0.583011,0.0308159,0.0278882,0.251581,2.32524
0.0250269,0.129657,0.652412,0.085974,0.0215826,0.182,2.32524
0.168207,-0.0605058,0.756652,0.115198,0.00501157,0.140919,2.32524
0.158371,-0.22445,0.776224,0.0947974,-0.0153794,0.129922,2.32524
0.0536993,-0.276778,0.76995,0.0760644,-0.0512899,0.0831726,2.32524
-0.00940761,-0.279442,0.757808,0.0731753,-0.0716718,0.0102903,2.32524
-0.0553101,-0.294655,0.740565,0.0452334,-0.0619893,-0.0473255,2.32524
-0.0658997,-0.295917,0.671826,0.0114228,-0.0695667,-0.0991228,2.32524
-0.00540005,-0.222491,0.530161,-0.0307158,-0.0800734,-0.148335,2.32524
0.125039,-0.0566586,0.381429,-0.0317148,-0.0786985,-0.168366,2.32524
0.239723,0.0918214,0.311527,-0.00356304,-0.0563558,-0.130038,2.32524
0.252339,0.128444,0.336246,0.0484443,-0.0222191,-0.0240679,2.32524
0.172828,0.201117,0.333241,0.0592525,-0.0155442,0.0618471,2.32524
0.0438942,0.24229,0.300225,0.0626319,-0.0276392,0.118676,2.32524
-0.0356578,0.278656,0.30987,0.0896264,-0.0285111,0.138409,2.32524
-0.113904,0.276115,0.373073,0.12219,-0.0161419,0.141514,2.32524
-0.128233,0.221781,0.488542,0.142894,-0.0140853,0.137602,2.32524
0.238851,-0.281565,0.546222,0.164676,0.018264,0.120548,2.32524
0.137834,-0.445466,0.705824,0.182087,-0.0310386,0.120826,2.32524
-0.0567297,-0.133801,0.646219,0.0776724,-0.0645268,0.0333452,2.32524
-0.292966,0.267804,0.516073,0.0455215,-0.111086,-0.032828,2.32524
-0.201687,0.186386,0.513587,0.100501,-0.101501,-0.0725836,2.32524
0.087431,-0.0597964,0.598006,0.139545,-0.0929454,-0.129768,2.32524
