rotationRate_x,rotationRate_y,rotationRate_z,acceleration_x,acceleration_y,acceleration_z,relativeAltitude,altitude_pressure
-0.101872,0.263643,0.215537,0.0184563,-0.0908786,-0.0690106,0.001,0.0001
-0.189484,0.15085,0.263679,0.0683658,-0.0965883,-0.102503,0.001,0.0001
-0.202705,0.116537,0.388725,0.118273,-0.0780893,-0.20432,0.001,0.0001
-0.184329,0.213715,0.487373,0.10922,-0.0610027,-0.318342,0.001,0.0001
-0.227566,0.283791,0.519897,0.091379,-0.0765598,-0.373741,0.001,0.0001
-0.324428,0.29206,0.439963,0.0513709,-0.111832,-0.413713,0.001,0.0001
-0.423633,0.243724,0.383583,0.052174,-0.12274,-0.460705,0.001,0.0001
-0.379839,0.277481,0.45945,0.083801,-0.0809366,-0.521229,0.001,0.0001
-0.15652,0.355671,0.616318,0.0972418,-0.00449732,-0.54895,0.001,0.0001
0.214799,0.535809,0.811358,0.0972401,0.0456766,-0.512304,0.001,0.0001
0.674651,0.543327,1.06478,0.114843,0.06751,-0.377176,0.001,0.0001
1.07534,0.532536,1.28399,0.125519,0.0957198,-0.162696,0.001,0.0001
1.20013,0.378466,1.42293,0.104684,0.115242,0.0747989,0.001,0.0001
1.06735,0.113332,1.50636,0.094049,0.101615,0.259343,0.001,0.0001
0.792341,-0.258029,1.51459,0.0881296,0.0843425,0.362036,0.001,0.0001
0.557674,-0.409798,1.42832,0.0704936,0.0692061,0.346904,0.001,0.0001
0.49129,-0.230565,1.2522,0.0376491,0.0739166,0.2407,0.001,0.0001
0.525058,0.0265516,1.08289,0.0310578,0.0976167,0.184111,0.001,0.0001
0.523552,0.136698,1.02103,0.0817991,0.118843,0.223626,0.001,0.0001
0.459098,0.115378,1.00863,0.120234,0.137666,0.297109,0.001,0.0001
0.3861,0.0524673,0.981859,0.118122,0.14403,0.330756,0.001,0.0001
0.314454,0.0118814,0.905364,0.103955,0.135953,0.334145,0.001,0.0001
0.251531,0.0613444,0.817435,0.0956224,0.133368,0.303941,0.001,0.0001
0.153152,0.0935124,0.758861,0.108112,0.143052,0.287876,0.001,0.0001
0.0619895,0.195551,0.740241,0.123636,0.15735,0.246444,0.001,0.0001
-0.0317667,0.252576,0.704403,0.114735,0.160907,0.218838,0.001,0.0001
-0.0859907,0.281108,0.686765,0.102035,0.150485,0.179604,0.001,0.0001
-0.142778,0.237827,0.685741,0.0910895,0.146707,0.151237,0.001,0.0001
-0.158557,0.265673,0.638737,0.0683147,0.117307,0.0929171,0.001,0.0001
-0.201812,0.3042,0.557877,0.0276245,0.109452,0.0489689,0.001,0.0001
-0.271607,0.32417,0.503903,0.0158324,0.0929803,0.0133175,0.001,0.0001
-0.339085,0.351526,0.442184,-0.00241175,0.0784052,-0.0228938,0.001,0.0001
-0.385018,0.383849,0.348361,-0.0436205,0.0507645,-0.0728057,0.001,0.0001
-0.432823,0.345377,0.272932,-0.0601935,0.03081,-0.102203,0.001,0.0001
-0.501759,0.261961,0.164634,-0.0907566,0.0226865,-0.134878,0.001,0.0001
-0.641749,0.181208,0.008315,-0.132709,0.00942756,-0.179801,0.001,0.0001
-0.865299,0.117481,-0.150584,-0.154096,-0.00371712,-0.212023,0.001,0.0001
-0.987826,0.142774,-0.310683,-0.164081,-0.016237,-0.274133,0.001,0.0001
-0.964001,0.177465,-0.450371,-0.149194,-0.0255135,-0.336182,0.001,0.0001
-0.893469,0.126613,-0.561928,-0.128462,-0.010777,-0.34463,0.001,0.0001
-0.849662,-0.109386,-0.650718,-0.101562,-0.0161356,-0.337907,0.001,0.0001
-0.817894,-0.416132,-0.659434,-0.061996,-0.0270204,-0.348941,0.001,0.0001
-0.612394,-0.533391,-0.617645,-0.0380774,-0.0152921,-0.436523,0.001,0.0001
-0.261626,-0.274437,-0.631027,-0.0676828,0.00944311,-0.528756,0.001,0.0001
0.166764,0.191789,-0.628964,-0.0916606,0.0352495,-0.52041,0.001,0.0001
0.489321,0.412901,-0.657345,-0.11305,0.0627243,-0.356982,0.001,0.0001
0.585496,0.313589,-0.68998,-0.119461,0.0640366,-0.108184,0.001,0.0001
0.546026,0.119673,-0.73856,-0.124622,0.0588302,0.0689659,0.001,0.0001
0.433476,-0.0653531,-0.837713,-0.137383,0.0640591,0.173478,0.001,0.0001
0.326315,-0.0661089,-0.914343,-0.143811,0.0718428,0.202347,0.001,0.0001
0.26776,0.026039,-0.987292,-0.154973,0.0920541,0.206151,0.001,0.0001
0.26776,0.026039,-0.987292,-0.154973,0.0920541,0.206151,0.0211487,-0.000274658
0.224686,0.111876,-1.03103,-0.13614,0.0903334,0.229169,0.0211487,-0.000274658
0.196613,0.12597,-1.01771,-0.106512,0.0835381,0.273318,0.0211487,-0.000274658
0.169749,0.0439871,-0.96557,-0.0853214,0.0878198,0.317855,0.0211487,-0.000274658
0.17833,-0.0670106,-0.889263,-0.0657351,0.0738448,0.343618,0.0211487,-0.000274658
0.197424,-0.149345,-0.820814,-0.0630093,0.087554,0.354967,0.0211487,-0.000274658
0.213566,-0.141628,-0.744578,-0.0612333,0.084356,0.361654,0.0211487,-0.000274658
0.191958,-0.211696,-0.705248,-0.0518109,0.0713078,0.387033,0.0211487,-0.000274658
0.129007,-0.274441,-0.693014,-0.0434039,0.0441916,0.387738,0.0211487,-0.000274658
0.0417532,-0.30015,-0.665595,-0.0139094,0.0311882,0.363512,0.0211487,-0.000274658
-0.0554038,-0.298911,-0.615656,0.0229684,0.0344846,0.322237,0.0211487,-0.000274658
-0.112706,-0.26884,-0.572232,0.0488852,0.0207864,0.256014,0.0211487,-0.000274658
-0.163497,-0.233461,-0.567927,0.0592839,-0.00218411,0.186511,0.0211487,-0.000274658
-0.315728,-0.0269084,-0.590053,0.0669129,-0.0114036,0.141093,0.0211487,-0.000274658
-0.581646,0.466864,-0.571344,0.113759,-0.0442145,0.0924633,0.0211487,-0.000274658
-0.856544,0.866679,-0.513383,0.121769,-0.0685591,0.0560688,0.0211487,-0.000274658
-0.932426,0.829552,-0.389956,0.149985,-0.109464,-0.00568748,0.0211487,-0.000274658
-0.817402,0.346026,-0.271179,0.157344,-0.130441,-0.0852379,0.0211487,-0.000274658
-0.546477,-0.337578,-0.160622,0.166433,-0.150225,-0.192112,0.0211487,-0.000274658
-0.382122,-0.711616,-0.0990721,0.185209,-0.149501,-0.322284,0.0211487,-0.000274658
-0.431966,-0.433939,-0.0479295,0.185635,-0.144725,-0.474969,0.0211487,-0.000274658
-0.550893,0.0602509,0.0381588,0.180585,-0.14944,-0.570895,0.0211487,-0.000274658
-0.472043,0.344161,0.189659,0.159456,-0.114589,-0.640653,0.0211487,-0.000274658
-0.173257,0.21124,0.329208,0.140367,-0.0895148,-0.649643,0.0211487,-0.000274658
0.154787,0.0705308,0.360128,0.102879,-0.0946743,-0.640485,0.0211487,-0.000274658
0.338452,0.12489,0.384247,0.066238,-0.0653691,-0.588631,0.0211487,-0.000274658
0.45337,0.393655,0.453887,0.0678599,-0.0238645,-0.502294,0.0211487,-0.000274658
0.612735,0.621692,0.587929,0.0729424,0.0198423,-0.393246,0.0211487,-0.000274658
0.886625,0.641295,0.775896,0.0745211,0.0587055,-0.252746,0.0211487,-0.000274658
1.11034,0.395677,0.90298,0.0363935,0.1004,-0.0792035,0.0211487,-0.000274658
1.18948,0.11536,0.911579,-0.0254876,0.113469,0.0783193,0.0211487,-0.000274658
1.10338,-0.0705026,0.789172,-0.0791955,0.112772,0.195503,0.0211487,-0.000274658
0.895978,0.00401978,0.602095,-0.112093,0.115652,0.263101,0.0211487,-0.000274658
0.633145,0.211934,0.453556,-0.106809,0.139328,0.307422,0.0211487,-0.000274658
0.379925,0.2372,0.388082,-0.0783725,0.158665,0.371563,0.0211487,-0.000274658
0.248401,0.0838789,0.397993,-0.0393256,0.163113,0.400767,0.0211487,-0.000274658
0.243415,-0.137497,0.42313,-0.0150181,0.166241,0.385386,0.0211487,-0.000274658
0.3103,-0.287054,0.427026,0.00239607,0.159111,0.34579,0.0211487,-0.000274658
0.348565,-0.225797,0.444126,0.0125835,0.165194,0.299756,0.0211487,-0.000274658
0.344105,-0.0211877,0.478326,0.0099939,0.18911,0.277233,0.0211487,-0.000274658
0.302436,0.0778792,0.503463,-0.000479691,0.187884,0.279636,0.0211487,-0.000274658
0.231392,0.0098096,0.523326,0.0100849,0.156456,0.301184,0.0211487,-0.000274658
0.167623,-0.00568358,0.554713,0.0239897,0.124599,0.285075,0.0211487,-0.000274658
0.134349,0.0750596,0.537916,0.00863945,0.0979487,0.243106,0.0211487,-0.000274658
0.0677431,0.166928,0.494517,0.00872673,0.0632541,0.220036,0.0211487,-0.000274658
-0.0849923,0.160694,0.495623,0.0443677,0.0301468,0.224467,0.0211487,-0.000274658
-0.241508,0.0477637,0.513885,0.0756048,0.000614181,0.200846,0.0211487,-0.000274658
-0.323419,-0.021803,0.512101,0.0739703,-0.0384555,0.125978,0.0211487,-0.000274658
-0.411413,-0.110635,0.542821,0.0890784,-0.0632754,0.0506341,0.0211487,-0.000274658
-0.457602,-0.0724891,0.554996,0.0593928,-0.0616773,-0.045432,0.0211487,-0.000274658
-0.456411,0.0753507,0.486404,-0.00157002,-0.0630097,-0.138717,0.0211487,-0.000274658
-0.449499,0.165874,0.461241,-0.00759639,-0.0758724,-0.186033,0.0211487,-0.000274658
-0.449499,0.165874,0.461241,-0.00759639,-0.0758724,-0.186033,0.0237732,-0.000267029
-0.455361,0.0919821,0.533662,0.0101819,-0.0759374,-0.196024,0.0237732,-0.000267029
-0.442717,-0.105699,0.589884,0.00435031,-0.0786423,-0.208737,0.0237732,-0.000267029
-0.492411,-0.391634,0.568015,-0.0322472,-0.1041,-0.23035,0.0237732,-0.000267029
-0.605745,-0.518265,0.46923,-0.0836869,-0.129236,-0.294199,0.0237732,-0.000267029
-0.66635,-0.421511,0.30785,-0.115239,-0.147747,-0.408118,0.0237732,-0.000267029
-0.671026,-0.277149,0.140286,-0.135312,-0.133441,-0.481137,0.0237732,-0.000267029
-0.612433,-0.265747,0.07857,-0.0898779,-0.094627,-0.482836,0.0237732,-0.000267029
-0.46259,-0.350371,0.11187,-0.0152258,-0.0584753,-0.460961,0.0237732,-0.000267029
-0.252248,-0.347511,0.179069,0.0225458,-0.0223912,-0.431084,0.0237732,-0.000267029
-0.054553,-0.241418,0.232111,0.0310542,0.0133679,-0.376814,0.0237732,-0.000267029
0.142488,-0.138537,0.348222,0.0414048,0.0586254,-0.287841,0.0237732,-0.000267029
0.423954,-0.106127,0.544059,0.0602369,0.0875011,-0.189508,0.0237732,-0.000267029
0.735641,-0.141881,0.636405,0.00777422,0.119363,-0.0778994,0.0237732,-0.000267029
0.892752,-0.316186,0.565213,-0.0656948,0.125671,0.0725257,0.0237732,-0.000267029
0.811034,-0.500339,0.377762,-0.0908535,0.10117,0.199135,0.0237732,-0.000267029
0.53059,-0.570242,0.148497,-0.100393,0.0894143,0.271283,0.0237732,-0.000267029
0.247733,-0.46677,-0.0599519,-0.0917782,0.0834172,0.263749,0.0237732,-0.000267029
0.142365,-0.292739,-0.232721,-0.0885942,0.0865105,0.20762,0.0237732,-0.000267029
0.169424,-0.157419,-0.39862,-0.090889,0.0831424,0.17243,0.0237732,-0.000267029
0.211777,-0.0762896,-0.538178,-0.089,0.0768532,0.19299,0.0237732,-0.000267029
0.223227,-0.0191969,-0.691773,-0.109165,0.071559,0.227957,0.0237732,-0.000267029
0.217694,-0.0126644,-0.834117,-0.121443,0.0741565,0.27453,0.0237732,-0.000267029
0.225231,0.0119065,-0.977961,-0.124725,0.0733223,0.291673,0.0237732,-0.000267029
0.196581,0.05561,-1.11727,-0.149643,0.093043,0.308565,0.0237732,-0.000267029
0.110587,0.0589494,-1.20727,-0.155716,0.107978,0.335126,0.0237732,-0.000267029
0.0274581,0.0273433,-1.24543,-0.135934,0.110751,0.328613,0.0237732,-0.000267029
-0.0461066,-0.014236,-1.23272,-0.119863,0.12313,0.310175,0.0237732,-0.000267029
-0.0737688,-0.195855,-1.19937,-0.0741295,0.0980238,0.270671,0.0237732,-0.000267029
-0.0363206,-0.260105,-1.12401,-0.0256134,0.0851428,0.184058,0.0237732,-0.000267029
-0.0713654,-0.253587,-1.04716,-0.000359781,0.0806828,0.129079,0.0237732,-0.000267029
-0.284627,-0.299075,-0.92422,0.0507611,0.0429441,0.12534,0.0237732,-0.000267029
-0.59404,-0.408678,-0.78532,0.0958762,-0.00273845,0.113816,0.0237732,-0.000267029
-0.807906,-0.496846,-0.567697,0.147584,-0.0399279,0.0283162,0.0237732,-0.000267029
-0.865949,-0.574408,-0.257023,0.192422,-0.0466154,-0.0832404,0.0237732,-0.000267029
-0.793141,-0.602425,0.0724659,0.21904,-0.0596461,-0.195542,0.0237732,-0.000267029
-0.689959,-0.609171,0.340578,0.21249,-0.098494,-0.284217,0.0237732,-0.000267029
-0.55258,-0.492505,0.486874,0.180813,-0.171622,-0.377339,0.0237732,-0.000267029
-0.483803,-0.371487,0.53706,0.128592,-0.217311,-0.424394,0.0237732,-0.000267029
-0.380738,-0.267069,0.517932,0.0866041,-0.252712,-0.471243,0.0237732,-0.000267029
-0.158784,-0.155494,0.44303,0.0755375,-0.266479,-0.519862,0.0237732,-0.000267029
0.10621,0.0943355,0.401864,0.0936782,-0.226856,-0.524631,0.0237732,-0.000267029
0.272417,0.258082,0.445993,0.124293,-0.159849,-0.443241,0.0237732,-0.000267029
0.419094,0.204735,0.548272,0.163205,-0.119727,-0.319868,0.0237732,-0.000267029
0.710141,0.0850752,0.696343,0.194056,-0.0945952,-0.248604,0.0237732,-0.000267029
1.08496,0.0761147,0.857929,0.214323,-0.0563741,-0.191108,0.0237732,-0.000267029
1.26477,0.206237,0.981137,0.211206,-0.0102248,-0.0769204,0.0237732,-0.000267029
1.10348,0.33901,1.05847,0.212864,-0.00330307,0.0821553,0.0237732,-0.000267029
0.784909,0.341177,1.08501,0.203948,-0.0261381,0.190607,0.0237732,-0.000267029
0.558308,0.230824,1.00752,0.162762,-0.0380919,0.2097,0.0237732,-0.000267029
0.488957,0.168811,0.9279,0.15661,-0.0375951,0.16079,0.0237732,-0.000267029
0.488957,0.168811,0.9279,0.15661,-0.0375951,0.16079,0.161179,-0.00191498
0.533511,0.228762,0.935808,0.178659,0.00764018,0.102855,0.161179,-0.00191498
0.607605,0.41106,1.00555,0.188666,0.0686391,0.0876341,0.161179,-0.00191498
0.616294,0.566357,1.06923,0.184651,0.0982979,0.12518,0.161179,-0.00191498
0.552732,0.602662,1.10632,0.168311,0.0980168,0.182353,0.161179,-0.00191498
0.533634,0.597542,1.13631,0.151281,0.100843,0.218244,0.161179,-0.00191498
0.494455,0.56149,1.13014,0.125629,0.11482,0.250332,0.161179,-0.00191498
0.419847,0.59739,1.09231,0.0972213,0.106062,0.270709,0.161179,-0.00191498
0.315234,0.65256,1.03664,0.0681949,0.108503,0.275784,0.161179,-0.00191498
0.195591,0.656913,0.995681,0.0428527,0.119697,0.270108,0.161179,-0.00191498
0.13285,0.680446,0.9391,0.0230164,0.11893,0.228454,0.161179,-0.00191498
0.130049,0.747686,0.845628,-0.00528998,0.11834,0.173593,0.161179,-0.00191498
0.121927,0.748159,0.776261,-0.0109671,0.114807,0.149539,0.161179,-0.00191498
0.0877444,0.646103,0.727729,0.00358111,0.101059,0.129303,0.161179,-0.00191498
-0.0261681,0.542885,0.691554,0.00605033,0.0940312,0.0979517,0.161179,-0.00191498
-0.161327,0.481959,0.696205,0.0206909,0.0818672,0.0432044,0.161179,-0.00191498
-0.155593,0.444814,0.731197,0.0280078,0.0771226,-0.053933,0.161179,-0.00191498
-0.110417,0.454995,0.707047,0.00834274,0.069092,-0.127121,0.161179,-0.00191498
-0.173045,0.482691,0.685626,-0.00378866,0.052276,-0.133438,0.161179,-0.00191498
-0.366794,0.385167,0.652562,-0.000645094,0.0284987,-0.100967,0.161179,-0.00191498
-0.64009,0.353289,0.57478,-0.0168629,0.00407729,-0.107008,0.161179,-0.00191498
-0.914868,0.344974,0.470541,-0.0556391,-0.0205012,-0.149922,0.161179,-0.00191498
-1.07237,0.326512,0.374451,-0.0785801,-0.0462364,-0.220847,0.161179,-0.00191498
-1.0904,0.260909,0.299532,-0.0954456,-0.0530057,-0.277484,0.161179,-0.00191498
-1.01019,0.156514,0.231158,-0.0963864,-0.0591061,-0.30848,0.161179,-0.00191498
-0.913051,0.0971992,0.189364,-0.0904774,-0.0508033,-0.311435,0.161179,-0.00191498
-0.833097,0.0303294,0.168679,-0.0711115,-0.0570291,-0.292985,0.161179,-0.00191498
-0.74716,-0.0474167,0.13371,-0.0804589,-0.0564586,-0.28251,0.161179,-0.00191498
-0.466485,-0.133642,0.131783,-0.0707062,-0.0468069,-0.31023,0.161179,-0.00191498
-0.0589462,-0.00262922,0.154918,-0.0373116,-0.032772,-0.330671,0.161179,-0.00191498
0.224642,0.207437,0.241141,-0.0195753,0.0199538,-0.246581,0.161179,-0.00191498
0.243624,0.0752398,0.341198,-0.013789,0.0417617,-0.0662358,0.161179,-0.00191498
0.243118,-0.185623,0.36766,-0.0209383,0.020681,0.0352007,0.161179,-0.00191498
0.327336,-0.328126,0.296186,-0.0662423,0.0113813,0.0379847,0.161179,-0.00191498
0.45271,-0.270661,0.258575,-0.0746198,0.0407637,0.0265499,0.161179,-0.00191498
0.549373,-0.137655,0.261484,-0.0581273,0.0713841,0.0639698,0.161179,-0.00191498
0.594089,-0.0785509,0.265946,-0.0494062,0.0931542,0.141671,0.161179,-0.00191498
0.620984,-0.0792792,0.243359,-0.0401409,0.0931393,0.223582,0.161179,-0.00191498
0.646802,-0.128118,0.204009,-0.0365249,0.0958483,0.288434,0.161179,-0.00191498
0.656968,-0.209958,0.150504,-0.0343518,0.101478,0.335728,0.161179,-0.00191498
0.601687,-0.24568,0.0997437,-0.0338636,0.116371,0.371414,0.161179,-0.00191498
0.474424,-0.21833,0.0445847,-0.0394754,0.126612,0.385927,0.161179,-0.00191498
0.356657,-0.13939,-0.00407259,-0.0456193,0.127947,0.36837,0.161179,-0.00191498
0.224275,-0.123787,-0.0542104,-0.0500686,0.128902,0.352668,0.161179,-0.00191498
0.0857909,-0.129381,-0.0868563,-0.0471979,0.117271,0.330813,0.161179,-0.00191498
-0.0545064,-0.144581,-0.153342,-0.0610623,0.0966334,0.289162,0.161179,-0.00191498
-0.199407,-0.171542,-0.212375,-0.059712,0.0671889,0.238768,0.161179,-0.00191498
-0.272973,-0.138736,-0.220278,-0.0422256,0.0503557,0.161506,0.161179,-0.00191498
-0.291692,-0.0346921,-0.221214,-0.0542964,0.058419,0.0856834,0.161179,-0.00191498
-0.374246,-0.0102775,-0.172724,-0.0425202,0.0405194,0.0675408,0.161179,-0.00191498
-0.463491,0.0467702,-0.142958,-0.0466912,0.000584051,0.0464994,0.161179,-0.00191498
-0.508766,0.106472,-0.145827,-0.0756908,-0.024108,0.0247793,0.161179,-0.00191498
-0.508766,0.106472,-0.145827,-0.0756908,-0.024108,0.0247793,0.182327,-0.0021286
-0.527002,0.209548,-0.148623,-0.0854936,-0.0612636,0.0149531,0.182327,-0.0021286
-0.542504,0.245118,-0.164458,-0.103295,-0.0855127,0.0378833,0.182327,-0.0021286
-0.532529,0.221204,-0.16727,-0.0884866,-0.125142,0.0559394,0.182327,-0.0021286
-0.445998,0.224737,-0.146431,-0.0671351,-0.151389,0.0507697,0.182327,-0.0021286
-0.362368,0.240389,-0.108771,-0.0319552,-0.168121,0.0515633,0.182327,-0.0021286
-0.289636,0.132389,-0.0215913,0.00967871,-0.181724,0.0516722,0.182327,-0.0021286
-0.127011,-0.022906,0.0680441,0.0498245,-0.19577,0.0156689,0.182327,-0.0021286
0.0242028,-0.105365,0.140899,0.0837646,-0.19822,-0.0446847,0.182327,-0.0021286
0.0912162,0.00975314,0.250224,0.130953,-0.19074,-0.102635,0.182327,-0.0021286
0.0395272,0.13459,0.351325,0.153849,-0.176725,-0.126557,0.182327,-0.0021286
-0.0305972,0.0900593,0.460352,0.196484,-0.182206,-0.151978,0.182327,-0.0021286
-0.15735,-0.328581,0.53155,0.177627,-0.156521,-0.191845,0.182327,-0.0021286
-0.165705,-0.606259,0.583399,0.157575,-0.144821,-0.319942,0.182327,-0.0021286
-0.0241967,-0.38055,0.556994,0.112581,-0.107751,-0.476772,0.182327,-0.0021286
0.153487,0.0155501,0.610288,0.0981182,-0.0326503,-0.507517,0.182327,-0.0021286
0.338177,0.415211,0.791835,0.132612,0.0167662,-0.417671,0.182327,-0.0021286
0.540363,0.651835,0.985979,0.142605,0.0571085,-0.244391,0.182327,-0.0021286
0.704163,0.714006,1.15296,0.124056,0.0824964,-0.0256535,0.182327,-0.0021286
0.805393,0.675691,1.25786,0.0906679,0.0878392,0.17648,0.182327,-0.0021286
0.757019,0.576802,1.25938,0.0612319,0.0714262,0.335635,0.182327,-0.0021286
0.490277,0.211746,1.29575,0.0979975,0.0459533,0.460838,0.182327,-0.0021286
0.186995,-0.265692,1.41295,0.177677,0.0215319,0.487986,0.182327,-0.0021286
-0.0113496,-0.406376,1.50087,0.196207,0.018743,0.375101,0.182327,-0.0021286
-0.172298,-0.342546,1.5771,0.183646,0.0359785,0.24622,0.182327,-0.0021286
-0.237921,-0.212705,1.59247,0.179635,0.0064249,0.114462,0.182327,-0.0021286
-0.195249,-0.0516388,1.51773,0.153463,-0.0101579,0.007191,0.182327,-0.0021286
-0.132033,0.0961178,1.41524,0.148836,-0.0128667,-0.0475475,0.182327,-0.0021286
-0.100866,0.144,1.35102,0.177502,-0.0250989,-0.0541928,0.182327,-0.0021286
-0.0526445,0.144032,1.33751,0.216219,-0.0262977,-0.0573927,0.182327,-0.0021286
0.0608987,0.116088,1.32334,0.235698,-0.0205864,-0.0723725,0.182327,-0.0021286
0.230857,0.135507,1.27208,0.230191,-0.0164908,-0.0871449,0.182327,-0.0021286
0.274524,0.238953,1.17139,0.214559,-0.0183663,-0.0593272,0.182327,-0.0021286
0.185385,0.394532,1.09716,0.211846,-0.0178235,-0.0119611,0.182327,-0.0021286
0.0914408,0.461411,1.05176,0.199549,-0.00671719,0.0213717,0.182327,-0.0021286
0.0913382,0.43513,1.0267,0.19188,-0.00674172,0.0135943,0.182327,-0.0021286
0.152099,0.364359,1.01286,0.168358,-0.00840551,-0.0103286,0.182327,-0.0021286
0.215502,0.391134,0.988275,0.139623,-0.020782,-0.0516298,0.182327,-0.0021286
0.236508,0.47325,0.916786,0.0953258,-0.0320464,-0.074102,0.182327,-0.0021286
0.195717,0.539164,0.835587,0.0511085,-0.0347046,-0.0847442,0.182327,-0.0021286
0.118376,0.549173,0.788757,0.0296999,-0.038518,-0.0860672,0.182327,-0.0021286
0.0783639,0.509703,0.754801,0.00132674,-0.0369496,-0.105471,0.182327,-0.0021286
0.0505628,0.381805,0.695995,-0.0304329,-0.0356483,-0.126826,0.182327,-0.0021286
-0.0566962,0.201751,0.632101,-0.0546094,-0.0368119,-0.134582,0.182327,-0.0021286
-0.285546,0.0304472,0.563668,-0.0713303,-0.0337171,-0.148307,0.182327,-0.0021286
-0.56561,-0.136413,0.522359,-0.0906037,-0.030131,-0.192501,0.182327,-0.0021286
-0.730513,-0.227829,0.491822,-0.121439,-0.0230658,-0.291636,0.182327,-0.0021286
-0.700764,-0.156486,0.434601,-0.162431,-0.0156776,-0.408754,0.182327,-0.0021286
-0.566852,-0.0142097,0.334027,-0.192843,-0.00401545,-0.452276,0.182327,-0.0021286
-0.474585,-0.0840263,0.246177,-0.167313,0.00829668,-0.377924,0.182327,-0.0021286
-0.452292,-0.300576,0.222785,-0.108117,0.0115917,-0.279305,0.182327,-0.0021286
-0.340068,-0.308185,0.242758,-0.0707063,0.0292722,-0.266225,0.182327,-0.0021286
0.00835881,-0.14502,0.285465,-0.0733784,0.0722219,-0.276611,0.182327,-0.0021286
0.372743,0.0622299,0.278003,-0.0799349,0.103905,-0.199035,0.182327,-0.0021286
0.468494,0.138683,0.202046,-0.100665,0.1157,-0.0416741,0.182327,-0.0021286
0.36288,-0.0262442,0.107004,-0.109666,0.11966,0.102465,0.182327,-0.0021286
0.19926,-0.331717,-0.0272813,-0.0964388,0.0994515,0.16811,0.182327,-0.0021286
0.174168,-0.386674,-0.16017,-0.0957773,0.106837,0.130328,0.182327,-0.0021286
0.242297,-0.245074,-0.309674,-0.120793,0.149957,0.0747918,0.182327,-0.0021286
0.276445,-0.0990307,-0.432641,-0.111048,0.172165,0.0918459,0.182327,-0.0021286
0.250962,-0.036347,-0.52301,-0.0811179,0.175899,0.156062,0.182327,-0.0021286
0.203431,-0.0417622,-0.581031,-0.0522527,0.176535,0.216739,0.182327,-0.0021286
0.185426,-0.0478992,-0.629521,-0.0319447,0.179807,0.257176,0.182327,-0.0021286
0.17235,-0.0440354,-0.644498,-0.00674168,0.176271,0.287763,0.182327,-0.0021286
0.120205,-0.0367484,-0.640936,0.0163732,0.172169,0.324596,0.182327,-0.0021286
0.0362975,-0.0454194,-0.629329,0.0333221,0.153767,0.357185,0.182327,-0.0021286
-0.0455867,-0.0658414,-0.633454,0.0396079,0.117776,0.36668,0.182327,-0.0021286
-0.0964531,-0.152027,-0.640823,0.0616473,0.0748271,0.360355,0.182327,-0.0021286
-0.198755,-0.287802,-0.570055,0.107912,0.0466946,0.339402,0.182327,-0.0021286
-0.323628,-0.384903,-0.474147,0.132002,-0.00284581,0.28316,0.182327,-0.0021286
-0.420693,-0.429649,-0.406734,0.131179,-0.043947,0.190922,0.182327,-0.0021286
-0.486442,-0.41954,-0.376024,0.129303,-0.0954019,0.0862318,0.182327,-0.0021286
-0.57196,-0.336122,-0.409467,0.112232,-0.136935,-0.0089007,0.182327,-0.0021286
-0.613116,-0.208804,-0.419326,0.116975,-0.158328,-0.108027,0.182327,-0.0021286
-0.491208,-0.0709978,-0.350573,0.141939,-0.153068,-0.212773,0.182327,-0.0021286
-0.282595,0.0903658,-0.200869,0.158484,-0.116144,-0.284802,0.182327,-0.0021286
-0.282595,0.0903658,-0.200869,0.158484,-0.116144,-0.284802,0.251022,-0.00297546
-0.0892373,0.164592,-0.0186802,0.156544,-0.103724,-0.305883,0.251022,-0.00297546
0.0310111,0.144396,0.0489814,0.130207,-0.133899,-0.292937,0.251022,-0.00297546
0.0521849,0.183885,0.0620067,0.108977,-0.153391,-0.288375,0.251022,-0.00297546
0.0349478,0.363043,0.0511367,0.0798541,-0.138772,-0.313964,0.251022,-0.00297546
0.0518368,0.634683,0.0730213,0.0695621,-0.122323,-0.343047,0.251022,-0.00297546
0.121297,0.860536,0.145534,0.0722393,-0.0904866,-0.338232,0.251022,-0.00297546
0.154685,0.870539,0.196864,0.0682002,-0.0783889,-0.268552,0.251022,-0.00297546
0.0899921,0.700631,0.241556,0.0793599,-0.0873288,-0.182212,0.251022,-0.00297546
-0.0263749,0.555166,0.237848,0.0584544,-0.0796876,-0.143395,0.251022,-0.00297546
-0.071753,0.461221,0.269526,0.0418648,-0.0519623,-0.156378,0.251022,-0.00297546
0.0770811,0.433387,0.364854,0.0596961,-0.00478834,-0.198509,0.251022,-0.00297546
0.345336,0.556602,0.465799,0.0623289,0.0472413,-0.214633,0.251022,-0.00297546
0.589833,0.783602,0.581173,0.0745087,0.0789531,-0.154378,0.251022,-0.00297546
0.655539,0.732353,0.712042,0.0869921,0.107828,-0.00744754,0.251022,-0.00297546
0.620554,0.405835,0.868451,0.103611,0.127137,0.117235,0.251022,-0.00297546
0.614447,0.114667,0.947485,0.0871183,0.129598,0.140532,0.251022,-0.00297546
0.600488,0.0560331,0.953661,0.0525316,0.139426,0.117191,0.251022,-0.00297546
0.48337,0.128596,0.941706,0.0258137,0.15775,0.122942,0.251022,-0.00297546
0.343801,0.19911,0.908252,0.020902,0.147108,0.142402,0.251022,-0.00297546
0.285026,0.244154,0.863649,0.0160308,0.143351,0.15863,0.251022,-0.00297546
0.277942,0.244211,0.843996,0.017922,0.151379,0.191221,0.251022,-0.00297546
0.276976,0.234164,0.855407,0.0301113,0.147224,0.231326,0.251022,-0.00297546
0.237134,0.20027,0.848676,0.0289033,0.149382,0.28302,0.251022,-0.00297546
0.149348,0.187452,0.833202,0.0194583,0.14285,0.3251,0.251022,-0.00297546
0.0660372,0.154265,0.811957,0.0177503,0.13113,0.343089,0.251022,-0.00297546
0.0164157,0.127248,0.77957,0.00637773,0.126663,0.336295,0.251022,-0.00297546
-0.00655617,0.113652,0.770467,0.006885,0.116976,0.310905,0.251022,-0.00297546
-0.0655906,0.108912,0.74908,0.0037602,0.115292,0.299979,0.251022,-0.00297546
-0.169238,0.0636545,0.708193,0.00176438,0.105112,0.288236,0.251022,-0.00297546
-0.259561,-0.0287982,0.683023,0.022252,0.0785075,0.248506,0.251022,-0.00297546
-0.343221,-0.108715,0.681368,0.0374556,0.0746066,0.178649,0.251022,-0.00297546
-0.401637,-0.13184,0.697512,0.0357304,0.0717141,0.0792743,0.251022,-0.00297546
-0.485777,-0.0996866,0.622642,0.0151149,0.0365721,-0.0163011,0.251022,-0.00297546
-0.559553,-0.0392352,0.496446,-0.0306712,-0.000507027,-0.107038,0.251022,-0.00297546
-0.556518,-0.0196941,0.408798,-0.0297135,-0.014345,-0.173485,0.251022,-0.00297546
-0.644433,-0.12311,0.370823,-0.00253887,-0.00195791,-0.18003,0.251022,-0.00297546
-0.856816,-0.234899,0.303168,-0.0108827,-0.0208595,-0.18977,0.251022,-0.00297546
-1.0087,-0.366733,0.198029,-0.0261541,-0.0550449,-0.265263,0.251022,-0.00297546
-0.92387,-0.453179,0.171665,-0.0241224,-0.05373,-0.395859,0.251022,-0.00297546
-0.613241,-0.415221,0.218378,-0.00420131,-0.0338775,-0.505873,0.251022,-0.00297546
-0.371798,-0.354711,0.246327,-0.0130458,-0.00798689,-0.508776,0.251022,-0.00297546
-0.327969,-0.346982,0.177039,-0.0401716,-0.0326803,-0.416812,0.251022,-0.00297546
-0.429537,-0.410707,0.0124954,-0.0732456,-0.0643886,-0.321518,0.251022,-0.00297546
-0.496131,-0.400457,-0.132543,-0.0812355,-0.0653491,-0.291062,0.251022,-0.00297546
-0.427418,-0.279051,-0.228126,-0.0728996,-0.0426251,-0.319832,0.251022,-0.00297546
-0.244483,-0.0974127,-0.293824,-0.0755185,-0.0105686,-0.339834,0.251022,-0.00297546
0.0186686,0.118216,-0.349393,-0.0881516,0.0117068,-0.314291,0.251022,-0.00297546
0.269742,0.286394,-0.40251,-0.112434,0.0511458,-0.217137,0.251022,-0.00297546
0.424025,0.323058,-0.391839,-0.110114,0.086174,-0.0687479,0.251022,-0.00297546
0.514455,0.133715,-0.363382,-0.104415,0.103436,0.0600013,0.251022,-0.00297546
0.565577,-0.103478,-0.404485,-0.138647,0.119406,0.134944,0.251022,-0.00297546
0.529703,-0.227538,-0.559102,-0.192199,0.131878,0.165165,0.251022,-0.00297546
0.389942,-0.176518,-0.740222,-0.210232,0.138887,0.181976,0.251022,-0.00297546
0.234832,-0.0130656,-0.889898,-0.201043,0.152094,0.188767,0.251022,-0.00297546
0.234832,-0.0130656,-0.889898,-0.201043,0.152094,0.188767,0.0132141,-0.000152588
0.160731,0.150023,-0.954536,-0.162738,0.168044,0.200311,0.0132141,-0.000152588
0.215693,0.24223,-0.92854,-0.110473,0.174479,0.220856,0.0132141,-0.000152588
0.322651,0.25319,-0.854135,-0.075279,0.176796,0.27442,0.0132141,-0.000152588
0.381749,0.140756,-0.800119,-0.0727464,0.172196,0.35415,0.0132141,-0.000152588
0.403974,0.0341915,-0.819667,-0.1002,0.147104,0.398886,0.0132141,-0.000152588
0.332514,-0.0576869,-0.916671,-0.120433,0.123006,0.43258,0.0132141,-0.000152588
0.143413,-0.128833,-1.00728,-0.101458,0.0950098,0.454989,0.0132141,-0.000152588
-0.142038,-0.187685,-1.04265,-0.0655891,0.10156,0.475557,0.0132141,-0.000152588
-0.426545,-0.27091,-1.06668,-0.0411928,0.0983987,0.451238,0.0132141,-0.000152588
-0.649593,-0.382466,-1.10647,-0.0255701,0.0740125,0.389603,0.0132141,-0.000152588
-0.765597,-0.47625,-1.15006,-0.00438763,0.0547459,0.294263,0.0132141,-0.000152588
-0.766182,-0.532032,-1.15145,0.0302379,0.0341487,0.165857,0.0132141,-0.000152588
-0.73686,-0.542305,-1.052,0.0798404,0.0424508,0.0586186,0.0132141,-0.000152588
-0.731373,-0.501297,-0.882385,0.133751,0.0368256,-0.0192589,0.0132141,-0.000152588
-0.775036,-0.400281,-0.707912,0.15417,0.00494815,-0.0913264,0.0132141,-0.000152588
-0.776083,-0.249557,-0.577601,0.136698,-0.0409337,-0.165638,0.0132141,-0.000152588
-0.640927,-0.116847,-0.529488,0.110157,-0.0935692,-0.250887,0.0132141,-0.000152588
-0.391544,0.0930129,-0.494843,0.0888784,-0.138106,-0.327057,0.0132141,-0.000152588
-0.189344,0.224096,-0.375756,0.10543,-0.150718,-0.320648,0.0132141,-0.000152588
-0.117495,0.205774,-0.257208,0.107432,-0.157635,-0.263281,0.0132141,-0.000152588
-0.131279,0.115209,-0.206791,0.0758452,-0.193831,-0.238146,0.0132141,-0.000152588
-0.238275,0.00477321,-0.296212,0.0265707,-0.219672,-0.248576,0.0132141,-0.000152588
-0.35339,0.18363,-0.482012,-0.0206504,-0.239554,-0.317678,0.0132141,-0.000152588
-0.433896,0.434574,-0.566148,0.00179521,-0.195338,-0.361464,0.0132141,-0.000152588
-0.403691,0.546122,-0.44683,0.106158,-0.138818,-0.366046,0.0132141,-0.000152588
-0.34097,0.549376,-0.236919,0.164661,-0.090881,-0.360784,0.0132141,-0.000152588
-0.221094,0.520105,0.00741726,0.171633,-0.0594015,-0.347211,0.0132141,-0.000152588
0.047134,0.389317,0.25197,0.16048,-0.0511975,-0.329144,0.0132141,-0.000152588
0.422619,0.275164,0.489024,0.161621,-0.0364393,-0.286069,0.0132141,-0.000152588
0.704762,0.23311,0.748,0.159866,0.00428844,-0.202117,0.0132141,-0.000152588
0.876155,0.283783,0.965811,0.131645,0.0286804,-0.0979371,0.0132141,-0.000152588
0.945963,0.359342,1.03747,0.0857437,0.02029,-0.00872111,0.0132141,-0.000152588
0.89014,0.257713,1.06327,0.0652581,0.0105369,0.0911125,0.0132141,-0.000152588
0.770902,0.0376457,1.03861,0.0537896,0.0072541,0.151023,0.0132141,-0.000152588
0.649524,-0.103335,0.958643,0.0382842,0.00383774,0.14387,0.0132141,-0.000152588
0.528311,-0.0493526,0.834021,0.0180821,0.00945006,0.101059,0.0132141,-0.000152588
0.427709,0.0932738,0.727275,0.0192666,0.0187512,0.0728464,0.0132141,-0.000152588
0.405166,0.196364,0.681503,0.0412603,0.0393526,0.0700902,0.0132141,-0.000152588
0.493802,0.249481,0.689439,0.0561915,0.0659917,0.0855677,0.0132141,-0.000152588
0.598234,0.287747,0.706245,0.0591047,0.0885864,0.142909,0.0132141,-0.000152588
0.58624,0.274917,0.698209,0.0380868,0.108921,0.235663,0.0132141,-0.000152588
0.500977,0.262242,0.678613,0.027586,0.114815,0.319189,0.0132141,-0.000152588
0.382799,0.203773,0.615855,0.00748491,0.128813,0.371335,0.0132141,-0.000152588
0.317583,0.20179,0.551142,0.000892416,0.128433,0.365737,0.0132141,-0.000152588
0.268895,0.143313,0.55304,0.0308284,0.145767,0.354633,0.0132141,-0.000152588
0.18579,0.0502305,0.64476,0.0713788,0.172685,0.344202,0.0132141,-0.000152588
0.0392104,-0.0619232,0.702748,0.064642,0.172862,0.31886,0.0132141,-0.000152588
-0.147635,-0.121442,0.646692,0.0427815,0.130896,0.261637,0.0132141,-0.000152588
-0.343317,-0.15059,0.561953,0.0281074,0.106781,0.196262,0.0132141,-0.000152588
-0.478249,-0.075528,0.495776,0.0349057,0.093692,0.113417,0.0132141,-0.000152588
-0.586349,0.0163273,0.472135,0.0594598,0.0934883,0.0537177,0.0132141,-0.000152588
-0.69474,0.0127707,0.515885,0.0883004,0.0871259,0.0247585,0.0132141,-0.000152588
-0.749728,-0.00750086,0.590825,0.107225,0.0672675,-0.0133803,0.0132141,-0.000152588
-0.704866,0.06993,0.65726,0.0947184,0.0500066,-0.0705923,0.0132141,-0.000152588
-0.704866,0.06993,0.65726,0.0947184,0.0500066,-0.0705923,0.224594,-0.0026474
-0.588121,0.234126,0.711248,0.0656992,0.0226022,-0.105973,0.224594,-0.0026474
-0.45212,0.357854,0.76286,0.042539,-0.00643589,-0.0860271,0.224594,-0.0026474
-0.372709,0.358364,0.792117,0.0193063,-0.0305252,-0.0131137,0.224594,-0.0026474
-0.396772,0.286384,0.802808,0.00498815,-0.0621975,0.0625436,0.224594,-0.0026474
-0.477866,0.157642,0.80131,0.014844,-0.100659,0.0947454,0.224594,-0.0026474
-0.520961,0.0386591,0.818704,0.0240276,-0.123192,0.0630474,0.224594,-0.0026474
-0.490203,-0.0649867,0.823792,0.0064097,-0.129932,-0.00433689,0.224594,-0.0026474
-0.449283,-0.134329,0.799872,0.0112849,-0.151644,-0.0665665,0.224594,-0.0026474
-0.463195,-0.200382,0.75233,-0.00127896,-0.165688,-0.106082,0.224594,-0.0026474
-0.467379,-0.273002,0.69334,-0.00981389,-0.174028,-0.15883,0.224594,-0.0026474
-0.446796,-0.370667,0.614734,-0.0118161,-0.160032,-0.213459,0.224594,-0.0026474
-0.423457,-0.406859,0.551524,-0.00759188,-0.142709,-0.278419,0.224594,-0.0026474
-0.39433,-0.348266,0.524155,0.0087079,-0.120409,-0.335577,0.224594,-0.0026474
-0.328378,-0.173734,0.490779,0.0108242,-0.106599,-0.386657,0.224594,-0.0026474
-0.29033,-0.0728267,0.463447,0.0184024,-0.0881813,-0.379083,0.224594,-0.0026474
-0.307579,-0.123575,0.445105,0.0428685,-0.101435,-0.336619,0.224594,-0.0026474
-0.368363,-0.347474,0.43715,0.0659777,-0.0995854,-0.300925,0.224594,-0.0026474
-0.331031,-0.440265,0.469677,0.0890238,-0.0863599,-0.34533,0.224594,-0.0026474
-0.126707,-0.275309,0.480082,0.0732195,-0.0546705,-0.438241,0.224594,-0.0026474
0.164431,0.00559622,0.482125,0.0443515,-0.0103005,-0.444272,0.224594,-0.0026474
0.510822,0.344433,0.505625,0.0215216,0.0380815,-0.384718,0.224594,-0.0026474
0.767895,0.471183,0.512807,0.0105416,0.0700838,-0.215928,0.224594,-0.0026474
0.847215,0.337524,0.537585,0.00911101,0.0865732,-0.0198556,0.224594,-0.0026474
0.802032,0.0560261,0.562855,0.000980929,0.0906516,0.120821,0.224594,-0.0026474
0.68247,-0.181976,0.503905,-0.0348562,0.09733,0.179767,0.224594,-0.0026474
0.538205,-0.156145,0.315301,-0.0998502,0.0881578,0.166081,0.224594,-0.0026474
0.486284,-0.0757413,0.119939,-0.120935,0.0941117,0.152664,0.224594,-0.0026474
0.513323,0.181609,-0.0123834,-0.0754242,0.105595,0.148783,0.224594,-0.0026474
0.50683,0.408883,0.000223021,-0.0337919,0.149105,0.217854,0.224594,-0.0026474
0.473479,0.375282,0.0836278,0.00445139,0.154951,0.333974,0.224594,-0.0026474
0.439776,0.141408,0.137464,0.0231407,0.130247,0.408761,0.224594,-0.0026474
0.3266,-0.104113,0.129511,0.0106013,0.0994684,0.452865,0.224594,-0.0026474
0.199965,-0.176145,0.0701244,-0.00916056,0.0688453,0.436642,0.224594,-0.0026474
0.0644268,-0.0659145,-0.0210169,-0.0252197,0.061129,0.395899,0.224594,-0.0026474
-0.10351,0.0772563,-0.0490149,-0.0133242,0.0553541,0.36894,0.224594,-0.0026474
-0.22425,0.0868483,-0.0175585,0.0155898,0.0470171,0.353035,0.224594,-0.0026474
-0.297621,-0.0303354,0.0429224,0.0422436,0.0233475,0.324299,0.224594,-0.0026474
-0.343776,-0.180722,0.12261,0.0477142,-0.0107161,0.274189,0.224594,-0.0026474
-0.295791,-0.292652,0.177979,0.0342003,-0.0349038,0.197765,0.224594,-0.0026474
-0.281238,-0.260726,0.172028,0.0114975,-0.0439711,0.132617,0.224594,-0.0026474
-0.340855,-0.15328,0.166939,-0.0114314,-0.0530126,0.0982473,0.224594,-0.0026474
-0.426123,-0.120654,0.140183,-0.0213774,-0.076013,0.0870697,0.224594,-0.0026474
-0.448834,-0.105639,0.16942,-0.00787728,-0.0867209,0.0700681,0.224594,-0.0026474
-0.379151,-0.0630248,0.231476,-0.00157284,-0.0922174,0.0256368,0.224594,-0.0026474
-0.249268,-0.0573928,0.305735,0.00916691,-0.108599,-0.00140548,0.224594,-0.0026474
-0.164358,-0.0362125,0.33696,0.00291057,-0.133987,-0.00306755,0.224594,-0.0026474
-0.23901,-0.0709223,0.334797,0.0207577,-0.182322,0.0293853,0.224594,-0.0026474
-0.448373,-0.111538,0.344739,0.0770467,-0.249859,0.0011133,0.224594,-0.0026474
-0.760683,-0.232686,0.401408,0.114923,-0.246459,-0.0720448,0.224594,-0.0026474
-1.07894,-0.488419,0.348989,0.0896507,-0.277305,-0.250266,0.224594,-0.0026474
-1.28115,-0.532224,0.226415,0.0752562,-0.341312,-0.524456,0.224594,-0.0026474
-1.1009,-0.128886,0.280437,0.155324,-0.330373,-0.836689,0.224594,-0.0026474
-0.423091,0.651673,0.517716,0.198851,-0.230337,-1.08717,0.224594,-0.0026474
0.281643,1.00119,0.82433,0.19305,-0.112565,-1.00599,0.224594,-0.0026474
0.281643,1.00119,0.82433,0.19305,-0.112565,-1.00599,0.237808,-0.00283051
0.610229,0.537886,1.01504,0.18298,-0.0931006,-0.685328,0.237808,-0.00283051
0.647627,0.0437233,1.02156,0.122517,-0.104222,-0.465362,0.237808,-0.00283051
0.742931,-0.053299,0.956291,0.046437,-0.0616699,-0.42034,0.237808,-0.00283051
1.08809,0.198745,0.995832,0.0770772,0.0467596,-0.411577,0.237808,-0.00283051
1.4519,0.577318,1.12282,0.0862594,0.160921,-0.276288,0.237808,-0.00283051
1.57242,0.708905,1.22279,0.0763678,0.212426,-0.0347601,0.237808,-0.00283051
1.38576,0.365578,1.20878,0.0354499,0.200561,0.205233,0.237808,-0.00283051
1.04168,-0.120244,1.04192,-0.00214903,0.137557,0.319602,0.237808,-0.00283051
0.764674,-0.202559,0.791639,-0.0206387,0.0948419,0.268422,0.237808,-0.00283051
0.712162,-0.0749207,0.666085,0.00767121,0.159311,0.174935,0.237808,-0.00283051
0.774405,0.244531,0.697063,0.0854101,0.223516,0.133303,0.237808,-0.00283051
0.802305,0.449279,0.852853,0.140247,0.273185,0.17907,0.237808,-0.00283051
0.851579,0.334301,1.04448,0.176999,0.272383,0.262077,0.237808,-0.00283051
0.932303,0.199039,1.16086,0.177567,0.251145,0.305782,0.237808,-0.00283051
0.952423,0.152626,1.22097,0.157761,0.24234,0.338397,0.237808,-0.00283051
0.808616,0.148738,1.24712,0.148534,0.225597,0.390933,0.237808,-0.00283051
0.521079,0.162003,1.24669,0.154082,0.199224,0.431643,0.237808,-0.00283051
0.180181,0.166813,1.21769,0.13851,0.174666,0.428897,0.237808,-0.00283051
-0.0744273,0.0670332,1.17997,0.122826,0.148647,0.371465,0.237808,-0.00283051
-0.159878,-0.0501431,1.1427,0.120883,0.124951,0.266478,0.237808,-0.00283051
-0.143166,-0.127157,1.11329,0.108242,0.129634,0.16988,0.237808,-0.00283051
-0.123757,-0.0983365,1.09952,0.0996607,0.127878,0.106613,0.237808,-0.00283051
-0.129048,0.0274698,1.05761,0.0672578,0.115152,0.0633406,0.237808,-0.00283051
-0.150757,0.161764,0.991569,0.044369,0.102481,0.0438183,0.237808,-0.00283051
-0.192233,0.261328,0.930607,0.0308403,0.0784215,0.039772,0.237808,-0.00283051
-0.231072,0.257748,0.965526,0.0264361,0.0647185,0.0509649,0.237808,-0.00283051
-0.221924,0.27186,0.958277,0.0381566,0.0454178,0.0479322,0.237808,-0.00283051
-0.21924,0.353475,0.961031,0.0409809,0.0382082,0.049274,0.237808,-0.00283051
-0.266922,0.402339,0.969811,0.0294392,0.020353,0.0757782,0.237808,-0.00283051
-0.315226,0.324123,0.97054,0.0312185,-0.0220639,0.0925093,0.237808,-0.00283051
-0.239382,0.250252,0.94356,0.0289593,-0.0616826,0.0509167,0.237808,-0.00283051
-0.119342,0.298162,0.920172,0.0151402,-0.0772322,-0.00767148,0.237808,-0.00283051
-0.116534,0.351304,0.940468,0.0203175,-0.0881163,-0.013015,0.237808,-0.00283051
-0.193238,0.296899,0.992378,0.0447932,-0.118689,-0.00935709,0.237808,-0.00283051
-0.231358,0.220079,0.989526,0.0344453,-0.149616,-0.0671477,0.237808,-0.00283051
-0.245201,-0.0246042,0.916705,7.28741e-05,-0.160346,-0.123047,0.237808,-0.00283051
-0.224185,-0.25801,0.793333,-0.0302439,-0.190273,-0.209956,0.237808,-0.00283051
-0.25443,-0.367129,0.692433,-0.0468105,-0.183397,-0.311038,0.237808,-0.00283051
-0.289239,-0.273058,0.687504,-0.032612,-0.148484,-0.40232,0.237808,-0.00283051
-0.266337,-0.0900667,0.627006,-0.0528369,-0.135288,-0.479033,0.237808,-0.00283051
-0.279171,-0.119538,0.494641,-0.0740814,-0.129607,-0.470101,0.237808,-0.00283051
-0.366187,-0.354146,0.377481,-0.052406,-0.128895,-0.422934,0.237808,-0.00283051
-0.368178,-0.411048,0.288627,-0.0395142,-0.104072,-0.449439,0.237808,-0.00283051
-0.216478,-0.212855,0.184727,-0.0574068,-0.041462,-0.498356,0.237808,-0.00283051
-0.0449291,0.0677585,0.0513169,-0.0801096,0.0248432,-0.46625,0.237808,-0.00283051
0.141717,0.313507,-0.013312,-0.0698924,0.0659972,-0.36505,0.237808,-0.00283051
0.409235,0.529049,-0.0298229,-0.0649703,0.112703,-0.227898,0.237808,-0.00283051
0.644843,0.494991,-0.0177851,-0.0791318,0.177404,-0.0470536,0.237808,-0.00283051
0.753051,0.168649,0.0434406,-0.0660515,0.201688,0.120101,0.237808,-0.00283051
0.786794,-0.204743,0.0992417,-0.0626107,0.213449,0.206926,0.237808,-0.00283051
0.736409,-0.362002,0.0518147,-0.113154,0.239007,0.235435,0.237808,-0.00283051
0.597409,-0.243283,-0.134898,-0.182678,0.246349,0.237624,0.237808,-0.00283051
0.40474,-0.0311596,-0.37978,-0.207353,0.224377,0.240218,0.237808,-0.00283051
0.40474,-0.0311596,-0.37978,-0.207353,0.224377,0.240218,0.227234,-0.00267792
0.271088,0.112709,-0.528946,-0.172819,0.2334,0.257675,0.227234,-0.00267792
0.227073,0.180551,-0.539163,-0.102694,0.24536,0.275046,0.227234,-0.00267792
0.257035,0.13407,-0.472057,-0.0477276,0.248799,0.298993,0.227234,-0.00267792
0.33642,0.0780917,-0.399985,-0.0196029,0.228319,0.319363,0.227234,-0.00267792
0.383566,0.0487249,-0.377375,-0.0212626,0.199372,0.338619,0.227234,-0.00267792
0.320875,0.0675776,-0.40046,-0.0262018,0.165312,0.366091,0.227234,-0.00267792
0.163876,0.0810246,-0.410634,-0.0135262,0.134816,0.391912,0.227234,-0.00267792
-0.0326621,0.0394783,-0.377756,0.00551947,0.118203,0.394993,0.227234,-0.00267792
-0.211321,-0.0709151,-0.329077,0.0131298,0.0964072,0.363409,0.227234,-0.00267792
-0.336048,-0.147307,-0.305685,0.0156248,0.0546615,0.27403,0.227234,-0.00267792
-0.371952,-0.165859,-0.269072,0.00710724,0.0207482,0.162358,0.227234,-0.00267792
-0.355535,-0.0998804,-0.233336,-0.0047752,-0.0102671,0.069671,0.227234,-0.00267792
-0.358786,-0.037629,-0.229116,-0.0165555,-0.0336308,0.0296458,0.227234,-0.00267792
-0.367051,0.0527661,-0.269116,-0.0294404,-0.0723967,-0.011097,0.227234,-0.00267792
-0.360593,0.0713674,-0.269022,-0.0215084,-0.0988637,-0.0310093,0.227234,-0.00267792
-0.319356,0.0770323,-0.202668,0.0205932,-0.108637,-0.0523698,0.227234,-0.00267792
-0.260442,0.178573,-0.10381,0.0437489,-0.103832,-0.0852164,0.227234,-0.00267792
-0.153134,0.242458,0.0394198,0.0626412,-0.107313,-0.114225,0.227234,-0.00267792
0.00770129,0.237033,0.172182,0.0652704,-0.115554,-0.134148,0.227234,-0.00267792
0.159868,0.258028,0.271948,0.0468433,-0.119297,-0.138067,0.227234,-0.00267792
0.183705,0.258627,0.343982,0.0404617,-0.126161,-0.117009,0.227234,-0.00267792
0.0991043,0.209003,0.386898,0.0316805,-0.128817,-0.104072,0.227234,-0.00267792
0.0262082,0.22971,0.355859,0.00639895,-0.134472,-0.154216,0.227234,-0.00267792
0.028386,0.388944,0.303458,-0.0150089,-0.105496,-0.227951,0.227234,-0.00267792
0.0637568,0.611615,0.269601,0.00666531,-0.0755795,-0.273047,0.227234,-0.00267792
-0.00562292,0.630372,0.327521,0.0620788,-0.0407536,-0.226351,0.227234,-0.00267792
-0.152344,0.349457,0.411122,0.116533,-0.0294974,-0.164689,0.227234,-0.00267792
-0.333598,0.0282492,0.395153,0.115655,-0.0219926,-0.177364,0.227234,-0.00267792
-0.387137,-0.0178718,0.413908,0.116138,-0.00188752,-0.293845,0.227234,-0.00267792
-0.275556,0.2204,0.470299,0.127344,0.0446418,-0.384845,0.227234,-0.00267792
0.0194105,0.602861,0.648387,0.158907,0.0932066,-0.40525,0.227234,-0.00267792
0.382127,0.861673,0.855703,0.157057,0.134205,-0.302557,0.227234,-0.00267792
0.609832,0.803006,0.970222,0.124553,0.124414,-0.0880156,0.227234,-0.00267792
0.618225,0.509769,1.00324,0.109431,0.0800847,0.110524,0.227234,-0.00267792
0.392607,0.177236,0.917397,0.07434,0.0383655,0.229444,0.227234,-0.00267792
0.100532,0.00483957,0.719229,0.0419914,-0.0128307,0.238986,0.227234,-0.00267792
-0.138341,0.0419131,0.496156,0.030638,-0.0194519,0.163432,0.227234,-0.00267792
-0.219393,0.166981,0.410726,0.0707584,0.0203188,0.0624548,0.227234,-0.00267792
-0.107242,0.271146,0.459128,0.11908,0.0684663,-0.00620019,0.227234,-0.00267792
0.0914322,0.283652,0.553327,0.146519,0.098539,-0.0114865,0.227234,-0.00267792
0.261592,0.295205,0.607348,0.142287,0.0992301,0.0333595,0.227234,-0.00267792
0.294695,0.371191,0.582037,0.0961488,0.0983958,0.122457,0.227234,-0.00267792
0.18129,0.427744,0.516231,0.0643965,0.0900889,0.22936,0.227234,-0.00267792
0.0111717,0.439601,0.483305,0.068519,0.0854384,0.304076,0.227234,-0.00267792
-0.0612893,0.41676,0.509205,0.0919959,0.0860113,0.317304,0.227234,-0.00267792
-0.0755873,0.329702,0.545114,0.103673,0.0943188,0.316319,0.227234,-0.00267792
-0.105637,0.224603,0.604016,0.113188,0.0793895,0.308319,0.227234,-0.00267792
-0.203998,0.10469,0.629643,0.109563,0.064369,0.300665,0.227234,-0.00267792
-0.332243,0.0703449,0.58108,0.0782178,0.0446854,0.261037,0.227234,-0.00267792
-0.448845,0.120807,0.488808,0.0489793,0.0301097,0.19293,0.227234,-0.00267792
-0.532312,0.154843,0.472387,0.0610694,0.0387389,0.129218,0.227234,-0.00267792
-0.5768,0.108679,0.557405,0.0897527,0.0670227,0.0842774,0.227234,-0.00267792
-0.549601,0.0351258,0.670914,0.100348,0.0693676,0.0327126,0.227234,-0.00267792
-0.455302,0.0476414,0.700191,0.0635054,0.0473048,-0.0293815,0.227234,-0.00267792
-0.455302,0.0476414,0.700191,0.0635054,0.0473048,-0.0293815,0.211395,-0.00247955
-0.353094,0.104162,0.681047,0.0382839,0.0189553,-0.0679311,0.211395,-0.00247955
-0.318673,0.191857,0.699209,0.0294538,0.0222788,-0.0635714,0.211395,-0.00247955
-0.307021,0.238667,0.764469,0.0373182,0.0321214,-0.0242041,0.211395,-0.00247955
-0.302392,0.242978,0.820765,0.0492163,0.0142156,0.00570554,0.211395,-0.00247955
-0.326281,0.0921185,0.882775,0.0486808,-0.00316791,0.020329,0.211395,-0.00247955
-0.41835,-0.213275,0.900646,0.0419303,-0.0334303,0.0133603,0.211395,-0.00247955
-0.577131,-0.607237,0.819157,0.0258123,-0.084974,-0.0394913,0.211395,-0.00247955
-0.701057,-0.788534,0.705706,0.00859708,-0.12599,-0.179979,0.211395,-0.00247955
-0.744811,-0.749735,0.647206,-0.0155959,-0.102405,-0.346521,0.211395,-0.00247955
-0.640982,-0.536019,0.638107,-0.0229199,-0.0815157,-0.479404,0.211395,-0.00247955
-0.409843,-0.348456,0.59892,-0.0280816,-0.0786465,-0.545946,0.211395,-0.00247955
-0.228362,-0.343869,0.506073,-0.0444585,-0.0766193,-0.501427,0.211395,-0.00247955
-0.296718,-0.407513,0.338871,-0.0685576,-0.092452,-0.390635,0.211395,-0.00247955
-0.462823,-0.380147,0.138441,-0.0910443,-0.10413,-0.323892,0.211395,-0.00247955
-0.4396,-0.174897,-0.0324208,-0.108262,-0.0761637,-0.349272,0.211395,-0.00247955
-0.193948,0.105341,-0.136745,-0.113871,-0.0108299,-0.368638,0.211395,-0.00247955
0.110772,0.32369,-0.256621,-0.13667,0.0423703,-0.303928,0.211395,-0.00247955
0.306728,0.446186,-0.385439,-0.156376,0.0867801,-0.166419,0.211395,-0.00247955
0.362134,0.466179,-0.458871,-0.156395,0.12454,-0.0154342,0.211395,-0.00247955
0.33292,0.264763,-0.473154,-0.15755,0.159024,0.104891,0.211395,-0.00247955
0.28825,-0.0734211,-0.482729,-0.159682,0.169317,0.158614,0.211395,-0.00247955
0.315617,-0.184779,-0.54213,-0.196653,0.190437,0.127459,0.211395,-0.00247955
0.338072,-0.0839683,-0.656873,-0.228649,0.212284,0.104314,0.211395,-0.00247955
0.332797,0.117158,-0.712923,-0.20485,0.215395,0.129065,0.211395,-0.00247955
0.336386,0.209851,-0.70377,-0.177193,0.224856,0.195046,0.211395,-0.00247955
0.365256,0.137684,-0.672683,-0.150692,0.209507,0.275268,0.211395,-0.00247955
0.375731,-0.004315,-0.633039,-0.128727,0.183269,0.34651,0.211395,-0.00247955
0.330175,-0.178859,-0.617153,-0.124631,0.164608,0.399394,0.211395,-0.00247955
0.226031,-0.3398,-0.651262,-0.124978,0.137621,0.432902,0.211395,-0.00247955
0.0880703,-0.397492,-0.735455,-0.130187,0.110279,0.436975,0.211395,-0.00247955
-0.0716621,-0.448278,-0.85779,-0.144563,0.0912706,0.422374,0.211395,-0.00247955
-0.210648,-0.586447,-0.94386,-0.107014,0.0653413,0.411881,0.211395,-0.00247955
-0.289397,-0.71979,-0.947615,-0.0582128,0.0703493,0.363463,0.211395,-0.00247955
-0.329173,-0.839874,-0.929246,-0.0230519,0.0720635,0.296813,0.211395,-0.00247955
-0.382971,-0.854911,-0.89173,0.0184418,0.0536558,0.226115,0.211395,-0.00247955
-0.497833,-0.661836,-0.822709,0.0655458,0.0341125,0.15568,0.211395,-0.00247955
-0.651185,-0.438476,-0.807136,0.0541251,0.0015516,0.0959615,0.211395,-0.00247955
-0.746738,-0.414046,-0.808941,0.0646409,-0.0676513,0.0395774,0.211395,-0.00247955
-0.756252,-0.490441,-0.79105,0.087781,-0.116532,-0.0391472,0.211395,-0.00247955
-0.72528,-0.44145,-0.757776,0.0904569,-0.138235,-0.147799,0.211395,-0.00247955
-0.673367,-0.341407,-0.686785,0.117262,-0.157802,-0.229785,0.211395,-0.00247955
-0.595031,-0.199845,-0.642427,0.121075,-0.173291,-0.315967,0.211395,-0.00247955
-0.49739,-0.0554715,-0.598105,0.129273,-0.208117,-0.384935,0.211395,-0.00247955
-0.388862,0.124151,-0.532709,0.132756,-0.198988,-0.438569,0.211395,-0.00247955
-0.270043,0.286248,-0.443496,0.140876,-0.194477,-0.474281,0.211395,-0.00247955
-0.145205,0.447068,-0.33416,0.147294,-0.186995,-0.499127,0.211395,-0.00247955
-0.0563653,0.415399,-0.188401,0.171422,-0.1816,-0.473006,0.211395,-0.00247955
0.00647337,0.299403,-0.0509062,0.180017,-0.172943,-0.4624,0.211395,-0.00247955
0.0666005,0.244557,0.0691256,0.16083,-0.146319,-0.481191,0.211395,-0.00247955
0.206132,0.282972,0.17203,0.141831,-0.114663,-0.51896,0.211395,-0.00247955
0.473373,0.459367,0.300454,0.139368,-0.0777781,-0.512206,0.211395,-0.00247955
0.834026,0.695564,0.488093,0.135242,-0.00759692,-0.437635,0.211395,-0.00247955
1.17692,0.783433,0.699228,0.122157,0.0413936,-0.277405,0.211395,-0.00247955
1.34989,0.682616,0.833755,0.0805402,0.0803857,-0.0607916,0.211395,-0.00247955
1.34989,0.682616,0.833755,0.0805402,0.0803857,-0.0607916,0.253662,-0.00301361
1.34539,0.449478,0.882186,0.0460932,0.0894887,0.128527,0.253662,-0.00301361
1.16464,0.214322,0.799079,-0.00754394,0.0886618,0.264078,0.253662,-0.00301361
0.91071,0.18593,0.628391,-0.0462917,0.0825921,0.316221,0.253662,-0.00301361
0.659734,0.292095,0.464655,-0.0547073,0.10384,0.329647,0.253662,-0.00301361
0.506721,0.392534,0.427217,-0.0117142,0.140547,0.329484,0.253662,-0.00301361
0.46597,0.328134,0.482729,0.0463929,0.171022,0.343352,0.253662,-0.00301361
0.465796,0.209947,0.565062,0.0787679,0.185935,0.35526,0.253662,-0.00301361
0.432805,0.0371584,0.613249,0.0856847,0.185719,0.378987,0.253662,-0.00301361
0.346904,-0.103009,0.617372,0.0828977,0.168681,0.37956,0.253662,-0.00301361
0.264262,-0.106638,0.598319,0.0827284,0.157279,0.339648,0.253662,-0.00301361
0.20008,0.0358805,0.581509,0.0767301,0.165665,0.286179,0.253662,-0.00301361
0.103495,0.126594,0.628954,0.090645,0.173171,0.263426,0.253662,-0.00301361
0.0218221,0.123629,0.692782,0.107586,0.155494,0.242026,0.253662,-0.00301361
-0.0443077,0.0596886,0.729229,0.115849,0.129152,0.209007,0.253662,-0.00301361
-0.0729036,0.0800815,0.736348,0.0993417,0.0988622,0.158198,0.253662,-0.00301361
-0.124046,0.148734,0.677579,0.0767392,0.068155,0.121415,0.253662,-0.00301361
-0.221929,0.230552,0.614637,0.0790587,0.0385782,0.104449,0.253662,-0.00301361
-0.305551,0.2736,0.609205,0.0973597,0.0308715,0.0845674,0.253662,-0.00301361
-0.334005,0.297937,0.652182,0.110635,0.0316617,0.0535012,0.253662,-0.00301361
-0.338373,0.254479,0.697884,0.108401,0.0263005,0.0253008,0.253662,-0.00301361
-0.32698,0.187933,0.682752,0.0729245,-0.0030904,-0.00627911,0.253662,-0.00301361
-0.323966,0.102275,0.638799,0.0494887,-0.0287073,-0.0462571,0.253662,-0.00301361
-0.373167,0.116001,0.609942,0.0425714,-0.0417994,-0.1043,0.253662,-0.00301361
-0.472586,0.130333,0.628276,0.0466746,-0.0486633,-0.15339,0.253662,-0.00301361
-0.515304,0.10489,0.677813,0.0378586,-0.068289,-0.228667,0.253662,-0.00301361
-0.441505,-0.0426623,0.689628,-0.00674299,-0.0757879,-0.310777,0.253662,-0.00301361
-0.343904,-0.26695,0.62693,-0.048005,-0.0996115,-0.377422,0.253662,-0.00301361
-0.307084,-0.325209,0.520427,-0.0905962,-0.117109,-0.431509,0.253662,-0.00301361
-0.282382,-0.204894,0.434622,-0.106428,-0.120394,-0.481156,0.253662,-0.00301361
-0.237919,-0.106068,0.35543,-0.12127,-0.100616,-0.479296,0.253662,-0.00301361
-0.16494,-0.118385,0.233277,-0.140266,-0.102788,-0.445558,0.253662,-0.00301361
-0.0624042,-0.117752,0.0447053,-0.168346,-0.104904,-0.412161,0.253662,-0.00301361
0.033695,-0.039347,-0.1582,-0.196239,-0.0757075,-0.37664,0.253662,-0.00301361
0.134973,0.0946422,-0.290051,-0.204095,-0.0216518,-0.325841,0.253662,-0.00301361
0.298265,0.277978,-0.364304,-0.20521,0.0426032,-0.266924,0.253662,-0.00301361
0.496096,0.332042,-0.392878,-0.19858,0.104917,-0.174268,0.253662,-0.00301361
0.650588,0.309358,-0.38818,-0.196883,0.152096,-0.061572,0.253662,-0.00301361
0.723087,0.106262,-0.387866,-0.218302,0.181995,0.0539432,0.253662,-0.00301361
0.743482,-0.197901,-0.429142,-0.232688,0.193212,0.143216,0.253662,-0.00301361
0.715934,-0.418659,-0.538948,-0.262911,0.205672,0.183101,0.253662,-0.00301361
0.596735,-0.467174,-0.714304,-0.284285,0.213067,0.204027,0.253662,-0.00301361
0.414374,-0.410728,-0.851845,-0.265138,0.222892,0.227407,0.253662,-0.00301361
0.272975,-0.357086,-0.893555,-0.214791,0.248442,0.247874,0.253662,-0.00301361
0.281455,-0.31923,-0.896773,-0.176741,0.251349,0.258007,0.253662,-0.00301361
0.380495,-0.308065,-0.918021,-0.158386,0.235189,0.277328,0.253662,-0.00301361
0.419486,-0.372815,-0.963378,-0.140171,0.21491,0.335046,0.253662,-0.00301361
0.342962,-0.475646,-1.01722,-0.115806,0.188215,0.393516,0.253662,-0.00301361
0.128224,-0.584981,-1.06067,-0.102555,0.177736,0.43123,0.253662,-0.00301361
-0.131136,-0.600906,-1.05846,-0.0757137,0.161353,0.422264,0.253662,-0.00301361
-0.283548,-0.548297,-1.05193,-0.0383548,0.13694,0.355968,0.253662,-0.00301361
-0.332615,-0.354229,-1.11549,-0.0396143,0.108054,0.258057,0.253662,-0.00301361
-0.418752,-0.376478,-1.12198,-0.0109872,0.0795842,0.224133,0.253662,-0.00301361
-0.490294,-0.509954,-1.06312,0.0361245,0.0524767,0.188677,0.253662,-0.00301361
-0.529152,-0.756017,-0.97129,0.058167,0.035436,0.12899,0.253662,-0.00301361
-0.529152,-0.756017,-0.97129,0.058167,0.035436,0.12899,0.21402,-0.00250244
-0.490883,-0.876439,-0.874341,0.0802601,0.00326434,0.0387084,0.21402,-0.00250244
-0.460465,-0.71907,-0.847661,0.0686197,-0.0222666,-0.0453115,0.21402,-0.00250244
-0.472054,-0.418951,-0.840536,0.063256,-0.0516427,-0.0863653,0.21402,-0.00250244
-0.421623,-0.145376,-0.855421,0.0516354,-0.0725769,-0.116093,0.21402,-0.00250244
-0.327127,-0.0499202,-0.837808,0.0647056,-0.089457,-0.103648,0.21402,-0.00250244
-0.263524,-0.0815349,-0.740706,0.114511,-0.0952359,-0.066444,0.21402,-0.00250244
-0.271967,-0.106876,-0.64115,0.12939,-0.109051,-0.0541168,0.21402,-0.00250244
-0.286806,-0.0898236,-0.559363,0.124963,-0.135247,-0.066871,0.21402,-0.00250244
-0.312305,-0.00237389,-0.526241,0.124976,-0.165604,-0.11671,0.21402,-0.00250244
-0.364162,0.0650269,-0.48054,0.122173,-0.184465,-0.167297,0.21402,-0.00250244
-0.395804,0.115087,-0.437547,0.134817,-0.206504,-0.219034,0.21402,-0.00250244
-0.364628,0.154364,-0.360832,0.153656,-0.206506,-0.281823,0.21402,-0.00250244
-0.245847,0.181513,-0.239097,0.170773,-0.193247,-0.345124,0.21402,-0.00250244
-0.122992,0.188779,-0.126501,0.180186,-0.171349,-0.372822,0.21402,-0.00250244
-0.0724902,0.159392,-0.0327281,0.173542,-0.155042,-0.369398,0.21402,-0.00250244
-0.0367405,0.189865,0.0400406,0.160894,-0.144404,-0.372813,0.21402,-0.00250244
0.0616358,0.285118,0.120402,0.15175,-0.11662,-0.391022,0.21402,-0.00250244
0.265571,0.391549,0.259447,0.140021,-0.0571683,-0.389891,0.21402,-0.00250244
0.588249,0.508026,0.444199,0.163465,-0.0102776,-0.325074,0.21402,-0.00250244
0.916424,0.650351,0.652975,0.15952,0.0466582,-0.20514,0.21402,-0.00250244
1.05055,0.708173,0.82389,0.1361,0.0853814,-0.0191566,0.21402,-0.00250244
0.95915,0.601619,0.901504,0.109357,0.0755362,0.158688,0.21402,-0.00250244
0.726854,0.380001,0.868153,0.0687169,0.0571671,0.276089,0.21402,-0.00250244
0.453179,0.191267,0.776434,0.0506707,0.0415274,0.311425,0.21402,-0.00250244
0.196355,0.14663,0.683643,0.0546921,0.0473833,0.272494,0.21402,-0.00250244
0.0371002,0.198416,0.639643,0.0690885,0.0784488,0.20661,0.21402,-0.00250244
-0.0360811,0.205187,0.620223,0.0712533,0.108993,0.17321,0.21402,-0.00250244
-0.0576711,0.198285,0.613419,0.0877569,0.113335,0.159803,0.21402,-0.00250244
-0.0287484,0.201222,0.639548,0.110213,0.117788,0.155886,0.21402,-0.00250244
0.0381457,0.198773,0.719739,0.135346,0.134622,0.165979,0.21402,-0.00250244
0.170772,0.284214,0.833405,0.148099,0.162437,0.154892,0.21402,-0.00250244
0.325086,0.520728,0.952742,0.130018,0.189582,0.142961,0.21402,-0.00250244
0.373489,0.599934,1.02573,0.116634,0.176452,0.210414,0.21402,-0.00250244
0.273964,0.551427,1.03302,0.0942349,0.143782,0.293305,0.21402,-0.00250244
0.0932547,0.437376,1.02442,0.0926276,0.115281,0.335735,0.21402,-0.00250244
-0.0797422,0.2185,1.01842,0.110407,0.0876954,0.333028,0.21402,-0.00250244
-0.245826,0.00550119,0.999028,0.111934,0.0709041,0.282703,0.21402,-0.00250244
-0.381925,-0.111271,0.990382,0.0976533,0.0771783,0.199855,0.21402,-0.00250244
-0.428204,-0.0947948,0.98692,0.0971169,0.0653469,0.0791014,0.21402,-0.00250244
-0.40789,-0.0431551,0.992614,0.082079,0.0566327,-0.0293835,0.21402,-0.00250244
-0.373779,0.038883,0.980443,0.0586435,0.0389365,-0.107175,0.21402,-0.00250244
-0.333205,0.160641,0.949528,0.0361332,0.00949761,-0.142821,0.21402,-0.00250244
-0.248752,0.348961,0.904287,0.00915688,-0.0138033,-0.161386,0.21402,-0.00250244
-0.150126,0.426624,0.880411,-0.00151963,-0.0188365,-0.118772,0.21402,-0.00250244
-0.0647339,0.411301,0.900269,0.0184091,-0.0264686,-0.0417901,0.21402,-0.00250244
-0.0330064,0.376233,0.916856,0.0128959,-0.0300833,0.0362196,0.21402,-0.00250244
-0.076744,0.276942,0.912255,0.00406363,-0.0465014,0.0996336,0.21402,-0.00250244
-0.135128,0.186134,0.890174,-0.00183539,-0.0721269,0.123212,0.21402,-0.00250244
-0.169061,0.143462,0.878686,-0.00622664,-0.0846805,0.111278,0.21402,-0.00250244
-0.144316,0.119567,0.88482,0.00675524,-0.0854414,0.084379,0.21402,-0.00250244
-0.13221,0.0875382,0.879704,0.00769233,-0.0896459,0.0732462,0.21402,-0.00250244
-0.186845,-0.0148291,0.847808,0.00253848,-0.109011,0.0907956,0.21402,-0.00250244
-0.25548,-0.0905817,0.778112,-0.000292409,-0.131513,0.0761106,0.21402,-0.00250244
-0.275887,-0.0871838,0.676683,-0.00518412,-0.145598,0.0284209,0.21402,-0.00250244
-0.275887,-0.0871838,0.676683,-0.00518412,-0.145598,0.0284209,0.232529,-0.00276184
-0.244592,-0.0584427,0.590532,0.0102808,-0.157283,-0.0279483,0.232529,-0.00276184
-0.221296,-0.042971,0.541781,0.0390114,-0.155955,-0.0608919,0.232529,-0.00276184
-0.254892,-0.0813155,0.526123,0.0810624,-0.151894,-0.0678667,0.232529,-0.00276184
-0.323086,-0.121969,0.518512,0.109138,-0.153333,-0.103464,0.232529,-0.00276184
-0.498894,-0.128232,0.460677,0.0925841,-0.139118,-0.142955,0.232529,-0.00276184
-0.700066,-0.0899856,0.421938,0.100463,-0.135723,-0.192866,0.232529,-0.00276184
-0.915627,-0.10113,0.314111,0.0688511,-0.134628,-0.265832,0.232529,-0.00276184
-1.09298,-0.253074,0.203411,0.0470812,-0.13441,-0.350029,0.232529,-0.00276184
-1.02144,-0.47686,0.139251,0.0586547,-0.128599,-0.482813,0.232529,-0.00276184
-0.706254,-0.410217,0.152603,0.0710223,-0.0788902,-0.62083,0.232529,-0.00276184
-0.333053,-0.15436,0.250446,0.0675208,-0.00656211,-0.654155,0.232529,-0.00276184
0.0325093,0.155086,0.371945,0.0617148,0.037165,-0.599672,0.232529,-0.00276184
0.368506,0.484451,0.446826,0.0485828,0.0384989,-0.492872,0.232529,-0.00276184
0.666117,0.844118,0.465448,0.0169974,0.0670233,-0.338104,0.232529,-0.00276184
0.80145,0.918022,0.473038,-0.0283718,0.105751,-0.135041,0.232529,-0.00276184
0.809475,0.583599,0.58126,-0.0104832,0.13512,0.0404902,0.232529,-0.00276184
0.78689,0.182887,0.690282,-0.0300044,0.167678,0.11991,0.232529,-0.00276184
0.742211,-0.15275,0.680255,-0.0890141,0.182632,0.129145,0.232529,-0.00276184
0.731495,-0.210545,0.523252,-0.151555,0.158504,0.0766271,0.232529,-0.00276184
0.723371,-0.0362135,0.328902,-0.177108,0.164639,0.0443252,0.232529,-0.00276184
0.6365,0.314105,0.17386,-0.172592,0.18838,0.0586281,0.232529,-0.00276184
0.537646,0.50936,0.135386,-0.137848,0.207256,0.135779,0.232529,-0.00276184
0.538071,0.452595,0.168888,-0.0840528,0.211568,0.215209,0.232529,-0.00276184
0.592343,0.304067,0.205771,-0.0615714,0.209189,0.265947,0.232529,-0.00276184
0.635951,0.256451,0.205596,-0.0640606,0.187503,0.288425,0.232529,-0.00276184
0.585493,0.217122,0.143608,-0.0857345,0.160406,0.313464,0.232529,-0.00276184
0.493212,0.184846,0.0860856,-0.0901391,0.143236,0.326525,0.232529,-0.00276184
0.393829,0.176781,0.053177,-0.0735077,0.134311,0.318113,0.232529,-0.00276184
0.290822,0.161581,0.0265055,-0.0788115,0.129772,0.314691,0.232529,-0.00276184
0.190207,0.132115,0.0010804,-0.0733573,0.11442,0.30953,0.232529,-0.00276184
0.0645852,0.123503,-0.0372022,-0.0833662,0.102207,0.284529,0.232529,-0.00276184
-0.0263091,-0.0264473,-0.031138,-0.0866031,0.0913272,0.262504,0.232529,-0.00276184
-0.0549051,-0.137247,-0.0559007,-0.0845716,0.0643988,0.214321,0.232529,-0.00276184
-0.0770369,-0.144593,-0.135023,-0.0957133,0.0425938,0.158055,0.232529,-0.00276184
-0.116222,-0.0221911,-0.203366,-0.0958468,0.0288923,0.106138,0.232529,-0.00276184
-0.235579,0.0363528,-0.206914,-0.0654899,0.0290376,0.111581,0.232529,-0.00276184
-0.323739,0.0898182,-0.159511,-0.0243574,0.0160319,0.114871,0.232529,-0.00276184
-0.360288,0.0753157,-0.106678,-0.0190912,0.00564829,0.102804,0.232529,-0.00276184
-0.355306,0.0219539,-0.059017,-0.0107002,-0.0198758,0.0962204,0.232529,-0.00276184
-0.423368,0.031824,-0.0437727,-0.0126047,-0.0454315,0.100358,0.232529,-0.00276184
-0.479214,0.0920907,-0.0183393,-0.00737576,-0.0698759,0.0881369,0.232529,-0.00276184
-0.495153,0.117886,-0.00607884,-0.00585429,-0.0887493,0.0598774,0.232529,-0.00276184
-0.442904,0.111688,0.0559731,0.0162792,-0.103126,0.0337292,0.232529,-0.00276184
-0.323211,0.036226,0.13596,0.0342239,-0.104451,0.0137568,0.232529,-0.00276184
-0.220197,0.00953101,0.192505,0.0335037,-0.100392,-0.010217,0.232529,-0.00276184
-0.153293,0.0352395,0.253498,0.021786,-0.0937024,-0.0302303,0.232529,-0.00276184
-0.0672596,-0.0205114,0.343404,0.059985,-0.106555,-0.0558129,0.232529,-0.00276184
0.139322,0.0584287,0.436817,0.0822369,-0.107738,-0.127851,0.232529,-0.00276184
0.330005,0.266956,0.491998,0.0860155,-0.0932074,-0.17349,0.232529,-0.00276184
0.287197,0.505697,0.504695,0.0891016,-0.102004,-0.147535,0.232529,-0.00276184
0.143989,0.657327,0.542876,0.120428,-0.122507,-0.0914181,0.232529,-0.00276184
0.00326861,0.256779,0.526231,0.145078,-0.107135,-0.0274705,0.232529,-0.00276184
-0.484368,-0.226237,0.566097,0.121841,-0.149486,0.00828528,0.232529,-0.00276184
-0.669846,-0.373221,0.36965,0.0108308,-0.155639,-0.181595,0.232529,-0.00276184
-0.669846,-0.373221,0.36965,0.0108308,-0.155639,-0.181595,0.227234,-0.00267029
-0.487075,0.0529493,0.117209,-0.00246397,-0.139901,-0.382391,0.227234,-0.00267029
-0.150857,0.46065,0.218353,0.0588482,-0.034466,-0.405593,0.227234,-0.00267029
0.0674929,0.673305,0.453551,0.12217,0.0434805,-0.284697,0.227234,-0.00267029
0.224236,0.666826,0.582062,0.124855,0.0263031,-0.124923,0.227234,-0.00267029
