rotationRate_x,rotationRate_y,rotationRate_z,acceleration_x,acceleration_y,acceleration_z,relativeAltitude
-0.183829,0.339795,-0.0577407,-0.00467038,0.0616622,-0.0484865,2.34373
-0.207472,0.426168,0.0485765,0.0345478,0.0521531,0.00039953,2.34373
-0.279635,0.584333,0.171911,0.017536,0.0208004,0.0141615,2.34373
-0.254364,0.585899,0.205937,-0.0141658,-0.0459883,0.0101953,2.34373
-0.17417,0.45116,0.171158,-0.0467896,-0.0988335,0.0118452,2.34373
-0.172513,0.244977,0.137188,-0.0415517,-0.137313,0.00956392,2.34373
-0.188527,0.145501,0.134529,-0.0201419,-0.163227,-0.0287082,2.34373
-0.220331,0.0828433,0.143535,-0.00196862,-0.16389,-0.0685615,2.34373
-0.246419,-0.0542213,0.213973,0.0294683,-0.173625,-0.106368,2.34373
-0.240818,-0.36722,0.301581,0.0604004,-0.177213,-0.151272,2.34373
-0.103498,-0.619443,0.391035,0.0633842,-0.171357,-0.245559,2.34373
-0.00499734,-0.610587,0.39127,0.0540817,-0.152088,-0.291718,2.34373
-0.182742,-0.441938,0.341614,0.0691825,-0.129721,-0.244385,2.34373
-0.614963,-0.21786,0.246408,0.0682746,-0.110362,-0.202504,2.34373
-0.938987,-0.0770575,0.177255,0.0527796,-0.0875824,-0.253697,2.34373
-0.917585,-0.170615,0.171739,0.0494826,-0.0527602,-0.341118,2.34373
-0.651825,-0.380745,0.20854,0.0460971,-0.0150476,-0.398197,2.34373
-0.365684,-0.471399,0.269588,0.0438183,0.0126134,-0.395928,2.34373
-0.131355,-0.122366,0.257184,0.0222385,0.0344571,-0.394363,2.34373
0.00693326,0.362456,0.274855,6.80834e-05,0.0722748,-0.317784,2.34373
0.144015,0.505639,0.345697,-0.00178541,0.110102,-0.19574,2.34373
0.347948,0.358394,0.416558,-0.0286321,0.126459,-0.108657,2.34373
0.529689,0.0495823,0.426722,-0.099319,0.150333,-0.0382764,2.34373
0.577794,-0.153016,0.349182,-0.159827,0.158422,0.0201511,2.34373
0.50497,-0.179317,0.182818,-0.221306,0.159314,0.0618491,2.34373
0.457162,-0.0501063,-0.0389177,-0.252209,0.153792,0.0830689,2.34373
0.442359,0.124868,-0.250148,-0.244445,0.164518,0.14138,2.34373
0.410352,0.285444,-0.377009,-0.205084,0.174934,0.237824,2.34373
0.372791,0.326026,-0.473756,-0.18591,0.175224,0.333144,2.34373
0.335863,0.219181,-0.555227,-0.157322,0.16154,0.421783,2.34373
0.239678,0.0295996,-0.65241,-0.140242,0.148121,0.489778,2.34373
0.126565,-0.128892,-0.76203,-0.122525,0.136847,0.502352,2.34373
-0.0218725,-0.25286,-0.827608,-0.0939443,0.144603,0.504624,2.34373
-0.180056,-0.345394,-0.800906,-0.0548639,0.160092,0.474368,2.34373
-0.332484,-0.423826,-0.70098,-0.0286795,0.169893,0.431136,2.34373
-0.510367,-0.552018,-0.591075,-0.0117494,0.152176,0.370132,2.34373
-0.62327,-0.765293,-0.494999,0.0167644,0.10723,0.256262,2.34373
-0.633027,-0.76821,-0.44268,0.0046701,0.0674767,0.10601,2.34373
-0.664964,-0.617225,-0.47777,0.00443692,0.0171985,-0.0149931,2.34373
-0.738716,-0.286451,-0.55007,0.0214497,-0.0448331,-0.10617,2.34373
-0.809242,-0.0125237,-0.581768,0.0615282,-0.0754344,-0.156814,2.34373
-0.803279,0.133142,-0.47809,0.144718,-0.0990589,-0.194256,2.34373
-0.739024,0.0721672,-0.309541,0.190741,-0.118176,-0.228034,2.34373
-0.652598,-0.0943969,-0.161162,0.202069,-0.155855,-0.279139,2.34373
-0.572304,-0.189422,-0.0735496,0.176436,-0.181352,-0.365591,2.34373
-0.441934,-0.0951213,0.00616417,0.183658,-0.19948,-0.472729,2.34373
-0.264624,0.178515,0.101383,0.178222,-0.203958,-0.571111,2.34373
-0.131133,0.359566,0.216974,0.171144,-0.191811,-0.593713,2.34373
-0.034173,0.408401,0.307383,0.149429,-0.176428,-0.58708,2.34373
0.124146,0.47038,0.395371,0.146208,-0.15196,-0.586579,2.34373
0.398504,0.626876,0.525554,0.144256,-0.109516,-0.557908,2.34373
0.748365,0.867215,0.740495,0.16235,-0.0499431,-0.45918,2.34373
0.748365,0.867215,0.740495,0.16235,-0.0499431,-0.45918,0
1.00781,0.941809,0.984343,0.158679,-0.000317842,-0.270832,0
1.11576,0.734149,1.16167,0.133026,0.00430505,-0.0855076,0
1.10438,0.287112,1.20473,0.0836201,0.00479646,0.0342213,0
1.05846,-0.0448877,1.14318,0.0310991,0.0175659,0.0454308,0
1.06938,-0.00206879,0.991948,-0.0113712,0.0470378,-0.0147956,0
1.13409,0.254857,0.853634,-0.0131273,0.102054,-0.028233,0
1.20131,0.472819,0.810258,0.0158616,0.164629,0.0548998,0
1.19295,0.573765,0.847966,0.038652,0.21328,0.190528,0
1.14354,0.571957,0.892917,0.0468545,0.245304,0.31,0
1.0745,0.500238,0.930568,0.0434766,0.265651,0.409028,0
0.929078,0.341061,0.917917,0.0315272,0.272178,0.484659,0
0.662182,0.147637,0.821493,0.0286987,0.255812,0.530946,0
0.369542,0.0829001,0.660343,0.0358184,0.246116,0.51351,0
0.132831,0.14154,0.553442,0.089538,0.245296,0.458272,0
-0.037328,0.255658,0.490951,0.130185,0.266947,0.395997,0
-0.220276,0.340325,0.512625,0.174724,0.29254,0.361298,0
-0.421929,0.4157,0.606734,0.218881,0.28837,0.326736,0
-0.553819,0.382138,0.682294,0.209283,0.294789,0.280025,0
-0.626876,0.289468,0.753695,0.217308,0.273285,0.235878,0
-0.730982,0.16088,0.79773,0.20428,0.248587,0.187121,0
-0.927969,0.0946292,0.837759,0.200031,0.229434,0.153652,0
-1.20821,0.118447,0.886519,0.185147,0.203355,0.0958951,0
-1.54841,-0.0272338,0.840363,0.126959,0.163589,0.00213295,0
-1.8277,-0.135438,0.692664,0.0537521,0.102547,-0.170889,0
-1.93397,-0.168858,0.486676,0.0431629,0.0368006,-0.373841,0
-1.86174,-0.107953,0.386202,0.0849577,-0.00557686,-0.570438,0
-1.62213,0.0231377,0.51912,0.10873,0.0186073,-0.712773,0
-1.28705,0.173102,0.83251,0.0932153,0.00884995,-0.766943,0
-1.0159,0.171792,0.935051,-0.0259844,-0.0666251,-0.74372,0
-0.80609,0.0500769,0.759566,-0.144127,-0.178783,-0.708786,0
-0.562577,0.140163,0.501972,-0.206002,-0.236488,-0.71827,0
-0.163974,0.572062,0.360284,-0.23246,-0.20989,-0.725208,0
0.369383,1.12389,0.350999,-0.25063,-0.15548,-0.612334,0
0.820936,1.2623,0.381418,-0.278842,-0.110612,-0.361312,0
1.14346,1.01784,0.353986,-0.335945,-0.0720505,-0.121753,0
1.31044,0.531024,0.22426,-0.393896,-0.0426417,0.0598089,0
1.32328,0.0400268,0.000488161,-0.43496,-0.010392,0.170015,0
1.22789,-0.213543,-0.289356,-0.45984,0.0419887,0.226336,0
1.07337,-0.189733,-0.556433,-0.463333,0.114187,0.256435,0
0.88399,-0.00143968,-0.78728,-0.450368,0.184782,0.298536,0
0.640728,0.166482,-1.00716,-0.437938,0.226022,0.36711,0
0.363528,0.131638,-1.22097,-0.415924,0.245385,0.431171,0
0.143705,-0.10605,-1.3514,-0.357535,0.260391,0.455187,0
0.0598887,-0.409173,-1.36008,-0.292161,0.287457,0.428396,0
0.0677847,-0.70803,-1.29776,-0.245766,0.306099,0.386646,0
0.10445,-0.881848,-1.21603,-0.205972,0.299292,0.340626,0
0.148023,-0.921139,-1.15879,-0.180172,0.280968,0.302895,0
0.121794,-0.92458,-1.14599,-0.157508,0.255907,0.314762,0
-0.0428684,-0.954831,-1.16786,-0.133508,0.224974,0.361734,0
-0.269181,-1.07144,-1.2297,-0.101889,0.184789,0.363661,0
-0.269181,-1.07144,-1.2297,-0.101889,0.184789,0.363661,0.029068
-0.46075,-1.21294,-1.32027,-0.0593667,0.148942,0.309049,0.029068
-0.589854,-1.2987,-1.40416,-0.0199327,0.119683,0.233753,0.029068
-0.758596,-1.22387,-1.47635,0.0198164,0.0989272,0.170752,0.029068
-1.01317,-1.09232,-1.58388,0.0577551,0.0652633,0.11956,0.029068
-1.26641,-0.946595,-1.66031,0.111203,0.0329379,0.0247252,0.029068
-1.39083,-0.784516,-1.65154,0.175725,0.00534618,-0.110753,0.029068
-1.31929,-0.627412,-1.54495,0.243438,-0.021297,-0.258569,0.029068
-1.11594,-0.418972,-1.33364,0.308023,-0.052745,-0.377979,0.029068
-0.909701,-0.223816,-1.07849,0.351525,-0.0971059,-0.44978,0.029068
-0.788157,-0.0862808,-0.857442,0.347322,-0.16244,-0.497297,0.029068
-0.711722,0.045655,-0.71313,0.340181,-0.237882,-0.552498,0.029068
-0.595891,0.228713,-0.565744,0.331105,-0.269723,-0.622905,0.029068
-0.398562,0.453905,-0.365438,0.323781,-0.262882,-0.6776,0.029068
-0.162915,0.639257,-0.109054,0.323134,-0.252488,-0.686438,0.029068
0.0771835,0.670213,0.17182,0.311406,-0.24004,-0.652428,0.029068
0.386557,0.670887,0.454088,0.274225,-0.206399,-0.629002,0.029068
0.7594,0.815089,0.742392,0.222531,-0.146041,-0.579633,0.029068
1.10078,1.04714,1.02748,0.160642,-0.0791586,-0.427333,0.029068
1.28933,1.10699,1.24682,0.100598,-0.0367848,-0.209972,0.029068
1.34718,0.908276,1.36539,0.0435057,-0.0254187,-0.0263766,0.029068
1.31055,0.516489,1.39503,-0.000602677,-0.0145825,0.0909387,0.029068
1.2426,0.128267,1.36717,-0.0261729,0.00328849,0.123716,0.029068
1.18277,-0.0464316,1.28292,-0.0685126,0.0383812,0.106899,0.029068
1.13584,-0.0348735,1.12689,-0.0855443,0.0574764,0.0793032,0.029068
1.11781,0.119988,0.958927,-0.0705365,0.084673,0.0811248,0.029068
1.13244,0.313298,0.868943,-0.0307349,0.1376,0.128519,0.029068
1.12922,0.482397,0.871991,0.0146779,0.186952,0.226187,0.029068
1.11144,0.608212,0.914895,0.0319975,0.223559,0.332546,0.029068
1.08249,0.605959,0.95873,0.0367028,0.252058,0.434218,0.029068
1.0007,0.460494,0.990732,0.0349142,0.275077,0.524908,0.029068
0.866316,0.2279,1.03141,0.0520762,0.281321,0.581943,0.029068
0.725101,-0.0320169,1.06581,0.0844603,0.286156,0.59333,0.029068
0.538881,-0.165499,1.12124,0.119913,0.281774,0.570931,0.029068
0.327674,-0.257727,1.17812,0.156806,0.268468,0.504846,0.029068
0.0844131,-0.365163,1.17126,0.151717,0.254534,0.434496,0.029068
-0.197308,-0.447685,1.04751,0.144717,0.195772,0.341451,0.029068
-0.503179,-0.441278,0.815933,0.12641,0.137068,0.222023,0.029068
-0.759296,-0.3684,0.55196,0.136616,0.101043,0.0681894,0.029068
-0.914722,-0.151643,0.354831,0.162064,0.0801188,-0.097724,0.029068
-1.01188,0.16903,0.284132,0.190144,0.0904292,-0.210847,0.029068
-1.06312,0.373511,0.38891,0.220501,0.106764,-0.279336,0.029068
-0.992816,0.470032,0.535443,0.19919,0.0946,-0.342015,0.029068
-0.845543,0.537578,0.62855,0.147752,0.054581,-0.398992,0.029068
-0.743066,0.657528,0.688825,0.0828854,0.0130553,-0.408808,0.029068
-0.753761,0.692649,0.729227,0.0138195,-0.0148666,-0.358479,0.029068
-0.857363,0.538715,0.681175,-0.0478115,-0.0704575,-0.32679,0.029068
-0.915672,0.328911,0.561445,-0.0972145,-0.125411,-0.36367,0.029068
-0.808738,0.244866,0.449497,-0.112239,-0.150217,-0.443904,0.029068
-0.651226,0.309537,0.418907,-0.102184,-0.14274,-0.472697,0.029068
-0.596114,0.328759,0.401846,-0.119586,-0.139217,-0.437931,0.029068
-0.525992,0.321387,0.308029,-0.158229,-0.175487,-0.416401,0.029068
-0.525992,0.321387,0.308029,-0.158229,-0.175487,-0.416401,0.0607758
-0.348989,0.352548,0.0990025,-0.198813,-0.191637,-0.41599,0.0607758
-0.0359392,0.391818,-0.00790838,-0.162475,-0.167641,-0.400952,0.0607758
0.383252,0.403251,0.0664282,-0.134843,-0.0801247,-0.362517,0.0607758
0.72878,0.370132,0.187238,-0.165647,0.0011002,-0.268928,0.0607758
0.943569,0.238043,0.239626,-0.217547,0.0359899,-0.153803,0.0607758
1.06463,0.00623122,0.166849,-0.291444,0.0632663,-0.0609791,0.0607758
1.10592,-0.188915,0.00709927,-0.360521,0.0983753,0.00836134,0.0607758
1.09749,-0.275539,-0.215862,-0.405629,0.139683,0.0660689,0.0607758
1.08404,-0.280331,-0.46809,-0.435607,0.192685,0.132061,0.0607758
1.0425,-0.205809,-0.720306,-0.426071,0.240732,0.222287,0.0607758
0.940875,-0.135114,-0.90749,-0.380911,0.28222,0.328382,0.0607758
0.758332,-0.0593403,-1.06316,-0.341514,0.314364,0.433385,0.0607758
0.501513,-0.0890832,-1.18329,-0.303003,0.322453,0.523801,0.0607758
0.255604,-0.204348,-1.2802,-0.256116,0.315238,0.573687,0.0607758
0.0772087,-0.363067,-1.35822,-0.208114,0.300077,0.571074,0.0607758
-0.0590155,-0.47126,-1.37926,-0.161465,0.29449,0.55178,0.0607758
-0.198189,-0.56176,-1.30829,-0.111206,0.290453,0.536168,0.0607758
-0.358289,-0.79582,-1.2071,-0.0669982,0.27013,0.522962,0.0607758
-0.536013,-1.10821,-1.11015,-0.0223013,0.230017,0.477627,0.0607758
-0.713419,-1.29677,-1.0925,-0.0163605,0.164929,0.382829,0.0607758
-0.877136,-1.37485,-1.15958,0.0100658,0.0886799,0.280434,0.0607758
-1.09664,-1.26698,-1.25022,0.048092,0.0243554,0.170177,0.0607758
-1.36038,-0.968089,-1.28649,0.111003,-0.0191344,0.0516692,0.0607758
-1.60709,-0.786787,-1.23573,0.19996,-0.0620626,-0.0725998,0.0607758
-1.76491,-0.740193,-1.07423,0.288654,-0.101206,-0.229162,0.0607758
-1.65342,-0.765146,-0.804227,0.346193,-0.135724,-0.464139,0.0607758
-1.17534,-0.688784,-0.52986,0.367606,-0.186147,-0.698096,0.0607758
-0.641189,-0.394171,-0.283659,0.377097,-0.214548,-0.79859,0.0607758
-0.377764,0.096499,-0.0279351,0.369429,-0.229661,-0.762709,0.0607758
-0.304732,0.550251,0.169979,0.320403,-0.253034,-0.685967,0.0607758
-0.189716,0.739883,0.266115,0.274128,-0.285654,-0.60803,0.0607758
-0.00944561,0.515316,0.344997,0.265194,-0.27773,-0.527258,0.0607758
0.228285,0.189834,0.517682,0.262741,-0.208477,-0.507637,0.0607758
0.536107,0.132328,0.750463,0.243153,-0.124345,-0.534788,0.0607758
0.869194,0.325281,0.992317,0.221076,-0.0573888,-0.505198,0.0607758
1.15661,0.663715,1.24894,0.177775,0.00790066,-0.394141,0.0607758
1.27411,0.913559,1.38933,0.108036,0.0532843,-0.190645,0.0607758
1.20187,0.776623,1.42348,0.0560998,0.0678706,0.00767916,0.0607758
1.12414,0.453489,1.35376,0.0144277,0.0666284,0.106648,0.0607758
1.10168,0.191989,1.2047,-0.00104084,0.0796622,0.138355,0.0607758
1.12596,0.142987,1.07151,0.0101964,0.11305,0.144185,0.0607758
1.14045,0.217264,0.986237,0.0283558,0.159663,0.182835,0.0607758
1.08814,0.319356,0.931564,0.0521637,0.193095,0.256755,0.0607758
0.961373,0.327835,0.91009,0.0615851,0.223139,0.343433,0.0607758
0.819502,0.223283,0.882977,0.0630449,0.236792,0.39494,0.0607758
0.732739,0.117681,0.856585,0.0741638,0.241282,0.401446,0.0607758
0.733059,0.0845463,0.79892,0.0885394,0.243141,0.368353,0.0607758
0.680365,0.162231,0.751866,0.110172,0.259365,0.356069,0.0607758
0.524745,0.248151,0.766189,0.147361,0.269981,0.34553,0.0607758
0.384768,0.33895,0.88112,0.192671,0.276793,0.318807,0.0607758
0.384768,0.33895,0.88112,0.192671,0.276793,0.318807,0.198181
0.302484,0.367588,1.04278,0.213528,0.278973,0.284236,0.198181
0.241589,0.292433,1.18945,0.20801,0.25718,0.251803,0.198181
0.130508,0.178311,1.20362,0.15035,0.199939,0.225573,0.198181
-0.0265244,0.0487894,1.07629,0.111144,0.13674,0.191646,0.198181
-0.226923,-0.0062718,0.890715,0.0840341,0.0986261,0.135462,0.198181
-0.406775,0.0959642,0.730434,0.0808744,0.0925354,0.070554,0.198181
-0.556887,0.274421,0.627952,0.075737,0.0995878,0.0146304,0.198181
-0.635825,0.443912,0.608202,0.0828283,0.0992347,-0.0220164,0.198181
-0.614919,0.646465,0.611553,0.0707044,0.0809442,-0.0402734,0.198181
-0.578058,0.778644,0.575636,0.0513202,0.0580395,0.00772047,0.198181
-0.61538,0.756352,0.560462,0.0674229,0.0249641,0.0890107,0.198181
-0.6811,0.681483,0.60838,0.0922498,0.00322968,0.147695,0.198181
-0.715319,0.569157,0.722731,0.115825,-0.013401,0.154988,0.198181
-0.705108,0.446269,0.861055,0.121984,-0.0470634,0.14088,0.198181
-0.701461,0.362757,0.964143,0.107963,-0.0875447,0.115421,0.198181
-0.755332,0.266173,1.02524,0.0927225,-0.134862,0.103907,0.198181
-0.749646,0.106527,1.02862,0.0685758,-0.178197,0.0410865,0.198181
-0.670897,-0.0144235,0.992671,0.0645715,-0.201329,-0.025957,0.198181
-0.578679,-0.0807703,1.0011,0.0715939,-0.206854,-0.0880188,0.198181
-0.44275,0.0609744,0.98923,0.0677579,-0.219723,-0.161664,0.198181
-0.31889,0.208294,0.962441,0.0510432,-0.215268,-0.175281,0.198181
-0.248851,0.215863,0.949288,0.0602859,-0.21355,-0.149183,0.198181
-0.19904,0.164548,0.934047,0.0646944,-0.209005,-0.134099,0.198181
-0.155301,0.0914023,0.914323,0.0499491,-0.193756,-0.130806,0.198181
-0.165376,0.0311287,0.918401,0.0730495,-0.194755,-0.127523,0.198181
-0.233174,-0.00237365,0.905874,0.0801471,-0.202524,-0.14726,0.198181
-0.401585,-0.0636481,0.784435,0.0381795,-0.211323,-0.174499,0.198181
-0.632934,-0.364224,0.604045,-0.0151679,-0.205187,-0.23976,0.198181
-0.568187,-0.484961,0.372751,-0.0340778,-0.188248,-0.415771,0.198181
-0.210896,-0.196038,0.27201,-0.00921297,-0.0927377,-0.549315,0.198181
0.224347,0.338878,0.444709,0.0454394,0.0211553,-0.518598,0.198181
0.549572,0.703515,0.739712,0.0540336,0.11003,-0.338502,0.198181
0.744859,0.701066,0.897905,-0.0129157,0.126733,-0.134841,0.198181
0.886382,0.507809,0.885568,-0.0845484,0.128425,-0.00141323,0.198181
0.969218,0.275536,0.7737,-0.158996,0.162926,0.0835937,0.198181
0.966093,0.0707972,0.644209,-0.206001,0.209915,0.146458,0.198181
0.848868,-0.071797,0.47998,-0.228424,0.23682,0.196364,0.198181
0.61708,-0.131563,0.234202,-0.257124,0.252627,0.224363,0.198181
0.303969,-0.146788,-0.0555085,-0.261031,0.25789,0.242388,0.198181
0.0445658,-0.129622,-0.328464,-0.221382,0.266243,0.22238,0.198181
-0.143596,-0.127821,-0.517964,-0.152414,0.287901,0.200895,0.198181
-0.28951,-0.142601,-0.552678,-0.0476645,0.304628,0.184723,0.198181
-0.36183,-0.134254,-0.453847,0.0370527,0.318295,0.164849,0.198181
-0.373511,-0.086774,-0.322407,0.0871679,0.296283,0.13785,0.198181
-0.412142,-0.0121261,-0.181483,0.128283,0.254531,0.158136,0.198181
-0.585175,-0.0875778,-0.0284089,0.15355,0.210105,0.204581,0.198181
-0.779301,-0.10895,0.0913992,0.16202,0.142765,0.192434,0.198181
-0.865611,-0.144785,0.182631,0.149943,0.0878438,0.134049,0.198181
-0.893422,-0.120865,0.238494,0.144755,0.0364667,0.0899779,0.198181
-0.97866,-0.04875,0.243181,0.135125,-0.018325,0.0586559,0.198181
-1.08865,0.0443604,0.253743,0.144666,-0.0624827,0.0296134,0.198181
-1.08865,0.0443604,0.253743,0.144666,-0.0624827,0.0296134,0.412216
-1.11065,0.0662698,0.322439,0.155645,-0.090467,-0.022623,0.412216
-0.975625,-0.0417397,0.502621,0.199818,-0.114073,-0.0645397,0.412216
-0.786703,-0.170988,0.729933,0.224178,-0.133666,-0.0811605,0.412216
-0.632054,-0.140098,0.936889,0.207655,-0.166103,-0.0851187,0.412216
-0.51254,-0.0876525,1.07875,0.174663,-0.197494,-0.0820425,0.412216
-0.351764,-0.00843729,1.16199,0.153852,-0.228344,-0.0951997,0.412216
-0.15454,0.0249817,1.21906,0.139695,-0.241915,-0.118506,0.412216
0.0263046,0.0666109,1.30051,0.151368,-0.234737,-0.132104,0.412216
0.121037,0.021846,1.38642,0.155933,-0.224424,-0.140249,0.412216
0.240519,-0.00821632,1.44105,0.130397,-0.212417,-0.210119,0.412216
0.401255,0.0314187,1.42889,0.0937658,-0.205493,-0.303285,0.412216
0.416224,-0.107657,1.29453,0.0553401,-0.210702,-0.349939,0.412216
0.331925,-0.222115,1.09379,0.0445214,-0.224155,-0.447903,0.412216
0.319622,0.00592053,0.882392,0.0242073,-0.195493,-0.600194,0.412216
0.326412,0.368968,0.764604,0.0329721,-0.131684,-0.658928,0.412216
0.36947,0.676441,0.77432,0.0623934,-0.0628921,-0.655667,0.412216
0.4959,0.875618,0.855496,0.0881548,-0.00171308,-0.629906,0.412216
0.812065,1.10837,1.04469,0.131608,0.0449959,-0.581916,0.412216
1.25363,1.36895,1.33409,0.155944,0.115738,-0.434577,0.412216
1.55546,1.28388,1.65879,0.145392,0.183115,-0.204404,0.412216
1.68333,0.937368,1.93016,0.114782,0.209368,-0.0165266,0.412216
1.69742,0.429808,2.0586,0.0464405,0.219668,0.0892696,0.412216
1.62077,-0.000731206,1.97108,-0.0243731,0.201078,0.116454,0.412216
1.50897,-0.164705,1.72123,-0.0767803,0.195811,0.08134,0.412216
1.3899,-0.0546936,1.39439,-0.0952513,0.217719,0.0365021,0.412216
1.27148,0.150482,1.13641,-0.0470692,0.254651,0.0327139,0.412216
1.2035,0.297169,1.04243,0.0366646,0.320715,0.0600398,0.412216
1.20424,0.41551,1.09568,0.102733,0.382663,0.101209,0.412216
1.23835,0.47587,1.17528,0.122769,0.412897,0.162159,0.412216
1.23351,0.496947,1.2084,0.122063,0.421804,0.242505,0.412216
1.14757,0.497337,1.2032,0.116578,0.421559,0.318596,0.412216
0.982293,0.451767,1.16817,0.118009,0.415751,0.375761,0.412216
0.708467,0.371843,1.0699,0.131874,0.378084,0.395594,0.412216
0.424555,0.270456,0.972026,0.149105,0.340444,0.3712,0.412216
0.164946,0.0581913,0.844617,0.13929,0.332723,0.322397,0.412216
-0.0473879,-0.245329,0.710608,0.134819,0.33925,0.234995,0.412216
-0.204228,-0.277604,0.560088,0.126038,0.33545,0.116783,0.412216
-0.32489,0.11014,0.371476,0.0839067,0.320754,0.00533694,0.412216
-0.457191,0.745676,0.186936,0.0282228,0.301984,-0.0562841,0.412216
-0.633406,1.35332,-0.0184594,-0.00231085,0.26199,-0.0282261,0.412216
-0.869814,1.55696,-0.167871,0.0116031,0.209843,0.0661224,0.412216
-1.08122,1.53967,-0.20587,0.0244848,0.164385,0.104175,0.412216
-1.1424,1.41076,-0.111108,0.013184,0.153045,0.0782653,0.412216
-0.981993,1.36875,0.0964233,-0.0124414,0.120503,0.0149992,0.412216
-0.797292,1.26729,0.323596,-0.0390835,0.0765221,0.00398105,0.412216
-0.740945,1.04235,0.532735,-0.0829181,0.0265314,0.0223675,0.412216
-0.754593,0.788422,0.636488,-0.154906,-0.0274815,0.000346184,0.412216
-0.796714,0.517062,0.594839,-0.205147,-0.0952608,-0.054907,0.412216
-0.864785,0.26404,0.497775,-0.215173,-0.124017,-0.116248,0.412216
-0.888664,0.021304,0.491881,-0.193667,-0.100913,-0.204559,0.412216
-0.799253,-0.13174,0.619013,-0.174599,-0.0682304,-0.30569,0.412216
-0.718951,-0.329243,0.738558,-0.176444,-0.0770203,-0.350877,0.412216
-0.723091,-0.549901,0.701874,-0.202603,-0.142283,-0.362736,0.412216
-0.842597,-0.765117,0.437908,-0.273436,-0.191821,-0.391211,0.412216
-1.02563,-0.909275,0.0194279,-0.323357,-0.22737,-0.440553,0.412216
-1.13247,-0.927345,-0.373633,-0.284027,-0.230366,-0.52249,0.412216
-1.04435,-0.76272,-0.618641,-0.202679,-0.182851,-0.607441,0.412216
-0.770575,-0.528071,-0.705195,-0.123229,-0.140493,-0.639815,0.412216
-0.317055,-0.252945,-0.677222,-0.0629523,-0.0946923,-0.591402,0.412216
0.118125,0.00354244,-0.636707,-0.0398502,-0.0467321,-0.439387,0.412216
0.367228,0.121444,-0.597061,-0.0484808,-0.0160696,-0.226372,0.412216
0.507443,0.0181472,-0.609574,-0.0724879,-0.00184253,-0.0521389,0.412216
0.599465,-0.277852,-0.687007,-0.102668,0.0144809,0.0606094,0.412216
0.678637,-0.595599,-0.809773,-0.12967,0.037361,0.100745,0.412216
0.760405,-0.705228,-0.963307,-0.156304,0.0816782,0.110884,0.412216
0.791288,-0.643225,-1.13486,-0.181477,0.137287,0.149067,0.412216
0.758806,-0.517012,-1.32099,-0.175242,0.17998,0.212945,0.412216
0.717182,-0.420736,-1.46955,-0.148045,0.220329,0.278903,0.412216
0.675595,-0.392269,-1.56703,-0.11312,0.255999,0.343778,0.412216
0.649321,-0.470849,-1.59325,-0.0644861,0.285882,0.390554,0.412216
0.611093,-0.603196,-1.54103,-0.0144293,0.311088,0.424466,0.412216
0.515711,-0.755591,-1.44556,0.0321949,0.322751,0.440621,0.412216
0.366092,-0.818692,-1.34588,0.0508667,0.322133,0.415512,0.412216
0.171917,-0.740837,-1.28454,0.0429362,0.304661,0.374568,0.412216
-0.0642084,-0.703623,-1.29835,0.0348754,0.254542,0.33774,0.412216
-0.0642084,-0.703623,-1.29835,0.0348754,0.254542,0.33774,0.560181
-0.33503,-0.687202,-1.34586,0.04396,0.208289,0.307522,0.560181
-0.643656,-0.765244,-1.35416,0.0582628,0.178431,0.253486,0.560181
-0.84576,-0.647336,-1.31875,0.0630775,0.14118,0.131073,0.560181
-0.936935,-0.494114,-1.27895,0.0603354,0.105735,0.0360875,0.560181
-0.89328,-0.297212,-1.19323,0.0945411,0.065796,-0.0511029,0.560181
-0.784042,-0.162834,-1.03284,0.132654,0.0343494,-0.0765024,0.560181
-0.637297,-0.0402168,-0.828325,0.158713,-0.00288114,-0.0685998,0.560181
-0.561726,-0.0442312,-0.611127,0.155533,-0.043043,-0.00172222,0.560181
-0.548412,-0.189427,-0.453296,0.135649,-0.102688,0.0508226,0.560181
-0.496046,-0.26142,-0.390852,0.0865464,-0.160221,0.0278413,0.560181
-0.41106,-0.199837,-0.433114,0.0464695,-0.209068,-0.00667661,0.560181
-0.396321,-0.096805,-0.483863,0.0409543,-0.233365,0.0106532,0.560181
-0.442421,-0.0921135,-0.506945,0.0592538,-0.248124,0.0238501,0.560181
-0.435578,-0.135675,-0.524878,0.0614702,-0.257291,-0.00843495,0.560181
-0.357833,-0.183331,-0.564407,0.0695927,-0.264131,-0.0752158,0.560181
-0.242098,-0.188073,-0.564318,0.0855758,-0.241112,-0.14934,0.560181
-0.12536,-0.060385,-0.509354,0.104738,-0.206012,-0.210954,0.560181
0.0467847,0.150978,-0.433454,0.114367,-0.190008,-0.274642,0.560181
0.273786,0.315755,-0.343387,0.130876,-0.176838,-0.305996,0.560181
0.438326,0.3316,-0.207929,0.145297,-0.148421,-0.292079,0.560181
0.519981,0.269047,-0.0482422,0.145262,-0.12273,-0.28827,0.560181
0.566127,0.257291,0.0537072,0.112583,-0.0951446,-0.312442,0.560181
0.536392,0.32013,0.0898509,0.0831437,-0.0903807,-0.327912,0.560181
0.386855,0.37351,0.0338601,0.0632323,-0.0988092,-0.311626,0.560181
0.146917,0.284326,-0.0413797,0.0652322,-0.0893849,-0.303834,0.560181
-0.0248708,0.117514,-0.073669,0.0815588,-0.0632193,-0.348652,0.560181
-0.0826373,0.0449288,-0.110602,0.0834379,-0.0384855,-0.411106,0.560181
0.0276631,0.241009,-0.0637649,0.097559,0.00611284,-0.451413,0.560181
0.334049,0.721395,0.114934,0.111012,0.0793,-0.425631,0.560181
0.611857,1.05323,0.41581,0.13457,0.133112,-0.242816,0.560181
0.709767,1.03288,0.698823,0.119778,0.151854,-0.00165325,0.560181
0.655376,0.583619,0.840484,0.0865206,0.11798,0.184232,0.560181
0.56401,0.0887549,0.859732,0.0497111,0.0839775,0.256852,0.560181
0.493918,-0.17164,0.79745,0.00915676,0.0800574,0.228687,0.560181
0.460804,-0.128193,0.696492,-0.0179982,0.0946425,0.180115,0.560181
0.402752,-0.0880766,0.579688,-0.0177863,0.099756,0.184895,0.560181
0.353782,-0.014553,0.483208,-0.00909891,0.114937,0.191055,0.560181
0.280584,-0.0182071,0.450643,0.0115605,0.144994,0.219845,0.560181
0.210396,-0.068174,0.458639,0.0467818,0.150735,0.243108,0.560181
0.179835,-0.114675,0.436427,0.0512527,0.13777,0.246778,0.560181
0.224056,-0.226178,0.446409,0.0594136,0.118618,0.230438,0.560181
0.378187,-0.297839,0.450845,0.0493541,0.140234,0.174773,0.560181
0.450418,-0.308381,0.512519,0.0712338,0.149408,0.178748,0.560181
0.433322,-0.0971516,0.607931,0.0976489,0.117524,0.190799,0.560181
0.344029,-0.0282661,0.624549,0.0926712,0.102694,0.182405,0.560181
0.22652,0.00717907,0.626754,0.0969248,0.091003,0.18639,0.560181
0.128084,0.0209825,0.63118,0.077535,0.0723221,0.165839,0.560181
0.0880115,0.0808881,0.564332,0.0542975,0.0500969,0.151102,0.560181
0.0384273,0.0737038,0.43951,0.0370976,0.0333824,0.143232,0.560181
-0.071354,0.0507568,0.341295,0.0546607,0.0180545,0.130941,0.560181
-0.22285,0.0908399,0.306103,0.0709198,0.0134279,0.114629,0.560181
-0.324236,0.137093,0.341053,0.0910554,0.021198,0.0950071,0.560181
-0.33654,0.109704,0.410185,0.0855372,0.0106152,0.0516977,0.560181
-0.261626,0.142978,0.440493,0.0762124,-0.0163225,0.0143879,0.560181
-0.261626,0.142978,0.440493,0.0762124,-0.0163225,0.0143879,0.594528
-0.184327,0.198459,0.425594,0.0576053,-0.0397415,-0.00737357,0.594528
-0.170795,0.217398,0.409526,0.0520685,-0.0502618,-0.00865173,0.594528
-0.227242,0.16856,0.437232,0.0706531,-0.0591655,-0.00614595,0.594528
-0.313417,0.0575709,0.479492,0.0728736,-0.0659527,-0.0150201,0.594528
-0.405932,-0.0912292,0.465823,0.0426542,-0.0778953,-0.0686571,0.594528
-0.460028,-0.217904,0.387557,0.00606398,-0.0773811,-0.155559,0.594528
-0.43812,-0.224021,0.307487,-0.0145472,-0.0620013,-0.266834,0.594528
-0.356986,0.0304825,0.341266,-0.00877922,-0.0312727,-0.335179,0.594528
-0.307776,0.138172,0.481087,0.00370373,-0.0150672,-0.306256,0.594528
-0.321431,0.0127354,0.558979,-0.0218075,-0.0302336,-0.252798,0.594528
-0.365676,-0.206064,0.482512,-0.0792124,-0.0632372,-0.230308,0.594528
-0.52384,-0.518117,0.217873,-0.158345,-0.0898337,-0.231141,0.594528
-0.69183,-0.600672,-0.0883281,-0.192814,-0.0887864,-0.299483,0.594528
-0.676556,-0.263612,-0.300221,-0.172388,-0.0539123,-0.392044,0.594528
-0.434513,0.240012,-0.334055,-0.112619,-0.00595209,-0.398745,0.594528
-0.154892,0.537758,-0.237588,-0.0558964,0.0361351,-0.274192,0.594528
0.00764979,0.462518,-0.175707,-0.0443694,0.03921,-0.108943,0.594528
0.0750698,0.154663,-0.160106,-0.0390732,0.0256694,0.00206858,0.594528
0.0742856,-0.170382,-0.178134,-0.0495278,0.0326989,0.0587967,0.594528
0.0179351,-0.345295,-0.187476,-0.0788772,0.0478985,0.0600753,0.594528
0.0551132,-0.40118,-0.182852,-0.104442,0.0679679,0.0297542,0.594528
0.202098,-0.333558,-0.199268,-0.100792,0.0706313,0.022772,0.594528
0.311675,-0.158836,-0.221516,-0.0905392,0.0745738,0.0781425,0.594528
0.307999,0.0553741,-0.269535,-0.103948,0.0736933,0.160497,0.594528
0.245777,0.131084,-0.344373,-0.0979181,0.0723827,0.245403,0.594528
0.251963,0.123714,-0.376442,-0.0673239,0.0711848,0.300906,0.594528
0.320825,0.105084,-0.378236,-0.052691,0.0967063,0.329166,0.594528
0.429456,0.0809751,-0.355857,-0.0567867,0.106812,0.325687,0.594528
0.507627,0.0224859,-0.332577,-0.0455214,0.108417,0.335601,0.594528
0.425,-0.198313,-0.30189,-0.0182591,0.111307,0.355546,0.594528
0.241518,-0.3091,-0.245188,0.00781357,0.110797,0.328175,0.594528
0.0506751,-0.331993,-0.200405,0.0246947,0.101131,0.271552,0.594528
-0.0640977,-0.29735,-0.150108,0.018503,0.0908582,0.193203,0.594528
-0.081067,-0.232137,-0.138212,-0.000751078,0.0729425,0.128965,0.594528
-0.114699,-0.206714,-0.147114,-0.00802159,0.0604646,0.111001,0.594528
-0.224868,-0.227523,-0.132582,0.000371519,0.0454045,0.116848,0.594528
-0.381772,-0.199571,-0.125467,-0.0040393,0.0318217,0.106231,0.594528
-0.489891,-0.110297,-0.158165,-0.0185386,0.011305,0.0769561,0.594528
-0.505129,0.0147464,-0.178618,-0.018968,0.0064933,0.0669796,0.594528
-0.490543,0.0174812,-0.144563,-0.00307094,0.0127748,0.095194,0.594528
-0.492417,-0.0770945,-0.0758147,0.0163278,0.0155917,0.13398,0.594528
-0.49303,-0.0974685,-0.00870227,0.0239092,0.00593531,0.132761,0.594528
-0.467955,0.00848287,0.00485447,0.00717931,-0.0175066,0.109831,0.594528
-0.429183,0.108741,-0.0201399,-0.012077,-0.0267272,0.0906646,0.594528
-0.443072,0.0313072,0.00296957,0.0115627,-0.026761,0.0851595,0.594528
-0.504572,-0.0626454,0.0322421,0.0437757,-0.0402758,0.0405121,0.594528
-0.55082,-0.161982,0.0684939,0.0669494,-0.0484577,-0.0426787,0.594528
-0.676492,-0.289607,0.114186,0.0743805,-0.0455498,-0.138481,0.594528
-0.872498,-0.388077,0.1553,0.0769784,-0.0670225,-0.273281,0.594528
-0.929962,-0.165318,0.106762,0.0383703,-0.120599,-0.460181,0.594528
-0.841022,0.18866,-0.00534728,0.0164436,-0.151377,-0.577187,0.594528
-0.747676,0.446725,-0.0208862,0.0419632,-0.14938,-0.588899,0.594528
-0.66633,0.568974,0.05592,0.0629611,-0.135735,-0.550231,0.594528
-0.541524,0.59316,0.109422,0.0709355,-0.142233,-0.510608,0.594528
-0.541524,0.59316,0.109422,0.0709355,-0.142233,-0.510608,0.803268
-0.334044,0.700655,0.175253,0.086155,-0.15065,-0.471717,0.803268
-0.0641702,0.843342,0.292617,0.11219,-0.130961,-0.390054,0.803268
0.185924,0.882459,0.469582,0.133697,-0.10992,-0.27534,0.803268
0.355032,0.762023,0.653665,0.147146,-0.101335,-0.155665,0.803268
0.508595,0.532994,0.785345,0.132513,-0.0915224,-0.0871125,0.803268
0.602563,0.373087,0.827122,0.0886646,-0.0870123,-0.0361714,0.803268
0.586396,0.251848,0.762597,0.0533879,-0.0892561,0.00470281,0.803268
0.516965,0.29823,0.670385,0.034441,-0.0505164,0.0300082,0.803268
0.542939,0.415904,0.716718,0.0671657,0.00563864,0.0382314,0.803268
0.697559,0.565308,0.827013,0.0812153,0.0657892,0.0715523,0.803268
0.839523,0.641328,0.954215,0.0760713,0.103295,0.167039,0.803268
0.885494,0.620386,1.05066,0.0623513,0.11722,0.279592,0.803268
0.852417,0.59396,1.12531,0.0476348,0.120515,0.377728,0.803268
0.72352,0.414274,1.14665,0.0321355,0.117125,0.449363,0.803268
0.564788,0.195004,1.08979,0.0116867,0.101782,0.46555,0.803268
0.448181,0.0647809,1.01286,0.00712547,0.0986906,0.419471,0.803268
0.359838,-0.0154762,0.971807,0.0192828,0.119788,0.3514,0.803268
0.260703,-0.0138837,0.941902,0.0322673,0.133552,0.281835,0.803268
0.141011,0.010264,0.919936,0.0484101,0.141476,0.227463,0.803268
0.0150948,0.0648569,0.878098,0.0359523,0.150492,0.186136,0.803268
-0.0972185,0.15341,0.798082,0.0270538,0.147842,0.161564,0.803268
-0.171151,0.327291,0.711506,0.0335557,0.137673,0.136831,0.803268
-0.24362,0.41774,0.683205,0.0428674,0.145461,0.14831,0.803268
-0.395881,0.386646,0.68938,0.0516466,0.134678,0.173171,0.803268
-0.647769,0.257446,0.699563,0.0577834,0.105076,0.165573,0.803268
-0.892846,0.137879,0.653173,0.0376117,0.0681133,0.0927923,0.803268
-1.09051,0.113795,0.581441,0.041373,0.035987,0.000268996,0.803268
-1.24224,0.100975,0.569617,0.0524864,0.02367,-0.0734159,0.803268
-1.32226,0.0299812,0.61803,0.059656,0.00765537,-0.146941,0.803268
-1.41137,-0.265686,0.631017,0.0425992,-0.0214765,-0.222235,0.803268
-1.50154,-0.648382,0.585581,0.0433302,-0.0889803,-0.341748,0.803268
-1.4549,-0.824954,0.518286,0.0491254,-0.115701,-0.524719,0.803268
-1.25222,-0.625699,0.554505,0.0506839,-0.10222,-0.681121,0.803268
-0.94483,-0.168256,0.674916,0.0418935,-0.0877192,-0.740289,0.803268
-0.728016,0.124767,0.743526,0.00926816,-0.088451,-0.66137,0.803268
-0.615583,0.10765,0.689341,0.0136318,-0.165085,-0.527382,0.803268
-0.457955,0.185759,0.565176,-0.0156257,-0.185653,-0.462763,0.803268
-0.172751,0.437165,0.51068,-0.0265424,-0.134493,-0.402629,0.803268
0.0866924,0.642325,0.536479,-0.0233406,-0.0801938,-0.28608,0.803268
0.290275,0.565246,0.61747,-0.0274576,-0.0367603,-0.163953,0.803268
0.488978,0.355807,0.691338,-0.0484442,-0.0135003,-0.087904,0.803268
0.670452,0.0480314,0.73028,-0.0876361,0.00603997,-0.04361,0.803268
0.823311,-0.210107,0.7386,-0.111401,0.0296095,-0.0264341,0.803268
0.972095,-0.271531,0.709117,-0.163903,0.0609413,-0.0180721,0.803268
1.09356,-0.135601,0.587215,-0.197204,0.0757321,0.0209857,0.803268
1.08766,0.113045,0.4215,-0.194781,0.0807125,0.118079,0.803268
0.939294,0.312983,0.293222,-0.175283,0.101382,0.225919,0.803268
0.817087,0.434151,0.214919,-0.126833,0.101402,0.303841,0.803268
0.766973,0.426393,0.16952,-0.0942905,0.110725,0.349922,0.803268
0.789386,0.372823,0.170234,-0.0576696,0.124356,0.382284,0.803268
0.783612,0.229095,0.24165,-0.0186677,0.131137,0.417626,0.803268
0.720562,0.037444,0.262992,-0.0229813,0.131834,0.440607,0.803268
0.609703,-0.0859634,0.218865,-0.0262992,0.118043,0.435065,0.803268
0.425264,-0.0889733,0.169542,-0.00536277,0.10295,0.409135,0.803268
0.425264,-0.0889733,0.169542,-0.00536277,0.10295,0.409135,1.00145
0.235042,-0.0122564,0.123656,0.00130755,0.104204,0.365511,1.00145
0.0790083,0.0118049,0.114442,0.0272652,0.0983498,0.316555,1.00145
-0.025544,-0.177703,0.158497,0.0574545,0.0874656,0.268914,1.00145
-0.0652644,-0.333525,0.210917,0.0635088,0.0732379,0.197919,1.00145
-0.116042,-0.364705,0.23287,0.0457809,0.0586784,0.113766,1.00145
-0.198818,-0.121481,0.208598,0.023439,0.0379804,0.0475083,1.00145
-0.353474,0.144449,0.179999,0.00784855,0.0277213,0.0295764,1.00145
-0.489726,0.338807,0.181235,0.00871561,0.0122954,0.0225114,1.00145
-0.511932,0.415376,0.22454,0.0163877,0.000440568,0.0040915,1.00145
-0.382944,0.398286,0.366618,0.0424594,-0.00514422,-0.00249571,1.00145
-0.242111,0.350203,0.520533,0.0420014,-0.0153534,0.0312303,1.00145
-0.24075,0.297146,0.597742,0.0194643,-0.0507681,0.0826621,1.00145
-0.311469,0.291462,0.602601,-0.00256808,-0.0922289,0.0902463,1.00145
-0.305184,0.321654,0.60082,0.00531255,-0.110829,0.0382594,1.00145
-0.13214,0.367049,0.697115,0.038868,-0.101408,-0.0515746,1.00145
0.121876,0.466372,0.838566,0.0645176,-0.0861121,-0.10512,1.00145
0.238141,0.482291,0.975711,0.085106,-0.0976063,-0.0934611,1.00145
0.183028,0.461448,1.03238,0.0902832,-0.13345,-0.0988365,1.00145
0.0663787,0.128999,1.05358,0.0691928,-0.144774,-0.14706,1.00145
0.0581198,-0.603076,1.03814,0.04992,-0.114412,-0.281802,1.00145
0.248979,-0.929007,1.03861,0.0667212,-0.0876238,-0.472204,1.00145
0.532098,-0.642349,1.09265,0.051072,-0.0257841,-0.569998,1.00145
0.833904,0.0549416,1.14767,0.0116949,0.0520576,-0.538573,1.00145
1.00642,0.826978,1.19994,-0.00539152,0.0835581,-0.32151,1.00145
0.985209,1.31702,1.11702,-0.0260123,0.0679185,-0.0423107,1.00145
0.874315,1.58981,1.03375,-0.0443788,0.0935389,0.204295,1.00145
0.707142,1.47494,1.03093,-0.0296612,0.118701,0.400372,1.00145
0.47891,1.03035,1.11011,0.0378781,0.0907629,0.525004,1.00145
0.170579,0.417192,1.14659,0.0789735,0.0483393,0.575912,1.00145
-0.21062,-0.20898,1.11696,0.0698829,0.0335271,0.551848,1.00145
-0.481739,-0.786856,1.08711,0.0598374,0.0266483,0.389218,1.00145
-0.501157,-0.952814,0.98361,0.0683792,0.0206268,0.161429,1.00145
-0.401702,-0.801906,0.860398,0.10211,0.0141279,-0.0167266,1.00145
-0.317367,-0.279679,0.827585,0.158208,0.0234587,-0.131197,1.00145
-0.33131,0.256098,0.887956,0.207354,0.0400297,-0.146216,1.00145
-0.341051,0.591834,0.96541,0.242617,0.0194866,-0.149721,1.00145
-0.277469,0.663145,1.0482,0.253503,0.00768501,-0.108596,1.00145
-0.190786,0.478736,1.10091,0.241996,-0.0125111,-0.0620526,1.00145
-0.0651751,0.301869,1.11209,0.217318,-0.0397731,-0.0452649,1.00145
-0.00404898,0.195487,1.05432,0.181429,-0.0506102,-0.0185756,1.00145
-0.0911644,0.246841,0.985001,0.159489,-0.0557444,0.0109211,1.00145
-0.192069,0.345916,0.947919,0.135604,-0.044154,0.0187371,1.00145
-0.126764,0.460753,0.885738,0.122271,-0.0570759,-0.0282652,1.00145
-0.0308293,0.570617,0.836028,0.113256,-0.0522178,-0.00667191,1.00145
-0.0878222,0.465469,0.834427,0.140271,-0.0579631,0.068406,1.00145
-0.10636,0.432863,0.856497,0.173636,-0.0803478,0.0567166,1.00145
-0.0838746,0.395228,0.873956,0.179198,-0.0959627,0.00780278,1.00145
-0.0576284,0.53588,0.896638,0.178719,-0.114838,-0.0399367,1.00145
-0.120481,0.646667,0.920846,0.170844,-0.126786,-0.0688742,1.00145
-0.209492,0.713425,0.880103,0.139938,-0.159585,-0.124208,1.00145
-0.220891,0.536469,0.829418,0.128948,-0.176019,-0.191868,1.00145
-0.0677051,0.107245,0.823641,0.144344,-0.1644,-0.298132,1.00145
0.214306,-0.308538,0.907833,0.148974,-0.12497,-0.430685,1.00145
0.408692,-0.380846,0.986061,0.109014,-0.0741486,-0.517374,1.00145
0.408692,-0.380846,0.986061,0.109014,-0.0741486,-0.517374,1.17584
0.393369,-0.191175,1.039,0.029689,-0.038157,-0.514059,1.17584
0.312609,0.0426781,1.0267,-0.0620787,-0.0334834,-0.465822,1.17584
0.222828,0.122718,0.788239,-0.142877,-0.055047,-0.359966,1.17584
0.0456306,0.00917533,0.515193,-0.14757,-0.0855757,-0.264329,1.17584
-0.171732,-0.200057,0.311025,-0.147026,-0.0660911,-0.230405,1.17584
-0.137217,-0.336576,0.262537,-0.139129,-0.0104635,-0.325639,1.17584
0.253331,-0.105032,0.309782,-0.12753,0.0470291,-0.418482,1.17584
0.688145,0.284372,0.335852,-0.159788,0.125121,-0.346096,1.17584
0.815954,0.525984,0.342818,-0.169471,0.157432,-0.135556,1.17584
0.720342,0.373436,0.281376,-0.19413,0.184519,0.0597268,1.17584
0.646612,0.00922163,0.226413,-0.196133,0.231441,0.144138,1.17584
0.639225,-0.34719,0.208988,-0.188545,0.283278,0.157477,1.17584
0.63094,-0.518653,0.202775,-0.206795,0.333412,0.164718,1.17584
0.624555,-0.558655,0.111023,-0.233832,0.34796,0.180536,1.17584
0.555614,-0.462941,-0.0917757,-0.248859,0.341489,0.230072,1.17584
0.37915,-0.287017,-0.273411,-0.234584,0.344047,0.312488,1.17584
0.154564,-0.161348,-0.416591,-0.199238,0.337568,0.396642,1.17584
-0.0445751,-0.191801,-0.527916,-0.156604,0.324496,0.452218,1.17584
-0.157849,-0.24945,-0.588832,-0.104,0.287531,0.475191,1.17584
-0.216667,-0.288199,-0.642181,-0.0733506,0.252054,0.483314,1.17584
-0.295954,-0.343388,-0.687696,-0.0452561,0.223962,0.489386,1.17584
-0.436942,-0.423148,-0.689173,-0.012055,0.190204,0.496201,1.17584
-0.61394,-0.584166,-0.663181,0.0293009,0.150008,0.45723,1.17584
-0.804666,-0.708917,-0.660883,0.0547626,0.0839049,0.36887,1.17584
-0.917203,-0.718545,-0.724056,0.0342588,0.0280611,0.226313,1.17584
-0.944218,-0.70726,-0.722119,0.0774554,-0.0248056,0.0908477,1.17584
-0.894159,-0.611215,-0.617965,0.115658,-0.0495064,-0.0381808,1.17584
-0.773209,-0.382094,-0.452489,0.118153,-0.0700107,-0.139917,1.17584
-0.614481,-0.135836,-0.241359,0.120793,-0.110728,-0.189429,1.17584
-0.430368,0.0472613,-0.101154,0.0935913,-0.160206,-0.208236,1.17584
-0.287763,0.0967198,-0.0422154,0.0751007,-0.214509,-0.185853,1.17584
-0.223277,-0.0299397,0.00910322,0.0698313,-0.236421,-0.157549,1.17584
-0.165869,-0.167192,0.0680876,0.0723831,-0.237927,-0.194618,1.17584
-0.0828862,-0.220416,0.11581,0.0476343,-0.226339,-0.28472,1.17584
-0.0228363,-0.177617,0.0856553,0.00575224,-0.219734,-0.378356,1.17584
0.0107129,-0.0232308,-0.0371932,-0.029781,-0.211561,-0.462402,1.17584
0.0688477,0.247853,-0.175999,-0.03059,-0.174542,-0.512088,1.17584
0.0775942,0.459343,-0.228348,0.0132404,-0.104458,-0.480567,1.17584
-0.00671802,0.50765,-0.181069,0.0670274,-0.045184,-0.413747,1.17584
-0.0726336,0.53432,-0.0848103,0.091196,-0.00878888,-0.383778,1.17584
-0.0534867,0.615605,-0.00215556,0.0839043,0.00979045,-0.372759,1.17584
0.0944841,0.80068,0.0421459,0.0793152,0.0119051,-0.353978,1.17584
0.365541,1.01411,0.154803,0.106147,0.0371237,-0.28806,1.17584
0.586593,1.05926,0.370218,0.131379,0.0845771,-0.144015,1.17584
0.752731,0.976815,0.633856,0.151428,0.106422,-0.00517231,1.17584
0.858732,0.774967,0.824607,0.134861,0.10211,0.112149,1.17584
0.843821,0.48142,0.886312,0.0902697,0.0819147,0.196498,1.17584
0.698496,0.199106,0.791303,0.0487895,0.0520281,0.251551,1.17584
0.503933,0.0662145,0.632414,0.0108487,0.0441728,0.238581,1.17584
0.410103,0.158105,0.479691,-0.0126769,0.0718015,0.178818,1.17584
0.433871,0.305769,0.406737,0.00122395,0.112466,0.154991,1.17584
0.518223,0.383034,0.40826,0.0240166,0.147591,0.187308,1.17584
0.566409,0.345394,0.441223,0.0369289,0.175354,0.255708,1.17584
0.566409,0.345394,0.441223,0.0369289,0.175354,0.255708,1.38458
0.513623,0.247568,0.465416,0.0406305,0.182218,0.334289,1.38458
0.361756,0.196665,0.440566,0.0401011,0.177128,0.383099,1.38458
0.15053,0.159978,0.412744,0.0492474,0.180549,0.394817,1.38458
-0.025009,0.0556963,0.419492,0.0739824,0.183796,0.352427,1.38458
-0.115768,-0.03178,0.422166,0.0775449,0.185023,0.277351,1.38458
-0.165084,0.0115946,0.412922,0.0759189,0.181,0.210314,1.38458
-0.275041,0.0538986,0.391891,0.0646279,0.17899,0.178823,1.38458
-0.396807,0.0987789,0.37054,0.055048,0.160783,0.155552,1.38458
-0.480276,0.118145,0.385592,0.0611315,0.139859,0.122241,1.38458
-0.518487,0.148909,0.415493,0.0497875,0.11398,0.0893458,1.38458
-0.565594,0.174471,0.402476,0.033518,0.0826676,0.081462,1.38458
-0.634871,0.213744,0.368606,0.0226584,0.0604745,0.0938702,1.38458
-0.71724,0.239359,0.39277,0.0361884,0.0559938,0.110854,1.38458
-0.775969,0.204508,0.450434,0.038344,0.0509704,0.106398,1.38458
-0.773832,0.143124,0.47402,0.0284514,0.0214958,0.080596,1.38458
-0.802222,0.0565254,0.470546,0.0211439,-0.00491405,0.0565805,1.38458
-0.859616,0.022018,0.468863,0.0204926,-0.0312029,0.0145053,1.38458
-0.919977,-0.0646651,0.44684,0.0178069,-0.049746,-0.0535774,1.38458
-0.959251,-0.224917,0.441303,0.0305486,-0.0746506,-0.136199,1.38458
-0.937874,-0.399772,0.420053,0.0329381,-0.0918754,-0.248465,1.38458
-0.812174,-0.370839,0.39976,0.0258068,-0.0962977,-0.379308,1.38458
-0.696976,-0.26467,0.441604,0.0349623,-0.0948533,-0.447755,1.38458
-0.654407,-0.244072,0.495447,0.034743,-0.124941,-0.462915,1.38458
-0.623329,-0.267465,0.447255,-0.0162944,-0.156361,-0.479115,1.38458
-0.630062,-0.399058,0.293842,-0.0699757,-0.195854,-0.496811,1.38458
-0.651356,-0.684674,0.0769074,-0.112811,-0.21205,-0.547688,1.38458
-0.544512,-0.692741,-0.134756,-0.125249,-0.190302,-0.676861,1.38458
-0.276871,-0.23518,-0.263702,-0.106222,-0.138321,-0.776314,1.38458
0.190103,0.416047,-0.224217,-0.0709366,-0.0633646,-0.753838,1.38458
0.661594,0.877084,-0.111107,-0.0599258,0.00466067,-0.551373,1.38458
0.927086,0.827467,-0.00421585,-0.0727874,0.0450515,-0.270382,1.38458
1.09909,0.516986,0.0892935,-0.118927,0.081171,-0.0659214,1.38458
1.22297,0.15583,0.0917133,-0.19225,0.113117,0.0613882,1.38458
1.245,-0.10043,-0.0430711,-0.263629,0.124119,0.156264,1.38458
1.11767,-0.178043,-0.270676,-0.300438,0.141719,0.24509,1.38458
0.898259,-0.105479,-0.494357,-0.299471,0.170437,0.323562,1.38458
0.684341,0.0355642,-0.692589,-0.274262,0.193015,0.382841,1.38458
0.480643,0.127563,-0.844264,-0.237583,0.208275,0.445207,1.38458
0.332161,0.0410311,-0.925969,-0.182462,0.211967,0.490075,1.38458
0.272638,-0.139694,-0.927345,-0.127984,0.230307,0.50047,1.38458
0.268377,-0.283688,-0.845687,-0.0832451,0.252044,0.479807,1.38458
0.24982,-0.373653,-0.737139,-0.0513684,0.253485,0.463975,1.38458
0.197343,-0.449327,-0.654266,-0.0271654,0.235267,0.435948,1.38458
0.0964828,-0.482602,-0.602586,-0.0091867,0.213398,0.40003,1.38458
-0.0536449,-0.505063,-0.552271,0.0222197,0.186746,0.35622,1.38458
-0.209194,-0.457087,-0.485076,0.037369,0.161437,0.295897,1.38458
-0.341975,-0.312054,-0.478598,0.0326865,0.117417,0.230441,1.38458
-0.465306,-0.104308,-0.514541,0.0340274,0.0626371,0.183481,1.38458
-0.619416,-0.0512261,-0.551295,0.0565011,0.0260469,0.169647,1.38458
-0.781026,-0.11535,-0.527388,0.0821696,-0.00727934,0.140978,1.38458
-0.863848,-0.208404,-0.464866,0.0936418,-0.0283253,0.057027,1.38458
-0.78033,-0.191927,-0.360101,0.0926154,-0.0420963,-0.049409,1.38458
-0.57002,-0.0864264,-0.247553,0.096881,-0.068588,-0.117042,1.38458
-0.374335,0.024113,-0.106366,0.103275,-0.0908158,-0.104494,1.38458
-0.374335,0.024113,-0.106366,0.103275,-0.0908158,-0.104494,1.58804
-0.30688,0.0437939,0.0126264,0.0877054,-0.118604,-0.0456588,1.58804
-0.302578,-0.00580388,0.06323,0.051998,-0.163601,-0.0216179,1.58804
-0.288904,-0.0875081,0.0363555,0.0149514,-0.196854,-0.0505258,1.58804
-0.250755,-0.129968,-0.0412452,-0.0166053,-0.213746,-0.105528,1.58804
-0.268885,-0.106235,-0.165737,-0.0415928,-0.22511,-0.154236,1.58804
-0.336088,-0.111739,-0.283826,-0.0389897,-0.22453,-0.209981,1.58804
-0.321009,-0.13686,-0.305279,0.000315562,-0.203342,-0.310925,1.58804
-0.234067,-0.0837555,-0.259443,0.0317731,-0.171032,-0.416545,1.58804
-0.129791,0.14668,-0.180787,0.0521288,-0.156505,-0.484581,1.58804
-0.0705887,0.377177,-0.0874793,0.0601048,-0.137197,-0.485093,1.58804
-0.112253,0.24913,-0.0261803,0.0773271,-0.148126,-0.435077,1.58804
-0.141927,0.0866624,-0.0362595,0.0785832,-0.168414,-0.444286,1.58804
-0.104273,0.1263,-0.0541955,0.0956038,-0.15154,-0.479604,1.58804
0.0180745,0.265582,0.0216087,0.139736,-0.105583,-0.466883,1.58804
0.330466,0.595187,0.226305,0.182508,-0.0513306,-0.427133,1.58804
0.710492,0.920457,0.515467,0.193667,0.0274973,-0.269026,1.58804
0.890988,0.886493,0.774993,0.179485,0.0499801,-0.0259091,1.58804
0.830461,0.579298,0.909078,0.127013,0.0494981,0.185686,1.58804
0.598325,0.0998655,0.901094,0.0778145,0.0399145,0.296499,1.58804
0.439127,-0.119256,0.793319,0.0439904,0.0328889,0.263728,1.58804
0.430509,0.0162154,0.662667,0.0168631,0.0715322,0.191074,1.58804
0.496519,0.297956,0.655443,0.0621138,0.109818,0.186568,1.58804
0.511691,0.395645,0.759223,0.108484,0.144674,0.275635,1.58804
0.448435,0.281926,0.832518,0.104125,0.146038,0.371146,1.58804
0.349055,0.0774737,0.826055,0.0824693,0.130308,0.420306,1.58804
0.287419,-0.0286952,0.803741,0.0821079,0.123949,0.419246,1.58804
0.253525,0.0443464,0.78194,0.0723069,0.144699,0.411469,1.58804
0.164127,0.152315,0.766857,0.0661371,0.16152,0.438497,1.58804
-0.0274813,0.163433,0.75719,0.0624498,0.166627,0.481745,1.58804
-0.220889,0.0499303,0.751923,0.0514189,0.172768,0.466973,1.58804
-0.324724,-0.0507094,0.697253,0.0305666,0.173825,0.396658,1.58804
-0.366706,-0.0414257,0.651527,0.0202158,0.186289,0.313155,1.58804
-0.40361,0.0589429,0.633914,0.035503,0.18956,0.256203,1.58804
-0.564418,0.00451376,0.626276,0.0503996,0.179046,0.250621,1.58804
-0.777055,-0.158655,0.627011,0.0652474,0.145016,0.210471,1.58804
-1.03197,-0.436404,0.604199,0.0494449,0.133599,0.112056,1.58804
-1.25219,-0.671193,0.533226,-0.00172857,0.0880372,-0.0790674,1.58804
-1.30082,-0.541795,0.359059,-0.0456145,0.0160009,-0.329262,1.58804
-1.28636,-0.236719,0.216909,-0.0485606,-0.01358,-0.511892,1.58804
-1.31467,-0.0148495,0.198764,-0.0299619,-0.0330122,-0.605287,1.58804
-1.28494,-0.0845529,0.192999,-0.0428247,-0.0769709,-0.66674,1.58804
-1.01947,-0.154502,0.170769,-0.0770121,-0.124723,-0.771196,1.58804
-0.651321,-0.0697989,0.104819,-0.120296,-0.162084,-0.809866,1.58804
-0.438969,0.038987,0.0280922,-0.151651,-0.182164,-0.728151,1.58804
-0.404989,0.0488196,-0.152933,-0.173895,-0.218304,-0.619648,1.58804
-0.315064,0.0424145,-0.350569,-0.170635,-0.230678,-0.578526,1.58804
0.018586,0.170621,-0.479744,-0.148503,-0.192552,-0.599251,1.58804
0.469572,0.370055,-0.47495,-0.13979,-0.104229,-0.542517,1.58804
0.871456,0.562344,-0.40363,-0.160862,-0.0198941,-0.383013,1.58804
1.13472,0.540821,-0.367765,-0.197301,0.0425264,-0.169475,1.58804
1.23004,0.354743,-0.391157,-0.227547,0.0814565,0.0235773,1.58804
1.17162,0.123987,-0.464415,-0.260098,0.116676,0.170761,1.58804
1.03068,-0.0644822,-0.584125,-0.277741,0.150663,0.272764,1.58804
0.893034,-0.139249,-0.69197,-0.263104,0.183995,0.338791,1.58804
0.893034,-0.139249,-0.69197,-0.263104,0.183995,0.338791,1.79942
0.794004,-0.0772813,-0.782438,-0.237279,0.211081,0.395347,1.79942
0.680981,0.0372064,-0.840683,-0.209021,0.225499,0.477521,1.79942
0.538138,0.139457,-0.854946,-0.173872,0.231215,0.565129,1.79942
0.402288,0.0374821,-0.827585,-0.136859,0.234348,0.647881,1.79942
0.276107,-0.214127,-0.79377,-0.108399,0.229453,0.697375,1.79942
0.123874,-0.45994,-0.737979,-0.0733953,0.225772,0.698968,1.79942
-0.0313457,-0.594419,-0.658418,-0.0499568,0.219486,0.657778,1.79942
-0.189163,-0.708728,-0.629028,-0.040943,0.192079,0.587488,1.79942
-0.316488,-0.915922,-0.638817,-0.0061091,0.151034,0.485628,1.79942
-0.39956,-0.951106,-0.650246,0.0261655,0.116362,0.350219,1.79942
-0.513272,-0.846204,-0.639858,0.0677278,0.081425,0.225183,1.79942
-0.688165,-0.714236,-0.620095,0.112256,0.019839,0.117706,1.79942
-0.905505,-0.647505,-0.608835,0.133283,-0.0193194,0.00596565,1.79942
-1.17705,-0.512006,-0.59147,0.142758,-0.0574958,-0.133511,1.79942
-1.50867,-0.592845,-0.601095,0.140026,-0.0970817,-0.288748,1.79942
-1.54778,-0.787717,-0.623986,0.147235,-0.159398,-0.554234,1.79942
-1.15845,-0.621501,-0.577034,0.163546,-0.164334,-0.84523,1.79942
-0.595041,-0.000306069,-0.362318,0.199961,-0.140603,-0.987707,1.79942
-0.200434,0.695695,-0.0254916,0.215499,-0.13218,-0.917151,1.79942
0.014629,0.94749,0.194482,0.18277,-0.177701,-0.71797,1.79942
0.189312,0.819422,0.203462,0.118784,-0.228564,-0.540303,1.79942
0.356856,0.547063,0.165391,0.0966533,-0.220676,-0.43905,1.79942
0.516443,0.453828,0.200915,0.113536,-0.168666,-0.395444,1.79942
0.728871,0.694989,0.345161,0.14067,-0.0926715,-0.355294,1.79942
0.906121,0.943361,0.574228,0.142989,-0.0229272,-0.21598,1.79942
0.969555,0.830566,0.803473,0.142958,-0.0136248,-0.0370184,1.79942
0.983779,0.402207,0.896218,0.110729,-0.0351743,0.093067,1.79942
0.957081,0.0157866,0.855654,0.065843,-0.0510609,0.150136,1.79942
0.922583,-0.0315637,0.785555,0.0478919,-0.0313473,0.148804,1.79942
0.894484,0.0501458,0.784044,0.0614305,0.0247688,0.178005,1.79942
0.917749,0.21056,0.858726,0.075792,0.0726863,0.225174,1.79942
0.946667,0.274905,0.930021,0.0723402,0.108966,0.309912,1.79942
0.906334,0.164915,0.928894,0.0560922,0.114135,0.421255,1.79942
0.781239,0.045759,0.889215,0.0439188,0.116132,0.50773,1.79942
0.573998,-0.0950203,0.866771,0.0596188,0.135868,0.5628,1.79942
0.373519,-0.175748,0.872003,0.0807951,0.147311,0.557742,1.79942
0.257794,-0.0932131,0.841695,0.0721704,0.155055,0.489966,1.79942
0.22017,-0.0793543,0.825827,0.0654253,0.171266,0.403872,1.79942
0.156798,-0.205087,0.842843,0.0826409,0.17046,0.323605,1.79942
0.0139109,-0.388518,0.838279,0.0927556,0.157301,0.215083,1.79942
-0.218948,-0.504293,0.751312,0.069202,0.136193,0.0735703,1.79942
-0.441311,-0.410806,0.592125,0.0436824,0.098429,-0.124946,1.79942
-0.578754,-0.13248,0.445854,0.0501329,0.0636813,-0.30779,1.79942
-0.703773,0.0787962,0.40057,0.0578636,0.048399,-0.405592,1.79942
-0.86526,0.0423425,0.414701,0.0432498,0.0304599,-0.437726,1.79942
-0.956182,-0.0113114,0.324622,-0.0276216,-0.0104077,-0.504377,1.79942
-0.874967,-0.0928362,0.112028,-0.0651853,-0.0601892,-0.5919,1.79942
-0.692843,-0.109282,-0.0305412,-0.0734773,-0.0735644,-0.642236,1.79942
-0.441213,-0.0458708,0.0218189,-0.0603752,-0.0657119,-0.665244,1.79942
-0.047711,0.21274,0.121166,-0.0702188,-0.0701466,-0.662906,1.79942
0.529044,0.746351,0.160184,-0.140155,-0.0330632,-0.601932,1.79942
0.936399,0.998937,0.13132,-0.186009,-0.00426045,-0.354677,1.79942
1.06211,0.922138,-0.0163472,-0.184675,-0.0033111,-0.102564,1.79942
0.921256,0.54728,-0.217501,-0.169082,-0.0121217,0.0643175,1.79942
0.921256,0.54728,-0.217501,-0.169082,-0.0121217,0.0643175,1.98967
0.753461,0.0226528,-0.33144,-0.129114,-0.00125858,0.0918375,1.98967
0.736414,-0.208683,-0.347757,-0.139722,0.0955177,0.00900364,1.98967
0.777269,-0.123943,-0.387111,-0.174382,0.162491,-0.0526224,1.98967
0.775574,0.119132,-0.471715,-0.188345,0.185411,-0.0344509,1.98967
0.740263,0.357174,-0.598189,-0.182242,0.210006,0.0264573,1.98967
0.753282,0.463421,-0.64654,-0.127613,0.231773,0.129347,1.98967
0.817706,0.512199,-0.567252,-0.0730867,0.277698,0.246298,1.98967
0.885483,0.515042,-0.39372,-0.0483845,0.303529,0.357675,1.98967
0.891797,0.464716,-0.225324,-0.0476497,0.303776,0.46973,1.98967
0.852401,0.352775,-0.0606018,-0.0457022,0.297544,0.558944,1.98967
0.821113,0.224484,0.0386809,-0.0563225,0.2884,0.619453,1.98967
0.745578,0.169578,0.0997296,-0.0535446,0.279906,0.676103,1.98967
0.546151,0.179352,0.128566,-0.072326,0.270047,0.71322,1.98967
0.221859,0.243337,0.0690462,-0.109412,0.253525,0.735829,1.98967
0.328731,-0.434317,-0.0296593,-0.0866305,0.237139,0.730164,1.98967
-0.230654,-1.03575,0.0190311,-0.00633559,0.197459,0.719581,1.98967
-0.876662,-1.03655,0.058107,-0.0621507,0.182662,0.550888,1.98967
-1.40113,-0.728149,-0.0219474,-0.102257,0.162898,0.290631,1.98967
-1.57517,-0.443954,-0.184498,-0.104971,0.115317,0.0490865,1.98967
-1.39526,-0.466979,-0.180014,-0.0403195,0.0720059,-0.154428,1.98967
-1.14737,-0.49409,-0.0584818,-0.00524431,0.0302476,-0.266325,1.98967
