rotationRate_x,rotationRate_y,rotationRate_z,acceleration_x,acceleration_y,acceleration_z,relativeAltitude
-0.148039,-0.277503,0.542405,0.1298,0.0653989,-0.156091,2.01346
-0.270126,0.0499402,0.715228,0.131843,0.033539,-0.125714,2.01346
-0.372326,0.311693,0.896956,0.191977,0.017491,-0.16201,2.01346
-0.507157,0.419832,1.18006,0.23134,-0.0316702,-0.25069,2.01346
-0.640721,0.240966,1.40562,0.240405,-0.0537018,-0.348625,2.01346
-0.696867,-0.0765618,1.44871,0.251443,0.00416744,-0.383361,2.01346
-0.61392,-0.255384,1.36346,0.23853,0.0594544,-0.30863,2.01346
-0.390861,-0.222012,1.2371,0.212714,0.0937625,-0.167072,2.01346
-0.104512,-0.0549615,1.1027,0.207742,0.127637,-0.0287967,2.01346
0.160236,0.0815936,0.965225,0.20054,0.148227,0.0801733,2.01346
0.290299,0.22383,0.884892,0.216749,0.155563,0.17381,2.01346
0.241816,0.451914,0.898693,0.223191,0.133699,0.247221,2.01346
0.0545755,0.712601,0.982586,0.20831,0.107635,0.276075,2.01346
-0.194445,0.758329,1.08865,0.205561,0.0949742,0.22832,2.01346
-0.43368,0.620665,1.18584,0.174014,0.0718434,0.149524,2.01346
-0.562324,0.440853,1.25019,0.130111,0.0504585,0.0871941,2.01346
-0.559106,0.290234,1.28324,0.0902559,0.0366029,0.045486,2.01346
-0.464619,0.291844,1.29124,0.05409,0.0240227,0.0307382,2.01346
-0.311978,0.236131,1.23074,0.0293991,0.016873,0.00640458,2.01346
-0.161208,0.0537881,1.14828,0.0289325,0.0134803,-0.00158924,2.01346
-0.0962641,-0.0886931,1.09838,0.035048,-0.0115977,0.0336187,2.01346
-0.129065,-0.062156,1.06081,0.028966,-0.0526991,0.10275,2.01346
-0.20316,0.000985462,1.02301,0.0235352,-0.0969239,0.122113,2.01346
-0.283052,0.0430228,1.00284,0.0337759,-0.129532,0.103773,2.01346
-0.328463,0.0643556,0.977936,0.0370391,-0.155341,0.0434977,2.01346
-0.249847,-0.0455425,0.949258,0.0504922,-0.169024,-0.0439384,2.01346
-0.0695301,-0.215787,0.881953,0.0550864,-0.158287,-0.115795,2.01346
0.142952,-0.282759,0.745487,0.0218937,-0.149735,-0.137864,2.01346
0.347257,-0.222289,0.568541,0.00548426,-0.137833,-0.141092,2.01346
0.497956,-0.181279,0.429996,0.0238936,-0.136951,-0.164504,2.01346
0.559652,-0.244008,0.361086,0.0688288,-0.148275,-0.190214,2.01346
0.56508,-0.424563,0.391577,0.110223,-0.168198,-0.207878,2.01346
0.52374,-0.454641,0.423608,0.1099,-0.167917,-0.196264,2.01346
0.474742,-0.106479,0.392715,0.0903341,-0.149877,-0.150331,2.01346
0.435017,0.290315,0.392889,0.102916,-0.132403,-0.158424,2.01346
0.392514,0.453366,0.550098,0.132541,-0.14399,-0.238264,2.01346
0.436897,0.171318,0.702701,0.152391,-0.124778,-0.329117,2.01346
0.513985,-0.392348,0.762331,0.148046,-0.0561478,-0.331271,2.01346
0.548799,-0.736627,0.73043,0.134979,0.0228932,-0.193028,2.01346
0.531423,-0.595236,0.620036,0.113559,0.0649697,0.00639558,2.01346
0.544872,-0.351671,0.522366,0.10407,0.0804146,0.119619,2.01346
0.587786,6.45733e-05,0.428953,0.0874097,0.0946618,0.179283,2.01346
0.620119,0.314246,0.34298,0.072548,0.107471,0.186914,2.01346
0.560593,0.542901,0.29875,0.0859357,0.121226,0.157883,2.01346
0.379064,0.664457,0.356545,0.103107,0.11092,0.103644,2.01346
0.100888,0.70928,0.524918,0.132151,0.0875153,0.0265185,2.01346
-0.169592,0.829874,0.772923,0.149545,0.0701086,-0.0551302,2.01346
-0.291901,0.752753,0.980687,0.142944,0.0851721,-0.188472,2.01346
-0.218007,0.460972,1.05104,0.140653,0.134629,-0.304474,2.01346
0.0156526,0.0142359,0.970671,0.124038,0.199833,-0.305411,2.01346
0.29224,-0.281002,0.837999,0.122005,0.255589,-0.194569,2.01346
0.480429,-0.210455,0.75013,0.127131,0.254878,-0.00535768,2.01346
0.480429,-0.210455,0.75013,0.127131,0.254878,-0.00535768,0
0.547476,0.0741914,0.74063,0.143783,0.210554,0.146661,0
0.500809,0.373395,0.817049,0.155412,0.181994,0.241634,0
0.327435,0.545414,0.935251,0.152137,0.164948,0.277011,0
0.0582017,0.658629,1.02904,0.143695,0.153016,0.273358,0
-0.172638,0.781193,1.04799,0.109424,0.152734,0.247856,0
-0.272156,0.883738,1.02744,0.0691293,0.151273,0.192798,0
-0.272245,1.01764,0.966541,0.0238759,0.146011,0.132876,0
-0.200459,1.13343,0.893565,-0.00592469,0.128939,0.0493685,0
-0.12336,1.11605,0.885841,-0.00334816,0.100321,-0.0409796,0
-0.106988,1.01915,0.971459,-0.00327307,0.0567345,-0.113845,0
-0.144139,0.844814,1.06917,-0.0160475,0.0193319,-0.166946,0
-0.192162,0.667861,1.13648,-0.0346842,0.00648031,-0.1956,0
-0.170662,0.626105,1.13265,-0.0626305,0.00819403,-0.181107,0
-0.0431881,0.626143,1.06051,-0.0970266,0.017444,-0.165797,0
0.0646954,0.453569,1.00302,-0.104289,0.0113034,-0.167553,0
0.0130831,0.209742,1.0188,-0.0946787,-0.013689,-0.167295,0
-0.158523,0.315167,1.06908,-0.0646638,-0.0387879,-0.106644,0
-0.293462,0.812815,1.21001,-0.0341619,-0.0638127,-0.0479939,0
-0.381388,1.24169,1.50864,0.0142765,-0.0798591,-0.0921054,0
-0.308217,1.16425,1.71117,0.0492528,-0.054469,-0.247211,0
-0.120413,0.602104,1.72941,0.0552676,0.043125,-0.33375,0
0.0668619,-0.192779,1.56939,0.046164,0.121267,-0.295361,0
0.174547,-0.654573,1.36396,0.0718368,0.15676,-0.114849,0
0.235542,-0.443257,1.24187,0.0714065,0.120309,0.123023,0
0.24133,0.188561,1.21418,0.0573101,0.0668326,0.275732,0
0.0757192,0.870879,1.32113,0.054136,0.0246721,0.308489,0
-0.262485,1.22183,1.41656,0.0768643,0.0303591,0.223233,0
-0.560348,1.12183,1.50619,0.127231,0.0667145,0.0479375,0
-0.663914,0.806724,1.49795,0.138751,0.0866255,-0.109595,0
-0.56069,0.0600652,1.38877,0.108198,0.0884758,-0.233374,0
-0.36001,-0.46029,1.26899,0.08286,0.119753,-0.169981,0
-0.201711,-0.464991,1.13417,0.047337,0.100377,0.0312819,0
-0.136585,-0.138857,0.990383,0.0120634,0.0582548,0.19883,0
-0.1366,0.134717,0.903653,-0.00223788,0.0211437,0.281053,0
-0.19893,0.329769,0.849287,-0.0234231,-0.0109878,0.301371,0
-0.327247,0.372219,0.785314,-0.0390373,-0.03552,0.261921,0
-0.503877,0.512835,0.696359,-0.0556483,-0.0559417,0.219139,0
-0.607724,0.71422,0.569836,-0.0659354,-0.0746612,0.135894,0
-0.574638,0.82554,0.506186,-0.0524137,-0.102186,-0.0198465,0
-0.520934,0.731934,0.488807,-0.060238,-0.135447,-0.181461,0
-0.535093,0.527197,0.486619,-0.0626326,-0.150171,-0.30318,0
-0.537735,0.263179,0.474632,-0.0486393,-0.168025,-0.417262,0
-0.505777,0.00217753,0.447443,-0.0482141,-0.180313,-0.498975,0
-0.406554,-0.266214,0.369829,-0.0694723,-0.180029,-0.557148,0
-0.246731,-0.451975,0.204766,-0.0985636,-0.160554,-0.569291,0
-0.0213708,-0.538713,-0.0570763,-0.118031,-0.124744,-0.527618,0
0.189609,-0.466848,-0.325688,-0.119246,-0.0967112,-0.436908,0
0.318777,-0.296562,-0.528917,-0.113442,-0.102707,-0.34634,0
0.44378,-0.237949,-0.644565,-0.0809892,-0.103237,-0.295963,0
0.610345,-0.402594,-0.713032,-0.0484901,-0.067408,-0.253092,0
0.741703,-0.768006,-0.759257,-0.0364965,-0.0137459,-0.166459,0
0.790953,-0.861796,-0.802291,-0.0519744,0.0287852,-0.0216234,0
0.790953,-0.861796,-0.802291,-0.0519744,0.0287852,-0.0216234,0
0.775124,-0.446362,-0.910335,-0.0811899,0.0688383,0.140858,0
0.75522,0.148024,-1.02724,-0.128054,0.0777887,0.207909,0
0.748824,0.397329,-1.01294,-0.119899,0.0872165,0.136929,0
0.714052,0.178376,-0.862721,-0.0593588,0.0980241,0.00638348,0
0.608575,-0.147432,-0.665444,-0.0453039,0.101388,-0.026448,0
0.503681,-0.450227,-0.531944,-0.0728513,0.104132,0.0108755,0
0.463664,-0.643613,-0.530313,-0.103738,0.141408,0.0985098,0
0.46487,-0.747841,-0.610955,-0.114805,0.176777,0.201537,0
0.480694,-0.809914,-0.695289,-0.114507,0.187193,0.293554,0
0.491035,-0.86111,-0.755502,-0.094227,0.189013,0.370121,0
0.40325,-0.786457,-0.776988,-0.0648155,0.19016,0.450658,0
0.194666,-0.606679,-0.789472,-0.0557772,0.174965,0.49355,0
-0.0322091,-0.314954,-0.795477,-0.0482634,0.164107,0.4756,0
-0.123828,-0.0195613,-0.826715,-0.0481134,0.168095,0.392159,0
-0.0638633,0.230297,-0.875089,-0.0792837,0.161759,0.271721,0
-0.00970155,0.300228,-0.897968,-0.0906795,0.143565,0.126494,0
-0.0809187,0.201701,-0.912924,-0.0864157,0.134731,-0.0220626,0
-0.243183,0.140391,-0.903223,-0.0699794,0.125502,-0.144413,0
-0.351499,0.0788033,-0.856598,-0.0369062,0.0974134,-0.245659,0
-0.366406,-0.0231908,-0.733648,-0.0119522,0.0667735,-0.339162,0
-0.311384,-0.128335,-0.606576,0.00231705,0.0323033,-0.415682,0
-0.200391,-0.179459,-0.550994,0.0248057,0.0306237,-0.445919,0
-0.075394,-0.194791,-0.543751,0.053179,0.0474533,-0.466453,0
-0.0172747,-0.0722328,-0.507887,0.0652537,0.0304861,-0.438145,0
-0.0597719,-0.00921268,-0.394429,0.0959723,-0.00561774,-0.434169,0
-0.148272,-0.0638799,-0.184481,0.145508,-0.0404353,-0.435312,0
-0.262469,-0.153445,0.120721,0.204041,-0.0596634,-0.393656,0
-0.355845,-0.213267,0.429112,0.227031,-0.0601991,-0.310263,0
-0.393121,-0.170915,0.671645,0.198423,-0.0530518,-0.200994,0
-0.341404,-0.159497,0.766739,0.168097,-0.0153345,-0.115218,0
-0.172197,-0.27288,0.709156,0.171402,0.0553666,-0.0518183,0
0.0540975,-0.360118,0.598023,0.190605,0.110862,0.041835,0
0.190939,-0.153279,0.522932,0.214484,0.12371,0.173398,0
0.257892,0.184457,0.539879,0.226639,0.0948665,0.256014,0
0.220849,0.577352,0.582697,0.213724,0.0819485,0.300267,0
0.0653012,0.794364,0.596936,0.201119,0.0974596,0.287727,0
-0.105172,0.748451,0.647541,0.212793,0.106953,0.21344,0
-0.1705,0.677369,0.755945,0.219213,0.0874307,0.167177,0
-0.231144,0.542802,0.949959,0.18741,0.035114,0.127463,0
-0.30162,0.445835,1.11959,0.14373,0.0118252,0.131638,0
-0.29646,0.284264,1.19327,0.0988728,0.0141806,0.124727,0
-0.225159,0.182071,1.15658,0.0515404,0.0431649,0.168426,0
-0.141783,0.186318,1.07358,0.0143624,0.0520277,0.242116,0
-0.0527567,0.222022,0.998214,-0.0078646,0.0429162,0.308959,0
-0.00348393,0.256145,0.963689,-0.0109974,0.0361558,0.366099,0
-0.0680926,0.306209,0.955849,-0.0147341,0.0236816,0.411881,0
-0.209475,0.424367,0.944067,-0.0323308,0.0121931,0.427234,0
-0.340609,0.634943,0.909021,-0.0572642,-0.00102092,0.380935,0
-0.406499,0.758039,0.862283,-0.0675162,-0.0196338,0.248285,0
-0.407621,0.708567,0.78961,-0.069243,-0.0445942,0.0559533,0
-0.356589,0.492291,0.71545,-0.0615776,-0.0679046,-0.107614,0
-0.356589,0.492291,0.71545,-0.0615776,-0.0679046,-0.107614,0
-0.368162,0.391564,0.720106,-0.0662589,-0.110948,-0.182791,0
-0.488448,0.45945,0.794951,-0.0698174,-0.154492,-0.212745,0
-0.586523,0.518173,0.834535,-0.105905,-0.188564,-0.274057,0
-0.55489,0.41016,0.758027,-0.141061,-0.171393,-0.386288,0
-0.405018,0.27634,0.574926,-0.154606,-0.125817,-0.459418,0
-0.156045,0.0430708,0.34335,-0.171572,-0.116756,-0.504798,0
0.0856998,-0.285713,0.16058,-0.164116,-0.11071,-0.488308,0
0.143027,-0.542181,-0.00359549,-0.155437,-0.108556,-0.392017,0
0.00308716,-0.46839,-0.145064,-0.143866,-0.125852,-0.267223,0
-0.201579,-0.167506,-0.222114,-0.132482,-0.156026,-0.181849,0
-0.347274,0.106402,-0.161869,-0.116751,-0.190809,-0.187667,0
-0.273738,-0.0316735,-0.132517,-0.10297,-0.170046,-0.276409,0
-0.0678663,-0.462914,-0.265481,-0.115085,-0.0798956,-0.29339,0
0.116454,-0.825807,-0.543733,-0.154761,0.000518337,-0.186234,0
0.250391,-0.852523,-0.908272,-0.195218,0.0386901,-0.00392145,0
0.343002,-0.481002,-1.24065,-0.217603,0.0457926,0.153721,0
0.404319,0.114447,-1.54661,-0.233578,0.0312509,0.229037,0
0.526409,0.685499,-1.75594,-0.204903,0.037862,0.210975,0
0.652956,0.779667,-1.79826,-0.152951,0.0430339,0.0741306,0
0.640916,0.52728,-1.70909,-0.126467,0.0324387,-0.0423645,0
0.536043,0.1464,-1.53977,-0.098951,0.0279702,-0.0984744,0
0.510942,-0.189857,-1.35943,-0.117941,0.0132242,-0.0983991,0
0.616085,-0.403968,-1.27923,-0.161286,0.0384213,-0.028474,0
0.732856,-0.531718,-1.31383,-0.188295,0.0962902,0.093045,0
0.775642,-0.522976,-1.38792,-0.198983,0.140485,0.23983,0
0.740564,-0.445448,-1.44206,-0.205879,0.152751,0.370436,0
0.598598,-0.30698,-1.41124,-0.193892,0.155231,0.467549,0
0.306492,-0.19555,-1.31836,-0.197661,0.129635,0.508444,0
-0.00899149,-0.154837,-1.21007,-0.190816,0.118343,0.464373,0
-0.1429,-0.119394,-1.15518,-0.197737,0.120917,0.34682,0
-0.0261039,-0.0527142,-1.1657,-0.222181,0.135089,0.22678,0
0.132536,-0.0230171,-1.16696,-0.233505,0.141183,0.100752,0
0.144872,-0.0927253,-1.14575,-0.219535,0.137713,-0.00165349,0
0.0217874,-0.248427,-1.08165,-0.194266,0.0986449,-0.0971836,0
-0.167365,-0.460051,-0.97866,-0.155779,0.0722048,-0.181213,0
-0.39854,-0.599434,-0.833284,-0.0999542,0.0485911,-0.247686,0
-0.551516,-0.815531,-0.633194,-0.0210718,0.0316724,-0.373883,0
-0.635765,-0.92553,-0.365694,0.0564319,0.0179206,-0.472582,0
-0.667757,-0.813378,-0.170242,0.114285,0.0320732,-0.492078,0
-0.597196,-0.704614,-0.0837228,0.161545,0.0658981,-0.513976,0
-0.4348,-0.684429,-0.0766593,0.177596,0.0916093,-0.525591,0
-0.306183,-0.7205,-0.0816112,0.207039,0.0917689,-0.482365,0
-0.230179,-0.722818,-0.0510434,0.266234,0.0860947,-0.394634,0
-0.169786,-0.656403,0.0788314,0.332461,0.0715998,-0.288462,0
-0.194544,-0.379513,0.290087,0.356807,0.0399181,-0.168039,0
-0.325904,0.0177916,0.538888,0.35489,-0.0136265,-0.0745803,0
-0.447287,0.225269,0.784127,0.346704,-0.0593697,-0.0686163,0
-0.381619,0.0819294,0.932022,0.351713,-0.0286942,-0.145805,0
-0.157008,-0.0951303,1.00192,0.36145,0.0315273,-0.142857,0
0.11639,-0.110497,0.970345,0.360224,0.0584706,-0.0625592,0
0.363609,0.0541764,0.91012,0.34939,0.0882256,0.0478766,0
0.574113,0.375984,0.899985,0.33663,0.0941821,0.152164,0
0.574113,0.375984,0.899985,0.33663,0.0941821,0.152164,0.171753
0.758771,0.778043,0.93224,0.32617,0.0941993,0.237075,0.171753
0.858453,0.916392,0.993725,0.30647,0.104272,0.25198,0.171753
0.79517,0.926451,1.07573,0.276463,0.128687,0.282658,0.171753
0.540995,0.733902,1.20029,0.24564,0.13121,0.302127,0.171753
0.1604,0.461324,1.3756,0.225872,0.127254,0.316711,0.171753
-0.19049,0.36557,1.53055,0.195761,0.12039,0.343264,0.171753
-0.321032,0.457436,1.61404,0.148136,0.118177,0.355308,0.171753
-0.238984,0.535988,1.63567,0.110199,0.132226,0.321175,0.171753
-0.143368,0.599059,1.6195,0.0642618,0.143686,0.295086,0.171753
-0.115682,0.593171,1.5489,0.0167263,0.145283,0.270805,0.171753
-0.121221,0.550402,1.46603,-0.0296826,0.134606,0.242881,0.171753
-0.114301,0.513452,1.36707,-0.0629412,0.118399,0.195795,0.171753
-0.180314,0.438889,1.30776,-0.0568102,0.0781546,0.137268,0.171753
-0.367101,0.366064,1.26932,-0.0916571,-0.00960773,0.0546073,0.171753
-0.577232,0.301822,1.25896,-0.0898063,-0.110089,-0.0434784,0.171753
-0.62427,0.248992,1.38687,-0.00632755,-0.188302,-0.169598,0.171753
-0.563517,0.193969,1.66578,0.034635,-0.24377,-0.283876,0.171753
-0.582961,0.00153286,1.99546,0.0139131,-0.288391,-0.369808,0.171753
-0.728295,-0.323575,2.31126,-0.0441163,-0.320793,-0.442021,0.171753
-0.896304,-0.542688,2.38843,-0.122308,-0.280255,-0.452498,0.171753
-0.888584,-0.566837,2.11299,-0.205195,-0.20331,-0.436627,0.171753
-0.611434,-0.554576,1.6057,-0.287918,-0.147375,-0.457835,0.171753
-0.163256,-0.608167,1.04133,-0.294054,-0.092346,-0.476445,0.171753
0.2867,-0.700717,0.52874,-0.270451,-0.0689037,-0.436252,0.171753
0.547636,-0.617728,0.136469,-0.232705,-0.066943,-0.306008,0.171753
0.660875,-0.38607,-0.192576,-0.20603,-0.0620827,-0.184767,0.171753
0.726188,-0.175316,-0.452577,-0.172247,-0.0340177,-0.122313,0.171753
0.739472,0.0624994,-0.634566,-0.0993006,0.0224099,-0.0939676,0.171753
0.780578,0.232208,-0.710514,-0.0433214,0.0470545,-0.108846,0.171753
0.84659,0.370405,-0.666451,0.0101406,0.0742188,-0.120456,0.171753
0.875332,0.371453,-0.540181,0.0429175,0.0987362,-0.0972432,0.171753
0.860895,0.115211,-0.390172,0.0529377,0.12712,-0.0692967,0.171753
0.812995,-0.236026,-0.240141,0.0604929,0.171719,0.0115831,0.171753
0.732338,-0.524937,-0.173327,0.0599848,0.212014,0.140601,0.171753
0.639678,-0.56554,-0.159547,0.0547509,0.232764,0.293051,0.171753
0.607664,-0.421559,-0.147587,0.0469451,0.221032,0.404319,0.171753
0.615292,-0.262115,-0.0845704,0.0488045,0.19464,0.451617,0.171753
0.552289,-0.176186,-0.0429754,0.034589,0.193235,0.472217,0.171753
0.353738,-0.142091,-0.0642341,0.00818553,0.207868,0.483002,0.171753
0.14083,-0.135902,-0.124252,-0.00994121,0.208309,0.4758,0.171753
0.0129563,-0.0751782,-0.159783,-0.00592045,0.198198,0.455576,0.171753
-0.0318862,-0.0186305,-0.144402,0.00206351,0.168429,0.425521,0.171753
-0.0854617,0.0461938,-0.084233,0.00413752,0.12742,0.385106,0.171753
-0.151988,0.0643565,-0.035327,-0.00722834,0.0924208,0.321906,0.171753
-0.255479,-0.000626474,0.0215407,-0.00300442,0.0672514,0.236504,0.171753
-0.456976,-0.107863,0.105535,-0.0118295,0.0240479,0.184262,0.171753
-0.741131,-0.102119,0.230132,-0.0199016,-0.0287238,0.134862,0.171753
-0.886733,-0.0350335,0.347023,-0.0153845,-0.0711445,0.0166945,0.171753
-0.764997,0.0954367,0.301589,-0.0512049,-0.0777984,-0.110616,0.171753
-0.548138,-0.14646,0.125393,-0.087131,-0.0586554,-0.26274,0.171753
-0.494113,-0.533887,-0.0405713,-0.0778556,-0.0602919,-0.357902,0.171753
-0.494113,-0.533887,-0.0405713,-0.0778556,-0.0602919,-0.357902,0.261597
-0.583178,-0.63801,-0.114295,-0.0552982,-0.129588,-0.351175,0.261597
-0.628936,-0.230525,-0.161303,-0.0428969,-0.200107,-0.279085,0.261597
-0.538078,0.512082,-0.164449,-0.0440701,-0.233635,-0.242135,0.261597
-0.459093,0.894107,-0.0702186,-0.0173874,-0.263289,-0.323446,0.261597
-0.556067,0.822583,0.130003,0.0539078,-0.271654,-0.479231,0.261597
-0.713097,0.550773,0.388243,0.0795443,-0.285339,-0.584367,0.261597
-0.66774,0.199845,0.543042,0.0966641,-0.250696,-0.627468,0.261597
-0.365753,-0.117319,0.593662,0.131626,-0.14732,-0.579484,0.261597
0.0360943,-0.132944,0.568595,0.153518,-0.0618604,-0.39104,0.261597
0.361275,0.217035,0.497461,0.14248,-0.0332441,-0.177481,0.261597
0.510061,0.611896,0.479379,0.157414,0.00221725,-0.0281779,0.261597
0.485249,0.67789,0.562944,0.229003,0.052533,-0.009866,0.261597
0.367689,0.466462,0.738312,0.299679,0.09958,-0.0418802,0.261597
0.273861,0.261612,0.992462,0.340484,0.13454,-0.0488959,0.261597
0.263338,0.278183,1.1886,0.335506,0.181569,-0.0416468,0.261597
0.38446,0.368865,1.27648,0.287691,0.21456,-0.0521873,0.261597
0.597591,0.390315,1.29335,0.260906,0.257392,-0.0487982,0.261597
0.760344,0.290472,1.26891,0.229183,0.283738,-0.0124497,0.261597
0.790802,0.219173,1.26026,0.197292,0.272633,0.0789459,0.261597
0.697303,0.251422,1.2708,0.171162,0.24656,0.19407,0.261597
0.585029,0.33798,1.28385,0.143089,0.210674,0.28473,0.261597
0.50616,0.458827,1.30502,0.126065,0.183306,0.350317,0.261597
0.462571,0.546203,1.36777,0.123454,0.167745,0.390968,0.261597
0.384309,0.483046,1.46258,0.109191,0.144549,0.403334,0.261597
0.180617,0.440306,1.58005,0.0892839,0.132492,0.428327,0.261597
-0.103249,0.414834,1.66647,0.0593362,0.13074,0.441139,0.261597
-0.288643,0.403427,1.72742,0.0204425,0.116595,0.40347,0.261597
-0.342763,0.392103,1.78099,-0.0202883,0.101977,0.337561,0.261597
-0.398891,0.292768,1.82965,-0.05711,0.0844118,0.267269,0.261597
-0.473183,0.159892,1.79123,-0.0912433,0.0720248,0.176784,0.261597
-0.47297,0.212846,1.66842,-0.119853,0.0605226,0.131181,0.261597
-0.399152,0.256603,1.53799,-0.135371,0.0246824,0.0744926,0.261597
-0.397132,0.157418,1.43628,-0.111108,-0.00477269,0.0168091,0.261597
-0.471799,0.00132809,1.3909,-0.0653056,-0.0399095,-0.010216,0.261597
-0.507202,-0.117721,1.36505,-0.0418804,-0.103421,-0.0344356,0.261597
-0.46782,-0.137541,1.34186,-0.0167943,-0.146671,-0.0474781,0.261597
-0.370144,-0.139297,1.33553,0.0073669,-0.17774,-0.0678033,0.261597
-0.301967,-0.137365,1.32999,0.0123683,-0.195782,-0.0786908,0.261597
-0.343467,-0.0890124,1.27471,-0.0222531,-0.208415,-0.0699994,0.261597
-0.409307,-0.00262678,1.13166,-0.0746762,-0.228557,-0.0881,0.261597
-0.386648,0.0554833,0.982979,-0.113949,-0.261924,-0.163963,0.261597
-0.34024,0.0687293,0.857997,-0.128885,-0.28525,-0.238177,0.261597
-0.276223,0.0484255,0.709237,-0.138731,-0.283876,-0.319814,0.261597
-0.190722,-0.0713637,0.564136,-0.133562,-0.273135,-0.403701,0.261597
-0.160276,-0.200575,0.446131,-0.135007,-0.266694,-0.447706,0.261597
-0.210448,-0.205008,0.304427,-0.14114,-0.260476,-0.448655,0.261597
-0.219766,-0.0795145,0.154057,-0.130654,-0.243001,-0.453504,0.261597
-0.124368,-0.124058,0.0619094,-0.138465,-0.239549,-0.532353,0.261597
0.0441784,-0.375454,-0.0647736,-0.1412,-0.181791,-0.572648,0.261597
0.315533,-0.436157,-0.322262,-0.124541,-0.0782471,-0.498801,0.261597
0.689109,-0.324152,-0.615809,-0.119057,-0.00484245,-0.320424,0.261597
1.01802,-0.22334,-0.807625,-0.0902324,0.0353062,-0.161234,0.261597
1.01802,-0.22334,-0.807625,-0.0902324,0.0353062,-0.161234,0.507324
1.08236,-0.061773,-0.878624,-0.0482598,0.0671195,-0.0168837,0.507324
0.87439,0.250784,-0.831354,-0.0128494,0.0677155,0.067965,0.507324
0.694317,0.451703,-0.733317,0.00804764,0.0764998,0.024341,0.507324
0.628514,0.462227,-0.596281,0.0116455,0.117087,-0.0772841,0.507324
0.615323,0.238236,-0.462062,0.00118203,0.149267,-0.151391,0.507324
0.632695,-0.0923684,-0.369755,-0.0215443,0.177922,-0.152148,0.507324
0.68928,-0.410821,-0.385901,-0.0428538,0.217692,-0.072462,0.507324
0.780009,-0.603648,-0.496989,-0.0579313,0.262049,0.0638871,0.507324
0.851996,-0.628392,-0.637947,-0.056507,0.278704,0.225464,0.507324
0.889801,-0.554986,-0.756748,-0.036629,0.28946,0.36804,0.507324
0.830521,-0.371171,-0.816417,-0.015896,0.283035,0.482214,0.507324
0.663863,-0.257539,-0.801458,-0.00367078,0.275888,0.51684,0.507324
0.354701,-0.227766,-0.702956,0.0144855,0.259538,0.516531,0.507324
0.0319099,-0.213946,-0.587026,0.0275301,0.238992,0.451464,0.507324
-0.00965872,0.00753275,-0.542459,0.0270861,0.246185,0.374141,0.507324
0.168497,0.200988,-0.498883,-0.00312954,0.244513,0.266397,0.507324
0.33224,0.202456,-0.472445,-0.0215093,0.235836,0.125533,0.507324
0.311897,0.000841607,-0.410314,-0.0140588,0.225756,0.00940341,0.507324
0.0805696,-0.0275155,-0.339285,-0.00232987,0.225326,-0.057485,0.507324
-0.153619,0.125524,-0.327139,-0.00481126,0.218098,-0.11241,0.507324
-0.263281,0.249902,-0.283138,-0.00335353,0.17566,-0.225151,0.507324
-0.391461,0.475827,-0.113353,0.0266601,0.13582,-0.298403,0.507324
-0.603456,0.670326,0.155867,0.058476,0.0631636,-0.395857,0.507324
-0.742205,0.696419,0.422453,0.107211,0.0403241,-0.534984,0.507324
-0.647572,0.343463,0.607838,0.125705,0.0648954,-0.691322,0.507324
-0.457879,-0.222261,0.701985,0.147447,0.102266,-0.733016,0.507324
-0.290162,-0.697956,0.713535,0.159387,0.111298,-0.575765,0.507324
-0.219004,-0.826847,0.775915,0.176733,0.0712401,-0.303112,0.507324
-0.193243,-0.495813,0.886256,0.207647,0.0246058,-0.0313062,0.507324
-0.121654,-0.082956,0.995139,0.204665,-0.0190534,0.127426,0.507324
-0.0565192,0.245959,1.07183,0.204469,-0.0127699,0.189391,0.507324
-0.0821932,0.467741,1.05593,0.22061,0.0400256,0.19974,0.507324
-0.153055,0.561488,1.02484,0.245068,0.0739777,0.175328,0.507324
-0.136809,0.621817,1.05223,0.264521,0.0695109,0.138841,0.507324
-0.00081371,0.704147,1.13312,0.2657,0.0523931,0.120709,0.507324
0.13139,0.585794,1.23224,0.244933,0.0337488,0.0753192,0.507324
0.161442,0.430462,1.24953,0.21343,0.048341,0.0875793,0.507324
0.16911,0.332112,1.22164,0.18116,0.0618941,0.156409,0.507324
0.216502,0.342369,1.19762,0.155459,0.0641367,0.233828,0.507324
0.259815,0.500298,1.21174,0.131151,0.0532034,0.312859,0.507324
0.241605,0.708991,1.23326,0.108737,0.046955,0.353974,0.507324
0.157778,0.829129,1.28312,0.0933648,0.0480224,0.343399,0.507324
0.0487202,0.708494,1.37748,0.0881137,0.0561676,0.281251,0.507324
-0.0787823,0.52003,1.47304,0.0869449,0.0737845,0.232231,0.507324
-0.180374,0.447285,1.54802,0.0568382,0.0742943,0.21573,0.507324
-0.223467,0.397465,1.612,0.0342336,0.0573227,0.186525,0.507324
-0.261216,0.423936,1.65439,-0.0100929,0.0346978,0.162624,0.507324
-0.312996,0.587635,1.59507,-0.0654014,0.0205826,0.11815,0.507324
-0.358067,0.78392,1.41645,-0.0931193,0.0148408,0.0272619,0.507324
-0.335285,0.71544,1.2543,-0.110137,-0.02719,-0.129048,0.507324
-0.335285,0.71544,1.2543,-0.110137,-0.02719,-0.129048,0.613022
-0.262621,0.39851,1.21986,-0.110827,-0.0885218,-0.28289,0.613022
-0.288422,0.137559,1.22224,-0.122904,-0.153364,-0.332904,0.613022
-0.430555,0.0796364,1.18639,-0.154889,-0.201927,-0.326128,0.613022
-0.51647,0.0621315,1.08573,-0.188416,-0.220529,-0.366278,0.613022
-0.479764,0.0299585,0.914887,-0.209709,-0.211284,-0.443409,0.613022
-0.355718,-0.00284171,0.681623,-0.223697,-0.19786,-0.503091,0.613022
-0.12938,-0.0542285,0.371009,-0.224684,-0.171433,-0.53327,0.613022
0.174292,-0.193867,-0.0333478,-0.219664,-0.107367,-0.499429,0.613022
0.408755,-0.355115,-0.412161,-0.218404,-0.0726313,-0.413379,0.613022
0.502394,-0.435743,-0.672293,-0.183095,-0.0802801,-0.259514,0.613022
0.523315,-0.450352,-0.799044,-0.12611,-0.092422,-0.106527,0.613022
0.499917,-0.520807,-0.857524,-0.0880455,-0.0721416,-0.00532931,0.613022
0.440165,-0.543855,-0.942581,-0.0827239,-0.0309238,0.0625125,0.613022
0.393519,-0.244522,-1.09853,-0.107333,0.0142204,0.127132,0.613022
0.440659,0.182865,-1.27755,-0.139373,0.0535668,0.123834,0.613022
0.522504,0.381089,-1.37024,-0.119778,0.0800511,0.031102,0.613022
0.553275,0.298792,-1.28776,-0.0831762,0.0726258,-0.0506269,0.613022
0.521662,-0.000977631,-1.07562,-0.0506183,0.0556488,-0.084552,0.613022
0.450103,-0.265323,-0.890774,-0.0525783,0.0637272,-0.0143126,0.613022
0.368601,-0.480158,-0.790083,-0.0742093,0.0936172,0.102422,0.613022
0.277058,-0.632195,-0.76832,-0.0739471,0.136219,0.226811,0.613022
0.191289,-0.616663,-0.778285,-0.0611983,0.156272,0.333859,0.613022
0.163239,-0.539389,-0.769228,-0.0658589,0.144221,0.385652,0.613022
0.222156,-0.545982,-0.818155,-0.0729761,0.155719,0.378374,0.613022
0.289693,-0.569696,-0.934235,-0.0514811,0.205206,0.379447,0.613022
0.296042,-0.487741,-1.01828,-0.0300043,0.21961,0.407762,0.613022
0.195722,-0.473392,-0.978974,-0.0338496,0.17966,0.397585,0.613022
0.0165912,-0.468937,-0.896123,-0.029333,0.152427,0.350347,0.613022
-0.112644,-0.373477,-0.85836,-0.0272317,0.147959,0.263829,0.613022
-0.134176,-0.198513,-0.815653,-0.00714763,0.122816,0.128523,0.613022
-0.0625619,-0.00299423,-0.779639,-0.0593627,0.0834908,-0.016661,0.613022
-0.00948607,-0.00955606,-0.808008,-0.102825,0.0874855,-0.178722,0.613022
-0.0857609,-0.115704,-0.842413,-0.0702945,0.101203,-0.286635,0.613022
-0.23378,-0.126821,-0.782262,-0.0243917,0.0598295,-0.335365,0.613022
-0.335615,-0.108675,-0.584823,0.0300451,-0.000767022,-0.390222,0.613022
-0.341944,-0.129243,-0.341335,0.067162,-0.0433353,-0.452682,0.613022
-0.327231,-0.134655,-0.152975,0.0883072,-0.0440235,-0.481431,0.613022
-0.299465,-0.117371,-0.0163206,0.0844934,-0.0422324,-0.474178,0.613022
-0.271363,-0.0672687,0.0905654,0.0958066,-0.0431675,-0.437222,0.613022
-0.25048,-0.0164499,0.183515,0.125842,-0.0337667,-0.386297,0.613022
-0.253089,-0.0417995,0.301171,0.151293,-0.0212525,-0.331668,0.613022
-0.298079,0.0176378,0.445679,0.165049,-0.0211389,-0.242471,0.613022
-0.346965,0.220808,0.59674,0.154409,-0.0429298,-0.145135,0.613022
-0.329169,0.374775,0.697533,0.140014,-0.0443603,-0.099064,0.613022
-0.206546,0.270215,0.71195,0.145628,0.0108598,-0.113142,0.613022
0.019417,0.0230915,0.683821,0.179208,0.074842,-0.108893,0.613022
0.218315,0.0136822,0.657214,0.211216,0.10587,-0.00694656,0.613022
0.218315,0.0136822,0.657214,0.211216,0.10587,-0.00694656,0.697571
0.327916,0.257729,0.620489,0.203482,0.113522,0.111396,0.697571
0.398621,0.53962,0.588714,0.176201,0.112561,0.171845,0.697571
0.422491,0.684046,0.583679,0.163121,0.121861,0.175696,0.697571
0.38664,0.591473,0.635361,0.173366,0.116099,0.173406,0.697571
0.325469,0.414285,0.77616,0.173977,0.0919426,0.189878,0.697571
0.262332,0.293126,0.949041,0.144138,0.0676707,0.249131,0.697571
0.151396,0.276093,1.03959,0.0956135,0.0817982,0.307092,0.697571
0.0487827,0.269162,0.987355,0.0582851,0.131526,0.338282,0.697571
0.0411212,0.205036,0.833482,0.0199536,0.168544,0.329057,0.697571
0.105018,0.233248,0.718669,0.0113816,0.168444,0.333148,0.697571
0.127883,0.388207,0.723185,0.0143333,0.117827,0.357743,0.697571
0.0158396,0.526308,0.821697,0.00646982,0.0635221,0.367425,0.697571
-0.190794,0.478078,0.966103,0.0055979,0.0372083,0.314613,0.697571
-0.397143,0.305873,1.08723,-1.12467e-05,0.0305993,0.225911,0.697571
-0.528798,0.250334,1.17482,-0.000342453,0.0305916,0.163779,0.697571
-0.611319,0.242282,1.23446,-0.0190949,0.00707808,0.12032,0.697571
-0.684772,0.167838,1.27133,-0.0232091,-0.00553542,0.0511113,0.697571
-0.716053,0.0499463,1.23165,-0.0309273,-0.0144971,-0.0195636,0.697571
-0.692223,0.161649,1.14536,-0.0352941,-0.0238966,-0.0331929,0.697571
-0.61481,0.287777,1.03488,-0.0552295,-0.0597671,-0.0654278,0.697571
-0.530732,0.238518,0.939185,-0.0620556,-0.088459,-0.134753,0.697571
-0.497867,0.0922204,0.837305,-0.078986,-0.115826,-0.195576,0.697571
-0.510363,0.0134241,0.702067,-0.0875308,-0.137514,-0.233101,0.697571
-0.521625,0.150397,0.609029,-0.0994079,-0.198691,-0.259883,0.697571
-0.471731,0.160069,0.573673,-0.108556,-0.24613,-0.361168,0.697571
-0.433797,0.0194503,0.531157,-0.10318,-0.264085,-0.464788,0.697571
-0.425296,-0.122427,0.491649,-0.0999276,-0.271816,-0.531356,0.697571
-0.362765,-0.31337,0.462321,-0.0904555,-0.272647,-0.586775,0.697571
-0.257124,-0.437897,0.389473,-0.0878696,-0.248106,-0.578727,0.697571
-0.131293,-0.452458,0.227176,-0.0990195,-0.206597,-0.518306,0.697571
0.0417774,-0.317792,0.0108074,-0.0953428,-0.159037,-0.414774,0.697571
0.34899,-0.288316,-0.238684,-0.0981306,-0.111018,-0.328919,0.697571
0.709043,-0.420999,-0.481316,-0.0782261,-0.0491809,-0.239775,0.697571
0.921446,-0.526842,-0.728557,-0.0494376,0.0133995,-0.0900674,0.697571
0.901357,-0.272926,-0.961739,-0.0242919,0.060249,0.109308,0.697571
0.803175,0.220395,-1.07604,-0.0091494,0.059213,0.231095,0.697571
0.733017,0.557192,-1.04267,0.00705647,0.0451729,0.205473,0.697571
0.6757,0.547312,-0.901557,0.045891,0.0650477,0.103765,0.697571
0.637732,0.334934,-0.716784,0.0597985,0.083223,0.0394299,0.697571
0.709957,-0.0441168,-0.561124,0.0422075,0.100335,0.0254315,0.697571
0.791213,-0.374761,-0.453747,0.0235672,0.144761,0.0689827,0.697571
0.810441,-0.499621,-0.442063,-0.00601569,0.176447,0.204598,0.697571
0.827085,-0.514235,-0.45076,-0.0254627,0.191838,0.327785,0.697571
0.857482,-0.497634,-0.487834,-0.0173512,0.219824,0.422869,0.697571
0.821102,-0.424372,-0.541573,-0.0108801,0.24385,0.507438,0.697571
0.622052,-0.196485,-0.582132,-0.000727035,0.261368,0.597771,0.697571
0.241687,0.126482,-0.582864,-0.00235195,0.258483,0.64857,0.697571
-0.112613,0.301197,-0.496487,-0.00281562,0.220625,0.58924,0.697571
-0.112613,0.301197,-0.496487,-0.00281562,0.220625,0.58924,0.940674
-0.314091,0.254364,-0.319593,0.00873971,0.189832,0.439745,0.940674
-0.448848,0.339524,-0.162503,-0.0186903,0.162646,0.339075,0.940674
-0.570788,0.404539,-0.0351869,-0.0553774,0.123149,0.228975,0.940674
-0.655257,0.366761,-0.0105196,-0.120523,0.119743,0.0912929,0.940674
-0.684491,0.105442,-0.0782551,-0.149007,0.132668,-0.0663137,0.940674
-0.782884,-0.226721,-0.123138,-0.155384,0.0999009,-0.192093,0.940674
-0.919759,-0.485079,-0.104896,-0.139927,0.0355084,-0.258936,0.940674
-1.00126,-0.514284,-0.0595101,-0.0962116,-0.0188594,-0.314939,0.940674
-0.98293,-0.192514,-0.0498536,-0.072348,-0.062209,-0.336188,0.940674
-0.909548,0.097956,-0.080856,-0.0585356,-0.0975393,-0.431026,0.940674
-0.832159,0.174383,-0.054802,-0.0107,-0.127369,-0.576202,0.940674
-0.782841,0.163839,0.00371453,0.0368067,-0.172268,-0.692713,0.940674
-0.680225,0.0828469,0.0976022,0.0919408,-0.210489,-0.764724,0.940674
-0.492218,-0.120081,0.292882,0.160961,-0.240402,-0.782077,0.940674
-0.320745,-0.290104,0.550559,0.22667,-0.229126,-0.692018,0.940674
-0.214068,-0.315663,0.800745,0.257827,-0.198995,-0.518391,0.940674
-0.0860133,-0.224618,1.01966,0.25443,-0.169033,-0.363199,0.940674
0.088939,-0.134682,1.10221,0.220448,-0.115922,-0.25478,0.940674
0.32188,-0.156031,1.02281,0.201271,-0.0126963,-0.169974,0.940674
0.605396,-0.237899,0.860821,0.222917,0.0755043,-0.0805361,0.940674
0.867556,-0.134583,0.696512,0.252945,0.134842,0.0472588,0.940674
1.08638,0.144121,0.62673,0.272546,0.141816,0.171187,0.940674
1.1887,0.501199,0.639971,0.27988,0.14751,0.270241,0.940674
1.12513,0.751374,0.724149,0.285596,0.152133,0.327029,0.940674
0.905814,0.800174,0.863137,0.279306,0.165707,0.346159,0.940674
0.634684,0.673809,1.06602,0.255047,0.154439,0.345248,0.940674
0.435929,0.461772,1.27817,0.222053,0.141184,0.326645,0.940674
0.350097,0.37568,1.38963,0.185406,0.163155,0.344659,0.940674
0.353886,0.406931,1.3984,0.139522,0.191347,0.369191,0.940674
0.39487,0.502199,1.3759,0.100527,0.20132,0.373192,0.940674
0.457534,0.45572,1.33933,0.0506336,0.189903,0.325667,0.940674
0.413931,0.303194,1.32039,0.0308638,0.186225,0.288336,0.940674
0.262464,0.253026,1.3479,0.0312839,0.175455,0.295531,0.940674
0.114148,0.247549,1.40856,0.0083175,0.133269,0.281848,0.940674
0.0227339,0.281749,1.47531,0.00320648,0.110356,0.263787,0.940674
-0.0885699,0.22664,1.52413,-0.00174455,0.0915839,0.208428,0.940674
-0.211841,0.175319,1.53144,-0.00445659,0.0715551,0.166411,0.940674
-0.332143,0.135296,1.57912,0.00109269,0.0383644,0.131193,0.940674
-0.443774,0.125468,1.60855,0.000815079,0.00277311,0.096756,0.940674
-0.519126,0.13367,1.50659,-0.0103691,-0.00711435,0.0709938,0.940674
-0.501984,0.0921008,1.35222,-0.00850801,-0.0201365,0.0330755,0.940674
-0.418212,-0.0057897,1.23569,0.0135974,-0.062352,0.00358337,0.940674
-0.372668,0.0180248,1.16229,0.0256597,-0.119256,0.0293286,0.940674
-0.341426,0.0685852,1.09445,0.0257969,-0.171934,0.0511242,0.940674
-0.28929,0.069509,1.02193,0.0362324,-0.19611,0.0273569,0.940674
-0.186232,0.0423746,0.939155,0.0338349,-0.217598,-0.00342768,0.940674
-0.0725257,0.0413952,0.907295,0.0214283,-0.261401,-0.0370145,0.940674
0.0636529,0.0186742,0.894606,-0.00821102,-0.297108,-0.0794461,0.940674
0.0636529,0.0186742,0.894606,-0.00821102,-0.297108,-0.0794461,1.19962
0.185464,-0.0230602,0.848839,-0.0343456,-0.296047,-0.135165,1.19962
0.318898,-0.0549768,0.714814,-0.0828045,-0.284734,-0.197889,1.19962
0.414607,-0.0516272,0.571311,-0.140794,-0.281058,-0.256437,1.19962
0.438424,0.096622,0.435055,-0.172658,-0.291332,-0.299904,1.19962
0.427366,0.34344,0.394381,-0.166141,-0.305894,-0.383205,1.19962
0.455499,0.198013,0.492294,-0.133716,-0.309445,-0.533633,1.19962
0.590536,-0.37654,0.551473,-0.0898258,-0.244927,-0.645424,1.19962
0.802354,-0.968481,0.507432,-0.0600269,-0.135829,-0.605187,1.19962
0.966073,-1.19474,0.37008,-0.0360799,-0.0360333,-0.364223,1.19962
1.05035,-1.05046,0.159414,-0.0272025,0.0369972,-0.0826944,1.19962
1.09803,-0.816066,-0.0522336,-0.0220573,0.0832414,0.109864,1.19962
1.07162,-0.546892,-0.200937,-0.0171405,0.108194,0.229816,1.19962
0.868942,-0.218968,-0.273932,-0.00796425,0.107592,0.307679,1.19962
0.489414,0.174395,-0.250288,-0.0121025,0.0736055,0.339849,1.19962
0.165471,0.409537,-0.129658,0.013205,0.0569556,0.262814,1.19962
0.0316459,0.373396,0.0288655,0.0369598,0.0787984,0.0930486,1.19962
0.0485166,0.122161,0.116172,0.0346788,0.127874,-0.0332456,1.19962
0.159088,-0.255795,0.0884801,0.021214,0.185187,-0.0813966,1.19962
0.273365,-0.443062,-0.0444096,-0.0119652,0.239039,-0.020629,1.19962
0.343299,-0.311549,-0.283975,-0.0460526,0.269026,0.113872,1.19962
0.393806,0.010805,-0.531478,-0.0439903,0.285429,0.218637,1.19962
0.358401,0.260227,-0.672442,-0.0106076,0.279264,0.262449,1.19962
0.162825,0.304699,-0.636246,0.0237687,0.22848,0.249098,1.19962
-0.0898132,0.145101,-0.45687,0.0497852,0.158259,0.179422,1.19962
-0.296774,-0.015588,-0.237442,0.0705361,0.121762,0.0960821,1.19962
-0.373764,0.00540132,-0.124201,0.0591118,0.11081,0.0363907,1.19962
-0.399333,0.180383,-0.131189,-0.0161439,0.0980489,-0.0150743,1.19962
-0.45732,0.362107,-0.23148,-0.0726852,0.0895618,-0.104149,1.19962
-0.436907,0.386475,-0.306337,-0.0698655,0.0701488,-0.246597,1.19962
-0.295424,0.426769,-0.263655,-0.0344676,0.0386814,-0.368575,1.19962
-0.12654,0.372294,-0.0890925,0.00177717,-0.00684914,-0.446937,1.19962
-0.106171,0.282018,0.186607,0.026311,-0.0461076,-0.481026,1.19962
-0.247728,0.13664,0.459569,0.0505162,-0.0560098,-0.476127,1.19962
-0.415569,0.116371,0.647582,0.0587847,-0.0367495,-0.427018,1.19962
-0.454222,0.115948,0.784454,0.0851615,0.00068897,-0.367794,1.19962
-0.418008,0.0902843,0.905368,0.107588,0.0105497,-0.30186,1.19962
-0.440973,0.242547,1.01446,0.124114,-0.00492701,-0.193459,1.19962
-0.518462,0.512596,1.10251,0.137506,-0.0217403,-0.100227,1.19962
-0.532956,0.62167,1.2442,0.170271,-0.0522627,-0.107235,1.19962
-0.379724,0.399049,1.41597,0.216367,-0.0521921,-0.173598,1.19962
-0.152495,0.11938,1.49047,0.23372,-0.00425699,-0.163876,1.19962
0.019378,0.112449,1.42395,0.216227,0.0583022,-0.0541134,1.19962
0.101838,0.532033,1.28159,0.17785,0.0831331,0.0756863,1.19962
0.184435,0.99436,1.1737,0.160977,0.0728658,0.112016,1.19962
0.280778,1.10261,1.15924,0.179301,0.0671747,0.0184772,1.19962
0.327164,0.98622,1.23316,0.211934,0.0762067,-0.0517232,1.19962
0.356337,0.886208,1.24562,0.217657,0.0972709,-0.0437396,1.19962
0.356337,0.886208,1.24562,0.217657,0.0972709,-0.0437396,1.3925
0.39465,0.745658,1.279,0.199188,0.112431,0.0036912,1.3925
0.405975,0.735175,1.31926,0.18185,0.124525,0.0896724,1.3925
0.419747,0.848101,1.32058,0.143794,0.138178,0.200643,1.3925
0.467043,0.945259,1.29332,0.104754,0.150649,0.272691,1.3925
0.48454,1.00114,1.27027,0.0872627,0.185566,0.332705,1.3925
0.411963,0.861095,1.25768,0.0623947,0.190713,0.355375,1.3925
0.226451,0.514116,1.27615,0.0612558,0.20772,0.355695,1.3925
-0.0350058,0.256559,1.34606,0.058438,0.196134,0.385741,1.3925
-0.267631,0.272869,1.43622,0.0386572,0.157838,0.432265,1.3925
-0.409864,0.418778,1.49976,0.0122232,0.147702,0.417074,1.3925
-0.538326,0.699901,1.51659,-0.0338108,0.146487,0.371618,1.3925
-0.685545,0.876624,1.4309,-0.0876856,0.14439,0.277544,1.3925
-0.825198,0.799475,1.27022,-0.109178,0.144126,0.106938,1.3925
-0.868004,0.502194,1.13655,-0.120459,0.0884775,-0.0955354,1.3925
-0.845283,0.169854,1.08026,-0.132758,0.000943273,-0.240246,1.3925
-0.847196,0.0151082,1.03367,-0.145272,-0.0876934,-0.290882,1.3925
-0.801504,0.0992857,0.867457,-0.16405,-0.132868,-0.303803,1.3925
-0.640071,0.261619,0.584484,-0.179438,-0.146165,-0.348611,1.3925
-0.444646,0.347054,0.31083,-0.168867,-0.168347,-0.426097,1.3925
-0.3332,0.212593,0.152233,-0.137399,-0.220422,-0.510693,1.3925
-0.319235,-0.084078,0.0970581,-0.0809313,-0.254328,-0.55992,1.3925
-0.334656,-0.369847,0.0859796,-0.0522085,-0.274148,-0.546561,1.3925
-0.375298,-0.487249,0.101581,-0.0486551,-0.294707,-0.488092,1.3925
-0.347771,-0.487406,0.0704523,-0.0612845,-0.296235,-0.428126,1.3925
-0.154076,-0.560121,-0.0751539,-0.0954335,-0.244495,-0.394514,1.3925
0.158651,-0.633825,-0.35513,-0.125952,-0.16233,-0.322814,1.3925
0.475998,-0.580376,-0.743334,-0.144999,-0.0786802,-0.179182,1.3925
0.742004,-0.445242,-1.1322,-0.151266,-0.0231749,-0.0270641,1.3925
0.878548,-0.167905,-1.39444,-0.137679,-0.00583988,0.100553,1.3925
0.848024,0.182377,-1.50359,-0.122407,-0.0252576,0.175966,1.3925
0.78004,0.41169,-1.55502,-0.117669,-0.0145504,0.136065,1.3925
0.781348,0.373119,-1.52527,-0.076146,0.0248078,0.030411,1.3925
0.802649,0.219948,-1.37623,-0.0411409,0.0430746,-0.0307229,1.3925
0.842142,-0.0648957,-1.15015,-0.0222588,0.0391887,-0.05501,1.3925
0.881925,-0.346034,-0.961535,-0.0230029,0.079237,-0.0062229,1.3925
0.880893,-0.532171,-0.876484,-0.0375064,0.135157,0.107717,1.3925
0.863501,-0.598711,-0.844183,-0.0565367,0.169337,0.239421,1.3925
0.822427,-0.572418,-0.819444,-0.0613681,0.194154,0.349201,1.3925
0.705535,-0.464216,-0.798756,-0.0665323,0.209586,0.434224,1.3925
0.536085,-0.326081,-0.791377,-0.0687005,0.222496,0.481447,1.3925
0.341606,-0.181353,-0.752861,-0.0652424,0.229108,0.482467,1.3925
0.160335,-0.145341,-0.660296,-0.0622469,0.216272,0.420581,1.3925
0.029216,-0.155801,-0.522005,-0.0552218,0.197198,0.332129,1.3925
-0.0793574,-0.112076,-0.388411,-0.0597763,0.182314,0.246993,1.3925
-0.186803,-0.0110279,-0.301975,-0.0693742,0.165381,0.155004,1.3925
-0.324639,0.016277,-0.222506,-0.0753928,0.143638,0.0477527,1.3925
-0.533916,-0.111283,-0.171133,-0.0915211,0.139422,-0.0647166,1.3925
-0.656785,-0.48081,-0.193319,-0.0891104,0.148109,-0.20241,1.3925
-0.656785,-0.48081,-0.193319,-0.0891104,0.148109,-0.20241,1.62767
-0.641546,-0.72061,-0.283168,-0.0689038,0.157328,-0.255067,1.62767
-0.539669,-0.704108,-0.404728,-0.0490093,0.129591,-0.215638,1.62767
-0.446263,-0.630023,-0.455542,-0.0254037,0.0781156,-0.164083,1.62767
-0.448158,-0.550426,-0.47134,0.0174859,0.034532,-0.137856,1.62767
-0.545696,-0.394553,-0.485645,0.0399018,0.0026305,-0.115462,1.62767
-0.6603,-0.097851,-0.461218,0.0570483,-0.0489428,-0.123919,1.62767
-0.710135,0.188543,-0.389272,0.0663373,-0.121732,-0.207663,1.62767
-0.625236,0.306051,-0.323492,0.0763841,-0.154276,-0.363716,1.62767
-0.507924,0.294574,-0.286711,0.094838,-0.147374,-0.497624,1.62767
-0.427797,0.345602,-0.2422,0.132543,-0.141296,-0.543092,1.62767
-0.316561,0.314267,-0.183166,0.158936,-0.141201,-0.562906,1.62767
-0.183111,0.267712,-0.0560744,0.187778,-0.150279,-0.523964,1.62767
-0.0878993,0.347643,0.108679,0.208008,-0.166324,-0.410676,1.62767
0.0180927,0.43212,0.260147,0.210976,-0.163825,-0.29383,1.62767
0.151666,0.477807,0.378025,0.216883,-0.109786,-0.205921,1.62767
0.371108,0.489368,0.425707,0.205791,-0.0414141,-0.120975,1.62767
0.612039,0.328622,0.449242,0.185428,0.0173979,-0.0381356,1.62767
0.681522,0.172344,0.465754,0.178884,0.0853844,0.0711997,1.62767
0.567215,0.247126,0.477413,0.178302,0.11374,0.200863,1.62767
0.386672,0.584782,0.59845,0.17727,0.110609,0.299846,1.62767
0.249683,0.739623,0.788941,0.176939,0.115023,0.282405,1.62767
0.176595,0.671527,0.974284,0.173108,0.139102,0.220737,1.62767
0.156251,0.494214,1.11843,0.146597,0.163514,0.195365,1.62767
0.177925,0.301453,1.16605,0.112709,0.171523,0.217836,1.62767
0.197262,0.13882,1.18186,0.0842495,0.181611,0.279508,1.62767
0.146125,0.105218,1.12583,0.042179,0.182709,0.365623,1.62767
0.069802,0.148678,0.983286,-0.00583263,0.182096,0.431801,1.62767
0.0158857,0.283172,0.863616,-0.0252473,0.163407,0.462704,1.62767
-0.0190895,0.333185,0.853505,-0.0130101,0.116482,0.429204,1.62767
-0.161017,0.306922,0.908206,-0.0106661,0.0740932,0.386045,1.62767
-0.355131,0.323906,0.991077,-0.0239993,0.0258468,0.344205,1.62767
-0.46449,0.314157,1.01703,-0.0545516,-0.0159648,0.247798,1.62767
-0.455157,0.355899,0.883427,-0.0864986,-0.0317554,0.149844,1.62767
-0.394847,0.477163,0.675141,-0.0953478,-0.0563067,0.0530196,1.62767
-0.297151,0.494988,0.535163,-0.067592,-0.114583,-0.0806604,1.62767
-0.208709,0.360095,0.532642,-0.024039,-0.17662,-0.205335,1.62767
-0.162891,0.114575,0.60545,-0.00630924,-0.224003,-0.268755,1.62767
-0.238317,-0.16643,0.691015,-0.00360544,-0.250915,-0.292232,1.62767
-0.338892,-0.153858,0.686554,-0.00647531,-0.227111,-0.257111,1.62767
-0.331279,0.0749386,0.599787,-0.0204187,-0.202727,-0.248174,1.62767
-0.207003,0.161591,0.490994,-0.0411122,-0.177703,-0.332325,1.62767
-0.133488,0.0121156,0.409961,-0.0428642,-0.14605,-0.416897,1.62767
-0.137975,-0.370096,0.349291,-0.0477586,-0.12794,-0.473173,1.62767
-0.195497,-0.619185,0.303471,-0.0664072,-0.112879,-0.437306,1.62767
-0.259132,-0.528676,0.221642,-0.0978903,-0.106963,-0.35041,1.62767
-0.209566,-0.309224,0.069999,-0.123311,-0.075448,-0.281602,1.62767
-0.0186878,-0.244776,-0.130414,-0.143109,-0.0235094,-0.261337,1.62767
0.218109,-0.345732,-0.358143,-0.143737,0.0356822,-0.217401,1.62767
0.218109,-0.345732,-0.358143,-0.143737,0.0356822,-0.217401,1.7915
0.397157,-0.431388,-0.574835,-0.138674,0.0748102,-0.111195,1.7915
0.410364,-0.342273,-0.72853,-0.126547,0.0917519,0.0292056,1.7915
0.264755,-0.0369181,-0.819328,-0.120765,0.087121,0.151627,1.7915
0.126477,0.191586,-0.819833,-0.118356,0.0660423,0.162826,1.7915
0.0745975,0.32734,-0.72513,-0.0962764,0.057261,0.112701,1.7915
0.0902345,0.206214,-0.584507,-0.0696243,0.0587203,0.0653113,1.7915
0.183669,-0.149864,-0.485006,-0.0689188,0.0925496,0.0318196,1.7915
0.277368,-0.563095,-0.53746,-0.0732443,0.145662,0.0687672,1.7915
0.290653,-0.719629,-0.675582,-0.0783203,0.184361,0.19542,1.7915
0.293852,-0.601966,-0.774994,-0.0784425,0.173618,0.34219,1.7915
0.318462,-0.331878,-0.770175,-0.0507998,0.133869,0.431295,1.7915
0.320455,-0.188421,-0.715708,-0.0453746,0.110865,0.440213,1.7915
0.207935,-0.137182,-0.704603,-0.065645,0.121558,0.417703,1.7915
0.0673356,-0.219254,-0.71467,-0.0700814,0.136001,0.349565,1.7915
-0.0173748,-0.298047,-0.681831,-0.0526148,0.12538,0.260569,1.7915
-0.0305461,-0.265437,-0.659006,-0.061897,0.103715,0.192745,1.7915
-0.0750739,-0.194878,-0.708699,-0.0884859,0.103933,0.137167,1.7915
-0.246929,-0.0291165,-0.78397,-0.100096,0.105259,0.10882,1.7915
-0.394387,-0.0227145,-0.780389,-0.072256,0.056972,0.0165713,1.7915
-0.479524,-0.266729,-0.622725,-0.0373774,-0.000340164,-0.132516,1.7915
-0.527121,-0.409472,-0.55124,-0.0288819,-0.0114888,-0.218262,1.7915
-0.498749,-0.448753,-0.547416,-0.0305552,-0.0110481,-0.265815,1.7915
-0.420257,-0.433287,-0.51872,-0.0249557,-0.034301,-0.292474,1.7915
-0.351219,-0.20572,-0.496659,-0.0201214,-0.0495101,-0.281644,1.7915
-0.32138,0.07713,-0.411435,-0.00370491,-0.0665376,-0.257933,1.7915
-0.356522,0.184822,-0.280924,0.0150662,-0.0895481,-0.296216,1.7915
-0.404274,0.154997,-0.160051,0.0314429,-0.084578,-0.353143,1.7915
-0.408019,0.159447,-0.098886,0.0455348,-0.0609066,-0.3762,1.7915
-0.327441,0.1259,-0.0567484,0.0675972,-0.0470009,-0.401834,1.7915
-0.221088,0.0807943,-0.00173551,0.111185,-0.0354507,-0.379103,1.7915
-0.143183,0.0557492,0.0947055,0.156594,-0.038938,-0.313938,1.7915
-0.0966135,0.0512621,0.241966,0.187944,-0.0523877,-0.233101,1.7915
-0.0561639,0.0445978,0.374895,0.202427,-0.0545026,-0.15388,1.7915
-0.0224482,0.0226961,0.466901,0.199736,-0.0370664,-0.0739616,1.7915
0.00925273,0.00926711,0.514274,0.203914,-0.00435758,0.00483501,1.7915
0.0166752,0.104966,0.591987,0.218095,0.0124424,0.0751459,1.7915
0.000383288,0.348159,0.686101,0.217759,0.00492652,0.139614,1.7915
0.002272,0.478458,0.759421,0.19525,0.0149277,0.143525,1.7915
0.0308423,0.437527,0.78709,0.177219,0.0435859,0.119422,1.7915
0.103562,0.285622,0.783052,0.160364,0.0679724,0.12283,1.7915
0.232956,0.165371,0.726333,0.145347,0.0837283,0.15982,1.7915
0.375555,0.146844,0.671908,0.121993,0.0810907,0.22297,1.7915
0.459584,0.280817,0.631748,0.0980908,0.0761526,0.312914,1.7915
0.458803,0.408838,0.586748,0.0814887,0.0892151,0.364721,1.7915
0.417708,0.459901,0.560877,0.0604231,0.0933509,0.376785,1.7915
0.307543,0.422586,0.593256,0.0408524,0.0823413,0.360084,1.7915
0.148615,0.342162,0.634261,0.0325591,0.0836559,0.340938,1.7915
0.148615,0.342162,0.634261,0.0325591,0.0836559,0.340938,1.99231
-0.0481237,0.26309,0.71934,0.0265917,0.081235,0.318779,1.99231
-0.278661,0.31135,0.769367,-0.0127132,0.0715953,0.295895,1.99231
-0.46532,0.47415,0.76211,-0.0310727,0.0691473,0.246129,1.99231
-0.505162,0.507488,0.73548,-0.0388622,0.0443772,0.121376,1.99231
-0.445779,0.400978,0.777896,-0.0200575,0.00804752,-0.0187607,1.99231
-0.352678,0.165187,0.851183,-0.00609151,-0.0308403,-0.133859,1.99231
-0.3804,0.0170978,0.859175,-0.0328801,-0.0485432,-0.163606,1.99231
-0.460964,-0.00945708,0.714399,-0.0840774,-0.0564964,-0.150633,1.99231
-0.426567,-0.026214,0.4723,-0.11776,-0.0617742,-0.186053,1.99231
-0.274059,-0.0167434,0.24572,-0.108121,-0.0753797,-0.216334,1.99231
-0.130499,-0.00204059,0.121938,-0.0618597,-0.117132,-0.245719,1.99231
-0.0788978,0.0382226,0.0885473,-0.0453303,-0.167079,-0.253918,1.99231
-0.120309,0.0431682,0.0919054,-0.0393521,-0.200159,-0.27136,1.99231
-0.181813,-0.0524081,0.131163,-0.0186205,-0.206269,-0.317317,1.99231
-0.14775,-0.234593,0.193047,0.0173477,-0.202351,-0.387855,1.99231
-0.0224627,-0.391486,0.242114,0.0142994,-0.183653,-0.380225,1.99231
0.0191162,-0.399407,0.221234,-0.0146852,-0.134826,-0.298188,1.99231
-0.0616691,-0.310205,0.120122,-0.0454151,-0.0844534,-0.203839,1.99231
-0.147593,-0.183793,0.00143279,-0.0600838,-0.0480937,-0.151151,1.99231
-0.133694,-0.0860106,-0.144589,-0.0781069,-0.0189257,-0.145458,1.99231
0.0296451,-0.0747252,-0.301186,-0.0859001,0.00941044,-0.139567,1.99231
0.223638,-0.178463,-0.42123,-0.0776264,0.0298486,-0.111024,1.99231
0.324828,-0.243308,-0.520219,-0.0661426,0.0507551,-0.0738541,1.99231
0.338969,-0.133812,-0.544158,-0.0434606,0.0462312,-0.00698626,1.99231
0.296259,0.0323114,-0.45189,-0.035761,0.0101863,0.0405902,1.99231
0.21167,0.0437097,-0.341551,-0.018276,0.00930001,0.0440547,1.99231
0.142527,-0.122218,-0.288299,-0.0107185,0.0465372,0.0321015,1.99231
0.125314,-0.278889,-0.293158,-0.0203245,0.0777751,0.070236,1.99231
0.183693,-0.309032,-0.360826,-0.0328179,0.0960518,0.157287,1.99231
0.280298,-0.313194,-0.448514,-0.0378909,0.104173,0.248095,1.99231
0.355117,-0.244018,-0.528469,-0.0306692,0.112589,0.34664,1.99231
0.38579,-0.0669372,-0.606891,-0.0249556,0.104165,0.430867,1.99231
0.367982,0.169406,-0.658882,-0.0457998,0.0846155,0.470214,1.99231
0.32643,0.263933,-0.676808,-0.0482811,0.0807447,0.434699,1.99231
0.262171,0.0719883,-0.700445,-0.0525106,0.0825932,0.325048,1.99231
0.167935,-0.0153318,-0.694602,-0.0548033,0.0806473,0.231539,1.99231
0.0963689,-0.0331787,-0.61528,-0.0742859,0.0172808,0.150503,1.99231
0.0254842,-0.109263,-0.434655,-0.0765707,-0.0480928,0.0471652,1.99231
0.000980752,-0.197447,-0.302583,-0.0716327,-0.0675517,-0.0379654,1.99231
0.007934,-0.283181,-0.277346,-0.0777214,-0.0384472,-0.0654487,1.99231
-0.0401878,-0.226246,-0.320863,-0.0834617,-0.0209292,-0.0668586,1.99231
-0.0731121,-0.159823,-0.366632,-0.0736123,-0.0341422,-0.0584646,1.99231
-0.0720586,-0.242118,-0.29623,-0.0382783,-0.0541547,-0.116276,1.99231
-0.0693318,-0.345333,-0.19929,-0.00199781,-0.0645559,-0.155993,1.99231
-0.0831792,-0.456197,-0.119521,0.0160919,-0.0637175,-0.166143,1.99231
-0.163699,-0.501606,-0.0255158,0.0225919,-0.0772961,-0.138421,1.99231
-0.308774,-0.464234,0.0471445,0.0204586,-0.0921999,-0.1221,1.99231
-0.392254,-0.381752,0.0657542,0.0276449,-0.084009,-0.153369,1.99231
-0.392254,-0.381752,0.0657542,0.0276449,-0.084009,-0.153369,2.19841
-0.340216,-0.176629,0.0503833,0.0379586,-0.0688816,-0.205177,2.19841
-0.18693,0.197114,0.0293732,0.042439,-0.0611995,-0.207824,2.19841
-0.11037,0.390905,0.0827127,0.0409547,-0.0762872,-0.251739,2.19841
-0.157354,0.371119,0.160515,0.0729119,-0.0650693,-0.296127,2.19841
-0.291722,0.335695,0.215426,0.114874,-0.0319534,-0.301175,2.19841
-0.47391,0.486223,0.333091,0.167097,-0.0182553,-0.269089,2.19841
-0.511417,0.543396,0.567168,0.214424,-0.0535112,-0.304215,2.19841
-0.395183,0.260915,0.844286,0.234739,-0.0662319,-0.39023,2.19841
-0.31081,-0.162971,0.971068,0.246232,0.000316709,-0.3856,2.19841
-0.221388,-0.476209,0.979002,0.242926,0.06381,-0.25995,2.19841
-0.0779491,-0.465973,0.969436,0.245295,0.0912984,-0.102392,2.19841
0.104291,-0.0216938,0.915285,0.24484,0.0877873,0.0517883,2.19841
0.341115,0.450148,0.90243,0.249628,0.0986965,0.121306,2.19841
0.496993,0.502095,0.901187,0.228147,0.109037,0.0879884,2.19841
0.516431,0.283771,0.908584,0.2033,0.116799,0.0750706,2.19841
0.515391,0.0243227,0.911387,0.183666,0.110083,0.112718,2.19841
0.585926,-0.113151,0.943229,0.168401,0.0904795,0.200208,2.19841
0.686587,-0.09165,0.978778,0.158527,0.0869711,0.298212,2.19841
0.715849,0.0907339,1.00832,0.158242,0.0981811,0.395369,2.19841
0.652821,0.36929,1.03733,0.143117,0.102467,0.471833,2.19841
0.501659,0.527431,1.04599,0.104181,0.110726,0.47893,2.19841
0.30052,0.48576,1.06954,0.0796179,0.108488,0.412646,2.19841
0.125779,0.47489,1.08059,0.0611668,0.104388,0.334813,2.19841
0.0624306,0.411546,1.08742,0.0531807,0.0877963,0.235808,2.19841
0.0565048,0.410767,1.13765,0.0607779,0.0672266,0.157145,2.19841
0.0110703,0.47452,1.20213,0.0529006,0.0442121,0.12394,2.19841
-0.0799031,0.381026,1.29486,0.0588008,0.014801,0.045129,2.19841
-0.171959,0.0974158,1.36287,0.0649157,-9.97335e-05,-0.0319974,2.19841
-0.245981,-0.101053,1.2996,0.0537033,-0.00169963,-0.0438381,2.19841
-0.242549,-0.0943681,1.15236,0.0413306,-0.0103048,-0.0122382,2.19841
-0.114726,-0.0454999,1.02615,0.0516488,-0.0429817,0.0154536,2.19841
0.0365188,-0.00334666,0.964014,0.0635143,-0.082016,0.0409754,2.19841
0.0754354,0.0392801,0.899914,0.066297,-0.107464,0.0830182,2.19841
0.0117971,0.0722739,0.823367,0.071752,-0.119392,0.109518,2.19841
-0.0633829,0.0924824,0.751217,0.0827829,-0.131194,0.0944762,2.19841
-0.0743618,0.0779855,0.748317,0.102097,-0.158998,0.0516809,2.19841
-0.0164703,0.0176965,0.804892,0.107249,-0.187697,-0.00769067,2.19841
0.0527228,-0.0547113,0.87475,0.112811,-0.192649,-0.0597072,2.19841
0.0822073,0.0240702,0.865441,0.0857897,-0.170777,-0.0718311,2.19841
0.100343,0.0901635,0.761905,0.0400876,-0.135262,-0.109155,2.19841
0.182993,0.0770754,0.626059,0.0172539,-0.0976343,-0.190263,2.19841
0.278652,-0.0323709,0.529302,0.0211965,-0.069169,-0.263405,2.19841
0.281755,-0.0271144,0.461424,0.0296374,-0.0617568,-0.266412,2.19841
0.217298,0.104559,0.459709,0.0490022,-0.071716,-0.23411,2.19841
0.139649,0.110232,0.581239,0.0708354,-0.0977136,-0.242485,2.19841
0.107251,-0.108765,0.70576,0.0763157,-0.0976238,-0.279433,2.19841
0.168578,-0.376547,0.671402,0.0495429,-0.0442831,-0.243381,2.19841
0.28159,-0.362263,0.538954,0.0342312,0.0144318,-0.110173,2.19841
0.28159,-0.362263,0.538954,0.0342312,0.0144318,-0.110173,2.34903
0.402258,-0.0818281,0.382542,0.0106775,0.0325526,0.0378288,2.34903
0.472256,0.144147,0.260827,0.00740883,0.0487034,0.118133,2.34903
0.419077,0.135857,0.237087,0.0221037,0.049413,0.137968,2.34903
0.299742,0.0471649,0.2998,0.0319398,0.0327935,0.142828,2.34903
0.19194,0.0962751,0.355573,0.00593476,0.0132913,0.152184,2.34903
0.120925,0.254823,0.364546,-0.0205735,0.0215363,0.150045,2.34903
0.0698361,0.361247,0.384321,-0.0295942,0.0338929,0.113855,2.34903
0.013448,0.338515,0.471841,-0.0165575,0.024168,0.0563144,2.34903
-0.0302844,0.221027,0.590938,0.00235575,0.0145839,0.00864869,2.34903
-0.0345077,0.0600272,0.674294,0.00751555,0.0254854,-0.0186389,2.34903
-0.0239941,-0.0607026,0.689612,-0.00134467,0.0543087,0.00681019,2.34903
-0.0294837,-0.0895303,0.619857,-0.0151313,0.0844908,0.0544546,2.34903
-0.023766,-0.0970639,0.522168,-0.0135247,0.0959076,0.107113,2.34903
-0.0185891,-0.0523724,0.474236,0.020472,0.0940384,0.137378,2.34903
-0.0439223,0.0165907,0.503815,0.0445182,0.0706001,0.173703,2.34903
-0.0981955,-0.0426411,0.503752,0.0551918,0.0475417,0.176616,2.34903
-0.113392,-0.163081,0.484422,0.0621994,0.0601781,0.135788,2.34903
-0.071554,-0.0870319,0.473471,0.0699021,0.0276191,0.132723,2.34903
0.0971965,0.582136,0.403704,0.0302354,0.0235668,0.249648,2.34903
-0.0939156,0.721396,0.263612,-0.0180677,-0.0171604,0.189054,2.34903
-0.292381,0.351628,0.316137,0.0657923,-0.0423311,-0.00169647,2.34903
-0.334461,0.0596035,0.417389,0.0637285,-0.0748842,-0.0851058,2.34903
