rotationRate_x,rotationRate_y,rotationRate_z,acceleration_x,acceleration_y,acceleration_z,relativeAltitude
-0.313122,0.178088,0.642334,0.0451421,-0.124094,-0.0144261,2.14291
-0.222962,-0.062988,0.757083,0.0866997,-0.102314,0.0101402,2.14291
0.0153087,-0.07576,0.724413,0.0515395,-0.110132,-0.0252123,2.14291
0.206494,-0.0320071,0.610774,0.00301224,-0.113972,-0.0322066,2.14291
0.199468,-0.0940347,0.553806,0.0347843,-0.108834,0.0322627,2.14291
0.141911,-0.0812414,0.537525,0.0807797,-0.100499,0.0446923,2.14291
0.122585,0.0036453,0.519526,0.0854503,-0.0673575,0.0278687,2.14291
0.130291,0.0452619,0.47164,0.0736769,-0.0413522,0.0197691,2.14291
0.137631,-0.0238832,0.42094,0.0678783,-0.0199655,0.0178139,2.14291
0.170532,-0.0401463,0.405557,0.0825265,-0.000698268,-0.00255466,2.14291
0.194519,0.0672663,0.40373,0.073308,0.0251232,-0.0295086,2.14291
0.159661,0.154695,0.444242,0.066073,0.0514717,-0.0233563,2.14291
0.0724561,0.127498,0.472612,0.0607032,0.0469272,0.010451,2.14291
-0.0640515,0.0196487,0.495819,0.0418997,0.045728,0.0346513,2.14291
-0.249723,-0.109514,0.472396,0.00246137,0.0407134,0.0297526,2.14291
-0.400666,-0.264441,0.477989,-0.0119621,0.0355437,-0.0113797,2.14291
-0.404003,-0.288026,0.530384,-0.0365764,0.0617032,-0.105409,2.14291
-0.160437,-0.0551403,0.642358,-0.0569707,0.0662123,-0.20628,2.14291
0.176578,0.0946183,0.782817,-0.0586666,0.0558931,-0.163914,2.14291
0.397419,0.133646,0.823589,-0.0877165,-0.0105992,-0.0237629,2.14291
0.394601,-0.0191744,0.715663,-0.11819,-0.0736986,0.131952,2.14291
0.192597,-0.261577,0.403816,-0.168956,-0.131104,0.222467,2.14291
-0.126256,-0.382611,-0.0203922,-0.193848,-0.155285,0.232483,2.14291
-0.36723,-0.236414,-0.30585,-0.134951,-0.106536,0.156909,2.14291
-0.473292,-0.0313019,-0.347239,-0.0285904,-0.00285226,0.0777471,2.14291
-0.5863,0.308784,-0.342955,0.0323673,0.058977,0.0238272,2.14291
-0.698889,0.258883,-0.246832,0.0761303,0.111079,0.0326586,2.14291
-0.694013,-0.0738268,-0.147617,0.090778,0.142301,0.00511086,2.14291
-0.501208,-0.311796,-0.0447267,0.0939689,0.156047,-0.0739791,2.14291
-0.267301,-0.104227,0.0771618,0.0820509,0.167989,-0.136911,2.14291
-0.219938,0.174154,0.260322,0.0826939,0.1644,-0.0740866,2.14291
-0.324627,0.232841,0.441911,0.0824952,0.120227,0.0574402,2.14291
-0.370188,0.188583,0.53739,0.0333538,0.065145,0.122524,2.14291
-0.37642,0.126632,0.529504,-0.0339543,0.0103667,0.14313,2.14291
-0.458059,0.0507692,0.509926,-0.071005,-0.0275708,0.170325,2.14291
-0.597076,-0.0486407,0.503264,-0.0936554,-0.0516718,0.185087,2.14291
-0.666895,-0.167836,0.471692,-0.110828,-0.0812733,0.151265,2.14291
-0.633177,-0.297469,0.430606,-0.11623,-0.111191,0.0828382,2.14291
-0.576932,-0.338887,0.354938,-0.127054,-0.132458,0.0127478,2.14291
-0.536191,-0.322083,0.246347,-0.134903,-0.158279,-0.0378104,2.14291
-0.529419,-0.208252,0.145261,-0.109846,-0.189808,-0.088049,2.14291
-0.497133,-0.038084,0.113475,-0.0682162,-0.186799,-0.126813,2.14291
-0.468349,0.0107334,0.0956263,-0.0409125,-0.190656,-0.143787,2.14291
-0.380174,-0.0482389,0.0494989,-0.0223037,-0.220133,-0.184597,2.14291
-0.22843,-0.0577545,0.016041,-0.000398673,-0.221194,-0.263473,2.14291
-0.0816759,0.133863,0.0200159,0.0270803,-0.197115,-0.329537,2.14291
0.055142,0.374887,0.036251,0.045218,-0.173473,-0.370622,2.14291
0.118192,0.325183,0.0123761,0.0477486,-0.144934,-0.33939,2.14291
0.0264353,0.122795,-0.0731047,0.0286926,-0.112238,-0.308747,2.14291
-0.136887,0.0588751,-0.168205,-0.00820493,-0.0596875,-0.354276,2.14291
-0.136887,0.0588751,-0.168205,-0.00820493,-0.0596875,-0.354276,0
-0.19774,0.16324,-0.22436,-0.0330381,0.00227173,-0.442097,0
-0.125694,0.321501,-0.193826,-0.0251824,0.0765361,-0.477552,0
0.0452358,0.50544,-0.0344391,-0.00479026,0.15342,-0.452921,0
0.333835,0.608922,0.238503,0.0244987,0.181704,-0.365019,0
0.732729,0.562024,0.442215,0.0227478,0.147171,-0.226677,0
1.09824,0.623782,0.509894,-0.00730246,0.0994799,-0.0662922,0
1.16957,0.781156,0.491002,-0.0277907,0.0564154,0.128875,0
0.910944,0.723572,0.33725,-0.0563226,0.0174426,0.32478,0
0.458841,0.273522,0.0240526,-0.0767878,-0.0186811,0.439511,0
0.0102551,-0.231353,-0.311349,-0.0234087,-0.0485896,0.412633,0
-0.289213,-0.306866,-0.484402,0.0403397,0.0330507,0.225699,0
-0.305548,0.0241491,-0.505542,0.0687063,0.137244,0.0193613,0
-0.0228578,0.476736,-0.36725,0.122736,0.210727,-0.126689,0
0.358591,0.736693,-0.0927767,0.170832,0.282585,-0.127097,0
0.641194,0.833513,0.1846,0.163925,0.312286,-0.0311074,0
0.75817,0.779488,0.355644,0.117096,0.282166,0.105685,0
0.749942,0.777528,0.426271,0.0444457,0.247487,0.212106,0
0.582084,0.698238,0.456375,-0.00194484,0.228787,0.31558,0
0.323662,0.517243,0.507473,-0.00509602,0.200451,0.383744,0
0.0337807,0.283935,0.544769,-0.0102932,0.17141,0.396891,0
-0.194654,0.160259,0.54347,-0.0380083,0.151434,0.346189,0
-0.314395,0.11448,0.530364,-0.0601847,0.126844,0.261223,0
-0.341505,0.087434,0.464886,-0.0733119,0.0912746,0.194507,0
-0.364141,-0.00781528,0.35019,-0.0854559,0.0623643,0.16161,0
-0.454075,-0.11697,0.25211,-0.0749829,0.0389142,0.142139,0
-0.569641,-0.0792202,0.198401,-0.0442356,0.0141939,0.0891506,0
-0.606893,0.112805,0.20275,-0.0125766,0.00493619,0.0187162,0
-0.517863,0.268134,0.244416,0.00103325,0.00892401,-0.0196648,0
-0.43601,0.166176,0.298499,0.0281667,-0.00917992,0.0176634,0
-0.396231,-0.0242819,0.336466,0.0330064,-0.041712,0.0563627,0
-0.383818,-0.0855817,0.362828,0.0292485,-0.0727676,0.0509202,0
-0.367257,0.0168765,0.356574,-0.00569975,-0.102113,0.0204604,0
-0.372464,0.064732,0.285681,-0.0311594,-0.122917,0.0254683,0
-0.451905,-0.0403411,0.212958,-0.0297991,-0.127222,0.0593808,0
-0.518728,-0.12318,0.177165,0.000103235,-0.129804,0.0502282,0
-0.533238,-0.128663,0.151802,0.0126957,-0.122047,-0.000442326,0
-0.500459,-0.171619,0.150844,0.0395501,-0.123859,-0.0527241,0
-0.434897,-0.250317,0.160187,0.0667272,-0.132451,-0.10278,0
-0.401941,-0.295246,0.159202,0.0853155,-0.137733,-0.159757,0
-0.412566,-0.351937,0.18677,0.102409,-0.133807,-0.208877,0
-0.338539,-0.397634,0.253709,0.128797,-0.145379,-0.293218,0
-0.102349,-0.311391,0.327976,0.135064,-0.147426,-0.398533,0
0.0826711,-0.302492,0.349167,0.112588,-0.126735,-0.413642,0
-0.00544061,-0.315232,0.236362,0.0614761,-0.120227,-0.354736,0
-0.31357,-0.365506,0.0393265,-0.00187805,-0.0959019,-0.309932,0
-0.521612,-0.515445,-0.101536,0.00223605,-0.0567779,-0.345258,0
-0.430515,-0.73533,-0.162362,0.0430675,0.00537515,-0.453234,0
-0.133476,-0.594458,-0.167084,0.0486684,0.0540425,-0.55685,0
0.294449,-0.0183986,-0.0680112,0.0460093,0.0776352,-0.59583,0
0.792908,0.507204,0.0557103,0.0480153,0.0624531,-0.486152,0
1.15273,0.731568,0.117731,0.0284255,0.0479714,-0.234958,0
1.15273,0.731568,0.117731,0.0284255,0.0479714,-0.234958,0.058136
1.26557,0.790086,0.142599,-0.0179845,0.0594706,0.0133793,0.058136
1.16701,0.618335,0.119195,-0.0951103,0.101783,0.200637,0.058136
0.956752,0.241726,0.00695268,-0.180607,0.138236,0.315362,0.058136
0.726775,-0.118183,-0.128193,-0.225419,0.167161,0.340589,0.058136
0.499925,-0.314748,-0.217915,-0.213422,0.192609,0.331934,0.058136
0.326496,-0.30072,-0.245399,-0.1744,0.211299,0.29909,0.058136
0.240031,-0.216519,-0.199283,-0.13386,0.213752,0.264633,0.058136
0.274948,-0.234552,-0.113488,-0.0806419,0.197832,0.254477,0.058136
0.383682,-0.290788,-0.0153109,-0.0476747,0.172961,0.259871,0.058136
0.423908,-0.303066,0.00243941,-0.0518528,0.147417,0.294151,0.058136
0.352275,-0.264168,-0.0352704,-0.068145,0.118701,0.328464,0.058136
0.237476,-0.253052,-0.0724797,-0.0640654,0.110407,0.34808,0.058136
0.102417,-0.272304,-0.094943,-0.0574129,0.115644,0.353921,0.058136
-0.0760245,-0.289347,-0.108955,-0.054742,0.131892,0.344732,0.058136
-0.275133,-0.302038,-0.114924,-0.0322367,0.128345,0.324315,0.058136
-0.463029,-0.337464,-0.104772,-0.00192216,0.114115,0.292403,0.058136
-0.632513,-0.454953,-0.041462,0.0473068,0.0904505,0.255525,0.058136
-0.74154,-0.585938,0.0406337,0.0772033,0.0655009,0.177904,0.058136
-0.747935,-0.554474,0.120762,0.0897083,0.0194807,0.0628878,0.058136
-0.70603,-0.393471,0.179133,0.0770014,-0.0226773,-0.0177938,0.058136
-0.64901,-0.223177,0.171799,0.0397081,-0.0618283,-0.0595979,0.058136
-0.567837,-0.104552,0.155871,0.0178581,-0.103936,-0.0761392,0.058136
-0.489594,-0.0578257,0.124805,0.000886001,-0.12141,-0.0588515,0.058136
-0.457615,-0.0368364,0.092399,-0.0154845,-0.136337,-0.0261318,0.058136
-0.471406,-0.000645393,0.0439976,-0.0272428,-0.142843,0.00409508,0.058136
-0.525028,0.00607653,-0.0184302,-0.0291234,-0.149559,0.0201881,0.058136
-0.559676,0.0177023,-0.0320628,-0.0137068,-0.14619,0.00886428,0.058136
-0.531309,-0.0324508,0.0102625,0.0113082,-0.128785,-0.0236766,0.058136
-0.450519,-0.0723947,0.095589,0.038798,-0.115311,-0.0749066,0.058136
-0.415474,-0.146056,0.172727,0.039203,-0.111301,-0.117957,0.058136
-0.389471,-0.178537,0.204233,0.0218462,-0.119845,-0.177405,0.058136
-0.294172,-0.136225,0.215212,0.00566354,-0.128383,-0.263852,0.058136
-0.201584,-0.0360484,0.211533,0.00762672,-0.123806,-0.33865,0.058136
-0.12187,0.119608,0.211778,0.019607,-0.141037,-0.387279,0.058136
-0.0425194,0.145058,0.190227,0.0295626,-0.159413,-0.395765,0.058136
0.00545629,0.0852908,0.0613052,-0.00526661,-0.154687,-0.387193,0.058136
-0.00218312,0.14191,-0.0704525,-0.015525,-0.118973,-0.400601,0.058136
0.00482894,0.400188,-0.134986,0.00207492,-0.0615859,-0.423033,0.058136
-0.0041421,0.53407,-0.0803647,0.0410926,0.00968093,-0.366046,0.058136
0.0462844,0.547111,0.0347931,0.0749773,0.040427,-0.29876,0.058136
0.207871,0.51406,0.15139,0.07789,0.0502683,-0.246369,0.058136
0.408477,0.605771,0.282073,0.0575019,0.051741,-0.191421,0.058136
0.576982,0.745271,0.37317,0.0136231,0.051516,-0.0946044,0.058136
0.678234,0.752872,0.397254,-0.0236001,0.032472,0.0261412,0.058136
0.669004,0.60582,0.310013,-0.0646214,0.0171151,0.132406,0.058136
0.555168,0.347194,0.176912,-0.0756901,0.00961117,0.198359,0.058136
0.397618,0.151733,0.112227,-0.0448587,0.0402338,0.208135,0.058136
0.356416,0.231857,0.0982968,-0.0367851,0.088568,0.12538,0.058136
0.450179,0.418019,0.0841197,-0.0425458,0.129317,0.0671224,0.058136
0.541147,0.546221,0.0784388,-0.0368841,0.16178,0.0908233,0.058136
0.541147,0.546221,0.0784388,-0.0368841,0.16178,0.0908233,0.118912
0.502188,0.462954,0.0629821,-0.0264836,0.17679,0.190176,0.118912
0.418817,0.354802,0.0218402,-0.0236566,0.176685,0.238298,0.118912
0.319501,0.408406,0.0561384,-0.00222096,0.188764,0.23884,0.118912
0.224361,0.483671,0.212881,0.0251004,0.21547,0.252313,0.118912
0.179933,0.439071,0.358871,0.0279562,0.208724,0.268745,0.118912
0.169169,0.334708,0.399493,-0.00689173,0.179206,0.273444,0.118912
0.0705373,0.31266,0.259048,-0.0783532,0.143022,0.284567,0.118912
-0.234022,0.270231,0.120669,-0.086811,0.113315,0.321082,0.118912
-0.563741,0.19546,0.149931,-0.0246059,0.101171,0.310345,0.118912
-0.686549,0.122928,0.215619,-0.00153956,0.0864995,0.205081,0.118912
-0.608942,0.102504,0.241965,-0.0275765,0.0507157,0.0801755,0.118912
-0.462858,0.126046,0.248356,-0.0658646,0.0110017,0.00632906,0.118912
-0.36092,0.178882,0.222504,-0.0969818,-0.0292002,-0.0156277,0.118912
-0.341504,0.193103,0.191128,-0.115536,-0.0756519,0.00865561,0.118912
-0.351523,0.180129,0.126845,-0.142624,-0.107185,0.0304543,0.118912
-0.348036,0.103108,0.0290571,-0.17245,-0.124074,0.0410612,0.118912
-0.33604,0.0272408,-0.0826172,-0.179227,-0.136477,0.0407776,0.118912
-0.328548,0.0251359,-0.191024,-0.172569,-0.136656,0.0372533,0.118912
-0.386839,0.00137172,-0.303034,-0.151431,-0.129718,0.0572513,0.118912
-0.484955,-0.0358741,-0.411174,-0.117087,-0.132862,0.0738842,0.118912
-0.520707,-0.0707651,-0.467511,-0.0688557,-0.121788,0.0435476,0.118912
-0.497072,-0.145475,-0.48556,-0.0149311,-0.111055,0.00664806,0.118912
-0.4888,-0.234821,-0.479204,0.0430226,-0.113063,-0.0218123,0.118912
-0.530046,-0.319649,-0.450761,0.0920608,-0.102078,-0.0535303,0.118912
-0.570354,-0.415731,-0.414701,0.125375,-0.0909418,-0.109189,0.118912
-0.559956,-0.498672,-0.352897,0.152038,-0.0763662,-0.189636,0.118912
-0.516526,-0.548344,-0.270282,0.174805,-0.0545609,-0.268625,0.118912
-0.406852,-0.412389,-0.152575,0.167972,-0.0126949,-0.344779,0.118912
-0.235986,-0.222883,-0.0416667,0.135975,0.0310191,-0.373576,0.118912
-0.183736,-0.302405,-0.0260586,0.109714,0.0269342,-0.29881,0.118912
-0.330163,-0.616873,-0.120519,0.0763405,-0.00905602,-0.210732,0.118912
-0.519562,-0.776825,-0.31779,0.0161921,-0.0260079,-0.254147,0.118912
-0.580756,-0.605531,-0.450726,0.00446764,-0.0121657,-0.406751,0.118912
-0.419591,-0.275232,-0.474376,0.0126134,0.0210337,-0.501199,0.118912
0.0614176,0.111261,-0.377717,0.0576846,0.0273406,-0.543516,0.118912
0.517029,0.261835,-0.232126,0.0692182,0.0575074,-0.413484,0.118912
0.794513,0.231826,-0.0950725,0.0583143,0.0367078,-0.213817,0.118912
0.908392,0.188435,-0.0771641,-0.00184537,0.022175,-0.0512743,0.118912
0.871734,0.0639939,-0.115536,-0.0510873,0.0209006,0.0799075,0.118912
0.718159,-0.139274,-0.157198,-0.065545,0.0368701,0.165086,0.118912
0.58164,-0.266801,-0.172859,-0.0739134,0.0643752,0.169273,0.118912
0.562483,-0.295756,-0.199662,-0.0801249,0.0904488,0.113836,0.118912
0.652348,-0.242507,-0.171544,-0.0641791,0.112254,0.0658419,0.118912
0.786813,-0.162044,-0.120162,-0.0523315,0.116681,0.0628893,0.118912
0.856553,-0.110653,-0.0782461,-0.0330229,0.0942908,0.12274,0.118912
0.806886,-0.100058,-0.0700805,-0.0363458,0.0653526,0.201698,0.118912
0.687723,-0.109467,-0.140619,-0.0538292,0.045487,0.242055,0.118912
0.532354,-0.126698,-0.248871,-0.0534335,0.0294937,0.25672,0.118912
0.410832,-0.0924413,-0.314765,-0.0484442,0.0598079,0.244131,0.118912
0.312556,-0.05431,-0.307331,-0.0179511,0.0925209,0.22917,0.118912
0.204849,-0.0730096,-0.253494,0.0036125,0.104078,0.227467,0.118912
0.204849,-0.0730096,-0.253494,0.0036125,0.104078,0.227467,0.298584
0.129791,-0.0846411,-0.211581,0.01029,0.0917148,0.212962,0.298584
0.0979704,-0.0286854,-0.190596,-0.00439869,0.0791995,0.191162,0.298584
0.0344462,-0.029085,-0.15048,0.00476646,0.056123,0.203911,0.298584
-0.0790634,-0.0788756,-0.0725216,0.0172365,0.0321628,0.231424,0.298584
-0.1863,-0.121367,-0.0413434,-0.00264814,-0.00958867,0.236045,0.298584
-0.269411,-0.144464,-0.0758144,-0.0350655,-0.0516849,0.214531,0.298584
-0.333067,-0.14843,-0.113366,-0.0450535,-0.0731545,0.178544,0.298584
-0.333473,-0.0791838,-0.0868258,-0.0333178,-0.0761926,0.126131,0.298584
-0.305764,-0.0583296,-0.0785678,-0.0401787,-0.0799273,0.0966098,0.298584
-0.273411,-0.0585025,-0.0887951,-0.0360606,-0.104964,0.0766762,0.298584
-0.27217,-0.0632601,-0.0952446,-0.034262,-0.110181,0.0685934,0.298584
-0.327398,-0.0862128,-0.0812395,-0.0141057,-0.116075,0.0600537,0.298584
-0.366774,-0.125801,-0.086257,-0.00980453,-0.125535,0.010489,0.298584
-0.370372,-0.137114,-0.105766,-0.0103831,-0.124468,-0.0708706,0.298584
-0.409182,-0.206532,-0.142542,-0.00378697,-0.111356,-0.124092,0.298584
-0.555391,-0.285001,-0.257958,-0.0119999,-0.115508,-0.187746,0.298584
-0.755299,-0.16434,-0.358097,0.00378793,-0.11735,-0.298263,0.298584
-0.860886,0.184495,-0.344707,0.0457755,-0.0922773,-0.434923,0.298584
-0.733036,0.52577,-0.188696,0.0936069,-0.0631857,-0.548282,0.298584
-0.373467,0.61021,-0.010404,0.120028,-0.0478444,-0.576516,0.298584
-0.0503736,0.353554,0.0843772,0.128652,-0.0697137,-0.492094,0.298584
0.0828937,0.0443221,0.0507995,0.109349,-0.0974707,-0.376814,0.298584
-0.0695196,0.0594806,-0.00867605,0.08145,-0.0807462,-0.300659,0.298584
-0.116898,0.279793,0.0951413,0.0942525,-0.0513538,-0.311132,0.298584
0.257196,0.433218,0.246553,0.115458,-0.0264185,-0.331304,0.298584
0.756704,0.471416,0.377844,0.0826781,0.0151441,-0.234967,0.298584
1.05549,0.38698,0.421852,0.0292071,0.0436316,-0.0428964,0.298584
1.07997,0.308212,0.390994,-0.0145977,0.0666066,0.141649,0.298584
0.844253,0.24812,0.335802,-0.0379128,0.096323,0.28565,0.298584
0.55925,0.190451,0.304984,-0.0438148,0.128624,0.346055,0.298584
0.448154,0.111362,0.297844,-0.0386175,0.168131,0.306601,0.298584
0.467058,0.0354896,0.270019,-0.0469273,0.210427,0.242816,0.298584
0.459293,-0.010191,0.234544,-0.0425375,0.231277,0.218129,0.298584
0.405219,0.0228168,0.231754,-0.0183397,0.239291,0.214231,0.298584
0.324458,0.117114,0.276755,0.0116472,0.249625,0.219285,0.298584
0.249965,0.218958,0.336443,0.0182935,0.244816,0.227496,0.298584
0.218273,0.23931,0.369184,0.0236303,0.209825,0.243842,0.298584
0.190122,0.220977,0.355386,0.0146155,0.162326,0.249162,0.298584
0.120475,0.247591,0.292951,-0.0210204,0.121153,0.255474,0.298584
-0.00708942,0.272917,0.200303,-0.0318146,0.0613593,0.260009,0.298584
-0.100713,0.325183,0.0716597,-0.0542823,0.0167961,0.241273,0.298584
-0.216859,0.208335,-0.0689995,-0.0573279,0.00331049,0.252387,0.298584
-0.362691,0.0550799,-0.144969,-0.0306675,-0.00373043,0.247442,0.298584
-0.516181,-0.0209092,-0.148359,-0.00921553,0.0174266,0.202727,0.298584
-0.557027,-0.0180001,-0.102437,-0.00574392,0.0368388,0.105251,0.298584
-0.437773,-0.00206831,-0.0477881,-0.0106125,0.0417273,0.0158616,0.298584
-0.332101,-0.0572707,0.00421812,-0.00628811,0.0345558,-0.00662732,0.298584
-0.347533,-0.160389,0.0340919,-0.014149,0.0183256,0.018845,0.298584
-0.430191,-0.22315,0.0277788,-0.0319402,-0.010728,0.0225954,0.298584
-0.513512,-0.243533,-0.00476794,-0.0368652,-0.0414386,0.00256616,0.298584
-0.513512,-0.243533,-0.00476794,-0.0368652,-0.0414386,0.00256616,0.462402
-0.557306,-0.294985,-0.0286721,-0.0141362,-0.0702451,-0.0245106,0.462402
-0.613161,-0.330156,-0.0657688,0.00664288,-0.0846561,-0.0520702,0.462402
-0.703441,-0.432896,-0.0966742,0.0415509,-0.0988267,-0.0790668,0.462402
-0.758913,-0.572064,-0.0928047,0.10292,-0.100162,-0.143067,0.462402
-0.75039,-0.601073,-0.00761919,0.17255,-0.0846548,-0.260931,0.462402
-0.650023,-0.521074,0.156482,0.213059,-0.0902585,-0.380642,0.462402
-0.385819,-0.380557,0.301311,0.193067,-0.0939969,-0.512102,0.462402
-0.101668,-0.37274,0.327566,0.139427,-0.109635,-0.550674,0.462402
0.0636301,-0.53389,0.254425,0.101699,-0.15681,-0.51344,0.462402
0.0593524,-0.579111,0.1332,0.0760208,-0.173259,-0.48211,0.462402
0.0778461,-0.450696,-0.00551688,0.0317657,-0.144468,-0.516529,0.462402
0.285296,-0.211311,-0.16283,-0.0164398,-0.0675097,-0.56739,0.462402
0.589488,0.0356135,-0.202659,-0.0285327,0.0375031,-0.528448,0.462402
0.904537,0.227743,-0.0773598,0.0219108,0.128957,-0.384553,0.462402
1.13282,0.355675,0.0760411,0.0263971,0.176002,-0.198614,0.462402
1.19541,0.411656,0.14698,-0.0245388,0.190047,-0.0169164,0.462402
0.991598,0.309766,0.131761,-0.0828295,0.18645,0.153049,0.462402
0.677946,0.078366,0.0819059,-0.138067,0.181754,0.254903,0.462402
0.448517,-0.223204,-0.00149751,-0.169159,0.181729,0.266684,0.462402
0.42247,-0.314738,-0.0273917,-0.149617,0.176093,0.18828,0.462402
0.560641,-0.288674,0.0420185,-0.106479,0.174743,0.12733,0.462402
0.766558,-0.150831,0.1196,-0.0740424,0.146668,0.124808,0.462402
0.834275,-0.00385668,0.148057,-0.0939124,0.105782,0.198122,0.462402
0.77906,0.11365,0.137138,-0.112707,0.0703473,0.293598,0.462402
0.706561,0.139435,0.0141721,-0.162752,0.0487198,0.348513,0.462402
0.644713,0.0927331,-0.204589,-0.202728,0.0339348,0.381906,0.462402
0.548446,-0.0724642,-0.39852,-0.203974,0.0580626,0.405055,0.462402
0.375987,-0.216232,-0.539767,-0.179951,0.106036,0.406571,0.462402
0.151007,-0.198138,-0.593254,-0.133048,0.140261,0.366796,0.462402
0.00583124,-0.0682126,-0.608646,-0.0999122,0.150524,0.292891,0.462402
-0.103324,-0.0236904,-0.616623,-0.0746723,0.138517,0.25256,0.462402
-0.245103,-0.115795,-0.578183,-0.0291932,0.108551,0.233485,0.462402
-0.369544,-0.233225,-0.488835,0.0193708,0.0818832,0.197955,0.462402
-0.471758,-0.240671,-0.379731,0.0403945,0.0539599,0.143295,0.462402
-0.574811,-0.155623,-0.319977,0.0340819,0.0136086,0.0893381,0.462402
-0.642018,-0.119742,-0.265572,0.0371407,-0.0393269,0.0492905,0.462402
-0.55272,-0.0729158,-0.204169,0.0347764,-0.082407,-0.0104724,0.462402
-0.38817,0.0233639,-0.158079,0.0101204,-0.101103,-0.0477452,0.462402
-0.289677,0.0785905,-0.163076,-0.0282593,-0.131416,-0.0285841,0.462402
-0.25483,0.0654212,-0.218722,-0.0535279,-0.164741,0.0202864,0.462402
-0.306045,0.0190657,-0.308176,-0.0644649,-0.182481,0.0558716,0.462402
-0.38415,-0.00565819,-0.383655,-0.0526299,-0.197497,0.0490864,0.462402
-0.442552,-0.0379694,-0.422599,-0.0245108,-0.19541,0.00354785,0.462402
-0.420364,-0.0588559,-0.394466,0.00978856,-0.185189,-0.0891409,0.462402
-0.322196,-0.0663685,-0.338947,0.0358235,-0.170888,-0.179084,0.462402
-0.164172,-0.0785773,-0.282802,0.0556242,-0.176899,-0.259669,0.462402
0.0335066,0.0109636,-0.209189,0.070504,-0.15652,-0.34143,0.462402
0.200103,0.197058,-0.134454,0.0587102,-0.125359,-0.375336,0.462402
0.231193,0.262445,-0.0840946,0.0764972,-0.135829,-0.341924,0.462402
0.153282,0.212255,-0.092265,0.0833383,-0.159021,-0.295682,0.462402
0.103231,0.251276,-0.174226,0.0595938,-0.155653,-0.317665,0.462402
0.0625488,0.337172,-0.270104,0.0576698,-0.113452,-0.331548,0.462402
-0.0218259,0.36674,-0.291175,0.0890869,-0.0511414,-0.302722,0.462402
-0.136125,0.32668,-0.279204,0.122199,-0.00248514,-0.270986,0.462402
-0.186576,0.294715,-0.177182,0.145417,0.054609,-0.268913,0.462402
-0.0375218,0.39301,0.0579856,0.155339,0.124273,-0.308109,0.462402
0.405895,0.689636,0.366534,0.141778,0.171062,-0.332189,0.462402
0.878022,0.731211,0.592812,0.0936029,0.19639,-0.186972,0.462402
1.16097,0.667706,0.62396,0.0424286,0.155507,0.0195814,0.462402
1.03169,0.527872,0.529806,-1.79112e-05,0.131663,0.227405,0.462402
0.596521,0.43045,0.427274,-0.0195304,0.109828,0.362213,0.462402
0.160729,0.316474,0.299121,-0.0481094,0.108214,0.386795,0.462402
-0.0186074,0.253933,0.145819,-0.0703138,0.122026,0.304098,0.462402
0.024082,0.218727,0.0911427,-0.0481794,0.165576,0.210346,0.462402
0.0975478,0.190765,0.157541,0.000127941,0.194921,0.174242,0.462402
0.16311,0.183787,0.274173,0.0207489,0.204036,0.169091,0.462402
0.165006,0.160017,0.397367,0.03516,0.198951,0.19552,0.462402
0.140136,0.148486,0.49907,0.0243932,0.184451,0.219662,0.462402
0.108292,0.135504,0.53549,-0.00789848,0.169779,0.236681,0.462402
0.0458936,0.0797646,0.528702,-0.0297821,0.149287,0.259235,0.462402
-0.0658416,9.78103e-05,0.502894,-0.0374765,0.123527,0.266101,0.462402
-0.196324,-0.0532997,0.440666,-0.0475568,0.0987075,0.238482,0.462402
-0.294488,-0.0816648,0.369992,-0.0421532,0.0715366,0.178231,0.462402
-0.353225,-0.0824054,0.291088,-0.0293636,0.0486766,0.108541,0.462402
-0.38185,-0.0764001,0.238515,-0.00977024,0.0286627,0.0620869,0.462402
-0.405614,-0.0358549,0.170417,-0.014259,0.0212664,0.0257962,0.462402
-0.405614,-0.0358549,0.170417,-0.014259,0.0212664,0.0257962,0.665863
-0.408013,0.0513604,0.127252,-0.0157093,0.00777395,-0.00264585,0.665863
-0.410639,0.12746,0.116,-0.00584936,0.00200455,-0.00424266,0.665863
-0.392509,0.171243,0.138281,0.00107628,-0.00304236,0.00967073,0.665863
-0.365382,0.128837,0.146272,-0.00309941,-0.0237655,0.0407556,0.665863
-0.353781,0.0903519,0.164661,-0.0111554,-0.0389673,0.0745692,0.665863
-0.400287,0.0232961,0.175261,-0.0250614,-0.0443927,0.117423,0.665863
-0.472855,-0.0514356,0.188475,-0.0348167,-0.0624356,0.141675,0.665863
-0.537555,-0.114631,0.182339,-0.0550121,-0.0715144,0.133431,0.665863
-0.558348,-0.160451,0.153425,-0.0614204,-0.0951908,0.104763,0.665863
-0.510521,-0.198448,0.0971908,-0.058636,-0.124582,0.0549302,0.665863
-0.504093,-0.246472,0.0149743,-0.0561444,-0.144362,0.0346401,0.665863
-0.571658,-0.352819,-0.100179,-0.0368437,-0.167245,0.0185916,0.665863
-0.616559,-0.460451,-0.204248,0.00708529,-0.177417,-0.0471551,0.665863
-0.623045,-0.493952,-0.204451,0.0786896,-0.158925,-0.151112,0.665863
-0.580608,-0.531736,-0.133546,0.139145,-0.140156,-0.243219,0.665863
-0.468045,-0.624889,-0.0424163,0.1895,-0.142426,-0.345115,0.665863
-0.274006,-0.650559,0.0239195,0.210521,-0.153548,-0.452672,0.665863
-0.0765616,-0.649797,0.00995537,0.166124,-0.138134,-0.53541,0.665863
0.0569488,-0.579171,-0.0556976,0.121899,-0.104092,-0.593403,0.665863
0.184865,-0.343797,-0.082581,0.113107,-0.0773806,-0.635234,0.665863
0.325818,-0.0121464,-0.0905934,0.103483,-0.0474555,-0.61663,0.665863
0.433449,0.0456669,-0.0801348,0.0829879,-0.00860108,-0.517688,0.665863
0.631036,0.0404901,-0.132471,0.0475067,0.0284102,-0.426741,0.665863
0.819823,0.168111,-0.180638,0.0236466,0.079721,-0.336683,0.665863
0.900728,0.362485,-0.136841,0.0278316,0.130297,-0.205288,0.665863
0.939708,0.481621,-0.0311964,0.0393373,0.160861,-0.0797957,0.665863
0.977996,0.447775,0.0880323,0.0267831,0.186623,0.0190258,0.665863
0.995997,0.283132,0.17322,-0.017813,0.208397,0.0960337,0.665863
0.973865,0.0871541,0.175246,-0.0860306,0.219277,0.152426,0.665863
0.849291,-0.0694587,0.0887167,-0.154606,0.217831,0.197352,0.665863
0.638736,-0.195455,-0.0175791,-0.175096,0.211242,0.235278,0.665863
0.467228,-0.248747,-0.0349758,-0.127301,0.201619,0.242052,0.665863
0.400574,-0.229092,0.0575886,-0.0693665,0.1983,0.2211,0.665863
0.489967,-0.0892052,0.162816,-0.0551432,0.177545,0.188182,0.665863
0.611216,0.00847166,0.191779,-0.0781958,0.162111,0.225087,0.665863
0.59096,0.0752193,0.180393,-0.0986034,0.128466,0.313476,0.665863
0.419023,0.0453994,0.112452,-0.110294,0.106212,0.387665,0.665863
0.230685,-0.0890118,0.0466502,-0.10559,0.0905219,0.427467,0.665863
0.105972,-0.287226,-0.00570122,-0.0845544,0.0793073,0.410491,0.665863
0.029281,-0.434346,-0.0107995,-0.0454348,0.078684,0.351289,0.665863
-0.107122,-0.45004,-0.00543591,-0.026254,0.0779254,0.279093,0.665863
-0.292082,-0.392456,-0.0270375,-0.0193693,0.0621863,0.214653,0.665863
-0.420376,-0.336309,-0.0189213,0.00101358,0.0466568,0.146027,0.665863
-0.47538,-0.335418,0.054238,0.0260242,0.0495824,0.0760292,0.665863
-0.41817,-0.298974,0.189022,0.0495037,0.0385075,0.0071941,0.665863
-0.248402,-0.191212,0.273785,0.0215616,0.0217841,-0.0474735,0.665863
-0.144728,-0.139656,0.310476,0.00109154,-0.0144398,-0.0253623,0.665863
-0.202196,-0.152223,0.328026,-0.0126881,-0.0478115,0.05184,0.665863
-0.335791,-0.139828,0.288559,-0.0437276,-0.0734773,0.0937308,0.665863
-0.426746,-0.100813,0.183691,-0.0855039,-0.0928441,0.0894693,0.665863
-0.4419,-0.0771538,0.0476524,-0.110814,-0.100394,0.0702971,0.665863
-0.453724,-0.0896102,-0.0293387,-0.0939599,-0.0976604,0.0724792,0.665863
-0.501803,-0.170384,-0.0346132,-0.0651482,-0.0846488,0.0880843,0.665863
-0.506193,-0.220381,-0.0240145,-0.0479749,-0.0854312,0.067791,0.665863
-0.506193,-0.220381,-0.0240145,-0.0479749,-0.0854312,0.067791,0.721359
-0.439309,-0.196914,-0.015686,-0.0462292,-0.0774205,0.0211646,0.721359
-0.42091,-0.153921,-0.00696751,-0.0461753,-0.0786206,0.00791055,0.721359
-0.417176,-0.164966,0.00115603,-0.0266817,-0.0950162,-0.000902474,0.721359
-0.334388,-0.117613,0.000505728,-0.0190156,-0.101067,-0.054037,0.721359
-0.233143,-0.0256557,-0.00654858,-0.00220346,-0.108253,-0.0967962,0.721359
-0.194086,-0.0249802,0.00146342,0.0389012,-0.119871,-0.102334,0.721359
-0.151822,-0.0327974,0.037237,0.0774833,-0.124165,-0.144434,0.721359
-0.144722,-0.0334101,0.068512,0.0932101,-0.123505,-0.201598,0.721359
-0.173405,-0.0555378,0.118081,0.107411,-0.132298,-0.258081,0.721359
-0.187665,-0.0940284,0.124409,0.0922679,-0.137968,-0.334127,0.721359
-0.200704,-0.0886214,0.0825074,0.0528524,-0.124152,-0.423823,0.721359
-0.0672579,0.133064,0.0339887,0.0230831,-0.0921873,-0.526817,0.721359
0.160384,0.516702,0.035988,0.0301146,-0.0714606,-0.570957,0.721359
0.354827,0.791071,0.134125,0.0757355,-0.0444922,-0.494025,0.721359
0.438648,0.853662,0.223997,0.0916961,-0.0219487,-0.337195,0.721359
0.441268,0.764284,0.266987,0.0812459,-0.00967379,-0.203106,0.721359
0.424149,0.681763,0.305633,0.0674424,0.00870384,-0.12041,0.721359
0.437482,0.736335,0.352367,0.0289659,0.0473224,-0.0765886,0.721359
0.488922,0.91288,0.401826,-0.017956,0.0881856,-0.0267183,0.721359
0.58112,1.0797,0.421198,-0.0608177,0.114743,0.0554109,0.721359
0.65335,1.1633,0.396996,-0.087607,0.120975,0.167852,0.721359
0.616228,1.10597,0.306032,-0.105567,0.109438,0.289019,0.721359
0.423322,0.849557,0.128182,-0.113477,0.0948343,0.383093,0.721359
0.12282,0.573727,0.0212711,-0.0475543,0.100213,0.418882,0.721359
-0.130018,0.557165,0.0394634,0.00710887,0.149279,0.357535,0.721359
-0.33384,0.597159,0.0640955,0.0302161,0.184013,0.294511,0.721359
-0.486356,0.509352,0.129011,0.072625,0.182801,0.250065,0.721359
-0.505657,0.387189,0.227936,0.0969609,0.199587,0.16996,0.721359
-0.427849,0.372016,0.395146,0.116378,0.214361,0.0853165,0.721359
-0.330645,0.478426,0.643488,0.127729,0.232118,0.0264503,0.721359
-0.206644,0.557976,0.88839,0.108198,0.228323,0.00513649,0.721359
-0.061681,0.512871,0.998308,0.0349065,0.193788,0.0104454,0.721359
0.0757187,0.420988,0.995713,-0.0247853,0.132127,0.0301242,0.721359
0.0820008,0.296278,0.948959,-0.0644172,0.105432,0.0752052,0.721359
-0.0542031,0.202807,0.871408,-0.101874,0.0699562,0.101048,0.721359
-0.18758,0.148555,0.702895,-0.150402,0.0229705,0.0740536,0.721359
-0.274991,0.105505,0.445693,-0.198073,-0.0120344,0.0277637,0.721359
-0.291425,0.136456,0.206421,-0.194161,-0.0338809,-0.0203519,0.721359
-0.274949,0.239148,0.0406981,-0.169612,-0.0319661,-0.0555375,0.721359
-0.250229,0.284934,0.0198012,-0.116295,-0.0157228,-0.0462304,0.721359
-0.137572,0.300169,0.0796785,-0.0729086,-0.0062784,-0.0309885,0.721359
0.0101768,0.329998,0.108118,-0.0869894,-0.00300786,0.00620866,0.721359
0.0422192,0.347868,0.0828663,-0.099514,-0.0257972,0.0983389,0.721359
-0.044936,0.300274,0.0392696,-0.0904568,-0.043072,0.198989,0.721359
-0.226444,0.107924,-0.00527155,-0.0661004,-0.0517065,0.274867,0.721359
-0.473977,-0.220928,-0.041615,-0.0258641,-0.0580317,0.303887,0.721359
-0.748111,-0.447677,-0.0902184,0.000743747,-0.0669762,0.265467,0.721359
-0.926666,-0.534489,-0.122408,0.0290148,-0.0713971,0.152538,0.721359
-0.961986,-0.593238,-0.148825,0.0497572,-0.0735582,0.0230746,0.721359
-0.845774,-0.524444,-0.135257,0.0810808,-0.077225,-0.10941,0.721359
-0.624019,-0.309931,-0.0924198,0.107833,-0.0758095,-0.20629,0.721359
-0.396243,-0.146869,-0.00393602,0.144398,-0.0712347,-0.223212,0.721359
-0.211576,-0.109279,0.11931,0.185842,-0.0741527,-0.183327,0.721359
-0.211576,-0.109279,0.11931,0.185842,-0.0741527,-0.183327,0.911606
-0.0587283,-0.0699409,0.238536,0.193038,-0.0651005,-0.132746,0.911606
0.0172585,-0.0383741,0.316089,0.15331,-0.0464903,-0.0821447,0.911606
0.0536057,-0.0605851,0.342564,0.1087,-0.0315576,-0.0270069,0.911606
0.0708174,-0.0786109,0.366094,0.0796055,0.00310162,0.0107027,0.911606
0.00751593,-0.101166,0.410227,0.0554985,0.0424741,0.0543954,0.911606
-0.148683,-0.179709,0.443321,0.0408302,0.0477335,0.0883735,0.911606
-0.278368,-0.190759,0.438238,0.0117787,0.040783,0.0715256,0.911606
-0.320242,-0.125187,0.414421,-0.0198379,0.0349088,0.0164236,0.911606
-0.312784,-0.0430112,0.405293,-0.0272521,0.0118706,-0.0142145,0.911606
-0.337712,-0.0271143,0.355501,-0.0414744,-0.0222887,0.00286961,0.911606
-0.43267,-0.111216,0.253828,-0.0544735,-0.0639704,0.0383353,0.911606
-0.589038,-0.258802,0.109163,-0.0549067,-0.100318,0.046748,0.911606
-0.742155,-0.377126,-0.0149997,-0.0378808,-0.119849,0.0072031,0.911606
-0.812881,-0.409781,-0.0825311,-0.00751898,-0.115161,-0.0860155,0.911606
-0.758216,-0.419381,-0.0621908,0.0276036,-0.0868368,-0.18766,0.911606
-0.623157,-0.464818,0.0256012,0.0823483,-0.080159,-0.253913,0.911606
-0.461618,-0.427346,0.105684,0.10808,-0.0895192,-0.304557,0.911606
-0.373823,-0.325761,0.117387,0.106139,-0.116314,-0.315531,0.911606
-0.493932,-0.266263,0.0395236,0.0795216,-0.142265,-0.281421,0.911606
-0.529808,-0.459805,-0.00527832,0.0741744,-0.130953,-0.278582,0.911606
-0.262106,-0.53365,0.00360273,0.104385,-0.103085,-0.372417,0.911606
0.0282378,-0.322544,0.106023,0.120496,-0.0585634,-0.406218,0.911606
0.289319,-0.0129425,0.200235,0.0925121,-0.0286915,-0.376239,0.911606
0.526416,0.15414,0.249624,0.0768106,-0.0311232,-0.27163,0.911606
0.708521,0.108583,0.326463,0.0802405,-0.00961473,-0.133215,0.911606
0.812198,-0.079419,0.37033,0.0629111,0.022373,-0.0245302,0.911606
0.827367,-0.267766,0.350006,0.0308697,0.0407558,0.0344935,0.911606
0.753455,-0.389443,0.302674,0.00291996,0.0758831,0.0633824,0.911606
0.666846,-0.407561,0.274111,-0.0119895,0.121744,0.0429603,0.911606
0.630004,-0.412107,0.263502,-0.0237994,0.174067,0.00622612,0.911606
0.684633,-0.425184,0.315224,-0.0245242,0.216581,-0.0230922,0.911606
0.827148,-0.367812,0.373114,-0.0397338,0.250752,-0.0385771,0.911606
1.03793,-0.308918,0.465518,-0.0342008,0.276543,0.00227815,0.911606
1.17477,-0.307926,0.569491,-0.0140967,0.270495,0.118264,0.911606
1.17641,-0.3262,0.642759,-0.0143808,0.261643,0.246955,0.911606
1.04359,-0.240899,0.690789,-0.0120436,0.234397,0.337476,0.911606
0.757006,-0.0268811,0.640147,-0.0398022,0.195968,0.407197,0.911606
0.354075,0.118922,0.519097,-0.0583533,0.14582,0.469046,0.911606
0.0192727,0.0741776,0.368107,-0.0562032,0.102138,0.485133,0.911606
-0.183892,-0.135974,0.26757,-0.00714711,0.0842983,0.452053,0.911606
-0.284567,-0.196044,0.294413,0.0453434,0.102625,0.367149,0.911606
-0.360469,-0.124784,0.33835,0.0700289,0.101056,0.291407,0.911606
-0.474912,-0.0610512,0.347325,0.089253,0.0592937,0.240705,0.911606
-0.58655,0.0377991,0.367564,0.103131,0.026097,0.181219,0.911606
-0.647976,0.118331,0.391028,0.106513,0.0147342,0.112115,0.911606
-0.653019,0.0925875,0.461989,0.123965,-0.0121163,0.0450245,0.911606
-0.534842,0.0652648,0.534842,0.118641,-0.024271,-0.0334083,0.911606
-0.404382,0.14794,0.578683,0.111235,-0.0382872,-0.0906297,0.911606
-0.369914,0.349165,0.634326,0.0951447,-0.0415359,-0.102924,0.911606
-0.442884,0.414151,0.745456,0.0942689,-0.0298286,-0.0553219,0.911606
-0.476849,0.33695,0.882574,0.0854467,-0.0233462,-0.0334772,0.911606
-0.43924,0.20614,0.946436,0.0187584,-0.0253794,-0.0535302,0.911606
-0.395029,0.165129,0.929471,-0.0429373,-0.0410747,-0.0764327,0.911606
-0.40811,0.240144,0.929486,-0.0772846,-0.0530064,-0.072624,0.911606
-0.40811,0.240144,0.929486,-0.0772846,-0.0530064,-0.072624,1.09921
-0.4228,0.37935,0.902431,-0.111778,-0.0728697,-0.0677483,1.09921
-0.377707,0.502635,0.827951,-0.14441,-0.0981997,-0.0659947,1.09921
-0.327679,0.520921,0.777925,-0.140049,-0.0975656,-0.0204226,1.09921
-0.225578,0.546699,0.752204,-0.127411,-0.108099,0.00778329,1.09921
-0.0891944,0.468935,0.71118,-0.116874,-0.101601,0.0447846,1.09921
-0.0198501,0.309428,0.65198,-0.0961046,-0.100264,0.076281,1.09921
-0.0214098,0.236712,0.560338,-0.0721568,-0.106784,0.0758857,1.09921
-0.0262409,0.273919,0.500766,-0.045062,-0.08152,0.0299689,1.09921
0.0308883,0.367936,0.512229,-0.000995725,-0.0418655,-0.0308639,1.09921
0.071236,0.49497,0.529197,0.029193,-0.0328974,-0.0721363,1.09921
-0.0108757,0.634319,0.49285,0.0430827,-0.0539928,-0.0579235,1.09921
-0.403049,0.685781,0.256514,-0.0137682,-0.0930434,-0.0193081,1.09921
-0.785448,0.443231,0.00308395,-0.0229414,-0.100848,-0.0506369,1.09921
-0.747289,0.222066,-0.0770084,0.0523585,-0.0483343,-0.22286,1.09921
-0.345809,0.411934,0.186231,0.170552,0.0246053,-0.376554,1.09921
0.136693,0.884387,0.648752,0.197025,0.105551,-0.41284,1.09921
0.40662,1.02493,1.03149,0.146914,0.101817,-0.260428,1.09921
0.56238,0.889732,1.13169,0.0436209,0.0144561,-0.0792971,1.09921
0.562179,0.585997,1.06165,-0.0272643,-0.0442747,0.0690388,1.09921
0.400763,0.409684,0.986929,-0.0392713,-0.0647823,0.158136,1.09921
0.233693,0.448856,0.957176,-0.0425608,-0.0360878,0.174904,1.09921
0.164196,0.487015,0.95632,-0.042645,0.0138427,0.164753,1.09921
0.0920715,0.483213,0.887288,-0.0599988,0.020762,0.159666,1.09921
0.00882752,0.362094,0.78,-0.0613257,0.0138696,0.17936,1.09921
-0.0563253,0.224193,0.679866,-0.031736,0.0211284,0.178673,1.09921
-0.10577,0.17072,0.676419,0.0303081,0.033071,0.157711,1.09921
-0.150882,0.137405,0.709074,0.0849436,0.0116974,0.126368,1.09921
-0.153902,0.161572,0.63908,0.0644971,-0.01857,0.084005,1.09921
-0.151535,0.166303,0.474168,0.0448095,-0.0625444,0.0574334,1.09921
-0.222616,0.226536,0.198565,0.0188438,-0.0673624,0.0282826,1.09921
-0.326972,0.327005,0.0140899,0.00886545,0.0186064,0.00189936,1.09921
-0.397139,0.357519,0.0442086,0.0784014,0.137611,0.00535399,1.09921
-0.295171,0.265059,0.261126,0.159822,0.223757,0.0209754,1.09921
-0.181636,0.26509,0.517602,0.214885,0.252119,0.0577051,1.09921
-0.282717,0.219087,0.742403,0.232537,0.221747,0.136471,1.09921
-0.498317,0.087052,0.855269,0.226249,0.150553,0.185328,1.09921
-0.655166,-0.0204297,0.883593,0.227072,0.0753117,0.147781,1.09921
-0.695075,-0.0267145,0.894726,0.212925,0.0446432,0.040121,1.09921
-0.646431,0.0398131,0.921523,0.197639,0.0380511,-0.0622253,1.09921
-0.539645,0.112664,0.969372,0.17721,0.0622347,-0.120829,1.09921
-0.476549,0.112514,1.0411,0.156304,0.0996211,-0.115873,1.09921
-0.47531,0.0731426,1.14581,0.150039,0.102093,-0.0928026,1.09921
-0.437906,0.0859808,1.20959,0.124639,0.0842502,-0.0975168,1.09921
-0.387271,0.131895,1.22217,0.0733067,0.0776659,-0.0911664,1.09921
-0.373743,0.16742,1.22938,0.048584,0.0652278,-0.0523249,1.09921
-0.388766,0.125272,1.26987,0.0534377,0.0510931,0.00654721,1.09921
-0.38799,0.068123,1.28181,0.0269434,0.0376179,0.0403829,1.09921
-0.365899,-0.0197172,1.28276,0.00112,0.0220002,0.057772,1.09921
-0.298503,-0.113079,1.29293,-0.00419621,0.00709687,0.0570605,1.09921
-0.216204,-0.125908,1.24486,-0.0313975,-0.0128279,0.0453378,1.09921
-0.177537,-0.102827,1.1683,-0.0469792,-0.035048,0.05669,1.09921
-0.191484,-0.138416,1.09978,-0.0244839,-0.0568023,0.0888111,1.09921
-0.213771,-0.22836,1.0482,0.00257058,-0.0685403,0.0994481,1.09921
-0.19563,-0.367558,1.04387,0.0440364,-0.0740371,0.0752581,1.09921
-0.19563,-0.367558,1.04387,0.0440364,-0.0740371,0.0752581,1.2921
-0.13615,-0.360946,1.06793,0.0713788,-0.067699,0.00863397,1.2921
-0.079807,-0.323141,1.07897,0.0657336,-0.0550219,-0.0332994,1.2921
-0.0523473,-0.277906,1.06552,0.0732928,-0.0730296,-0.04426,1.2921
-0.0331386,-0.225245,1.03318,0.0633973,-0.0672093,-0.0418323,1.2921
-0.0508101,-0.231465,1.04154,0.0774621,-0.0507564,-0.0275092,1.2921
-0.0525081,-0.227139,1.04362,0.0740689,-0.0421703,-0.0255197,1.2921
-0.0568128,-0.167502,0.991672,0.0462798,-0.0469683,-0.0315552,1.2921
-0.0749485,-0.055814,0.971907,0.0443828,-0.0462526,-0.0255066,1.2921
-0.0779509,-0.0240474,1.00191,0.0498901,-0.0308495,0.00350267,1.2921
-0.0586892,-0.116867,1.08573,0.0717954,-0.022613,0.0316027,1.2921
-0.0659198,-0.217002,1.05246,0.043138,-0.0239771,0.0345104,1.2921
-0.168158,-0.139367,0.889511,-0.00435796,-0.0369987,0.0212981,1.2921
-0.323775,-0.0405827,0.777633,0.0353965,-0.0467962,0.0299522,1.2921
-0.458667,-0.135929,0.74771,0.0886693,-0.0193335,0.0547765,1.2921
-0.619087,-0.316986,0.661265,0.0884421,0.00336848,0.0523894,1.2921
-0.743015,-0.324321,0.502235,0.0542221,0.00472744,-0.0404028,1.2921
-0.779134,-0.148467,0.377545,0.0533162,0.0420662,-0.161422,1.2921
-0.670719,0.114009,0.458373,0.11222,0.0945966,-0.245286,1.2921
-0.39503,0.31169,0.673322,0.179096,0.139048,-0.270189,1.2921
-0.0442971,0.480075,0.928496,0.183654,0.168707,-0.234499,1.2921
0.190117,0.482751,1.15913,0.15928,0.178753,-0.110687,1.2921
0.322197,0.396454,1.25832,0.0940082,0.140908,0.000975847,1.2921
0.368535,0.280874,1.24422,0.0348598,0.0991613,0.0708249,1.2921
0.259381,0.0889807,1.17179,-0.000106655,0.0619678,0.120387,1.2921
0.105678,0.0105285,1.06798,-0.0395524,0.0465933,0.098121,1.2921
0.0153173,0.0596865,0.897219,-0.0954133,0.058695,0.0139614,1.2921
-0.0476593,0.097641,0.710953,-0.120124,0.078644,-0.0493416,1.2921
-0.0999065,0.0937229,0.645342,-0.0735925,0.115137,-0.0881302,1.2921
-0.0578575,0.094558,0.715318,-0.00849827,0.175433,-0.121802,1.2921
0.106482,0.0896312,0.913187,0.0482315,0.223441,-0.140817,1.2921
0.324773,0.130827,1.1137,0.0557128,0.236029,-0.125657,1.2921
0.416866,0.154089,1.18213,0.0146872,0.209475,-0.0444129,1.2921
0.365754,0.172483,1.17612,-0.0129996,0.16063,0.0650877,1.2921
0.219868,0.174093,1.14554,-0.0233097,0.135897,0.150267,1.2921
0.00852273,0.0764593,1.12506,-0.0113327,0.111135,0.207684,1.2921
-0.163558,0.029139,1.13173,0.00230686,0.0887908,0.200448,1.2921
-0.252239,-0.0118069,1.13043,-0.00928348,0.0876106,0.147307,1.2921
-0.259352,-0.0471373,1.12388,-0.00719619,0.0720837,0.0944585,1.2921
-0.286188,-0.137246,1.137,0.00687128,0.0543295,0.0755145,1.2921
-0.353582,-0.21172,1.18115,0.0293412,0.0387633,0.0572783,1.2921
-0.419989,-0.255932,1.21714,0.0317274,0.0342405,0.0168472,1.2921
-0.404519,-0.290724,1.24773,0.025468,0.0300768,-0.0496177,1.2921
-0.264347,-0.238216,1.25825,0.0136534,0.0180752,-0.12972,1.2921
-0.104736,-0.129007,1.28166,0.0168323,0.0239716,-0.156363,1.2921
0.0322365,0.0214787,1.29216,0.00459372,0.0134098,-0.14746,1.2921
0.105668,0.043569,1.28684,0.00798773,0.000702158,-0.0684899,1.2921
0.0957108,0.0232358,1.23837,0.00892957,-0.0234805,0.00915116,1.2921
0.0354175,0.0536557,1.14736,-0.00462577,-0.0418274,0.0481878,1.2921
-0.0291011,0.0843206,1.02414,-0.00356496,-0.0550938,0.0624546,1.2921
-0.013697,0.115739,0.894522,0.00637677,-0.0646465,0.0457409,1.2921
0.0532981,0.170922,0.834964,0.0496439,-0.0574664,0.0253922,1.2921
0.0927682,0.22372,0.850515,0.0861029,-0.0332769,0.0304762,1.2921
0.0747947,0.23579,0.862739,0.0950671,-0.0195292,0.0522302,1.2921
0.055462,0.261663,0.867097,0.0817955,-0.0114387,0.048977,1.2921
0.055462,0.261663,0.867097,0.0817955,-0.0114387,0.048977,1.42157
0.0481194,0.327377,0.854477,0.0622751,0.00387616,0.0365872,1.42157
0.0162974,0.395482,0.881683,0.0655603,0.0126574,0.0461774,1.42157
-0.0407065,0.421026,0.955095,0.0779986,0.0158588,0.0702037,1.42157
-0.0602222,0.384631,0.990177,0.0620217,0.00712015,0.0790781,1.42157
-0.0522111,0.355577,1.00695,0.0450026,-0.00990933,0.0718371,1.42157
-0.0788395,0.342086,1.06272,0.051277,-0.0147079,0.0737727,1.42157
-0.164818,0.301835,1.06355,0.0270561,-0.023908,0.0888542,1.42157
-0.285083,0.241698,1.02677,0.0100487,-0.0505098,0.0847645,1.42157
-0.404375,0.264482,0.967699,-0.011815,-0.0496621,0.0419648,1.42157
-0.464721,0.385357,0.938764,0.000356242,-0.0544123,-0.0165887,1.42157
-0.456009,0.463154,0.967069,0.033876,-0.0490403,-0.0502552,1.42157
-0.406889,0.403419,0.999703,0.052912,-0.0532881,-0.0549942,1.42157
-0.426473,0.251717,0.921811,0.0367132,-0.0781088,-0.041471,1.42157
-0.51448,0.259962,0.82162,0.017473,-0.0891117,-0.0762029,1.42157
-0.560457,0.376771,0.779784,0.0222197,-0.0774762,-0.145737,1.42157
-0.526098,0.551777,0.771751,0.0343617,-0.0626679,-0.203961,1.42157
-0.455238,0.621657,0.765338,0.0276311,-0.0483398,-0.228416,1.42157
-0.393814,0.620445,0.710646,0.00246657,-0.052858,-0.24419,1.42157
-0.290104,0.509686,0.645433,-0.0083105,-0.0455869,-0.256339,1.42157
-0.0808551,0.394478,0.580638,-0.00462835,-0.0412793,-0.297513,1.42157
0.0417107,0.458215,0.559888,-0.00374123,-0.0136425,-0.323098,1.42157
0.0375099,0.54066,0.55404,-0.0297295,0.0101031,-0.304513,1.42157
0.0143609,0.479978,0.422779,-0.0954914,0.028208,-0.285864,1.42157
-0.00737757,0.391994,0.167175,-0.162859,0.0416659,-0.308804,1.42157
-0.00753098,0.418367,0.0484444,-0.137285,0.0875788,-0.347592,1.42157
0.149991,0.573787,0.167397,-0.0674592,0.166945,-0.347514,1.42157
0.485675,0.778894,0.38678,-0.0281634,0.223932,-0.293038,1.42157
0.696263,0.868253,0.536163,-0.0506638,0.214786,-0.128845,1.42157
0.72137,0.82479,0.609184,-0.0798064,0.175722,0.0561413,1.42157
0.597193,0.637932,0.557455,-0.11315,0.134175,0.203028,1.42157
0.376759,0.360081,0.422659,-0.122901,0.091598,0.289068,1.42157
0.0706483,0.092801,0.185971,-0.127339,0.0662167,0.319523,1.42157
-0.229059,-0.0222493,-0.0874339,-0.10931,0.0534932,0.28808,1.42157
-0.416651,0.0145175,-0.248245,-0.0572567,0.0777017,0.198144,1.42157
-0.466464,0.149186,-0.19436,0.0256808,0.129171,0.119609,1.42157
-0.346355,0.360993,0.059377,0.108895,0.152352,0.0596336,1.42157
-0.156209,0.465165,0.343193,0.123905,0.163758,0.0629061,1.42157
-0.0775801,0.453369,0.490279,0.0810385,0.117238,0.119295,1.42157
-0.132027,0.287869,0.505385,0.00400998,0.056731,0.178833,1.42157
-0.0949616,0.12354,0.464255,-0.0325349,0.00194089,0.167,1.42157
-0.0038955,0.0157344,0.475472,-0.0186386,0.000696152,0.140023,1.42157
0.0114898,-0.00389397,0.536973,-0.0199786,0.020588,0.137185,1.42157
-0.0581733,-0.0752013,0.515854,-0.0648669,0.0143489,0.145698,1.42157
-0.0447742,-0.0434419,0.415699,-0.113145,-0.0122098,0.103763,1.42157
0.0107713,0.0781048,0.297831,-0.150062,0.00158226,0.0870134,1.42157
0.0687954,0.238586,0.255066,-0.136405,0.00684266,0.107535,1.42157
0.097704,0.33822,0.243334,-0.131397,0.0295833,0.176179,1.42157
0.0342367,0.372733,0.191244,-0.1323,0.0306288,0.271827,1.42157
-0.117323,0.34462,0.0993023,-0.135682,0.0209883,0.338465,1.42157
-0.312324,0.129434,-0.028969,-0.127247,0.00166178,0.373202,1.42157
-0.537595,-0.188843,-0.171148,-0.0921818,-0.0247706,0.354609,1.42157
-0.730148,-0.42554,-0.28803,-0.0533229,-0.035565,0.261599,1.42157
-0.833687,-0.61753,-0.410854,-0.0266612,-0.0439116,0.131394,1.42157
-1.00272,-0.777483,-0.540442,0.0199278,-0.0636006,0.0152813,1.42157
-1.00272,-0.777483,-0.540442,0.0199278,-0.0636006,0.0152813,1.51141
-1.2631,-0.583059,-0.616234,0.0577521,-0.074844,-0.124135,1.51141
-1.32229,-0.196162,-0.609106,0.0750073,-0.0760567,-0.317019,1.51141
-1.01455,0.0237111,-0.449374,0.1408,-0.0744288,-0.474407,1.51141
-0.42053,0.0948787,-0.131191,0.215609,-0.0635023,-0.542743,1.51141
0.0687878,0.0879381,0.179703,0.221086,-0.0600849,-0.470866,1.51141
0.196788,0.000743705,0.340713,0.160509,-0.113696,-0.290147,1.51141
0.153566,-0.0945686,0.329655,0.0668347,-0.190183,-0.185211,1.51141
-0.0215815,-0.370325,0.126234,-0.00447094,-0.240922,-0.11999,1.51141
-0.229738,-0.594754,-0.0922298,-0.03391,-0.25683,-0.142697,1.51141
-0.282125,-0.617152,-0.27466,-0.0605416,-0.205362,-0.265078,1.51141
-0.283898,-0.651875,-0.447567,-0.0404494,-0.148518,-0.352314,1.51141
-0.237725,-0.667524,-0.516572,0.00608735,-0.0912022,-0.418764,1.51141
-0.0624733,-0.667025,-0.489503,0.0481485,-0.00306246,-0.481908,1.51141
0.192224,-0.508897,-0.443785,0.04607,0.0707086,-0.517241,1.51141
0.428041,-0.261614,-0.391553,0.0334725,0.121953,-0.491822,1.51141
0.662748,-0.0113384,-0.305933,0.0310433,0.162233,-0.4003,1.51141
0.93664,0.186278,-0.187482,0.030513,0.192112,-0.267412,1.51141
1.18274,0.25812,-0.0970149,0.00154951,0.227383,-0.108258,1.51141
1.27891,0.241653,-0.0466675,-0.0282176,0.23947,0.0622523,1.51141
1.18208,0.103023,-0.03061,-0.0497771,0.238447,0.21101,1.51141
0.986925,-0.054202,-0.0609638,-0.0771932,0.226842,0.296552,1.51141
0.790891,-0.207057,-0.126892,-0.097268,0.216971,0.329878,1.51141
0.618758,-0.306136,-0.205087,-0.0890008,0.203302,0.336019,1.51141
0.470413,-0.305744,-0.281811,-0.0786331,0.18962,0.330116,1.51141
0.285801,-0.283702,-0.294746,-0.0325403,0.18061,0.339676,1.51141
0.10777,-0.254997,-0.201549,0.0129273,0.18811,0.343966,1.51141
-0.00396676,-0.265892,-0.108488,0.0254162,0.190212,0.332436,1.51141
-0.0816737,-0.323732,-0.0374837,0.0292072,0.158786,0.312908,1.51141
-0.132533,-0.418956,0.0287973,0.0322957,0.127975,0.287665,1.51141
-0.205361,-0.489782,0.0997062,0.0341754,0.101553,0.252725,1.51141
-0.233443,-0.521193,0.141254,0.0179218,0.0676033,0.183761,1.51141
-0.215628,-0.398192,0.091143,-0.00514629,0.0269425,0.1044,1.51141
-0.264724,-0.221965,0.0520739,-0.013878,0.00272663,0.0842796,1.51141
-0.298234,-0.128631,0.0908129,0.0226225,-0.0221807,0.0877371,1.51141
-0.304339,-0.147119,0.147175,0.0454683,-0.0322158,0.0967978,1.51141
-0.235499,-0.133524,0.23912,0.0490671,-0.0558312,0.0715625,1.51141
-0.145604,-0.156263,0.279717,0.0313461,-0.0689587,0.0618044,1.51141
-0.113745,-0.141091,0.282728,0.0115258,-0.0839637,0.0724738,1.51141
-0.176502,-0.0528705,0.278589,-0.00302671,-0.0860439,0.0865995,1.51141
-0.273046,0.0132875,0.243538,-0.0170933,-0.0919537,0.0978071,1.51141
-0.356762,-0.0399852,0.224177,-0.0092188,-0.0965022,0.112546,1.51141
-0.386372,-0.117602,0.235021,-0.000928462,-0.0843783,0.0906627,1.51141
-0.353636,-0.10676,0.262766,0.00163566,-0.0694011,0.0399606,1.51141
-0.332007,-0.0289957,0.265082,0.00455206,-0.085807,0.00382268,1.51141
-0.345159,0.0556775,0.249035,-0.00375406,-0.0994518,-0.0123302,1.51141
-0.329709,0.108666,0.238022,0.00019031,-0.102956,-0.0275784,1.51141
-0.276671,0.13745,0.279885,0.0227326,-0.104366,-0.0510097,1.51141
-0.212136,0.224889,0.283853,0.0139073,-0.115047,-0.0690385,1.51141
-0.126736,0.239021,0.243947,-0.00361392,-0.128446,-0.0829682,1.51141
-0.0753004,0.243062,0.156982,-0.00532864,-0.1419,-0.0966535,1.51141
-0.106159,0.377083,0.110218,-0.00486683,-0.126858,-0.120208,1.51141
-0.153727,0.320395,0.093078,-0.00371096,-0.0982712,-0.136393,1.51141
-0.0781331,0.210239,0.045196,0.00122573,-0.0999916,-0.206469,1.51141
0.0309155,0.245241,-0.0153671,0.00412546,-0.0910142,-0.276447,1.51141
0.0309155,0.245241,-0.0153671,0.00412546,-0.0910142,-0.276447,1.60388
0.0496091,0.430255,-0.123004,-0.0172542,-0.0863828,-0.320709,1.60388
-0.0672956,0.58093,-0.279558,-0.013245,-0.0971419,-0.302171,1.60388
-0.154542,0.572288,-0.387399,0.0135009,-0.0470966,-0.2791,1.60388
-0.217037,0.438579,-0.43475,0.0322952,0.0371498,-0.272521,1.60388
-0.316855,0.375968,-0.372011,0.0739683,0.0681038,-0.282098,1.60388
-0.362822,0.378341,-0.196946,0.0908087,0.0925175,-0.317595,1.60388
-0.198719,0.533166,0.0449873,0.0668131,0.0988193,-0.374577,1.60388
0.234649,0.822482,0.263318,0.00836106,0.0803079,-0.419127,1.60388
0.711814,0.964588,0.412037,-0.0537681,0.0625296,-0.350121,1.60388
1.0018,0.939444,0.504848,-0.108863,0.0422127,-0.175228,1.60388
1.1143,0.756885,0.46253,-0.168776,0.0265933,-0.0146667,1.60388
1.09637,0.585248,0.333607,-0.209926,0.0128315,0.0845626,1.60388
0.964011,0.463634,0.155404,-0.237212,0.0292813,0.150037,1.60388
0.79938,0.380188,-0.0410234,-0.244314,0.0542857,0.176729,1.60388
0.707645,0.35847,-0.242718,-0.235933,0.0801837,0.162027,1.60388
0.672024,0.347649,-0.371502,-0.180991,0.123263,0.159977,1.60388
0.627484,0.346375,-0.340255,-0.0918657,0.169095,0.182938,1.60388
0.552354,0.336985,-0.249805,-0.0256816,0.194097,0.220077,1.60388
0.47073,0.293987,-0.182691,0.0069879,0.180353,0.251063,1.60388
0.398,0.264619,-0.1775,0.000466049,0.156508,0.253371,1.60388
0.313031,0.283571,-0.138199,0.00979838,0.15262,0.258378,1.60388
0.251682,0.312018,-0.0271937,0.0457684,0.132596,0.258292,1.60388
0.214569,0.276019,0.0704113,0.051644,0.109507,0.264367,1.60388
0.172156,0.171965,0.130525,0.0495968,0.0768553,0.26523,1.60388
0.0691047,0.136753,0.0821632,-0.00454369,0.0541938,0.255096,1.60388
-0.111504,0.134657,0.00565111,-0.022874,0.0210738,0.244141,1.60388
-0.286806,0.128941,-0.0315564,-0.0174318,0.0106135,0.218841,1.60388
-0.339966,0.150379,-0.0306552,-0.0134435,0.0245733,0.159316,1.60388
-0.281816,0.1995,0.0260186,-0.00199541,0.0412912,0.111206,1.60388
-0.212968,0.16446,0.0992597,0.00253835,0.0308441,0.114139,1.60388
-0.204858,0.0951821,0.0965213,-0.0233623,-0.0128951,0.133304,1.60388
-0.244304,0.0311808,0.0389479,-0.0476009,-0.0592136,0.137833,1.60388
-0.331039,-0.0142751,-0.0236141,-0.0426844,-0.0783357,0.120249,1.60388
-0.501021,-0.126099,-0.135717,-0.0551525,-0.102676,0.109162,1.60388
-0.652303,-0.305404,-0.227704,-0.0235966,-0.138265,0.054266,1.60388
-0.696518,-0.515083,-0.281761,-0.0123473,-0.126975,-0.0501444,1.60388
-0.661503,-0.610343,-0.341159,-0.00277549,-0.137678,-0.184585,1.60388
-0.604072,-0.583463,-0.444205,-0.0040257,-0.167929,-0.297272,1.60388
-0.523411,-0.553274,-0.497561,0.0287243,-0.171225,-0.384632,1.60388
-0.372033,-0.592133,-0.440882,0.104792,-0.162885,-0.446886,1.60388
-0.180387,-0.632616,-0.294369,0.162626,-0.132756,-0.491816,1.60388
-0.0184133,-0.576052,-0.121691,0.191185,-0.115553,-0.519549,1.60388
0.129833,-0.470096,-0.038564,0.142937,-0.104991,-0.530673,1.60388
0.265068,-0.382534,-0.102948,0.0565206,-0.0943075,-0.512575,1.60388
0.353478,-0.322435,-0.152032,0.0293884,-0.0648321,-0.453154,1.60388
0.431172,-0.397894,-0.157351,0.0447549,-0.0283816,-0.372745,1.60388
0.544853,-0.331751,-0.162112,0.0319814,-0.00578514,-0.356187,1.60388
0.848347,-0.290384,-0.114902,-0.000770584,0.0379383,-0.363187,1.60388
1.26952,-0.118368,-0.109002,-0.0420734,0.090517,-0.333991,1.60388
1.4721,0.099493,-0.0791298,-0.0566425,0.14229,-0.174412,1.60388
1.38447,0.223892,-0.0253706,-0.0672828,0.172341,0.0248384,1.60388
1.22994,0.117627,0.00514424,-0.0918157,0.205548,0.16908,1.60388
1.10294,-0.180754,-0.00937599,-0.107021,0.211642,0.249106,1.60388
1.10294,-0.180754,-0.00937599,-0.107021,0.211642,0.249106,1.67787
1.00914,-0.390052,-0.0516543,-0.112665,0.202532,0.268263,1.67787
0.890745,-0.453774,-0.0914289,-0.0964345,0.195874,0.283758,1.67787
0.707829,-0.357866,-0.133065,-0.0629771,0.17202,0.311788,1.67787
0.498984,-0.31106,-0.111903,-0.0174007,0.159554,0.355824,1.67787
0.357537,-0.344979,-0.0712483,0.00956033,0.153819,0.376132,1.67787
0.232529,-0.451785,-0.0571605,0.00995129,0.147769,0.381553,1.67787
0.129349,-0.468652,-0.0741898,0.000850111,0.12825,0.352938,1.67787
0.0126011,-0.435171,-0.122871,-0.0231257,0.124163,0.315964,1.67787
-0.119982,-0.435421,-0.158039,-0.0264767,0.122835,0.283895,1.67787
-0.222403,-0.343915,-0.147384,-0.0193457,0.123696,0.229076,1.67787
-0.176236,-0.279173,-0.0593573,-0.00645588,0.113937,0.168386,1.67787
-0.0285696,-0.219552,-0.0168476,-0.00809231,0.0718727,0.118034,1.67787
0.016485,-0.155095,-0.0496802,-0.0325156,0.029073,0.123324,1.67787
-0.119628,-0.114954,-0.0763872,-0.0336327,-0.00350496,0.179157,1.67787
-0.329974,-0.152783,-0.102461,-0.0293234,-0.0219679,0.210524,1.67787
-0.413073,-0.222147,-0.0881731,-0.0324111,-0.0286843,0.160296,1.67787
-0.330274,-0.238414,-0.0329994,-0.0268988,-0.0393072,0.0719181,1.67787
-0.237275,-0.178965,0.0372993,-0.0356381,-0.052573,0.0236692,1.67787
-0.243287,-0.130171,0.0645633,-0.0488623,-0.0903077,0.0306615,1.67787
-0.312125,-0.159782,0.0478125,-0.0462151,-0.135284,0.0417868,1.67787
-0.354994,-0.189915,0.026083,-0.0401817,-0.161772,0.00666916,1.67787
-0.355542,-0.195087,-0.0420022,-0.0578569,-0.174242,-0.0586766,1.67787
-0.316335,-0.134042,-0.147256,-0.0633428,-0.204298,-0.135243,1.67787
-0.20022,0.0639159,-0.272063,-0.0578155,-0.217234,-0.233717,1.67787
-0.0215088,0.27723,-0.327369,-0.02236,-0.196534,-0.297664,1.67787
0.180651,0.41581,-0.276006,0.0599369,-0.173679,-0.318301,1.67787
0.256843,0.428471,-0.203374,0.102852,-0.130029,-0.262689,1.67787
0.113697,0.186195,-0.189315,0.122826,-0.121411,-0.185238,1.67787
-0.148102,0.0277052,-0.229568,0.117813,-0.128477,-0.204288,1.67787
-0.327839,0.0762429,-0.269999,0.0745794,-0.0844347,-0.325212,1.67787
-0.343738,0.176376,-0.267105,0.0817993,-0.0304777,-0.433674,1.67787
-0.192943,0.305949,-0.114384,0.133106,0.0301399,-0.4778,1.67787
-0.014252,0.398594,0.123337,0.166233,0.0869022,-0.445279,1.67787
0.271759,0.457561,0.412682,0.160844,0.122873,-0.379057,1.67787
0.664719,0.525317,0.616915,0.102527,0.13288,-0.26877,1.67787
1.0754,0.325011,0.745249,0.0540553,0.133924,-0.0876302,1.67787
1.25881,0.170485,0.742114,0.0309648,0.119248,0.102196,1.67787
0.952024,0.0780571,0.639738,-0.00695699,0.109674,0.284788,1.67787
0.354506,0.103156,0.446461,-0.0465363,0.0692919,0.381935,1.67787
-0.182093,0.245616,0.17603,-0.0910556,0.0628837,0.361125,1.67787
-0.39648,0.39119,-0.0168267,-0.107482,0.109683,0.246092,1.67787
-0.303003,0.36383,-0.0512685,-0.0440219,0.157546,0.160454,1.67787
-0.0827434,0.288322,0.0457689,0.0242071,0.195003,0.137624,1.67787
0.152536,0.299793,0.19509,0.0379428,0.220162,0.138013,1.67787
0.288607,0.324191,0.331004,0.0432309,0.211814,0.187932,1.67787
0.295469,0.298061,0.431079,0.0308077,0.188863,0.263742,1.67787
0.225889,0.249121,0.47354,-0.00373258,0.166911,0.311487,1.67787
0.109896,0.189336,0.427568,-0.0363762,0.133157,0.33358,1.67787
-0.0565603,0.121711,0.31455,-0.0520087,0.0940261,0.327723,1.67787
-0.312131,0.0155717,0.224145,-0.0462357,0.0859842,0.316956,1.67787
-0.544898,-0.0453197,0.156686,-0.0315266,0.0758984,0.261159,1.67787
-0.666887,-0.0752266,0.114075,-0.00864829,0.0760841,0.173678,1.67787
-0.67436,-0.0577911,0.132086,0.0232354,0.0756797,0.0909744,1.67787
-0.608651,-0.0597552,0.21703,0.047155,0.082468,0.0394192,1.67787
-0.608651,-0.0597552,0.21703,0.047155,0.082468,0.0394192,1.76772
-0.526483,-0.0778606,0.323401,0.0648834,0.0696784,0.0208603,1.76772
-0.514524,-0.0893511,0.375613,0.0502075,0.0289923,0.0340376,1.76772
-0.554573,-0.102687,0.342556,0.0153853,-0.0238166,0.0470121,1.76772
-0.612177,-0.0754536,0.281606,-0.00958243,-0.0639174,0.0408981,1.76772
-0.629094,-0.0291172,0.239756,-0.0189063,-0.0859743,0.0191098,1.76772
-0.630493,-0.0320081,0.196859,-0.0235314,-0.100297,0.0113661,1.76772
-0.669114,-0.0538755,0.115215,-0.035816,-0.116863,-0.000824749,1.76772
-0.674422,-0.113084,0.0380756,-0.0305464,-0.125522,-0.0258229,1.76772
-0.651565,-0.218148,0.0175859,0.013734,-0.123789,-0.0551777,1.76772
-0.663304,-0.290725,0.0616345,0.0546464,-0.122232,-0.097752,1.76772
-0.616894,-0.447524,0.0952016,0.0777562,-0.137031,-0.16503,1.76772
-0.513979,-0.552135,0.0747924,0.0843692,-0.154132,-0.256618,1.76772
-0.436234,-0.55124,0.0859949,0.108306,-0.172721,-0.338707,1.76772
-0.422742,-0.578205,0.0653501,0.136943,-0.215522,-0.414214,1.76772
-0.420867,-0.518305,0.0639069,0.165217,-0.270612,-0.509156,1.76772
-0.410254,-0.417068,0.0459499,0.138098,-0.285663,-0.600242,1.76772
-0.430813,-0.368416,-0.0210042,0.0852513,-0.279344,-0.663311,1.76772
-0.323504,-0.388362,-0.200956,-0.0155368,-0.200824,-0.737177,1.76772
0.317189,-0.158917,-0.282881,0.0245152,-0.0902864,-0.838991,1.76772
1.00684,0.112839,0.00757224,0.106602,0.130916,-0.706038,1.76772
1.38494,0.380891,0.288693,0.066729,0.251172,-0.441621,1.76772
1.57749,0.593122,0.41292,0.00598475,0.243767,-0.185745,1.76772
1.51269,0.745858,0.402911,-0.0786103,0.256816,0.0532724,1.76772
1.18879,0.725554,0.365119,-0.142829,0.252619,0.251849,1.76772
0.829448,0.434693,0.374045,-0.145081,0.214758,0.358504,1.76772
0.684188,0.0787475,0.385605,-0.14896,0.188803,0.346658,1.76772
0.805863,-0.0660903,0.328786,-0.196366,0.192815,0.265221,1.76772
0.935325,-0.0427638,0.236389,-0.217571,0.190023,0.246261,1.76772
0.88837,-0.114033,0.160731,-0.202751,0.182659,0.312672,1.76772
0.772853,-0.165008,0.0860531,-0.193971,0.19424,0.368038,1.76772
0.614862,-0.171168,-0.0479687,-0.208125,0.217558,0.400197,1.76772
0.41261,-0.190961,-0.262224,-0.220461,0.208106,0.419988,1.76772
0.105095,-0.216755,-0.440977,-0.170338,0.195197,0.437938,1.76772
-0.233286,-0.0409974,-0.467062,-0.106987,0.229523,0.400613,1.76772
-0.472455,0.141818,-0.367652,-0.0542239,0.255984,0.331508,1.76772
-0.464957,0.0850182,-0.182962,0.00988625,0.226795,0.250282,1.76772
-0.196143,-0.282432,-0.00637126,0.0270733,0.191313,0.18314,1.76772
0.13998,-0.63019,0.0732473,0.0434831,0.127011,0.133261,1.76772
0.165824,-0.58879,0.0758678,0.0324172,0.0626701,0.130137,1.76772
-0.202885,-0.316092,0.0647184,0.0311538,0.0180483,0.182591,1.76772
-0.63073,-0.0666212,0.0530058,0.0336733,-0.038995,0.17823,1.76772
-0.791565,0.0068439,0.0213532,0.012061,-0.0601157,0.0994481,1.76772
-0.69281,-0.0255244,-0.0271264,-0.0186659,-0.0667612,0.00823975,1.76772
-0.52894,-0.0424205,-0.0976691,-0.0341787,-0.0936609,-0.043241,1.76772
-0.475115,0.0586366,-0.137117,-0.0438548,-0.105198,-0.0386393,1.76772
-0.53498,0.236118,-0.141153,-0.0499902,-0.112818,-0.0128406,1.76772
-0.570502,0.299862,-0.15456,-0.0373734,-0.137728,-0.000134289,1.76772
-0.489539,0.211998,-0.118989,-0.0190419,-0.153738,-0.0178289,1.76772
-0.351318,0.0238489,-0.0874868,-0.000310145,-0.175458,-0.0583683,1.76772
-0.25892,-0.0896634,-0.0883379,-0.00554816,-0.193787,-0.112422,1.76772
-0.299908,-0.0887067,-0.123875,-0.020336,-0.20357,-0.164837,1.76772
-0.354308,-0.00521801,-0.182986,-0.0157441,-0.217811,-0.251408,1.76772
-0.316048,0.193329,-0.249149,-0.0280063,-0.199664,-0.372608,1.76772
-0.274929,0.385508,-0.297068,-0.0415621,-0.159408,-0.440896,1.76772
-0.274929,0.385508,-0.297068,-0.0415621,-0.159408,-0.440896,1.9104
-0.249805,0.535713,-0.319435,-0.0277963,-0.135545,-0.46598,1.9104
-0.207688,0.535592,-0.321644,-0.0011325,-0.118005,-0.459391,1.9104
-0.140627,0.402163,-0.291119,0.0371624,-0.103565,-0.433889,1.9104
-0.0350013,0.351803,-0.264098,0.0489881,-0.0815956,-0.426032,1.9104
0.0468895,0.415776,-0.227852,0.0352741,-0.0353995,-0.399289,1.9104
0.195706,0.536382,-0.14155,0.0340469,-0.0046297,-0.346313,1.9104
0.544916,0.63935,0.00251512,0.0415925,0.0295579,-0.277549,1.9104
0.933531,0.602026,0.174255,0.0295369,0.0874427,-0.131982,1.9104
1.18772,0.464857,0.268894,-0.0022988,0.101221,0.0419331,1.9104
1.19101,0.26,0.203786,-0.0633149,0.0946244,0.198568,1.9104
0.956977,0.127826,0.0342495,-0.110163,0.0859721,0.299147,1.9104
0.678384,-0.0626526,-0.100094,-0.12058,0.112471,0.339591,1.9104
0.529691,-0.187518,-0.24987,-0.111033,0.153707,0.297591,1.9104
0.410251,-0.0657011,-0.379861,-0.091601,0.182359,0.224075,1.9104
0.256331,0.21322,-0.408887,-0.0546818,0.214109,0.190656,1.9104
0.232058,0.358173,-0.350525,-0.0149108,0.237324,0.182939,1.9104
0.348554,0.349685,-0.278473,0.0145491,0.240796,0.185807,1.9104
0.431711,0.270435,-0.160665,0.0413207,0.250044,0.228793,1.9104
0.378589,0.219088,-0.0493898,0.0595429,0.248562,0.297629,1.9104
0.238366,0.186296,0.0120599,0.0668806,0.227998,0.348023,1.9104
0.00491524,0.137953,0.0482604,0.0622795,0.221503,0.383446,1.9104
-0.300606,0.0780367,0.0440238,0.0674014,0.192042,0.393476,1.9104
-0.577137,-0.0273189,0.0702947,0.0979774,0.149511,0.361408,1.9104
-0.760027,-0.146099,0.13592,0.115047,0.131519,0.285351,1.9104
-0.922263,-0.251672,0.165836,0.0990488,0.107662,0.196831,1.9104
-1.00473,-0.263248,0.129903,0.0710332,0.0546198,0.0856982,1.9104
-0.925953,-0.22027,0.0821296,0.0466846,0.0332043,-0.0427795,1.9104
-0.772884,-0.131333,0.158225,0.0716597,0.0367085,-0.115628,1.9104
-0.628809,0.00872866,0.328194,0.0943368,0.0323131,-0.132991,1.9104
-0.535365,0.0777468,0.429743,0.0619279,0.00344977,-0.10662,1.9104
-0.513319,0.0779629,0.447638,0.0168287,-0.0454841,-0.0498434,1.9104
-0.518282,0.0389939,0.448319,-0.0138004,-0.0828097,-0.0133218,1.9104
-0.54141,-0.0381601,0.407353,-0.0392772,-0.109911,0.010448,1.9104
-0.584408,-0.120217,0.334764,-0.0608168,-0.140203,0.0132971,1.9104
-0.633496,-0.203964,0.243678,-0.067702,-0.157612,0.00300413,1.9104
-0.676768,-0.276303,0.149661,-0.0580399,-0.17179,-0.0270777,1.9104
-0.649951,-0.358587,0.0823711,-0.0305283,-0.184996,-0.08657,1.9104
-0.554714,-0.467438,0.0767961,0.0158293,-0.182073,-0.152072,1.9104
-0.458959,-0.532992,0.0983584,0.050302,-0.188831,-0.220081,1.9104
-0.366575,-0.520683,0.106588,0.0691301,-0.207537,-0.283304,1.9104
-0.25399,-0.508572,0.106957,0.0984183,-0.227147,-0.333195,1.9104
-0.0937137,-0.388999,0.10981,0.119916,-0.232745,-0.404601,1.9104
-0.185624,-0.243187,0.0248574,0.0878911,-0.222928,-0.396672,1.9104
-0.359593,-0.19941,-0.109728,0.060299,-0.241578,-0.393864,1.9104
-0.228863,-0.317075,-0.284386,0.0441434,-0.208422,-0.459723,1.9104
0.0316717,-0.571927,-0.363307,0.0860346,-0.114465,-0.486397,1.9104
0.187044,-0.62121,-0.371339,0.100703,-0.0200656,-0.477489,1.9104
0.313972,-0.368388,-0.356448,0.0611151,0.0716349,-0.453861,1.9104
0.596631,0.0767614,-0.230814,0.0855301,0.124909,-0.408342,1.9104
0.918275,0.502027,0.0406444,0.121367,0.193416,-0.270104,1.9104
1.08672,0.784927,0.306173,0.0753873,0.250421,-0.0754814,1.9104
1.03531,0.768559,0.458577,-0.0287424,0.271143,0.115178,1.9104
0.862433,0.405535,0.445287,-0.140223,0.247374,0.243767,1.9104
0.706296,-0.178545,0.352812,-0.215258,0.230597,0.287211,1.9104
0.706296,-0.178545,0.352812,-0.215258,0.230597,0.287211,2.08215
0.667187,-0.427363,0.207702,-0.263392,0.217498,0.22189,2.08215
0.637343,-0.296539,0.0379915,-0.287277,0.204308,0.169427,2.08215
0.514871,-0.131157,-0.0668888,-0.256207,0.176279,0.195292,2.08215
0.440075,-0.0411932,-0.100559,-0.197143,0.16222,0.241478,2.08215
0.485255,-0.016129,-0.0857079,-0.157119,0.161264,0.271213,2.08215
0.55238,-0.0329222,-0.0957026,-0.153257,0.159636,0.319761,2.08215
0.539649,-0.05112,-0.168138,-0.162454,0.149376,0.370533,2.08215
0.408948,-0.112791,-0.276248,-0.154813,0.135411,0.426212,2.08215
0.15961,-0.207845,-0.381968,-0.137817,0.138317,0.468074,2.08215
-0.148793,-0.284794,-0.428326,-0.08637,0.128386,0.454888,2.08215
-0.398127,-0.298948,-0.433729,-0.0344196,0.111322,0.380906,2.08215
-0.526392,-0.279026,-0.423827,-0.0053168,0.0972286,0.269958,2.08215
-0.597562,-0.316928,-0.421752,0.0157659,0.0601934,0.193363,2.08215
-0.613748,-0.371683,-0.43425,0.0499561,0.0106556,0.116698,2.08215
-0.662273,-0.28625,-0.440829,0.0712703,-0.0193503,0.0591222,2.08215
-0.765516,-0.212266,-0.351463,0.115971,-0.0274636,0.0272275,2.08215
-0.869564,-0.140733,-0.2291,0.121074,-0.0370325,-0.00766635,2.08215
-0.76084,-0.0904061,-0.10961,0.101881,-0.0490508,-0.0848296,2.08215
-0.509429,-0.0914814,-0.00546299,0.106419,-0.0938347,-0.147707,2.08215
-0.31227,-0.00929794,0.0764502,0.0725432,-0.115346,-0.14966,2.08215
-0.266999,0.0988983,0.0593717,0.015125,-0.145434,-0.103388,2.08215
-0.304112,0.153504,0.0148481,-0.00878996,-0.173444,-0.0475329,2.08215
-0.303437,0.121728,-0.0122157,-0.0224996,-0.173422,-0.0305021,2.08215
-0.214616,0.069764,-0.00893704,-0.0180933,-0.17357,-0.0601702,2.08215
-0.116243,0.0649532,0.0210996,-0.0134857,-0.166138,-0.0970097,2.08215
-0.0439907,0.0924497,0.0606347,-0.0110197,-0.176468,-0.134541,2.08215
0.0485014,0.0654545,0.119452,-0.000151247,-0.18654,-0.175115,2.08215
0.199092,0.0721912,0.151778,-0.0143698,-0.178251,-0.242419,2.08215
0.317334,0.0463587,0.160721,-0.0254632,-0.174356,-0.280787,2.08215
0.386536,0.0242386,0.131765,-0.0381916,-0.171241,-0.305801,2.08215
0.315754,-0.0296419,0.0275878,-0.066245,-0.176799,-0.307489,2.08215
0.126692,-0.0898867,-0.0764342,-0.0525861,-0.171705,-0.306911,2.08215
-0.0506352,-0.110496,-0.154686,-0.0367643,-0.122832,-0.347148,2.08215
-0.178504,-0.133085,-0.19538,-0.00595923,-0.0615341,-0.376815,2.08215
-0.240345,-0.132099,-0.192088,0.0248805,-0.00973538,-0.38399,2.08215
-0.18709,-0.0646201,-0.152407,0.0529075,0.0259394,-0.389662,2.08215
-0.00435221,0.012794,-0.0676527,0.0586091,0.0743988,-0.351184,2.08215
0.370247,0.0373291,0.080301,0.078297,0.109586,-0.280988,2.08215
0.841038,0.155413,0.212746,0.0837264,0.14332,-0.17986,2.08215
1.10469,0.367012,0.278828,0.0627397,0.153667,-0.0188544,2.08215
0.99428,0.554975,0.257005,0.0339193,0.145312,0.192744,2.08215
0.596433,0.617948,0.149194,0.0115965,0.111747,0.370244,2.08215
0.239932,0.516376,0.00548399,-0.0182554,0.101256,0.437451,2.08215
0.106798,0.315834,-0.129662,-0.0290402,0.122962,0.415573,2.08215
0.140725,0.218342,-0.194215,-0.0223483,0.158047,0.352896,2.08215
0.251991,0.113159,-0.184447,0.00141338,0.184894,0.317635,2.08215
0.256109,0.197111,-0.181714,0.0249024,0.189613,0.31033,2.08215
0.0568481,0.449003,-0.110094,0.0416028,0.196869,0.32427,2.08215
-0.107089,0.53677,0.0403641,0.0664469,0.194897,0.326375,2.08215
-0.0639611,0.430848,0.172642,0.0715892,0.179406,0.28947,2.08215
0.0703782,0.274906,0.27898,0.0595411,0.15317,0.237269,2.08215
0.10981,0.118944,0.353029,0.0382958,0.135828,0.222544,2.08215
-0.0259385,-0.00745183,0.346137,0.00915843,0.0925943,0.227554,2.08215
-0.247551,-0.0875165,0.288756,-0.0172899,0.0514387,0.196697,2.08215
-0.247551,-0.0875165,0.288756,-0.0172899,0.0514387,0.196697,2.27504
-0.419325,-0.130966,0.182038,-0.0461864,0.0268759,0.111247,2.27504
-0.553238,-0.168541,0.04513,-0.0516016,0.00838724,0.0266319,2.27504
-0.597781,-0.145969,-0.0280164,-0.0254416,0.00686336,-0.0630453,2.27504
-0.510677,-0.0797632,-3.35928e-05,0.00110406,0.0303794,-0.151783,2.27504
-0.275551,-0.0416976,0.104601,0.0164787,0.0475011,-0.197274,2.27504
-0.0463833,-0.0324832,0.200291,0.0158763,0.0353119,-0.177183,2.27504
0.0295577,-0.0211391,0.229538,-0.0175554,0.00608507,-0.0968261,2.27504
-0.0141943,-0.0509006,0.184239,-0.0586828,-0.0367786,-0.00679535,2.27504
-0.0879417,-0.124961,0.0812558,-0.0766554,-0.0745465,0.0596853,2.27504
-0.180552,-0.186334,-0.0521713,-0.0835489,-0.0977466,0.0812066,2.27504
-0.274809,-0.219056,-0.203693,-0.0798784,-0.117929,0.0736822,2.27504
-0.344635,-0.256226,-0.319948,-0.0418578,-0.118768,0.0541422,2.27504
-0.348893,-0.294578,-0.354258,0.0157585,-0.105862,0.0131178,2.27504
-0.273361,-0.345275,-0.327789,0.0833168,-0.0895513,-0.0378121,2.27504
-0.201294,-0.430203,-0.257746,0.149053,-0.0817221,-0.0738742,2.27504
-0.171121,-0.507883,-0.156957,0.19844,-0.0837466,-0.114337,2.27504
-0.126926,-0.569378,-0.105305,0.219644,-0.102459,-0.177637,2.27504
-0.133125,-0.599908,-0.0560384,0.2191,-0.109986,-0.253762,2.27504
-0.0455306,-0.437575,-0.0454289,0.208582,-0.133186,-0.38477,2.27504
0.0708372,-0.230208,-0.0773384,0.192182,-0.133534,-0.474488,2.27504
0.0945374,-0.0341383,-0.0443423,0.182031,-0.114132,-0.486187,2.27504
0.111771,-0.0606584,-0.0106812,0.16725,-0.100607,-0.452216,2.27504
0.196545,-0.200183,-0.0748928,0.109724,-0.0717832,-0.421841,2.27504
0.248402,-0.185642,-0.170984,0.0629684,-0.024487,-0.391621,2.27504
0.197573,-0.0616346,-0.184551,0.0559439,0.0393898,-0.349096,2.27504
0.234465,0.147869,-0.0947532,0.0578907,0.102092,-0.301848,2.27504
0.414224,0.400014,0.0737729,0.0674558,0.139381,-0.251343,2.27504
0.65919,0.525476,0.278753,0.0488602,0.170817,-0.165029,2.27504
0.850372,0.407874,0.398365,-0.00723942,0.172059,-0.0298323,2.27504
0.896846,0.198462,0.415234,-0.0779028,0.165928,0.0883548,2.27504
0.811074,-0.0143633,0.406295,-0.142777,0.178676,0.168689,2.27504
0.732731,-0.107065,0.370877,-0.183015,0.182145,0.190573,2.27504
0.686734,-0.0406287,0.306081,-0.211344,0.184038,0.195529,2.27504
0.610168,0.013388,0.259188,-0.21159,0.193979,0.246992,2.27504
0.519165,0.00189179,0.261419,-0.175594,0.191013,0.325095,2.27504
0.394768,-0.0551422,0.257542,-0.157485,0.182626,0.395355,2.27504
0.293951,-0.146718,0.241911,-0.1399,0.155129,0.422141,2.27504
0.269484,-0.241612,0.222035,-0.104489,0.125761,0.413284,2.27504
0.281643,-0.30553,0.217845,-0.0710162,0.114817,0.387818,2.27504
0.222812,-0.376984,0.232607,-0.031909,0.0990402,0.371389,2.27504
0.0789144,-0.432469,0.216872,-0.00922279,0.0765588,0.346609,2.27504
-0.116711,-0.389881,0.196881,0.00486939,0.0626622,0.293286,2.27504
-0.300713,-0.308964,0.192017,0.0178272,0.0487006,0.216254,2.27504
-0.467455,-0.0023079,0.135897,0.00561151,0.0299681,0.112599,2.27504
-0.60538,0.153329,0.163764,0.022304,0.0208071,0.0521827,2.27504
-0.470915,0.102297,0.267057,0.0705385,0.0159932,-0.0247123,2.27504
-0.122471,-0.169433,0.355789,0.0906138,0.0328925,-0.0720876,2.27504
0.107615,-0.232761,0.424027,0.0994299,0.0135344,-0.0644541,2.27504
-0.00668457,-0.108002,0.479139,0.0771379,0.00500208,-0.0119901,2.27504
-0.196586,0.0712636,0.502037,0.04986,-0.0268637,0.0117732,2.27504
-0.235954,0.132399,0.477907,0.0202477,-0.0448223,-0.00891477,2.27504
-0.136578,0.124767,0.451125,-0.00277159,-0.0502635,-0.0433741,2.27504
-0.0152919,0.177437,0.413035,-0.01968,-0.061083,-0.0580528,2.27504
-0.0152919,0.177437,0.413035,-0.01968,-0.061083,-0.0580528,2.48378
-0.0146553,0.248402,0.365355,-0.040894,-0.0678699,-0.0121373,2.48378
-0.130678,0.280095,0.317266,-0.0461347,-0.0694488,0.0540246,2.48378
-0.232058,0.256752,0.301026,-0.0404327,-0.0653582,0.084457,2.48378
-0.21837,0.262938,0.33355,-0.0226418,-0.0576003,0.064387,2.48378
-0.149728,0.272974,0.392366,-0.0165626,-0.0515695,0.0478668,2.48378
-0.124149,0.234942,0.425354,-0.0310146,-0.0575456,0.0669037,2.48378
-0.13256,0.216262,0.406249,-0.0444989,-0.0786777,0.0719911,2.48378
-0.159477,0.218025,0.409442,-0.0445606,-0.0798657,0.0671471,2.48378
-0.213125,0.231499,0.428246,-0.02928,-0.0763017,0.065766,2.48378
-0.212771,0.287859,0.477481,-0.0239233,-0.0848531,0.0273832,2.48378
-0.0900832,0.330647,0.528909,-0.0198173,-0.0858715,-0.0152373,2.48378
0.352717,-0.217181,0.554245,0.0331437,-0.0502301,0.00745147,2.48378
0.203441,-0.297525,0.648813,0.0408709,-0.0708714,0.0596185,2.48378
-0.166019,0.109477,0.542657,-0.0743086,-0.0991178,0.0273817,2.48378
-0.465596,0.524576,0.436609,-0.0659018,-0.110903,-0.0206735,2.48378
-0.395863,0.59108,0.38019,-0.00361088,-0.0757009,-0.0362313,2.48378
-0.194433,0.347551,0.407496,0.0626672,-0.0885791,-0.0240496,2.48378
