rotationRate_x,rotationRate_y,rotationRate_z,acceleration_x,acceleration_y,acceleration_z,relativeAltitude
-0.0590653,-0.590431,0.8566,0.0941651,0.00583938,0.232376,0
-0.135171,-0.478149,0.723113,0.0650224,0.0186842,0.0528149,0
-0.045739,-0.279945,0.575588,0.0626054,0.0415396,-0.0719724,0
0.156849,-0.0168388,0.477664,0.0898395,0.0689684,-0.128822,0
0.388856,0.220486,0.49734,0.143992,0.112692,-0.0933967,0
0.596341,0.393882,0.578194,0.162897,0.151501,0.0122451,0
0.721699,0.484036,0.66128,0.145538,0.173808,0.145392,0
0.792419,0.541573,0.677771,0.102952,0.179876,0.260636,0
0.803622,0.488916,0.645575,0.0798599,0.192587,0.362933,0
0.746342,0.38745,0.606966,0.0745727,0.208505,0.42857,0
0.585931,0.198865,0.601497,0.0875944,0.231592,0.465317,0
0.352385,-0.021232,0.594477,0.070814,0.240491,0.442942,0
0.125871,-0.200862,0.486558,0.0314123,0.229536,0.338261,0
-0.0388701,-0.204714,0.324185,0.00132914,0.224862,0.191859,0
-0.250981,-0.12562,0.138384,-0.0204711,0.231767,0.077535,0
-0.5277,0.0445433,-0.0248503,-0.00871442,0.217834,-0.0112533,0
-0.702504,0.280353,-0.13242,0.0225581,0.199731,-0.116759,0
-0.679049,0.505772,-0.127104,0.0465348,0.194361,-0.190969,0
-0.527547,0.647175,-0.0639791,0.0583053,0.17801,-0.187447,0
-0.403988,0.728981,-0.0125957,0.0537114,0.143602,-0.0864014,0
-0.43224,0.743054,0.0459941,0.039957,0.107467,0.0549719,0
-0.48243,0.747224,0.114821,0.0219315,0.0684333,0.137175,0
-0.502382,0.625837,0.178798,0.00463416,0.0285043,0.198708,0
-0.531284,0.380026,0.247344,-0.00672112,-0.0054754,0.244988,0
-0.578273,0.1893,0.30193,-0.0249473,-0.036934,0.241445,0
-0.578273,0.1893,0.30193,-0.0249473,-0.036934,0.241445,0.110977
-0.645769,0.0435912,0.30352,-0.0482563,-0.063142,0.217205,0.110977
-0.741199,-0.100225,0.272662,-0.0449792,-0.0980895,0.194823,0.110977
-0.857735,-0.192825,0.231366,-0.0315891,-0.117714,0.149673,0.110977
-0.967259,-0.237035,0.238102,-0.014482,-0.119874,0.0710086,0.110977
-0.998576,-0.384222,0.307876,0.0239559,-0.138748,-0.0328311,0.110977
-0.946437,-0.588809,0.316758,0.000633288,-0.162001,-0.161217,0.110977
-0.926185,-0.791295,0.293296,-0.0199004,-0.181547,-0.295588,0.110977
-0.911681,-0.855795,0.224592,-0.0591068,-0.198823,-0.472286,0.110977
-0.771572,-0.747792,0.0975603,-0.100417,-0.212845,-0.676551,0.110977
-0.528674,-0.662438,-0.00164137,-0.109904,-0.19323,-0.780293,0.110977
-0.352062,-0.666763,-0.0625161,-0.113197,-0.159425,-0.776021,0.110977
-0.307499,-0.695331,-0.158532,-0.151956,-0.13109,-0.736641,0.110977
-0.271063,-0.65864,-0.342106,-0.195898,-0.125257,-0.733033,0.110977
-0.15958,-0.398022,-0.598702,-0.241714,-0.0772604,-0.734607,0.110977
0.0665962,0.0457351,-0.775189,-0.229694,-0.00586721,-0.685699,0.110977
0.466681,0.460296,-0.869711,-0.205933,0.073486,-0.547161,0.110977
0.890675,0.619875,-0.899451,-0.182253,0.135821,-0.294479,0.110977
1.17986,0.522705,-0.8562,-0.169355,0.194886,-0.0154303,0.110977
1.26501,0.254608,-0.828401,-0.181226,0.222591,0.227549,0.110977
1.09901,-0.123927,-0.916703,-0.209855,0.215036,0.408679,0.110977
0.74441,-0.481248,-1.16141,-0.253106,0.196934,0.488594,0.110977
0.336572,-0.646843,-1.5068,-0.253837,0.183441,0.472631,0.110977
0.0246641,-0.558673,-1.76913,-0.188525,0.217461,0.392847,0.110977
-0.0881319,-0.357884,-1.80654,-0.0732331,0.276299,0.316413,0.110977
0.0414104,-0.211967,-1.65003,0.0325196,0.29677,0.270103,0.110977
0.322141,-0.18635,-1.39478,0.101504,0.293249,0.277332,0.110977
0.57866,-0.387996,-1.12266,0.127954,0.279384,0.33775,0.110977
0.62598,-0.708638,-0.946827,0.106116,0.259492,0.413491,0.110977
0.516682,-0.885791,-0.878292,0.0997669,0.211026,0.411852,0.110977
0.378199,-0.860886,-0.868311,0.0981916,0.189627,0.351909,0.110977
0.246447,-0.767094,-0.85479,0.0934256,0.190949,0.291529,0.110977
0.144144,-0.780614,-0.793474,0.116338,0.175638,0.237226,0.110977
0.0840343,-0.837796,-0.75628,0.101448,0.147683,0.17117,0.110977
-0.0418051,-0.819951,-0.814177,0.0750466,0.108419,0.115063,0.110977
-0.339818,-0.6761,-0.942921,0.0470008,0.0842721,0.0894288,0.110977
-0.740053,-0.401254,-1.11228,0.0387643,0.0578742,0.0568877,0.110977
-1.05361,-0.217717,-1.21943,0.0845735,0.0439177,-0.00429499,0.110977
-1.13192,-0.0932619,-1.14299,0.148314,0.0481829,-0.0936162,0.110977
-0.965729,0.0427366,-0.961284,0.193304,0.040298,-0.176787,0.110977
-0.632007,0.145449,-0.684454,0.231339,0.0165122,-0.196965,0.110977
-0.347278,0.139696,-0.40619,0.226204,-0.0170263,-0.115651,0.110977
-0.214551,0.0910938,-0.222863,0.175168,-0.0722966,-0.00330949,0.110977
-0.175659,0.0650014,-0.165985,0.123494,-0.118624,0.0704322,0.110977
-0.192522,0.0295573,-0.155851,0.0921306,-0.139446,0.124417,0.110977
-0.278578,-0.0917614,-0.181314,0.0613511,-0.1567,0.159453,0.110977
-0.379844,-0.25485,-0.228876,0.0536867,-0.181863,0.145414,0.110977
-0.422259,-0.365224,-0.285576,0.0505617,-0.170825,0.0822018,0.110977
-0.452971,-0.340045,-0.28198,0.0443514,-0.130741,0.0196663,0.110977
-0.486032,-0.2434,-0.256362,0.0540024,-0.115741,-0.0318864,0.110977
-0.489789,-0.158875,-0.207154,0.0758161,-0.103537,-0.0713015,0.110977
-0.489789,-0.158875,-0.207154,0.0758161,-0.103537,-0.0713015,0.219315
-0.409469,-0.115327,-0.120612,0.0972804,-0.0990765,-0.115611,0.219315
-0.255886,-0.0979274,-0.0245523,0.111387,-0.0993652,-0.162261,0.219315
-0.114181,-0.025785,0.0758513,0.122099,-0.103251,-0.182089,0.219315
-0.0619329,0.0340007,0.13182,0.109566,-0.11628,-0.180967,0.219315
-0.0624876,0.111851,0.12884,0.0877197,-0.133076,-0.202184,0.219315
-0.056044,0.248754,0.0469971,0.0469066,-0.128694,-0.235453,0.219315
-0.117252,0.349693,-0.0662777,0.0512179,-0.140532,-0.229357,0.219315
-0.315667,0.384658,-0.158392,0.0778314,-0.143279,-0.205191,0.219315
-0.596364,0.455656,-0.264058,0.0609504,-0.139118,-0.231708,0.219315
-0.82857,0.525572,-0.432742,0.0399302,-0.148766,-0.31827,0.219315
-0.915351,0.542679,-0.549116,0.0879757,-0.150096,-0.398198,0.219315
-0.705246,0.640161,-0.470645,0.170102,-0.109161,-0.495312,0.219315
-0.192733,0.894747,-0.150085,0.226019,-0.0311074,-0.533918,0.219315
0.387854,1.21701,0.345323,0.238227,0.0302006,-0.425125,0.219315
0.73513,1.25415,0.778205,0.166195,0.0362262,-0.199268,0.219315
0.891152,1.06722,0.975475,0.0438672,0.00427943,-0.0262855,0.219315
0.850556,0.689551,0.997458,-0.0420516,-0.0110534,0.0826541,0.219315
0.720481,0.396408,0.976393,-0.0896907,-0.00922418,0.0986375,0.219315
0.637145,0.422913,0.905739,-0.166831,0.0159703,0.0306709,0.219315
0.59702,0.591259,0.735151,-0.239332,0.0404529,-0.0120734,0.219315
0.591605,0.739835,0.562524,-0.238018,0.0591852,0.0098049,0.219315
0.642154,0.858461,0.512819,-0.203804,0.110146,0.0639305,0.219315
0.725722,0.892337,0.564384,-0.181209,0.157956,0.137459,0.219315
0.803797,0.7708,0.682031,-0.157187,0.179205,0.222712,0.219315
0.858754,0.537901,0.811169,-0.159239,0.194909,0.302196,0.219315
0.878206,0.239447,0.872894,-0.191026,0.192124,0.354807,0.219315
0.856509,-0.0969781,0.862489,-0.212286,0.184123,0.385335,0.219315
0.746291,-0.371058,0.750087,-0.235533,0.172188,0.391765,0.219315
0.558687,-0.455031,0.563115,-0.246121,0.155766,0.361732,0.219315
0.304674,-0.451051,0.280941,-0.257585,0.152449,0.336266,0.219315
-0.0423195,-0.415894,-0.0414405,-0.225449,0.140435,0.316233,0.219315
-0.337758,-0.365998,-0.290014,-0.14418,0.130716,0.255421,0.219315
-0.451702,-0.304704,-0.418055,-0.065778,0.153129,0.16319,0.219315
-0.474617,-0.241352,-0.404247,0.0168175,0.167443,0.115376,0.219315
-0.45419,-0.17766,-0.336807,0.0656268,0.148958,0.0933209,0.219315
-0.455726,-0.160274,-0.315258,0.0888058,0.111905,0.106334,0.219315
-0.546493,-0.165296,-0.30019,0.107078,0.0738499,0.134337,0.219315
-0.668833,-0.185594,-0.29248,0.116611,0.0471023,0.132853,0.219315
-0.754907,-0.230034,-0.24749,0.139083,0.0286127,0.103429,0.219315
-0.859798,-0.308617,-0.169207,0.158158,0.0189234,0.0622523,0.219315
-0.954527,-0.387525,-0.0775356,0.159861,-0.00998068,-0.00615633,0.219315
-1.00648,-0.442354,-0.0275547,0.124771,-0.035682,-0.108094,0.219315
-1.01977,-0.411091,-0.0262136,0.0980269,-0.069781,-0.215183,0.219315
-0.95057,-0.282046,-0.0247709,0.099198,-0.0952385,-0.329586,0.219315
-0.801893,-0.11401,0.0406193,0.106586,-0.0861143,-0.408363,0.219315
-0.611513,-0.0333599,0.225314,0.130783,-0.0874078,-0.441613,0.219315
-0.441026,-0.105314,0.358204,0.10097,-0.120747,-0.444794,0.219315
-0.312263,-0.197057,0.408991,0.0390927,-0.143977,-0.451199,0.219315
-0.29542,-0.266378,0.384472,-0.0284158,-0.142204,-0.437919,0.219315
-0.364458,-0.318481,0.319005,-0.0787965,-0.141982,-0.439376,0.219315
-0.364458,-0.318481,0.319005,-0.0787965,-0.141982,-0.439376,0.388412
-0.443992,-0.452927,0.245125,-0.106761,-0.132057,-0.456027,0.388412
-0.439719,-0.532291,0.165578,-0.136357,-0.128873,-0.523474,0.388412
-0.334545,-0.41348,0.0255145,-0.199401,-0.12162,-0.596675,0.388412
-0.0322711,-0.0212642,-0.163091,-0.225425,-0.115429,-0.638022,0.388412
0.4586,0.430483,-0.289169,-0.189347,-0.0777303,-0.550714,0.388412
0.85116,0.663461,-0.287568,-0.161878,-0.0112259,-0.308676,0.388412
1.10408,0.615273,-0.214244,-0.178291,0.0465418,-0.0675774,0.388412
1.26355,0.288435,-0.19087,-0.226838,0.0738937,0.107212,0.388412
1.31384,-0.139262,-0.319307,-0.307467,0.0828912,0.213254,0.388412
1.19006,-0.473717,-0.648379,-0.376556,0.0995882,0.275094,0.388412
0.914456,-0.542423,-1.06095,-0.384689,0.133606,0.286857,0.388412
0.671703,-0.317658,-1.36686,-0.305198,0.194053,0.251516,0.388412
0.576996,-0.023787,-1.45745,-0.192826,0.267325,0.232892,0.388412
0.655958,0.123276,-1.3636,-0.0905557,0.311017,0.257332,0.388412
0.847506,0.0470495,-1.17846,-0.018738,0.322711,0.310778,0.388412
1.03393,-0.174318,-0.965906,0.00703308,0.327818,0.378089,0.388412
1.14504,-0.420675,-0.807743,-1.9215e-05,0.32574,0.437407,0.388412
1.08654,-0.62588,-0.752248,-0.00732108,0.305351,0.482828,0.388412
0.878945,-0.682393,-0.736717,0.00209395,0.288499,0.490855,0.388412
0.595827,-0.702372,-0.733192,0.00214181,0.27711,0.458154,0.388412
0.368834,-0.687014,-0.78733,-0.00999283,0.248527,0.380836,0.388412
0.163739,-0.712537,-0.921202,-0.0119436,0.207789,0.325914,0.388412
-0.135708,-0.734428,-1.06103,0.00828372,0.162796,0.285039,0.388412
-0.531667,-0.693614,-1.15554,0.041773,0.13605,0.224612,0.388412
-0.88827,-0.55471,-1.19034,0.0619744,0.10814,0.115123,0.388412
-1.09478,-0.383619,-1.1765,0.0607377,0.0823117,-0.0197322,0.388412
-1.12022,-0.221766,-1.14092,0.0552645,0.0506939,-0.146288,0.388412
-0.892521,-0.0832522,-1.03677,0.0780125,0.013294,-0.251754,0.388412
-0.480631,0.0096531,-0.800838,0.113343,0.0047693,-0.274832,0.388412
-0.100007,0.0847278,-0.518273,0.0939171,-0.01647,-0.188834,0.388412
0.0158808,0.0305515,-0.36929,0.023644,-0.0723076,-0.0208858,0.388412
-0.0637219,-0.0359687,-0.385512,-0.0457423,-0.134838,0.0970027,0.388412
-0.212807,-0.0713475,-0.522709,-0.0940201,-0.168927,0.152453,0.388412
-0.327785,-0.0758191,-0.709812,-0.103115,-0.18228,0.157548,0.388412
-0.35595,-0.0817563,-0.847291,-0.0608681,-0.172242,0.140771,0.388412
-0.380703,-0.130962,-0.875849,-0.00520639,-0.138764,0.146483,0.388412
-0.430768,-0.19403,-0.80724,0.0490497,-0.126658,0.1502,0.388412
-0.457353,-0.264737,-0.691557,0.0874967,-0.129674,0.129264,0.388412
-0.419408,-0.312328,-0.579648,0.0988617,-0.134244,0.0862479,0.388412
-0.359964,-0.327507,-0.489179,0.0945193,-0.139467,0.0466771,0.388412
-0.342137,-0.315396,-0.407385,0.109413,-0.157506,0.0270165,0.388412
-0.35869,-0.2312,-0.329638,0.127957,-0.17035,-0.00761467,0.388412
-0.383253,-0.0774629,-0.244315,0.1417,-0.178611,-0.0594805,0.388412
-0.400414,0.00636395,-0.158317,0.157027,-0.198275,-0.118754,0.388412
-0.44984,-0.10141,-0.0415892,0.176283,-0.200228,-0.194063,0.388412
-0.51134,-0.32981,0.096956,0.195838,-0.193284,-0.311674,0.388412
-0.516788,-0.318536,0.199309,0.188447,-0.183824,-0.495743,0.388412
-0.40153,-0.00838232,0.259849,0.167339,-0.171485,-0.656539,0.388412
-0.145883,0.389854,0.339819,0.190689,-0.158077,-0.705046,0.388412
-0.0460821,0.702511,0.437754,0.228231,-0.148004,-0.586266,0.388412
-0.262511,0.79009,0.54788,0.228652,-0.134973,-0.40176,0.388412
-0.262511,0.79009,0.54788,0.228652,-0.134973,-0.40176,0.57074
-0.484563,0.624619,0.664755,0.222119,-0.123152,-0.341862,0.57074
-0.349934,0.574883,0.800219,0.20562,-0.0775284,-0.402854,0.57074
0.077654,0.674832,1.01658,0.214918,-0.0145164,-0.385414,0.57074
0.535826,0.910858,1.28301,0.22038,0.0528354,-0.250516,0.57074
0.717703,1.10238,1.57537,0.214881,0.107334,-0.00782388,0.57074
0.603167,1.00416,1.85485,0.190265,0.132441,0.206194,0.57074
0.429305,0.52123,2.06238,0.163812,0.117488,0.301278,0.57074
0.376244,-0.0734586,2.16783,0.124414,0.122193,0.265202,0.57074
0.443207,-0.283406,2.17224,0.0658481,0.154424,0.152416,0.57074
0.518922,-0.121294,2.08381,0.0395224,0.156024,0.080098,0.57074
0.60465,0.237583,2.00247,0.048335,0.177052,0.0672527,0.57074
0.677536,0.509698,1.94898,0.0632503,0.192566,0.137261,0.57074
0.674282,0.536365,1.94342,0.0877435,0.190436,0.257934,0.57074
0.640399,0.462713,1.89436,0.0742621,0.173419,0.338182,0.57074
0.60826,0.351052,1.74811,0.0407405,0.14641,0.36919,0.57074
0.637267,0.330874,1.5389,0.0327536,0.122881,0.344129,0.57074
0.617597,0.414355,1.31221,0.043392,0.130139,0.342701,0.57074
0.452645,0.512957,1.12676,0.0780365,0.124509,0.361848,0.57074
0.185091,0.486655,1.01378,0.125085,0.121367,0.356756,0.57074
-0.0353095,0.340701,0.928922,0.139369,0.117658,0.285118,0.57074
-0.189437,0.154301,0.823876,0.131416,0.103062,0.155123,0.57074
-0.22871,0.0862059,0.744183,0.144723,0.0888186,-0.00985426,0.57074
-0.134626,0.206193,0.720129,0.161045,0.0976977,-0.148982,0.57074
-0.0182948,0.431266,0.772034,0.164156,0.117687,-0.218111,0.57074
0.0456818,0.721473,0.858378,0.142471,0.122821,-0.229674,0.57074
0.00103622,0.859669,0.872971,0.0878343,0.0928128,-0.185925,0.57074
-0.0738333,0.866847,0.806584,0.0405462,0.0545582,-0.147183,0.57074
-0.111999,0.808355,0.746648,0.0199246,0.0601474,-0.12478,0.57074
-0.135523,0.795931,0.759222,0.0243562,0.0804901,-0.106042,0.57074
-0.20289,0.822997,0.830234,0.0381314,0.0843003,-0.0889524,0.57074
-0.298651,0.774971,0.966055,0.027559,0.0980681,-0.0823483,0.57074
-0.352077,0.586368,1.0517,-0.0100897,0.0780175,-0.0941558,0.57074
-0.448434,0.284037,1.04309,-0.0400358,0.0428873,-0.113074,0.57074
-0.607373,0.00213313,1.01101,-0.0484734,0.0210211,-0.160702,0.57074
-0.712708,-0.135535,1.04625,-0.0329644,0.0212695,-0.252421,0.57074
-0.711083,-0.148862,1.11101,-0.0365521,0.0180197,-0.338092,0.57074
-0.630509,-0.152758,1.15088,-0.0419951,-0.0156145,-0.381744,0.57074
-0.473485,-0.101931,1.15527,-0.0706379,-0.0303513,-0.388053,0.57074
-0.406176,-0.108645,1.1121,-0.103655,-0.0549869,-0.333744,0.57074
-0.301053,-0.0588878,1.01359,-0.113519,-0.0928179,-0.31184,0.57074
-0.0330029,-0.0129343,0.954677,-0.0949753,-0.0760436,-0.288092,0.57074
0.33347,0.0281598,1.01582,-0.0499121,-0.0257334,-0.215851,0.57074
0.666977,0.191376,1.12431,-0.038338,0.0228708,-0.100291,0.57074
0.842187,0.364391,1.18403,-0.040523,0.0433908,0.0546532,0.57074
0.831088,0.328513,1.22328,-0.0362078,0.0492424,0.200693,0.57074
0.656673,-0.0453374,1.22529,-0.0170053,0.0416061,0.300736,0.57074
0.411394,-0.609794,1.11631,-0.00817192,0.0140459,0.303631,0.57074
0.269874,-0.920565,0.901952,-0.0248905,0.0114331,0.175567,0.57074
0.154381,-0.918802,0.701527,-0.00909303,0.0443328,0.0475,0.57074
0.106096,-0.691222,0.553363,0.0388689,0.0661569,-0.0695009,0.57074
0.177021,-0.424043,0.469989,0.107241,0.0949664,-0.15304,0.57074
0.376037,-0.147462,0.538038,0.189323,0.140037,-0.183554,0.57074
0.661414,0.10758,0.726969,0.240645,0.199199,-0.144007,0.57074
0.880657,0.269088,0.929882,0.252399,0.228259,-0.0168326,0.57074
0.923915,0.327234,1.04743,0.21833,0.230594,0.133105,0.57074
0.888847,0.446114,1.06152,0.165204,0.226285,0.224685,0.57074
0.793644,0.526866,1.01711,0.141781,0.223432,0.298533,0.57074
0.615248,0.571992,0.97637,0.14491,0.225519,0.354531,0.57074
0.364439,0.589498,0.968106,0.157846,0.226079,0.383182,0.57074
0.048765,0.64768,0.959243,0.154465,0.226055,0.379966,0.57074
-0.182182,0.659429,0.971218,0.145451,0.217313,0.318817,0.57074
-0.225153,0.54044,1.01053,0.160374,0.212281,0.231791,0.57074
-0.209029,0.518482,1.07595,0.149792,0.212075,0.162046,0.57074
-0.296666,0.634738,1.12624,0.101222,0.198525,0.130522,0.57074
-0.476654,0.702446,1.13182,0.0501843,0.173392,0.117326,0.57074
-0.639335,0.710855,1.09533,-0.000274092,0.134191,0.0697557,0.57074
-0.7186,0.719575,1.0704,-0.0427828,0.110012,-0.00578868,0.57074
-0.710343,0.770683,1.10477,-0.0732682,0.0942545,-0.0758871,0.57074
-0.633763,0.790902,1.14574,-0.123387,0.0663269,-0.118422,0.57074
-0.510883,0.761826,1.15358,-0.175086,0.0225481,-0.138045,0.57074
-0.400914,0.76959,1.10527,-0.23113,-0.0133131,-0.136584,0.57074
-0.371454,0.787934,1.02359,-0.290408,-0.0436723,-0.0983052,0.57074
-0.325526,0.846327,0.879513,-0.340141,-0.0716395,-0.0714079,0.57074
-0.27252,0.840785,0.717192,-0.351757,-0.0863012,-0.0269668,0.57074
-0.228324,0.785509,0.568407,-0.342775,-0.100187,0.026392,0.57074
-0.20818,0.683295,0.440967,-0.317902,-0.0952771,0.0750298,0.57074
-0.20818,0.683295,0.440967,-0.317902,-0.0952771,0.0750298,0.742493
-0.229151,0.554822,0.340449,-0.276734,-0.0903857,0.11293,0.742493
-0.264848,0.369395,0.290733,-0.218398,-0.0810422,0.130958,0.742493
-0.264986,0.202746,0.288809,-0.159692,-0.0631101,0.107087,0.742493
-0.213649,0.144239,0.322349,-0.10767,-0.0471302,0.0629815,0.742493
-0.152487,0.144929,0.373439,-0.0536965,-0.0520357,0.0241413,0.742493
-0.120225,0.186265,0.45076,-0.0193886,-0.0467508,0.000360131,0.742493
-0.11987,0.156551,0.560761,0.00767022,-0.0436961,-0.0144736,0.742493
-0.0643439,0.0630688,0.647099,0.00769817,-0.053198,-0.0651046,0.742493
0.0578392,0.0487274,0.685648,-0.0182144,-0.0495525,-0.125929,0.742493
0.135008,0.157843,0.663435,-0.0650327,-0.0455925,-0.156254,0.742493
0.140504,0.381116,0.572419,-0.112753,-0.0566303,-0.157548,0.742493
0.109583,0.566609,0.440433,-0.147998,-0.0669071,-0.125323,0.742493
0.0747076,0.555297,0.32099,-0.156715,-0.0674255,-0.0784775,0.742493
0.0485068,0.405861,0.221585,-0.156324,-0.0666676,-0.0548285,0.742493
0.0826569,0.291142,0.118324,-0.152212,-0.0689595,-0.0861964,0.742493
0.172377,0.29559,0.0675231,-0.132666,-0.0503708,-0.13015,0.742493
0.280833,0.293495,0.102904,-0.108261,-0.0215533,-0.13891,0.742493
0.386097,0.178133,0.161683,-0.102683,-0.011791,-0.115866,0.742493
0.45954,-0.0162253,0.157149,-0.129609,-0.0116424,-0.0834255,0.742493
0.444899,-0.143842,0.0664972,-0.154195,-0.0127999,-0.0516893,0.742493
0.361872,-0.168573,-0.0623587,-0.156642,-0.00389317,-0.0241796,0.742493
0.308476,-0.06817,-0.214127,-0.164717,0.00305945,-0.0262595,0.742493
0.254274,-0.0936584,-0.351903,-0.12926,0.0216484,0.0196795,0.742493
0.194489,-0.150783,-0.415476,-0.0698096,0.038384,0.0675551,0.742493
0.143805,-0.198106,-0.423498,-0.0197695,0.0633152,0.112903,0.742493
0.0782458,-0.238237,-0.403383,0.023191,0.067261,0.16335,0.742493
-0.0279317,-0.30283,-0.391159,0.0657445,0.0608115,0.200398,0.742493
-0.115883,-0.3172,-0.340167,0.110421,0.0619273,0.203262,0.742493
-0.185106,-0.269576,-0.273855,0.140796,0.0655218,0.194533,0.742493
-0.243508,-0.252195,-0.195435,0.188559,0.0496882,0.188575,0.742493
-0.251371,-0.230102,-0.0711232,0.23564,0.0413623,0.166898,0.742493
-0.284543,-0.0445594,0.0119237,0.249696,0.022432,0.138792,0.742493
-0.399105,0.201874,0.104208,0.265166,-0.00240809,0.14302,0.742493
-0.563771,0.283939,0.164569,0.277282,-0.0380664,0.157774,0.742493
-0.68283,0.248507,0.214112,0.282749,-0.074146,0.127653,0.742493
-0.704983,0.113943,0.249596,0.27434,-0.0963284,0.0665294,0.742493
-0.659975,-0.112794,0.271249,0.284555,-0.119358,0.00839937,0.742493
-0.601924,-0.378302,0.335308,0.337358,-0.139014,-0.0359205,0.742493
-0.582832,-0.338119,0.423131,0.333102,-0.105994,-0.113428,0.742493
-0.582386,-0.0425629,0.538864,0.334836,-0.112883,-0.179673,0.742493
-0.463663,0.315346,0.647269,0.308368,-0.105925,-0.22861,0.742493
-0.239258,0.524474,0.757872,0.279223,-0.110915,-0.209374,0.742493
-0.0389156,0.498952,0.860625,0.259863,-0.119196,-0.119193,0.742493
0.0515862,0.377649,0.956768,0.227044,-0.118209,-0.0265232,0.742493
0.0778091,0.32073,1.01959,0.16958,-0.111107,0.0114959,0.742493
0.101823,0.316193,1.02844,0.111244,-0.109999,0.024814,0.742493
0.151561,0.285694,1.01031,0.0647325,-0.103513,0.0441713,0.742493
0.213917,0.209907,1.00611,0.0427401,-0.0896854,0.0591877,0.742493
0.262897,0.168729,1.00169,0.0123025,-0.0730055,0.0666538,0.742493
0.260521,0.129623,0.96309,-0.0187547,-0.0741609,0.0842703,0.742493
0.211825,0.0683068,0.8801,-0.0463194,-0.0854404,0.098852,0.742493
0.179043,-0.00381076,0.765011,-0.0688862,-0.0853168,0.0870995,0.742493
0.207707,-0.0294399,0.625237,-0.0702311,-0.0885582,0.0630144,0.742493
0.207707,-0.0294399,0.625237,-0.0702311,-0.0885582,0.0630144,0.824402
0.195609,-0.0445801,0.531137,-0.0344103,-0.0705331,0.0698483,0.824402
0.0535851,0.0476644,0.520948,-0.0172165,-0.0488685,0.0794651,0.824402
-0.0987838,0.0625238,0.517965,-0.0195593,-0.0556477,0.0658529,0.824402
-0.118306,-0.0953727,0.469975,-0.0262458,-0.0738207,0.0194688,0.824402
-0.0768371,-0.307573,0.45022,-0.0131675,-0.0627788,-0.01412,0.824402
-0.101708,-0.375693,0.467391,0.00964622,-0.0533621,-0.0232223,0.824402
-0.269815,-0.265823,0.483838,0.00618734,-0.0479988,-0.0144144,0.824402
-0.545565,-0.113996,0.418399,-0.00854901,-0.0669526,-0.00762254,0.824402
-0.782538,0.0238712,0.299722,-0.0221216,-0.0826873,-0.0375867,0.824402
-0.845346,-0.00883791,0.268643,0.0249975,-0.0769816,-0.0866565,0.824402
-0.707432,-0.110014,0.371421,0.0906618,-0.0562934,-0.148808,0.824402
-0.537487,-0.161408,0.546935,0.123646,-0.0415919,-0.171264,0.824402
-0.420415,-0.0824975,0.691731,0.110033,-0.0471581,-0.183363,0.824402
-0.292023,0.0561183,0.766294,0.0603618,-0.0481425,-0.199681,0.824402
-0.0631965,0.176814,0.761527,0.00772832,-0.038833,-0.205183,0.824402
0.218245,0.288071,0.73111,-0.0369699,-0.0247675,-0.165939,0.824402
0.375985,0.260803,0.676132,-0.070623,-0.00792834,-0.06104,0.824402
0.373775,0.0187102,0.605952,-0.105638,0.00628975,0.0186144,0.824402
0.376198,-0.292607,0.494254,-0.129736,0.0204418,0.0140186,0.824402
0.400757,-0.410537,0.290744,-0.181666,0.0490301,-0.0387919,0.824402
0.388391,-0.294906,0.052364,-0.206228,0.0793238,-0.0790278,0.824402
0.396585,-0.0696512,-0.154554,-0.184795,0.11285,-0.0830911,0.824402
0.421714,0.0961998,-0.257548,-0.130102,0.159777,-0.0274543,0.824402
0.396163,0.165532,-0.252312,-0.0872562,0.192296,0.0662615,0.824402
0.344125,0.109299,-0.247761,-0.0680809,0.184592,0.144562,0.824402
0.311001,-0.0068041,-0.279089,-0.05734,0.152804,0.186447,0.824402
0.294597,-0.064544,-0.295106,-0.0435038,0.1409,0.201163,0.824402
0.243103,-0.108303,-0.254157,-0.0266631,0.135447,0.222498,0.824402
0.0934952,-0.172633,-0.186114,-0.0387799,0.125708,0.246127,0.824402
-0.0541907,-0.209984,-0.145328,-0.0707494,0.0820067,0.214325,0.824402
-0.151584,-0.219557,-0.194801,-0.105533,0.0302037,0.167482,0.824402
-0.207346,-0.326961,-0.312558,-0.109554,-0.038714,0.104576,0.824402
-0.282264,-0.480047,-0.441177,-0.0587115,-0.0912343,0.0458354,0.824402
-0.421553,-0.603571,-0.428901,0.0295786,-0.103282,-0.0277498,0.824402
-0.490825,-0.456767,-0.346154,0.0833349,-0.118511,-0.162297,0.824402
-0.501183,-0.144812,-0.303344,0.0894778,-0.145944,-0.293417,0.824402
-0.451402,0.137065,-0.244608,0.116356,-0.172577,-0.389778,0.824402
-0.308656,0.308654,-0.174078,0.122022,-0.168419,-0.453536,0.824402
-0.0992502,0.52323,-0.121209,0.119029,-0.162995,-0.493613,0.824402
0.0380919,0.706191,-0.0778015,0.126831,-0.161128,-0.44583,0.824402
0.0127186,0.823222,-0.0479312,0.114781,-0.145539,-0.332768,0.824402
-0.141646,0.790801,-0.0515192,0.101406,-0.133401,-0.227745,0.824402
-0.221303,0.762396,-0.0739056,0.0829965,-0.103832,-0.212534,0.824402
0.0399774,0.814586,0.0334715,0.114008,-0.044686,-0.229301,0.824402
0.459656,0.871583,0.246612,0.157769,0.0116087,-0.132594,0.824402
0.673106,0.857042,0.48856,0.174231,0.0254768,0.0633524,0.824402
0.563094,0.489654,0.677951,0.177787,0.0171609,0.24848,0.824402
0.303842,-0.0499935,0.767175,0.165643,-0.0192558,0.288282,0.824402
0.103598,-0.390787,0.616038,0.0787445,-0.0505296,0.163566,0.824402
0.0264953,-0.441965,0.359093,0.00834268,-0.0332301,-0.0218193,0.824402
0.180958,-0.322505,0.183907,0.0263862,0.00767016,-0.17222,0.824402
0.520497,0.0716876,0.102425,0.063136,0.0760298,-0.238317,0.824402
0.746094,0.556718,0.165944,0.0831062,0.153049,-0.116739,0.824402
0.730682,0.827943,0.239611,0.0841649,0.172735,0.108913,0.824402
0.730682,0.827943,0.239611,0.0841649,0.172735,0.108913,0.98822
0.640049,0.862691,0.28309,0.0613928,0.171618,0.275189,0.98822
0.538046,0.715424,0.300057,0.0325946,0.179316,0.379939,0.98822
0.440204,0.4759,0.305345,0.0333087,0.175099,0.425477,0.98822
0.390032,0.292607,0.315249,0.0479276,0.182806,0.415859,0.98822
0.326296,0.177693,0.389602,0.0773745,0.213432,0.396391,0.98822
0.199283,0.0563512,0.562968,0.123739,0.233711,0.382838,0.98822
0.0906178,-0.14009,0.750245,0.138901,0.228599,0.331819,0.98822
-0.00139256,-0.385475,0.830332,0.121398,0.19782,0.251315,0.98822
-0.0681121,-0.554027,0.848236,0.101274,0.168504,0.136048,0.98822
-0.171058,-0.623919,0.809658,0.102063,0.155079,0.0321885,0.98822
-0.318772,-0.494265,0.812605,0.107638,0.15979,-0.0649871,0.98822
-0.511159,-0.345653,0.82355,0.088086,0.163201,-0.139918,0.98822
-0.5769,-0.250036,0.783052,0.0667748,0.122755,-0.23107,0.98822
-0.499963,-0.0924531,0.680001,0.0514555,0.0854864,-0.308385,0.98822
-0.498523,-0.0418195,0.632295,0.0699987,0.0810345,-0.265939,0.98822
-0.642235,-0.213928,0.617457,0.0805706,0.0614597,-0.208437,0.98822
-0.740094,-0.400155,0.559592,0.0540653,0.0381245,-0.25719,0.98822
-0.865244,-0.444378,0.51003,0.0453632,0.0328626,-0.308842,0.98822
-1.07437,-0.418349,0.512345,0.0253684,0.0223871,-0.331989,0.98822
-1.26479,-0.522928,0.409367,-0.0567016,-0.00840741,-0.377417,0.98822
-1.30511,-0.590284,0.1915,-0.116812,-0.0700535,-0.487571,0.98822
-1.1558,-0.395751,-0.0116996,-0.127546,-0.0825818,-0.584124,0.98822
-0.801989,0.0363999,-0.0578004,-0.108481,-0.0595918,-0.620288,0.98822
-0.30083,0.507866,-0.00834748,-0.11883,-0.021566,-0.54077,0.98822
0.143376,0.751484,0.036721,-0.147011,-0.0122761,-0.323983,0.98822
0.410255,0.613506,0.0604459,-0.195083,0.0152765,-0.0783272,0.98822
0.522859,0.247654,0.0471073,-0.228667,0.0198906,0.105282,0.98822
0.513098,-0.236907,-0.0552561,-0.264109,0.0212019,0.211678,0.98822
0.386512,-0.61181,-0.258887,-0.299201,0.0308837,0.247236,0.98822
0.247561,-0.700162,-0.502802,-0.309834,0.0464156,0.21035,0.98822
0.199554,-0.559017,-0.699439,-0.27442,0.072968,0.164798,0.98822
0.224771,-0.399451,-0.796587,-0.204236,0.0995494,0.170734,0.98822
0.308544,-0.331488,-0.799447,-0.128711,0.110988,0.198846,0.98822
0.469578,-0.304071,-0.740321,-0.0757409,0.122916,0.226919,0.98822
0.609033,-0.339067,-0.666662,-0.0614999,0.142161,0.274065,0.98822
0.681937,-0.389773,-0.63671,-0.0624113,0.141189,0.325885,0.98822
0.696251,-0.465847,-0.668284,-0.0637309,0.142491,0.367633,0.98822
0.664067,-0.468511,-0.745953,-0.0598913,0.14791,0.39307,0.98822
0.519271,-0.47014,-0.801342,-0.0181505,0.154262,0.430674,0.98822
0.227801,-0.56829,-0.821277,0.0159734,0.148039,0.46129,0.98822
-0.102901,-0.733852,-0.856774,0.0516824,0.104349,0.421164,0.98822
-0.242558,-0.797288,-0.870092,0.0735761,0.0850396,0.284265,0.98822
-0.333705,-0.747858,-0.847668,0.0657595,0.0981508,0.19576,0.98822
-0.541848,-0.658936,-0.813614,0.0650192,0.0606073,0.165467,0.98822
-0.810795,-0.599864,-0.884428,0.0507666,-0.00193503,0.116207,0.98822
-1.00765,-0.472321,-0.957462,0.0510366,-0.0365072,0.00104046,0.98822
-1.00896,-0.231347,-0.891944,0.0717173,-0.0244072,-0.13012,0.98822
-0.715938,-0.0149597,-0.67443,0.113932,-0.0235971,-0.221444,0.98822
-0.285599,0.0267821,-0.409256,0.127091,-0.0462143,-0.218659,0.98822
-0.0577822,-0.057273,-0.240968,0.0857329,-0.103551,-0.116266,0.98822
-0.0805675,-0.154223,-0.217559,0.0440691,-0.15749,-0.0377645,0.98822
-0.154935,-0.10299,-0.273793,-0.000684507,-0.175029,-0.07311,0.98822
-0.168212,0.0324132,-0.377225,-0.0250153,-0.189275,-0.142401,0.98822
-0.16007,0.123158,-0.502872,-0.0084798,-0.212093,-0.180517,0.98822
-0.16007,0.123158,-0.502872,-0.0084798,-0.212093,-0.180517,1.13354
-0.231586,0.139252,-0.602488,0.026249,-0.214511,-0.202251,1.13354
-0.326423,0.205939,-0.643821,0.0456947,-0.197041,-0.263338,1.13354
-0.334102,0.343924,-0.690478,0.0427068,-0.173452,-0.344374,1.13354
-0.304159,0.425652,-0.702518,0.0684632,-0.156524,-0.37555,1.13354
-0.263943,0.514517,-0.659214,0.0994581,-0.115835,-0.388942,1.13354
-0.238482,0.720577,-0.56895,0.130377,-0.0842763,-0.385382,1.13354
-0.148678,0.938586,-0.397133,0.156031,-0.0451485,-0.345421,1.13354
0.102796,0.986705,-0.141254,0.193382,-0.0208693,-0.265844,1.13354
0.48751,0.813617,0.175927,0.215896,0.0118338,-0.146691,1.13354
0.805584,0.598399,0.493141,0.219002,0.0349234,0.0124215,1.13354
0.832438,0.378462,0.743397,0.1953,0.0406703,0.177175,1.13354
0.576922,0.254446,0.839814,0.138328,0.0106056,0.259999,1.13354
0.221877,0.231456,0.759156,0.05966,-0.02619,0.238073,1.13354
0.0217954,0.272538,0.640185,0.0411821,-0.0295544,0.132778,1.13354
0.0537953,0.288044,0.631089,0.0723981,0.0127266,0.0358709,1.13354
0.209375,0.290872,0.708471,0.105525,0.0490775,-0.00504106,1.13354
0.41195,0.354536,0.856957,0.118863,0.0866845,0.00577152,1.13354
0.542647,0.449471,0.970722,0.0931455,0.113373,0.0902954,1.13354
0.544282,0.519692,1.03066,0.0578126,0.122419,0.202195,1.13354
0.463452,0.484827,1.03865,0.0300267,0.124943,0.301068,1.13354
0.399698,0.401894,1.02356,0.00755521,0.139712,0.344411,1.13354
0.348815,0.324234,1.005,-0.000551321,0.15455,0.362702,1.13354
0.232839,0.214375,0.98649,0.0173091,0.148545,0.369691,1.13354
0.0903055,0.0991268,0.963626,0.0326575,0.142504,0.348251,1.13354
-0.0331523,-0.0313479,0.922072,0.060366,0.126651,0.293415,1.13354
-0.105993,-0.169763,0.911786,0.104336,0.117513,0.199262,1.13354
-0.178044,-0.21085,0.877867,0.121944,0.108256,0.0812135,1.13354
-0.211958,-0.159734,0.888268,0.153343,0.0984263,-0.0344766,1.13354
-0.183839,-0.0142716,0.955802,0.12588,0.125916,-0.13151,1.13354
-0.125532,0.22561,0.978748,0.052481,0.114573,-0.197498,1.13354
-0.102094,0.41869,0.87412,-0.0225826,0.0634861,-0.18488,1.13354
-0.254378,0.385455,0.711082,-0.0640988,0.012395,-0.112382,1.13354
-0.445129,0.276271,0.546804,-0.0879571,-0.0268556,-0.119012,1.13354
-0.582381,0.145637,0.442879,-0.0966709,-0.0267054,-0.16236,1.13354
-0.734094,0.012282,0.381815,-0.094345,-0.0439297,-0.204009,1.13354
-0.849404,-0.0700907,0.317197,-0.121917,-0.0650513,-0.272292,1.13354
-0.901408,-0.0797895,0.210301,-0.150225,-0.0782698,-0.32837,1.13354
-0.903827,-0.0731184,0.131206,-0.166706,-0.0821086,-0.352094,1.13354
-0.89302,-0.209964,0.0418918,-0.190772,-0.0805042,-0.345872,1.13354
-0.898331,-0.439224,-0.0956563,-0.205074,-0.109441,-0.370445,1.13354
-0.869978,-0.574453,-0.254842,-0.223333,-0.116427,-0.448881,1.13354
-0.650167,-0.438925,-0.453198,-0.253157,-0.0993076,-0.568317,1.13354
-0.254185,-0.0420565,-0.598441,-0.25655,-0.0627345,-0.602117,1.13354
0.256928,0.375626,-0.579944,-0.233662,0.0108961,-0.496573,1.13354
0.68568,0.437874,-0.487101,-0.175744,0.0641071,-0.256922,1.13354
0.976378,0.163311,-0.354521,-0.177085,0.112185,-0.0350666,1.13354
1.13006,-0.251325,-0.311684,-0.227434,0.121292,0.131733,1.13354
1.08894,-0.603816,-0.4556,-0.305723,0.104937,0.229047,1.13354
0.936315,-0.720708,-0.755301,-0.356306,0.0978222,0.268088,1.13354
0.713918,-0.638774,-1.13604,-0.352362,0.112356,0.300495,1.13354
0.488287,-0.456659,-1.45587,-0.289374,0.147185,0.325211,1.13354
0.306994,-0.341451,-1.60148,-0.191299,0.184247,0.343427,1.13354
0.281678,-0.274289,-1.59057,-0.108044,0.215643,0.332694,1.13354
0.382414,-0.235572,-1.53839,-0.0788361,0.230321,0.329084,1.13354
0.382414,-0.235572,-1.53839,-0.0788361,0.230321,0.329084,1.28944
0.47123,-0.226445,-1.51197,-0.0837421,0.225721,0.350627,1.28944
0.465389,-0.241855,-1.51272,-0.0733013,0.223745,0.384111,1.28944
0.415842,-0.282767,-1.53028,-0.0581378,0.21016,0.397637,1.28944
0.334962,-0.480481,-1.53225,-0.0313207,0.190831,0.392344,1.28944
0.240717,-0.747619,-1.49894,0.00268416,0.164016,0.355006,1.28944
0.100761,-0.834149,-1.45821,0.00949836,0.134306,0.281692,1.28944
-0.0237976,-0.717415,-1.54317,-0.0181625,0.0830775,0.192209,1.28944
-0.184566,-0.624243,-1.68809,-0.0073619,0.0487453,0.14254,1.28944
-0.367949,-0.628889,-1.69469,0.0732432,0.0547698,0.0895784,1.28944
-0.474269,-0.57628,-1.4802,0.13853,0.0685833,0.00476295,1.28944
-0.453898,-0.464547,-1.19284,0.151184,0.0345161,-0.0930017,1.28944
-0.283106,-0.349862,-1.00005,0.115399,-0.0195874,-0.17496,1.28944
-0.0885846,-0.288805,-0.895225,0.103999,-0.0723593,-0.189379,1.28944
-0.054953,-0.231366,-0.788899,0.108308,-0.0964312,-0.15012,1.28944
-0.15987,-0.175116,-0.686345,0.103996,-0.109666,-0.124282,1.28944
-0.290425,-0.227772,-0.603287,0.107265,-0.133512,-0.13042,1.28944
-0.370278,-0.286793,-0.58706,0.0870146,-0.162075,-0.192438,1.28944
-0.391163,-0.232374,-0.597367,0.0652034,-0.15963,-0.279171,1.28944
-0.331663,-0.0325716,-0.60982,0.080324,-0.170548,-0.352935,1.28944
-0.217733,0.226747,-0.562841,0.103475,-0.142965,-0.372263,1.28944
-0.15785,0.508875,-0.440251,0.13241,-0.10978,-0.309755,1.28944
-0.17853,0.649989,-0.308601,0.153837,-0.102438,-0.199932,1.28944
-0.190802,0.629853,-0.194835,0.164664,-0.0971984,-0.105451,1.28944
-0.179725,0.523976,-0.0593201,0.179347,-0.0832139,-0.0536112,1.28944
-0.13998,0.446055,0.0970375,0.1928,-0.0567447,-0.038821,1.28944
-0.0755917,0.449813,0.287309,0.214238,-0.0343207,-0.0363812,1.28944
0.0408119,0.470279,0.528631,0.241331,-0.0166229,-0.0228961,1.28944
0.141395,0.367611,0.752033,0.241228,-0.0132334,0.0194026,1.28944
0.177351,0.181307,0.904273,0.229102,-0.0237492,0.0492973,1.28944
0.179929,0.00233295,0.989389,0.200738,-0.0196421,0.0240933,1.28944
0.213729,-0.00415321,1.03832,0.174337,-0.00124615,-0.0472471,1.28944
0.286553,0.0849684,1.09207,0.145761,0.0372287,-0.0848854,1.28944
0.347332,0.172094,1.12556,0.119249,0.0579692,-0.0757475,1.28944
0.402112,0.273864,1.11334,0.0877551,0.0694032,-0.0435244,1.28944
0.459246,0.432783,1.08278,0.0665719,0.0870787,0.0190265,1.28944
0.509787,0.628846,1.06383,0.0484244,0.110975,0.108874,1.28944
0.544055,0.710594,1.04819,0.037418,0.137385,0.218147,1.28944
0.561028,0.602261,1.06037,0.0452073,0.151561,0.314152,1.28944
0.547422,0.393472,1.06935,0.0490758,0.153132,0.364324,1.28944
0.478501,0.205432,1.03239,0.0496144,0.144838,0.384817,1.28944
0.29207,0.0391953,1.00967,0.078253,0.140886,0.373925,1.28944
0.161181,0.080223,1.00528,0.0845117,0.1472,0.283206,1.28944
0.122759,0.155026,0.990839,0.0747811,0.149916,0.194508,1.28944
0.133797,0.184951,0.949585,0.0752797,0.126524,0.13653,1.28944
0.109462,0.204977,0.862004,0.0666194,0.106548,0.109763,1.28944
-0.00284533,0.250038,0.79863,0.0821598,0.0955653,0.102552,1.28944
-0.16462,0.234875,0.748449,0.0860818,0.0932566,0.0803667,1.28944
-0.319681,0.182887,0.671706,0.0758524,0.0776342,0.0239109,1.28944
-0.380668,0.146752,0.615428,0.0969455,0.0718113,-0.0544531,1.28944
-0.29456,0.296072,0.642624,0.125317,0.0915961,-0.134806,1.28944
-0.147866,0.466659,0.764612,0.139114,0.13048,-0.134577,1.28944
-0.130805,0.589646,0.86106,0.13226,0.126385,-0.0547172,1.28944
-0.29064,0.664113,0.886973,0.0976588,0.0964248,0.0332235,1.28944
-0.493863,0.645947,0.858558,0.074195,0.0783318,0.0692728,1.28944
-0.493863,0.645947,0.858558,0.074195,0.0783318,0.0692728,1.45062
-0.660144,0.597324,0.855571,0.0825838,0.0775973,0.0612444,1.45062
-0.799304,0.504666,0.917957,0.107677,0.0753807,0.03708,1.45062
-0.984052,0.311137,1.02287,0.127569,0.0599453,0.0176472,1.45062
-1.18304,0.0882146,1.14878,0.103715,0.043576,-0.0525395,1.45062
-1.33984,-0.160251,1.18632,0.0301726,0.00224164,-0.173685,1.45062
-1.55179,-0.314642,1.04091,-0.0508264,-0.082127,-0.311929,1.45062
-1.74315,-0.351301,0.820475,-0.0741871,-0.153744,-0.480698,1.45062
-1.73592,-0.251441,0.664787,-0.065699,-0.162308,-0.655065,1.45062
-1.43152,-0.0719774,0.64311,-0.0399266,-0.119209,-0.763623,1.45062
-0.981698,0.142094,0.747048,-0.0197826,-0.0880689,-0.766844,1.45062
-0.441135,0.331581,0.870392,-0.0020528,-0.0971074,-0.679325,1.45062
0.128895,0.616689,0.989204,-0.00884897,-0.0944923,-0.513472,1.45062
0.538022,0.867406,1.06941,-0.0410019,-0.0800794,-0.25822,1.45062
0.735753,0.900645,1.16656,-0.0585921,-0.0628272,-0.014007,1.45062
0.789668,0.57548,1.2178,-0.0903023,-0.0582683,0.167579,1.45062
0.775096,0.0580131,1.13725,-0.133818,-0.0774181,0.240624,1.45062
0.777606,-0.332239,0.942878,-0.174327,-0.0721993,0.225576,1.45062
0.801735,-0.344932,0.722813,-0.183752,-0.0217136,0.156797,1.45062
0.806426,-0.116814,0.599674,-0.14589,0.0421999,0.128091,1.45062
0.814713,0.09298,0.554883,-0.10132,0.0905475,0.153101,1.45062
0.840163,0.138736,0.53591,-0.0739704,0.121035,0.210504,1.45062
0.836006,0.0812618,0.517325,-0.0619588,0.134136,0.27301,1.45062
0.77223,-0.00225058,0.461156,-0.0622304,0.14011,0.320353,1.45062
0.677806,-0.025663,0.386221,-0.0566685,0.137878,0.338488,1.45062
0.564817,-0.00739612,0.276387,-0.0400037,0.135103,0.350177,1.45062
0.412196,0.00328538,0.209393,-0.00720844,0.136,0.361686,1.45062
0.224789,0.00345558,0.20233,0.0212794,0.148716,0.371933,1.45062
0.0390738,0.0345881,0.202798,0.0439236,0.13844,0.356806,1.45062
-0.148585,0.0548122,0.210442,0.0467614,0.129147,0.333863,1.45062
-0.300426,0.0542267,0.235158,0.0575471,0.109093,0.29037,1.45062
-0.38382,0.0442291,0.272512,0.0611958,0.0947104,0.230361,1.45062
-0.384894,0.0406274,0.325249,0.0570944,0.0730241,0.169071,1.45062
-0.399206,-0.0179371,0.381645,0.0640125,0.0499923,0.138636,1.45062
-0.484442,-0.0278522,0.450879,0.0597771,0.0338021,0.105272,1.45062
-0.584692,0.0594381,0.480141,0.0334525,0.0083822,0.0551571,1.45062
-0.667547,0.184867,0.471419,0.0197218,-0.0246884,0.0105231,1.45062
-0.673883,0.298323,0.495632,0.0160884,-0.0419728,-0.0297875,1.45062
-0.549438,0.387679,0.559371,0.0098381,-0.0501077,-0.0645179,1.45062
-0.368576,0.428047,0.626956,-0.00905759,-0.0604529,-0.0508667,1.45062
-0.266908,0.418121,0.659035,-0.0277188,-0.0894799,0.00263286,1.45062
-0.253198,0.368078,0.654091,-0.0398618,-0.110631,0.045597,1.45062
-0.277022,0.377674,0.617595,-0.0512529,-0.125107,0.0422153,1.45062
-0.274449,0.375356,0.584706,-0.0458345,-0.132244,0.0103217,1.45062
-0.226062,0.29931,0.577766,-0.0273768,-0.126124,-0.0422238,1.45062
-0.146931,0.22384,0.6435,-0.00360971,-0.10083,-0.105873,1.45062
-0.0690319,0.1944,0.740477,0.0138409,-0.0956688,-0.163043,1.45062
-0.0187827,0.144799,0.787532,-0.0111029,-0.108819,-0.208775,1.45062
-0.0292678,0.0353039,0.739405,-0.048653,-0.116626,-0.246368,1.45062
-0.0775145,0.0377914,0.658872,-0.0664547,-0.116844,-0.301097,1.45062
-0.110982,0.176122,0.578284,-0.0592703,-0.110064,-0.337225,1.45062
-0.0554298,0.402771,0.546784,-0.0400797,-0.0776727,-0.340533,1.45062
0.0853823,0.685492,0.563618,-0.0178474,-0.0424314,-0.269702,1.45062
0.146837,0.834008,0.612199,0.00927534,-0.0217124,-0.0891728,1.45062
0.146837,0.834008,0.612199,0.00927534,-0.0217124,-0.0891728,1.63031
0.100499,0.909527,0.668263,0.0285256,-0.0145592,0.0960314,1.63031
0.00979265,0.911238,0.707839,0.0351194,-0.00356373,0.243902,1.63031
-0.118632,0.766462,0.771103,0.0642726,0.0085303,0.355926,1.63031
-0.18026,0.541701,0.951717,0.130203,0.0339695,0.390262,1.63031
-0.111809,0.441935,1.22989,0.178865,0.0713877,0.377767,1.63031
-0.0893594,0.298117,1.54146,0.229498,0.0747968,0.412254,1.63031
-0.222948,0.129511,1.79822,0.267323,0.0358631,0.437986,1.63031
-0.499955,0.0866091,1.98542,0.283352,0.000574768,0.400429,1.63031
-0.943479,-0.215222,2.10603,0.289644,-0.0418503,0.343449,1.63031
-1.17471,-0.76011,2.15241,0.29715,-0.0548301,0.144001,1.63031
-1.06403,-1.44331,2.14275,0.334138,-0.0679531,-0.149204,1.63031
-0.658197,-1.5829,2.05769,0.350625,-0.0685093,-0.480583,1.63031
-0.220585,-0.966646,2.02439,0.372388,-0.032846,-0.678273,1.63031
0.0939046,-0.0791782,2.10967,0.382129,0.0346186,-0.662404,1.63031
0.368827,0.530566,2.19904,0.353591,0.0462383,-0.518453,1.63031
0.614714,0.745405,2.16762,0.284238,0.0369603,-0.298556,1.63031
0.743189,0.742049,2.0856,0.2247,0.0473136,-0.105347,1.63031
0.747373,0.627149,1.95902,0.172734,0.066041,0.0416719,1.63031
0.654088,0.448533,1.79572,0.139696,0.0779188,0.141662,1.63031
0.540544,0.330635,1.59637,0.106654,0.0959876,0.173042,1.63031
0.389922,0.3243,1.37333,0.0625976,0.139115,0.17301,1.63031
0.202241,0.419303,1.13052,0.0226754,0.163121,0.154805,1.63031
0.0238123,0.488968,0.872974,0.0101072,0.152326,0.120631,1.63031
-0.0688977,0.522471,0.636165,0.012302,0.161123,0.0623572,1.63031
-0.0734455,0.555518,0.49079,0.0256622,0.189396,0.00943524,1.63031
0.00127512,0.639962,0.451869,0.0259597,0.218,-0.0303323,1.63031
0.108736,0.713394,0.46342,0.0113034,0.234931,-0.0285571,1.63031
0.180612,0.75049,0.478232,-0.0112595,0.225752,0.0262756,1.63031
0.152728,0.713524,0.454657,-0.0457636,0.193324,0.113662,1.63031
0.0447144,0.652033,0.380639,-0.0846684,0.152244,0.169684,1.63031
-0.101723,0.595709,0.325469,-0.103704,0.112503,0.182082,1.63031
-0.267704,0.496627,0.289635,-0.125229,0.0626896,0.174802,1.63031
-0.413578,0.389961,0.221341,-0.136858,-0.0078548,0.140842,1.63031
-0.573974,0.285924,0.137659,-0.145652,-0.0541067,0.0899743,1.63031
-0.681317,0.215741,0.0561417,-0.146256,-0.108109,0.00850433,1.63031
-0.714709,0.0627396,-0.01884,-0.127632,-0.143633,-0.0710635,1.63031
-0.797194,-0.0597324,-0.00778717,-0.0764023,-0.153342,-0.126375,1.63031
-0.939123,-0.118942,0.0751422,-0.0233658,-0.177035,-0.195138,1.63031
-1.02201,-0.225217,0.189881,0.00820774,-0.196619,-0.28508,1.63031
-1.02005,-0.41684,0.328859,0.0400218,-0.222382,-0.399888,1.63031
-1.00206,-0.575683,0.436954,0.045917,-0.252641,-0.499717,1.63031
-0.99337,-0.599556,0.479707,0.0376405,-0.294038,-0.580409,1.63031
-0.90819,-0.579766,0.463098,0.0372878,-0.32784,-0.649581,1.63031
-0.613187,-0.542751,0.44507,0.058205,-0.319719,-0.707767,1.63031
-0.12476,-0.309806,0.511025,0.0794713,-0.260734,-0.708205,1.63031
0.327044,0.0363962,0.608626,0.0737807,-0.190553,-0.572855,1.63031
0.65948,0.32502,0.625681,0.0250194,-0.142789,-0.362657,1.63031
0.930671,0.486125,0.569859,-0.0254653,-0.0960908,-0.16309,1.63031
1.07538,0.378083,0.487204,-0.0567695,-0.0446683,0.0303968,1.63031
1.04686,-0.0648792,0.361028,-0.0785763,0.000550598,0.159539,1.63031
0.976562,-0.596012,0.211567,-0.109634,0.0618358,0.155122,1.63031
0.992141,-0.748673,-0.0280418,-0.15489,0.140332,0.0355527,1.63031
0.996087,-0.627339,-0.310429,-0.173176,0.215425,-0.0487426,1.63031
0.981608,-0.328174,-0.530982,-0.142481,0.278271,-0.0695873,1.63031
0.981608,-0.328174,-0.530982,-0.142481,0.278271,-0.0695873,1.8047
0.970285,0.0937171,-0.641549,-0.0965548,0.351438,-0.0428156,1.8047
1.00553,0.407443,-0.5896,-0.0549225,0.396555,0.0398586,1.8047
1.06792,0.406706,-0.504427,-0.053517,0.416644,0.173057,1.8047
1.11023,0.28747,-0.418713,-0.0770484,0.404121,0.287546,1.8047
1.08728,0.138221,-0.379619,-0.127556,0.403339,0.381484,1.8047
0.981535,-0.028239,-0.418228,-0.167656,0.387971,0.446582,1.8047
0.758261,-0.115077,-0.505824,-0.178993,0.357139,0.492491,1.8047
0.487563,-0.104535,-0.592267,-0.186735,0.350381,0.487483,1.8047
0.249953,-0.0877329,-0.618928,-0.16882,0.355731,0.468566,1.8047
0.0495944,-0.143751,-0.604678,-0.154879,0.340255,0.451492,1.8047
-0.18026,-0.288055,-0.605322,-0.149342,0.302919,0.439931,1.8047
-0.378352,-0.458872,-0.636829,-0.144379,0.244329,0.385805,1.8047
-0.538878,-0.488251,-0.709714,-0.147508,0.191588,0.306252,1.8047
-0.805385,-0.45053,-0.79314,-0.143243,0.133326,0.268448,1.8047
-1.09662,-0.409905,-0.909552,-0.105574,0.0483228,0.210581,1.8047
-1.24976,-0.314244,-0.954872,-0.040534,0.00298223,0.0963631,1.8047
-1.28739,-0.18696,-0.88691,0.0202076,-0.0314811,-0.00790054,1.8047
-1.2398,-0.179684,-0.743197,0.0713447,-0.0981664,-0.0846556,1.8047
-1.00251,-0.434548,-0.626574,0.0959181,-0.168919,-0.174434,1.8047
-0.63551,-0.571869,-0.521134,0.108222,-0.213803,-0.284882,1.8047
-0.51986,-0.496615,-0.468342,0.115195,-0.26039,-0.311963,1.8047
-0.630643,-0.300427,-0.497714,0.105467,-0.313955,-0.366212,1.8047
-0.651611,-0.120239,-0.545726,0.118371,-0.337675,-0.517929,1.8047
-0.389303,0.0742225,-0.46275,0.156389,-0.302908,-0.696723,1.8047
0.028457,0.279809,-0.245754,0.189578,-0.244531,-0.777066,1.8047
0.304035,0.329124,-0.0427703,0.185688,-0.221677,-0.712287,1.8047
0.332702,0.215174,-0.00628207,0.12397,-0.228177,-0.602025,1.8047
0.354458,0.132188,-0.0435287,0.0766377,-0.202421,-0.580629,1.8047
0.550079,0.237926,-0.0343101,0.0885359,-0.12243,-0.573524,1.8047
0.829879,0.514152,0.10731,0.141523,-0.0422438,-0.483226,1.8047
1.11095,0.778089,0.340735,0.149563,0.0491702,-0.287739,1.8047
1.30315,0.845355,0.577265,0.125672,0.0925971,-0.0290704,1.8047
1.35005,0.608155,0.704352,0.0788015,0.106371,0.208992,1.8047
1.20438,0.105538,0.705107,0.0476128,0.0922522,0.375877,1.8047
0.887063,-0.307925,0.584254,0.0233492,0.0795959,0.426537,1.8047
0.604725,-0.276834,0.410864,0.0134292,0.108216,0.336396,1.8047
0.447564,0.0673481,0.265715,0.0409974,0.161869,0.240991,1.8047
0.398223,0.374915,0.230818,0.103348,0.201831,0.232978,1.8047
0.443819,0.48129,0.347717,0.163275,0.248588,0.272877,1.8047
0.551585,0.413379,0.518272,0.185794,0.275048,0.344995,1.8047
0.630714,0.243251,0.662184,0.179013,0.288478,0.420891,1.8047
0.602417,0.0641606,0.798808,0.154593,0.29217,0.477838,1.8047
0.533779,-0.0402367,0.902305,0.138868,0.283778,0.479333,1.8047
0.455508,-0.0410923,0.956332,0.117105,0.278285,0.46928,1.8047
0.244462,-0.114425,1.02234,0.106351,0.270894,0.472807,1.8047
-0.0590985,-0.299707,1.03176,0.0949753,0.228935,0.434212,1.8047
-0.361262,-0.502876,0.931388,0.07164,0.173059,0.337155,1.8047
-0.689593,-0.692474,0.7036,0.00320415,0.131996,0.172705,1.8047
-0.947376,-0.603458,0.446306,0.00810981,0.0781726,-0.0508734,1.8047
-0.9266,-0.287904,0.290745,0.0576616,0.0748079,-0.273871,1.8047
-0.703744,0.174693,0.308455,0.107601,0.0942749,-0.394297,1.8047
-0.433818,0.477714,0.453843,0.138575,0.0923422,-0.354698,1.8047
-0.257994,0.524439,0.559193,0.126735,0.0561781,-0.205073,1.8047
-0.228142,0.581567,0.640103,0.0935611,0.0290179,-0.064403,1.8047
-0.228142,0.581567,0.640103,0.0935611,0.0290179,-0.064403,1.99759
-0.256397,0.634148,0.731574,0.0464675,0.0103127,0.0432841,1.99759
-0.273605,0.633676,0.658554,-0.0287398,-0.0443923,0.113441,1.99759
-0.385299,0.479581,0.598319,-0.0430896,-0.0607784,0.155943,1.99759
-0.44607,0.304052,0.509746,-0.0583837,-0.0901559,0.143511,1.99759
-0.543165,0.0427514,0.443456,-0.0347769,-0.104163,0.138426,1.99759
-0.623138,-0.16721,0.421273,-0.0142856,-0.121308,0.0491107,1.99759
-0.654004,-0.229176,0.444905,0.0114587,-0.118336,-0.0809277,1.99759
-0.764625,-0.403403,0.525466,0.0538337,-0.127719,-0.171337,1.99759
-0.910497,-0.696764,0.57539,0.0370957,-0.155095,-0.325535,1.99759
-0.890822,-0.721743,0.527542,-0.00238419,-0.200728,-0.578668,1.99759
-0.601678,-0.441076,0.448216,-0.046945,-0.197678,-0.791919,1.99759
-0.254783,-0.0820346,0.413588,-0.0754703,-0.184482,-0.829285,1.99759
-0.102368,-0.0320607,0.343999,-0.108333,-0.185501,-0.689913,1.99759
-0.0692496,-0.143134,0.139243,-0.167193,-0.195506,-0.581289,1.99759
0.03278,-0.154753,-0.154803,-0.220874,-0.165481,-0.57592,1.99759
0.274673,0.0626826,-0.411055,-0.211467,-0.0983473,-0.56415,1.99759
0.583697,0.398652,-0.547189,-0.189487,-0.00969705,-0.456615,1.99759
0.846589,0.568519,-0.584074,-0.162779,0.0562099,-0.252973,1.99759
1.04863,0.483037,-0.607944,-0.173048,0.0893655,-0.0409535,1.99759
1.14538,0.141679,-0.619229,-0.207713,0.119399,0.127393,1.99759
1.11194,-0.389319,-0.713628,-0.2438,0.14644,0.233459,1.99759
0.979768,-0.759978,-0.881851,-0.251545,0.154147,0.282129,1.99759
0.770635,-0.826536,-1.12149,-0.237754,0.183321,0.301935,1.99759
0.541769,-0.654946,-1.32235,-0.197681,0.212972,0.309692,1.99759
0.422152,-0.436511,-1.36871,-0.126585,0.243884,0.319834,1.99759
0.300573,-0.373232,-1.37486,-0.0930749,0.292567,0.37547,1.99759
0.250677,-0.189109,-1.21662,-0.0476509,0.281252,0.41966,1.99759
0.288632,-0.158708,-0.985256,0.0017446,0.251375,0.424305,1.99759
0.371733,-0.366052,-0.886309,-0.0111067,0.246236,0.394754,1.99759
0.542025,-0.486021,-0.909026,-0.0192265,0.247533,0.334137,1.99759
0.742846,-0.564868,-0.792083,0.0292083,0.199043,0.261566,1.99759
0.894501,-0.554078,-0.571276,0.0579807,0.192114,0.239464,1.99759
0.857948,-0.519224,-0.433342,0.0410228,0.198289,0.233883,1.99759
0.570569,-0.508785,-0.362872,0.0228442,0.159128,0.238542,1.99759
0.155599,-0.442715,-0.374076,0.00568653,0.100371,0.258755,1.99759
-0.263927,-0.48166,-0.430702,-0.00219256,0.0698197,0.24727,1.99759
-0.553404,-0.548753,-0.456525,0.0107489,0.0450975,0.179922,1.99759
-0.646165,-0.595008,-0.444825,0.0362109,0.0370648,0.0790793,1.99759
-0.59479,-0.550756,-0.390748,0.0463194,0.0319521,-0.00783598,1.99759
-0.462632,-0.38971,-0.301607,0.0480097,0.0152394,-0.0519603,1.99759
-0.299876,-0.213112,-0.195918,0.0330201,-0.001546,-0.0424701,1.99759
-0.151419,-0.159939,-0.11181,0.0239433,-0.0337181,-0.0108744,1.99759
-0.0339231,-0.110954,-0.0995409,0.00134602,-0.0752093,0.022621,1.99759
0.0131573,-0.118768,-0.115181,-0.015963,-0.109342,0.0412202,1.99759
-0.0853784,-0.194379,-0.118899,0.0088885,-0.148042,0.0545214,1.99759
-0.263284,-0.324705,-0.115192,0.0389191,-0.166408,0.0113649,1.99759
-0.455467,-0.38501,-0.171266,0.0240914,-0.173275,-0.0864456,1.99759
-0.595237,-0.290725,-0.224919,0.0102005,-0.170701,-0.229038,1.99759
-0.531524,-0.0571702,-0.265234,0.0109051,-0.175816,-0.382255,1.99759
-0.330208,0.239477,-0.248937,0.0326558,-0.169688,-0.448648,1.99759
-0.194074,0.369086,-0.209425,0.0593296,-0.176779,-0.419057,1.99759
-0.270731,0.205625,-0.202786,0.0512729,-0.185323,-0.347299,1.99759
-0.47666,-0.165079,-0.250612,0.0382596,-0.18354,-0.350648,1.99759
-0.506212,-0.22417,-0.31875,0.0299751,-0.148695,-0.439696,1.99759
-0.506212,-0.22417,-0.31875,0.0299751,-0.148695,-0.439696,2.19312
-0.381251,0.0853833,-0.315129,0.0543641,-0.0788783,-0.476637,2.19312
-0.0441855,0.642808,-0.158381,0.0892434,-0.00674734,-0.422421,2.19312
0.324152,1.18439,0.0512741,0.123161,0.0430558,-0.230085,2.19312
0.52351,1.35125,0.212328,0.146051,0.037479,0.020138,2.19312
0.51395,1.12832,0.361594,0.164982,0.0234097,0.224823,2.19312
0.302657,0.532659,0.5234,0.215641,-0.0100622,0.337397,2.19312
0.0755463,0.0232922,0.608799,0.214082,-0.0215103,0.325007,2.19312
-0.116053,-0.142936,0.611894,0.156521,0.00971338,0.220061,2.19312
-0.205507,-0.0402529,0.610992,0.113883,0.0499581,0.114022,2.19312
-0.149645,0.12633,0.657511,0.108421,0.0900448,0.0646276,2.19312
0.0209414,0.268435,0.741,0.10704,0.131717,0.0746396,2.19312
0.255537,0.357727,0.858014,0.0928212,0.167836,0.142511,2.19312
0.464028,0.494869,0.965447,0.0637307,0.188367,0.244204,2.19312
0.56635,0.630389,0.992553,0.0301202,0.189742,0.349319,2.19312
0.549311,0.610554,0.960929,0.014177,0.182954,0.430906,2.19312
0.487041,0.412281,0.980187,0.035475,0.182029,0.454526,2.19312
0.410383,0.142436,1.05457,0.0700347,0.178731,0.43696,2.19312
0.254513,-0.116372,1.11272,0.0711701,0.151163,0.3731,2.19312
-0.00917714,-0.291232,1.12445,0.0536509,0.111116,0.28392,2.19312
-0.257901,-0.284748,1.00352,-0.017093,0.0637624,0.157261,2.19312
-0.444112,-0.185994,0.754195,-0.0629957,-0.000618577,0.0324352,2.19312
-0.623129,-0.240184,0.461224,-0.0534781,-0.0396345,-0.0687679,2.19312
-0.702427,-0.266388,0.278769,-0.00271808,-0.0457836,-0.180826,2.19312
-0.62931,-0.122991,0.199181,0.016065,-0.0209351,-0.267295,2.19312
-0.423765,0.226842,0.179902,0.0206058,-0.00462726,-0.294577,2.19312
-0.204905,0.605795,0.234082,0.0401053,-0.0102467,-0.214758,2.19312
-0.100681,0.697387,0.282997,0.0467069,-0.0430564,-0.0533086,2.19312
-0.103474,0.514607,0.301633,0.0371883,-0.0835896,0.0619756,2.19312
-0.139121,0.217391,0.306158,0.0377535,-0.101652,0.0980806,2.19312
-0.196766,-0.0177722,0.31556,0.0389671,-0.112676,0.0719856,2.19312
-0.332453,-0.210807,0.326161,0.0302191,-0.107856,0.0119623,2.19312
-0.446661,-0.338129,0.354245,0.0152942,-0.0974051,-0.111239,2.19312
-0.443431,-0.448122,0.385712,-0.00323286,-0.075855,-0.254774,2.19312
-0.369617,-0.532441,0.396311,-0.0335905,-0.0552229,-0.370292,2.19312
-0.355851,-0.543732,0.351661,-0.0619298,-0.0574805,-0.447964,2.19312
-0.397892,-0.370887,0.271872,-0.0959492,-0.0557308,-0.489407,2.19312
-0.457387,-0.238751,0.211756,-0.119297,-0.0399097,-0.491397,2.19312
-0.450391,-0.282822,0.119317,-0.142145,-0.0339712,-0.484342,2.19312
-0.341233,-0.252022,0.0244038,-0.172124,-0.0185367,-0.491218,2.19312
-0.145544,0.0103507,-0.0897334,-0.203028,-0.00129297,-0.467211,2.19312
0.0524417,0.320146,-0.206319,-0.210002,0.0243036,-0.349213,2.19312
0.184298,0.521349,-0.305796,-0.204165,0.045466,-0.173035,2.19312
0.232069,0.465259,-0.337121,-0.178206,0.066367,-0.00767124,2.19312
0.28649,0.19859,-0.330139,-0.173267,0.0783357,0.0958704,2.19312
0.356357,-0.199842,-0.344024,-0.190676,0.0897074,0.150825,2.19312
0.384521,-0.417689,-0.46028,-0.219045,0.0900229,0.1612,2.19312
0.324968,-0.358822,-0.630532,-0.228339,0.0854236,0.168836,2.19312
0.249154,-0.118314,-0.790237,-0.205286,0.110349,0.192225,2.19312
0.218523,0.0428151,-0.842313,-0.146515,0.142422,0.244648,2.19312
0.240014,0.0832761,-0.805553,-0.107699,0.178534,0.30843,2.19312
0.31465,0.0416387,-0.740503,-0.101863,0.195698,0.362025,2.19312
0.426653,-0.0346857,-0.705415,-0.106222,0.194778,0.412443,2.19312
0.52017,-0.101705,-0.680225,-0.0889322,0.174713,0.451959,2.19312
0.527645,-0.182826,-0.667318,-0.0832367,0.177687,0.492812,2.19312
0.527645,-0.182826,-0.667318,-0.0832367,0.177687,0.492812,2.39394
0.392746,-0.283601,-0.652667,-0.0701216,0.172139,0.515883,2.39394
0.157147,-0.455762,-0.620577,-0.0532012,0.153361,0.472747,2.39394
0.01071,-0.517839,-0.638697,-0.0521227,0.116094,0.36441,2.39394
-0.103437,-0.522062,-0.730703,-0.0530837,0.0838436,0.269067,2.39394
-0.3193,-0.522128,-0.827027,-0.0357079,0.0569062,0.210268,2.39394
-0.655766,-0.499594,-0.894597,-0.0252742,0.0379553,0.145949,2.39394
-0.952392,-0.43591,-0.921472,-0.00373342,0.015285,0.0390602,2.39394
-1.07474,-0.357531,-0.899882,0.0132526,0.000320852,-0.105016,2.39394
-0.996874,-0.295064,-0.819485,0.0292355,-0.0147659,-0.235405,2.39394
-0.735931,-0.115618,-0.686212,0.0513809,-0.0419083,-0.316467,2.39394
-0.350457,0.111162,-0.507344,0.0544814,-0.0542546,-0.309188,2.39394
-0.00754915,0.297247,-0.342648,0.0207096,-0.068954,-0.184889,2.39394
0.124851,0.25938,-0.249693,-0.0107498,-0.11039,-0.0214937,2.39394
0.136036,0.194952,-0.258144,-0.0542903,-0.144999,0.0822414,2.39394
0.0719447,0.0799731,-0.325573,-0.0669557,-0.164537,0.119102,2.39394
-0.0206437,0.0203663,-0.386656,-0.0684303,-0.163892,0.105015,2.39394
-0.114445,-0.0381262,-0.436489,-0.0448297,-0.165017,0.0530797,2.39394
-0.163474,-0.127651,-0.4458,-0.01637,-0.162636,-0.0396997,2.39394
-0.143369,-0.237024,-0.406412,0.0193973,-0.138997,-0.167266,2.39394
-0.137562,-0.228711,-0.333225,0.0464828,-0.134892,-0.287322,2.39394
-0.217175,-0.138344,-0.320671,0.0530774,-0.160619,-0.387621,2.39394
-0.375114,-0.0448485,-0.407072,0.0357672,-0.180749,-0.493809,2.39394
-0.524539,0.033949,-0.489402,0.0527581,-0.167968,-0.599786,2.39394
-0.530147,0.102057,-0.459077,0.128474,-0.128629,-0.688309,2.39394
-0.273483,0.32899,-0.278609,0.160604,-0.0441522,-0.730133,2.39394
0.19129,0.907032,-0.0157338,0.16052,0.00215143,-0.630692,2.39394
0.570839,1.25615,0.227424,0.151205,0.0169961,-0.32345,2.39394
0.776281,1.21295,0.42613,0.148666,-0.00131945,0.019087,2.39394
0.77509,0.896762,0.512735,0.109138,-0.0101606,0.271055,2.39394
0.602102,0.367701,0.622216,0.13699,-0.0515497,0.402254,2.39394
0.408033,-0.0550237,0.715293,0.136685,-0.0672331,0.393423,2.39394
0.237872,-0.198463,0.655463,0.0543219,-0.0382587,0.312512,2.39394
0.126287,-0.0570231,0.506057,-0.0112685,-0.0206087,0.243143,2.39394
0.0880978,0.118873,0.338978,-0.0384744,0.013694,0.217999,2.39394
0.15654,0.294653,0.244323,-0.0114622,0.0731176,0.221895,2.39394
0.338951,0.414144,0.278951,0.0336598,0.131986,0.253091,2.39394
0.601062,0.489797,0.446399,0.0673491,0.201311,0.312679,2.39394
0.77733,0.45296,0.634581,0.0548002,0.249049,0.404935,2.39394
0.764082,0.194654,0.732664,0.0427258,0.224475,0.481203,2.39394
0.623732,-0.0036615,0.724167,0.0334862,0.186236,0.465363,2.39394
0.390681,-0.0426035,0.665259,0.0403471,0.173122,0.411722,2.39394
0.0651853,-0.121411,0.589749,0.0464829,0.146149,0.342845,2.39394
-0.198325,-0.123549,0.509211,0.0444005,0.116676,0.214205,2.39394
-0.319729,-0.124185,0.435742,0.0394885,0.0999211,0.0767224,2.39394
-0.286714,-0.0512602,0.395859,0.0140243,0.101729,-0.0305775,2.39394
-0.217088,0.00927869,0.33149,-0.0303837,0.0768196,-0.0732516,2.39394
-0.234579,0.0236379,0.208121,-0.0649826,0.0391644,-0.0532332,2.39394
-0.341102,0.0575554,0.00823551,-0.07089,-0.00783524,-0.0303817,2.39394
-0.488876,0.133925,-0.147313,-0.0343559,-0.0202565,-0.0248685,2.39394
-0.550635,0.227829,-0.125672,0.0310815,-0.0069592,-0.0374843,2.39394
-0.499015,0.254843,-0.0151723,0.062998,-0.0115295,-0.0381805,2.39394
-0.418063,0.193953,0.0779319,0.0623702,-0.0504096,-0.0300842,2.39394
-0.399554,0.0433832,0.12856,0.0702417,-0.0937622,-0.0162252,2.39394
-0.399554,0.0433832,0.12856,0.0702417,-0.0937622,-0.0162252,2.58418
-0.452864,-0.0370244,0.159653,0.0687176,-0.1166,-0.0370029,2.58418
-0.577624,-0.114482,0.203316,0.0892326,-0.13995,-0.0963903,2.58418
-0.64167,-0.236367,0.283064,0.110581,-0.148966,-0.212124,2.58418
-0.640886,-0.254097,0.328021,0.108748,-0.166661,-0.365453,2.58418
-0.590747,-0.107238,0.325362,0.108693,-0.178324,-0.484298,2.58418
-0.612436,0.00654787,0.306315,0.109333,-0.169648,-0.503337,2.58418
-0.74335,-0.103026,0.258424,0.091679,-0.175971,-0.488512,2.58418
-0.791216,-0.420923,0.18633,0.0558472,-0.183162,-0.52561,2.58418
-0.660649,-0.511278,0.0456496,-0.0359062,-0.156988,-0.605286,2.58418
-0.476514,-0.324782,-0.141812,-0.0720571,-0.118649,-0.608972,2.58418
-0.220919,0.0395298,-0.23232,-0.072204,-0.0562595,-0.554667,2.58418
0.116794,0.439018,-0.194733,-0.00432727,0.00180645,-0.424992,2.58418
0.484913,0.803232,-0.0901872,0.0186732,0.0547091,-0.224799,2.58418
0.688275,0.825722,0.00297246,0.00554572,0.0848758,0.029461,2.58418
0.737218,0.447975,0.133798,0.00455417,0.0997722,0.220582,2.58418
0.730522,-0.0876154,0.244933,-0.0128201,0.106947,0.296342,2.58418
0.724522,-0.371652,0.264389,-0.0969542,0.126329,0.270636,2.58418
0.745542,-0.328212,0.142997,-0.178985,0.127477,0.220642,2.58418
0.718256,-0.0967271,-0.0457622,-0.193055,0.140027,0.223768,2.58418
0.585748,0.179347,-0.168584,-0.152473,0.170821,0.284021,2.58418
0.506457,0.280052,-0.165815,-0.0933633,0.190838,0.34658,2.58418
0.618434,0.190704,-0.103027,-0.0480041,0.204521,0.380236,2.58418
0.801059,0.0441789,-0.023206,-0.0243661,0.208322,0.424233,2.58418
0.849405,-0.182631,0.0491551,-0.00126284,0.192189,0.476446,2.58418
0.754373,-0.296545,0.0644467,-0.00148876,0.16441,0.484886,2.58418
0.463989,-0.394098,0.0284253,-0.0177027,0.148566,0.458601,2.58418
0.132803,-0.469332,0.00926889,-9.02489e-05,0.115043,0.356184,2.58418
-0.0663885,-0.300852,-0.0200741,-0.00525279,0.099632,0.197732,2.58418
-0.158156,-0.12497,-0.0342235,-0.00582813,0.0814814,0.0882614,2.58418
-0.171142,-0.0295887,-0.00151382,-0.00702439,0.061404,0.0293016,2.58418
-0.19402,-0.088625,-0.0255889,-0.0255565,0.0360504,0.0168622,2.58418
-0.28613,-0.164613,-0.0601825,-0.0227891,0.0133312,-0.00233781,2.58418
-0.327967,-0.0518717,-0.0524622,-0.0287625,0.00561225,-0.072093,2.58418
-0.243596,0.175805,-0.00359725,-0.0198872,0.00458425,-0.116305,2.58418
-0.08018,0.295894,0.0931896,0.000977166,-0.00455058,-0.0697119,2.58418
0.0217415,0.220048,0.167408,0.0017159,-0.0266277,0.0402238,2.58418
0.00722542,0.0746837,0.19884,-0.015125,-0.0615726,0.129207,2.58418
-0.0824857,-0.0768832,0.162018,-0.0339941,-0.0938438,0.171191,2.58418
-0.201231,-0.0990456,0.0755712,-0.0442289,-0.125612,0.160443,2.58418
-0.283091,0.0493952,-0.0217963,-0.0526605,-0.126454,0.115201,2.58418
-0.298115,0.183831,-0.0450958,-0.0218929,-0.113214,0.0846142,2.58418
-0.224524,0.265371,0.0106076,0.0256277,-0.104055,0.0647483,2.58418
-0.132802,0.302196,0.0869975,0.0415676,-0.0988722,0.0507128,2.58418
0.128068,0.216248,0.180011,0.0592136,-0.0780469,0.0590254,2.58418
0.182669,-0.241403,0.228291,0.0796398,-0.0961761,0.0834778,2.58418
-0.0262688,-0.11245,0.293925,0.0486018,-0.108535,0.043251,2.58418
-0.25863,0.262135,0.26447,0.023763,-0.107458,-0.0352902,2.58418
-0.295932,0.502751,0.239781,0.0338897,-0.103121,-0.0964926,2.58418
-0.14749,0.314454,0.348502,0.098892,-0.0910153,-0.116639,2.58418
