rotationRate_x,rotationRate_y,rotationRate_z,acceleration_x,acceleration_y,acceleration_z,relativeAltitude
-0.220583,-0.240377,-0.393802,0.032094,-0.107552,-0.0265347,1.84435
-0.0601868,-0.499352,-0.284851,0.0736215,-0.091609,-0.0985465,1.84435
0.0468406,-0.402994,-0.209694,0.0387173,-0.0750445,-0.207472,1.84435
0.131761,-0.160164,-0.170546,0.030506,-0.0680372,-0.287042,1.84435
0.14886,0.0263481,-0.0774194,0.0761565,-0.0631997,-0.308693,1.84435
0.0949669,0.144338,0.0424201,0.121157,-0.0564814,-0.289778,1.84435
0.0227,0.255523,0.161451,0.143309,-0.0546777,-0.282044,1.84435
-0.13726,0.207003,0.214278,0.127716,-0.0697795,-0.25166,1.84435
-0.351441,-0.0772764,0.168248,0.108636,-0.0925005,-0.231428,1.84435
-0.445159,-0.428434,0.114101,0.119156,-0.0916462,-0.297839,1.84435
-0.332185,-0.535025,0.18902,0.169818,-0.0329072,-0.418243,1.84435
-0.115698,-0.294113,0.434692,0.209686,0.0334308,-0.479141,1.84435
0.157617,0.0753682,0.785309,0.219411,0.0823463,-0.43951,1.84435
0.488582,0.411233,1.07704,0.196322,0.0859065,-0.323258,1.84435
0.731918,0.524534,1.23627,0.155456,0.0739508,-0.112608,1.84435
0.782977,0.472158,1.24456,0.1027,0.0561008,0.0912329,1.84435
0.656414,0.249114,1.17286,0.0732816,0.0353654,0.244875,1.84435
0.433199,-0.0870215,1.04969,0.0774509,0.0140854,0.320732,1.84435
0.234644,-0.289076,0.891364,0.100849,-0.00396712,0.288853,1.84435
0.102603,-0.251023,0.720557,0.082068,0.0113742,0.207,1.84435
0.0447487,-0.0311136,0.576176,0.0826767,0.0347921,0.130387,1.84435
0.0614127,0.192995,0.482438,0.0900443,0.0518848,0.0987739,1.84435
0.146743,0.271852,0.456095,0.104366,0.0750062,0.129744,1.84435
0.295359,0.29172,0.477809,0.110801,0.0926307,0.175737,1.84435
0.419035,0.357945,0.485854,0.0897722,0.106149,0.236363,1.84435
0.443256,0.463843,0.456205,0.0725544,0.115853,0.31813,1.84435
0.354132,0.59971,0.453734,0.0687996,0.12223,0.402347,1.84435
0.201192,0.739029,0.46712,0.0620352,0.12795,0.456174,1.84435
0.0240023,0.899506,0.459008,0.0499769,0.119764,0.473001,1.84435
-0.156563,0.858476,0.440635,0.0482052,0.10508,0.472595,1.84435
-0.274794,0.509863,0.415569,0.0641778,0.0947864,0.41157,1.84435
-0.403456,-0.0767002,0.393858,0.0789641,0.106354,0.294063,1.84435
-0.613128,-0.578614,0.3608,0.075094,0.13428,0.10705,1.84435
-0.782501,-0.713642,0.346946,0.0400452,0.160914,-0.169124,1.84435
-0.87309,-0.60857,0.276826,-0.0400636,0.185634,-0.441719,1.84435
-0.938545,-0.384539,0.140555,-0.14817,0.209435,-0.621032,1.84435
-1.02769,-0.190806,-0.0215464,-0.209565,0.218493,-0.699642,1.84435
-1.06098,0.0253439,-0.116381,-0.20701,0.202651,-0.712075,1.84435
-0.941298,0.320529,-0.142669,-0.169992,0.165963,-0.684017,1.84435
-0.749561,0.649807,-0.140185,-0.151789,0.113709,-0.571205,1.84435
-0.618185,0.864913,-0.188582,-0.173126,0.0576628,-0.391148,1.84435
-0.584412,0.813239,-0.343193,-0.188467,-0.0216486,-0.19436,1.84435
-0.586668,0.393233,-0.608125,-0.177621,-0.103234,-0.0591099,1.84435
-0.496396,-0.266228,-0.833575,-0.116523,-0.155164,-0.0223863,1.84435
-0.189726,-0.615543,-0.901612,-0.0531951,-0.125682,-0.117028,1.84435
0.127747,-0.449621,-0.833837,-0.0598407,-0.0331476,-0.192637,1.84435
0.273378,-0.0543215,-0.760168,-0.0935139,0.030165,-0.170602,1.84435
0.306524,0.176623,-0.781203,-0.147408,0.0377406,-0.0981544,1.84435
0.325563,0.122368,-0.911528,-0.188715,0.0179203,-0.0214842,1.84435
0.380153,0.0354411,-1.05828,-0.224006,0.0269552,0.0163696,1.84435
0.444092,0.0362663,-1.15556,-0.23374,0.0629782,0.0549062,1.84435
0.520157,0.123954,-1.16805,-0.204928,0.0970187,0.116224,1.84435
0.543457,0.213368,-1.1129,-0.163104,0.111575,0.216656,1.84435
0.543457,0.213368,-1.1129,-0.163104,0.111575,0.216656,0
0.533089,0.225456,-1.01811,-0.132657,0.110728,0.327826,0
0.537671,0.103847,-0.929804,-0.122372,0.10354,0.417019,0
0.561358,-0.0687435,-0.883608,-0.113777,0.0871953,0.470508,0
0.558078,-0.207989,-0.911397,-0.124305,0.0813435,0.494282,0
0.494212,-0.308802,-0.977841,-0.130797,0.0868912,0.499077,0
0.368382,-0.39145,-1.0058,-0.0942491,0.10043,0.478713,0
0.20165,-0.477707,-0.982815,-0.0318228,0.116167,0.402473,0
-0.0363149,-0.506918,-0.926441,0.0470836,0.0910574,0.291195,0
-0.287144,-0.560068,-0.806741,0.126189,0.0364357,0.154449,0
-0.400675,-0.702215,-0.648183,0.175112,-0.0342596,-0.0188969,0
-0.362855,-0.800446,-0.501041,0.214066,-0.095186,-0.190119,0
-0.337576,-0.80091,-0.391306,0.237814,-0.14569,-0.309266,0
-0.30513,-0.588229,-0.294428,0.230503,-0.193233,-0.414372,0
-0.236442,-0.234013,-0.230356,0.204909,-0.224599,-0.471896,0
-0.129799,0.168506,-0.168433,0.220372,-0.25424,-0.46868,0
-0.0535333,0.599217,-0.0713158,0.249505,-0.269913,-0.410941,0
-0.0554117,0.989244,0.0445198,0.258866,-0.270691,-0.325069,0
-0.0760131,1.12907,0.179952,0.271193,-0.269235,-0.235581,0
-0.0161161,0.974346,0.290273,0.293665,-0.272493,-0.18999,0
0.0602201,0.613762,0.387315,0.312529,-0.256466,-0.145902,0
0.22717,0.398837,0.575302,0.350045,-0.206031,-0.152174,0
0.511712,0.461859,0.911756,0.374141,-0.105499,-0.164435,0
0.719805,0.61177,1.26476,0.367943,-0.0275346,-0.112619,0
0.690713,0.588801,1.47012,0.323455,-0.00674975,0.00169659,0
0.541925,0.341525,1.51409,0.268353,-0.0251611,0.071402,0
0.503752,0.0834055,1.37717,0.2092,-0.0483537,0.0114383,0
0.566926,0.0535567,1.1809,0.164743,-0.0306585,-0.080317,0
0.627066,0.312931,1.04029,0.145989,0.0221625,-0.129214,0
0.63181,0.700406,0.947559,0.113538,0.0775027,-0.10363,0
0.557145,0.9438,0.865602,0.0821109,0.118074,-0.00446701,0
0.487739,1.03646,0.779872,0.0564072,0.129628,0.105065,0
0.459913,1.0512,0.729801,0.0248919,0.148528,0.197167,0
0.494705,1.05382,0.761854,0.00511768,0.172169,0.269906,0
0.514875,1.02745,0.835845,-0.017169,0.202623,0.338072,0
0.45289,0.979955,0.868918,-0.0498194,0.224285,0.399816,0
0.347617,0.932109,0.867684,-0.0754846,0.240238,0.430417,0
0.209768,0.791283,0.864175,-0.0747092,0.252294,0.441478,0
0.0628017,0.562054,0.912859,-0.0433437,0.268762,0.409056,0
-0.0990102,0.176127,1.05887,-0.00571015,0.301188,0.343162,0
-0.192822,-0.205944,1.19897,-0.00843802,0.311024,0.195422,0
-0.382944,-0.58639,1.22195,-0.0399835,0.304931,0.0486369,0
-0.755239,-0.995809,1.13776,-0.0477144,0.262595,-0.0628486,0
-1.01663,-1.14483,0.949147,-0.0635885,0.188927,-0.255791,0
-1.01843,-0.98677,0.787473,-0.0745525,0.151404,-0.479886,0
-0.886012,-0.72043,0.743531,-0.0514582,0.147437,-0.599019,0
-0.710032,-0.404996,0.793321,-0.0354979,0.133672,-0.61422,0
-0.563985,-0.110379,0.767551,-0.0658493,0.113389,-0.549327,0
-0.521078,0.00949941,0.62961,-0.0954027,0.0544629,-0.410262,0
-0.557092,-0.0273054,0.42877,-0.112621,0.000720516,-0.286608,0
-0.52427,-0.114172,0.256963,-0.120086,-0.0307445,-0.231711,0
-0.52427,-0.114172,0.256963,-0.120086,-0.0307445,-0.231711,0.0977631
-0.312867,-0.0734444,0.124314,-0.136941,-0.0115752,-0.24402,0.0977631
-0.052447,0.0702155,0.0626253,-0.151842,0.0222526,-0.218599,0.0977631
0.0750469,0.092618,0.0288199,-0.173964,0.0593442,-0.103431,0.0977631
0.0605221,-0.0223826,-0.0420653,-0.207583,0.0743947,0.0118259,0.0977631
-0.0424704,-0.265529,-0.178284,-0.242726,0.0729115,0.0978076,0.0977631
-0.136865,-0.481189,-0.364068,-0.270775,0.0676116,0.121759,0.0977631
-0.168833,-0.502076,-0.558012,-0.280937,0.0752646,0.101772,0.0977631
-0.159601,-0.309148,-0.694645,-0.274122,0.10345,0.0900396,0.0977631
-0.133295,-0.0756752,-0.750511,-0.240708,0.119478,0.116541,0.0977631
-0.0787659,0.0265794,-0.775871,-0.194069,0.115261,0.174667,0.0977631
-0.00314681,-0.00560542,-0.806246,-0.167417,0.0974507,0.241455,0.0977631
0.10312,-0.0589733,-0.835305,-0.154565,0.0840976,0.291499,0.0977631
0.195508,-0.0816086,-0.841668,-0.150713,0.0891941,0.333608,0.0977631
0.227352,-0.095397,-0.827513,-0.139435,0.0955247,0.385944,0.0977631
0.220218,-0.137897,-0.814555,-0.12162,0.0887575,0.426446,0.0977631
0.207565,-0.209836,-0.804464,-0.118612,0.0865118,0.440335,0.0977631
0.212472,-0.398776,-0.834059,-0.115609,0.0580842,0.414957,0.0977631
0.237582,-0.642251,-0.838952,-0.0586004,0.00537322,0.342118,0.0977631
0.176237,-0.832088,-0.741084,0.050004,-0.0506434,0.264804,0.0977631
0.024107,-0.817347,-0.630652,0.150132,-0.150274,0.13305,0.0977631
-0.130589,-0.695348,-0.557885,0.232983,-0.280411,-0.0416957,0.0977631
-0.217112,-0.533951,-0.568376,0.289402,-0.393458,-0.216849,0.0977631
-0.322797,-0.395949,-0.631014,0.326873,-0.461854,-0.363932,0.0977631
-0.467427,-0.396138,-0.696759,0.37891,-0.50001,-0.477152,0.0977631
-0.432736,-0.47142,-0.676244,0.415707,-0.481156,-0.651665,0.0977631
-0.0101991,-0.182719,-0.476469,0.435511,-0.404329,-0.852829,0.0977631
0.630906,0.471033,-0.0217668,0.44336,-0.271057,-0.916178,0.0977631
1.13283,1.07336,0.495178,0.413731,-0.145771,-0.74082,0.0977631
1.34669,1.36673,0.815563,0.325742,-0.102581,-0.425644,0.0977631
1.35845,1.40076,0.957857,0.211217,-0.0945843,-0.140192,0.0977631
1.30929,1.14425,0.985808,0.115543,-0.0603821,0.0705106,0.0977631
1.28418,0.806059,0.916592,0.0712358,-0.0118787,0.184743,0.0977631
1.27597,0.661956,0.868613,0.0875192,0.0379202,0.220721,0.0977631
1.1681,0.779945,0.905246,0.106429,0.0911027,0.237333,0.0977631
0.890237,0.89559,0.991484,0.119688,0.135999,0.264726,0.0977631
0.663684,0.760519,1.08327,0.142047,0.14194,0.244494,0.0977631
0.558317,0.383054,1.06865,0.132024,0.142679,0.161028,0.0977631
0.48292,0.0791407,1.04042,0.150783,0.157758,0.0808377,0.0977631
0.428461,0.0776085,1.05692,0.17325,0.209431,0.00513113,0.0977631
0.356634,0.287687,1.11488,0.174572,0.277158,-0.0244344,0.0977631
0.264899,0.578166,1.17501,0.168989,0.313006,-0.0155935,0.0977631
0.158543,0.812443,1.20656,0.139377,0.339053,0.0294149,0.0977631
0.126599,0.964488,1.17003,0.0839507,0.349748,0.0750745,0.0977631
0.118702,1.04733,1.09869,0.0488794,0.353445,0.142712,0.0977631
0.0424955,1.06299,1.06633,0.0467916,0.380232,0.24699,0.0977631
-0.0855414,1.11603,1.06876,0.0381775,0.40843,0.326575,0.0977631
-0.243604,1.19681,1.10913,0.0306132,0.430031,0.379762,0.0977631
-0.460148,1.22104,1.21723,0.0262506,0.445446,0.437884,0.0977631
-0.682169,1.04981,1.38851,0.035401,0.44303,0.479886,0.0977631
-0.804478,0.791307,1.56919,0.0440337,0.406504,0.450762,0.0977631
-0.932523,0.531246,1.73273,0.0436497,0.358675,0.399189,0.0977631
-0.932523,0.531246,1.73273,0.0436497,0.358675,0.399189,0.195526
-1.14392,0.278677,1.91635,0.0298235,0.319184,0.33983,0.195526
-1.36774,-0.0295174,2.02265,0.0153514,0.232138,0.229617,0.195526
-1.55753,-0.327211,1.83939,-0.0522677,0.0947171,0.0418745,0.195526
-1.8224,-0.653132,1.39106,-0.149388,-0.0256948,-0.155881,0.195526
-2.00772,-0.830762,0.792169,-0.191098,-0.145081,-0.398985,0.195526
-1.95837,-0.711639,0.264507,-0.140517,-0.19525,-0.669904,0.195526
-1.72753,-0.170047,0.108658,-0.0348989,-0.163376,-0.860959,0.195526
-1.40011,0.439385,0.288873,0.0443066,-0.106951,-0.907968,0.195526
-1.15577,0.78398,0.437058,0.0280815,-0.12324,-0.786629,0.195526
-1.03768,0.803777,0.315147,-0.0353024,-0.232786,-0.588818,0.195526
-0.953836,0.68698,0.0172417,-0.078815,-0.312982,-0.430971,0.195526
-0.803438,0.639891,-0.154664,-0.0557879,-0.312015,-0.353719,0.195526
-0.501463,0.719128,-0.0636858,0.00891556,-0.230892,-0.328253,0.195526
-0.145959,0.840026,0.206416,0.0460075,-0.142779,-0.281774,0.195526
0.148955,0.7657,0.546844,0.0519,-0.0917795,-0.181181,0.195526
0.383352,0.339512,0.835374,0.0145888,-0.0775883,-0.0774412,0.195526
0.639994,-0.224425,0.96047,-0.0498719,-0.0780596,-0.0419593,0.195526
0.865651,-0.537079,0.845574,-0.15305,-0.0782747,-0.0671667,0.195526
0.977826,-0.569591,0.642777,-0.215682,-0.0486829,-0.0604965,0.195526
1.0266,-0.412822,0.428758,-0.215184,-0.0059998,-0.0192462,0.195526
1.02476,-0.154246,0.248219,-0.185986,0.0395126,0.0589789,0.195526
0.970767,0.0862328,0.125633,-0.162492,0.0867575,0.167441,0.195526
0.804802,0.251401,0.0562311,-0.144562,0.125984,0.310376,0.195526
0.656585,0.231842,0.0454991,-0.128966,0.15293,0.410569,0.195526
0.606952,0.0850137,-0.0367374,-0.125199,0.153721,0.438087,0.195526
0.552622,0.0212859,-0.204452,-0.12126,0.151135,0.45201,0.195526
0.343119,-0.012568,-0.344734,-0.111541,0.175701,0.469806,0.195526
0.163002,0.0543989,-0.342777,-0.0985768,0.142521,0.431076,0.195526
0.165636,0.0589006,-0.399639,-0.120674,0.159963,0.358013,0.195526
0.193881,-0.0368556,-0.427994,-0.13219,0.165222,0.337228,0.195526
-0.0338527,-0.00661556,-0.22678,-0.0476385,0.11589,0.398228,0.195526
-0.462409,-0.355029,0.00910105,0.0542289,0.104608,0.467008,0.195526
-0.551995,-0.742387,-0.115247,-0.0786301,0.146884,0.344449,0.195526
-0.6469,-0.858991,-0.184091,-0.0725126,0.107224,0.254102,0.195526
-0.786438,-1.23992,-0.159209,-0.00596263,0.0588002,0.220409,0.195526
-0.54361,-0.587688,-0.619783,-0.23648,-0.0906765,-0.104173,0.195526
-0.793021,-0.710935,-1.44779,-0.437451,-0.258791,-0.270208,0.195526
-0.624102,-0.576881,-1.25408,-0.0890391,-0.0924725,-0.0894385,0.195526
-0.642271,-0.533477,-0.531005,0.136386,0.0780954,0.0381145,0.195526
-0.318184,-0.72733,0.0460858,0.362005,-0.069131,-0.115391,0.195526
0.0602881,-1.11027,0.200355,0.196451,-0.188734,-0.12117,0.195526
0.0571066,-0.783076,0.232721,0.153901,-0.145818,-0.148758,0.195526
0.00229598,-0.865382,0.0824798,0.0747055,-0.130058,-0.207944,0.195526
0.127825,-0.703583,0.0099007,0.162747,-0.272483,-0.157725,0.195526
0.134932,-0.398286,-0.305771,0.04204,-0.184239,-0.139694,0.195526
0.0762639,-0.246073,-0.1617,0.135538,-0.163446,-0.127825,0.195526
0.260383,-0.35213,0.343001,0.289759,-0.342959,-0.274257,0.195526
-0.358403,-0.412724,0.293438,0.29393,-0.341773,-0.368589,0.195526
-1.32047,-1.10557,0.259402,0.151806,-0.412073,-0.071182,0.195526
-1.60677,-0.888594,0.484524,0.0953014,-0.233432,-0.13614,0.195526
-1.60677,-0.888594,0.484524,0.0953014,-0.233432,-0.13614,0.454483
-0.994966,-0.549552,0.857472,0.161411,-0.0437505,-0.281928,0.454483
-0.281196,-1.25952,0.61489,0.105019,-0.0714501,-0.599376,0.454483
0.336857,-1.06157,0.602091,0.186923,0.0939295,-0.528598,0.454483
0.995797,-1.12348,0.319316,-0.0435351,-0.0641783,-0.545813,0.454483
1.25868,-1.09563,0.219518,-0.0554539,-6.81281e-05,-0.331519,0.454483
1.24586,-1.16657,0.127448,-0.0484701,0.0201846,-0.15165,0.454483
1.18988,-0.969633,0.154626,-0.00922765,0.0124849,-0.0471464,0.454483
0.974356,-0.451098,0.295358,-0.03295,-0.0182194,0.0682504,0.454483
0.498813,0.0546149,0.375985,-0.154322,-0.0478726,0.15868,0.454483
0.0161283,0.10262,0.286943,-0.261995,-0.0498352,0.124872,0.454483
-0.090877,-0.00904915,0.0948517,-0.285578,0.00559217,-0.00516391,0.454483
0.113816,-0.0633099,-0.18591,-0.282332,0.0740083,-0.0852544,0.454483
0.390185,-0.0830634,-0.444556,-0.202646,0.113538,-0.101678,0.454483
0.758353,-0.334486,-0.519125,-0.069082,0.115959,-0.151913,0.454483
0.864412,-0.718992,-0.483507,0.0619332,0.141311,-0.103001,0.454483
0.531733,-1.1107,-0.502205,0.129797,0.174706,0.0246292,0.454483
0.156324,-1.474,-0.493782,0.16503,0.155974,0.0893332,0.454483
0.00617808,-1.51084,-0.511453,0.171515,0.109072,0.0757828,0.454483
0.0340889,-1.1882,-0.603765,0.184095,0.113192,0.0643536,0.454483
0.126488,-0.67764,-0.70264,0.206781,0.115989,0.0554718,0.454483
0.246992,-0.153618,-0.756328,0.205219,0.0895744,0.0179924,0.454483
0.32348,0.0549459,-0.701625,0.19553,0.0577614,-0.0500517,0.454483
0.174403,-0.139416,-0.580863,0.240074,0.0895205,-0.0830745,0.454483
-0.00687661,-0.361991,-0.50358,0.23982,0.115096,-0.0971643,0.454483
-0.0604639,-0.218402,-0.480354,0.178052,0.0896665,-0.125521,0.454483
0.0788862,-0.180215,-0.35914,0.21059,0.0748802,-0.174399,0.454483
0.190991,0.109845,-0.059507,0.19603,-0.0220267,-0.196086,0.454483
-0.115376,0.0931332,0.354507,0.261111,0.0137911,-0.105776,0.454483
-0.585366,-0.037323,0.69959,0.256448,-0.0238366,-0.0776837,0.454483
-0.737661,0.021531,0.814713,0.172933,-0.00713468,-0.110504,0.454483
-0.479848,0.214231,0.79523,0.0739492,-0.0251662,-0.190971,0.454483
0.0675742,0.600016,0.585798,0.0351308,0.042209,-0.205704,0.454483
0.635658,0.830662,0.420701,0.0541378,0.104814,-0.162717,0.454483
0.984075,0.647651,0.395015,0.080927,0.102757,-0.0916158,0.454483
1.08639,0.380833,0.414274,0.0558023,0.0565636,0.0104855,0.454483
1.02404,0.317395,0.403252,0.0421128,0.0755302,0.114878,0.454483
1.01913,0.421736,0.462199,0.055066,0.119604,0.163461,0.454483
0.989865,0.409447,0.751864,0.0940697,0.139367,0.184115,0.454483
0.674583,0.216945,1.03439,0.0912741,0.155735,0.277645,0.454483
0.243013,0.0884515,1.19743,0.0127999,0.14299,0.330113,0.454483
-0.0168955,0.153318,1.30428,-0.036401,0.145868,0.297532,0.454483
-0.0964733,0.175889,1.32252,-0.0508146,0.192596,0.22856,0.454483
-0.090223,0.0948009,1.26828,-0.0575244,0.226067,0.177393,0.454483
-0.0571057,0.0280359,1.18563,-0.044134,0.251802,0.160108,0.454483
-0.106422,0.020049,1.09599,-0.00791922,0.280659,0.174302,0.454483
-0.0782417,-0.0782202,1.02891,0.0308414,0.275195,0.135042,0.454483
0.124089,-0.279548,0.917749,0.0127497,0.245075,0.0661182,0.454483
0.312262,-0.539975,0.72724,-0.0249926,0.229662,0.0657434,0.454483
0.350896,-0.709097,0.415073,-0.045664,0.217276,0.140529,0.454483
0.212877,-0.622309,0.153487,-0.0290403,0.190066,0.250806,0.454483
0.212877,-0.622309,0.153487,-0.0290403,0.190066,0.250806,0.713425
0.0353701,-0.433234,0.049588,0.0305452,0.119615,0.297173,0.713425
-0.129557,-0.349742,0.0482286,0.0663092,0.0489171,0.281846,0.713425
-0.271101,-0.385878,0.0993186,0.0711801,-0.0254325,0.235155,0.713425
-0.404689,-0.239201,0.168514,0.0414086,-0.0793304,0.202638,0.713425
-0.579864,0.106522,0.149615,-0.0340965,-0.1143,0.173398,0.713425
-0.769321,0.402129,0.0661491,-0.0861413,-0.125044,0.109052,0.713425
-0.789668,0.542352,0.0363208,-0.0472039,-0.117916,-0.01034,0.713425
-0.579244,0.583807,0.0697975,0.0188499,-0.0846656,-0.139077,0.713425
-0.22993,0.553335,0.112401,0.0315592,-0.0565766,-0.211442,0.713425
-0.00776455,0.640542,0.0462037,-0.022511,-0.0585247,-0.188332,0.713425
-0.122845,0.785062,-0.0233677,-0.0572665,-0.111646,-0.117474,0.713425
-0.359651,0.875854,0.0926068,-0.00988552,-0.188257,-0.130199,0.713425
-0.475352,0.951491,0.274586,0.0303983,-0.233585,-0.238364,0.713425
-0.331216,0.900718,0.320748,0.048663,-0.208541,-0.3718,0.713425
-0.0987892,0.96106,0.330369,0.123201,-0.12053,-0.420094,0.713425
-0.0119483,1.18302,0.449495,0.18801,-0.100135,-0.383882,0.713425
-0.0287133,1.43544,0.741942,0.255073,-0.0943985,-0.363212,0.713425
0.0546372,1.43309,1.05336,0.273075,-0.0541948,-0.40586,0.713425
0.287635,1.20213,1.24453,0.251826,-0.00507513,-0.445252,0.713425
0.528164,0.944327,1.40435,0.228923,0.0279902,-0.419425,0.713425
0.583297,0.685507,1.60764,0.24312,0.0801909,-0.311972,0.713425
0.521333,0.485573,1.82372,0.253101,0.124607,-0.192746,0.713425
0.464352,0.283779,2.00394,0.243928,0.169322,-0.0935129,0.713425
0.460992,0.0848856,2.10293,0.183078,0.197518,-0.00925457,0.713425
0.494478,-0.0553791,2.10575,0.0859239,0.223231,0.0678656,0.713425
0.581073,-0.0684135,1.97681,-0.0171991,0.240924,0.134202,0.713425
0.678263,-0.0299758,1.73972,-0.106435,0.25355,0.195245,0.713425
0.71411,0.125017,1.41423,-0.192036,0.24499,0.251127,0.713425
0.626664,0.261655,1.07108,-0.229113,0.213847,0.296551,0.713425
0.404358,0.233573,0.791598,-0.196099,0.19943,0.316779,0.713425
0.250963,0.0774772,0.658416,-0.116755,0.176207,0.284768,0.713425
0.216863,-0.110443,0.582454,-0.0506164,0.167121,0.237903,0.713425
0.321368,-0.328542,0.55159,-0.00733978,0.164251,0.198612,0.713425
0.473555,-0.487038,0.551887,0.0255332,0.15177,0.18594,0.713425
0.497868,-0.565528,0.555939,0.0164413,0.127005,0.236568,0.713425
0.322481,-0.626535,0.594063,0.0352301,0.0928538,0.290068,0.713425
0.00529994,-0.626675,0.719335,0.0881493,0.0630355,0.317278,0.713425
-0.247525,-0.483906,0.882339,0.090879,0.021269,0.276695,0.713425
-0.358883,-0.279096,0.947794,0.0214953,0.00587755,0.166526,0.713425
-0.370079,-0.21202,0.819274,-0.0724031,0.00452811,0.0521365,0.713425
-0.299412,-0.148622,0.597956,-0.146044,-0.00422612,-0.025965,0.713425
-0.235853,0.140586,0.372062,-0.214595,-0.0337884,-0.0644191,0.713425
-0.240298,0.509631,0.0310257,-0.313648,-0.071648,-0.0895003,0.713425
-0.279206,0.500835,-0.369122,-0.316833,-0.094578,-0.150023,0.713425
-0.284812,0.262286,-0.499895,-0.211313,-0.110393,-0.211762,0.713425
-0.516787,0.2075,-0.364789,-0.136765,-0.163006,-0.205466,0.713425
-0.969961,0.172301,-0.191119,-0.0822303,-0.146178,-0.202219,0.713425
-1.19125,0.135174,-0.176624,-0.148966,-0.142672,-0.302771,0.713425
-0.951887,0.124088,-0.268845,-0.233264,-0.146389,-0.454806,0.713425
-0.404569,0.0631018,-0.478881,-0.257572,-0.111567,-0.53973,0.713425
0.174902,-0.0919758,-0.624506,-0.172183,-0.0549173,-0.511794,0.713425
0.625565,-0.251919,-0.530716,-0.0490422,-0.0207785,-0.399423,0.713425
0.805839,-0.234773,-0.265025,-0.0158508,-0.03959,-0.237345,0.713425
0.783225,-0.193889,-0.0964001,-0.0810424,-0.0427392,-0.0929273,0.713425
0.771397,-0.31267,-0.0397035,-0.0949832,0.0219998,-0.0216427,0.713425
0.758984,-0.530205,-0.0167945,-0.0653617,0.0916017,0.0331457,0.713425
0.671373,-0.744519,0.0281863,-0.0145954,0.123484,0.106775,0.713425
0.571626,-0.84326,0.181849,0.0613131,0.139145,0.163049,0.713425
0.483375,-0.766075,0.358393,0.0792367,0.135031,0.21376,0.713425
0.49625,-0.587503,0.425733,0.020706,0.141107,0.242882,0.713425
0.532488,-0.417158,0.378913,-0.0187611,0.180136,0.272931,0.713425
0.529886,-0.275736,0.291845,-0.0510923,0.20162,0.29918,0.713425
0.438122,-0.193013,0.253114,-0.0520699,0.199958,0.307802,0.713425
0.227422,-0.166869,0.2593,-0.0424118,0.170979,0.310693,0.713425
-0.0435653,-0.0437014,0.311309,-0.0288863,0.106754,0.265135,0.713425
-0.313661,-0.0150154,0.356144,-0.0462761,0.0410797,0.175063,0.713425
-0.439354,-0.0534413,0.280131,-0.100798,0.021875,0.0596896,0.713425
-0.404684,-0.109217,-0.0319813,-0.150114,0.0300952,-0.0251969,0.713425
-0.223856,-0.177964,-0.446875,-0.160595,0.0280605,-0.0870008,0.713425
-0.0379853,-0.190282,-0.720971,-0.083705,-0.00390038,-0.103445,0.713425
0.0838502,-0.029231,-0.721999,0.0387684,-0.0600122,-0.081785,0.713425
0.170383,0.161792,-0.536443,0.152488,-0.105425,-0.0785874,0.713425
0.143273,0.400045,-0.333774,0.222927,-0.117371,-0.0702421,0.713425
0.0239751,0.512234,-0.11927,0.243339,-0.117518,-0.0674266,0.713425
-0.152311,0.646671,0.0598638,0.215033,-0.14416,-0.0892504,0.713425
-0.26147,0.624984,0.0907491,0.124779,-0.1746,-0.156317,0.713425
-0.26147,0.624984,0.0907491,0.124779,-0.1746,-0.156317,0.972382
-0.14027,0.530834,-0.0600153,0.053874,-0.206937,-0.26133,0.972382
0.199643,0.507366,-0.185028,0.07309,-0.214884,-0.330644,0.972382
0.543633,0.551746,-0.210228,0.181356,-0.190099,-0.323182,0.972382
0.642772,0.725515,-0.163491,0.262905,-0.16376,-0.223676,0.972382
0.457482,0.903962,-0.0274593,0.319806,-0.143071,-0.1271,0.972382
0.142937,0.95528,0.192907,0.38175,-0.117741,-0.10199,0.972382
-0.123707,0.790146,0.542132,0.4648,-0.0909695,-0.154927,0.972382
-0.154433,0.431707,0.96289,0.549358,-0.0228376,-0.240804,0.972382
0.0583015,0.183702,1.22032,0.533257,0.0874956,-0.268029,0.972382
0.494676,0.315066,1.23451,0.426173,0.168729,-0.232069,0.972382
1.09527,0.694192,1.15987,0.363111,0.230481,-0.188972,0.972382
1.69562,0.889658,1.07415,0.324026,0.297141,-0.111517,0.972382
2.03173,0.933796,0.97634,0.288397,0.3515,0.0274941,0.972382
1.99844,0.805647,0.825473,0.258375,0.396088,0.201038,0.972382
1.73232,0.69248,0.707001,0.260301,0.42256,0.352498,0.972382
1.46069,0.823723,0.711075,0.293107,0.428155,0.45146,0.972382
1.34251,1.2086,0.820912,0.312797,0.423722,0.489435,0.972382
1.32354,1.62276,0.966108,0.291445,0.434786,0.501272,0.972382
1.15516,1.90801,1.10348,0.26975,0.478592,0.525754,0.972382
0.811546,2.10938,1.14155,0.186292,0.512321,0.523261,0.972382
0.540628,1.91338,1.06125,0.107509,0.508638,0.429892,0.972382
0.26985,1.53315,0.899467,0.0394201,0.498949,0.332821,0.972382
-0.0727152,1.15136,0.671035,0.0201665,0.480319,0.252901,0.972382
-0.375166,0.802747,0.452964,0.00502273,0.435341,0.171722,0.972382
-0.674556,0.754093,0.274823,-0.00558725,0.374487,0.0975198,0.972382
-0.810203,0.868127,0.0982201,-0.0600007,0.290843,-0.00460529,0.972382
-0.911351,1.0176,-0.00813755,-0.115834,0.189249,-0.0773633,0.972382
-1.19382,1.19028,-0.162888,-0.181028,0.0705374,-0.078265,0.972382
-1.63586,1.54653,-0.283371,-0.218142,-0.0761699,-0.0985821,0.972382
-2.00076,2.05185,-0.188738,-0.165168,-0.210551,-0.221096,0.972382
-2.21695,2.25851,0.267316,-0.0175029,-0.325592,-0.443344,0.972382
-2.37819,1.99237,0.908786,0.0851401,-0.375409,-0.641021,0.972382
-2.47833,1.25785,1.44259,0.0429,-0.390331,-0.758473,0.972382
-2.41327,0.601618,1.75319,-0.086447,-0.367613,-0.840554,0.972382
-2.11803,0.251288,1.85916,-0.230772,-0.366609,-0.891479,0.972382
-1.54088,0.103476,1.72251,-0.367115,-0.353242,-0.928251,0.972382
-0.676904,-0.00087646,1.3803,-0.441476,-0.280844,-0.913232,0.972382
0.359006,-0.0669855,0.918741,-0.457614,-0.192636,-0.816635,0.972382
1.19572,-0.122713,0.507192,-0.442187,-0.130669,-0.624653,0.972382
1.54431,-0.262435,0.235911,-0.411235,-0.110151,-0.371824,0.972382
1.46922,-0.416076,0.0614434,-0.358648,-0.099939,-0.14264,0.972382
1.17029,-0.582802,-0.00787254,-0.286278,-0.102744,0.00181788,0.972382
0.872217,-0.675942,0.0451895,-0.194214,-0.115518,0.0557895,0.972382
0.774893,-0.743929,0.119704,-0.144033,-0.0994509,0.0429206,0.972382
0.8589,-0.849154,0.10881,-0.135778,-0.0415884,0.0342671,0.972382
0.980997,-0.992505,-0.0456627,-0.1531,0.0228584,0.0752489,0.972382
1.0337,-0.999333,-0.26877,-0.147167,0.0871505,0.148929,0.972382
1.10694,-0.994212,-0.47284,-0.133987,0.131419,0.210697,0.972382
1.12901,-0.865924,-0.615449,-0.101751,0.170688,0.273357,0.972382
1.11445,-0.721072,-0.6708,-0.0693237,0.177146,0.307512,0.972382
1.09543,-0.642013,-0.747109,-0.0654375,0.193683,0.332183,0.972382
0.990191,-0.609416,-0.880939,-0.0730966,0.236227,0.372346,0.972382
0.753605,-0.524593,-1.02232,-0.0653858,0.258689,0.415031,0.972382
0.524465,-0.579953,-1.09678,-0.0537448,0.239302,0.40312,0.972382
0.524465,-0.579953,-1.09678,-0.0537448,0.239302,0.40312,1.05957
0.336404,-0.627545,-1.13586,-0.0181143,0.242545,0.389242,1.05957
0.20799,-0.412648,-1.15125,0.0173086,0.252761,0.374382,1.05957
0.236759,-0.219502,-1.099,0.0321248,0.22174,0.296892,1.05957
0.260053,-0.196195,-1.06993,0.0354016,0.217183,0.249192,1.05957
0.132152,-0.28387,-1.03909,0.0385161,0.225216,0.257627,1.05957
-0.136943,-0.364097,-1.00257,0.0196798,0.196836,0.258581,1.05957
-0.434704,-0.521835,-0.977624,0.000569172,0.158266,0.233058,1.05957
-0.803436,-0.687666,-0.837419,0.0238932,0.105959,0.209587,1.05957
-1.23064,-0.779487,-0.689757,-0.00688547,0.0192367,0.118791,1.05957
-1.66525,-0.616838,-0.6315,-0.0482232,-0.046627,-0.00633258,1.05957
-1.86923,-0.342336,-0.611535,-0.0732177,-0.111122,-0.195998,1.05957
-1.7765,-0.227487,-0.661351,-0.113455,-0.132802,-0.442555,1.05957
-1.60223,-0.326465,-0.757479,-0.134371,-0.145338,-0.637436,1.05957
-1.54245,-0.501052,-0.780387,-0.0844656,-0.184354,-0.722261,1.05957
-1.56637,-0.443645,-0.739108,-0.0157714,-0.218084,-0.719582,1.05957
-1.37774,-0.204244,-0.648002,0.0566672,-0.214961,-0.713071,1.05957
-0.944265,-0.0684894,-0.605181,0.0861499,-0.185069,-0.693592,1.05957
-0.548217,-0.02488,-0.67525,0.0835555,-0.178505,-0.59705,1.05957
-0.297766,0.00149871,-0.752945,0.121817,-0.155869,-0.451296,1.05957
-0.100495,-0.108007,-0.73033,0.187242,-0.134992,-0.336592,1.05957
0.160536,-0.473623,-0.59898,0.258324,-0.109253,-0.260376,1.05957
0.44059,-0.966356,-0.464288,0.311428,-0.0384559,-0.157114,1.05957
0.671827,-1.42446,-0.428996,0.345573,0.0462247,-0.0241262,1.05957
0.818357,-1.64492,-0.395583,0.361451,0.103623,0.102406,1.05957
0.985927,-1.52584,-0.325255,0.367046,0.124608,0.160201,1.05957
1.19263,-1.16414,-0.231656,0.375688,0.162467,0.166211,1.05957
1.3079,-0.744488,0.0567969,0.440065,0.218993,0.167825,1.05957
1.08643,-0.340881,0.604324,0.503262,0.221365,0.196458,1.05957
0.526808,0.14681,1.35713,0.508715,0.178047,0.202182,1.05957
-0.12851,0.599941,2.10369,0.460768,0.146279,0.166825,1.05957
-0.625325,0.757726,2.55919,0.36488,0.190222,0.0748615,1.05957
-0.75935,0.643988,2.69875,0.284769,0.277847,-0.0458873,1.05957
-0.455408,0.298441,2.52207,0.237774,0.321952,-0.162363,1.05957
0.0525791,0.0280146,2.24923,0.23649,0.324221,-0.172507,1.05957
0.528399,0.0102255,2.06909,0.26146,0.278933,-0.0993613,1.05957
0.858871,0.169745,2.01925,0.279413,0.200591,0.00327229,1.05957
0.982978,0.375575,2.00406,0.27828,0.151552,0.112202,1.05957
0.959246,0.496469,1.98673,0.282839,0.138466,0.200196,1.05957
0.896524,0.559419,1.96213,0.277844,0.129256,0.256473,1.05957
0.875252,0.624276,1.98971,0.278304,0.11296,0.279576,1.05957
0.928619,0.610426,2.03394,0.283189,0.102279,0.273905,1.05957
0.95571,0.710525,2.09504,0.276285,0.0964021,0.280237,1.05957
0.92235,0.874361,2.13188,0.230866,0.0906085,0.287579,1.05957
0.87549,0.966343,2.07397,0.166209,0.0942712,0.258752,1.05957
0.747644,1.14935,2.0285,0.153199,0.0980622,0.245607,1.05957
0.562049,1.40841,2.02471,0.123946,0.0606228,0.210138,1.05957
0.414944,1.59329,2.0279,0.104037,0.0354669,0.126312,1.05957
0.38398,1.63331,2.06649,0.0926055,0.0280617,-0.00506103,1.05957
0.369712,1.55108,2.19959,0.115409,0.00451958,-0.128893,1.05957
0.216475,1.33435,2.33755,0.0897171,-0.0129938,-0.186595,1.05957
-0.105185,0.9751,2.40272,0.0385335,-0.0223452,-0.182984,1.05957
-0.363993,0.560244,2.39891,-0.00327396,-0.0285087,-0.210586,1.05957
-0.379066,0.312304,2.28161,-0.0549264,-0.0195984,-0.252199,1.05957
-0.157263,0.256515,2.0282,-0.126928,-0.013201,-0.285924,1.05957
-0.157263,0.256515,2.0282,-0.126928,-0.013201,-0.285924,1.3423
0.126942,0.284643,1.75361,-0.182036,-0.0280062,-0.283355,1.3423
0.223459,0.3253,1.54263,-0.186876,-0.0514485,-0.235964,1.3423
0.145233,0.314284,1.37137,-0.185076,-0.0833289,-0.191798,1.3423
0.00391762,0.313051,1.19934,-0.203044,-0.108588,-0.195527,1.3423
-0.138927,0.541528,1.0288,-0.242453,-0.144437,-0.223714,1.3423
-0.177468,0.800085,0.926986,-0.250151,-0.202213,-0.292562,1.3423
0.0326078,0.953092,0.830529,-0.225458,-0.212594,-0.407611,1.3423
0.433944,0.815635,0.642016,-0.224359,-0.157977,-0.487413,1.3423
0.84608,0.426308,0.448561,-0.210589,-0.104314,-0.484739,1.3423
1.10605,-0.0265545,0.259833,-0.19138,-0.0583413,-0.3933,1.3423
1.22707,-0.222916,0.122607,-0.173643,-0.0240209,-0.26092,1.3423
1.23445,-0.199148,0.0254037,-0.162397,-0.00613737,-0.165482,1.3423
1.13622,-0.139989,0.0367593,-0.0964952,0.0228329,-0.11774,1.3423
1.03478,-0.04445,0.118599,-0.0288802,0.058723,-0.118137,1.3423
0.997842,0.0446608,0.216881,0.00751385,0.108771,-0.142178,1.3423
0.956121,0.121753,0.239396,0.00441845,0.172002,-0.148262,1.3423
0.902884,0.0952793,0.170125,-0.0165453,0.22133,-0.125124,1.3423
0.871402,-0.020027,0.0589421,-0.0126516,0.265227,-0.0756905,1.3423
0.838644,-0.123442,-0.0201838,0.00788249,0.280739,0.00736713,1.3423
0.777281,-0.237283,-0.00969042,0.0408343,0.284354,0.0974904,1.3423
0.647479,-0.454848,0.0730124,0.0787519,0.291714,0.178276,1.3423
0.425615,-0.69369,0.141237,0.10878,0.320158,0.2699,1.3423
0.174323,-0.741114,0.128556,0.0983601,0.3444,0.345107,1.3423
-0.0428401,-0.511657,0.0706326,0.0731599,0.338155,0.389515,1.3423
-0.220852,-0.105844,-0.0399567,0.0264912,0.318675,0.403413,1.3423
-0.317379,0.148704,-0.234862,-0.0239081,0.310146,0.37025,1.3423
-0.336083,0.247516,-0.379502,-0.0124634,0.320838,0.306743,1.3423
-0.250215,0.0947694,-0.488774,-0.000986174,0.325476,0.234526,1.3423
-0.205929,-0.0525379,-0.612075,-0.0116694,0.271645,0.191462,1.3423
-0.21193,0.00618051,-0.673285,-0.00119855,0.225847,0.17837,1.3423
-0.19256,0.209398,-0.681685,0.00934264,0.173252,0.138269,1.3423
-0.191683,0.365843,-0.597648,0.0322899,0.116745,0.0770337,1.3423
-0.30085,0.349464,-0.437017,0.0628381,0.074419,0.0204507,1.3423
-0.524625,0.261633,-0.312378,0.0552122,0.0525837,-0.00701022,1.3423
-0.794975,0.161904,-0.248245,0.0245107,0.0266787,-0.0426881,1.3423
-0.955558,0.105063,-0.235508,0.00906409,-0.00194353,-0.114904,1.3423
-0.972184,0.178632,-0.163924,0.0340022,-0.0334934,-0.197707,1.3423
-0.954407,0.404168,-0.0325962,0.050703,-0.0818341,-0.269035,1.3423
-0.949275,0.671593,0.0515317,0.0183505,-0.115632,-0.342487,1.3423
-0.959209,0.734673,0.115598,0.000172324,-0.116382,-0.424964,1.3423
-0.969013,0.621655,0.17851,0.010628,-0.115198,-0.493868,1.3423
-0.833025,0.458675,0.208708,0.0179901,-0.0893746,-0.526979,1.3423
-0.521963,0.320556,0.133651,0.00628997,-0.0489359,-0.514039,1.3423
-0.19148,0.34202,-0.0582435,-0.0198669,-0.0464913,-0.45716,1.3423
0.0550357,0.50648,-0.199523,0.00591735,-0.061601,-0.371239,1.3423
0.237675,0.822171,-0.149535,0.101197,-0.072558,-0.302401,1.3423
0.365163,0.910705,0.0476955,0.18793,-0.062418,-0.253054,1.3423
0.440592,0.592826,0.287515,0.236293,-0.0318453,-0.204812,1.3423
0.407462,0.0386906,0.483006,0.249646,0.0245396,-0.112986,1.3423
0.286438,-0.363521,0.593012,0.228556,0.0741384,0.0185564,1.3423
0.151331,-0.395619,0.639406,0.196198,0.103106,0.138063,1.3423
0.117629,-0.0569178,0.623456,0.173449,0.130941,0.209614,1.3423
0.228973,0.484546,0.550509,0.141517,0.146196,0.229656,1.3423
0.386459,0.816696,0.500088,0.135131,0.159858,0.22676,1.3423
0.386459,0.816696,0.500088,0.135131,0.159858,0.22676,1.55898
0.424039,0.767848,0.554816,0.155446,0.160186,0.244636,1.55898
0.32398,0.478637,0.684438,0.169709,0.151577,0.29899,1.55898
0.207593,0.12511,0.805218,0.159432,0.157212,0.365445,1.55898
0.155117,-0.109947,0.883931,0.135922,0.179516,0.434564,1.55898
0.116553,-0.140581,0.932521,0.111296,0.193748,0.508873,1.55898
-0.0242809,0.0105101,0.947551,0.0719272,0.190822,0.57273,1.55898
-0.319152,0.247716,0.879448,0.0098813,0.1506,0.590234,1.55898
-0.685057,0.619416,0.73626,-0.0573656,0.0939497,0.504208,1.55898
-0.944276,1.05047,0.594131,-0.117272,0.034294,0.295843,1.55898
-1.06337,1.20478,0.470406,-0.0927207,-0.00600129,0.0364516,1.55898
-1.11383,1.10474,0.427913,-0.106803,-0.0832151,-0.236708,1.55898
-1.24188,0.74125,0.484612,-0.132805,-0.187464,-0.421629,1.55898
-1.34759,0.419917,0.543318,-0.175139,-0.276538,-0.579463,1.55898
-1.12641,0.0536299,0.46185,-0.221842,-0.308476,-0.763664,1.55898
-0.646821,-0.221551,0.279596,-0.198645,-0.250849,-0.845646,1.55898
-0.113038,-0.451875,0.0352323,-0.179813,-0.211737,-0.806292,1.55898
0.327791,-0.650857,-0.13507,-0.171231,-0.21633,-0.663332,1.55898
0.629639,-0.902337,-0.20304,-0.136662,-0.20897,-0.454446,1.55898
0.785148,-1.16061,-0.280434,-0.108635,-0.176693,-0.211755,1.55898
0.857038,-1.20756,-0.390504,-0.0980228,-0.126518,0.0119678,1.55898
0.930251,-0.930465,-0.507912,-0.0980787,-0.0872139,0.189049,1.55898
1.03937,-0.438623,-0.623472,-0.110862,-0.0563165,0.294312,1.55898
1.17555,-0.0901738,-0.669988,-0.131785,-0.0291757,0.317561,1.55898
1.2169,0.0335738,-0.722057,-0.14816,0.0174454,0.320147,1.55898
0.987406,0.0572731,-0.816829,-0.170111,0.0520395,0.346121,1.55898
0.542888,0.11467,-0.90479,-0.183242,0.0510006,0.352793,1.55898
0.185592,0.211995,-0.929374,-0.167283,0.0343117,0.254294,1.55898
0.0951683,0.299493,-0.837491,-0.106813,0.0413026,0.105313,1.55898
0.342075,0.190744,-0.709786,-0.0703035,0.0740857,-0.0313118,1.55898
0.670386,-0.119442,-0.639199,-0.0637291,0.136943,-0.0595585,1.55898
0.764028,-0.471033,-0.681996,-0.0816436,0.18514,0.056392,1.55898
0.63523,-0.690848,-0.768176,-0.0855954,0.208745,0.206154,1.55898
0.441302,-0.70643,-0.804173,-0.0741387,0.213073,0.310972,1.55898
0.273173,-0.609696,-0.780936,-0.0484237,0.205147,0.370278,1.55898
0.143215,-0.53532,-0.688438,-0.00681925,0.198816,0.389015,1.55898
-0.00811612,-0.421382,-0.609465,-0.0021517,0.200616,0.387858,1.55898
-0.210658,-0.313601,-0.611912,-0.0605444,0.196436,0.364616,1.55898
-0.548168,-0.284662,-0.682721,-0.118745,0.184629,0.29086,1.55898
-0.957356,-0.298245,-0.852521,-0.193656,0.175827,0.121494,1.55898
-1.24824,-0.274595,-0.893003,-0.137691,0.134322,-0.133047,1.55898
-1.10783,-0.227825,-0.756594,-0.0543062,0.0783617,-0.476987,1.55898
-0.608991,-0.283292,-0.595896,-0.0131631,0.0556736,-0.726087,1.55898
-0.282582,-0.463574,-0.446044,0.0126927,0.0579034,-0.727708,1.55898
-0.385933,-0.657826,-0.362415,0.0266048,0.0444029,-0.548144,1.55898
-0.653301,-0.652495,-0.309526,0.00901231,-0.00958166,-0.376011,1.55898
-0.788966,-0.422406,-0.22819,0.00804546,-0.069824,-0.283922,1.55898
-0.70126,-0.128942,-0.128074,0.0482254,-0.0975674,-0.240432,1.55898
-0.517358,0.137518,-0.0630749,0.0976955,-0.102237,-0.181847,1.55898
-0.402937,0.366651,0.0394709,0.150359,-0.0916725,-0.0932098,1.55898
-0.482649,0.47298,0.174043,0.191856,-0.0796653,0.00701636,1.55898
-0.721695,0.427535,0.329363,0.206381,-0.0843856,0.0688134,1.55898
-0.951483,0.216568,0.473329,0.222186,-0.088007,0.0762007,1.55898
-0.978929,-0.0692192,0.554794,0.231277,-0.0716235,0.027006,1.55898
-0.978929,-0.0692192,0.554794,0.231277,-0.0716235,0.027006,1.78357
-0.735386,-0.31164,0.554005,0.236125,-0.0441442,-0.0289255,1.78357
-0.3631,-0.287691,0.467334,0.224973,-0.017434,-0.0396031,1.78357
-0.00274373,-0.0461338,0.357863,0.209293,-0.00823684,-0.00663251,1.78357
0.298914,0.220875,0.335465,0.235701,-0.0186035,0.0293648,1.78357
0.511607,0.408386,0.41744,0.272205,-0.0119523,0.0754362,1.78357
0.613577,0.441261,0.536788,0.277251,-0.00611733,0.1367,1.78357
0.629395,0.309185,0.661605,0.24947,0.0100556,0.207413,1.78357
0.5814,0.102066,0.741554,0.206823,0.0269795,0.286696,1.78357
0.530366,-0.00526016,0.793722,0.175339,0.047202,0.357268,1.78357
0.51557,0.0330248,0.834055,0.147516,0.0571833,0.406613,1.78357
0.4631,0.187346,0.846258,0.107497,0.0654525,0.450128,1.78357
0.385385,0.430619,0.806846,0.0539523,0.0713722,0.462877,1.78357
0.336814,0.694308,0.744864,0.00615518,0.0627547,0.406373,1.78357
0.250424,0.915175,0.727446,0.00282182,0.0655836,0.312081,1.78357
0.0641687,1.02653,0.74863,-0.0119276,0.0303226,0.196478,1.78357
-0.0345997,0.82035,0.853104,-0.0357471,-0.0315301,0.0315834,1.78357
-0.169308,0.446847,0.997488,-0.0306788,-0.0568013,-0.0967182,1.78357
-0.453649,0.200937,1.04407,-0.0757727,-0.086081,-0.138621,1.78357
-0.726671,0.238239,0.991493,-0.133962,-0.125247,-0.184671,1.78357
-0.743869,0.338287,0.929754,-0.126273,-0.153337,-0.319284,1.78357
-0.540657,0.396424,0.896732,-0.0780754,-0.143299,-0.456883,1.78357
-0.299234,0.320319,0.771197,-0.0954879,-0.132632,-0.512133,1.78357
0.0179266,-0.00286977,0.527196,-0.128619,-0.120513,-0.506706,1.78357
0.323673,-0.539472,0.269002,-0.128881,-0.102782,-0.440494,1.78357
0.461521,-0.870812,0.0605772,-0.128294,-0.0980542,-0.297758,1.78357
0.441077,-0.913123,-0.066352,-0.113534,-0.119395,-0.154723,1.78357
0.315765,-0.699784,-0.12849,-0.099694,-0.127382,-0.0687326,1.78357
0.159377,-0.263528,-0.11964,-0.103294,-0.122688,-0.0359657,1.78357
0.0600876,0.0644348,-0.141235,-0.0925548,-0.0836503,-0.0783565,1.78357
0.0404642,0.0752481,-0.187144,-0.0774308,-0.0108424,-0.148107,1.78357
0.166445,-0.111408,-0.281313,-0.0940249,0.0397204,-0.193393,1.78357
0.383129,-0.266969,-0.466602,-0.12763,0.0917816,-0.17472,1.78357
0.54137,-0.351117,-0.70565,-0.137853,0.143069,-0.088492,1.78357
0.589009,-0.377361,-0.869889,-0.118963,0.164012,0.0354565,1.78357
0.553206,-0.370357,-0.922009,-0.0793912,0.165974,0.162595,1.78357
0.488877,-0.312535,-0.911305,-0.0454096,0.168258,0.270676,1.78357
0.384633,-0.291211,-0.871633,-0.0385153,0.172351,0.369753,1.78357
0.202822,-0.280445,-0.850936,-0.0452907,0.174096,0.461556,1.78357
-0.0188039,-0.197668,-0.845998,-0.0610559,0.166025,0.52406,1.78357
-0.232877,-0.0150613,-0.849153,-0.0729161,0.153914,0.550788,1.78357
-0.395167,0.235165,-0.868043,-0.0950169,0.140631,0.535936,1.78357
-0.499102,0.386609,-0.899742,-0.117589,0.127212,0.485954,1.78357
-0.512132,0.31701,-0.919875,-0.0957939,0.129398,0.403716,1.78357
-0.432306,0.186358,-0.944623,-0.100702,0.136948,0.321776,1.78357
-0.346483,0.0157319,-1.011,-0.137289,0.120926,0.266746,1.78357
-0.420813,0.0532058,-1.11868,-0.167144,0.091143,0.267904,1.78357
-0.63015,0.266468,-1.17822,-0.167376,0.043773,0.240484,1.78357
-0.880416,0.650003,-1.11973,-0.11369,-0.00428508,0.147278,1.78357
-1.04173,1.00129,-0.827223,-0.0108972,-0.0632061,-0.0494291,1.78357
-1.08778,1.16622,-0.404536,0.0846035,-0.0912646,-0.298285,1.78357
-1.0762,0.992287,-0.116562,0.104895,-0.0603402,-0.536839,1.78357
-0.981739,0.497843,-0.0233712,0.0963287,-0.018713,-0.718124,1.78357
-0.739131,-0.090547,-0.0836404,0.0961538,0.00784364,-0.818951,1.78357
-0.37273,-0.386967,-0.13588,0.139553,0.0136537,-0.830422,1.78357
-0.37273,-0.386967,-0.13588,0.139553,0.0136537,-0.830422,2.00288
0.00687665,-0.319051,-0.0897393,0.20195,-0.00915856,-0.760629,2.00288
0.334117,-0.226302,0.00923711,0.256721,-0.0216139,-0.649214,2.00288
0.541807,-0.337019,0.175777,0.327055,-0.0161189,-0.506848,2.00288
0.552532,-0.50228,0.388703,0.360049,0.00200796,-0.320014,2.00288
0.322707,-0.392959,0.615552,0.335575,-0.0055057,-0.153127,2.00288
-0.0397483,-0.12634,0.833738,0.306701,-0.0384777,-0.0551816,2.00288
-0.341579,-0.0596863,1.12532,0.331304,-0.041481,-0.0359424,2.00288
-0.395415,-0.182823,1.39095,0.34451,0.002821,-0.0695404,2.00288
-0.238316,-0.405623,1.47543,0.307687,0.0480356,-0.0760608,2.00288
-0.048688,-0.527094,1.40216,0.270919,0.0969019,-0.015083,2.00288
0.0679058,-0.523443,1.27712,0.258971,0.112399,0.0622213,2.00288
0.0804067,-0.312873,1.16629,0.271827,0.107494,0.141464,2.00288
0.111268,-0.0409234,1.15431,0.304029,0.065454,0.171663,2.00288
0.272113,0.176862,1.2758,0.318174,0.0392175,0.164758,2.00288
0.486774,0.277309,1.42313,0.286742,0.0416316,0.183599,2.00288
0.621065,0.330674,1.46798,0.204992,0.0659434,0.249044,2.00288
0.651735,0.322382,1.44893,0.139237,0.0924509,0.345968,2.00288
0.545546,0.316108,1.39386,0.103468,0.113504,0.449959,2.00288
0.36227,0.292165,1.32393,0.0733619,0.11442,0.534558,2.00288
0.223432,0.191119,1.28951,0.0640432,0.0970365,0.557249,2.00288
0.180283,0.0592681,1.28768,0.0656742,0.0851486,0.528417,2.00288
0.185078,0.04426,1.26048,0.0422759,0.0851049,0.51278,2.00288
0.150701,0.0862497,1.24755,0.0172211,0.0786116,0.51645,2.00288
-0.0419984,0.184766,1.24528,0.00346672,0.0637766,0.509103,2.00288
-0.312702,0.315762,1.24356,-0.00440719,0.0176143,0.456818,2.00288
-0.486037,0.577437,1.25316,-0.0306717,-0.0212656,0.34757,2.00288
-0.562286,0.840882,1.27534,-0.0480135,-0.0504873,0.209042,2.00288
-0.598476,0.760629,1.331,-0.0268375,-0.0585915,0.0749102,2.00288
-0.758081,0.389536,1.34125,-0.0239554,-0.0628457,-0.0254091,2.00288
-1.02138,-0.00102616,1.26852,-0.0209125,-0.0844023,-0.0969382,2.00288
-1.20197,-0.10133,1.15186,-0.0553204,-0.117151,-0.175653,2.00288
-1.15715,-0.125353,1.03131,-0.0885226,-0.141651,-0.283485,2.00288
-0.984301,-0.197027,0.867887,-0.11666,-0.15792,-0.381416,2.00288
-0.821228,-0.299332,0.634084,-0.126044,-0.168794,-0.446198,2.00288
-0.660333,-0.255952,0.360522,-0.121881,-0.159882,-0.491517,2.00288
-0.45305,-0.303959,0.145266,-0.0976086,-0.165459,-0.554922,2.00288
-0.241705,-0.323801,0.0458296,-0.0266126,-0.170119,-0.581735,2.00288
0.0246119,-0.1947,0.0404017,0.0348216,-0.157482,-0.564721,2.00288
0.334957,-0.156504,0.120035,0.0708077,-0.130049,-0.517411,2.00288
0.574412,-0.347475,0.130923,0.0427899,-0.0899658,-0.411142,2.00288
0.697083,-0.616071,0.0890021,0.0154014,-0.0397502,-0.24987,2.00288
0.707912,-0.784009,0.0520814,-0.000287153,0.0019822,-0.091229,2.00288
0.603938,-0.729403,0.000483999,-0.0150775,0.0245493,0.0290323,2.00288
0.447522,-0.448453,-0.00671388,-0.0181184,0.0411609,0.0760009,2.00288
0.317063,-0.107085,0.101468,0.01339,0.0477332,0.0431702,2.00288
0.260662,0.173069,0.307712,0.0612442,0.0547821,-0.0576711,2.00288
0.259421,0.240929,0.523887,0.0840176,0.0845115,-0.146449,2.00288
0.291056,0.0551019,0.607612,0.0572433,0.130338,-0.203743,2.00288
0.383042,-0.253551,0.564847,0.0298053,0.169607,-0.214751,2.00288
0.460303,-0.419115,0.437008,0.0189909,0.188779,-0.157416,2.00288
0.521864,-0.401485,0.315478,0.00398016,0.171444,-0.056833,2.00288
0.611822,-0.259209,0.288981,0.023651,0.132155,0.0247508,2.00288
0.659619,-0.157695,0.334783,0.0524825,0.0972965,0.0933807,2.00288
0.642453,-0.145132,0.400688,0.0752658,0.0781367,0.15875,2.00288
0.642453,-0.145132,0.400688,0.0752658,0.0781367,0.15875,2.22484
0.624372,-0.214263,0.428823,0.0632934,0.0791354,0.205012,2.22484
0.566662,-0.250615,0.448004,0.0554924,0.084863,0.254225,2.22484
0.443069,-0.172359,0.456682,0.0613081,0.0766682,0.28946,2.22484
0.366258,-0.0729766,0.476646,0.079862,0.0697292,0.276183,2.22484
0.34663,-0.0220576,0.536427,0.102676,0.0660616,0.251799,2.22484
0.311812,-0.0948033,0.589495,0.113799,0.0718056,0.259267,2.22484
0.252655,-0.26755,0.675468,0.135234,0.0747558,0.249191,2.22484
0.220145,-0.412452,0.724233,0.145401,0.0929993,0.210958,2.22484
0.71629,-0.261098,0.699569,0.0966994,0.135683,0.208189,2.22484
0.905329,0.23933,0.558344,0.0200474,0.14203,0.222061,2.22484
0.621522,0.508989,0.296639,0.0301992,0.125138,0.29072,2.22484
0.117198,0.234117,0.317286,0.0914465,0.0701284,0.336618,2.22484
-0.191603,0.0213021,0.385757,0.151846,0.061863,0.315147,2.22484
