rotationRate_x,rotationRate_y,rotationRate_z,acceleration_x,acceleration_y,acceleration_z,relativeAltitude
-0.235898,0.0384866,0.67017,0.0571379,-0.00764579,-0.0827354,1.78885
-0.0670938,-0.202171,0.660824,0.0741013,-0.00278133,-0.0746576,1.78885
0.161415,-0.131807,0.599638,0.0263719,-0.005124,-0.111144,1.78885
0.223177,0.0170109,0.504444,0.00941944,-0.0141659,-0.0737222,1.78885
0.109014,0.190796,0.417209,0.00853909,-0.0232686,-0.0155459,1.78885
-0.0380259,0.275459,0.35028,0.0245498,-0.0175355,0.0290162,1.78885
-0.152358,0.29997,0.331012,0.0423319,-0.0151114,0.042919,1.78885
-0.230138,0.206619,0.35331,0.0502042,-0.0035719,0.0507508,1.78885
-0.239947,0.0935609,0.387395,0.0616115,-0.0172703,0.0304264,1.78885
-0.196004,-0.00294771,0.390105,0.0482182,-0.0228722,0.00830823,1.78885
-0.17123,-0.0362507,0.415715,0.0504173,-0.0244461,-0.00359732,1.78885
-0.13562,-0.0420843,0.408962,0.0457179,-0.0331846,-0.0264111,1.78885
-0.0854113,-0.00246145,0.397107,0.0425604,-0.0274502,-0.0475094,1.78885
-0.097841,0.0341861,0.445856,0.0534356,-0.0142007,-0.0345616,1.78885
-0.0730477,0.0562676,0.4946,0.0463428,-0.0205413,-0.0369374,1.78885
0.0302566,0.0427313,0.501465,0.0395949,-0.0317616,-0.0335479,1.78885
0.136673,0.0621175,0.480991,0.032131,-0.0380545,-0.0112001,1.78885
0.148038,0.00682377,0.4761,0.0445651,-0.0387174,0.0440868,1.78885
0.0961826,-0.0701832,0.471934,0.0506284,-0.0459642,0.0816187,1.78885
0.0155504,-0.19475,0.457074,0.0396379,-0.0440772,0.0951812,1.78885
-0.049461,-0.284119,0.431552,0.031522,-0.0522039,0.0806279,1.78885
-0.0450732,-0.281912,0.385077,0.01199,-0.0558881,0.0409322,1.78885
-0.00589637,-0.289126,0.349015,0.0114786,-0.0492502,0.0273324,1.78885
0.0442009,-0.332611,0.350768,0.0260392,-0.046324,0.0333707,1.78885
0.0843491,-0.381718,0.330173,0.0113701,-0.0431281,0.0298526,1.78885
0.0981601,-0.440287,0.2815,0.0125486,-0.0448495,0.0359249,1.78885
0.0822743,-0.478812,0.232687,0.0249053,-0.0395119,0.0450532,1.78885
0.0583233,-0.456909,0.194592,0.0363946,-0.0266728,0.0496,1.78885
-0.00886842,-0.381823,0.149478,0.0361862,-0.0109017,0.0590711,1.78885
-0.118207,-0.23417,0.107615,0.0320459,-0.00211391,0.0621882,1.78885
-0.245713,-0.152056,0.0929165,0.0411377,0.000678122,0.0721408,1.78885
-0.366434,-0.173914,0.0953515,0.0573645,-0.00928652,0.0728158,1.78885
-0.535991,-0.222237,0.046529,0.0534535,-0.0320052,0.0527504,1.78885
-0.731775,-0.293946,-0.0419305,0.0202891,-0.0514427,0.00877237,1.78885
-0.883553,-0.446369,-0.153852,-0.0237241,-0.0467991,-0.059338,1.78885
-0.921714,-0.557335,-0.289085,-0.0462561,-0.0537272,-0.154032,1.78885
-0.841895,-0.492343,-0.395151,-0.0408148,-0.0522901,-0.249267,1.78885
-0.651495,-0.273778,-0.384858,-0.0193494,-0.0232172,-0.303721,1.78885
-0.390853,-0.0157377,-0.287399,-0.0201457,0.0111863,-0.290151,1.78885
-0.11818,0.160726,-0.200014,-0.0390752,0.028068,-0.219504,1.78885
0.10337,0.270321,-0.143872,-0.0650721,0.0334619,-0.112039,1.78885
0.24872,0.261596,-0.112965,-0.09414,0.0403668,-0.00147909,1.78885
0.293403,0.0911861,-0.0905136,-0.119853,0.0543158,0.0824507,1.78885
0.250269,-0.240483,-0.10109,-0.16068,0.0683295,0.120486,1.78885
0.158291,-0.449948,-0.177347,-0.206074,0.0666835,0.110519,1.78885
0.0328931,-0.472796,-0.354622,-0.268382,0.0816608,0.0879471,1.78885
-0.0813197,-0.353232,-0.548297,-0.275208,0.0982591,0.0699894,1.78885
-0.197312,-0.131462,-0.710916,-0.240212,0.111305,0.0828276,1.78885
-0.300665,0.0291378,-0.770783,-0.164868,0.123634,0.127642,1.78885
-0.351048,0.0668573,-0.706469,-0.0875834,0.128801,0.173465,1.78885
-0.390961,-0.00177267,-0.568391,-0.038824,0.122669,0.214506,1.78885
-0.390961,-0.00177267,-0.568391,-0.038824,0.122669,0.214506,0
-0.444463,-0.141732,-0.447149,-0.0204073,0.0878506,0.239278,0
-0.446637,-0.227092,-0.414818,-0.0278303,0.0447134,0.210662,0
-0.459269,-0.289609,-0.411415,-0.019597,0.0137455,0.197694,0
-0.487252,-0.297944,-0.40321,0.000935525,-0.0121663,0.181413,0
-0.585298,-0.308848,-0.386242,0.0285788,-0.0332821,0.173365,0
-0.760659,-0.219966,-0.419651,0.0535573,-0.0712714,0.141581,0
-0.959899,-0.110161,-0.470392,0.0944101,-0.115542,0.0909665,0
-1.11068,-0.00248959,-0.44596,0.162902,-0.131722,0.0180563,0
-1.10418,0.110123,-0.307006,0.226247,-0.125213,-0.0877672,0
-0.968723,0.23964,-0.157817,0.256558,-0.124858,-0.180686,0
-0.798507,0.287001,-0.00758993,0.280396,-0.151067,-0.237067,0
-0.618566,0.305235,0.133359,0.303819,-0.176377,-0.276487,0
-0.434363,0.353811,0.276342,0.323288,-0.191261,-0.304729,0
-0.29398,0.398317,0.447655,0.328092,-0.19965,-0.316296,0
-0.26542,0.399498,0.557019,0.291325,-0.213735,-0.314564,0
-0.39101,0.271705,0.587204,0.253787,-0.250255,-0.318882,0
-0.507896,0.0618185,0.573632,0.24215,-0.272412,-0.376929,0
-0.466054,-0.0101712,0.582831,0.20483,-0.229301,-0.499237,0
-0.35211,0.135032,0.599331,0.145035,-0.151995,-0.595845,0
-0.136413,0.466849,0.762535,0.179589,-0.0940543,-0.644178,0
0.391482,0.847359,1.17611,0.238007,-0.00544636,-0.657881,0
1.10177,1.04982,1.74929,0.226159,0.109609,-0.549117,0
1.67146,0.843268,2.2905,0.127831,0.178379,-0.346811,0
1.97412,0.37518,2.48406,-0.0290221,0.153239,-0.180016,0
2.02993,-0.0621505,2.25773,-0.148736,0.0873557,-0.0942844,0
1.89577,-0.164884,1.83162,-0.209766,0.06682,-0.0603774,0
1.68361,0.0222764,1.45605,-0.20454,0.119997,-0.0400403,0
1.53295,0.338841,1.24846,-0.129194,0.174902,-0.00871092,0
1.46512,0.476757,1.18008,-0.0538234,0.224105,0.0650015,0
1.45704,0.434904,1.18884,-0.00967798,0.26266,0.15259,0
1.45463,0.351308,1.20524,0.0112862,0.280884,0.237498,0
1.45057,0.265707,1.18487,0.0181256,0.287816,0.315501,0
1.41113,0.199853,1.11643,0.0332412,0.284594,0.374577,0
1.31417,0.230954,0.994286,0.0455928,0.282006,0.413159,0
1.14882,0.266497,0.865948,0.0560413,0.303618,0.44163,0
0.935979,0.422995,0.771817,0.0624897,0.351663,0.450622,0
0.653623,0.544345,0.752791,0.0942414,0.373011,0.460062,0
0.344488,0.621022,0.741778,0.0989335,0.382413,0.435104,0
0.086377,0.598088,0.733284,0.0857842,0.369896,0.365952,0
-0.124352,0.531164,0.668658,0.0693231,0.325116,0.268543,0
-0.362388,0.368677,0.573511,0.0570318,0.282812,0.167541,0
-0.656041,0.0815568,0.493902,0.0480215,0.241767,0.0798146,0
-1.14986,-0.460545,0.353081,-0.0293286,0.214363,-0.00691611,0
-1.7043,-1.04449,0.089034,-0.117457,0.114253,-0.182643,0
-1.93038,-1.28307,-0.297448,-0.166483,0.01352,-0.477917,0
-1.76601,-0.847392,-0.54141,-0.225488,0.0448671,-0.762423,0
-1.47187,0.0616061,-0.463625,-0.246513,0.0690585,-0.84828,0
-1.29671,0.684507,-0.392846,-0.301671,0.0206304,-0.71732,0
-1.22507,0.69872,-0.551258,-0.319698,-0.138331,-0.528812,0
-1.19087,0.418543,-0.946943,-0.372836,-0.227234,-0.409579,0
-1.05836,0.236459,-1.37099,-0.36234,-0.249748,-0.379509,0
-1.05836,0.236459,-1.37099,-0.36234,-0.249748,-0.379509,0.0528412
-0.704602,0.349225,-1.535,-0.296533,-0.169892,-0.377291,0.0528412
-0.238913,0.47274,-1.37607,-0.236455,-0.0429271,-0.294366,0.0528412
0.1999,0.455606,-1.02932,-0.216681,0.0445751,-0.168187,0.0528412
0.569422,0.2065,-0.75883,-0.268277,0.0594257,-0.0441923,0.0528412
0.828776,-0.222819,-0.744867,-0.352289,0.0275459,0.0590247,0.0528412
0.889834,-0.56596,-0.958136,-0.417307,0.00585273,0.151418,0.0528412
0.763255,-0.622131,-1.23867,-0.438004,0.0367238,0.230201,0.0528412
0.578514,-0.486104,-1.47039,-0.401878,0.0917041,0.291495,0.0528412
0.417715,-0.289068,-1.6244,-0.336835,0.137674,0.356336,0.0528412
0.314312,-0.195648,-1.68324,-0.268705,0.173109,0.420614,0.0528412
0.286536,-0.257722,-1.66533,-0.208319,0.197255,0.478526,0.0528412
0.296882,-0.483352,-1.6127,-0.15328,0.213428,0.524213,0.0528412
0.329585,-0.77764,-1.52683,-0.104575,0.226031,0.545045,0.0528412
0.360097,-1.01616,-1.43875,-0.0702281,0.243429,0.541876,0.0528412
0.312028,-1.1547,-1.36163,-0.0443132,0.256493,0.537039,0.0528412
0.152904,-1.24022,-1.31797,0.000733852,0.247325,0.520154,0.0528412
-0.0698836,-1.26441,-1.32059,0.0162638,0.230708,0.456283,0.0528412
-0.343357,-1.30994,-1.34257,0.069543,0.192983,0.358666,0.0528412
-0.693734,-1.31833,-1.3243,0.135408,0.139184,0.228696,0.0528412
-1.12191,-1.18813,-1.32973,0.174856,0.0733413,0.0682237,0.0528412
-1.55551,-0.949811,-1.34972,0.163955,0.025204,-0.118307,0.0528412
-1.87196,-0.863471,-1.39167,0.179527,-0.0490568,-0.312684,0.0528412
-1.89692,-0.953087,-1.36202,0.257771,-0.114133,-0.534068,0.0528412
-1.54606,-0.787392,-1.17237,0.339003,-0.133478,-0.7631,0.0528412
-1.07208,-0.251256,-0.811108,0.414916,-0.146011,-0.882665,0.0528412
-0.699184,0.374474,-0.352852,0.46137,-0.17855,-0.859615,0.0528412
-0.504496,0.656108,0.0548337,0.448725,-0.219528,-0.726769,0.0528412
-0.377769,0.636906,0.342815,0.402101,-0.283382,-0.620626,0.0528412
-0.179861,0.596376,0.487907,0.325221,-0.308934,-0.589423,0.0528412
0.131433,0.665551,0.65562,0.301159,-0.269676,-0.559249,0.0528412
0.558696,0.946891,0.919629,0.294006,-0.18527,-0.491943,0.0528412
0.97069,1.30123,1.29598,0.28258,-0.0774646,-0.325394,0.0528412
1.24042,1.47219,1.6852,0.254138,-0.0190854,-0.106733,0.0528412
1.31514,1.16415,1.97525,0.205116,-0.00477344,0.0899274,0.0528412
1.32447,0.521331,2.14726,0.154421,0.00314644,0.168313,0.0528412
1.41153,0.026459,2.18386,0.0637636,0.0326211,0.107353,0.0528412
1.47209,-0.113953,2.13061,-0.0231056,0.0944101,0.0349545,0.0528412
1.46276,-0.0563068,2.01067,-0.0708702,0.130533,-0.00637549,0.0528412
1.43224,0.100101,1.7916,-0.0864023,0.156245,-0.0146201,0.0528412
1.35552,0.206069,1.62964,-0.0563003,0.204986,0.024885,0.0528412
1.27256,0.280315,1.58512,-0.00751662,0.265587,0.0788986,0.0528412
1.19088,0.342429,1.54472,0.0239445,0.288433,0.137273,0.0528412
1.02207,0.384465,1.41793,0.0318925,0.275189,0.215905,0.0528412
0.779972,0.44198,1.23164,0.0557269,0.242503,0.285506,0.0528412
0.507987,0.454593,1.02063,0.0887473,0.22655,0.338704,0.0528412
0.27802,0.427213,0.881438,0.142017,0.23368,0.367813,0.0528412
0.141532,0.373798,0.844705,0.189581,0.253262,0.364955,0.0528412
0.0940275,0.279743,0.894476,0.230811,0.273642,0.348769,0.0528412
0.0749968,0.238498,1.00398,0.264436,0.281949,0.330919,0.0528412
0.0496492,0.242471,1.08791,0.2699,0.260967,0.289791,0.0528412
0.0496492,0.242471,1.08791,0.2699,0.260967,0.289791,0.103058
0.0505227,0.331044,1.07243,0.247147,0.22621,0.216521,0.103058
-0.0106118,0.426043,0.985726,0.243934,0.194006,0.165026,0.103058
-0.112173,0.572367,0.941795,0.277612,0.16322,0.103691,0.103058
-0.286603,0.788951,0.926849,0.270467,0.163805,0.0534791,0.103058
-0.523227,0.859958,0.929183,0.248309,0.129219,0.0119622,0.103058
-0.751419,0.682002,0.828258,0.193018,0.0533328,-0.0587204,0.103058
-1.00585,0.255744,0.610788,0.142292,-0.0124655,-0.16176,0.103058
-1.19359,-0.13696,0.411257,0.10637,-0.0463627,-0.333564,0.103058
-1.13727,-0.226358,0.269981,0.0670241,-0.0465465,-0.574706,0.103058
-0.858691,0.203655,0.240063,-0.0175633,-0.0105556,-0.76467,0.103058
-0.621729,0.809553,0.277054,-0.0997184,0.00646472,-0.777807,0.103058
-0.601456,1.06421,0.171191,-0.188122,-0.0433103,-0.619723,0.103058
-0.724902,0.92423,-0.08845,-0.241683,-0.12522,-0.472695,0.103058
-0.746931,0.802196,-0.370514,-0.297595,-0.128368,-0.435199,0.103058
-0.573527,0.866517,-0.490041,-0.311033,-0.0576857,-0.41778,0.103058
-0.228838,1.04882,-0.401472,-0.29052,0.0437285,-0.343423,0.103058
0.162793,1.16612,-0.164448,-0.285979,0.130784,-0.195659,0.103058
0.461752,0.991473,0.103793,-0.315076,0.158503,-0.0127472,0.103058
0.600615,0.513666,0.256677,-0.372985,0.136236,0.153589,0.103058
0.572168,-0.170269,0.258046,-0.429916,0.107427,0.253979,0.103058
0.468158,-0.750753,0.0867217,-0.476777,0.084185,0.271981,0.103058
0.362736,-0.99442,-0.202911,-0.510766,0.0893746,0.237942,0.103058
0.284788,-0.875219,-0.566799,-0.503961,0.105015,0.219793,0.103058
0.227967,-0.516559,-0.90384,-0.454708,0.124957,0.234778,0.103058
0.194434,-0.141962,-1.13094,-0.375537,0.160378,0.296379,0.103058
0.176693,-0.011635,-1.23384,-0.2862,0.182732,0.391327,0.103058
0.1707,-0.183734,-1.2279,-0.205424,0.190223,0.467934,0.103058
0.180457,-0.534674,-1.16602,-0.134083,0.178529,0.494351,0.103058
0.19372,-0.859623,-1.07416,-0.0928879,0.171812,0.475181,0.103058
0.183367,-1.14384,-0.993886,-0.062878,0.161707,0.414739,0.103058
0.151297,-1.40584,-0.944889,-0.0262768,0.13864,0.329607,0.103058
0.0254413,-1.567,-0.971717,-0.00569662,0.109591,0.233126,0.103058
-0.234028,-1.6103,-1.07449,0.00587156,0.0832613,0.12887,0.103058
-0.603678,-1.49875,-1.24622,-0.021457,0.0634587,0.00716066,0.103058
-0.920979,-1.23216,-1.46187,-0.0134385,0.0254349,-0.122295,0.103058
-1.01405,-0.723991,-1.64875,0.00923339,0.0218644,-0.262148,0.103058
-0.874853,-0.072707,-1.66336,0.0566009,0.060904,-0.322453,0.103058
-0.600591,0.431764,-1.47412,0.134649,0.0908468,-0.263354,0.103058
-0.374131,0.601951,-1.18293,0.194458,0.076266,-0.101524,0.103058
-0.232946,0.575101,-0.885552,0.207196,0.0219219,0.034209,0.103058
-0.142238,0.386344,-0.63795,0.178792,-0.0222358,0.126508,0.103058
-0.0832046,0.122339,-0.471897,0.141048,-0.0722837,0.154456,0.103058
-0.126834,-0.122134,-0.390795,0.122943,-0.137808,0.150713,0.103058
-0.26066,-0.255823,-0.422296,0.0950167,-0.205162,0.0993361,0.103058
-0.485279,-0.289961,-0.554017,0.0745742,-0.263834,0.0206792,0.103058
-0.693618,-0.247013,-0.708735,0.075727,-0.30091,-0.106045,0.103058
-0.873884,-0.258779,-0.834055,0.0797025,-0.304579,-0.236794,0.103058
-0.91303,-0.465898,-0.857587,0.140467,-0.313185,-0.398126,0.103058
-0.584183,-0.489947,-0.708989,0.203703,-0.277323,-0.619914,0.103058
-0.0822189,-0.341665,-0.337329,0.235126,-0.195544,-0.734594,0.103058
0.299582,-0.121566,0.0888888,0.230646,-0.171839,-0.713153,0.103058
0.299582,-0.121566,0.0888888,0.230646,-0.171839,-0.713153,0.235168
0.423953,0.0590887,0.330135,0.152278,-0.192883,-0.618917,0.235168
0.367502,0.23342,0.356529,0.062152,-0.221907,-0.5161,0.235168
0.331717,0.545739,0.26847,0.000869121,-0.203311,-0.447442,0.235168
0.411881,0.979029,0.25279,0.0138372,-0.129165,-0.348624,0.235168
0.600206,1.34097,0.42806,0.0692487,-0.0285172,-0.191724,0.235168
0.835329,1.49962,0.818102,0.118376,0.0713299,-0.00905687,0.235168
1.06574,1.32329,1.30235,0.116447,0.129635,0.155927,0.235168
1.23185,0.802995,1.70435,0.0821508,0.140441,0.287077,0.235168
1.24708,0.0155708,1.94802,0.033823,0.125212,0.369532,0.235168
1.13599,-0.739901,1.951,-0.0152298,0.0769053,0.37083,0.235168
0.932019,-1.11052,1.71195,-0.0878557,0.0421009,0.300477,0.235168
0.697021,-1.04268,1.31987,-0.126196,0.0322025,0.194275,0.235168
0.553946,-0.617645,0.920469,-0.0954203,0.0405423,0.0948249,0.235168
0.504857,0.00642701,0.653251,-0.0174445,0.0908648,0.0664768,0.235168
0.474185,0.39312,0.626715,0.0888242,0.156878,0.132774,0.235168
0.461255,0.530308,0.712661,0.159669,0.187851,0.212933,0.235168
0.450263,0.490505,0.789944,0.181873,0.194389,0.274649,0.235168
0.462843,0.312057,0.82187,0.18812,0.185064,0.314171,0.235168
0.443092,0.106316,0.812783,0.193437,0.184724,0.338083,0.235168
0.352484,-0.0662389,0.817491,0.216551,0.190169,0.347614,0.235168
0.215583,-0.14034,0.806014,0.228426,0.196732,0.319414,0.235168
0.0353652,-0.0808823,0.777948,0.232128,0.200664,0.267572,0.235168
-0.172431,0.0354894,0.775314,0.248347,0.20096,0.209282,0.235168
-0.336445,0.128393,0.745653,0.25609,0.183896,0.142715,0.235168
-0.469073,0.125809,0.710134,0.27557,0.158392,0.0773309,0.235168
-0.561067,0.111648,0.689285,0.300776,0.147991,-0.00853783,0.235168
-0.590985,0.214094,0.718865,0.325272,0.143788,-0.116401,0.235168
-0.578234,0.453832,0.80709,0.336817,0.148047,-0.196231,0.235168
-0.525779,0.75403,0.958318,0.341916,0.137354,-0.244232,0.235168
-0.422912,0.960639,1.13686,0.318139,0.121411,-0.262216,0.235168
-0.276174,1.06906,1.29269,0.261334,0.100544,-0.254858,0.235168
-0.158417,1.12391,1.44166,0.192426,0.0764283,-0.225986,0.235168
-0.057627,1.1698,1.54513,0.105063,0.039481,-0.189463,0.235168
-0.000763157,1.14218,1.58427,0.0180314,0.0110788,-0.148913,0.235168
0.0167314,1.00715,1.60744,-0.0460776,-0.0216642,-0.124822,0.235168
-0.023475,0.795421,1.54597,-0.106302,-0.0549297,-0.115011,0.235168
-0.15008,0.473538,1.40601,-0.154181,-0.0932326,-0.113558,0.235168
-0.287761,0.0617086,1.2342,-0.155161,-0.139133,-0.134663,0.235168
-0.392485,-0.282469,1.07802,-0.147745,-0.140559,-0.194899,0.235168
-0.510966,-0.403747,0.994194,-0.147,-0.118266,-0.259281,0.235168
-0.668477,-0.289061,0.884506,-0.170026,-0.121336,-0.315757,0.235168
-0.844724,-0.0485468,0.712075,-0.183489,-0.155811,-0.346262,0.235168
-0.987191,0.186068,0.532433,-0.186614,-0.180713,-0.362549,0.235168
-0.930345,0.209827,0.431883,-0.158668,-0.183781,-0.389429,0.235168
-0.592015,0.141205,0.393987,-0.120837,-0.150709,-0.426395,0.235168
-0.0492679,0.255782,0.461346,-0.0953344,-0.076334,-0.41638,0.235168
0.502208,0.497385,0.661987,-0.0813117,0.0165806,-0.303747,0.235168
0.884851,0.606283,0.893648,-0.0933695,0.081164,-0.120482,0.235168
1.09263,0.454902,1.02057,-0.142165,0.102966,0.0628516,0.235168
1.13614,0.0441593,0.985139,-0.201817,0.0983682,0.193205,0.235168
1.13614,0.0441593,0.985139,-0.201817,0.0983682,0.193205,0.438629
1.04816,-0.439791,0.789442,-0.251361,0.0857853,0.257325,0.438629
0.885578,-0.659544,0.430501,-0.293482,0.0756052,0.257103,0.438629
0.730695,-0.517235,0.0220856,-0.299491,0.103866,0.229259,0.438629
0.612357,-0.191981,-0.300479,-0.24666,0.158382,0.225203,0.438629
0.524261,0.135454,-0.45443,-0.150041,0.215708,0.272683,0.438629
0.468154,0.333687,-0.469889,-0.0738567,0.264882,0.338983,0.438629
0.430445,0.406268,-0.405197,-0.0177251,0.289594,0.405742,0.438629
0.331182,0.301483,-0.317658,0.0287771,0.280439,0.464281,0.438629
0.182773,0.128184,-0.247392,0.0450642,0.257855,0.497027,0.438629
0.0222212,-0.0840901,-0.190466,0.0409063,0.231428,0.503826,0.438629
-0.183207,-0.418586,-0.139004,0.070553,0.194967,0.482515,0.438629
-0.385697,-0.575276,-0.0640386,0.0788754,0.167738,0.400758,0.438629
-0.649362,-0.614176,-0.0603244,0.0631116,0.131465,0.319757,0.438629
-0.860427,-0.473099,-0.151008,0.0524936,0.0616611,0.201469,0.438629
-1.02956,-0.300397,-0.299248,0.0310343,0.0251396,0.093679,0.438629
-1.09888,-0.0806914,-0.369783,0.0535811,-0.00807086,-0.0109458,0.438629
-1.0989,0.00609453,-0.338117,0.0975786,-0.0265192,-0.0776041,0.438629
-0.967697,0.11249,-0.185489,0.138809,-0.0424374,-0.146012,0.438629
-0.7248,0.150798,0.0293683,0.153331,-0.0538567,-0.172076,0.438629
-0.471849,0.252017,0.231355,0.144359,-0.0845365,-0.162386,0.438629
-0.320924,0.384554,0.371436,0.10134,-0.119079,-0.0820588,0.438629
-0.289242,0.461043,0.418619,0.0497084,-0.15755,0.00588882,0.438629
-0.28897,0.497343,0.41608,0.0199414,-0.187787,0.0775357,0.438629
-0.307144,0.454008,0.415235,0.0132879,-0.19775,0.133761,0.438629
-0.310378,0.35414,0.44577,0.0222259,-0.203389,0.156437,0.438629
-0.265015,0.226658,0.490809,0.0304414,-0.204451,0.134445,0.438629
-0.25539,0.0648477,0.552453,0.048632,-0.201436,0.102823,0.438629
-0.277409,-0.00518795,0.629243,0.0664325,-0.199965,0.0180964,0.438629
-0.251752,0.088752,0.657274,0.0674852,-0.215177,-0.103117,0.438629
-0.269163,0.169002,0.632264,0.0721298,-0.234526,-0.184564,0.438629
-0.459404,-0.161634,0.583411,0.0933475,-0.253213,-0.239404,0.438629
-0.536026,-0.658669,0.588577,0.130517,-0.242024,-0.377636,0.438629
-0.248832,-0.675561,0.604708,0.103239,-0.157287,-0.582606,0.438629
0.148269,0.00380701,0.673348,0.0687149,-0.0593403,-0.647305,0.438629
0.441998,1.03034,0.825814,0.0607127,0.00866076,-0.520524,0.438629
0.62027,1.84498,1.00777,0.0734901,0.0516268,-0.24404,0.438629
0.706812,2.2431,1.22288,0.0979767,0.0797113,0.0630438,0.438629
0.663595,2.21538,1.42422,0.100738,0.079463,0.307498,0.438629
0.512633,1.61403,1.59455,0.138591,0.0351016,0.468327,0.438629
0.32855,0.605396,1.71012,0.170465,-0.00898369,0.518428,0.438629
0.0999446,-0.670476,1.77107,0.193649,-0.0264048,0.474242,0.438629
-0.151697,-1.80588,1.71582,0.185469,-0.0232803,0.309488,0.438629
-0.273871,-2.2476,1.57008,0.177967,-0.0115039,0.0289574,0.438629
-0.0522071,-1.84645,1.45358,0.204504,0.0262635,-0.291876,0.438629
0.355825,-0.823602,1.51777,0.24894,0.111065,-0.459937,0.438629
0.593554,0.139307,1.76472,0.313536,0.164151,-0.393089,0.438629
0.643772,0.472087,2.00687,0.342689,0.144212,-0.204202,0.438629
0.7066,0.463646,2.09249,0.312056,0.0901532,-0.0775235,0.438629
0.765942,0.444784,2.00441,0.262113,0.0518087,-0.00124431,0.438629
0.718571,0.483388,1.85696,0.248171,0.0253629,0.0681841,0.438629
0.542428,0.472339,1.68246,0.261084,-0.00350863,0.115855,0.438629
0.335638,0.403646,1.47004,0.272428,-0.0219243,0.108869,0.438629
0.188128,0.396488,1.28133,0.283607,-0.0126774,0.0472015,0.438629
0.159801,0.532371,1.19731,0.277914,0.0494322,-0.0389846,0.438629
0.216499,0.724689,1.21519,0.26611,0.107612,-0.0936568,0.438629
0.246351,0.802292,1.22537,0.232654,0.126288,-0.0966558,0.438629
0.190099,0.748293,1.20101,0.196906,0.116383,-0.0843292,0.438629
0.0264018,0.656498,1.12887,0.127431,0.126802,-0.0917382,0.438629
-0.209238,0.587033,0.981086,0.0550458,0.114635,-0.130111,0.438629
-0.403979,0.441577,0.814248,-0.00348358,0.11326,-0.182699,0.438629
-0.579681,0.212724,0.666854,-0.0473726,0.125407,-0.229891,0.438629
-0.764704,0.0628343,0.542059,-0.0796591,0.109955,-0.27777,0.438629
-0.866618,0.0619165,0.394984,-0.152455,0.0949665,-0.347624,0.438629
-0.813362,0.224289,0.210517,-0.229736,0.0942923,-0.40202,0.438629
-0.736955,0.491624,0.0277294,-0.27129,0.0880636,-0.392028,0.438629
-0.69495,0.541253,-0.120576,-0.270619,0.0726818,-0.325936,0.438629
-0.633473,0.387813,-0.222814,-0.256512,0.0749003,-0.276526,0.438629
-0.419788,0.376713,-0.248922,-0.266585,0.119585,-0.28017,0.438629
-0.161532,0.462141,-0.21208,-0.271533,0.17151,-0.233413,0.438629
-0.0172432,0.385072,-0.148249,-0.259799,0.196666,-0.122361,0.438629
-0.00511305,0.134625,-0.099984,-0.25391,0.191671,-0.0161062,0.438629
-0.0169302,-0.134469,-0.105104,-0.26117,0.174274,0.0387494,0.438629
0.0555407,-0.267018,-0.148225,-0.267067,0.150328,0.0609458,0.438629
0.181544,-0.284558,-0.221723,-0.261597,0.138397,0.101189,0.438629
0.285574,-0.219519,-0.295412,-0.227533,0.134783,0.177339,0.438629
0.343626,-0.13422,-0.336529,-0.187477,0.139058,0.269238,0.438629
0.343626,-0.13422,-0.336529,-0.187477,0.139058,0.269238,0.652649
0.340445,-0.103425,-0.357288,-0.158564,0.139488,0.365396,0.652649
0.280421,-0.16629,-0.403367,-0.136423,0.1258,0.434344,0.652649
0.203499,-0.291264,-0.472188,-0.110854,0.109154,0.470336,0.652649
0.161516,-0.492456,-0.552608,-0.0761086,0.107519,0.468253,0.652649
0.188242,-0.683257,-0.601471,-0.0361797,0.124244,0.429346,0.652649
0.216616,-0.751066,-0.581262,0.0180054,0.145509,0.380567,0.652649
0.171898,-0.703672,-0.502807,0.0559219,0.158802,0.335771,0.652649
0.0463837,-0.615449,-0.46112,0.0685974,0.145668,0.303765,0.652649
-0.12936,-0.497944,-0.492441,0.0657191,0.114411,0.265263,0.652649
-0.356193,-0.377816,-0.585738,0.0594394,0.0609753,0.212062,0.652649
-0.589166,-0.297558,-0.758459,0.0510934,0.000940531,0.147844,0.652649
-0.783032,-0.249624,-0.987654,0.0254639,-0.0443388,0.0589636,0.652649
-0.987356,-0.253625,-1.23573,0.0321349,-0.0986564,-0.0252793,0.652649
-1.14623,-0.238397,-1.42331,0.0829273,-0.147209,-0.134256,0.652649
-1.34573,-0.232185,-1.49504,0.130993,-0.15321,-0.246782,0.652649
-1.5223,-0.242754,-1.45578,0.192195,-0.178507,-0.384242,0.652649
-1.37398,-0.106117,-1.27906,0.27387,-0.184784,-0.592105,0.652649
-0.915306,0.400836,-0.869102,0.330903,-0.14705,-0.741434,0.652649
-0.450594,0.935328,-0.240117,0.378605,-0.127648,-0.688936,0.652649
-0.165833,1.08724,0.451298,0.380377,-0.175342,-0.514531,0.652649
0.0335243,0.881171,0.956767,0.300837,-0.26155,-0.377746,0.652649
0.258726,0.535586,1.15252,0.175874,-0.298287,-0.337265,0.652649
0.59965,0.400436,1.24506,0.0942218,-0.257046,-0.330435,0.652649
0.964457,0.612085,1.36014,0.0652525,-0.182336,-0.272792,0.652649
1.19864,0.995136,1.45836,0.0632305,-0.127903,-0.147362,0.652649
1.19618,1.0521,1.61908,0.102871,-0.0815489,0.0372937,0.652649
1.05639,0.588167,1.81786,0.139503,-0.0592664,0.151943,0.652649
0.965234,-0.0305838,1.87027,0.100056,-0.0513956,0.145781,0.652649
0.988133,-0.578013,1.7804,0.0558023,-0.0526815,0.0659425,0.652649
1.05576,-0.807784,1.57245,0.0563973,-0.0468051,-0.0323738,0.652649
1.08786,-0.646174,1.35781,0.0802763,-0.000953645,-0.0840877,0.652649
1.15182,-0.194408,1.28997,0.128984,0.0679421,-0.0988224,0.652649
1.24687,0.182448,1.35548,0.17449,0.14176,-0.046578,0.652649
1.32278,0.304323,1.41408,0.183895,0.178485,0.0621151,0.652649
1.34512,0.185155,1.41437,0.178119,0.18643,0.159387,0.652649
1.32115,0.0672163,1.38351,0.168596,0.226543,0.211598,0.652649
1.2759,0.179369,1.34766,0.146414,0.28327,0.2291,0.652649
1.18985,0.381264,1.24641,0.116552,0.315258,0.264067,0.652649
1.04364,0.582755,1.09969,0.0948781,0.331249,0.307182,0.652649
0.825472,0.673324,0.974236,0.106221,0.353192,0.352259,0.652649
0.566045,0.699647,0.911358,0.131136,0.368783,0.366652,0.652649
0.278847,0.681506,0.86416,0.142416,0.363264,0.344943,0.652649
-0.0484709,0.52501,0.804235,0.127575,0.349895,0.300937,0.652649
-0.327208,0.339809,0.676389,0.0873832,0.336804,0.212122,0.652649
-0.570233,0.168717,0.498284,0.0674702,0.325239,0.116417,0.652649
-0.89411,0.0792598,0.331006,0.0462376,0.347714,0.0447809,0.652649
-1.30872,0.0460926,0.258001,0.0304376,0.379891,-0.0406023,0.652649
-1.67854,-0.0439203,0.247754,0.0133367,0.385801,-0.166328,0.652649
-1.83397,-0.0788933,0.27346,-0.0280251,0.366301,-0.341691,0.652649
-1.79049,0.00337331,0.234337,-0.0970333,0.29872,-0.501567,0.652649
-1.66756,0.149287,0.0949986,-0.153329,0.190808,-0.587413,0.652649
-1.58984,0.366743,-0.0405786,-0.170622,0.10842,-0.571404,0.652649
-1.57553,0.586164,-0.145556,-0.185297,0.0485675,-0.489054,0.652649
-1.57097,0.587486,-0.27366,-0.199133,-0.0413829,-0.389418,0.652649
-1.57097,0.587486,-0.27366,-0.199133,-0.0413829,-0.389418,0.702866
-1.48447,0.350941,-0.449199,-0.209325,-0.142893,-0.335992,0.702866
-1.28518,0.121968,-0.623066,-0.213147,-0.210813,-0.327181,0.702866
-0.98731,0.157475,-0.721325,-0.213633,-0.222042,-0.348461,0.702866
-0.640142,0.360943,-0.743692,-0.203944,-0.205379,-0.324785,0.702866
-0.34642,0.473619,-0.718585,-0.199087,-0.192763,-0.228149,0.702866
-0.115183,0.372403,-0.655967,-0.196318,-0.1695,-0.119735,0.702866
0.0841518,0.155302,-0.597139,-0.204649,-0.147934,-0.0398566,0.702866
0.261454,-0.0546629,-0.583528,-0.215022,-0.132287,0.0115098,0.702866
0.389008,-0.160773,-0.611047,-0.214222,-0.113143,0.0547857,0.702866
0.461352,-0.188697,-0.67936,-0.203448,-0.0884195,0.100176,0.702866
0.492649,-0.234216,-0.730882,-0.167861,-0.0674793,0.13245,0.702866
0.549152,-0.252333,-0.739949,-0.126734,-0.0380609,0.14418,0.702866
0.644762,-0.271773,-0.716856,-0.0900619,-0.0103529,0.152086,0.702866
0.782371,-0.252735,-0.682807,-0.0692424,0.0169823,0.17573,0.702866
0.909786,-0.231251,-0.672158,-0.0781219,0.0558979,0.229139,0.702866
0.98251,-0.234956,-0.686798,-0.0914817,0.0846259,0.289219,0.702866
0.983754,-0.328903,-0.750138,-0.111861,0.103262,0.339744,0.702866
0.938632,-0.429939,-0.88213,-0.138367,0.119206,0.366836,0.702866
0.822636,-0.478264,-1.02632,-0.124328,0.142183,0.380022,0.702866
0.636795,-0.459099,-1.12979,-0.0999871,0.164596,0.367517,0.702866
0.446121,-0.353362,-1.19328,-0.0627381,0.167837,0.325457,0.702866
0.291849,-0.188673,-1.22041,-0.0294109,0.141854,0.269393,0.702866
0.0658404,-0.0424234,-1.28527,-0.0131897,0.108246,0.252405,0.702866
-0.322426,-0.128733,-1.3802,0.0196503,0.0423572,0.25451,0.702866
-0.671508,-0.443636,-1.46491,0.0734125,-0.0359025,0.15856,0.702866
-0.860649,-0.703236,-1.5131,0.104567,-0.0719655,-0.0180074,0.702866
-0.910904,-0.810462,-1.40281,0.178871,-0.0874682,-0.201082,0.702866
-0.83048,-0.816315,-1.2141,0.21041,-0.115609,-0.378614,0.702866
-0.706185,-0.783444,-1.08018,0.180394,-0.162124,-0.524041,0.702866
-0.58431,-0.7312,-1.01897,0.124874,-0.210488,-0.617733,0.702866
-0.439528,-0.462776,-0.932232,0.0916248,-0.212207,-0.68089,0.702866
-0.230472,0.0458577,-0.772717,0.0477647,-0.184602,-0.718906,0.702866
0.039769,0.596843,-0.621687,-0.00153545,-0.145352,-0.694844,0.702866
0.291591,0.997171,-0.496863,-0.0206567,-0.0965061,-0.5546,0.702866
0.461591,1.18338,-0.355096,-0.0213449,-0.0395822,-0.319758,0.702866
0.599843,1.30287,-0.139146,-0.00660848,0.0252175,-0.0784582,0.702866
0.715543,1.39319,0.130824,0.0267521,0.0651224,0.146954,0.702866
0.700226,1.31126,0.378361,0.0597403,0.0618922,0.355703,0.702866
0.518743,0.941179,0.608904,0.132456,0.0177023,0.511867,0.702866
0.262059,0.405967,0.803113,0.206731,-0.0304063,0.556485,0.702866
0.0232201,-0.201644,0.936447,0.261931,-0.042622,0.506087,0.702866
-0.182643,-0.715486,1.08134,0.304265,-0.00409323,0.396078,0.702866
-0.442187,-1.18584,1.25226,0.331441,0.0577395,0.257067,0.702866
-0.661292,-1.52988,1.41981,0.354296,0.0917207,0.0778396,0.702866
-0.688503,-1.58472,1.60953,0.375763,0.125248,-0.151827,0.702866
-0.41018,-0.998633,1.83536,0.346353,0.175044,-0.35407,0.702866
-0.0538283,-0.15835,2.10777,0.308185,0.205671,-0.371714,0.702866
0.245204,0.52196,2.34159,0.267181,0.186099,-0.222218,0.702866
0.343,0.827757,2.44498,0.217532,0.127607,0.0260667,0.702866
0.305747,0.910599,2.46029,0.165923,0.0851808,0.233123,0.702866
0.201992,0.884904,2.38896,0.109448,0.0468343,0.376821,0.702866
0.0976791,0.777072,2.26953,0.0932792,-0.000259474,0.462263,0.702866
0.0427582,0.564742,2.10479,0.0899223,-0.0517656,0.484984,0.702866
0.109187,0.36165,1.91442,0.100524,-0.0678888,0.451344,0.702866
0.109187,0.36165,1.91442,0.100524,-0.0678888,0.451344,0.92482
0.170143,0.226661,1.80637,0.10418,-0.0074565,0.422215,0.92482
0.135615,0.222677,1.83104,0.124815,0.0471355,0.379106,0.92482
0.00462885,0.246965,1.84285,0.139692,0.0561599,0.290704,0.92482
-0.15409,0.21133,1.71197,0.0792868,0.0816548,0.158596,0.92482
-0.536387,-0.172548,1.394,0.0480622,0.0665659,0.049847,0.92482
-0.886677,-0.661447,0.988773,0.080455,-0.0198011,-0.164208,0.92482
-0.91696,-0.672167,0.614029,0.0406745,0.0261817,-0.486334,0.92482
-0.691287,-0.097924,0.398065,-0.0247469,0.116914,-0.715871,0.92482
-0.47523,0.592162,0.247595,-0.0805843,0.13975,-0.719463,0.92482
-0.45441,0.945437,-0.0451826,-0.134237,0.0600936,-0.543374,0.92482
-0.597722,0.8601,-0.400276,-0.155498,-0.0244606,-0.360183,0.92482
-0.743566,0.590422,-0.680414,-0.138584,-0.0640744,-0.270182,0.92482
-0.769191,0.527754,-0.914814,-0.141323,-0.0602227,-0.267611,0.92482
-0.741409,0.537009,-1.13553,-0.140887,-0.0505122,-0.26455,0.92482
-0.680466,0.63723,-1.2544,-0.120056,-0.032955,-0.27884,0.92482
-0.542413,0.607085,-1.19134,-0.0898364,0.0200101,-0.292529,0.92482
-0.233639,0.52146,-0.929387,-0.0996142,0.108596,-0.299049,0.92482
0.177726,0.45014,-0.539419,-0.140336,0.183215,-0.248685,0.92482
0.519666,0.156708,-0.14788,-0.16706,0.198796,-0.124542,0.92482
0.677204,-0.393847,0.0915134,-0.188951,0.165975,0.00655079,0.92482
0.631982,-0.952623,0.188071,-0.230581,0.123146,0.0823439,0.92482
0.496597,-1.29593,0.11535,-0.308545,0.0837032,0.090096,0.92482
0.351867,-1.36418,-0.101511,-0.369304,0.0744848,0.0912644,0.92482
0.194398,-1.16326,-0.360729,-0.360337,0.0643258,0.105824,0.92482
0.045372,-0.761853,-0.59385,-0.317155,0.059176,0.153194,0.92482
-0.0915668,-0.419464,-0.782762,-0.249827,0.0523387,0.230854,0.92482
-0.184465,-0.322952,-0.914036,-0.162989,0.0271601,0.307201,0.92482
-0.125173,-0.48969,-0.99801,-0.0485094,-0.00736299,0.327807,0.92482
0.085926,-0.615849,-1.00766,0.0378736,-0.00213656,0.334467,0.92482
0.268497,-0.609126,-0.94954,0.0834197,0.0356549,0.379909,0.92482
0.301753,-0.550795,-0.868022,0.117351,0.0546633,0.450349,0.92482
0.208033,-0.474547,-0.810603,0.154337,0.0345657,0.507174,0.92482
0.0573172,-0.454947,-0.789681,0.183831,0.0233516,0.528147,0.92482
-0.078284,-0.472161,-0.779247,0.19984,0.0246406,0.502452,0.92482
-0.184354,-0.495356,-0.780262,0.217517,0.0276151,0.439846,0.92482
-0.287238,-0.433197,-0.705587,0.273426,0.0439133,0.371785,0.92482
-0.440519,-0.224944,-0.550435,0.291792,0.068092,0.304209,0.92482
-0.609462,-0.022275,-0.407981,0.274901,0.0482972,0.208948,0.92482
-0.704616,-0.0737782,-0.258091,0.270898,0.0199842,0.120385,0.92482
-0.724824,-0.281314,-0.0523129,0.279067,-0.00902662,0.0569243,0.92482
-0.66716,-0.472646,0.208888,0.272566,-0.0573008,-0.00982118,0.92482
-0.576104,-0.49227,0.370764,0.187942,-0.0853064,-0.0987426,0.92482
-0.571859,-0.509439,0.547386,0.149276,-0.110971,-0.165159,0.92482
-0.532356,-0.595217,0.768577,0.138142,-0.153735,-0.279094,0.92482
-0.412415,-0.704803,0.914181,0.0698117,-0.181151,-0.446807,0.92482
-0.31461,-0.84367,0.962272,-0.0258299,-0.210971,-0.601645,0.92482
-0.224342,-0.888295,0.82323,-0.177219,-0.225235,-0.746763,0.92482
-0.0973651,-0.586679,0.496018,-0.335043,-0.221589,-0.853203,0.92482
0.0162987,0.0964446,0.0262664,-0.420607,-0.219494,-0.847049,0.92482
0.0978902,1.0047,-0.40286,-0.342848,-0.212475,-0.700019,0.92482
0.0565821,1.70465,-0.634622,-0.175634,-0.149891,-0.4013,0.92482
-0.0949976,1.94542,-0.547573,-0.0187842,-0.0874189,-0.0918144,0.92482
-0.135383,1.79156,-0.231197,0.113808,-0.0670616,0.115129,0.92482
-0.135383,1.79156,-0.231197,0.113808,-0.0670616,0.115129,1.14412
-0.000720926,1.36036,0.168693,0.189659,-0.0546494,0.235301,1.14412
0.27976,0.775475,0.589871,0.244836,-0.0521436,0.298348,1.14412
0.583836,0.26061,0.97891,0.259404,-0.0334817,0.334554,1.14412
0.758574,-0.109331,1.30736,0.272119,-0.0304726,0.33585,1.14412
0.785738,-0.310896,1.59406,0.303158,-0.0481872,0.319509,1.14412
0.615722,-0.51709,1.81679,0.290141,-0.028819,0.29412,1.14412
0.320859,-0.72848,1.94361,0.233243,-0.00206417,0.206559,1.14412
0.09938,-1.00175,1.93044,0.185961,-0.0121202,0.0178555,1.14412
0.218837,-1.06855,1.80379,0.174931,-0.010915,-0.248111,1.14412
0.622843,-0.657592,1.70976,0.176865,0.0584551,-0.4345,1.14412
0.938325,-0.08925,1.76524,0.20176,0.165698,-0.416327,1.14412
1.04736,0.305001,1.98023,0.234906,0.227452,-0.268789,1.14412
1.07044,0.423148,2.13813,0.208846,0.242927,-0.0960309,1.14412
1.09191,0.412509,2.18034,0.164509,0.232152,0.0345097,1.14412
1.039,0.338467,2.15772,0.14408,0.216486,0.146148,1.14412
0.914284,0.258737,2.11465,0.145948,0.202474,0.227242,1.14412
0.73224,0.213846,2.06689,0.153018,0.199803,0.277849,1.14412
0.512194,0.2027,2.03515,0.181625,0.169602,0.304417,1.14412
0.283466,0.145176,1.96247,0.193932,0.129536,0.306287,1.14412
0.157492,0.0439384,1.88558,0.232596,0.0854708,0.252689,1.14412
0.198637,0.0200238,1.85042,0.25508,0.0825161,0.165871,1.14412
0.250156,0.0810407,1.84501,0.259609,0.0962165,0.105721,1.14412
0.246926,0.223291,1.82918,0.253278,0.0802561,0.0697446,1.14412
0.232914,0.316651,1.77597,0.232421,0.0619596,0.0445893,1.14412
0.250408,0.312382,1.70261,0.204276,0.0629166,0.0143557,1.14412
0.295847,0.352302,1.61026,0.170838,0.0578685,-0.0234185,1.14412
0.389865,0.526683,1.46966,0.147756,0.0296528,-0.0553125,1.14412
0.476849,0.692689,1.3179,0.153171,-0.00146271,-0.0409637,1.14412
0.532637,0.794492,1.18607,0.176143,-0.0300371,-0.0110993,1.14412
0.503106,0.801172,1.07189,0.184106,-0.0269504,0.0137817,1.14412
0.437421,0.76285,1.03976,0.172533,-0.00163057,0.000549078,1.14412
0.448827,0.735168,1.06652,0.130006,0.00402224,-0.0597422,1.14412
0.596361,0.756681,1.0296,0.0604352,-0.0197464,-0.136989,1.14412
0.728984,0.870398,0.842224,-0.033318,-0.0758956,-0.187428,1.14412
0.680309,0.991063,0.564289,-0.0951922,-0.114418,-0.170108,1.14412
0.501522,0.976504,0.305905,-0.0824994,-0.141438,-0.149485,1.14412
0.379442,0.96139,0.316665,-0.0305392,-0.126247,-0.169722,1.14412
0.339412,0.954575,0.505506,-0.0266689,-0.0891408,-0.193827,1.14412
0.361125,0.945369,0.709863,-0.0475137,-0.118005,-0.201947,1.14412
0.327416,0.936918,0.742773,-0.110951,-0.150524,-0.18247,1.14412
0.17956,0.769542,0.700115,-0.17025,-0.137138,-0.140162,1.14412
0.0276427,0.539012,0.686792,-0.185618,-0.0889641,-0.134533,1.14412
-0.147903,0.202908,0.652874,-0.201014,-0.0298128,-0.140981,1.14412
-0.405103,-0.0819387,0.629019,-0.240809,0.0506739,-0.166205,1.14412
-0.671886,-0.186505,0.554266,-0.281838,0.10595,-0.22338,1.14412
-0.772387,-0.126161,0.45329,-0.301599,0.140758,-0.31489,1.14412
-0.598538,0.111746,0.401171,-0.290607,0.174079,-0.385713,1.14412
-0.292032,0.382167,0.416662,-0.254262,0.216437,-0.334173,1.14412
-0.0187707,0.540051,0.49905,-0.217646,0.230072,-0.183891,1.14412
0.192108,0.433975,0.53904,-0.205127,0.205791,-0.0307274,1.14412
0.303962,0.046915,0.526353,-0.228293,0.185994,0.0834749,1.14412
0.333117,-0.496257,0.42877,-0.252539,0.168895,0.136186,1.14412
0.268052,-1.04706,0.189014,-0.259428,0.142665,0.144529,1.14412
0.151632,-1.25184,-0.153468,-0.261524,0.138751,0.082424,1.14412
0.151632,-1.25184,-0.153468,-0.261524,0.138751,0.082424,1.37665
0.0127594,-1.01262,-0.500607,-0.243773,0.175129,0.0170719,1.37665
-0.0883759,-0.602262,-0.743529,-0.173416,0.205099,-0.0206739,1.37665
-0.0828161,-0.305603,-0.837148,-0.0792139,0.227013,-0.020586,1.37665
-0.0108494,-0.201383,-0.83075,0.00936176,0.216137,0.0161072,1.37665
0.0373739,-0.194211,-0.787591,0.0522418,0.193398,0.0693645,1.37665
0.103824,-0.207485,-0.752313,0.0651833,0.159716,0.108027,1.37665
0.174264,-0.198568,-0.750568,0.0720332,0.124648,0.131618,1.37665
0.201204,-0.170774,-0.731902,0.0892319,0.101245,0.16876,1.37665
0.16776,-0.145181,-0.699018,0.101037,0.0752849,0.210877,1.37665
0.114457,-0.136502,-0.690018,0.111611,0.0347543,0.229121,1.37665
0.0974263,-0.137503,-0.704702,0.119063,-0.000559539,0.219516,1.37665
0.0670897,-0.104477,-0.679462,0.124511,-0.00422922,0.212447,1.37665
0.00204777,-0.0804784,-0.614639,0.129636,-0.0210725,0.195191,1.37665
-0.0424422,-0.0181737,-0.550586,0.132174,-0.0489424,0.157591,1.37665
-0.101973,-0.0217282,-0.440272,0.139021,-0.0585486,0.131856,1.37665
-0.120505,-0.0345502,-0.308143,0.132074,-0.0803353,0.08255,1.37665
-0.0843673,0.00802561,-0.212479,0.0978274,-0.0872142,0.0280651,1.37665
-0.0467137,0.13736,-0.145024,0.0774237,-0.0916426,-0.00632882,1.37665
-0.0253092,0.334674,-0.0949724,0.0640015,-0.110608,-0.0224987,1.37665
-0.0601304,0.49741,-0.0598197,0.0606912,-0.126069,0.00803977,1.37665
-0.202558,0.566176,0.0200888,0.0594122,-0.133925,0.0587622,1.37665
-0.366151,0.536673,0.0576221,0.018365,-0.161222,0.0694162,1.37665
-0.419486,0.551424,-0.044617,-0.0745974,-0.190816,0.0254914,1.37665
-0.472516,0.484927,-0.299838,-0.114209,-0.227361,-0.0138908,1.37665
-0.527061,0.248515,-0.486211,-0.00147877,-0.244195,-0.0834954,1.37665
-0.588871,0.125515,-0.45557,0.0890807,-0.150883,-0.183583,1.37665
-0.655982,0.353741,-0.219249,0.171508,-0.0585653,-0.31037,1.37665
-0.643895,0.720125,0.117072,0.215763,0.0125784,-0.416695,1.37665
-0.451826,0.661564,0.464281,0.225917,0.0406278,-0.464099,1.37665
-0.0671403,0.332179,0.749045,0.246515,0.0205932,-0.471285,1.37665
0.348457,0.220434,0.963847,0.260363,0.0452747,-0.443612,1.37665
0.617947,0.420716,1.18979,0.246539,0.111141,-0.345665,1.37665
0.719736,0.635414,1.38588,0.203988,0.157423,-0.191458,1.37665
0.728787,0.632275,1.48992,0.147656,0.167915,-0.0482212,1.37665
0.684619,0.405589,1.45949,0.0921894,0.149803,0.0548132,1.37665
0.596132,0.114218,1.29041,0.0563182,0.116438,0.109764,1.37665
0.452561,-0.0595208,1.05031,0.0394893,0.100559,0.124404,1.37665
0.325886,-0.0288886,0.832847,0.0343434,0.115584,0.0911857,1.37665
0.311636,0.123083,0.676133,0.0382156,0.14411,0.070853,1.37665
0.362125,0.328228,0.528115,0.0510629,0.156724,0.089498,1.37665
0.396955,0.521827,0.43275,0.078103,0.165547,0.162937,1.37665
0.361138,0.66987,0.396079,0.0887821,0.182793,0.259749,1.37665
0.298217,0.792423,0.395636,0.0847278,0.19126,0.337004,1.37665
0.226196,0.879925,0.416862,0.0818185,0.182356,0.391204,1.37665
0.168047,0.925864,0.45132,0.0860261,0.1626,0.429134,1.37665
0.102042,0.894678,0.431953,0.0814649,0.136264,0.457078,1.37665
-0.103452,0.740129,0.393124,0.0957744,0.102355,0.48769,1.37665
-0.408994,0.369147,0.365214,0.115142,0.0617358,0.472641,1.37665
-0.677444,-0.289377,0.404961,0.145386,0.0282259,0.384714,1.37665
-0.740643,-0.847112,0.453218,0.136662,0.0147844,0.184267,1.37665
-0.538822,-1.12168,0.437327,0.0833886,0.0376158,-0.0475704,1.37665
-0.251612,-1.05588,0.39468,0.0389177,0.0589165,-0.210948,1.37665
-0.157354,-0.788657,0.368068,0.0372083,0.06662,-0.261371,1.37665
-0.166596,-0.383722,0.371165,0.0348387,0.069243,-0.279249,1.37665
-0.166596,-0.383722,0.371165,0.0348387,0.069243,-0.279249,1.58275
-0.0889732,0.0284986,0.431273,0.00437958,0.06938,-0.288836,1.58275
0.10126,0.267331,0.489637,-0.0200995,0.0453703,-0.242368,1.58275
0.306165,0.323111,0.486884,-0.0600372,0.0112721,-0.140663,1.58275
0.379406,0.357241,0.369797,-0.117815,0.00308609,-0.0305496,1.58275
0.28816,0.461806,0.206573,-0.115275,-0.00261295,0.0715332,1.58275
0.128361,0.537041,0.0808021,-0.0878087,0.0017491,0.131931,1.58275
0.0155049,0.502639,0.0414652,-0.061259,0.0186035,0.148538,1.58275
-0.0643628,0.242118,0.0634777,-0.0225805,0.0294815,0.149499,1.58275
-0.129476,-0.155669,0.093066,0.0123726,0.022232,0.125486,1.58275
-0.22101,-0.577838,0.121767,0.0409137,0.012622,0.0521141,1.58275
-0.306347,-0.776919,0.174995,0.066294,0.0156544,-0.0892301,1.58275
-0.363257,-0.777282,0.301322,0.0989371,0.0476796,-0.214987,1.58275
-0.439965,-0.660685,0.448224,0.0982793,0.0658905,-0.316196,1.58275
-0.539989,-0.576859,0.517089,0.0447345,0.0737217,-0.397231,1.58275
-0.508297,-0.64081,0.653136,0.00306702,0.108603,-0.471621,1.58275
-0.290544,-0.800321,0.889101,-0.0329245,0.168917,-0.503952,1.58275
-0.0835894,-0.997039,1.14986,-0.046476,0.176276,-0.459405,1.58275
-0.111057,-1.043,1.29656,-0.0951586,0.105353,-0.375572,1.58275
-0.301875,-0.90459,1.18173,-0.178727,-0.00306097,-0.319984,1.58275
-0.467172,-0.704315,0.815619,-0.254833,-0.0910115,-0.31004,1.58275
-0.446243,-0.379174,0.356113,-0.269167,-0.141053,-0.3343,1.58275
-0.2087,0.0297472,-0.0336153,-0.221347,-0.129364,-0.318855,1.58275
0.0690857,0.371431,-0.250358,-0.14527,-0.0700804,-0.204274,1.58275
0.310684,0.535287,-0.303133,-0.105615,-0.000776917,-0.0494604,1.58275
0.497166,0.492223,-0.332421,-0.0953207,0.0439338,0.101364,1.58275
0.562737,0.250378,-0.380187,-0.109136,0.0671958,0.224274,1.58275
0.528636,-0.0664575,-0.489665,-0.133264,0.0787084,0.299951,1.58275
0.420445,-0.338814,-0.693503,-0.159262,0.0807875,0.333653,1.58275
0.22818,-0.434596,-0.92428,-0.156696,0.092757,0.343993,1.58275
0.0322847,-0.348684,-1.1083,-0.110667,0.112627,0.316537,1.58275
-0.0711132,-0.112026,-1.1804,-0.0549943,0.143508,0.274126,1.58275
-0.110546,0.230334,-1.16645,-0.0215634,0.169623,0.260861,1.58275
-0.121186,0.448011,-1.0527,0.00764811,0.181253,0.280389,1.58275
-0.0569666,0.344787,-0.877273,0.0388936,0.163773,0.295918,1.58275
0.116981,0.028554,-0.63951,0.0585857,0.168876,0.288711,1.58275
0.350616,-0.424445,-0.365088,0.0688729,0.184195,0.281944,1.58275
0.493497,-0.773967,-0.190358,0.0408684,0.177041,0.274528,1.58275
0.365166,-0.843422,-0.20633,-0.00722099,0.136416,0.282006,1.58275
0.0358948,-0.692739,-0.333328,-0.0368328,0.10473,0.273616,1.58275
-0.337248,-0.464255,-0.510198,-0.0613378,0.0838889,0.241794,1.58275
-0.600251,-0.335756,-0.693277,-0.0509225,0.0507231,0.184632,1.58275
-0.700501,-0.357735,-0.820424,-0.011452,0.0240698,0.11699,1.58275
-0.6669,-0.335947,-0.843238,0.0387724,0.0126152,0.0393585,1.58275
-0.614479,-0.217667,-0.768001,0.0869818,-0.00203313,0.00557798,1.58275
-0.593029,-0.0569507,-0.660247,0.110981,-0.0338627,0.00491208,1.58275
-0.627898,-0.00638441,-0.554233,0.124032,-0.0828329,0.0182142,1.58275
-0.668723,-0.0841579,-0.435717,0.124736,-0.136509,-0.00282043,1.58275
-0.660056,-0.235811,-0.35079,0.11182,-0.184619,-0.0702956,1.58275
-0.643046,-0.346142,-0.350261,0.0867027,-0.238652,-0.158621,1.58275
-0.627184,-0.302646,-0.41031,0.0839565,-0.293774,-0.272084,1.58275
-0.556039,-0.140274,-0.466121,0.0912888,-0.312251,-0.40178,1.58275
-0.455528,0.00165886,-0.450967,0.104869,-0.299181,-0.502907,1.58275
-0.318718,0.107216,-0.401103,0.131683,-0.278585,-0.562449,1.58275
-0.155021,0.287749,-0.349062,0.165762,-0.261008,-0.587519,1.58275
-0.155021,0.287749,-0.349062,0.165762,-0.261008,-0.587519,1.8232
-0.0188239,0.506201,-0.274544,0.20677,-0.244435,-0.555353,1.8232
0.0732447,0.691946,-0.138189,0.242816,-0.226427,-0.493009,1.8232
0.20012,0.730419,0.0855423,0.261981,-0.20401,-0.424543,1.8232
0.49619,0.582992,0.334387,0.254239,-0.186881,-0.37778,1.8232
0.911224,0.455341,0.536653,0.219021,-0.151419,-0.318273,1.8232
1.25967,0.489193,0.689303,0.182865,-0.109569,-0.203602,1.8232
1.36064,0.594837,0.762232,0.145189,-0.0705449,-0.0454837,1.8232
1.25293,0.688684,0.78797,0.116763,-0.0575722,0.0909798,1.8232
1.03748,0.562221,0.765509,0.0816753,-0.0531349,0.179112,1.8232
0.885592,0.312047,0.710213,0.0442677,-0.0421761,0.187827,1.8232
0.887812,0.103094,0.647422,0.00380516,-0.0034374,0.13776,1.8232
1.03141,0.0584106,0.576387,-0.0260867,0.0451684,0.109353,1.8232
1.16557,0.100558,0.474089,-0.0578081,0.0892766,0.137731,1.8232
1.14953,0.171189,0.262774,-0.112047,0.124722,0.208736,1.8232
0.943163,0.337437,0.0197927,-0.119506,0.145234,0.257831,1.8232
0.630186,0.675699,-0.210678,-0.0870736,0.181033,0.259461,1.8232
0.369202,1.15947,-0.288385,-0.0299146,0.23234,0.222524,1.8232
0.187801,1.6372,-0.238479,0.0194371,0.255623,0.199604,1.8232
0.155196,1.69645,-0.0426775,0.0444283,0.271923,0.1952,1.8232
0.355234,1.46132,0.183614,0.0572202,0.239924,0.157122,1.8232
0.606396,0.993523,0.414351,0.0542728,0.22247,0.166455,1.8232
0.758084,0.379418,0.650098,0.0461124,0.216557,0.201374,1.8232
0.760194,-0.0954131,0.821145,0.0283723,0.192573,0.209973,1.8232
0.574477,-0.308205,0.82261,-0.0168875,0.144004,0.178723,1.8232
0.320072,-0.338187,0.723305,-0.0601189,0.101856,0.120113,1.8232
0.087455,-0.368329,0.571401,-0.0984818,0.0700179,0.0450352,1.8232
-0.0601137,-0.372794,0.390293,-0.111592,0.035569,-0.0474407,1.8232
-0.225095,-0.489354,0.208968,-0.108298,0.0245155,-0.108923,1.8232
-0.328846,-0.503287,0.119362,-0.091572,0.0221931,-0.195601,1.8232
-0.340973,-0.464981,0.126655,-0.056125,0.0354965,-0.262078,1.8232
-0.313029,-0.355932,0.165178,-0.049387,0.0446762,-0.29154,1.8232
-0.344623,-0.350928,0.163929,-0.0449735,0.00791749,-0.282672,1.8232
-0.44544,-0.397963,0.0913047,-0.0420193,-0.0436191,-0.279324,1.8232
-0.531978,-0.430207,0.0320706,-0.0351498,-0.0604461,-0.297487,1.8232
-0.517099,-0.468408,0.0192208,-0.0257769,-0.0514255,-0.316072,1.8232
-0.402809,-0.50703,0.010843,-0.0373539,-0.0295998,-0.317494,1.8232
-0.299688,-0.544275,-0.00734757,-0.0465637,-0.0345017,-0.280513,1.8232
-0.265925,-0.569136,-0.0719797,-0.0625045,-0.0467375,-0.235446,1.8232
-0.224653,-0.470635,-0.173982,-0.0805433,-0.046832,-0.214055,1.8232
-0.121981,-0.230495,-0.289808,-0.0823854,-0.0365512,-0.198752,1.8232
0.0141412,-0.0372362,-0.315637,-0.065025,-0.000991315,-0.136381,1.8232
0.118978,-0.0412061,-0.25322,-0.0422101,0.039679,-0.0356463,1.8232
0.179077,-0.247897,-0.164018,-0.0395764,0.0723264,0.0556021,1.8232
0.194476,-0.479785,-0.133051,-0.0675067,0.0922286,0.110886,1.8232
0.155069,-0.494332,-0.194114,-0.105976,0.0949139,0.131197,1.8232
0.136738,-0.310941,-0.275413,-0.114821,0.11612,0.143155,1.8232
0.153158,-0.125831,-0.330102,-0.102204,0.142493,0.183017,1.8232
0.171065,-0.141093,-0.299598,-0.0645629,0.159227,0.239734,1.8232
0.30794,-0.263005,-0.231722,-0.030533,0.158029,0.24415,1.8232
0.468366,-0.306748,-0.218337,-0.0349116,0.161993,0.266468,1.8232
0.457263,-0.268513,-0.242827,-0.0180836,0.158997,0.325041,1.8232
0.27015,-0.190876,-0.299696,0.0106103,0.155905,0.380142,1.8232
0.00311413,-0.112477,-0.332724,0.0419147,0.15576,0.40245,1.8232
-0.251801,-0.109406,-0.324753,0.0579923,0.159702,0.393999,1.8232
-0.251801,-0.109406,-0.324753,0.0579923,0.159702,0.393999,2.05573
-0.420041,-0.237187,-0.280899,0.0836455,0.152265,0.346176,2.05573
-0.479125,-0.430002,-0.198133,0.0921742,0.135164,0.270684,2.05573
-0.511016,-0.500137,-0.130335,0.0602365,0.107686,0.183499,2.05573
-0.556206,-0.478794,-0.0916337,0.0267722,0.0661586,0.10365,2.05573
-0.667409,-0.463856,-0.133723,-0.016002,0.00966123,0.05893,2.05573
-0.757268,-0.428313,-0.170376,-0.0260654,-0.0339711,-0.00152558,2.05573
-0.736158,-0.267507,-0.15282,-0.0223126,-0.0530159,-0.0618204,2.05573
-0.540618,0.00797274,-0.0604443,-0.0301533,-0.0520785,-0.117157,2.05573
-0.308949,0.167206,0.0649188,-0.0221707,-0.0788144,-0.0986698,2.05573
-0.1655,0.203708,0.103552,-0.0445423,-0.133047,-0.0224749,2.05573
-0.148201,0.110973,0.0829622,-0.0741148,-0.169976,0.0342928,2.05573
-0.0986824,-0.141011,0.00560305,-0.075528,-0.207714,0.021574,2.05573
-0.0089882,-0.40514,-0.11574,-0.0645116,-0.216923,-0.0304648,2.05573
0.0115969,-0.509241,-0.157537,-0.0123474,-0.199,-0.0933425,2.05573
-0.027451,-0.308422,-0.1551,-0.000549234,-0.169835,-0.165742,2.05573
-0.0383806,0.0341245,-0.0918635,-0.0174987,-0.128587,-0.238175,2.05573
-0.00351892,0.379683,-0.0955515,-0.0468833,-0.137095,-0.27771,2.05573
0.0354082,0.499892,-0.210784,-0.0472335,-0.153047,-0.23813,2.05573
-0.0347392,0.615605,-0.294179,0.00662598,-0.165064,-0.177054,2.05573
-0.131552,0.72397,-0.308337,0.0569532,-0.144581,-0.144652,2.05573
-0.299986,0.842455,-0.353789,0.109893,-0.148623,-0.108914,2.05573
-0.539847,0.941517,-0.440533,0.154247,-0.163806,-0.100945,2.05573
-0.797716,0.902271,-0.497028,0.200063,-0.153931,-0.124116,2.05573
-0.87893,0.755375,-0.391841,0.255787,-0.119925,-0.212605,2.05573
-0.533579,0.666522,-0.108691,0.315668,-0.0802202,-0.342468,2.05573
0.147501,0.719861,0.22255,0.332919,-0.0515188,-0.401302,2.05573
0.642281,0.835723,0.462014,0.283826,-0.0269129,-0.305053,2.05573
0.5689,0.819213,0.519649,0.213136,-0.0557099,-0.115406,2.05573
0.286876,0.726526,0.409422,0.138266,-0.069375,-0.0551233,2.05573
0.289282,0.630143,0.298554,0.102889,-0.0222366,-0.132819,2.05573
0.516074,0.528493,0.308143,0.105417,0.0742557,-0.151415,2.05573
0.649781,0.479283,0.422015,0.0953505,0.142683,-0.0694273,2.05573
0.670259,0.496103,0.551539,0.0497578,0.180277,0.0343873,2.05573
0.651949,0.530141,0.597322,-0.0204939,0.196954,0.134247,2.05573
0.563167,0.614227,0.56883,-0.0844511,0.193256,0.248767,2.05573
0.515797,0.765703,0.539682,-0.125322,0.214261,0.344463,2.05573
0.433049,0.746247,0.546375,-0.141329,0.22563,0.427809,2.05573
0.36427,0.57469,0.586085,-0.101776,0.21615,0.484537,2.05573
0.257289,0.363865,0.649572,-0.0924677,0.214793,0.521002,2.05573
0.225294,0.16779,0.707311,-0.0434487,0.201139,0.495376,2.05573
0.223884,-0.162926,0.8104,-0.00979534,0.196383,0.427591,2.05573
0.149461,-0.218213,0.866346,0.0107493,0.173336,0.34844,2.05573
-0.0424092,-0.256421,0.836555,-0.00284332,0.110415,0.270076,2.05573
-0.240655,-0.341178,0.744711,0.00820793,0.0454757,0.155678,2.05573
-0.534868,-0.172478,0.644697,0.0370001,0.0092667,0.0230833,2.05573
-0.623853,-0.114016,0.666654,0.0701256,0.00269121,-0.146324,2.05573
-0.58193,-0.224783,0.603003,0.029659,-0.0354941,-0.24231,2.05573
-0.54442,-0.253099,0.410981,-0.0120984,-0.0856696,-0.342851,2.05573
-0.555072,-0.0767288,0.152235,-0.033463,-0.113485,-0.40156,2.05573
-0.585935,0.173842,0.0443145,0.0121475,-0.0753058,-0.396863,2.05573
-0.630994,0.308362,0.115765,0.0621195,-0.0420463,-0.332461,2.05573
-0.646412,0.142148,0.251166,0.0901938,-0.044171,-0.27079,2.05573
-0.59843,-0.223712,0.356989,0.0728126,-0.0642253,-0.26332,2.05573
-0.59843,-0.223712,0.356989,0.0728126,-0.0642253,-0.26332,2.30411
-0.517508,-0.468917,0.342017,0.0214877,-0.0800213,-0.302793,2.30411
-0.470526,-0.471136,0.294431,-0.00424193,-0.0676396,-0.340308,2.30411
-0.431066,-0.282727,0.275013,-0.0115459,-0.0368608,-0.348264,2.30411
-0.292876,-0.124621,0.31966,-0.0109601,-0.000445873,-0.318737,2.30411
-0.0158064,-0.0901722,0.346533,-0.00124878,0.0295898,-0.255738,2.30411
0.21328,-0.0192663,0.362967,0.0103858,0.0502101,-0.137168,2.30411
0.278657,0.0579521,0.413195,0.032009,0.0766846,0.00858718,2.30411
0.195982,0.182895,0.454914,0.0199569,0.097625,0.126686,2.30411
0.00122609,0.176141,0.487983,-0.0142835,0.105603,0.220345,2.30411
-0.206259,0.0475594,0.428979,-0.0818256,0.0968808,0.253911,2.30411
-0.357376,-0.135187,0.304507,-0.129721,0.0906756,0.233357,2.30411
-0.292085,-0.255132,0.206824,-0.143598,0.089841,0.15657,2.30411
-0.0440561,-0.208008,0.167737,-0.139496,0.112181,0.0938832,2.30411
0.191142,-0.00677739,0.186067,-0.117517,0.125782,0.105319,2.30411
0.36218,0.178399,0.246808,-0.0798341,0.123038,0.1669,2.30411
0.453241,0.286889,0.259162,-0.10252,0.132367,0.258997,2.30411
0.371199,0.381316,0.18145,-0.118844,0.105132,0.348216,2.30411
0.148882,0.399788,0.0774531,-0.0919471,0.0788025,0.399368,2.30411
0.0463076,0.236507,0.119666,-0.0188031,0.0685079,0.349745,2.30411
0.142713,-0.0143691,0.266356,0.0404295,0.0966417,0.275604,2.30411
0.21025,-0.203579,0.424481,0.0524049,0.0908802,0.255703,2.30411
0.151539,-0.293592,0.432894,-0.00410153,0.041266,0.247773,2.30411
-0.0126545,-0.303356,0.312246,-0.0337382,-0.00751281,0.246241,2.30411
-0.273027,-0.248948,0.196602,-0.0371834,-0.0241457,0.23384,2.30411
-0.522004,-0.136615,0.134239,-0.0348991,-0.027439,0.198856,2.30411
-0.67891,-0.0698667,0.111917,-0.0115331,-0.0444909,0.15801,2.30411
-0.728524,-0.0193438,0.095059,-0.0177748,-0.0583301,0.123135,2.30411
-0.661031,0.0537874,0.0651846,-0.0326233,-0.0872297,0.0852959,2.30411
-0.530636,0.0741352,0.0209549,-0.038928,-0.110479,0.0801598,2.30411
-0.437157,-0.000519075,0.00118868,-0.0630229,-0.107259,0.110801,2.30411
-0.336787,-0.204343,0.00998513,-0.0691471,-0.113313,0.131504,2.30411
-0.194925,-0.431323,0.0173933,-0.0612099,-0.118516,0.124963,2.30411
-0.0823942,-0.439634,0.04927,-0.032888,-0.121805,0.097588,2.30411
-0.144019,-0.163146,0.0314847,-0.0202933,-0.139929,0.104819,2.30411
-0.412813,0.146505,-0.0483759,0.00347273,-0.182294,0.132948,2.30411
-0.701302,0.146062,-0.0699042,0.0565045,-0.214566,0.113318,2.30411
-0.714207,-0.0713825,0.0151442,0.121001,-0.2109,-0.032869,2.30411
-0.563204,-0.3068,0.149428,0.172827,-0.19645,-0.190669,2.30411
-0.520987,-0.399765,0.2924,0.177932,-0.188345,-0.290854,2.30411
-0.643954,-0.506022,0.352411,0.145721,-0.198758,-0.375644,2.30411
-0.621961,-0.563449,0.315664,0.13813,-0.221587,-0.535628,2.30411
-0.31765,-0.336159,0.303239,0.121233,-0.16973,-0.685239,2.30411
0.0913413,0.180736,0.456478,0.130468,-0.0870697,-0.680834,2.30411
0.338479,0.641535,0.616797,0.14247,-0.0571336,-0.49187,2.30411
0.347006,0.900316,0.661954,0.136133,-0.0842019,-0.223381,2.30411
0.204723,0.955812,0.687815,0.117512,-0.076282,-0.00363725,2.30411
0.124215,0.805337,0.742922,0.126769,-0.0574878,0.113942,2.30411
0.173276,0.704775,0.848981,0.142522,-0.0186167,0.135944,2.30411
0.237882,0.933957,0.988833,0.151748,0.00951317,0.131124,2.30411
0.739718,1.20534,1.13158,0.135752,0.0435712,0.154884,2.30411
1.11581,-0.00863335,1.28563,0.285652,0.0289305,0.306547,2.30411
0.715018,-0.391021,1.69036,0.315256,0.0438106,0.455939,2.30411
0.180877,-0.303817,1.9287,0.269275,0.0598208,0.36779,2.30411
-0.289918,0.0279911,1.9794,0.242344,-0.000324458,0.216989,2.30411
-0.289918,0.0279911,1.9794,0.242344,-0.000324458,0.216989,2.51549
-0.519654,0.203488,1.98135,0.249446,-0.00418776,0.0565426,2.51549
-0.147176,0.127902,2.02449,0.299979,0.0165619,-0.106657,2.51549
