rotationRate_x,rotationRate_y,rotationRate_z,acceleration_x,acceleration_y,acceleration_z,relativeAltitude
0.0601723,0.0036556,0.577092,0.0180171,-0.110499,-0.0117097,0
0.0735406,0.111778,0.489582,0.0120865,-0.111174,-0.0309378,0
0.0605148,0.168854,0.486758,0.0420994,-0.106925,-0.0240894,0
0.094018,0.219388,0.499797,0.0331526,-0.0939988,-0.0255642,0
0.161484,0.214118,0.471135,0.0139974,-0.0895559,-0.032096,0
0.188892,0.172443,0.488107,0.0161677,-0.0786235,-0.0314968,0
0.18996,0.135943,0.494576,0.021431,-0.0627905,-0.0444461,0
0.187888,0.156678,0.397752,0.00442711,-0.0599169,-0.0585837,0
0.129059,0.183662,0.364019,0.0153537,-0.0602997,-0.0676445,0
-0.0577438,0.42011,0.347474,0.0141857,-0.0631519,-0.0951105,0
-0.31316,0.679256,0.372614,0.00250839,-0.0599346,-0.116158,0
-0.580598,0.663358,0.320112,-0.0451498,-0.0699116,-0.140813,0
-0.772098,0.134457,0.0951083,-0.12965,-0.0658145,-0.198041,0
-0.689925,-0.568194,-0.144975,-0.125354,-0.0644918,-0.291591,0
-0.315838,-0.857572,-0.240846,-0.0768246,-0.0353023,-0.419109,0
0.100416,-0.730937,-0.165966,-0.0693109,0.0637356,-0.462283,0
0.423415,-0.13752,-0.0260737,-0.0846699,0.146686,-0.40726,0
0.602136,0.567066,0.0771059,-0.11928,0.191534,-0.255625,0
0.588224,0.799532,0.134403,-0.174411,0.212391,-0.0281383,0
0.487595,0.558125,0.104434,-0.216291,0.191147,0.148445,0
0.411504,0.00892946,-0.0712014,-0.249906,0.158545,0.218782,0
0.404936,-0.535951,-0.441085,-0.279344,0.135536,0.20391,0
0.337829,-0.834463,-0.829313,-0.263964,0.145895,0.171757,0
0.146559,-0.840494,-1.05408,-0.179278,0.184202,0.1448,0
-0.0470957,-0.613522,-1.08019,-0.0700502,0.219124,0.112329,0
-0.164846,-0.285701,-0.982538,0.0227769,0.242384,0.0857785,0
-0.143386,-0.0104195,-0.823275,0.100296,0.235417,0.0615805,0
-0.0669171,0.0256296,-0.624427,0.162622,0.212924,0.0813829,0
-0.0344758,-0.142597,-0.420401,0.191326,0.188943,0.117923,0
-0.0499974,-0.322909,-0.242338,0.194735,0.151947,0.124492,0
-0.057891,-0.375931,-0.139771,0.163796,0.117093,0.0918733,0
-0.106913,-0.313614,-0.0933587,0.147173,0.0864165,0.0681645,0
-0.233978,-0.197295,-0.0606475,0.142131,0.0595542,0.0647818,0
-0.3678,-0.0533009,-0.0251669,0.135969,0.0369356,0.0547552,0
-0.453829,0.0875622,0.00716403,0.126018,0.011551,0.0345719,0
-0.502424,0.108784,0.0459707,0.108664,-0.00520162,0.0203208,0
-0.502247,0.0567444,0.0948289,0.0995541,-0.0238269,0.0147241,0
-0.380007,-0.06119,0.157641,0.110094,-0.0385469,-0.00846928,0
-0.223791,-0.0557672,0.256813,0.126168,-0.0444733,-0.0206714,0
-0.152938,0.00601277,0.371967,0.124138,-0.0387927,-0.00449222,0
-0.1448,0.090652,0.492896,0.125656,-0.0445641,0.0196907,0
-0.144183,0.1198,0.579015,0.11898,-0.0541155,0.0386133,0
-0.10298,0.0949498,0.670117,0.111377,-0.0638112,0.0433262,0
0.021185,0.010012,0.763297,0.106998,-0.0745794,0.0189404,0
0.167672,-0.0915226,0.832868,0.0866966,-0.0786899,-0.0225289,0
0.29907,-0.0904656,0.849083,0.05663,-0.0933828,-0.086041,0
0.348343,-0.114738,0.821809,0.0493943,-0.105742,-0.139707,0
0.255436,-0.0664726,0.784369,0.0496535,-0.105215,-0.201492,0
0.072726,0.156329,0.721242,0.0607887,-0.124238,-0.296783,0
-0.0625887,0.485074,0.654184,0.0885932,-0.146797,-0.401498,0
-0.135538,0.609982,0.602194,0.0778135,-0.132958,-0.465618,0
-0.135538,0.609982,0.602194,0.0778135,-0.132958,-0.465618,0.0185089
-0.18498,0.321784,0.59898,0.0764882,-0.0895137,-0.478789,0.0185089
-0.214689,-0.0514511,0.601091,0.101703,-0.0658513,-0.507915,0.0185089
-0.109746,-0.101064,0.648548,0.0842581,-0.00388931,-0.556843,0.0185089
0.218626,0.3023,0.797998,0.0853689,0.0583091,-0.570201,0.0185089
0.661636,1.01464,0.957169,0.0969014,0.082061,-0.465083,0.0185089
0.843693,1.62385,1.04753,0.0830784,0.0942833,-0.208737,0.0185089
0.710174,1.77015,1.15398,0.0792714,0.103545,0.0706348,0.0185089
0.535039,1.49604,1.30682,0.0734625,0.11208,0.230657,0.0185089
0.529884,1.0262,1.43997,0.0643717,0.122278,0.251457,0.0185089
0.589126,0.526837,1.50988,0.0267906,0.140807,0.244418,0.0185089
0.620778,0.195528,1.53972,-0.0176876,0.166352,0.2303,0.0185089
0.586516,0.0264033,1.4738,-0.0773189,0.187215,0.20364,0.0185089
0.531571,-0.0418482,1.25576,-0.123181,0.181296,0.184771,0.0185089
0.529941,-0.0626054,1.00375,-0.120236,0.17826,0.156408,0.0185089
0.559206,0.108563,0.846762,-0.0839632,0.217167,0.134301,0.0185089
0.597537,0.325711,0.840898,-0.0567345,0.270587,0.122763,0.0185089
0.690896,0.484342,0.924136,-0.0223061,0.298738,0.124559,0.0185089
0.760432,0.570636,0.972356,-0.021874,0.290639,0.145361,0.0185089
0.682995,0.478266,0.884783,-0.0461433,0.255224,0.187802,0.0185089
0.52857,0.243988,0.710055,-0.0682987,0.212465,0.226328,0.0185089
0.336603,0.0226868,0.478471,-0.0810097,0.180623,0.241114,0.0185089
0.132957,-0.0397129,0.253487,-0.0743823,0.159083,0.219751,0.0185089
-0.0693155,0.00673475,0.101858,-0.0651414,0.157522,0.195486,0.0185089
-0.260815,-0.00618478,0.0194522,-0.0398364,0.15419,0.186024,0.0185089
-0.428889,-0.037752,-0.0498534,-0.0373673,0.142546,0.168088,0.0185089
-0.5612,-0.0400221,-0.081598,-0.0422588,0.123416,0.138486,0.0185089
-0.633059,0.0210602,-0.0687978,-0.0402427,0.104358,0.0951793,0.0185089
-0.641815,0.199105,-0.0353431,-0.0358683,0.0837639,0.0494334,0.0185089
-0.630558,0.35816,0.000127875,-0.043886,0.0642863,0.0225772,0.0185089
-0.646784,0.342462,0.0573036,-0.0510257,0.0436788,0.0289426,0.0185089
-0.672658,0.144329,0.0960162,-0.0445549,0.0104499,0.0143253,0.0185089
-0.729284,0.063087,0.0815165,-0.0548986,-0.0137033,-0.0594091,0.0185089
-0.839705,0.0872666,0.0262116,-0.0676407,-0.0388619,-0.159415,0.0185089
-0.872839,0.116744,0.00124063,-0.0470292,-0.0650946,-0.265273,0.0185089
-0.723459,-0.0520801,0.0720916,-0.00168955,-0.0512582,-0.354277,0.0185089
-0.460755,-0.251114,0.256721,0.0312368,-0.0119577,-0.414362,0.0185089
-0.335558,-0.443655,0.479448,0.024737,0.00741571,-0.424435,0.0185089
-0.38199,-0.505245,0.532778,-0.0632012,-0.0140278,-0.433745,0.0185089
-0.522922,-0.565585,0.322481,-0.197202,-0.0610303,-0.451941,0.0185089
-0.581018,-0.587672,-0.0750333,-0.265379,-0.122721,-0.478823,0.0185089
-0.475644,-0.53021,-0.458144,-0.292379,-0.119229,-0.50839,0.0185089
-0.188016,-0.375959,-0.647679,-0.235437,-0.0727234,-0.511454,0.0185089
0.160749,-0.0684756,-0.718452,-0.189791,-0.00682543,-0.442905,0.0185089
0.416999,0.201295,-0.758807,-0.17719,0.0462075,-0.286373,0.0185089
0.490226,0.312709,-0.804859,-0.177021,0.0878031,-0.0949225,0.0185089
0.436757,0.193664,-0.843055,-0.179111,0.114055,0.0617266,0.0185089
0.34059,-0.149306,-0.894931,-0.191389,0.132766,0.162219,0.0185089
0.249222,-0.428333,-0.978145,-0.208196,0.138095,0.199356,0.0185089
0.180999,-0.554423,-1.07857,-0.226172,0.149968,0.204674,0.0185089
0.207115,-0.540687,-1.18957,-0.232999,0.151281,0.199598,0.0185089
0.324209,-0.419587,-1.31463,-0.220376,0.148044,0.216791,0.0185089
0.324209,-0.419587,-1.31463,-0.220376,0.148044,0.216791,0.0370026
0.457535,-0.274538,-1.41848,-0.168272,0.150025,0.27141,0.0370026
0.449179,-0.120927,-1.43149,-0.0924047,0.162109,0.36465,0.0370026
0.29397,-0.115222,-1.36319,-0.0438653,0.178813,0.458207,0.0370026
0.111302,-0.264983,-1.22748,-0.00106369,0.181729,0.50038,0.0370026
-0.00655111,-0.583075,-1.09066,0.0397622,0.163363,0.479285,0.0370026
-0.0107188,-0.772394,-0.966825,0.0772879,0.12592,0.40435,0.0370026
-0.0228523,-0.865521,-0.903876,0.073952,0.0983292,0.317446,0.0370026
-0.161235,-0.969296,-0.870047,0.062541,0.0745584,0.26391,0.0370026
-0.348303,-0.996789,-0.853869,0.0710996,0.0162141,0.193567,0.0370026
-0.45193,-0.910007,-0.877689,0.0666652,-0.0183274,0.098802,0.0370026
-0.469037,-0.588273,-0.90608,0.0715018,-0.0477744,-0.000479579,0.0370026
-0.537827,-0.202536,-0.921489,0.076945,-0.0509205,-0.0321279,0.0370026
-0.665302,-0.0719233,-0.842608,0.114609,-0.0506967,-0.00990504,0.0370026
-0.658475,-0.0418882,-0.684699,0.148121,-0.0711774,-0.0329778,0.0370026
-0.497484,-0.0972239,-0.535584,0.147689,-0.0841205,-0.0761076,0.0370026
-0.301461,-0.142387,-0.394125,0.140118,-0.0988008,-0.0977362,0.0370026
-0.174177,-0.128182,-0.287405,0.137968,-0.121025,-0.0956393,0.0370026
-0.133839,-0.0575284,-0.229977,0.12393,-0.14029,-0.0865693,0.0370026
-0.197419,-0.0531941,-0.170612,0.110484,-0.14008,-0.0768667,0.0370026
-0.234091,-0.0800236,-0.0963954,0.104233,-0.140358,-0.114596,0.0370026
-0.130641,-0.0855438,-0.0307919,0.0917665,-0.139214,-0.218425,0.0370026
0.012421,-0.0412032,0.0363788,0.0945521,-0.137498,-0.313758,0.0370026
0.0884204,0.189977,0.0907227,0.0878188,-0.142966,-0.38369,0.0370026
0.0148652,0.32558,0.141145,0.0956244,-0.144432,-0.390992,0.0370026
-0.200089,0.180086,0.194288,0.118433,-0.14135,-0.375091,0.0370026
-0.327977,0.0391518,0.279741,0.126761,-0.131545,-0.431715,0.0370026
-0.270173,0.11607,0.368452,0.093385,-0.0944731,-0.522874,0.0370026
-0.0606442,0.362002,0.499585,0.0735786,-0.061733,-0.537946,0.0370026
0.26867,0.644364,0.675956,0.0868003,-0.0292689,-0.465119,0.0370026
0.607893,0.873061,0.844992,0.0973606,-0.0164584,-0.297183,0.0370026
0.838304,0.945758,0.974701,0.100069,-0.00660498,-0.103655,0.0370026
0.894171,0.851316,1.07807,0.0774433,0.00437748,0.0847463,0.0370026
0.855046,0.569688,1.13948,0.0615619,0.00023219,0.227902,0.0370026
0.733907,0.155244,1.10823,0.0478845,-0.00847727,0.310503,0.0370026
0.581569,-0.190631,0.970911,0.0230017,-0.0208301,0.321444,0.0370026
0.548711,-0.283381,0.806387,0.0304621,-0.0298156,0.255737,0.0370026
0.591189,-0.0938001,0.695138,0.0667985,-0.000452399,0.197016,0.0370026
0.584436,0.16826,0.657677,0.0919349,0.0400176,0.187571,0.0370026
0.55127,0.118024,0.695107,0.109804,0.0924352,0.202539,0.0370026
0.560553,-0.0349024,0.711488,0.11446,0.121816,0.172098,0.0370026
0.608068,0.019894,0.684753,0.101917,0.133348,0.102601,0.0370026
0.565775,0.311739,0.628654,0.0952848,0.161444,0.0520098,0.0370026
0.465813,0.755875,0.591531,0.0891396,0.169941,0.0253943,0.0370026
0.316339,1.02694,0.537406,0.0492069,0.186893,0.04243,0.0370026
0.208342,1.11442,0.436507,0.00648219,0.187057,0.0633287,0.0370026
0.141556,1.0459,0.279134,-0.00519273,0.16368,0.0993832,0.0370026
0.0778342,0.826384,0.159977,0.0182484,0.161582,0.143149,0.0370026
0.036253,0.66578,0.0970732,0.0503149,0.167248,0.153278,0.0370026
0.00193102,0.59758,0.0485703,0.059602,0.17642,0.152546,0.0370026
-0.0794481,0.445141,0.0233943,0.0729585,0.184661,0.168416,0.0370026
-0.0794481,0.445141,0.0233943,0.0729585,0.184661,0.168416,0.134766
-0.187239,0.222368,0.063308,0.12891,0.172984,0.169836,0.134766
-0.327351,0.183458,0.191073,0.194095,0.161612,0.144243,0.134766
-0.432999,0.34188,0.348384,0.225663,0.146665,0.0900637,0.134766
-0.416649,0.560805,0.538807,0.225472,0.136218,0.0364193,0.134766
-0.295823,0.742587,0.736545,0.205232,0.106179,0.0222525,0.134766
-0.248997,0.553916,0.887936,0.16236,0.0819865,0.0608236,0.134766
-0.282891,0.0976212,1.09539,0.159059,0.0813355,0.0946718,0.134766
-0.236134,-0.173098,1.3519,0.144742,0.0826508,0.0305169,0.134766
-0.16627,-0.130623,1.48781,0.0958891,0.0582348,-0.0524712,0.134766
-0.188382,-0.032283,1.43203,0.0239724,0.0054948,-0.0955221,0.134766
-0.37111,-0.0170819,1.28956,-0.0386746,-0.0119343,-0.0957187,0.134766
-0.601661,-0.136413,1.28777,-0.0537548,0.00427979,-0.113042,0.134766
-0.601877,-0.355177,1.29694,-0.0617965,-0.00155771,-0.195304,0.134766
-0.361463,-0.434066,1.12253,-0.128755,-0.0229495,-0.319766,0.134766
-0.1677,-0.293662,0.848758,-0.176834,-0.0243849,-0.370889,0.134766
-0.289768,-0.124302,0.676204,-0.153058,-0.00359717,-0.307501,0.134766
-0.53264,-0.063574,0.677905,-0.116638,0.0250785,-0.241965,0.134766
-0.544808,0.0535111,0.708388,-0.12516,0.0224929,-0.270256,0.134766
-0.399011,0.120449,0.601062,-0.184314,-0.00683917,-0.277603,0.134766
-0.303034,0.16096,0.437622,-0.225885,-0.0337775,-0.222573,0.134766
-0.316164,0.178324,0.235391,-0.245017,-0.0400353,-0.139073,0.134766
-0.282639,0.202944,0.0958812,-0.207183,-0.0301443,-0.0873092,0.134766
-0.174494,0.130689,0.075212,-0.150697,0.00653741,-0.0540946,0.134766
-0.0170613,0.0835038,0.115447,-0.132369,0.0472724,-0.0239125,0.134766
0.134504,0.0400365,0.111995,-0.151699,0.0736483,0.0109515,0.134766
0.242959,-0.0579878,0.0823927,-0.171852,0.105122,0.0522768,0.134766
0.314086,-0.211736,0.038653,-0.195635,0.141263,0.0917377,0.134766
0.331143,-0.353386,-0.00154813,-0.218355,0.184614,0.12614,0.134766
0.236791,-0.44137,-0.0859283,-0.25176,0.208157,0.155376,0.134766
0.0132141,-0.466632,-0.257627,-0.280221,0.223347,0.188036,0.134766
-0.259546,-0.410818,-0.479914,-0.299995,0.235769,0.202666,0.134766
-0.503882,-0.386176,-0.61786,-0.279283,0.25057,0.21269,0.134766
-0.625245,-0.329218,-0.682175,-0.262688,0.256323,0.198519,0.134766
-0.623404,-0.245807,-0.755714,-0.265294,0.244405,0.18333,0.134766
-0.58743,-0.181785,-0.83821,-0.246442,0.230582,0.190418,0.134766
-0.610991,-0.26103,-0.869493,-0.195773,0.214145,0.220561,0.134766
-0.602045,-0.335942,-0.808232,-0.138376,0.188372,0.220677,0.134766
-0.5888,-0.354669,-0.760517,-0.103658,0.160315,0.208744,0.134766
-0.659958,-0.35952,-0.776415,-0.0890653,0.108904,0.209826,0.134766
-0.812711,-0.397469,-0.881174,-0.0788231,0.0422962,0.196423,0.134766
-0.93333,-0.401598,-1.05583,-0.0736532,-0.0216608,0.12952,0.134766
-0.9834,-0.405843,-1.21908,-0.0490869,-0.0645109,0.0413958,0.134766
-0.976561,-0.416869,-1.24949,0.0274028,-0.071054,-0.032034,0.134766
-0.857112,-0.367491,-1.12472,0.103216,-0.0757601,-0.0953835,0.134766
-0.661927,-0.370259,-0.938869,0.158776,-0.102936,-0.119025,0.134766
-0.460029,-0.42486,-0.796635,0.165874,-0.163569,-0.141394,0.134766
-0.282002,-0.388578,-0.71853,0.156825,-0.217762,-0.17596,0.134766
-0.16473,-0.325837,-0.702936,0.156341,-0.254039,-0.209531,0.134766
-0.108783,-0.239014,-0.714426,0.160585,-0.262444,-0.237752,0.134766
-0.0967381,-0.125238,-0.719259,0.180178,-0.254662,-0.274342,0.134766
-0.0870311,0.0268637,-0.685986,0.197991,-0.23478,-0.310914,0.134766
-0.0870311,0.0268637,-0.685986,0.197991,-0.23478,-0.310914,0.311798
-0.0229642,0.137493,-0.611587,0.220581,-0.207383,-0.356812,0.311798
0.14629,0.188058,-0.529401,0.218157,-0.180452,-0.412592,0.311798
0.39096,0.354052,-0.438048,0.208788,-0.159865,-0.471549,0.311798
0.560687,0.620076,-0.331681,0.187157,-0.125458,-0.475586,0.311798
0.573289,0.811135,-0.21493,0.179271,-0.0908191,-0.408864,0.311798
0.549203,0.93224,-0.123786,0.153569,-0.0720733,-0.337159,0.311798
0.57786,0.845314,-0.0121862,0.138465,-0.0583452,-0.270174,0.311798
0.731656,0.680303,0.116322,0.134584,-0.0426564,-0.21085,0.311798
0.912732,0.561841,0.249329,0.124587,-0.0145563,-0.133761,0.311798
0.972039,0.522044,0.336927,0.113273,0.0211659,-0.0272379,0.311798
0.871599,0.683078,0.400553,0.120514,0.0238,0.0703198,0.311798
0.598255,0.883578,0.422711,0.114023,0.0187706,0.152361,0.311798
0.309673,0.975478,0.451998,0.102255,-0.00245585,0.188742,0.311798
0.162734,0.800271,0.503055,0.106077,-0.0200558,0.185303,0.311798
0.165836,0.406909,0.470874,0.088644,-0.0386054,0.153758,0.311798
0.185151,0.0173778,0.341172,0.0594427,-0.0517351,0.122577,0.311798
0.180292,-0.201867,0.199163,0.0542372,-0.0384185,0.0874223,0.311798
0.129642,-0.157447,0.150247,0.0593039,0.0180717,0.0718498,0.311798
0.17203,0.0774521,0.249958,0.0827208,0.0995063,0.0584039,0.311798
0.242865,0.321794,0.450563,0.10188,0.158458,0.0885795,0.311798
0.350226,0.486631,0.665346,0.0962047,0.173605,0.136804,0.311798
0.484012,0.484355,0.81686,0.0807972,0.17494,0.196776,0.311798
0.59852,0.407132,0.943973,0.084091,0.174819,0.251046,0.311798
0.604544,0.257496,1.08584,0.0995938,0.181416,0.311432,0.311798
0.541501,0.112658,1.26507,0.121222,0.193882,0.345511,0.311798
0.41336,-0.102012,1.39832,0.121329,0.194862,0.356012,0.311798
0.244314,-0.233668,1.4557,0.109622,0.172267,0.333383,0.311798
0.0436297,-0.33029,1.43709,0.0874932,0.154307,0.284881,0.311798
-0.111381,-0.350702,1.41026,0.0823141,0.140278,0.201785,0.311798
-0.167565,-0.285156,1.35722,0.0785003,0.126493,0.0863605,0.311798
-0.287452,-0.0954816,1.29483,0.0927186,0.108842,0.00210565,0.311798
-0.555666,0.164105,1.1838,0.0706243,0.0823595,-0.0584763,0.311798
-0.758313,0.38737,1.04621,0.0683217,0.0449241,-0.144548,0.311798
-0.720182,0.536801,0.919283,0.0693863,0.0245036,-0.248249,0.311798
-0.619885,0.567259,0.843108,0.0787779,0.0254925,-0.278962,0.311798
-0.598089,0.480239,0.818786,0.10362,0.0123545,-0.26497,0.311798
-0.629562,0.428371,0.819672,0.128468,-0.00274624,-0.259527,0.311798
-0.724502,0.445857,0.845498,0.133148,-0.0123175,-0.263667,0.311798
-0.785709,0.392112,0.872698,0.120522,-0.0298435,-0.274631,0.311798
-0.742189,0.181009,0.884866,0.108414,-0.0398427,-0.297952,0.311798
-0.615626,-0.0953008,0.883873,0.0940752,-0.047718,-0.323758,0.311798
-0.495771,-0.286335,0.83374,0.0607884,-0.0573027,-0.350268,0.311798
-0.300727,-0.320179,0.822606,0.0453255,-0.0543634,-0.377242,0.311798
-0.0300514,-0.208472,0.838712,0.044343,-0.0354779,-0.3834,0.311798
0.238271,-0.032818,0.883549,0.0516238,-0.0128757,-0.343282,0.311798
0.458957,0.299253,0.959661,0.0226262,0.0338519,-0.276548,0.311798
0.554467,0.578322,1.04235,-0.0255767,0.0960746,-0.16814,0.311798
0.561809,0.754863,1.12406,-0.0638284,0.125719,-0.0570462,0.311798
0.539961,0.657068,1.13636,-0.100853,0.137316,0.0450093,0.311798
0.539989,0.403627,1.1376,-0.118401,0.144467,0.119064,0.311798
0.555551,0.128314,1.12901,-0.13854,0.152891,0.166959,0.311798
0.583844,0.0340892,1.11239,-0.152615,0.1539,0.196746,0.311798
0.598279,0.00683064,1.073,-0.157966,0.157715,0.230385,0.311798
0.603792,0.0374634,0.982,-0.160914,0.142482,0.259035,0.311798
0.629799,0.041003,0.844398,-0.156437,0.123307,0.288986,0.311798
0.611306,-0.056975,0.731639,-0.120325,0.122404,0.327797,0.311798
0.533581,-0.10503,0.673421,-0.0760515,0.132984,0.351138,0.311798
0.380012,-0.0853025,0.610887,-0.0546674,0.135586,0.352013,0.311798
0.181039,-0.0809141,0.535504,-0.0262965,0.123132,0.340507,0.311798
0.00784504,-0.0418456,0.508479,0.0335647,0.109845,0.296904,0.311798
-0.151782,0.041571,0.584942,0.0669971,0.112264,0.242822,0.311798
-0.328369,0.18902,0.651477,0.0660867,0.093901,0.190511,0.311798
-0.500861,0.216593,0.668613,0.0536945,0.0558758,0.14705,0.311798
-0.535893,0.156907,0.65238,0.0451713,0.0140792,0.0730724,0.311798
-0.381011,0.10646,0.693031,0.0564752,0.0029453,-0.00926548,0.311798
-0.254788,0.102521,0.800585,0.0748146,0.0146965,-0.0342973,0.311798
-0.221398,0.183967,0.890288,0.0730807,0.00601129,-0.0287071,0.311798
-0.251707,0.145583,0.957565,0.0821555,-0.0129676,-0.00939727,0.311798
-0.294162,0.06716,1.05319,0.0927646,-0.015052,-0.0128222,0.311798
-0.240158,0.0238283,1.16564,0.0650797,-0.00493997,-0.0673796,0.311798
-0.0938213,0.0994631,1.24346,0.0262421,-0.00985412,-0.135656,0.311798
0.0855715,0.238918,1.25729,-0.00910129,-0.0226598,-0.172787,0.311798
0.186711,0.369858,1.23236,-0.0433545,-0.0267181,-0.151739,0.311798
0.207739,0.422231,1.19307,-0.0655372,-0.0188318,-0.098862,0.311798
0.228075,0.482837,1.1556,-0.0720262,-0.0128183,-0.0609753,0.311798
0.228075,0.482837,1.1556,-0.0720262,-0.0128183,-0.0609753,0.443909
0.210473,0.503841,1.14627,-0.07051,0.00268216,-0.0140755,0.443909
0.18571,0.489131,1.14159,-0.0818514,0.0190359,0.0198964,0.443909
0.211501,0.442488,1.1166,-0.0960757,0.0301408,0.0310435,0.443909
0.278046,0.416098,1.07378,-0.11211,0.038666,0.0333352,0.443909
0.336427,0.378645,1.03579,-0.116328,0.0574061,0.0432249,0.443909
0.31732,0.416538,0.997016,-0.116074,0.0753466,0.0526998,0.443909
0.197627,0.399599,0.963731,-0.12375,0.0977334,0.0635356,0.443909
0.106131,0.335523,0.937218,-0.12737,0.10878,0.0452725,0.443909
0.0597939,0.385332,0.906438,-0.118189,0.113681,0.00821441,0.443909
-0.0427303,0.467067,0.923409,-0.105473,0.120993,0.00845581,0.443909
-0.223395,0.321146,0.975402,-0.101985,0.133936,0.0543056,0.443909
-0.351878,0.0463003,0.952145,-0.116929,0.102497,0.0412166,0.443909
-0.395348,-0.150466,0.812852,-0.142032,0.0607765,-0.0262719,0.443909
-0.361801,-0.0185565,0.705349,-0.130432,0.0434753,-0.101393,0.443909
-0.24916,0.289794,0.679918,-0.109356,0.0508179,-0.132311,0.443909
-0.0961579,0.499417,0.727876,-0.0845435,0.0588881,-0.091818,0.443909
2.39839e-06,0.450229,0.769992,-0.0679452,0.0517298,0.0145545,0.443909
0.0413481,0.284821,0.777106,-0.0597073,0.0200314,0.109491,0.443909
0.0589248,0.141323,0.73737,-0.0571167,-0.00290677,0.159115,0.443909
0.0332686,0.0874685,0.656058,-0.0517364,-0.0165528,0.178389,0.443909
-0.0563608,0.150023,0.545404,-0.0425921,-0.0259505,0.174435,0.443909
-0.196091,0.143839,0.461124,-0.000912026,-0.0349715,0.18342,0.443909
-0.311626,0.0460971,0.445547,0.0660764,-0.0382003,0.177401,0.443909
-0.345635,-0.0880538,0.510023,0.122596,-0.032056,0.136291,0.443909
-0.318722,-0.134674,0.591801,0.152868,-0.0297743,0.0771117,0.443909
-0.310869,-0.0948038,0.679126,0.167519,-0.0334895,0.0287723,0.443909
-0.346694,-0.0581007,0.790398,0.213449,-0.0594768,0.00664192,0.443909
-0.426429,-0.0544681,0.937865,0.252103,-0.0721013,-0.0117992,0.443909
-0.496187,0.0476225,1.04331,0.242456,-0.0908491,-0.0720847,0.443909
-0.576595,0.149776,1.07575,0.207555,-0.110005,-0.120365,0.443909
-0.585667,0.178025,1.05689,0.184254,-0.139874,-0.1727,0.443909
-0.466954,-0.00449339,1.01224,0.172797,-0.157796,-0.221856,0.443909
-0.249086,-0.192871,0.992863,0.173384,-0.156547,-0.274291,0.443909
-0.0315737,-0.161371,0.988141,0.173643,-0.141415,-0.299102,0.443909
0.105415,0.151194,0.967731,0.155493,-0.130217,-0.291514,0.443909
0.174297,0.49998,0.94043,0.129498,-0.115229,-0.224615,0.443909
0.248384,0.714993,0.909931,0.106281,-0.103249,-0.126837,0.443909
0.319292,0.758129,0.874173,0.0768031,-0.0918602,-0.0209098,0.443909
0.374368,0.592179,0.828898,0.0566268,-0.0827663,0.0741009,0.443909
0.417057,0.340451,0.756445,0.0483754,-0.0769901,0.129246,0.443909
0.437791,0.238342,0.677326,0.0376762,-0.0629633,0.136123,0.443909
0.39667,0.264064,0.602862,0.0196417,-0.0394535,0.13334,0.443909
0.32259,0.275832,0.532871,0.00249336,-0.0246058,0.12995,0.443909
0.298604,0.272434,0.458087,-0.00732291,-0.0170786,0.10471,0.443909
0.315981,0.265446,0.355154,-0.0296385,-0.010302,0.0672146,0.443909
0.341499,0.299801,0.24145,-0.0559081,-0.00785142,0.0357696,0.443909
0.302124,0.269241,0.139416,-0.0833911,0.0110589,0.0377462,0.443909
0.221508,0.176623,0.0886997,-0.0888432,0.0154906,0.0432509,0.443909
0.181501,0.164529,0.0217434,-0.118738,0.0115486,0.0110855,0.443909
0.166993,0.223067,-0.0787993,-0.159158,-0.000568524,-0.0160573,0.443909
0.133964,0.194927,-0.159315,-0.173474,-0.0169396,-0.00385505,0.443909
0.0725529,0.0852749,-0.235089,-0.187532,-0.0254272,0.0199252,0.443909
-0.0010698,0.0482745,-0.340606,-0.213094,-0.0375288,0.0175108,0.443909
-0.0588897,-0.000237124,-0.44624,-0.21463,-0.054568,0.00937837,0.443909
-0.0588897,-0.000237124,-0.44624,-0.21463,-0.054568,0.00937837,0.488831
-0.14327,-0.0573198,-0.503795,-0.193024,-0.0586845,0.00616455,0.488831
-0.323915,-0.285153,-0.531433,-0.168383,-0.0620706,0.0289416,0.488831
-0.499587,-0.595582,-0.603959,-0.165117,-0.072463,0.0105983,0.488831
-0.618946,-0.920831,-0.728063,-0.165581,-0.0887117,-0.0651794,0.488831
-0.616876,-0.935628,-0.809367,-0.142277,-0.0846445,-0.184163,0.488831
-0.499851,-0.721562,-0.776612,-0.0803667,-0.0743722,-0.267321,0.488831
-0.305738,-0.523239,-0.617685,0.00225849,-0.0578395,-0.284091,0.488831
-0.122389,-0.454153,-0.426129,0.048778,-0.0448628,-0.233568,0.488831
-0.0565869,-0.479761,-0.312356,0.0436901,-0.0530137,-0.145153,0.488831
0.00515406,-0.588084,-0.333317,-0.00412947,-0.0681986,-0.0808049,0.488831
0.172376,-0.64946,-0.442353,-0.0273292,-0.0688505,-0.0693584,0.488831
0.33321,-0.58432,-0.51489,-0.0225053,-0.0331076,-0.0516627,0.488831
0.444873,-0.392816,-0.526562,0.00484858,0.00530502,-0.0127231,0.488831
0.484507,-0.241547,-0.535469,0.0221795,0.0443297,0.0516322,0.488831
0.415132,-0.251571,-0.534447,0.0294836,0.0754939,0.127437,0.488831
0.343024,-0.392569,-0.52379,0.0400519,0.0937278,0.154606,0.488831
0.326263,-0.514205,-0.536465,0.0352733,0.115186,0.130919,0.488831
0.279169,-0.490351,-0.606671,0.00628552,0.136156,0.0927398,0.488831
0.158768,-0.393837,-0.691133,-0.00839581,0.15445,0.0696906,0.488831
0.0453763,-0.344435,-0.702868,-0.00377612,0.16887,0.0567305,0.488831
0.0270226,-0.228573,-0.666412,-0.00310933,0.165167,0.031749,0.488831
0.000221727,-0.0249023,-0.689337,-0.020661,0.142166,0.0355691,0.488831
-0.111286,0.119933,-0.734094,-0.029133,0.109072,0.0924081,0.488831
-0.258615,0.106214,-0.715459,-0.0101606,0.0863036,0.152604,0.488831
-0.367922,0.0537547,-0.64333,0.00329106,0.0644355,0.168154,0.488831
-0.417737,0.0314739,-0.571516,-0.00289861,0.0285324,0.144457,0.488831
-0.409767,-0.000740192,-0.498507,0.00779287,-0.0141941,0.118309,0.488831
-0.390829,-0.00782633,-0.442257,0.0171823,-0.056547,0.101299,0.488831
-0.402101,-0.0405262,-0.378359,0.0389931,-0.0841081,0.0887021,0.488831
-0.391146,-0.0414266,-0.288136,0.0697584,-0.114792,0.0597411,0.488831
-0.331739,-0.0159226,-0.198752,0.0955391,-0.140762,0.00835961,0.488831
-0.223132,-0.0272722,-0.0918243,0.123058,-0.154151,-0.0503413,0.488831
-0.0955252,-0.0884916,0.044567,0.161081,-0.158838,-0.107537,0.488831
-0.0243486,-0.103308,0.182659,0.195021,-0.16133,-0.16441,0.488831
-0.00754474,-0.0308257,0.231504,0.182747,-0.174145,-0.246587,0.488831
-0.0184229,0.0467661,0.235445,0.171604,-0.179584,-0.345848,0.488831
-0.0735413,0.10166,0.313876,0.177544,-0.157962,-0.43398,0.488831
-0.0177374,0.273906,0.421995,0.171791,-0.144081,-0.526038,0.488831
0.190101,0.397009,0.447019,0.119025,-0.125552,-0.570263,0.488831
0.378497,0.323869,0.37336,0.034758,-0.0923119,-0.520815,0.488831
0.43497,0.138785,0.209144,-0.0213741,-0.060275,-0.415963,0.488831
0.495055,0.11375,0.0802455,-0.0154668,0.00472449,-0.350254,0.488831
0.682095,0.442176,0.0771346,0.0436839,0.0662614,-0.317536,0.488831
0.83503,0.846545,0.22195,0.104296,0.133268,-0.211795,0.488831
0.794544,1.14068,0.40941,0.142088,0.15971,-0.0407873,0.488831
0.600745,1.08246,0.532567,0.131136,0.134519,0.115932,0.488831
0.448798,0.622756,0.536919,0.105059,0.0835938,0.181244,0.488831
0.511208,0.148925,0.479675,0.0916119,0.0372283,0.137931,0.488831
0.71442,-0.189603,0.412762,0.0537988,0.0714905,0.0635483,0.488831
0.854975,-0.253319,0.381406,0.0589938,0.104712,0.043515,0.488831
0.806771,-0.112029,0.391617,0.0803851,0.130919,0.0827191,0.488831
0.640539,0.180553,0.421958,0.0776839,0.152114,0.121741,0.488831
0.461393,0.518495,0.430809,0.049379,0.1597,0.151308,0.488831
0.330339,0.777134,0.375749,0.00549307,0.148154,0.175781,0.488831
0.330339,0.777134,0.375749,0.00549307,0.148154,0.175781,0.63945
0.276946,0.811103,0.329076,-0.0151021,0.144929,0.213957,0.63945
0.340172,0.647048,0.296592,-0.0140277,0.154317,0.232983,0.63945
0.416067,0.451489,0.288558,-0.0120742,0.171306,0.235198,0.63945
0.432067,0.292141,0.333464,-0.00215232,0.186292,0.238848,0.63945
0.384311,0.211067,0.365158,-0.00341677,0.191513,0.23058,0.63945
0.257573,0.133768,0.34827,-0.0347326,0.194594,0.222561,0.63945
0.10804,0.0397966,0.333625,-0.056126,0.183595,0.198318,0.63945
-0.00102947,-0.00668277,0.271381,-0.0842533,0.171964,0.154138,0.63945
-0.110336,-0.0340854,0.196703,-0.0840939,0.159486,0.122846,0.63945
-0.153808,-0.0543078,0.161686,-0.0743083,0.151795,0.0809644,0.63945
-0.108703,0.00178742,0.144425,-0.0801235,0.1532,0.0338078,0.63945
-0.103722,0.0705987,0.113311,-0.0728643,0.128185,0.0252708,0.63945
-0.208198,0.0258752,0.0520053,-0.0552492,0.0991541,0.0716392,0.63945
-0.322616,-0.0202556,0.0451882,-0.0327267,0.0783336,0.0903973,0.63945
-0.347709,-0.0422021,0.0584223,-0.0399968,0.0649258,0.0642778,0.63945
-0.332891,-0.115599,0.0656496,-0.0314798,0.0420426,0.0367143,0.63945
-0.31982,-0.182112,0.0614514,-0.0384085,0.0106629,0.00640053,0.63945
-0.334091,-0.257767,0.0392871,-0.0406857,-0.0186549,-0.0229964,0.63945
-0.435581,-0.3605,0.0461396,-0.0175933,-0.0381494,-0.0368765,0.63945
-0.610177,-0.458531,0.112005,0.00518613,-0.0547242,-0.0628074,0.63945
-0.733672,-0.590429,0.146843,0.00272144,-0.0709393,-0.139175,0.63945
-0.758587,-0.795977,0.166017,-0.0173476,-0.0851211,-0.254154,0.63945
-0.656275,-0.924676,0.162519,-0.0445672,-0.0982696,-0.39172,0.63945
-0.451929,-0.835926,0.165672,-0.0536846,-0.105814,-0.496827,0.63945
-0.323524,-0.465076,0.122597,-0.0893736,-0.0866843,-0.502254,0.63945
-0.396745,-0.338223,0.0571196,-0.0972024,-0.0835404,-0.37372,0.63945
-0.520758,-0.396158,-0.0705235,-0.0891584,-0.108871,-0.264422,0.63945
-0.513325,-0.315252,-0.277227,-0.11377,-0.115129,-0.265454,0.63945
-0.334564,-0.0509261,-0.452807,-0.0978332,-0.0994495,-0.285378,0.63945
-0.128078,0.291356,-0.538278,-0.0424233,-0.0583318,-0.238731,0.63945
-0.0318455,0.611724,-0.522186,0.000879556,-0.00763775,-0.133503,0.63945
-0.0617389,0.75739,-0.46346,0.00768606,0.0292409,-0.0162165,0.63945
-0.0867001,0.497114,-0.400962,-0.0089551,0.0441226,0.0785371,0.63945
0.0215044,-0.130427,-0.295429,-0.0122556,0.058106,0.118654,0.63945
0.279208,-0.680988,-0.230596,-0.0508249,0.0901873,0.0979737,0.63945
0.44489,-0.852815,-0.327357,-0.0940139,0.0970601,0.0787601,0.63945
0.381604,-0.811209,-0.45542,-0.0857732,0.105128,0.114675,0.63945
0.204146,-0.50746,-0.540148,-0.0612403,0.121494,0.155102,0.63945
0.0448865,-0.113073,-0.578949,-0.0347523,0.145051,0.189336,0.63945
-0.0604753,0.160789,-0.57681,-0.0182741,0.147266,0.241138,0.63945
-0.0581645,0.18567,-0.565095,-0.00113428,0.136402,0.280975,0.63945
-0.0101366,0.0810316,-0.5416,0.0217162,0.126021,0.306393,0.63945
-0.0230287,-0.0153471,-0.518346,0.0380761,0.116272,0.327906,0.63945
-0.130389,-0.0640283,-0.48331,0.0565779,0.105916,0.336741,0.63945
-0.302454,0.0060333,-0.430413,0.0848872,0.0954713,0.325134,0.63945
-0.534784,0.185328,-0.38608,0.080845,0.0823464,0.29204,0.63945
-0.707676,0.256777,-0.342274,0.0630883,0.0558019,0.243603,0.63945
-0.694651,0.12774,-0.300873,0.0467583,0.0226443,0.175473,0.63945
-0.499,-0.169857,-0.266616,0.0454507,-0.00652684,0.0956401,0.63945
-0.27234,-0.475768,-0.227568,0.0363296,-0.0132424,0.0440277,0.63945
-0.259816,-0.653533,-0.187318,0.0530511,-0.0154759,0.0403025,0.63945
-0.450801,-0.545388,-0.153776,0.0792817,-0.0374989,0.0254378,0.63945
-0.632907,-0.245136,-0.122902,0.0842187,-0.0514396,-0.0278467,0.63945
-0.674045,-0.0251161,-0.100285,0.0786516,-0.0855041,-0.0961165,0.63945
-0.674045,-0.0251161,-0.100285,0.0786516,-0.0855041,-0.0961165,0.737213
-0.579164,-0.0724173,-0.0523512,0.102698,-0.124328,-0.142649,0.737213
-0.467401,-0.219424,0.00302695,0.108098,-0.133901,-0.191035,0.737213
-0.411042,-0.250996,0.0602958,0.0913625,-0.140756,-0.270987,0.737213
-0.421371,-0.158031,0.0956264,0.0883665,-0.149544,-0.351251,0.737213
-0.512431,0.0623032,0.0757684,0.0613436,-0.158278,-0.420603,0.737213
-0.62168,0.285008,0.0153803,0.0240047,-0.170573,-0.487321,0.737213
-0.607021,0.376016,0.000335766,0.0196258,-0.16612,-0.549508,0.737213
-0.39706,0.147546,0.121384,0.0593273,-0.136736,-0.567826,0.737213
-0.0348259,-0.0303412,0.331607,0.0974747,-0.0989152,-0.569742,0.737213
0.332973,0.046691,0.492774,0.0629001,-0.0449114,-0.526846,0.737213
0.614893,0.298678,0.640711,0.0771002,-0.0306847,-0.400444,0.737213
0.764634,0.625052,0.773933,0.0923482,-0.0257378,-0.21532,0.737213
0.744727,0.809826,0.84478,0.0608492,-0.0123372,-0.029091,0.737213
0.675736,0.71282,0.8509,0.0143959,-0.0193935,0.110845,0.737213
0.67214,0.277863,0.787727,-0.00893101,-0.0337245,0.183006,0.737213
0.814259,-0.13145,0.705288,-0.00306065,-0.0267085,0.183185,0.737213
0.931394,-0.183601,0.640437,-0.0113996,0.0233127,0.168215,0.737213
0.953348,-0.0722634,0.613887,-0.00934573,0.0755101,0.197414,0.737213
0.917589,0.0636127,0.54993,0.00337426,0.0923197,0.253233,0.737213
0.799018,0.18176,0.461508,0.0095965,0.102812,0.307807,0.737213
0.709803,0.228667,0.396958,0.0156076,0.11901,0.329026,0.737213
0.721336,0.206892,0.350894,0.0350322,0.135145,0.314623,0.737213
0.761801,0.226133,0.352422,0.0578462,0.161638,0.301336,0.737213
0.700323,0.263213,0.391092,0.0806797,0.186475,0.317824,0.737213
0.483178,0.271457,0.39389,0.0838767,0.190858,0.356533,0.737213
0.174608,0.252748,0.33234,0.0806842,0.170959,0.372175,0.737213
-0.126428,0.152473,0.228865,0.07168,0.146291,0.344657,0.737213
-0.308598,-0.0382817,0.152947,0.0779285,0.129495,0.267251,0.737213
-0.313902,-0.140685,0.110696,0.0802854,0.129179,0.153956,0.737213
-0.298219,-0.0748197,0.11043,0.0820943,0.142236,0.0756903,0.737213
-0.345478,0.086053,0.135869,0.0865298,0.133677,0.0467495,0.737213
-0.383875,0.268458,0.172231,0.0897279,0.118259,0.0289721,0.737213
-0.417934,0.38169,0.214759,0.0855216,0.0945748,0.0350853,0.737213
-0.49396,0.383473,0.252354,0.0715507,0.0639164,0.0557629,0.737213
-0.518583,0.308549,0.2765,0.06584,0.0181145,0.0361881,0.737213
-0.51161,0.297655,0.258539,0.0418854,-0.0177512,-0.0216442,0.737213
-0.617859,0.236761,0.220844,0.0263017,-0.0597532,-0.054839,0.737213
-0.746085,0.132004,0.208226,0.0277647,-0.0992175,-0.108459,0.737213
-0.808666,-0.156809,0.258101,0.0447255,-0.0969912,-0.17073,0.737213
-0.808338,-0.438734,0.40307,0.0545974,-0.082561,-0.261941,0.737213
-0.788387,-0.576886,0.503302,0.0269183,-0.0846363,-0.384389,0.737213
-0.717271,-0.695611,0.475516,-0.0471003,-0.124472,-0.518536,0.737213
-0.559345,-0.761494,0.411176,-0.106549,-0.147504,-0.616283,0.737213
-0.3764,-0.647571,0.300502,-0.16621,-0.145981,-0.660136,0.737213
-0.2212,-0.504356,0.153095,-0.227878,-0.118889,-0.625892,0.737213
-0.0735651,-0.430511,0.011795,-0.218461,-0.112698,-0.540318,0.737213
0.172371,-0.111616,-0.157597,-0.202532,-0.109683,-0.487863,0.737213
0.441085,0.41095,-0.351881,-0.203757,-0.0813816,-0.390772,0.737213
0.580487,0.843887,-0.513353,-0.206178,-0.0258334,-0.207109,0.737213
0.570884,0.94447,-0.576855,-0.190785,0.045265,0.00645387,0.737213
0.442083,0.741057,-0.610125,-0.175641,0.0902851,0.168525,0.737213
0.284974,0.36814,-0.619543,-0.17232,0.122743,0.260061,0.737213
0.206934,0.0381026,-0.649079,-0.19482,0.150205,0.265982,0.737213
0.246871,-0.110648,-0.73573,-0.221037,0.166579,0.232158,0.737213
0.246871,-0.110648,-0.73573,-0.221037,0.166579,0.232158,0.858765
0.348087,-0.0129995,-0.848428,-0.218259,0.165795,0.214046,0.858765
0.401822,0.194923,-0.950174,-0.193282,0.167805,0.252128,0.858765
0.342008,0.313826,-0.974504,-0.150371,0.182417,0.338767,0.858765
0.297086,0.338745,-0.918016,-0.100556,0.186155,0.398945,0.858765
0.280393,0.296271,-0.823,-0.0671691,0.194818,0.433085,0.858765
0.268461,0.156926,-0.713812,-0.044821,0.18434,0.438506,0.858765
0.21437,-0.000295437,-0.618483,-0.0184587,0.148427,0.429247,0.858765
0.0966742,-0.296145,-0.550335,-0.013166,0.123983,0.417223,0.858765
0.0145872,-0.722462,-0.462124,0.0214911,0.0948631,0.363372,0.858765
-0.0135636,-0.970779,-0.387199,0.0458646,0.0642304,0.262683,0.858765
-0.0759482,-0.840302,-0.363523,0.0329251,0.0429007,0.162308,0.858765
-0.291323,-0.621318,-0.398839,0.012733,0.00889802,0.12537,0.858765
-0.510352,-0.432537,-0.469873,0.00426926,-0.0390786,0.0873299,0.858765
-0.598358,-0.335303,-0.566041,-0.00798079,-0.0665778,0.022431,0.858765
-0.589892,-0.270915,-0.6115,0.00622065,-0.071264,-0.0290397,0.858765
-0.520494,-0.222344,-0.547502,0.056817,-0.0702588,-0.0572123,0.858765
-0.40853,-0.100109,-0.385735,0.106614,-0.0615747,-0.0622759,0.858765
-0.280555,0.0129849,-0.189458,0.12308,-0.0613983,-0.0444338,0.858765
-0.208501,0.0309831,-0.0406831,0.0970884,-0.0793826,0.00657839,0.858765
-0.196601,-0.0798672,-0.00480025,0.0711954,-0.128897,0.0513768,0.858765
-0.217848,-0.222582,0.0122743,0.0632584,-0.156833,0.0557427,0.858765
-0.243338,-0.264482,0.0476335,0.0593154,-0.165548,0.0157559,0.858765
-0.217389,-0.292373,0.0784915,0.0535857,-0.171718,-0.0532722,0.858765
-0.150779,-0.298719,0.116862,0.0757263,-0.181985,-0.128719,0.858765
-0.170939,-0.258932,0.174802,0.0753857,-0.167801,-0.17846,0.858765
-0.271893,-0.224876,0.240637,0.0936016,-0.173308,-0.221576,0.858765
-0.389963,-0.266859,0.251962,0.0818051,-0.183401,-0.312601,0.858765
-0.463086,-0.234537,0.222608,0.0522994,-0.191129,-0.458975,0.858765
-0.401645,-0.0475498,0.198555,0.035746,-0.18153,-0.599199,0.858765
-0.216994,0.247736,0.25522,0.0452873,-0.144883,-0.68073,0.858765
0.00365633,0.485222,0.383972,0.0675073,-0.0970834,-0.660302,0.858765
0.162319,0.557652,0.496493,0.0686389,-0.0623539,-0.548499,0.858765
0.286811,0.49284,0.619253,0.0800975,-0.036774,-0.41724,0.858765
0.529117,0.436394,0.775626,0.0948718,-0.0109545,-0.329302,0.858765
0.84023,0.515308,0.947196,0.104073,0.0167986,-0.23245,0.858765
0.959831,0.542951,1.06632,0.0956922,0.0441715,-0.0743961,0.858765
0.840768,0.389465,1.13537,0.0794385,0.0520315,0.0996343,0.858765
0.652748,0.0809587,1.13065,0.0620218,0.0539104,0.206872,0.858765
0.578671,-0.107775,1.0739,0.0404422,0.0572766,0.222952,0.858765
0.644482,-0.226704,1.01147,0.0246955,0.0906307,0.209851,0.858765
0.787246,-0.200693,0.971632,0.0295103,0.125482,0.229,0.858765
0.957047,-0.0423137,0.938109,0.044536,0.156084,0.274856,0.858765
1.01214,0.157924,0.913914,0.0504045,0.194246,0.355291,0.858765
0.903729,0.327013,0.910009,0.062176,0.21601,0.440175,0.858765
0.720417,0.359227,0.912693,0.0668922,0.2265,0.495601,0.858765
0.606046,0.312079,0.939899,0.0977745,0.220405,0.490839,0.858765
0.538342,0.282923,0.968657,0.130496,0.211498,0.440087,0.858765
0.418771,0.331763,0.973845,0.130028,0.195804,0.39245,0.858765
0.161956,0.433056,0.846744,0.0989519,0.148984,0.344197,0.858765
-0.154487,0.336729,0.624077,0.0908871,0.0993277,0.296389,0.858765
-0.328654,0.100256,0.478158,0.12049,0.0719636,0.208804,0.858765
-0.342046,-0.220483,0.451113,0.155571,0.0765786,0.100644,0.858765
-0.274909,-0.262668,0.419836,0.163258,0.0831341,-0.0116529,0.858765
-0.274909,-0.262668,0.419836,0.163258,0.0831341,-0.0116529,0.993515
-0.281488,-0.119024,0.328394,0.138918,0.0783556,-0.0806825,0.993515
-0.397207,-0.0417566,0.244252,0.123674,0.077161,-0.0894259,0.993515
-0.491333,0.101617,0.230048,0.143397,0.0773772,-0.109568,0.993515
-0.451462,0.431797,0.308776,0.162413,0.0839378,-0.139263,0.993515
-0.375807,0.818582,0.435911,0.168795,0.0895656,-0.115884,0.993515
-0.380391,1.03483,0.578535,0.158484,0.0718423,-0.0246522,0.993515
-0.395238,0.97751,0.73165,0.128422,0.0494518,0.0694516,0.993515
-0.349493,0.759564,0.853067,0.0990246,0.0174821,0.110696,0.993515
-0.274086,0.467209,0.988758,0.0932995,-0.00505735,0.128175,0.993515
-0.250201,0.239703,1.12337,0.0779351,-0.0260014,0.135847,0.993515
-0.293262,0.0789903,1.20927,0.0506796,-0.0510971,0.125215,0.993515
-0.310251,-0.0899971,1.22476,0.0215235,-0.0869903,0.077961,0.993515
-0.252963,-0.204865,1.20738,0.00418537,-0.11553,0.00243407,0.993515
-0.190022,-0.235236,1.15866,-0.0196768,-0.132824,-0.0737312,0.993515
-0.185554,-0.193873,1.10365,-0.0212784,-0.144522,-0.119973,0.993515
-0.230234,-0.068773,0.999345,-0.0434522,-0.164018,-0.151492,0.993515
-0.254319,0.0400467,0.857549,-0.0635104,-0.183939,-0.182963,0.993515
-0.258694,0.0912353,0.745654,-0.050544,-0.189098,-0.204938,0.993515
-0.28038,0.117492,0.673165,-0.0261189,-0.180493,-0.208735,0.993515
-0.301828,0.0420102,0.608635,-0.0136849,-0.169361,-0.199273,0.993515
-0.254957,-0.0702138,0.562035,-0.00420089,-0.161973,-0.219873,0.993515
-0.121638,-0.114148,0.535081,0.000628188,-0.144084,-0.258496,0.993515
0.0715135,-0.0263204,0.554788,-0.00454262,-0.104408,-0.27801,0.993515
0.300215,0.124725,0.619047,0.00642226,-0.0763697,-0.249699,0.993515
0.42867,0.284784,0.637366,-0.00139869,-0.0570148,-0.161578,0.993515
0.397019,0.30533,0.623383,-0.033562,-0.0384639,-0.0498378,0.993515
0.350547,0.146345,0.589043,-0.0484633,-0.0171245,0.0222642,0.993515
0.405802,0.00759657,0.568363,-0.0611676,0.0233121,0.0249789,0.993515
0.555986,0.0103253,0.567819,-0.0644108,0.0620506,-0.00266618,0.993515
0.659042,0.00328732,0.55899,-0.0777869,0.100621,0.0101624,0.993515
0.574323,-0.153904,0.494517,-0.109477,0.135201,0.0704992,0.993515
0.377562,-0.27743,0.354842,-0.142886,0.148892,0.091126,0.993515
0.172845,-0.252212,0.161076,-0.173533,0.160841,0.0675521,0.993515
0.0369789,-0.0514681,-0.0417964,-0.167392,0.15487,0.0277717,0.993515
0.00618554,0.231516,-0.189608,-0.135552,0.150532,0.0141823,0.993515
-0.0220534,0.374104,-0.186732,-0.0627189,0.169033,0.0758043,0.993515
-0.0571161,0.322762,-0.0762704,0.0144814,0.164416,0.154971,0.993515
-0.0576369,0.180378,0.0495948,0.0629415,0.142334,0.204502,0.993515
-0.098955,0.0707982,0.1685,0.0700091,0.107521,0.238878,0.993515
-0.228839,-0.0310557,0.252533,0.0583119,0.0708401,0.268921,0.993515
-0.366284,-0.0802015,0.28751,0.0485251,0.0186727,0.258326,0.993515
-0.446035,-0.0815482,0.267253,0.0435821,-0.0276667,0.215726,0.993515
-0.462669,-0.0193589,0.244392,0.0422109,-0.0697987,0.161851,0.993515
-0.473381,-0.0427643,0.256404,0.068433,-0.100041,0.137946,0.993515
-0.470632,-0.120892,0.351096,0.117191,-0.118566,0.120558,0.993515
-0.452974,-0.161283,0.502284,0.130976,-0.121637,0.0900087,0.993515
-0.392444,-0.108064,0.620215,0.126314,-0.145007,0.0354398,0.993515
-0.314617,-0.0415987,0.670878,0.112696,-0.17338,-0.0129551,0.993515
-0.231593,0.0345299,0.726009,0.117966,-0.184536,-0.0483864,0.993515
-0.15191,0.106069,0.809909,0.126739,-0.173979,-0.0771505,0.993515
-0.124611,0.0616896,0.916096,0.123835,-0.153148,-0.102231,0.993515
-0.0965062,-0.0606301,1.06031,0.128147,-0.113554,-0.178545,0.993515
0.05578,-0.0247126,1.17886,0.0989556,-0.0725386,-0.350686,0.993515
0.203688,0.159512,1.17406,0.0646969,-0.0576678,-0.483842,0.993515
0.203688,0.159512,1.17406,0.0646969,-0.0576678,-0.483842,1.13884
0.210295,0.451845,1.11377,0.065013,-0.0581377,-0.539756,1.13884
0.066611,0.633145,0.996805,0.0437962,-0.0328699,-0.534726,1.13884
-0.140917,0.495993,0.898407,0.0370799,0.00256546,-0.4966,1.13884
-0.191764,0.393039,0.867736,0.0412125,0.0342496,-0.530188,1.13884
-0.126678,0.422801,0.838233,0.0415628,0.0626744,-0.558373,1.13884
0.00468545,0.502823,0.851133,0.0517971,0.0888001,-0.527584,1.13884
0.234217,0.645224,0.932866,0.0768287,0.126956,-0.45574,1.13884
0.498086,0.960466,1.02131,0.0888847,0.147043,-0.349052,1.13884
0.607443,1.04937,1.08654,0.0887245,0.164377,-0.155973,1.13884
0.600466,0.895839,1.15372,0.105947,0.159453,0.0248665,1.13884
0.496743,0.57063,1.21685,0.104447,0.166055,0.144829,1.13884
0.397006,0.241971,1.25906,0.102539,0.152627,0.186865,1.13884
0.405973,-0.0341546,1.21309,0.0634518,0.149557,0.169561,1.13884
0.458374,-0.0977362,1.11625,0.0572319,0.134437,0.152809,1.13884
0.445504,0.0245596,1.00024,0.0438352,0.13574,0.164367,1.13884
0.413161,0.185155,0.928342,0.0479276,0.144347,0.210533,1.13884
0.427337,0.341662,0.894748,0.0676543,0.158106,0.259571,1.13884
0.445536,0.475924,0.88299,0.0658446,0.177095,0.315862,1.13884
0.444575,0.44927,0.875568,0.0627514,0.183454,0.375304,1.13884
0.428835,0.198421,0.824883,0.0543885,0.167404,0.414994,1.13884
0.409029,0.0287818,0.783613,0.071587,0.146686,0.37548,1.13884
0.360573,0.0187049,0.7182,0.0795121,0.120327,0.286605,1.13884
0.220385,-0.057579,0.709911,0.109277,0.103567,0.232245,1.13884
0.113224,-0.0849152,0.710356,0.126137,0.0794583,0.160003,1.13884
0.148287,-0.0564956,0.670679,0.117936,0.0660946,0.0655864,1.13884
0.106314,-0.12531,0.672536,0.112956,0.0688419,0.0477625,1.13884
0.0253549,-0.230508,0.727046,0.104161,0.0451799,0.0409165,1.13884
0.0475424,-0.345943,0.686185,0.0553715,0.0206717,-0.00807196,1.13884
0.137029,-0.202101,0.544354,0.00266109,-0.00251806,-0.071848,1.13884
0.198659,0.168516,0.408697,0.00539119,-0.00514331,-0.0787214,1.13884
0.094691,0.350798,0.369981,0.0282848,0.0309367,0.00771981,1.13884
-0.0898318,0.194865,0.442684,0.0583904,0.0469699,0.0949253,1.13884
-0.120905,-0.0124868,0.494731,0.0670877,0.0232376,0.0637362,1.13884
0.0545672,-0.0281351,0.491629,0.0591872,-0.00547877,-0.0590975,1.13884
0.123695,0.0641288,0.441524,0.0457305,-0.0170191,-0.10926,1.13884
-0.0459794,0.133325,0.374115,0.0530013,-0.0395782,-0.0986805,1.13884
-0.239626,0.129216,0.302442,0.0561764,-0.059064,-0.138606,1.13884
-0.282266,-0.0468611,0.301186,0.0802043,-0.0480545,-0.229073,1.13884
-0.160508,-0.263543,0.330688,0.0844771,-0.0195518,-0.327991,1.13884
-0.025103,-0.313008,0.337648,0.0504855,0.0144766,-0.406012,1.13884
-0.0674851,-0.207429,0.306138,0.00213642,0.042152,-0.417518,1.13884
-0.259431,0.00884107,0.225947,-0.0327062,0.0439538,-0.383674,1.13884
-0.419947,0.145924,0.128092,-0.0435298,0.036844,-0.342631,1.13884
-0.458171,0.08586,0.06961,-0.0330783,0.0292574,-0.304774,1.13884
-0.374215,-0.0138227,0.0505145,-0.0319406,0.020459,-0.29171,1.13884
-0.143271,0.0913003,0.0373754,-0.051842,0.0241985,-0.307817,1.13884
0.13404,0.378961,0.0205287,-0.0714647,0.0333302,-0.268031,1.13884
0.30911,0.631594,-0.00719991,-0.0782541,0.040172,-0.137061,1.13884
0.313001,0.617961,-0.0160134,-0.0787355,0.0521967,0.0310004,1.13884
0.242421,0.48505,0.0034648,-0.072141,0.0624949,0.143772,1.13884
0.185376,0.252829,0.00801025,-0.0985181,0.0804617,0.202804,1.13884
0.165922,0.019658,-0.0340858,-0.134826,0.0960039,0.219895,1.13884
0.192389,-0.101361,-0.168679,-0.179945,0.0942171,0.207131,1.13884
0.227139,-0.0562631,-0.37352,-0.200515,0.0829581,0.202817,1.13884
0.227139,-0.0562631,-0.37352,-0.200515,0.0829581,0.202817,1.30267
0.219535,0.0763509,-0.523248,-0.175079,0.0921498,0.230449,1.30267
0.20575,0.253524,-0.547944,-0.116482,0.11778,0.274404,1.30267
0.20555,0.368674,-0.514848,-0.0890426,0.134591,0.317781,1.30267
0.177341,0.217468,-0.457807,-0.0707693,0.127846,0.378424,1.30267
0.138322,-0.112833,-0.402472,-0.0404223,0.101287,0.402975,1.30267
0.11324,-0.383075,-0.292217,0.0086993,0.0854267,0.356943,1.30267
0.0905606,-0.342484,-0.182036,0.0168944,0.0698763,0.242474,1.30267
-0.0030522,-0.201202,-0.122692,0.0109405,0.0491423,0.177601,1.30267
-0.132622,-0.158394,-0.0806577,0.0208595,0.0135804,0.153967,1.30267
-0.170818,-0.133826,-0.0931188,-0.00961673,-0.00133914,0.112803,1.30267
-0.155499,-0.246272,-0.110013,-0.0375711,0.000402033,0.0946817,1.30267
-0.229934,-0.399547,-0.115418,-0.036341,0.00151077,0.110233,1.30267
-0.357844,-0.423815,-0.136479,-0.0650892,-0.000169456,0.105168,1.30267
-0.398781,-0.362836,-0.177116,-0.0670032,-0.0113226,0.0644597,1.30267
-0.338613,-0.189331,-0.195116,-0.04172,-0.0200959,0.0313278,1.30267
-0.301344,-0.0589388,-0.142954,-0.00777956,-0.0105298,0.0494862,1.30267
-0.304562,-0.0451282,-0.0546829,0.0247062,-0.0149532,0.0892459,1.30267
-0.272199,-0.0923473,0.0295415,0.0467997,-0.040035,0.103936,1.30267
-0.245295,-0.176253,0.0636803,0.0359712,-0.0599503,0.0982234,1.30267
-0.268926,-0.204869,0.067906,0.0283928,-0.0860801,0.076417,1.30267
-0.332849,-0.271995,0.052204,0.0170493,-0.0969543,0.0403758,1.30267
-0.323017,-0.295083,0.0326472,0.0254822,-0.128556,-0.0446461,1.30267
-0.265141,-0.469744,0.0205855,0.0212306,-0.119611,-0.14851,1.30267
-0.2068,-0.555716,0.0489249,0.0278773,-0.116929,-0.270767,1.30267
-0.0938836,-0.388755,0.060001,0.0132522,-0.136208,-0.410951,1.30267
0.00481486,-0.0501397,0.0476344,0.00992775,-0.1505,-0.501079,1.30267
0.0266482,0.392571,0.0541128,-0.0227719,-0.13448,-0.52633,1.30267
0.0872387,0.713771,0.0901626,-0.037609,-0.115887,-0.518875,1.30267
0.126134,0.697778,0.0836051,-0.0154628,-0.117757,-0.444354,1.30267
0.0279263,0.475063,0.0518366,-0.000684202,-0.114295,-0.355737,1.30267
-0.0768152,0.295075,0.0346066,-0.0130515,-0.083629,-0.335204,1.30267
-0.0377947,0.411725,0.0268716,-0.00719293,-0.0477407,-0.378867,1.30267
0.109585,0.656035,0.0615862,0.00442203,-0.00916514,-0.36662,1.30267
0.296369,0.901536,0.15258,0.0206058,0.0235108,-0.255369,1.30267
0.44102,1.0128,0.283081,0.0275486,0.0503997,-0.0897657,1.30267
0.548872,0.851473,0.429296,0.0453428,0.0664522,0.0741682,1.30267
0.586093,0.513764,0.556162,0.0494582,0.0832692,0.198114,1.30267
0.496693,0.123744,0.626825,0.0356459,0.0836277,0.280358,1.30267
0.292749,-0.189698,0.600479,0.00643606,0.0723363,0.312861,1.30267
0.0755895,-0.336356,0.487879,-0.0151662,0.0513147,0.295058,1.30267
-0.0860041,-0.230747,0.307677,-0.0451159,0.0500008,0.257156,1.30267
-0.201837,-0.136052,0.181363,-0.0434064,0.0640886,0.247626,1.30267
-0.195717,-0.142012,0.11634,-0.0263123,0.0814527,0.255728,1.30267
-0.0117941,-0.0984223,0.00917161,-0.0274784,0.0852363,0.235466,1.30267
0.248372,-0.140807,0.0832801,-0.00324748,0.1222,0.237978,1.30267
0.497965,-0.100638,0.229529,0.0132314,0.154826,0.243067,1.30267
0.587447,-0.207003,0.380461,0.0346702,0.172128,0.256108,1.30267
0.488499,-0.355717,0.471934,0.0884476,0.131422,0.24165,1.30267
0.281738,-0.355934,0.503281,0.0815836,0.0995818,0.200992,1.30267
0.095779,-0.124192,0.389609,0.0171082,0.0645731,0.113524,1.30267
-0.062641,0.132368,0.146332,-0.0460049,0.0232382,0.0530829,1.30267
-0.149797,0.17487,-0.0881569,-0.0453071,-0.0111441,0.0387223,1.30267
-0.166068,0.0280198,-0.200342,-0.00885814,-0.0055401,0.0483113,1.30267
-0.201738,-0.0834132,-0.176773,0.00832921,0.0329373,0.0672072,1.30267
-0.201738,-0.0834132,-0.176773,0.00832921,0.0329373,0.0672072,1.52199
-0.248979,0.0180058,-0.126854,-0.0124916,0.0357646,0.0646272,1.52199
-0.276722,0.139124,-0.148624,-0.0330074,0.0107753,0.071571,1.52199
-0.250953,0.174512,-0.184974,-0.0239217,-0.0241096,0.080267,1.52199
-0.225503,0.0698277,-0.127176,0.020124,-0.0328963,0.107853,1.52199
-0.229097,-0.0127542,-0.037508,0.0458705,-0.0440856,0.119876,1.52199
-0.304459,-0.0383451,0.00605806,0.0506957,-0.0644392,0.11259,1.52199
-0.391061,0.0773634,0.00512956,0.0353214,-0.0981426,0.0631006,1.52199
-0.419707,0.11025,-0.0379328,0.0172361,-0.12149,0.0101386,1.52199
-0.391298,-0.027954,-0.0237056,0.0336066,-0.116672,-0.0308535,1.52199
-0.326757,-0.259754,0.0139697,0.0627482,-0.112154,-0.0780432,1.52199
-0.227757,-0.455051,0.0179528,0.0654052,-0.105716,-0.154172,1.52199
-0.142138,-0.452358,-0.00656061,0.0562722,-0.0929515,-0.25329,1.52199
-0.111518,-0.306615,0.0702797,0.0723218,-0.0649113,-0.327005,1.52199
-0.137723,-0.110394,0.164687,0.0584886,-0.036832,-0.361971,1.52199
-0.203172,-0.042412,0.166366,0.00573699,-0.0396495,-0.361967,1.52199
-0.266736,-0.130499,0.0654545,-0.0506337,-0.0625505,-0.358591,1.52199
-0.307969,-0.293422,-0.101673,-0.109248,-0.0728061,-0.354533,1.52199
-0.329869,-0.396306,-0.307858,-0.137007,-0.0726524,-0.353575,1.52199
-0.392313,-0.420161,-0.470815,-0.136282,-0.040491,-0.333538,1.52199
-0.392104,-0.312695,-0.531072,-0.117956,0.0100949,-0.323851,1.52199
-0.228917,-0.0555749,-0.540722,-0.0839141,0.0475274,-0.309271,1.52199
-0.00841843,0.297019,-0.499763,-0.0382404,0.0688705,-0.234816,1.52199
0.150331,0.443752,-0.408391,-0.0249012,0.0902252,-0.0972275,1.52199
0.211678,0.198167,-0.258411,0.0127996,0.097873,0.0476862,1.52199
0.256409,-0.224877,-0.150597,0.017584,0.0930398,0.118692,1.52199
0.252448,-0.420632,-0.155097,-0.0455075,0.0863983,0.129662,1.52199
0.174677,-0.264541,-0.285414,-0.131954,0.0766278,0.124085,1.52199
0.0790739,-0.0461684,-0.488789,-0.160949,0.0660741,0.151258,1.52199
0.0371281,0.141674,-0.660613,-0.131353,0.0560982,0.204009,1.52199
0.0246651,0.24975,-0.709364,-0.0705545,0.0825399,0.274868,1.52199
0.0481899,0.228522,-0.645958,-0.0168257,0.115643,0.33178,1.52199
0.164754,0.133852,-0.556799,0.0153033,0.127578,0.349926,1.52199
0.325473,0.0241407,-0.542041,0.0154206,0.111291,0.34839,1.52199
0.321462,-0.0896834,-0.513754,0.0286654,0.109827,0.37418,1.52199
0.146916,-0.220342,-0.379895,0.0829107,0.103,0.385693,1.52199
-0.0643886,-0.281119,-0.250376,0.0937971,0.089066,0.338536,1.52199
-0.201806,-0.273181,-0.144154,0.0768442,0.0737905,0.24067,1.52199
-0.207266,-0.172536,-0.0645611,0.0481449,0.0391285,0.139728,1.52199
-0.211047,-0.136504,-0.0437794,-0.0106227,0.0241715,0.0838001,1.52199
-0.194059,-0.0517227,-0.0925001,-0.0491798,-0.016196,0.0407754,1.52199
-0.191002,0.0759945,-0.192495,-0.0770126,-0.0383529,0.0220507,1.52199
-0.291684,0.123795,-0.249683,-0.0763672,-0.0288387,0.0651176,1.52199
-0.445413,0.0951677,-0.239527,-0.0498727,-0.0267187,0.0950619,1.52199
-0.533012,0.0415524,-0.238342,-0.0412569,-0.0319835,0.080694,1.52199
-0.497946,-0.0585968,-0.164519,-0.00700948,-0.0418548,0.0380816,1.52199
-0.382039,-0.102998,-0.00574626,0.0374533,-0.0408873,-0.0115101,1.52199
-0.246781,-0.0853493,0.144385,0.0499151,-0.0570766,-0.0540828,1.52199
-0.192673,-0.164016,0.225853,0.0306776,-0.0900429,-0.0713269,1.52199
-0.256036,-0.293879,0.257539,0.030065,-0.11751,-0.104635,1.52199
-0.372979,-0.310243,0.278226,0.0309772,-0.129939,-0.202249,1.52199
-0.389406,-0.183212,0.293018,0.0299947,-0.137275,-0.353739,1.52199
-0.222641,0.0426797,0.350712,0.0558675,-0.137094,-0.499099,1.52199
-0.00622807,0.339785,0.412089,0.0682905,-0.117193,-0.563878,1.52199
0.054884,0.452686,0.429435,0.0509165,-0.112365,-0.51342,1.52199
0.054884,0.452686,0.429435,0.0509165,-0.112365,-0.51342,1.71751
-0.0846943,0.31237,0.371958,0.0298496,-0.133219,-0.409764,1.71751
-0.225545,0.0467203,0.263914,0.00431529,-0.126149,-0.368628,1.71751
-0.185856,-0.0232386,0.222365,0.00257178,-0.0866689,-0.407408,1.71751
0.0531069,0.0596012,0.308253,0.0402269,-0.0317068,-0.418264,1.71751
0.400498,0.349297,0.465125,0.0830906,-0.00660913,-0.338777,1.71751
0.647003,0.630121,0.600971,0.075226,0.0138747,-0.156279,1.71751
0.660549,0.845913,0.677859,0.0620581,0.00315543,0.0556072,1.71751
0.477454,0.822741,0.696473,0.0333016,-0.0111786,0.225607,1.71751
0.210614,0.424626,0.645135,0.0210464,-0.0150089,0.33374,1.71751
0.038458,-0.0962302,0.633066,0.0509861,-0.019128,0.338933,1.71751
0.104775,-0.386595,0.645685,0.0417649,0.00169086,0.251047,1.71751
0.259025,-0.333085,0.576657,0.0136125,0.0317088,0.172272,1.71751
0.322134,-0.159001,0.493119,0.0146231,0.0394615,0.173542,1.71751
0.34456,0.0263636,0.424427,0.0157666,0.0592406,0.220189,1.71751
0.382511,0.191836,0.34214,0.0135853,0.0793196,0.263857,1.71751
0.429082,0.199062,0.284435,0.0172675,0.0887177,0.299736,1.71751
0.487335,0.147177,0.239912,0.0312941,0.0968712,0.314081,1.71751
0.471596,-0.0604243,0.2548,0.0659535,0.115447,0.325762,1.71751
0.422783,-0.216957,0.316168,0.100612,0.113799,0.284039,1.71751
0.284531,-0.236083,0.357327,0.11364,0.111156,0.225693,1.71751
0.0300551,-0.217037,0.34885,0.104052,0.0943723,0.176351,1.71751
-0.166845,-0.148033,0.266138,0.0533822,0.0612273,0.104627,1.71751
-0.188008,-0.0435734,0.137221,0.0145475,0.0368923,0.0121725,1.71751
-0.10831,0.0390877,0.0645644,0.0130667,0.0297138,-0.0307288,1.71751
-0.0585213,0.0893953,0.0457742,0.00188974,0.0419004,-0.0148177,1.71751
-0.0894693,0.0698275,-0.00165246,-0.0111217,0.0400142,0.0313833,1.71751
-0.174066,0.124898,-0.0595542,-0.0033736,0.0234232,0.0575614,1.71751
-0.215751,0.253006,-0.0866479,0.0107707,0.0176818,0.0602684,1.71751
-0.203762,0.270879,-0.0841715,0.0371402,0.00736584,0.0704622,1.71751
-0.225414,0.192744,0.0145002,0.0772208,0.00649671,0.0931498,1.71751
-0.309957,-0.0152222,0.164747,0.10044,0.00710556,0.0983369,1.71751
-0.377844,-0.320602,0.277375,0.104123,-0.0234852,0.049675,1.71751
-0.356901,-0.589753,0.341788,0.0961222,-0.0568132,-0.0864528,1.71751
-0.316478,-0.65618,0.30188,0.0451691,-0.0777255,-0.24708,1.71751
-0.312874,-0.507099,0.172232,-0.00890351,-0.112344,-0.385866,1.71751
-0.323793,-0.349257,0.0824938,-0.00957129,-0.108062,-0.464446,1.71751
-0.353155,-0.192851,0.132906,0.00971028,-0.0663999,-0.497498,1.71751
-0.359039,-0.105386,0.148206,-0.0315418,-0.0437726,-0.488149,1.71751
-0.321057,-0.104648,0.0483888,-0.0656459,-0.0657758,-0.437855,1.71751
-0.294104,-0.18074,-0.131049,-0.131189,-0.059763,-0.372238,1.71751
-0.309677,-0.230603,-0.32471,-0.168333,-0.0244807,-0.31339,1.71751
-0.335047,-0.123073,-0.490324,-0.157291,0.00796658,-0.287207,1.71751
-0.268374,0.342698,-0.517739,-0.098479,0.0346979,-0.284173,1.71751
-0.0714626,0.783535,-0.44846,-0.0577868,0.0631689,-0.221324,1.71751
0.146273,0.876522,-0.342611,-0.0372193,0.0762364,-0.0795736,1.71751
0.233515,0.61478,-0.278764,-0.0570027,0.0744486,0.0716447,1.71751
0.185532,0.0926193,-0.24986,-0.0868303,0.0698904,0.175036,1.71751
0.173652,-0.313016,-0.279059,-0.133817,0.0655256,0.18137,1.71751
0.239624,-0.319325,-0.42326,-0.186739,0.0598876,0.122077,1.71751
0.31287,-0.144907,-0.563392,-0.189202,0.0558417,0.104759,1.71751
0.368365,0.110889,-0.660641,-0.160653,0.0638562,0.159448,1.71751
0.356894,0.287508,-0.749171,-0.130538,0.0758953,0.270825,1.71751
0.313566,0.343594,-0.777349,-0.0962558,0.0795683,0.37143,1.71751
0.317075,0.250099,-0.732476,-0.0583857,0.0948822,0.429565,1.71751
0.317075,0.250099,-0.732476,-0.0583857,0.0948822,0.429565,1.90776
0.362656,0.0497869,-0.640973,-0.0260848,0.113915,0.436192,1.90776
0.392844,-0.116421,-0.519726,0.0115716,0.112852,0.405836,1.90776
0.258278,-0.316905,-0.450403,0.0364991,0.0876597,0.379156,1.90776
0.0331038,-0.619474,-0.376938,0.0427474,0.0749657,0.32517,1.90776
-0.0423212,-0.754761,-0.270926,0.0693033,0.0518267,0.177319,1.90776
0.0744127,-0.53369,-0.22839,0.0357698,0.0361308,-0.000251651,1.90776
0.122192,-0.138433,-0.25839,-0.0288307,0.032152,-0.0534262,1.90776
-0.076808,-0.0216753,-0.346268,-0.0624563,0.00568843,0.0198684,1.90776
-0.31516,-0.100977,-0.438702,-0.0662404,-0.029242,0.0867304,1.90776
-0.386673,-0.158174,-0.480465,-0.0483141,-0.0329931,0.0672193,1.90776
-0.304348,-0.103739,-0.439546,-0.0127652,-0.0330243,0.01848,1.90776
-0.177976,-0.0179897,-0.342707,0.017882,-0.0377259,0.0211147,1.90776
-0.116803,-0.0400636,-0.230352,0.0336308,-0.0461682,0.0804201,1.90776
-0.098589,-0.0997957,-0.126109,0.0423812,-0.0621639,0.125652,1.90776
-0.134431,-0.162671,-0.0801584,0.0262775,-0.0825894,0.165152,1.90776
-0.217441,-0.189537,-0.0933086,0.00294955,-0.115006,0.177244,1.90776
-0.300891,-0.153262,-0.157783,-0.0146756,-0.140889,0.16623,1.90776
-0.364632,-0.101336,-0.202813,-0.0197747,-0.148958,0.139027,1.90776
-0.376556,-0.113888,-0.22629,-0.00557093,-0.14234,0.107799,1.90776
-0.371917,-0.13579,-0.240507,0.0150675,-0.138207,0.0816959,1.90776
-0.387786,-0.185789,-0.246742,0.0342601,-0.125509,0.0427855,1.90776
-0.358302,-0.155311,-0.149907,0.0851856,-0.101611,-0.0320403,1.90776
-0.294667,-0.124291,0.0393679,0.124796,-0.0657623,-0.116136,1.90776
-0.17288,-0.0703427,0.229449,0.144977,-0.0711509,-0.208825,1.90776
-0.0445396,-0.00638022,0.347575,0.136174,-0.0982025,-0.291492,1.90776
-0.0552811,-0.0791213,0.420364,0.109932,-0.0938626,-0.327675,1.90776
-0.151286,-0.0816625,0.453302,0.101194,-0.118609,-0.382257,1.90776
-0.304809,0.0382187,0.463906,0.090401,-0.133528,-0.441806,1.90776
-0.46844,0.12186,0.413826,0.0472404,-0.128934,-0.493517,1.90776
-0.579346,-0.126349,0.333309,0.008092,-0.125471,-0.539957,1.90776
-0.532542,-0.262195,0.300664,0.0158697,-0.103225,-0.628888,1.90776
-0.306615,0.00375924,0.354057,0.0314234,-0.0527761,-0.708727,1.90776
0.0426122,0.546017,0.500407,0.0452571,-0.0103581,-0.692137,1.90776
0.405791,1.05407,0.673868,0.0753784,1.69426e-05,-0.531006,1.90776
0.590371,1.12433,0.808518,0.0795208,0.00399594,-0.251379,1.90776
0.633533,0.901306,0.901454,0.07809,0.00181607,-0.0105835,1.90776
0.60887,0.484877,0.906599,0.0676235,-0.00142101,0.135137,1.90776
0.560219,0.0210756,0.879229,0.0537439,0.0088488,0.208973,1.90776
0.521942,-0.180262,0.800966,0.0414293,0.025931,0.220598,1.90776
0.502289,-0.0872894,0.649353,0.00553852,0.0374753,0.205432,1.90776
0.547923,0.0471773,0.513804,-0.0125026,0.0616475,0.223484,1.90776
0.61927,0.129932,0.396526,-0.0106461,0.094492,0.280727,1.90776
0.650705,0.19683,0.343771,-0.00417957,0.132045,0.35055,1.90776
0.705175,0.284917,0.370371,0.0445086,0.164054,0.38119,1.90776
0.744872,0.42871,0.407334,0.0730505,0.176933,0.393656,1.90776
0.77671,0.518954,0.492388,0.0999357,0.177575,0.40176,1.90776
0.726054,0.558794,0.608009,0.141802,0.148169,0.412438,1.90776
0.51551,0.582373,0.608217,0.117914,0.105775,0.408034,1.90776
0.268374,0.5307,0.558264,0.0987809,0.062646,0.349654,1.90776
0.790924,0.0643552,0.462091,0.132558,0.0888762,0.249984,1.90776
0.539019,-0.539995,0.601311,0.243388,0.071448,0.238379,1.90776
-0.137214,-0.42543,0.655999,0.130895,0.102898,0.261581,1.90776
-0.695008,0.0639704,0.486086,0.0381319,0.0545405,0.11712,1.90776
-0.695008,0.0639704,0.486086,0.0381319,0.0545405,0.11712,2.09273
-0.803796,0.29556,0.267813,0.0281542,0.0348481,-0.0298142,2.09273
-0.598566,0.132043,0.26385,0.0314712,0.0655646,-0.0647413,2.09273
-0.408953,-0.283808,0.376968,0.0718607,0.0856439,-0.0249641,2.09273
