rotationRate_x,rotationRate_y,rotationRate_z,acceleration_x,acceleration_y,acceleration_z,relativeAltitude
-0.57333,0.065548,0.528011,-0.0767334,-0.0323513,0.06868,1.97118
-0.463488,-0.27416,0.456327,-0.0815111,-0.020511,0.0333292,1.97118
-0.380152,-0.0805676,0.431243,-0.0745602,-0.0474966,0.0574869,1.97118
-0.350565,0.10812,0.3529,-0.0930267,-0.0465628,0.0402597,1.97118
-0.367538,0.220589,0.28982,-0.0805463,-0.0578137,0.0264711,1.97118
-0.406267,0.223011,0.291667,-0.0611889,-0.0845927,0.0248745,1.97118
-0.450308,0.210733,0.312353,-0.0345573,-0.0910289,0.0280083,1.97118
-0.532888,0.0842071,0.310668,-0.0213691,-0.107272,-0.0167469,1.97118
-0.517526,0.144341,0.324843,-0.0262021,-0.116242,-0.0316813,1.97118
-0.401946,0.166503,0.290564,-0.0304898,-0.117257,-0.058991,1.97118
-0.246557,0.0710062,0.254006,-0.0236039,-0.107307,-0.11638,1.97118
-0.0888149,0.0748829,0.277881,-0.0167751,-0.108737,-0.140053,1.97118
0.00107875,0.173203,0.447947,-0.0199235,-0.119987,-0.17791,1.97118
0.0242061,0.19558,0.703655,0.000491448,-0.138681,-0.213602,1.97118
-0.0224962,0.270139,0.990767,0.0341825,-0.140252,-0.239381,1.97118
-0.159538,0.28939,1.31122,0.0548032,-0.171636,-0.268655,1.97118
-0.504093,-0.10642,1.24562,0.0773317,-0.120586,-0.378814,1.97118
-0.742605,-0.482339,0.825368,0.0386229,-0.0469002,-0.491298,1.97118
-0.233587,-0.533229,0.225413,0.0139481,0.00693756,-0.435429,1.97118
0.287135,-0.531939,-0.12969,-0.00542952,0.0636551,-0.432763,1.97118
0.519121,-0.638539,0.0480441,0.0183905,0.0570522,-0.235674,1.97118
0.368132,-0.921776,0.504237,0.0857389,-7.22259e-05,-0.113457,1.97118
0.122785,-0.901508,0.812004,0.0923474,-0.0170051,0.0314115,1.97118
0.0159007,-0.487486,0.710519,0.0793509,0.0144459,0.0521464,1.97118
0.0476947,0.0789559,0.422777,0.0303966,0.0322607,0.0710046,1.97118
0.212903,0.185,0.121325,0.0430021,0.0767059,0.0528832,1.97118
0.266765,0.236832,0.0838696,0.0750612,0.0873571,0.0956244,1.97118
0.214418,0.31636,0.257997,0.0889515,0.0940132,0.166754,1.97118
0.118011,0.433656,0.4791,0.0944443,0.0990025,0.180892,1.97118
0.115877,0.516464,0.612065,0.0924051,0.0986886,0.197492,1.97118
0.152772,0.481326,0.590542,0.0891077,0.102789,0.20161,1.97118
0.165758,0.234013,0.464415,0.0943407,0.116929,0.193729,1.97118
0.205897,-0.0470208,0.404269,0.101655,0.114993,0.173824,1.97118
0.26465,-0.175039,0.421058,0.0855277,0.123653,0.183458,1.97118
0.242308,-0.163832,0.44558,0.0642358,0.104787,0.174826,1.97118
0.206623,-0.0237556,0.393094,0.0507434,0.0931392,0.182298,1.97118
0.0591526,0.120313,0.31504,0.023035,0.0709605,0.178574,1.97118
-0.101265,0.284405,0.195507,0.01177,0.0579635,0.200679,1.97118
-0.212573,0.329429,0.112694,0.0152792,0.0221722,0.18116,1.97118
-0.313895,0.423289,0.0595071,0.0243059,0.00445291,0.190525,1.97118
-0.331638,0.441917,0.072168,0.0249083,-0.0142051,0.174953,1.97118
-0.350322,0.406785,0.101847,0.0285324,-0.0401248,0.160943,1.97118
-0.413714,0.357664,0.0886313,0.0298855,-0.059578,0.144921,1.97118
-0.39985,0.215602,0.0902248,0.0488638,-0.0774162,0.104368,1.97118
-0.358613,0.121455,0.110693,0.0401203,-0.0883011,0.0627644,1.97118
-0.33804,0.0498522,0.150434,0.0377365,-0.0897397,0.0218745,1.97118
-0.332456,0.0215899,0.17808,0.0323588,-0.0950542,-0.0226352,1.97118
-0.338048,0.01343,0.16674,0.0308159,-0.0951156,-0.0644516,1.97118
-0.255378,0.0192361,0.116213,0.0323231,-0.0923229,-0.136618,1.97118
-0.149545,0.0310501,0.0780542,0.0277497,-0.0807877,-0.181206,1.97118
-0.0415438,0.011761,0.0548359,0.0262094,-0.0841312,-0.240877,1.97118
0.00872416,0.0707895,-0.011079,0.0318796,-0.0832947,-0.259733,1.97118
0.00872416,0.0707895,-0.011079,0.0318796,-0.0832947,-0.259733,0
-0.101871,0.0499177,-0.208282,0.0355893,-0.093473,-0.263531,0
-0.441713,-0.0384311,-0.579903,0.0348297,-0.0780512,-0.293562,0
-0.84019,-0.118612,-0.938199,0.0381231,-0.0487295,-0.3679,0
-0.884943,-0.0492789,-1.06606,0.0520892,0.0237209,-0.45005,0
-0.622532,0.207145,-0.867294,0.0160538,0.14157,-0.4636,0
-0.153457,0.44323,-0.409126,-0.0409729,0.138381,-0.381633,0
0.257611,0.459615,-0.0392362,-0.0413768,0.151485,-0.254407,0
0.525494,0.237946,0.133566,-0.0211272,0.146943,-0.124778,0
0.592552,-0.0362743,0.0123709,-0.00614455,0.149568,-0.039394,0
0.59142,-0.00604439,-0.206516,-0.0426147,0.132051,0.054723,0
0.612153,0.0784319,-0.369526,-0.0878618,0.144243,0.111689,0
0.529801,0.199416,-0.441564,-0.0875574,0.144251,0.165067,0
0.364856,0.312771,-0.429595,-0.0808567,0.139314,0.20733,0
0.221267,0.365306,-0.387131,-0.0684664,0.136055,0.218197,0
0.168048,0.362396,-0.348609,-0.0588963,0.137798,0.23396,0
0.190796,0.263739,-0.30638,-0.056887,0.13324,0.236388,0
0.212058,0.225882,-0.254508,-0.059326,0.12417,0.272976,0
0.217824,0.166657,-0.185559,-0.0679896,0.108352,0.302846,0
0.236889,0.0679184,-0.0912947,-0.0665253,0.0820034,0.310596,0
0.195609,0.0135905,-0.0151963,-0.0731967,0.055059,0.332991,0
0.10061,-0.129053,-0.00677761,-0.0775118,0.0423947,0.328174,0
0.0249989,-0.276349,-0.104849,-0.0791156,0.0237315,0.293771,0
-0.0430912,-0.289988,-0.23238,-0.060541,-0.000762239,0.280105,0
-0.226711,-0.314571,-0.316121,-0.0620089,-0.00901794,0.256569,0
-0.386552,-0.400336,-0.35385,-0.0333957,-0.0131926,0.195009,0
-0.448398,-0.516301,-0.316779,-0.0171878,-0.0159906,0.115153,0
-0.563282,-0.536562,-0.312229,-0.0350897,0.00857012,0.0613657,0
-0.631768,-0.432422,-0.319263,-0.0140655,0.00197569,0.00560814,0
-0.589285,-0.320853,-0.24283,-0.00428191,-0.000310659,-0.0341026,0
-0.455998,-0.302171,-0.109846,-0.00670418,0.00170058,-0.0550949,0
-0.303826,-0.338682,-0.00441253,0.0063065,-0.0178079,-0.0516039,0
-0.231282,-0.388256,0.0717323,0.0128825,-0.0376743,-0.024284,0
-0.180504,-0.383252,0.123703,0.00791232,-0.0548452,-0.011867,0
-0.161371,-0.366124,0.146764,0.00695746,-0.0786909,0.00473124,0
-0.146576,-0.376441,0.131133,0.0112148,-0.0961662,0.00322372,0
-0.097843,-0.341858,0.131958,0.022417,-0.10892,0.00265455,0
-0.0918313,-0.358652,0.160181,0.0173819,-0.109673,0.00542313,0
-0.058115,-0.413839,0.195354,0.0292724,-0.103959,-0.0144131,0
0.0485454,-0.407378,0.250373,0.0284082,-0.097626,-0.0521112,0
0.076318,-0.336546,0.283861,0.0113007,-0.0904958,-0.0579401,0
0.0604228,-0.190323,0.297836,0.0143111,-0.0987245,-0.065024,0
0.038409,0.00110663,0.289838,0.0085218,-0.111956,-0.086445,0
0.00482109,0.0866212,0.270592,-0.00166264,-0.0999987,-0.113841,0
-0.0047704,0.0952405,0.235983,-0.0092019,-0.0869453,-0.156548,0
0.0730629,0.134073,0.220516,-4.36753e-05,-0.0776559,-0.200864,0
0.225008,0.120424,0.244512,-0.00742156,-0.0571143,-0.236983,0
0.309497,0.158931,0.296273,0.00290641,-0.0528415,-0.232443,0
0.202675,0.182632,0.278689,0.025958,-0.0724941,-0.229439,0
-0.0799983,0.147747,0.188904,0.0427289,-0.088211,-0.249895,0
-0.41768,-0.10345,0.0175182,0.0285476,-0.0391893,-0.348676,0
-0.41768,-0.10345,0.0175182,0.0285476,-0.0391893,-0.348676,0.0449219
-0.458134,-0.0555116,-0.0685642,-0.000490498,0.0232309,-0.472297,0.0449219
-0.192975,0.402449,-0.0849595,0.0167372,0.0971502,-0.437258,0.0449219
0.184853,0.724402,0.173648,0.0230377,0.114354,-0.354176,0.0449219
0.435328,0.713827,0.603244,0.0346945,0.0937551,-0.188818,0.0449219
0.477672,0.453493,0.954876,0.063581,0.0617547,-0.0413923,0.0449219
0.359658,0.195099,1.03816,0.0929134,0.0338403,0.0688199,0.0449219
0.298693,0.00759394,0.99034,0.0404526,0.0150038,0.153452,0.0449219
0.303503,-0.0974173,0.830616,0.00803333,0.0355074,0.164098,0.0449219
0.309025,-0.0446794,0.679665,0.00243015,0.0341773,0.193844,0.0449219
0.27048,0.00146091,0.577291,0.00208445,0.0456204,0.199649,0.0449219
0.20583,0.0509267,0.532963,0.0109787,0.0491918,0.212508,0.0449219
0.138809,0.0855795,0.495926,0.0124789,0.0540486,0.212524,0.0449219
0.110873,0.114651,0.438404,0.0161115,0.0601743,0.213964,0.0449219
0.115744,0.107902,0.375663,0.0167871,0.0554541,0.215378,0.0449219
0.0835191,0.0654548,0.289258,0.0159399,0.0473738,0.225839,0.0449219
0.00289196,0.00435776,0.195072,0.0292872,0.0274846,0.230773,0.0449219
-0.0834938,-0.0438983,0.102885,0.0314178,0.0121943,0.209198,0.0449219
-0.169734,0.0244983,0.0294833,0.0237368,0.00477742,0.192914,0.0449219
-0.214086,0.112907,0.0135047,0.0318964,-0.00814879,0.179492,0.0449219
-0.264126,0.13145,0.0434529,0.0415547,-0.0383008,0.159163,0.0449219
-0.282578,0.0643485,0.0688945,0.0373594,-0.0607802,0.145176,0.0449219
-0.330018,-0.0368912,0.0570422,0.032691,-0.0846474,0.127342,0.0449219
-0.36021,-0.0599566,0.00687706,0.0299872,-0.0982245,0.112175,0.0449219
-0.405611,-0.050195,0.000689391,0.0224416,-0.110402,0.0894506,0.0449219
-0.457357,0.0140193,0.0103168,0.0299409,-0.108556,0.0728302,0.0449219
-0.419509,0.062218,0.0625562,0.0430752,-0.121143,0.031437,0.0449219
-0.343485,0.0449838,0.123541,0.046565,-0.111199,0.000248075,0.0449219
-0.255665,-0.000888794,0.201993,0.0631161,-0.112361,-0.0323748,0.0449219
-0.149926,-0.0249345,0.287322,0.073706,-0.104785,-0.0697098,0.0449219
-0.0226349,0.0373507,0.41463,0.0868395,-0.105501,-0.0899482,0.0449219
0.0534454,0.0476907,0.526794,0.0953195,-0.105541,-0.120587,0.0449219
0.126596,-0.00339351,0.619416,0.104377,-0.098379,-0.174249,0.0449219
0.280279,0.179065,0.68775,0.0613032,-0.0229525,-0.236581,0.0449219
0.638939,0.271721,0.791608,0.0579895,0.000861779,-0.329932,0.0449219
0.91371,0.225071,0.789271,0.0576698,-0.0314979,-0.311404,0.0449219
0.742166,0.100988,0.580907,0.032662,-0.0316597,-0.213405,0.0449219
0.235961,-0.187162,0.270265,0.0293538,-0.0417382,-0.215618,0.0449219
-0.2152,-0.393869,-0.0279356,0.0400421,-0.0288608,-0.293144,0.0449219
-0.226155,-0.33522,-0.212169,0.00504087,0.0501326,-0.389128,0.0449219
0.0754333,0.149102,-0.223083,-0.032086,0.112429,-0.403969,0.0449219
0.386026,0.731401,-0.13636,-0.0537964,0.16523,-0.310642,0.0449219
0.497234,0.951794,0.00888138,-0.0711448,0.18438,-0.207742,0.0449219
0.515524,0.80612,0.131793,-0.0761458,0.161027,-0.115374,0.0449219
0.581711,0.48295,0.153152,-0.0762963,0.139737,-0.0338464,0.0449219
0.712095,0.109453,0.0781702,-0.101591,0.134829,0.0303535,0.0449219
0.743121,-0.175162,-0.0477298,-0.124816,0.129555,0.0793731,0.0449219
0.62669,-0.168016,-0.212469,-0.133569,0.130274,0.148948,0.0449219
0.423695,-0.0539865,-0.370444,-0.131796,0.118833,0.19202,0.0449219
0.213165,0.117735,-0.500205,-0.12401,0.116931,0.231838,0.0449219
0.0551094,0.243451,-0.572889,-0.108749,0.114545,0.262669,0.0449219
0.0551094,0.243451,-0.572889,-0.108749,0.114545,0.262669,0.0898438
-0.0610815,0.287013,-0.573188,-0.101941,0.108151,0.290906,0.0898438
-0.107338,0.28895,-0.563011,-0.0931168,0.11245,0.308656,0.0898438
-0.0554951,0.209916,-0.546282,-0.0846464,0.113836,0.312607,0.0898438
0.0680289,0.0968757,-0.522081,-0.0803199,0.121645,0.300761,0.0898438
0.207095,-0.0763268,-0.490614,-0.0681179,0.122042,0.287103,0.0898438
0.275463,-0.249069,-0.453738,-0.0515947,0.106151,0.282988,0.0898438
0.237461,-0.336495,-0.426585,-0.0406133,0.0829981,0.27818,0.0898438
0.0628296,-0.362656,-0.398286,-0.0302071,0.0474642,0.275783,0.0898438
-0.176646,-0.358733,-0.38615,-0.0214806,0.0201213,0.251127,0.0898438
-0.354195,-0.347181,-0.3822,-0.017787,-0.00147629,0.194915,0.0898438
-0.495689,-0.362882,-0.402606,-0.0182849,-0.0171869,0.146732,0.0898438
-0.562352,-0.362865,-0.434056,-0.0191712,-0.0218985,0.0760815,0.0898438
-0.582556,-0.226796,-0.3839,-0.0104509,-0.0397788,0.0260564,0.0898438
-0.607474,-0.0989137,-0.321826,-0.00940644,-0.0464744,0.00275552,0.0898438
-0.565506,-0.00528847,-0.267826,-0.00977889,-0.0614126,-0.0191429,0.0898438
-0.541451,0.0269158,-0.227615,-0.000654563,-0.0850696,-0.0237524,0.0898438
-0.509183,-0.0212688,-0.203804,0.00245287,-0.100009,-0.0297384,0.0898438
-0.389262,-0.0866043,-0.183863,0.00553512,-0.10506,-0.0606586,0.0898438
-0.268656,-0.0852215,-0.147973,0.00864498,-0.120986,-0.0702451,0.0898438
-0.197645,-0.0858234,-0.114096,0.0136696,-0.12151,-0.0856687,0.0898438
-0.104547,-0.0326677,-0.0271658,0.0188022,-0.123007,-0.104865,0.0898438
-0.0215996,0.0186725,0.0398769,0.0158216,-0.122055,-0.12304,0.0898438
0.0456812,0.00595946,0.0681564,0.0189982,-0.121604,-0.153554,0.0898438
0.139651,0.0143147,0.0989469,0.0211214,-0.116197,-0.201812,0.0898438
0.255313,0.0279746,0.162761,0.0274431,-0.113791,-0.254353,0.0898438
0.377892,-0.0524454,0.273075,0.0524259,-0.125194,-0.313639,0.0898438
0.383501,-0.304094,0.349079,0.0584613,-0.128576,-0.352365,0.0898438
0.305577,-0.716037,0.308521,0.0414881,-0.0955606,-0.420567,0.0898438
0.315381,-0.874584,0.241671,0.00723501,-0.0370199,-0.46489,0.0898438
0.427003,-0.594162,0.209987,-0.0234062,0.0266148,-0.456805,0.0898438
0.536074,-0.041466,0.221105,-0.0601632,0.0833639,-0.397226,0.0898438
0.596143,0.411901,0.271277,-0.0750919,0.114236,-0.296009,0.0898438
0.627718,0.647387,0.301684,-0.0443357,0.12758,-0.175784,0.0898438
0.707928,0.609877,0.308103,-0.0252232,0.128897,-0.0603628,0.0898438
0.718522,0.399721,0.264541,0.00389396,0.1196,0.0402574,0.0898438
0.643479,0.0818306,0.175867,0.020257,0.10032,0.11764,0.0898438
0.454105,-0.22841,0.0162981,0.0245718,0.0913031,0.16358,0.0898438
0.205174,-0.353984,-0.183316,0.0289811,0.0839004,0.187299,0.0898438
0.0417024,-0.296625,-0.35409,0.0247573,0.0940433,0.176297,0.0898438
-0.0237237,-0.201261,-0.452205,0.0176586,0.113271,0.151428,0.0898438
-0.0501249,-0.0493262,-0.47089,0.0211019,0.125448,0.139466,0.0898438
-0.0933184,0.0596633,-0.462493,0.0318218,0.125222,0.164387,0.0898438
-0.114265,0.050862,-0.418634,0.0443659,0.116751,0.188079,0.0898438
-0.0853734,-0.0140973,-0.389899,0.0381596,0.115465,0.216188,0.0898438
0.0224072,-0.0829309,-0.342135,0.0392995,0.110957,0.217807,0.0898438
0.125344,-0.076728,-0.254001,0.0307397,0.0992963,0.226704,0.0898438
0.199721,-0.0812193,-0.146336,0.0182817,0.0877079,0.230644,0.0898438
0.188329,-0.162584,-0.0821973,0.016933,0.0582072,0.230494,0.0898438
0.0563557,-0.240201,-0.119587,0.00486667,0.0256781,0.234912,0.0898438
-0.0911135,-0.267351,-0.231569,-0.00878055,-0.000740588,0.219676,0.0898438
-0.0911135,-0.267351,-0.231569,-0.00878055,-0.000740588,0.219676,0.200821
-0.208229,-0.225037,-0.349871,-0.0219291,-0.0196113,0.186705,0.200821
-0.282893,-0.153062,-0.423542,-0.0198944,-0.030972,0.161406,0.200821
-0.318222,-0.133384,-0.400901,-0.0125556,-0.0396549,0.126083,0.200821
-0.326172,-0.195992,-0.364918,0.00106591,-0.0519899,0.0927047,0.200821
-0.341125,-0.197823,-0.353899,0.0111414,-0.0599671,0.07514,0.200821
-0.377649,-0.112852,-0.349125,0.0150513,-0.0720874,0.0757807,0.200821
-0.402194,0.0185652,-0.312369,0.0302167,-0.0845943,0.0725846,0.200821
-0.445165,0.139798,-0.24875,0.0471102,-0.106608,0.074428,0.200821
-0.426452,0.138761,-0.221682,0.0630725,-0.115877,0.0503605,0.200821
-0.314209,0.0985329,-0.189089,0.0844799,-0.118751,0.00640327,0.200821
-0.133873,-0.013146,-0.103098,0.112464,-0.114237,-0.0453482,0.200821
0.0472587,-0.13324,0.0299927,0.134512,-0.10705,-0.0923249,0.200821
0.194409,-0.254505,0.12572,0.137064,-0.0940156,-0.155999,0.200821
0.354487,-0.175381,0.151916,0.110605,-0.0680401,-0.224635,0.200821
0.555534,0.136144,0.170372,0.0801169,-0.0540855,-0.313272,0.200821
0.676518,0.459996,0.169582,0.0628869,-0.0199043,-0.374219,0.200821
0.567404,0.455652,0.316071,0.0663414,-0.0164584,-0.414414,0.200821
0.38299,0.14319,0.301344,0.0808496,-0.0308567,-0.414272,0.200821
0.269592,-0.398173,0.00197901,0.0953686,-0.0279823,-0.426059,0.200821
0.260438,-0.608565,-0.255217,0.0482848,-0.0105886,-0.3562,0.200821
0.286683,-0.369108,-0.334929,-0.00458315,0.041034,-0.250334,0.200821
0.309161,0.145177,-0.311134,-0.0374372,0.0727248,-0.127694,0.200821
0.169675,0.571193,-0.203451,-0.0653091,0.0567963,-0.00815356,0.200821
-0.003943,0.551076,-0.168568,-0.0617876,0.0491577,0.0420184,0.200821
-0.0771352,0.287128,-0.297957,-0.0393351,0.0463328,0.053623,0.200821
-0.0374707,0.03001,-0.443404,-0.0555317,0.059415,0.0677995,0.200821
0.0199535,-0.189668,-0.495256,-0.0704295,0.0942878,0.0620028,0.200821
0.00382663,-0.233706,-0.424686,-0.0958292,0.111012,0.0774043,0.200821
-0.0545777,0.00957486,-0.334163,-0.106808,0.121171,0.134767,0.200821
-0.0868125,0.322167,-0.352301,-0.106722,0.105383,0.18949,0.200821
-0.150535,0.520679,-0.466662,-0.114717,0.093136,0.229588,0.200821
-0.183716,0.546634,-0.608869,-0.1171,0.0852055,0.269781,0.200821
-0.155946,0.497593,-0.683345,-0.104221,0.0908998,0.25943,0.200821
-0.0548519,0.483231,-0.616324,-0.0920456,0.0906748,0.263322,0.200821
0.0906,0.323879,-0.531244,-0.0728374,0.10221,0.240964,0.200821
0.223781,0.0487731,-0.461149,-0.0494776,0.0945244,0.206486,0.200821
0.25861,-0.134359,-0.419342,-0.0368046,0.0781396,0.201027,0.200821
0.206601,-0.271869,-0.405612,-0.0191694,0.0483844,0.187604,0.200821
0.0848982,-0.349814,-0.392749,-0.0115672,0.0237627,0.161205,0.200821
-0.111924,-0.328871,-0.405022,-0.00882921,-0.00486559,0.130713,0.200821
-0.289369,-0.250732,-0.433039,-0.00835577,-0.0108269,0.0884984,0.200821
-0.337248,-0.214231,-0.401895,0.0163455,-0.0240427,0.0165931,0.200821
-0.278707,-0.174539,-0.30342,0.0113597,-0.0233856,-0.012525,0.200821
-0.151451,-0.158435,-0.171921,0.0237743,-0.0395142,-0.02099,0.200821
-0.113323,-0.166151,-0.0491044,0.0379428,-0.0662729,0.0128775,0.200821
-0.159469,-0.20819,0.0257987,0.037516,-0.0858688,0.0401788,0.200821
-0.222178,-0.205671,0.0713896,0.0397974,-0.113332,0.0700017,0.200821
-0.242557,-0.228429,0.0559723,0.0365454,-0.120261,0.0651038,0.200821
-0.207592,-0.267539,0.027393,0.0330036,-0.119326,0.0357347,0.200821
-0.170108,-0.208172,0.0447031,0.0307931,-0.120659,0.0265273,0.200821
-0.170108,-0.208172,0.0447031,0.0307931,-0.120659,0.0265273,0.364639
-0.128091,-0.195202,0.0836995,0.0274121,-0.112723,-0.000238478,0.364639
-0.0671031,-0.200888,0.103635,0.022591,-0.116607,-0.0280352,0.364639
-0.0195351,-0.152519,0.0777596,0.0133129,-0.110592,-0.0421643,0.364639
0.00721999,-0.0729589,0.0518371,0.00152332,-0.113808,-0.0531943,0.364639
0.000710754,-0.016082,0.0321132,-0.00246165,-0.108892,-0.0705786,0.364639
-0.0251093,0.0463313,0.0253486,-0.00223643,-0.111401,-0.086975,0.364639
0.00388789,0.0829269,0.0217041,-0.00777128,-0.0946337,-0.118631,0.364639
0.0834807,0.105473,0.023388,-0.0185609,-0.0824636,-0.152918,0.364639
0.163335,0.138326,0.0516619,-0.00911544,-0.0695643,-0.16738,0.364639
0.213267,0.137436,0.177178,0.00723644,-0.0733657,-0.164163,0.364639
0.206454,0.14998,0.305825,0.0122011,-0.0708689,-0.157464,0.364639
0.161523,0.144487,0.384474,0.0174242,-0.0836151,-0.162789,0.364639
0.031917,0.102934,0.390053,0.0169964,-0.0858032,-0.175881,0.364639
-0.2317,-0.0853648,0.272969,-0.00760852,-0.0545195,-0.230051,0.364639
-0.387401,-0.233038,0.051347,-0.0260572,0.0216378,-0.343538,0.364639
-0.279496,0.0714599,-0.0147184,-0.0279319,0.0737279,-0.368993,0.364639
0.0993219,0.282446,0.0569629,-0.00390746,0.110159,-0.325361,0.364639
0.301601,0.194564,0.223222,-0.00124623,0.133038,-0.240971,0.364639
0.353408,-0.129321,0.300417,0.0432269,0.0933598,-0.137462,0.364639
0.315156,-0.426748,0.254606,0.0572402,0.0534288,-0.0732593,0.364639
0.279268,-0.480377,0.0901169,0.0280059,0.0734088,-0.00583535,0.364639
0.298189,-0.276349,-0.0366833,-0.00534109,0.102834,0.0311953,0.364639
0.311223,0.0491634,-0.0486182,-0.0147854,0.110623,0.0976686,0.364639
0.284705,0.25207,0.000808438,-0.00792394,0.103766,0.156787,0.364639
0.232761,0.285004,0.0530217,0.00447692,0.0957591,0.198305,0.364639
0.223961,0.176114,0.112022,0.0105611,0.0884025,0.218598,0.364639
0.233654,0.0117283,0.132217,0.0132364,0.0890159,0.227592,0.364639
0.229499,-0.133461,0.145296,0.0107401,0.0850026,0.23642,0.364639
0.209889,-0.21787,0.123075,0.0184697,0.0805065,0.225638,0.364639
0.185257,-0.17518,0.13446,0.0107352,0.0859681,0.216475,0.364639
0.178044,-0.130908,0.121212,0.00238349,0.0889393,0.201593,0.364639
0.145652,-0.139308,0.0695132,0.0134068,0.0765232,0.179574,0.364639
0.0738295,-0.192979,0.0231515,0.0230089,0.0606181,0.16829,0.364639
0.00671938,-0.22092,0.00173059,0.0337497,0.0509225,0.151091,0.364639
-0.104358,-0.221125,-0.0315271,0.0324779,0.0366744,0.14178,0.364639
-0.190418,-0.159,-0.0673689,0.0326824,0.0328121,0.129941,0.364639
-0.166957,-0.0563269,-0.0526458,0.024956,0.0242195,0.106375,0.364639
-0.143867,0.0665152,-0.0477389,0.012388,0.00868124,0.0992281,0.364639
-0.17386,0.115839,-0.0655973,0.0173037,-0.0150083,0.112594,0.364639
-0.240611,0.0911625,-0.0835586,0.0343499,-0.0446561,0.116908,0.364639
-0.292417,0.0933465,-0.107433,0.0440302,-0.0701342,0.11458,0.364639
-0.299964,0.101015,-0.115631,0.0533629,-0.0777395,0.0908221,0.364639
-0.263484,0.11761,-0.0874582,0.0665759,-0.0892283,0.0698912,0.364639
-0.236337,0.0899334,-0.0303274,0.0863037,-0.10886,0.0588227,0.364639
-0.221742,-0.00395713,0.0273965,0.101375,-0.123126,0.0390728,0.364639
-0.177222,-0.0940808,0.0671314,0.0984213,-0.125411,0.0117381,0.364639
-0.112515,-0.127782,0.0992169,0.0941935,-0.120044,-0.0170189,0.364639
-0.0747854,-0.084052,0.149115,0.0866502,-0.119914,-0.0453843,0.364639
-0.0895641,0.0292182,0.19841,0.0752016,-0.116958,-0.0584688,0.364639
-0.0852352,0.115693,0.233891,0.0579541,-0.104487,-0.0979922,0.364639
-0.0852352,0.115693,0.233891,0.0579541,-0.104487,-0.0979922,0.465057
-0.0401905,0.141455,0.247698,0.0442429,-0.086852,-0.133927,0.465057
0.0324661,0.114542,0.21723,0.0161155,-0.0381766,-0.163078,0.465057
0.0221574,0.0941492,0.163256,0.00410058,-0.0207339,-0.160299,0.465057
-0.104511,0.0589694,0.0966046,0.00865277,-0.0172797,-0.157969,0.465057
-0.4169,0.0610953,0.00911236,0.0257074,-0.0584777,-0.14505,0.465057
-0.861506,-0.295647,-0.187323,0.0234586,-0.0803645,-0.200986,0.465057
-1.11361,-0.739034,-0.488718,-0.0140697,-0.0143968,-0.346387,0.465057
-0.874872,-0.598738,-0.594433,-0.0564025,0.0560003,-0.415155,0.465057
-0.297657,-0.139152,-0.530677,-0.0798536,0.0934705,-0.365028,0.465057
0.13509,0.0546156,-0.264621,-0.108503,0.10877,-0.228169,0.465057
0.27532,-0.210193,-0.0617528,-0.0427391,0.050116,-0.0963381,0.465057
0.271005,-0.606068,0.000435908,-0.00928962,0.000827447,0.00193828,0.465057
0.231196,-0.774228,-0.108824,-0.0205211,0.00538269,0.0360186,0.465057
0.180916,-0.64192,-0.252833,-0.0480128,0.0229435,0.0356939,0.465057
0.144866,-0.384089,-0.369465,-0.084335,0.0686298,0.018006,0.465057
0.159562,-0.0564574,-0.469663,-0.08358,0.0931676,0.0202069,0.465057
0.185623,0.297199,-0.5158,-0.0636787,0.100152,0.047392,0.465057
0.172257,0.537289,-0.473398,-0.0456422,0.0914728,0.101784,0.465057
0.145659,0.585427,-0.432238,-0.0250961,0.0889968,0.148287,0.465057
0.136361,0.519245,-0.383769,-0.0189144,0.0810897,0.186112,0.465057
0.230723,0.355141,-0.381402,-0.0187579,0.0852369,0.208367,0.465057
0.344116,0.0625159,-0.390782,-0.00972941,0.0910436,0.207346,0.465057
0.385457,-0.139507,-0.331411,0.00155003,0.0931939,0.210869,0.465057
0.393733,-0.202451,-0.197485,0.0070485,0.0877774,0.222955,0.465057
0.294236,-0.21902,-0.0943502,0.0109896,0.0788832,0.214852,0.465057
0.156464,-0.236332,-0.0360889,0.0217064,0.0528232,0.208116,0.465057
0.066395,-0.343264,-0.00332607,0.0151056,0.0479501,0.158004,0.465057
-0.00268177,-0.357508,0.0193594,0.0204897,0.0352333,0.127131,0.465057
-0.0596088,-0.331329,0.0413859,0.0197394,0.0239672,0.100648,0.465057
-0.0798013,-0.275829,0.103361,0.0255384,0.0158598,0.0794351,0.465057
-0.113184,-0.228431,0.170511,0.0268257,0.00278759,0.0701404,0.465057
-0.172016,-0.143119,0.222182,0.0344329,-0.0154745,0.0758547,0.465057
-0.209534,-0.133383,0.251663,0.0327654,-0.0320439,0.0750784,0.465057
-0.222281,-0.118712,0.246881,0.0298885,-0.0429646,0.0715488,0.465057
-0.251022,-0.0773754,0.233113,0.0208496,-0.0567943,0.0764479,0.465057
-0.272971,-0.0258018,0.236078,0.0203933,-0.0691186,0.0717117,0.465057
-0.266373,0.00486341,0.22986,0.0096625,-0.0774067,0.0577251,0.465057
-0.264794,0.0380283,0.216877,0.00726382,-0.0878442,0.0504889,0.465057
-0.26275,0.0809242,0.211159,-0.00125585,-0.0926296,0.0394744,0.465057
-0.253501,0.119453,0.214879,-0.00451686,-0.0967101,0.0287303,0.465057
-0.216934,0.125444,0.229459,-0.0046923,-0.102986,0.0223516,0.465057
-0.198629,0.0666545,0.240598,-0.00696431,-0.110275,0.00857317,0.465057
-0.191996,0.0286288,0.241271,-0.00951341,-0.113918,-0.0086031,0.465057
-0.192987,0.0726752,0.231431,-0.0211174,-0.111546,-0.0292607,0.465057
-0.168663,0.126779,0.224804,-0.0188403,-0.109087,-0.058722,0.465057
-0.0510116,0.00910732,0.243351,-0.00606021,-0.101786,-0.10592,0.465057
0.145795,-0.335044,0.268767,0.0265048,-0.0928797,-0.165464,0.465057
0.374059,-0.600253,0.361955,0.064639,-0.0863487,-0.20302,0.465057
0.496682,-0.588487,0.520464,0.0851302,-0.108256,-0.188427,0.465057
0.439053,-0.364215,0.634968,0.0852067,-0.108953,-0.171755,0.465057
0.187594,-0.0773082,0.696852,0.0865012,-0.139799,-0.172098,0.465057
-0.156749,0.100151,0.652333,0.0745794,-0.134127,-0.181394,0.465057
-0.474577,0.024487,0.445295,0.0170986,-0.0552084,-0.311408,0.465057
-0.470292,0.153278,0.276177,-0.0133883,0.0478525,-0.433051,0.465057
-0.121076,0.490425,0.325238,-0.0368386,0.0827085,-0.451503,0.465057
0.274599,0.62069,0.536141,-0.0775693,0.117466,-0.38371,0.465057
0.379267,0.558673,0.674085,-0.0559463,0.0989387,-0.22617,0.465057
0.425371,0.427985,0.664718,-0.0330749,0.0496044,-0.0732161,0.465057
0.474602,0.1647,0.502327,-0.0406832,0.0263374,-0.00827187,0.465057
0.469615,0.0645218,0.26788,-0.0574369,0.0237426,0.0580731,0.465057
0.453052,0.0207269,0.0798801,-0.0636073,0.0356953,0.0698836,0.465057
0.450053,0.0153018,-0.050178,-0.0550803,0.0511452,0.0613387,0.465057
0.450053,0.0153018,-0.050178,-0.0550803,0.0511452,0.0613387,0.589249
0.398691,0.115144,-0.143819,-0.04903,0.0799292,0.0670385,0.589249
0.362841,0.329741,-0.195819,-0.0347813,0.0920982,0.11658,0.589249
0.357547,0.415059,-0.213303,-0.011217,0.107619,0.141729,0.589249
0.36374,0.360426,-0.183954,0.0149614,0.105153,0.172534,0.589249
0.358632,0.205428,-0.132301,0.0320269,0.11077,0.201587,0.589249
0.332766,0.0490621,-0.0624671,0.0468624,0.109063,0.22264,0.589249
0.319054,-0.025398,-0.0121411,0.0415721,0.126038,0.215815,0.589249
0.335199,0.0352385,0.043028,0.0402941,0.131835,0.20787,0.589249
0.299478,0.0728772,0.0772574,0.0395356,0.125232,0.204155,0.589249
0.170822,0.00570847,0.0877993,0.0498669,0.106674,0.212987,0.589249
-0.0489082,0.0386909,0.0902442,0.0618145,0.0797645,0.214039,0.589249
-0.206014,0.112167,0.08767,0.0647779,0.0661489,0.219861,0.589249
-0.36665,0.0911208,0.13668,0.0776467,0.0464235,0.190601,0.589249
-0.510426,0.193795,0.214797,0.0890388,0.0249939,0.216159,0.589249
-0.629412,0.189871,0.284922,0.0974256,0.00485614,0.182229,0.589249
-0.714626,0.239256,0.357816,0.104755,-0.0213376,0.173132,0.589249
-0.721162,0.177182,0.439043,0.112993,-0.0479722,0.144822,0.589249
-0.684259,0.10518,0.533085,0.124472,-0.073088,0.115565,0.589249
-0.609216,0.03336,0.647998,0.125195,-0.0904508,0.0848818,0.589249
-0.546699,-0.0368941,0.766088,0.126411,-0.10571,0.050864,0.589249
-0.49478,-0.0989271,0.853046,0.122426,-0.110707,0.013768,0.589249
-0.388916,-0.148156,0.923075,0.114944,-0.113642,-0.0504355,0.589249
-0.251972,-0.126489,0.956309,0.103066,-0.110455,-0.101482,0.589249
-0.155823,-0.0803109,0.966186,0.0926438,-0.101273,-0.146213,0.589249
-0.110647,0.024362,0.963125,0.0835689,-0.102353,-0.18542,0.589249
-0.0711002,0.157058,0.909276,0.0652902,-0.0937644,-0.216958,0.589249
0.00778571,0.272554,0.840541,0.0600102,-0.0888628,-0.238674,0.589249
0.0830838,0.386249,0.788329,0.046872,-0.0749217,-0.237095,0.589249
0.103167,0.527922,0.740815,0.043234,-0.0679505,-0.200202,0.589249
-0.0230967,0.69409,0.697212,0.0582528,-0.0762943,-0.148816,0.589249
-0.233334,0.697543,0.666774,0.0707113,-0.0772725,-0.135226,0.589249
-0.498478,0.571437,0.643914,0.0848009,-0.0599726,-0.16897,0.589249
-0.641502,0.338696,0.620284,0.0618071,-0.00146872,-0.247409,0.589249
-0.438156,0.00773464,0.537491,0.0238462,0.101919,-0.392042,0.589249
0.028917,-0.0660442,0.507125,-0.0207614,0.178497,-0.419761,0.589249
0.444139,0.0304263,0.576954,-0.0473703,0.222184,-0.364599,0.589249
0.619635,0.136501,0.719682,-0.0710423,0.219749,-0.252085,0.589249
0.663582,0.128506,0.786282,-0.0876076,0.187399,-0.128533,0.589249
0.607948,0.0473168,0.648513,-0.0915875,0.164727,-0.0385462,0.589249
0.452541,0.0337298,0.373961,-0.102962,0.140233,0.0421916,0.589249
0.261727,0.062422,0.114719,-0.102156,0.119527,0.0813714,0.589249
0.0851003,0.187238,-0.0306743,-0.0866524,0.110098,0.0962717,0.589249
-0.0286489,0.343839,-0.0455415,-0.0668625,0.100165,0.0893302,0.589249
-0.136049,0.478644,-0.0293498,-0.0541988,0.0975355,0.102433,0.589249
-0.13248,0.444864,-0.028706,-0.0457571,0.0936809,0.10103,0.589249
-0.0341877,0.283871,-0.00703334,-0.0395509,0.0873032,0.112842,0.589249
0.0538752,0.12532,0.0426199,-0.0434629,0.0799183,0.153224,0.589249
0.0742285,0.0761291,0.129882,-0.049125,0.070162,0.212227,0.589249
0.0742285,0.0761291,0.129882,-0.049125,0.070162,0.212227,0.652664
0.00491005,0.0943857,0.220499,-0.0481984,0.0477112,0.266605,0.652664
-0.171101,0.108164,0.272668,-0.0446158,0.0216676,0.320977,0.652664
-0.403535,-0.0685623,0.260213,-0.0282003,0.00170663,0.33297,0.652664
-0.599108,-0.382628,0.237271,-0.0105652,-0.0173574,0.335591,0.652664
-0.7842,-0.714375,0.187534,0.00830182,-0.0473347,0.327035,0.652664
-0.983693,-0.75887,0.117142,0.0115432,-0.0596214,0.326409,0.652664
-0.899543,-0.408325,0.107824,0.00418542,-0.0294766,0.236584,0.652664
-0.489117,0.119601,0.171514,0.0111165,-0.0344244,0.112775,0.652664
-0.0873473,0.486998,0.236733,0.0124462,-0.0291617,0.0583763,0.652664
0.0275107,0.437986,0.275286,0.0217653,-0.0365032,0.047516,0.652664
-0.13393,0.112385,0.27717,0.0250337,-0.0580748,0.074198,0.652664
-0.267446,-0.124209,0.255689,0.0158513,-0.0482095,0.0664641,0.652664
-0.185333,0.0143135,0.317212,-0.00592446,-0.0576418,0.0389796,0.652664
-0.0245363,0.241155,0.438545,-0.0222181,-0.061801,0.0461349,0.652664
0.037492,0.243953,0.519927,-0.0220908,-0.089334,0.067111,0.652664
0.0326015,0.1228,0.520744,-0.0200867,-0.118696,0.0956434,0.652664
-0.000561609,-0.00797321,0.447885,-0.0206765,-0.140195,0.104354,0.652664
-0.00512628,-0.0544159,0.352556,-0.0254658,-0.139179,0.0946769,0.652664
0.00287172,0.00250317,0.320561,-0.0162273,-0.145298,0.083407,0.652664
-0.0116612,0.122375,0.358507,0.00430012,-0.146816,0.0632305,0.652664
-0.11208,0.298876,0.4633,0.0110692,-0.145863,0.0552322,0.652664
-0.301398,0.494668,0.581589,0.0182216,-0.140848,0.0525206,0.652664
-0.444805,0.698114,0.695578,0.0230707,-0.137659,0.0353256,0.652664
-0.423723,0.671005,0.7852,0.028176,-0.121836,-0.00508022,0.652664
-0.202075,0.306284,0.801538,0.0358935,-0.0996428,-0.0672411,0.652664
0.106801,-0.139579,0.731983,0.0386349,-0.0681571,-0.122996,0.652664
0.308689,-0.303941,0.742924,0.0383623,-0.0597976,-0.127969,0.652664
0.367096,-0.309331,0.843448,0.02908,-0.0525452,-0.129302,0.652664
0.279818,-0.352915,0.972535,0.0357576,-0.0750438,-0.151262,0.652664
0.0419463,-0.469267,0.949233,0.0314769,-0.075274,-0.181346,0.652664
-0.128625,-0.416264,0.770693,0.00491282,-0.0332268,-0.196511,0.652664
-0.182387,-0.0318873,0.668056,-0.0102084,-0.0129101,-0.184359,0.652664
-0.225416,0.420747,0.737159,0.0062938,-0.0182006,-0.14132,0.652664
-0.383839,0.762856,0.89972,0.0382987,-0.0259927,-0.0733437,0.652664
-0.533519,0.825303,0.96196,0.0636507,-0.0113365,-0.0320952,0.652664
-0.449472,0.654949,0.940834,0.100062,-0.000249043,-0.00941068,0.652664
-0.224346,0.462271,0.973744,0.120949,-0.00913836,0.0565344,0.652664
-0.0652545,0.22799,1.0647,0.136384,-0.0229549,0.130173,0.652664
-0.0283771,-0.0822366,1.10069,0.161683,-0.0411936,0.181799,0.652664
-0.077788,-0.450087,1.04026,0.178873,-0.0511406,0.179454,0.652664
-0.126075,-0.74831,0.916597,0.196904,-0.0438573,0.134613,0.652664
-0.115824,-0.839349,0.818158,0.204992,-0.0305621,0.0597488,0.652664
-0.0986886,-0.67077,0.718421,0.198052,0.00208951,-0.0145396,0.652664
-0.068758,-0.359376,0.629165,0.181936,0.0432521,-0.0787774,0.652664
0.0012118,0.0732523,0.639343,0.164785,0.0692812,-0.105312,0.652664
0.0874712,0.470662,0.775303,0.150476,0.0598915,-0.0679695,0.652664
0.143008,0.600784,0.914886,0.158896,0.0220712,-0.0169544,0.652664
0.153,0.50151,0.884039,0.176754,-0.0104884,0.0299963,0.652664
0.153,0.50151,0.884039,0.176754,-0.0104884,0.0299963,0.829697
0.214141,0.300131,0.798765,0.154853,-0.0279001,0.0626466,0.829697
0.307653,0.189142,0.738948,0.14188,-0.0250575,0.0768783,0.829697
0.409013,0.164742,0.772325,0.123509,-0.0149346,0.0850829,0.829697
0.463261,0.188794,0.84098,0.109699,-0.0207083,0.100502,0.829697
0.449112,0.184139,0.851274,0.0841116,-0.0246601,0.105615,0.829697
0.38027,0.181056,0.766183,0.0672495,-0.0391615,0.105035,0.829697
0.287961,0.194185,0.633713,0.0669575,-0.0607779,0.0889394,0.829697
0.192858,0.217915,0.510514,0.0635504,-0.0633121,0.0696363,0.829697
0.130815,0.22031,0.474777,0.0684861,-0.0564208,0.0302361,0.829697
0.103324,0.297913,0.507864,0.0710111,-0.0486388,0.00169379,0.829697
0.087891,0.429691,0.557625,0.075978,-0.0460254,-0.00698006,0.829697
0.00959252,0.571718,0.610224,0.0865344,-0.0659757,-0.0159876,0.829697
-0.135679,0.685428,0.643337,0.0844772,-0.0660127,-0.0235914,0.829697
-0.204808,0.831137,0.715962,0.0867638,-0.0662404,-0.0540064,0.829697
-0.256222,0.824456,0.823049,0.11504,-0.113883,-0.0957448,0.829697
-0.331681,0.53082,0.877007,0.115847,-0.109888,-0.131751,0.829697
-0.371328,-0.0242121,0.806624,0.103746,-0.0791563,-0.206963,0.829697
-0.210758,-0.412011,0.698263,0.0459369,0.0393627,-0.2856,0.829697
0.11668,-0.163586,0.715869,0.00651925,0.14094,-0.274798,0.829697
0.530515,0.517117,1.06492,-0.0621537,0.199048,-0.148732,0.829697
0.743712,0.92676,1.66674,-0.0842731,0.166879,-0.0106287,0.829697
0.803853,0.722114,2.08649,-0.0450014,0.116647,0.08797,0.829697
0.906603,-0.0103822,2.09606,-0.011314,0.070412,0.107093,0.829697
0.972223,-0.611769,1.6943,-0.00197893,0.014178,0.121252,0.829697
0.776399,-0.71452,1.11382,-0.0551126,-0.0213743,0.15614,0.829697
0.288078,-0.272025,0.501896,-0.0780797,-0.00427803,0.165018,0.829697
-0.152793,0.399933,0.137802,-0.0788941,0.0182904,0.129738,0.829697
-0.331232,0.855783,0.018837,-0.0364492,0.0320333,0.0784692,0.829697
-0.291468,0.859262,0.0328988,0.00418074,0.0419116,0.0133432,0.829697
-0.20607,0.671802,0.0915836,0.0405733,0.0515722,0.0188612,0.829697
-0.200018,0.598576,0.208654,0.0554038,0.0351123,0.0852091,0.829697
-0.212586,0.519668,0.355721,0.0601577,0.00692576,0.134118,0.829697
-0.244323,0.435354,0.510921,0.056763,-0.0203434,0.17793,0.829697
-0.26678,0.288234,0.616112,0.0548409,-0.0455129,0.196213,0.829697
-0.207563,0.0811245,0.656741,0.0376101,-0.065502,0.180684,0.829697
-0.148417,-0.0680903,0.636407,0.0264611,-0.0778979,0.161772,0.829697
-0.131281,-0.102412,0.553986,0.0153729,-0.0828629,0.148253,0.829697
-0.176363,-0.00640286,0.473025,0.0115049,-0.0886623,0.134427,0.829697
-0.204917,0.120918,0.440795,0.0103817,-0.0905291,0.109945,0.829697
-0.183053,0.217025,0.463682,0.0268997,-0.101201,0.0838423,0.829697
-0.141167,0.186885,0.493643,0.0468725,-0.119415,0.058946,0.829697
-0.0949469,0.0790758,0.485725,0.0557987,-0.128948,0.0338693,0.829697
-0.0637242,-0.0324935,0.402373,0.0645302,-0.140997,0.00242233,0.829697
-0.0667621,-0.149143,0.273273,0.0645935,-0.118018,-0.0519351,0.829697
-0.0479997,-0.0133143,0.242973,0.0736049,-0.100694,-0.0916075,0.829697
-0.0451218,0.300627,0.354815,0.112638,-0.123239,-0.109173,0.829697
-0.155284,0.285862,0.371232,0.155261,-0.138362,-0.159379,0.829697
-0.302992,0.105745,0.307731,0.165006,-0.11888,-0.177905,0.829697
-0.302992,0.105745,0.307731,0.165006,-0.11888,-0.177905,0.969742
-0.350091,-0.0134991,0.19936,0.161866,-0.0746914,-0.205334,0.969742
-0.269386,-0.0344769,0.167432,0.153022,-0.0196157,-0.217112,0.969742
-0.147165,0.0609929,0.237456,0.160339,0.0174375,-0.202013,0.969742
-0.0490422,0.262631,0.372501,0.137686,0.0415194,-0.147591,0.969742
0.0508921,0.532712,0.444465,0.127154,0.0811235,-0.0746097,0.969742
0.138777,0.867587,0.512466,0.144445,0.081339,0.0388981,0.969742
0.162101,0.967373,0.568073,0.172645,0.0889084,0.139288,0.969742
0.118959,0.562895,0.646937,0.191517,0.107702,0.165861,0.969742
0.0519461,-0.193617,0.763086,0.205382,0.129743,0.13554,0.969742
0.0373899,-0.759922,0.885414,0.207039,0.166882,0.0765613,0.969742
-0.00743968,-0.946212,0.961201,0.187696,0.199457,0.00899708,0.969742
-0.012826,-0.797231,0.941511,0.129975,0.24618,-0.0706533,0.969742
0.016,-0.324917,0.892933,0.0772021,0.276116,-0.115541,0.969742
0.0277876,0.266228,0.885835,0.0210391,0.266081,-0.103014,0.969742
-0.0492457,0.670453,0.86233,0.00954055,0.241641,-0.0545889,0.969742
-0.0809466,0.791209,0.81936,0.0207923,0.191068,0.000242174,0.969742
-0.0607345,0.729054,0.744873,0.0508505,0.149717,0.0642634,0.969742
-0.0548371,0.556478,0.709706,0.066723,0.0979006,0.117795,0.969742
-0.134968,0.344463,0.704112,0.0793916,0.0600846,0.148566,0.969742
-0.250175,0.177777,0.701768,0.0906218,0.0274476,0.16183,0.969742
-0.336664,0.112299,0.719032,0.0987289,0.010171,0.14644,0.969742
-0.40131,0.15995,0.746602,0.111843,-0.0120557,0.129012,0.969742
-0.432527,0.208941,0.816515,0.133131,-0.0234439,0.108371,0.969742
-0.406245,0.236662,0.9208,0.156413,-0.0466955,0.0840658,0.969742
-0.351878,0.24576,1.01583,0.171167,-0.059543,0.0693945,0.969742
-0.254109,0.186958,1.11154,0.180155,-0.0798323,0.0515294,0.969742
-0.116854,0.0769141,1.18674,0.173535,-0.0998586,0.0303656,0.969742
0.00746237,0.016412,1.20527,0.154147,-0.114125,0.0232867,0.969742
0.0840557,0.0560491,1.19305,0.143207,-0.13328,0.0243292,0.969742
0.0989599,0.211357,1.14785,0.127145,-0.144639,0.0330272,0.969742
0.0789172,0.360914,1.09221,0.122367,-0.148516,0.0348222,0.969742
0.0603162,0.446062,1.06199,0.116332,-0.149453,0.0307703,0.969742
0.0541407,0.449926,1.05432,0.11586,-0.148783,0.0281903,0.969742
0.0447713,0.381564,1.02882,0.110234,-0.145653,0.0258431,0.969742
-0.0134819,0.272694,0.974475,0.097628,-0.130801,0.00975078,0.969742
-0.039317,0.231406,0.973444,0.0831717,-0.119118,-0.018796,0.969742
-0.0986028,0.241419,1.0098,0.0958648,-0.151961,-0.0367819,0.969742
-0.302385,0.112033,0.952816,0.0821607,-0.108879,-0.0506648,0.969742
-0.58223,0.0359621,0.907402,0.078707,-0.0956963,-0.076399,0.969742
-0.762458,0.130372,0.864887,0.0441193,-0.00610316,-0.0999027,0.969742
-0.676424,0.266166,0.817913,-0.000198118,0.111044,-0.13938,0.969742
-0.271822,0.305752,0.944825,-0.0249072,0.169993,-0.130656,0.969742
0.11607,0.202014,1.24494,-0.00417471,0.150226,-0.0815395,0.969742
0.268993,-0.0731397,1.4252,0.0130783,0.139006,-0.0505387,0.969742
0.302768,-0.186874,1.34245,0.0555093,0.100193,-0.0108755,0.969742
0.160604,-0.0349045,1.08829,0.0622127,0.0585886,0.0250647,0.969742
-0.113833,0.108688,0.77483,0.0350044,0.0638568,0.0378147,0.969742
-0.233858,0.0563453,0.485601,0.0429977,0.091781,-0.0162404,0.969742
-0.233858,0.0563453,0.485601,0.0429977,0.091781,-0.0162404,1.08864
-0.151132,0.0602405,0.368591,0.0571524,0.118001,-0.0410177,1.08864
-0.11154,0.35911,0.414815,0.0668198,0.122667,0.0161471,1.08864
-0.148431,0.52327,0.487965,0.0769208,0.0890244,0.0786576,1.08864
-0.264479,0.52023,0.443573,0.119279,0.0500825,0.112978,1.08864
-0.386114,0.512919,0.345221,0.139213,0.0282109,0.180986,1.08864
-0.445811,0.383093,0.329432,0.160385,0.0265529,0.16534,1.08864
-0.453129,0.256599,0.458882,0.182246,0.0360707,0.178652,1.08864
-0.446731,0.0398476,0.709584,0.186652,0.0362955,0.13957,1.08864
-0.466352,-0.0750957,0.96211,0.173818,0.0444077,0.122531,1.08864
-0.455146,-0.240504,1.13197,0.14764,0.0404702,0.0857914,1.08864
-0.429188,-0.339304,1.16838,0.0989941,0.0566504,0.0426232,1.08864
-0.369582,-0.268678,1.16518,0.0487243,0.0587747,0.00372833,1.08864
-0.305736,-0.0642071,1.20998,0.0189834,0.0450826,-0.00324321,1.08864
-0.246865,0.120471,1.28704,0.00191001,0.0189812,0.011491,1.08864
-0.214999,0.133171,1.35319,-0.00934238,-0.0258638,0.0294126,1.08864
-0.189467,0.086264,1.33467,-0.0133263,-0.0784995,0.0646574,1.08864
-0.150878,0.0657889,1.24206,-0.0149245,-0.130556,0.0777887,1.08864
-0.174037,0.0892057,1.09574,-0.00861806,-0.166349,0.0876591,1.08864
-0.252837,0.0867923,0.966607,0.00546655,-0.186619,0.0726931,1.08864
-0.320929,0.0816532,0.894776,0.025518,-0.189759,0.0127397,1.08864
-0.312103,0.129415,0.868305,0.0471989,-0.17778,-0.0653949,1.08864
-0.258476,0.241061,0.868082,0.0588074,-0.154143,-0.142289,1.08864
-0.226214,0.419628,0.865223,0.0819087,-0.149994,-0.179831,1.08864
-0.165124,0.487273,0.898973,0.0991685,-0.144274,-0.211011,1.08864
-0.191938,0.490926,0.899969,0.100011,-0.128256,-0.223625,1.08864
-0.266036,0.448991,0.818644,0.0966487,-0.09474,-0.23545,1.08864
-0.350011,0.451271,0.712653,0.0908184,-0.0620847,-0.260004,1.08864
-0.523746,0.250076,0.50181,0.0587453,-0.0318953,-0.308324,1.08864
-0.598498,-0.221504,-0.0628152,-0.000881106,0.0541745,-0.414274,1.08864
-0.311927,-0.287122,-0.679403,-0.0293275,0.146257,-0.439879,1.08864
0.185609,0.104641,-0.835144,-0.0181731,0.170346,-0.343628,1.08864
0.665442,0.282017,-0.602991,-0.0321468,0.164018,-0.242845,1.08864
0.829505,0.195535,-0.279587,-0.0244069,0.185758,-0.132807,1.08864
0.736481,0.21861,0.0713549,0.00736569,0.172299,-0.0281637,1.08864
0.537815,0.298839,0.353903,0.0529344,0.141656,0.0580456,1.08864
0.404963,0.303118,0.509171,0.0754048,0.125877,0.0794322,1.08864
0.396026,0.298618,0.555635,0.0627806,0.147121,0.0881028,1.08864
0.465769,0.256018,0.544564,0.0663754,0.161674,0.0863724,1.08864
0.516302,0.232208,0.521786,0.0683019,0.173599,0.104916,1.08864
0.463154,0.23814,0.508487,0.0651201,0.17559,0.143469,1.08864
0.314679,0.207149,0.505758,0.0732011,0.173319,0.163255,1.08864
0.129233,0.237367,0.482058,0.0625829,0.169586,0.181819,1.08864
-0.0372919,0.287045,0.428911,0.0472964,0.175411,0.171607,1.08864
-0.0551932,0.293183,0.389294,0.0265227,0.172573,0.131226,1.08864
0.0483684,0.290548,0.380569,0.0175595,0.164301,0.10845,1.08864
0.142257,0.263119,0.397777,0.00506671,0.147146,0.0987625,1.08864
0.125609,0.183144,0.381751,-0.0111249,0.120498,0.097555,1.08864
0.0173078,0.179827,0.319528,-0.0237685,0.0911029,0.103029,1.08864
-0.0922623,0.30756,0.275493,-0.0341171,0.0552638,0.118521,1.08864
-0.0922623,0.30756,0.275493,-0.0341171,0.0552638,0.118521,1.19962
-0.175647,0.391251,0.250508,-0.0304404,0.0277678,0.126997,1.19962
-0.239342,0.368505,0.261518,-0.0191917,0.000568658,0.120318,1.19962
-0.268391,0.329463,0.292631,-0.0098857,-0.0183062,0.116901,1.19962
-0.279945,0.187608,0.304016,-0.0049513,-0.0360251,0.095967,1.19962
-0.274791,0.0311211,0.252042,-0.00708689,-0.0428466,0.0663535,1.19962
-0.24669,-0.0383467,0.198418,0.000807196,-0.0548331,0.0154958,1.19962
-0.160613,-0.0230662,0.20923,0.0155155,-0.0586832,-0.0250632,1.19962
-0.0582013,-0.138018,0.26892,0.023824,-0.0443415,-0.079493,1.19962
-0.0222808,-0.360007,0.295841,0.0348842,-0.0342536,-0.13324,1.19962
0.00804843,-0.529495,0.266964,0.0361419,-0.0233679,-0.178183,1.19962
0.0932973,-0.664905,0.178667,0.0291041,-0.00604099,-0.2434,1.19962
0.0968484,-0.634161,0.037224,0.00575878,0.00673071,-0.248505,1.19962
-0.156941,-0.550643,-0.12579,4.00618e-05,0.0146188,-0.201875,1.19962
-0.516537,-0.625076,-0.327322,0.0148522,0.00508322,-0.194256,1.19962
-0.750339,-0.908876,-0.52312,0.0180056,0.0177685,-0.250665,1.19962
-0.772415,-0.995789,-0.615937,0.00322627,0.0620525,-0.294212,1.19962
-0.318778,-0.931936,-0.60004,-0.041536,0.112686,-0.30744,1.19962
0.233359,-0.818992,-0.594656,-0.0337816,0.114672,-0.21857,1.19962
0.393099,-0.973887,-0.552594,0.0186172,0.0837655,-0.121964,1.19962
0.140892,-1.01706,-0.394777,0.0310059,0.057832,-0.0169407,1.19962
-0.130826,-0.734307,-0.226533,-0.0167108,0.0387614,0.0345588,1.19962
-0.292225,-0.196043,-0.218692,-0.0676725,0.0425683,0.0703609,1.19962
-0.329001,0.132879,-0.327098,-0.110637,0.0624967,0.0756172,1.19962
-0.199791,0.214044,-0.387925,-0.0948986,0.0438573,0.0683922,1.19962
-0.0522095,0.234549,-0.377869,-0.0476126,0.0372504,0.104693,1.19962
0.0808335,0.229241,-0.283865,-0.0197419,0.0530074,0.164712,1.19962
0.150248,0.192039,-0.17184,0.00751998,0.0398461,0.233642,1.19962
0.109862,0.133832,-0.104249,0.0481222,0.0256015,0.298892,1.19962
-0.0194442,0.039231,-0.0465329,0.0795944,0.00594072,0.335815,1.19962
-0.183239,-0.0580865,0.00157915,0.0956474,7.14958e-05,0.324742,1.19962
-0.224907,-0.143802,0.0601761,0.0940203,0.0106762,0.275411,1.19962
-0.114328,-0.253893,0.111756,0.0835931,0.0380405,0.19597,1.19962
0.108899,-0.366969,0.154479,0.0823495,0.0543166,0.115876,1.19962
0.256999,-0.385746,0.203624,0.0676728,0.0660677,0.0987382,1.19962
0.290493,-0.346797,0.245457,0.0614915,0.0576724,0.0939666,1.19962
0.259583,-0.247423,0.288545,0.0492901,0.040599,0.0969883,1.19962
0.171346,-0.0950822,0.338017,0.0443975,0.015332,0.10518,1.19962
-0.00328558,0.0651682,0.356031,0.0348144,-0.00618131,0.125913,1.19962
-0.139645,0.103738,0.350938,0.0239648,-0.0244921,0.106128,1.19962
-0.229332,0.169403,0.301705,0.0116568,-0.0384672,0.097232,1.19962
-0.310299,0.301928,0.245088,0.00298608,-0.0551092,0.0856037,1.19962
-0.357667,0.398152,0.212429,-0.0254031,-0.0605363,0.066081,1.19962
-0.388561,0.434785,0.181835,-0.0363693,-0.0753042,0.0431651,1.19962
-0.417477,0.45372,0.138595,-0.0489174,-0.0787891,0.0180992,1.19962
-0.426114,0.442811,0.113426,-0.0594775,-0.0803075,-0.0124301,1.19962
-0.383565,0.457339,0.149909,-0.0648457,-0.0764469,-0.0439677,1.19962
-0.263826,0.449812,0.226174,-0.0785156,-0.0744231,-0.0750285,1.19962
-0.137783,0.4457,0.298529,-0.0851385,-0.0760508,-0.100266,1.19962
-0.137783,0.4457,0.298529,-0.0851385,-0.0760508,-0.100266,1.28152
-0.0634301,0.476812,0.340513,-0.0887198,-0.0837493,-0.104905,1.28152
-0.0804453,0.501135,0.342179,-0.0869481,-0.0873487,-0.13075,1.28152
-0.14586,0.623815,0.319875,-0.073941,-0.0840206,-0.142811,1.28152
-0.127925,0.697632,0.315612,-0.0392492,-0.0771088,-0.18328,1.28152
0.0469649,0.505547,0.307258,-0.00753423,-0.0490896,-0.252395,1.28152
0.329965,0.0938378,0.275254,0.0237922,-0.0142308,-0.297664,1.28152
0.665361,-0.475351,0.191375,0.0857634,0.0277148,-0.315528,1.28152
0.521395,-0.975231,0.174673,0.111374,0.0764135,-0.293302,1.28152
-0.0176168,-0.883118,0.37348,0.0927971,0.0751949,-0.211507,1.28152
-0.446584,-0.165881,0.633166,0.0376828,0.069255,-0.171807,1.28152
-0.466614,0.545857,0.802463,-0.0185704,0.0767424,-0.126168,1.28152
-0.241094,0.682442,0.837464,-0.0191619,0.0561434,-0.0966777,1.28152
0.0316047,0.357299,0.760169,-0.00629533,0.0297333,-0.0493667,1.28152
0.1426,-0.0550331,0.63887,-0.0160049,0.00494795,-0.00517118,1.28152
0.087588,-0.183125,0.495635,-0.0419462,-0.00357468,0.0488812,1.28152
-0.0509454,-0.038102,0.355483,-0.0625522,-0.00435713,0.0510058,1.28152
-0.0550906,0.138312,0.180023,-0.0932742,0.0172141,0.0227765,1.28152
0.0931433,0.173973,-0.0407562,-0.102091,0.04187,-0.0204438,1.28152
0.212492,0.242737,-0.18695,-0.0803537,0.0399365,-0.00411248,1.28152
0.245599,0.306284,-0.2539,-0.0567735,0.0402582,0.0634539,1.28152
0.180887,0.245844,-0.302963,-0.0408719,0.0292846,0.0721921,1.28152
0.131792,0.215275,-0.371615,-0.026751,0.034626,0.13192,1.28152
0.0311117,0.188112,-0.448741,-0.0225218,0.0381361,0.1464,1.28152
-0.0284408,0.236917,-0.508912,-0.0145023,0.0392123,0.190547,1.28152
-0.0527644,0.328961,-0.502331,-0.00290632,0.0296407,0.210078,1.28152
-0.0199469,0.359663,-0.424979,0.000854954,0.0272963,0.231756,1.28152
0.0555455,0.288212,-0.326778,0.000891894,0.00882867,0.234389,1.28152
0.086025,0.22876,-0.263964,-0.0088583,-0.0160545,0.254926,1.28152
0.0314425,0.159943,-0.26195,-0.0148794,-0.0437489,0.272631,1.28152
-0.0801728,0.0939608,-0.292325,-0.0216566,-0.0626939,0.266031,1.28152
-0.189542,0.0381711,-0.321392,-0.013275,-0.0788811,0.239954,1.28152
-0.282061,-0.0432971,-0.312459,-0.00435507,-0.0900652,0.17871,1.28152
-0.338591,-0.07946,-0.299831,0.00306404,-0.0947451,0.125851,1.28152
-0.361501,-0.116573,-0.280555,0.0106988,-0.0936224,0.0564921,1.28152
-0.342877,-0.139998,-0.255839,0.00388601,-0.0993484,0.00650698,1.28152
-0.335203,-0.12589,-0.269281,0.00235744,-0.0897329,-0.0374842,1.28152
-0.263842,-0.0310332,-0.237408,0.0106239,-0.0994101,-0.0618383,1.28152
-0.120534,0.0130294,-0.189629,0.011954,-0.10113,-0.0785082,1.28152
-0.007187,0.0229665,-0.14905,0.0238162,-0.108744,-0.0629253,1.28152
0.063768,-0.0104144,-0.105974,0.0398954,-0.13086,-0.0423245,1.28152
0.106144,0.00448773,-0.0792055,0.0457318,-0.135053,-0.0315601,1.28152
0.148473,0.0367992,-0.0757632,0.055265,-0.13303,-0.0442556,1.28152
0.220881,0.0184379,-0.0776538,0.0694526,-0.137608,-0.0789276,1.28152
0.285705,-0.0357149,-0.067692,0.0852935,-0.13082,-0.12208,1.28152
0.348374,-0.0987974,-0.00429184,0.0922957,-0.118935,-0.177889,1.28152
0.425816,-0.0848666,0.0705256,0.0821078,-0.0935498,-0.218289,1.28152
0.570817,-0.134451,0.0758064,0.0635097,-0.0673983,-0.26134,1.28152
0.636934,-0.226502,-0.00916851,0.0425512,-0.0381566,-0.261932,1.28152
0.636934,-0.226502,-0.00916851,0.0425512,-0.0381566,-0.261932,1.36873
0.457836,-0.347725,-0.129776,0.0336354,-0.0208104,-0.232453,1.36873
-0.00751479,-0.435927,-0.265548,0.0114499,-0.017161,-0.221278,1.36873
-0.498605,-0.502256,-0.443359,-0.0282999,0.0229816,-0.283246,1.36873
-0.528402,-0.188715,-0.606822,-0.0641396,0.102755,-0.344411,1.36873
-0.0651872,0.262957,-0.619839,-0.0755515,0.15534,-0.350408,1.36873
0.499154,0.320045,-0.49587,-0.0302562,0.164933,-0.270454,1.36873
0.715122,0.159438,-0.260277,-0.0139341,0.131834,-0.116335,1.36873
0.606447,-0.110762,-0.143856,-0.00545296,0.108175,-0.012244,1.36873
0.443128,-0.220031,-0.177775,-0.0356222,0.0852917,0.044332,1.36873
0.364209,-0.10116,-0.314712,-0.097274,0.108748,0.0824563,1.36873
0.322964,0.0315746,-0.502927,-0.117597,0.125412,0.0956548,1.36873
0.245446,0.0799634,-0.620085,-0.0947398,0.122047,0.114379,1.36873
0.139706,0.0860942,-0.608318,-0.0645463,0.114301,0.147917,1.36873
0.0243137,0.0886938,-0.5393,-0.0438666,0.115562,0.176131,1.36873
-0.0393571,0.0570221,-0.467071,-0.0247087,0.116386,0.200155,1.36873
-0.0271311,-0.098465,-0.411092,-0.0172466,0.112235,0.204834,1.36873
0.0303192,-0.271853,-0.382992,-0.0241701,0.108028,0.235655,1.36873
0.125305,-0.399601,-0.406358,-0.0454829,0.105912,0.251015,1.36873
0.223439,-0.214743,-0.464929,-0.0686604,0.0987502,0.271819,1.36873
0.309751,0.0784228,-0.490961,-0.055198,0.0754205,0.272202,1.36873
0.344437,0.0461129,-0.4529,-0.0551541,0.0702216,0.239363,1.36873
0.298007,-0.106497,-0.409454,-0.0252397,0.0469972,0.221502,1.36873
0.155371,-0.189838,-0.393295,-0.0109926,0.014452,0.196614,1.36873
-0.0498942,-0.176108,-0.386536,-0.00443476,-0.0209243,0.178744,1.36873
-0.258537,-0.133542,-0.373589,0.00413338,-0.040905,0.141489,1.36873
-0.398847,-0.0940223,-0.319609,0.0105137,-0.04863,0.101955,1.36873
-0.415278,-0.059527,-0.26945,0.0163003,-0.0439361,0.0506699,1.36873
-0.358295,-0.0178238,-0.209222,0.0202462,-0.0509123,0.0271478,1.36873
-0.290735,-0.0224901,-0.135812,0.0275736,-0.055365,0.0196397,1.36873
-0.245509,-0.0471009,-0.0465559,0.0405682,-0.0786926,0.0408385,1.36873
-0.234475,-0.109397,0.029963,0.0451111,-0.0980437,0.0541635,1.36873
-0.231684,-0.172133,0.0848987,0.0436245,-0.112438,0.0515046,1.36873
-0.230087,-0.163952,0.0967913,0.0265486,-0.114244,0.0392028,1.36873
-0.225125,-0.0816221,0.0977415,0.0207124,-0.126066,0.0374292,1.36873
-0.222354,-0.0634258,0.0915739,0.0176741,-0.133536,0.0176424,1.36873
-0.206633,-0.0323033,0.0881022,0.0228968,-0.134871,-0.00831389,1.36873
-0.195187,-0.0481458,0.100005,0.0247153,-0.134945,-0.0488971,1.36873
-0.217887,0.017204,0.128833,0.0287246,-0.133103,-0.0692041,1.36873
-0.207959,0.0794409,0.184755,0.0332577,-0.117924,-0.122962,1.36873
-0.11077,0.139128,0.288543,0.0295645,-0.106527,-0.180795,1.36873
0.00864733,0.203458,0.373955,0.0196567,-0.0849901,-0.212913,1.36873
0.125835,0.23487,0.412974,0.017763,-0.0845235,-0.219218,1.36873
0.175188,0.20364,0.404752,0.0254559,-0.0853562,-0.201688,1.36873
0.0766104,0.0904633,0.368119,0.0382802,-0.0976548,-0.182262,1.36873
-0.297651,-0.219435,0.288379,0.010284,-0.0753374,-0.186744,1.36873
-0.491846,-0.590143,0.102074,-0.0368352,-0.03462,-0.289992,1.36873
-0.138038,-0.710692,-0.0956818,-0.055884,0.0345243,-0.366502,1.36873
0.433715,-0.56678,-0.062874,-0.0802244,0.0684903,-0.332471,1.36873
0.433715,-0.56678,-0.062874,-0.0802244,0.0684903,-0.332471,1.46385
0.68263,-0.404931,0.0635954,-0.0726591,0.0563736,-0.190062,1.46385
0.448279,-0.273754,0.0605131,-0.0138161,0.012834,-0.0619475,1.46385
0.0766345,-0.0582098,-0.0236864,0.00638856,-0.00477876,0.00455195,1.46385
-0.0907105,0.238195,-0.0848717,-0.00780763,0.0257654,0.0141779,1.46385
0.0900794,0.304062,-0.0758033,0.0112896,0.0527786,-0.0270643,1.46385
0.303912,0.268553,-0.0195666,0.042526,0.0685996,-0.00510365,1.46385
0.452731,0.105996,0.0294467,0.0574753,0.0705913,0.0393043,1.46385
0.468579,-0.00644042,0.0268653,0.0685558,0.0665087,0.0942957,1.46385
0.374256,-0.00381384,0.023191,0.0646195,0.0612347,0.157542,1.46385
0.286918,0.0315847,0.0178048,0.0586693,0.0623938,0.184807,1.46385
0.230038,0.041546,0.0119958,0.0604271,0.0609409,0.195463,1.46385
0.218394,0.0207621,0.0150397,0.0620743,0.058906,0.188215,1.46385
0.232614,0.0362047,0.0299033,0.0561284,0.0598878,0.178734,1.46385
0.214366,0.0493093,0.0693823,0.0505051,0.0559707,0.179456,1.46385
0.1503,0.0891058,0.0863349,0.0427425,0.0495774,0.198032,1.46385
0.0723588,0.131601,0.0834311,0.0393972,0.0373534,0.206652,1.46385
-0.0239826,0.194548,0.076857,0.0417946,0.013522,0.223436,1.46385
-0.154932,0.199156,0.0549562,0.0446417,-0.00705031,0.234518,1.46385
-0.283049,0.14394,0.0136916,0.0471721,-0.0239292,0.214947,1.46385
-0.368954,0.0952752,-0.0182873,0.0545004,-0.032679,0.187219,1.46385
-0.419171,0.134329,-0.0310531,0.0529466,-0.0307746,0.150024,1.46385
-0.409005,0.160456,0.0139314,0.073434,-0.043389,0.111415,1.46385
-0.337813,0.0854103,0.067672,0.0755349,-0.0412017,0.0497417,1.46385
-0.254091,0.0558428,0.0808408,0.0784229,-0.0394611,0.000779748,1.46385
-0.206191,0.0987791,0.10574,0.0864891,-0.0559976,-0.0367449,1.46385
-0.200461,0.164709,0.170375,0.0957636,-0.0663899,-0.0636109,1.46385
-0.15318,0.145345,0.241875,0.0993686,-0.0786975,-0.106767,1.46385
-0.0681749,0.00606309,0.250802,0.10122,-0.0800521,-0.152952,1.46385
0.0660593,-0.166459,0.227979,0.0965666,-0.0873364,-0.206486,1.46385
0.125942,-0.380874,0.240486,0.114626,-0.118021,-0.234326,1.46385
-0.0342251,-0.80103,0.271397,0.0857762,-0.0907649,-0.303793,1.46385
-0.214504,-0.637727,0.298727,0.00665132,-0.0224474,-0.286011,1.46385
-0.3789,-0.0850603,0.229702,-0.0442094,-0.0122787,-0.201145,1.46385
-0.672439,0.119298,0.0486753,-0.0258618,-0.0183842,-0.180322,1.46385
-1.01409,0.140948,-0.0791413,-0.017425,-0.0112712,-0.145781,1.46385
-1.00614,0.17641,-0.0392545,-0.00759745,0.00674713,-0.190136,1.46385
-0.562479,0.247886,0.0532973,-0.0043985,0.0364501,-0.201792,1.46385
-0.0854468,0.267302,0.225606,-0.0534631,0.0780365,-0.173213,1.46385
0.216952,0.0565758,0.317459,-0.0700685,0.0782625,-0.118425,1.46385
0.395772,-0.310095,0.26616,-0.0661273,0.0420173,-0.0851482,1.46385
0.522663,-0.549899,0.0839544,-0.104613,0.0295925,-0.0662993,1.46385
0.634858,-0.479612,-0.195057,-0.158699,0.0345949,-0.0581756,1.46385
0.863062,-0.575186,-0.527385,-0.170747,0.0451648,-0.0662323,1.46385
1.05683,-0.645749,-0.767231,-0.130782,0.0527281,-0.048355,1.46385
1.0319,-0.336432,-0.778405,-0.102863,0.0308606,0.073542,1.46385
0.820647,0.157205,-0.729103,-0.0977621,0.0430051,0.190012,1.46385
0.532635,0.538185,-0.7251,-0.0861089,0.0316391,0.259198,1.46385
0.297657,0.649737,-0.832735,-0.0794987,0.0460503,0.287076,1.46385
0.297657,0.649737,-0.832735,-0.0794987,0.0460503,0.287076,1.61975
0.271737,0.498028,-0.926802,-0.0521465,0.0582882,0.278122,1.61975
0.340583,0.268151,-0.855689,-0.0240518,0.0679696,0.258412,1.61975
0.38178,0.19382,-0.730412,-0.0090687,0.0865001,0.270848,1.61975
0.338698,0.219989,-0.556676,-0.00607285,0.0993192,0.266446,1.61975
0.309691,0.271099,-0.352192,-0.0180768,0.114297,0.271866,1.61975
0.278756,0.228548,-0.208245,-0.0119627,0.106376,0.266879,1.61975
0.192944,0.0881495,-0.159533,0.00333705,0.089442,0.249195,1.61975
0.0722542,-0.076149,-0.143247,0.00254915,0.080957,0.238532,1.61975
-0.0511149,-0.217226,-0.106731,0.00831895,0.0618505,0.216558,1.61975
-0.2118,-0.289725,-0.0683934,0.010673,0.0435463,0.188428,1.61975
-0.383407,-0.293361,-0.0176907,0.0105207,0.0294495,0.149963,1.61975
-0.482072,-0.225485,0.0691155,0.00225658,0.0163271,0.105021,1.61975
-0.517941,-0.130578,0.134553,0.0041769,0.00145279,0.0638831,1.61975
-0.537161,-0.0382886,0.176982,0.0100576,-0.0221023,0.0414632,1.61975
-0.572117,-0.0186736,0.198299,0.00903405,-0.0366422,0.0234072,1.61975
-0.561919,-0.0577239,0.237167,0.0182088,-0.0605791,-0.00252813,1.61975
-0.50347,-0.108842,0.288672,0.0228868,-0.0747537,-0.0268006,1.61975
-0.391436,-0.168601,0.345115,0.023071,-0.0876218,-0.0580609,1.61975
-0.2862,-0.203277,0.398033,0.0213984,-0.0952953,-0.0873009,1.61975
-0.15911,-0.140201,0.44586,0.0194438,-0.108817,-0.119774,1.61975
-0.0868595,-0.0664887,0.434274,0.0142282,-0.112266,-0.139875,1.61975
-0.0146769,-0.0557486,0.416446,0.0459679,-0.127484,-0.173066,1.61975
0.055448,-0.0984145,0.404966,0.0736665,-0.13389,-0.208351,1.61975
0.0816094,-0.179116,0.398655,0.0874201,-0.107793,-0.271832,1.61975
0.0028404,-0.165129,0.450073,0.0899708,-0.082587,-0.307829,1.61975
-0.163361,-0.152823,0.51537,0.0853512,-0.055604,-0.349319,1.61975
-0.265381,-0.117248,0.537987,0.0467752,-0.0172371,-0.398042,1.61975
-0.169201,0.138254,0.482383,0.00570705,0.0125517,-0.386094,1.61975
-0.0511619,0.496106,0.441705,-0.0127991,0.043189,-0.299728,1.61975
0.0162734,0.675866,0.524504,0.0110255,0.033596,-0.182427,1.61975
0.0362388,0.579243,0.599902,0.0311825,0.022643,-0.0980399,1.61975
0.0518383,0.255104,0.55024,0.0442751,0.0250899,-0.0712181,1.61975
0.0799479,0.0341766,0.425678,0.0336856,0.0384342,-0.0657604,1.61975
0.157441,0.0790474,0.351709,-0.00325726,0.0743298,-0.0559568,1.61975
0.260134,0.260651,0.322994,-0.0296938,0.0994072,-0.0496248,1.61975
0.362284,0.357887,0.323531,-0.033991,0.108606,-0.0302216,1.61975
0.433051,0.442007,0.340223,-0.0331318,0.10829,0.0352507,1.61975
0.448963,0.488008,0.350485,-0.0336576,0.0978477,0.114146,1.61975
0.411169,0.487368,0.310541,-0.0242543,0.0845064,0.179643,1.61975
0.335461,0.363064,0.254833,-0.00316212,0.060086,0.213689,1.61975
0.26585,0.176133,0.223284,0.00032986,0.0658222,0.208351,1.61975
0.217492,0.108233,0.228703,-0.00820721,0.0756268,0.2007,1.61975
0.203763,0.121651,0.256868,-0.0137289,0.0837471,0.197801,1.61975
0.225582,0.147142,0.328705,-0.0123262,0.0877375,0.178854,1.61975
0.230263,0.135441,0.416268,-0.0118082,0.0688313,0.166677,1.61975
0.18872,0.0130293,0.442758,-0.0191519,0.0522163,0.160817,1.61975
0.115032,-0.122419,0.412736,-0.0276819,0.0307914,0.157845,1.61975
0.00389032,-0.0964277,0.351103,-0.0465422,0.0127141,0.150531,1.61975
0.00389032,-0.0964277,0.351103,-0.0465422,0.0127141,0.150531,1.78357
-0.118837,0.00498642,0.291992,-0.0530105,-0.00568029,0.15296,1.78357
-0.22008,-0.000227772,0.267231,-0.0378164,-0.0310613,0.145562,1.78357
-0.272879,0.064157,0.229185,-0.0277722,-0.04644,0.148784,1.78357
-0.340829,-0.0289834,0.207431,-0.0196809,-0.0696555,0.119616,1.78357
-0.354398,0.00104006,0.167709,-0.00293386,-0.0879307,0.137441,1.78357
-0.357308,-0.0686388,0.114305,0.00779275,-0.101343,0.0903226,1.78357
-0.38037,0.0400709,0.0400075,0.0251084,-0.125923,0.102084,1.78357
-0.361574,0.0548082,-0.0075912,0.0470612,-0.136094,0.0755538,1.78357
-0.348561,0.116968,-0.0224242,0.0709444,-0.146811,0.0756448,1.78357
-0.289287,0.1278,-0.0149626,0.0930501,-0.143998,0.0483152,1.78357
-0.195651,0.169896,0.0182328,0.111366,-0.138727,0.0342405,1.78357
-0.115042,0.190498,0.0740507,0.118133,-0.13605,0.0223773,1.78357
-0.0822509,0.193314,0.139127,0.126274,-0.135977,0.0162955,1.78357
-0.0654124,0.152108,0.203427,0.126512,-0.131707,-0.0153593,1.78357
-0.0474362,0.0547255,0.228253,0.114344,-0.113045,-0.0642261,1.78357
-0.00457154,-0.01747,0.224438,0.095488,-0.099396,-0.131978,1.78357
0.0181658,-0.096867,0.206522,0.0707457,-0.070437,-0.208216,1.78357
-0.126822,-0.198814,0.176584,0.051074,-0.0665736,-0.26458,1.78357
-0.391123,-0.16062,0.00317911,0.0298769,-0.0650587,-0.313506,1.78357
-0.732903,-0.0560367,-0.281303,0.0152552,-0.0641146,-0.373526,1.78357
-0.995872,0.272662,-0.582779,-0.000509515,-0.015416,-0.438078,1.78357
-0.859459,0.787334,-0.717755,-0.0199172,0.063902,-0.486278,1.78357
-0.414613,1.29243,-0.529234,-0.0231395,0.111676,-0.471784,1.78357
0.048739,1.52452,-0.0712589,-0.0325123,0.128897,-0.316045,1.78357
0.309236,1.28612,0.369825,-0.0233382,0.108684,-0.173763,1.78357
0.462703,0.790536,0.601719,-0.0184109,0.0863984,-0.0593075,1.78357
0.587803,0.340648,0.545289,-0.0548227,0.088708,0.0250723,1.78357
0.575241,0.112683,0.299148,-0.0885551,0.0932809,0.0903348,1.78357
0.48329,0.0581684,0.087127,-0.115822,0.0986187,0.139967,1.78357
0.388442,0.0904468,0.0297319,-0.122995,0.105732,0.166478,1.78357
0.343031,0.128524,0.0660923,-0.111032,0.102261,0.186077,1.78357
0.327793,0.114776,0.0897477,-0.10296,0.0988882,0.210784,1.78357
0.302462,0.11859,0.0508019,-0.0969348,0.0952087,0.22086,1.78357
0.255701,0.129964,-0.00972678,-0.0878424,0.0810898,0.234785,1.78357
0.215204,0.165507,-0.0487811,-0.0877711,0.0813775,0.246727,1.78357
0.241004,0.151843,-0.0568291,-0.0837991,0.0850646,0.234571,1.78357
0.299516,0.125243,-0.025369,-0.0797146,0.0900192,0.230611,1.78357
0.317747,0.0644718,0.00523267,-0.0779212,0.0927725,0.224217,1.78357
0.317874,-0.0469813,0.0365432,-0.0761151,0.0776005,0.206206,1.78357
0.232971,-0.0874215,0.0345591,-0.0860689,0.0599801,0.207067,1.78357
0.0452043,-0.0622221,-0.0364419,-0.0934295,0.0460466,0.186292,1.78357
-0.151627,0.0274962,-0.112696,-0.0913888,0.0287739,0.15892,1.78357
-0.288485,0.155651,-0.162578,-0.0826222,0.00162818,0.120395,1.78357
-0.344745,0.186689,-0.187814,-0.075906,-0.0157183,0.091007,1.78357
-0.405956,0.0956499,-0.204964,-0.0545104,-0.0381185,0.0686175,1.78357
-0.431004,-0.0561985,-0.22621,-0.0398489,-0.055057,0.0597108,1.78357
-0.439979,-0.148138,-0.259726,-0.0313817,-0.0637352,0.0445809,1.78357
-0.450191,-0.139473,-0.262585,-0.0240658,-0.0733429,0.038237,1.78357
-0.450191,-0.139473,-0.262585,-0.0240658,-0.0733429,0.038237,1.98703
-0.400554,-0.148313,-0.235049,-0.01521,-0.0747993,0.0125905,1.98703
-0.284344,-0.119099,-0.152477,-0.00455785,-0.0850459,-0.00172162,1.98703
-0.189001,-0.130358,-0.0700805,0.00628261,-0.0912037,-0.00257105,1.98703
-0.140649,-0.141374,0.00473383,0.0222583,-0.113659,-0.00161219,1.98703
-0.168364,-0.0869894,0.0328304,0.0305934,-0.121284,0.00357634,1.98703
-0.26466,0.0454665,0.0393944,0.0418001,-0.131861,-0.000941932,1.98703
-0.426099,0.166172,-0.0248936,0.0517959,-0.122409,-0.0702584,1.98703
-0.524071,0.328562,-0.103843,0.0910062,-0.102023,-0.175845,1.98703
-0.282452,0.429628,0.00295781,0.126707,-0.0769777,-0.312777,1.98703
0.116785,0.628403,0.307707,0.162373,-0.090175,-0.307358,1.98703
0.285198,0.587079,0.640403,0.17116,-0.129871,-0.273636,1.98703
0.1948,0.248142,0.65584,0.232492,-0.165232,-0.258934,1.98703
0.000247179,-0.13087,0.478138,0.218076,-0.175905,-0.254242,1.98703
-0.147875,-0.43939,0.279155,0.151246,-0.0694773,-0.271041,1.98703
-0.147331,-0.549607,0.130167,0.100778,0.0012309,-0.33199,1.98703
-0.0524482,-0.377327,0.0710936,0.078007,0.0600713,-0.341552,1.98703
0.0424423,-0.013567,0.183495,0.0554054,0.0815718,-0.262211,1.98703
0.0958031,0.211519,0.428301,0.0455388,0.0711115,-0.136245,1.98703
0.118003,0.178048,0.541331,0.0673263,0.0502519,-0.034189,1.98703
0.107941,-0.0280331,0.54656,0.0699001,0.0479682,0.0215097,1.98703
0.0862322,-0.274906,0.494433,0.0527117,0.0565141,0.0677459,1.98703
0.0336109,-0.439257,0.450555,0.0238851,0.0668839,0.107266,1.98703
-0.00677395,-0.486904,0.421865,0.00976653,0.0820199,0.13184,1.98703
-0.000412679,-0.522104,0.41772,-0.010676,0.0971685,0.138324,1.98703
0.0383621,-0.587227,0.414117,-0.0167684,0.10826,0.151683,1.98703
0.0467882,-0.58786,0.402293,-0.0279233,0.118055,0.175925,1.98703
0.0767554,-0.486782,0.370231,-0.054111,0.131753,0.194923,1.98703
0.141383,-0.369224,0.287072,-0.0451194,0.138644,0.188274,1.98703
0.198465,-0.253176,0.242965,-0.0391578,0.136925,0.198179,1.98703
0.183852,-0.263909,0.2596,-0.0249139,0.134322,0.236686,1.98703
0.0242357,-0.370142,0.292434,-0.00694467,0.124881,0.282749,1.98703
-0.278921,-0.64452,0.325453,0.0152055,0.121883,0.321431,1.98703
-0.570385,-0.599833,0.356923,-0.00177227,0.129167,0.342033,1.98703
-0.703924,-0.167061,0.340951,-0.0444093,0.116984,0.292355,1.98703
-0.657168,0.326789,0.240353,-0.0899607,0.099737,0.222066,1.98703
-0.660489,0.50514,0.15204,-0.0984015,0.0726521,0.168485,1.98703
-0.7811,0.383681,0.167561,-0.0380061,-0.0152589,0.137575,1.98703
-1.00428,0.278916,0.18286,0.0205937,-0.0956834,0.108559,1.98703
-1.18482,0.373818,0.154775,0.0336353,-0.154828,0.0880567,1.98703
-1.20431,0.425399,0.116006,0.0474938,-0.195634,0.00990385,1.98703
-1.02241,0.34153,0.133728,0.0648603,-0.211481,-0.0454733,1.98703
-0.798907,-0.039664,0.191217,0.100022,-0.2233,-0.132791,1.98703
-0.581081,-0.376818,0.201809,0.129878,-0.191314,-0.171741,1.98703
-0.291471,-0.518916,0.252738,0.130057,-0.162727,-0.195039,1.98703
0.0374793,-0.382739,0.368425,0.0883828,-0.144073,-0.177706,1.98703
0.36095,-0.132485,0.498295,0.0370604,-0.126634,-0.151004,1.98703
0.652336,0.0995989,0.57651,0.0144501,-0.117951,-0.118104,1.98703
0.870077,0.224385,0.579396,0.0188899,-0.115007,-0.0876172,1.98703
0.990022,0.142714,0.517118,0.0401576,-0.128293,-0.0709438,1.98703
0.990022,0.142714,0.517118,0.0401576,-0.128293,-0.0709438,2.15878
0.762453,-0.160645,0.36395,0.0368731,-0.103558,-0.136676,2.15878
0.58777,-0.139888,0.206744,0.0318326,-0.0924172,-0.0641593,2.15878
0.55394,-0.113672,0.0618665,0.019468,-0.075611,-0.135029,2.15878
0.648853,-0.111105,-0.055377,0.00302894,-0.0234372,-0.20615,2.15878
0.776196,-0.204164,-0.036164,-0.0101904,-0.00687839,-0.27158,2.15878
0.904987,-0.213173,0.0802544,0.00289342,0.0166257,-0.257397,2.15878
0.625659,-0.403359,0.19789,0.0342083,0.0274005,-0.27481,2.15878
0.0413027,-0.341874,0.146329,0.0668404,0.087453,-0.35111,2.15878
-0.0943005,-0.0471113,-0.013802,0.0248722,0.146958,-0.387276,2.15878
0.0101948,0.230596,-0.0786072,-0.0105286,0.168107,-0.424814,2.15878
0.3043,0.4156,0.0827445,-0.0553421,0.146535,-0.238615,2.15878
0.70192,0.236516,0.350464,-0.0332796,0.119981,-0.11948,2.15878
1.0394,-0.0574961,0.493135,0.0062632,0.135876,-0.0227146,2.15878
1.21014,-0.3006,0.421209,-0.00170053,0.153724,0.0150977,2.15878
1.16993,-0.384373,0.169969,-0.0363625,0.166594,0.0328004,2.15878
1.03582,-0.280481,-0.0444119,-0.0974282,0.167091,0.139067,2.15878
0.896236,-0.216849,-0.157725,-0.125188,0.144814,0.219254,2.15878
0.651915,-0.0615772,-0.20065,-0.119909,0.133256,0.286863,2.15878
0.369984,0.205568,-0.194164,-0.105639,0.120431,0.342215,2.15878
0.130271,0.355353,-0.197009,-0.0990449,0.102028,0.399069,2.15878
-0.111016,0.38964,-0.269296,-0.0672202,0.0918961,0.392215,2.15878
-0.188571,0.365572,-0.315899,-0.0402638,0.0848088,0.386708,2.15878
-0.153246,0.247754,-0.280561,-0.0411224,0.0728327,0.355158,2.15878
-0.0653035,0.106985,-0.223103,-0.0397628,0.0607879,0.336004,2.15878
0.0147841,-0.0747183,-0.185816,-0.0326532,0.044427,0.300961,2.15878
0.00602624,-0.182507,-0.186688,-0.0254328,0.0328839,0.245662,2.15878
-0.082767,-0.135925,-0.170808,-0.0180856,0.0119586,0.206131,2.15878
-0.272878,0.0723002,-0.143378,-0.0162711,-0.0117785,0.168209,2.15878
-0.461698,0.206166,-0.119496,-0.0120423,-0.0342286,0.13258,2.15878
-0.622144,0.346771,-0.134025,0.00524315,-0.0538767,0.110847,2.15878
-0.7196,0.339934,-0.16409,0.00290397,-0.060579,0.069158,2.15878
-0.667579,0.221923,-0.170967,0.0140547,-0.0529463,0.0264789,2.15878
-0.492456,0.120451,-0.131533,0.0147779,-0.0527399,-0.0109645,2.15878
-0.351786,0.129933,-0.0158144,0.0203601,-0.0664534,0.00325471,2.15878
-0.33997,0.134796,0.107715,0.0211868,-0.0966139,0.0342699,2.15878
-0.423833,0.178294,0.187194,0.0231945,-0.129519,0.0578983,2.15878
-0.487427,0.200616,0.178907,0.0174085,-0.15111,0.0513253,2.15878
-0.501366,0.229502,0.160421,0.00252235,-0.145228,0.028268,2.15878
-0.427833,0.289877,0.15958,-4.92483e-05,-0.147144,-0.00289512,2.15878
-0.296535,0.374398,0.175367,0.00831141,-0.135665,-0.0209351,2.15878
-0.150461,0.425434,0.245463,0.00507867,-0.131726,-0.0388234,2.15878
-0.0658941,0.312225,0.36466,0.0289707,-0.129564,-0.0284896,2.15878
-0.0876079,0.299769,0.49265,0.0431787,-0.135046,0.000607908,2.15878
-0.00362935,0.157462,0.549527,0.0315703,-0.123767,-0.0461628,2.15878
0.134443,0.135173,0.536009,0.0281821,-0.100826,-0.0869001,2.15878
0.231407,0.135103,0.595141,0.0220074,-0.0745405,-0.128035,2.15878
0.177614,0.280424,0.711972,0.0343939,-0.084939,-0.125498,2.15878
0.0448685,0.277195,0.7134,-0.0191195,-0.0486912,-0.128182,2.15878
0.0448685,0.277195,0.7134,-0.0191195,-0.0486912,-0.128182,2.3226
-0.101747,-0.0560526,0.777075,-0.046249,-0.0405821,-0.120741,2.3226
