attitude_roll,attitude_pitch,attitude_yaw,rotationRate_x,rotationRate_y,rotationRate_z,acceleration_x,acceleration_y,acceleration_z
0.0233577,0.17552,-0.0657285,0.400021,-0.631135,0.410499,-0.129549,0.114089,-0.11953
0.00393558,0.181197,-0.0597353,0.188475,-1.14184,0.151636,-0.135081,0.275697,-0.0659853
-0.0195942,0.18506,-0.0606872,0.222269,-1.11543,-0.252914,-0.089964,0.336075,0.0798892
-0.0355786,0.191156,-0.0688318,0.3616,-0.578987,-0.520765,-0.0102124,0.250708,0.248406
-0.0386198,0.199645,-0.0792807,0.421993,0.0527576,-0.483635,0.0628372,0.0673403,0.343862
-0.0311727,0.208335,-0.0864382,0.412015,0.516414,-0.231944,0.105231,-0.107774,0.335644
-0.0172202,0.2163,-0.0883377,0.373347,0.796374,0.0203778,0.134753,-0.171414,0.2741
-0.00103163,0.223666,-0.0861265,0.357933,0.821016,0.165467,0.140578,-0.161068,0.156075
0.0125933,0.230203,-0.0818022,0.270545,0.599402,0.258654,0.143333,-0.140782,0.0493638
0.0193935,0.234222,-0.0749645,0.125291,0.235661,0.431843,0.175961,-0.151733,-0.015769
0.018515,0.236204,-0.0635617,0.0601981,-0.0103927,0.676954,0.17507,-0.169062,-0.030741
0.0140705,0.237704,-0.0473141,0.0803925,-0.0301521,0.881107,0.146955,-0.142336,0.00515592
0.00947681,0.240348,-0.0282359,0.161181,-0.00170018,0.947305,0.103055,-0.0873223,0.0350391
0.00566396,0.24468,-0.00838471,0.254989,0.14459,0.961288,0.0925425,-0.0390195,0.050659
0.0067504,0.250665,0.0112606,0.314018,0.43481,0.945671,0.0733861,-0.0151348,0.0385345
0.0118773,0.257996,0.0313284,0.399772,0.527002,0.995053,0.056677,-0.00890937,-0.0618364
0.0154506,0.266837,0.0518937,0.431688,0.330324,0.975562,0.042012,0.0235083,-0.175047
0.0145672,0.27528,0.071124,0.341683,0.112748,0.882429,0.0366409,0.0765498,-0.178073
0.0110812,0.279478,0.0898117,0.0182782,0.0915014,0.958677,0.00442463,0.0170956,-0.116206
0.00763562,0.276675,0.112145,-0.280201,0.196824,1.15616,-0.0101223,-0.0162703,-0.10622
0.00622281,0.271551,0.136527,-0.17546,0.295898,1.15015,0.0502949,0.121147,-0.154033
0.0051059,0.27136,0.158657,0.129125,0.141851,0.940069,0.0645695,0.237875,-0.228652
0.00123322,0.276439,0.174887,0.360176,-0.0862153,0.61786,0.0903816,0.285032,-0.224689
-0.00544546,0.284757,0.185573,0.422198,-0.260515,0.460367,0.109474,0.185877,-0.165956
-0.0144155,0.291981,0.197541,0.304042,-0.264453,0.738629,0.14529,0.0209591,-0.0682573
-0.0255772,0.297271,0.217771,0.279473,-0.274815,1.17143,0.168908,-0.0480914,-0.015853
-0.0394629,0.302186,0.245695,0.269149,-0.281337,1.4188,0.153998,0.0203556,0.0214499
-0.0544048,0.304517,0.275755,0.0765954,-0.310359,1.39968,0.1161,0.140089,0.0566146
-0.0700603,0.302175,0.304507,-0.134944,-0.388416,1.35392,0.0777719,0.183339,0.0528134
-0.0864951,0.295955,0.333055,-0.243784,-0.397015,1.40555,0.019277,0.163572,0.0473084
-0.102713,0.288657,0.361756,-0.213494,-0.406044,1.35133,-0.0401068,0.188641,0.0522534
-0.118234,0.281736,0.386477,-0.228147,-0.443157,1.03478,-0.0741306,0.232949,0.0680494
-0.131567,0.274508,0.40305,-0.273969,-0.422221,0.647329,-0.0792298,0.205811,0.109651
-0.141476,0.267905,0.41381,-0.222688,-0.248041,0.507423,-0.0543639,0.0800196,0.167919
-0.145544,0.263234,0.423929,-0.0825176,0.129915,0.539525,-0.0261638,-0.0442231,0.221931
-0.144559,0.261244,0.435985,0.011707,0.202511,0.634468,0.00287695,-0.100909,0.157531
-0.14644,0.259034,0.449058,-0.0464699,-0.0657624,0.611273,0.0149044,-0.0336176,0.0546805
-0.152588,0.256001,0.459747,-0.0983483,-0.253412,0.439835,0.0358672,0.0499515,0.0411463
-0.160019,0.252767,0.467111,-0.105306,-0.275779,0.339862,0.0512164,0.035698,0.0806559
-0.166321,0.248986,0.474123,-0.166477,-0.165286,0.410056,0.0644722,-0.0500722,0.155343
-0.169965,0.243202,0.483219,-0.251465,0.0166723,0.555449,0.0977794,-0.0925924,0.215253
-0.171106,0.235725,0.494921,-0.287339,0.130074,0.678682,0.107809,-0.0906405,0.198381
-0.171853,0.227314,0.508307,-0.316245,0.0964222,0.731395,0.0923444,-0.0481367,0.117867
-0.174135,0.218081,0.52209,-0.366974,-0.0353544,0.740009,0.0684142,0.00490038,0.040712
-0.178802,0.208291,0.535608,-0.358134,-0.132813,0.709751,-0.0100452,0.0185255,-0.00634366
-0.184088,0.198835,0.547723,-0.33423,-0.116408,0.614605,-0.0686947,0.0696739,-0.021633
-0.187109,0.191702,0.557395,-0.196666,0.00609679,0.424753,-0.106451,0.0894561,-0.0320959
-0.188349,0.187213,0.562573,-0.161189,-0.0690746,0.160087,-0.119485,0.0983379,-0.0912309
-0.191214,0.183894,0.563192,-0.146792,-0.204802,-0.0167759,-0.0942965,0.0630166,-0.116994
-0.196698,0.181969,0.561337,-0.0756276,-0.36171,-0.127771,-0.0841771,-0.00606039,-0.0762924
-0.203058,0.18023,0.557531,-0.207406,-0.27688,-0.171638,-0.0633193,-0.0689438,0.0295534
-0.203473,0.17502,0.554503,-0.362972,0.252608,0.0256984,-0.0112046,-0.166753,0.131203
-0.203473,0.17502,0.554503,-0.362972,0.252608,0.0256984,-0.0112046,-0.166753,0.131203
-0.193071,0.166325,0.55765,-0.383736,0.735689,0.460483,0.0597247,-0.190856,0.0409808
-0.182394,0.158489,0.570539,-0.0884261,0.341152,0.837519,0.144337,-0.0699112,-0.199171
-0.184545,0.15448,0.584937,-0.115238,-0.247903,0.566595,0.108255,0.29324,-0.330734
-0.191236,0.149522,0.592303,-0.184882,-0.207105,0.273557,0.065683,0.387018,-0.147165
-0.192916,0.146585,0.596431,-0.00166384,0.121557,0.197199,0.00599556,0.253483,-0.0632406
-0.188293,0.148886,0.599757,0.298882,0.358817,0.0693803,0.0276253,0.171118,-0.0388725
-0.180114,0.157032,0.60158,0.492896,0.467184,-0.0135056,0.0593078,0.0844574,-0.0296094
-0.170541,0.166111,0.604363,0.396931,0.478319,0.162657,0.044561,-0.0525475,-0.0218921
-0.164171,0.171299,0.611549,0.257299,0.268171,0.440671,0.0076157,-0.115213,-0.0910867
-0.163064,0.174199,0.622731,0.222751,0.0557217,0.581595,0.00810599,-0.0542504,-0.11052
-0.165111,0.176924,0.636311,0.242418,-0.0195494,0.685957,0.00510323,0.000771031,-0.0845094
-0.168212,0.179391,0.652142,0.276728,0.0345174,0.814032,0.00385974,0.0309395,-0.0651221
-0.168837,0.18235,0.671329,0.29596,0.248605,0.9821,-0.00526717,0.0340937,-0.0178372
-0.165802,0.183546,0.692406,0.159143,0.40717,1.00134,-0.0130827,0.0589056,-0.0223613
-0.161532,0.18276,0.711791,0.0973611,0.331628,0.861908,0.0226541,0.11044,-0.0774291
-0.160111,0.18261,0.728691,0.154466,0.121157,0.803819,0.107156,0.0620593,-0.11769
-0.162014,0.183791,0.746566,0.261307,0.0237382,0.923636,0.135152,-0.0634884,-0.103325
-0.166832,0.187121,0.768195,0.400127,-0.101192,1.10912,0.0970749,-0.135059,-0.102112
-0.174338,0.19119,0.793343,0.38438,-0.177998,1.22067,0.0510175,-0.102209,-0.0243143
-0.184996,0.192816,0.818955,0.224726,-0.387868,1.2053,-0.00569941,-0.0210232,0.0153809
-0.19864,0.191751,0.84328,0.134953,-0.483848,1.14445,-0.0730344,0.0519059,0.0336726
-0.210976,0.190019,0.866694,0.208796,-0.243751,1.14615,-0.131421,0.101643,0.0586154
-0.216788,0.191941,0.891224,0.483577,0.110754,1.1279,-0.196342,0.134963,0.0691632
-0.217185,0.197968,0.914309,0.547692,0.248951,0.924052,-0.217545,0.213768,0.0329964
-0.217191,0.203605,0.932118,0.335227,0.0554726,0.646299,-0.181527,0.264915,0.0117252
-0.222243,0.204711,0.943479,0.0393072,-0.31788,0.450553,-0.10149,0.227225,0.0137546
-0.232141,0.202308,0.952528,-0.0474451,-0.414601,0.493389,-0.0242791,0.0924406,0.109929
-0.240363,0.198768,0.963883,-0.0118245,-0.142475,0.671938,0.0322416,-0.0197926,0.233714
-0.243185,0.196166,0.979104,0.116217,0.141845,0.80961,0.0360579,-0.0691888,0.24226
-0.241504,0.195149,0.996791,0.17814,0.337236,0.895545,0.0228928,-0.0896107,0.167881
-0.238059,0.193626,1.01632,0.114516,0.342995,0.970346,0.0196029,-0.095423,0.0608914
-0.236567,0.190245,1.03596,-0.000168579,0.178297,0.988227,0.0288899,-0.0706809,-0.0515101
-0.238118,0.183635,1.05656,-0.158498,0.0684556,1.14571,0.0248005,-0.117673,-0.0885466
-0.241254,0.173504,1.08019,-0.208208,0.0566216,1.31781,0.0791901,-0.0717347,-0.087226
-0.243716,0.165259,1.10521,-0.0185962,0.117657,1.21236,0.131379,0.0911282,-0.0755647
-0.243844,0.159514,1.12612,-0.0672241,0.19919,0.913474,0.167035,0.215128,-0.0390494
-0.242053,0.153814,1.1416,-0.0898507,0.19064,0.736019,0.160787,0.176097,-0.0340223
-0.241038,0.149088,1.15597,-0.0260297,0.131865,0.76886,0.0981849,0.0426858,-0.0494779
-0.239963,0.145376,1.17199,0.0370698,0.219241,0.844802,0.0418008,-0.0166341,0.000117064
-0.237171,0.142062,1.18913,0.0247812,0.279833,0.863423,-0.0195951,-0.00732584,0.0240586
-0.234993,0.13787,1.20593,-0.0453312,0.139144,0.843198,-0.0277346,0.010389,-0.0065152
-0.236698,0.13211,1.22173,-0.135949,-0.0905382,0.797525,-0.0213794,0.0220006,-0.0446236
-0.241413,0.126085,1.23628,-0.0954731,-0.14276,0.732548,-0.000249997,0.045719,-0.0183657
-0.244909,0.120768,1.24945,-0.124077,-0.0457124,0.66033,-0.0174917,0.0307991,0.0578959
-0.246453,0.114576,1.26103,-0.181122,0.0230125,0.59471,-0.0401047,0.00369893,0.058152
-0.246301,0.108781,1.27086,-0.127902,0.109788,0.471407,-0.081185,0.00491413,0.0303725
-0.24345,0.105412,1.27767,-0.0335318,0.256633,0.252592,-0.100923,0.0588917,0.0298377
-0.23702,0.104344,1.28025,-0.0296473,0.402605,0.0382171,-0.0918787,0.0825634,0.042515
-0.227863,0.103316,1.28014,-0.065296,0.487652,0.00480176,-0.0548641,0.0505196,0.0342797
-0.217893,0.101973,1.28051,-0.049197,0.501453,0.0621465,-0.0354535,0.0130968,-0.00830054
-0.208311,0.100947,1.28216,-0.00822543,0.457303,0.11674,-0.00860089,0.03147,-0.0438262
-0.208311,0.100947,1.28216,-0.00822543,0.457303,0.11674,-0.00860089,0.03147,-0.0438262
-0.20036,0.100956,1.28472,0.0556312,0.360737,0.121157,0.0117452,0.0717169,-0.0702526
-0.193845,0.101921,1.28729,0.0926725,0.321115,0.117093,0.0375814,0.0966021,-0.0573298
-0.187871,0.104192,1.29046,0.185524,0.307132,0.155448,0.0666293,0.0917506,-0.0482225
-0.182337,0.107482,1.29506,0.242407,0.300398,0.227207,0.0888512,0.0802216,-0.0287221
-0.176334,0.11263,1.30078,0.359816,0.364664,0.223206,0.12182,0.0851245,-0.00802672
-0.169956,0.119179,1.30598,0.341869,0.315273,0.171895,0.159639,0.0790109,-0.0159365
-0.165356,0.124712,1.3101,0.280601,0.159118,0.156153,0.209972,0.0223539,-0.0228572
-0.165157,0.128415,1.31541,0.1519,-0.0733992,0.329434,0.213118,-0.0990648,-0.0454414
-0.169248,0.128932,1.32459,0.0688508,-0.179419,0.545657,0.18952,-0.159206,-0.0161223
-0.172769,0.128867,1.33718,0.157627,0.0404084,0.651162,0.122008,-0.14543,0.0493775
-0.169807,0.130822,1.3506,0.235293,0.429497,0.606735,0.0698767,-0.0703256,0.112998
-0.159503,0.133278,1.36272,0.195715,0.732834,0.537277,0.0465636,-0.0200546,0.106801
-0.144971,0.135816,1.37383,0.259907,0.842538,0.504876,0.0413577,0.0110243,0.0307366
-0.128642,0.141931,1.38461,0.49606,0.946166,0.475984,0.0355064,0.0236114,0.0125875
-0.109233,0.151243,1.39554,0.484972,1.13819,0.477794,0.00854322,-0.0115337,0.0812186
-0.0875466,0.157792,1.40488,0.259537,1.09282,0.346755,-0.0144814,0.0195649,0.0620873
-0.0701972,0.160724,1.41041,0.0836159,0.672295,0.189846,-0.0293666,0.0385427,-0.0339656
-0.0615745,0.161028,1.41393,-0.0236563,0.259252,0.165378,-0.0452326,0.0269259,-0.0729284
-0.0593079,0.159804,1.4169,-0.0731294,0.0619966,0.118316,-0.0789942,0.0338048,-0.0575987
-0.0590644,0.157322,1.41769,-0.188884,-0.0363562,-0.0372031,-0.119982,0.0605892,-0.0180544
-0.0602623,0.152137,1.41481,-0.339196,-0.123295,-0.217292,-0.157297,0.0676732,-0.0160761
-0.0625454,0.14465,1.40834,-0.414181,-0.193391,-0.364487,-0.143836,0.0569418,-0.0247686
-0.0642666,0.138429,1.39974,-0.215122,-0.0560554,-0.429782,-0.0985164,0.0462212,-0.030791
-0.0624726,0.137399,1.39079,0.0255447,0.0998837,-0.438787,-0.0612795,0.0103496,-0.0124859
-0.0590892,0.138378,1.38195,-0.0214002,0.0631372,-0.452056,-0.0328182,-0.0058926,-0.00680143
-0.0586252,0.137197,1.37208,-0.134963,-0.140967,-0.509916,-0.0196871,-0.00974777,-0.0551355
-0.0608163,0.134948,1.36127,-0.122974,-0.198505,-0.521812,0.0011443,-0.0152415,-0.0554945
-0.0632036,0.134035,1.35136,-0.0273049,-0.163892,-0.443142,0.0207556,-0.0544154,-0.0345839
-0.0642507,0.134641,1.34334,0.0260275,-0.0602264,-0.350819,0.0371973,-0.0686771,0.00657463
-0.0640406,0.135657,1.33701,0.0210237,-0.0176073,-0.286025,0.0377132,-0.0633972,0.0130736
-0.0642722,0.135581,1.33112,-0.0679004,-0.0963327,-0.303269,0.0334415,-0.0466576,-0.00696564
-0.0663789,0.134066,1.32421,-0.116008,-0.197952,-0.364678,0.0284883,-0.0136284,-0.0230425
-0.069288,0.132399,1.31676,-0.0832804,-0.184259,-0.350413,0.0235218,-0.0132207,-0.00429446
-0.0717189,0.131581,1.30949,-0.0744607,-0.155734,-0.371436,0.0121392,-0.00582263,0.0149761
-0.0739275,0.130001,1.30131,-0.141318,-0.155388,-0.410925,0.00272613,0.0109832,0.0340041
-0.0755709,0.127497,1.29308,-0.157532,-0.124242,-0.380771,-0.00015644,0.0076302,0.0432057
-0.0768616,0.125078,1.28529,-0.142991,-0.110044,-0.376013,-0.0221109,0.00434556,0.0284736
-0.0783447,0.122901,1.2771,-0.135507,-0.136239,-0.41679,-0.0349508,0.0310546,0.00969183
-0.0818162,0.120429,1.26807,-0.196439,-0.360425,-0.444567,-0.0286234,0.0283867,-0.0134933
-0.090037,0.116143,1.25892,-0.29089,-0.506783,-0.423878,-0.0130157,0.0123967,0.00179768
-0.0979264,0.111196,1.25036,-0.263075,-0.350512,-0.360382,-0.00366382,-0.0110879,0.0708956
-0.101878,0.107191,1.24322,-0.201133,-0.114211,-0.313727,0.00420993,-0.00273988,0.0780029
-0.102393,0.104048,1.23636,-0.197247,-0.0161018,-0.338896,0.00563809,0.0308621,0.048602
-0.101221,0.100086,1.22846,-0.280445,0.0238939,-0.40055,0.00781483,0.0666699,0.0139964
-0.100686,0.0946212,1.21939,-0.332428,-0.0728682,-0.43445,-0.00135881,0.0703408,-0.0496305
-0.103184,0.0888289,1.20963,-0.362024,-0.257667,-0.462869,-0.0297292,0.0501685,-0.0754026
-0.107198,0.0815938,1.1997,-0.433159,-0.240059,-0.443354,-0.0713871,0.0734315,-0.018768
-0.111277,0.073789,1.18946,-0.445966,-0.252711,-0.490823,-0.0791042,0.0943368,0.0283574
-0.114961,0.0659581,1.17772,-0.466874,-0.185414,-0.594413,-0.118024,0.11042,0.0635048
-0.115479,0.0577411,1.16316,-0.488186,0.054542,-0.753673,-0.114797,0.131958,0.0985416
-0.111772,0.0514137,1.14514,-0.334854,0.191401,-0.950557,-0.0910003,0.104766,0.072937
-0.106059,0.0470975,1.12424,-0.360548,0.249605,-1.04485,-0.054322,0.0290748,0.0490035
-0.106059,0.0470975,1.12424,-0.360548,0.249605,-1.04485,-0.054322,0.0290748,0.0490035
-0.0998437,0.041034,1.10242,-0.429679,0.294838,-1.03808,-0.00610353,-0.0344016,0.0420032
-0.0919317,0.0352432,1.08089,-0.347882,0.436597,-1.05663,0.0159245,-0.0894283,0.0409353
-0.0806502,0.030725,1.05836,-0.29778,0.589187,-1.11974,0.0683941,-0.0934253,0.0391716
-0.0690277,0.0265726,1.03594,-0.295303,0.459737,-1.04921,0.0975284,-0.138271,-0.026751
-0.0619612,0.0206652,1.01628,-0.447987,0.197773,-0.841031,0.0857731,-0.196728,-0.0791126
-0.060477,0.011089,1.00088,-0.557867,-0.0404905,-0.653301,0.0685085,-0.175892,-0.076032
-0.0616791,0.000787493,0.988033,-0.528209,-0.0566644,-0.568731,0.0362036,-0.131598,-0.0214331
-0.0620378,-0.00910906,0.976251,-0.560684,0.050056,-0.539309,-0.00460911,-0.0867456,0.0207552
-0.0598747,-0.0197881,0.964635,-0.530803,0.195195,-0.564727,-0.0231347,-0.0313682,0.027691
-0.0559651,-0.0283105,0.952009,-0.416162,0.183681,-0.63334,-0.0184883,-0.00869909,0.0183743
-0.0515115,-0.0368355,0.93863,-0.499807,0.254126,-0.646476,-0.0124499,-0.00576019,0.0378979
-0.0483003,-0.046116,0.925463,-0.460209,0.124645,-0.600584,0.00158419,-0.00860869,-0.0313419
-0.0473319,-0.0545966,0.913618,-0.443917,0.022883,-0.547247,-0.012357,-0.00824368,-0.0346365
-0.0480538,-0.062359,0.901833,-0.40606,0.028211,-0.600624,-0.0314037,0.0342849,-0.0380384
-0.04823,-0.0703426,0.888855,-0.418695,0.0175215,-0.638198,-0.0546452,0.0467656,-0.00941604
-0.0477968,-0.0778836,0.876225,-0.409897,0.132736,-0.561808,-0.0846293,-0.00511193,0.0115466
-0.0456393,-0.0855493,0.865128,-0.390416,0.1807,-0.522243,-0.10176,0.0182538,0.0178884
-0.042173,-0.0921967,0.853626,-0.317024,0.248755,-0.592497,-0.110942,0.0663507,0.00553346
-0.0397398,-0.0968268,0.840371,-0.203049,0.106299,-0.69988,-0.118721,0.0818371,-0.0516735
-0.0395418,-0.1002,0.825292,-0.205738,0.0706995,-0.768051,-0.141285,0.0611465,-0.0465192
-0.0398584,-0.103278,0.809053,-0.140642,0.0761182,-0.826779,-0.130286,0.0705356,-0.0294644
-0.0396744,-0.104398,0.791955,-0.0438676,0.123982,-0.851524,-0.10905,0.0708866,-0.0235306
-0.0383476,-0.104154,0.774885,-0.00225907,0.168077,-0.835642,-0.0773022,0.0629655,-0.0198222
-0.0373846,-0.102922,0.75771,0.0517907,0.0977864,-0.879898,-0.0529249,0.0692109,-0.0459648
-0.0381031,-0.101813,0.739671,-0.0207806,0.0324328,-0.889985,-0.0281128,0.0522934,-0.0376694
-0.0390506,-0.101661,0.722699,0.00828515,0.0370902,-0.778238,-0.00547238,0.00743102,-0.0256969
-0.040256,-0.100012,0.707996,0.067751,-0.00523324,-0.696047,-0.00753282,-0.0236277,-0.0336199
-0.0419256,-0.098641,0.694129,0.0120848,-0.0109353,-0.683878,0.00923892,-0.0146797,-0.00112736
-0.0433538,-0.0978613,0.680374,0.0221851,0.0129769,-0.680995,0.0104639,-0.0384704,0.00874561
-0.0436702,-0.0964311,0.666906,0.0597425,0.0894387,-0.655673,0.0161709,-0.060576,0.0205283
-0.0420586,-0.0945907,0.654392,0.0611169,0.174411,-0.585314,0.0255008,-0.0840736,0.0388387
-0.039428,-0.09306,0.643753,0.0518346,0.182404,-0.463465,0.0401628,-0.109176,0.0179552
-0.0361567,-0.0913775,0.635881,0.0878917,0.213929,-0.325557,0.0324733,-0.120288,0.00143325
-0.032593,-0.0890455,0.630135,0.117534,0.186528,-0.26742,0.0298489,-0.0758052,-0.0230303
-0.0299985,-0.0863139,0.624988,0.138434,0.112699,-0.249461,0.0272884,-0.0276282,-0.05158
-0.0294019,-0.0831896,0.620337,0.161811,-0.022855,-0.2134,0.0247032,-0.00562467,-0.076414
-0.0317329,-0.0796758,0.616704,0.175787,-0.170382,-0.162311,0.0265153,0.00268402,-0.076123
-0.0359896,-0.0759122,0.613772,0.1992,-0.19889,-0.142769,0.0207721,0.0168579,-0.0366524
-0.0396568,-0.0712287,0.61159,0.264973,-0.137954,-0.0791778,0.0229749,0.0133196,0.00313455
-0.0423943,-0.0651425,0.611601,0.334373,-0.13982,0.0679847,0.0297032,-0.0236077,0.00299436
-0.0458081,-0.0578054,0.615131,0.401292,-0.230927,0.244009,0.0565036,-0.0506015,-0.0175948
-0.0507777,-0.04989,0.621388,0.402099,-0.273451,0.318867,0.0576507,-0.0437046,-0.0064683
-0.055497,-0.0425466,0.628106,0.378919,-0.237257,0.306264,0.048323,-0.0183179,0.033003
-0.0599695,-0.0352038,0.634764,0.388764,-0.238293,0.325388,0.0290432,-0.023142,0.0235696
-0.0647937,-0.028119,0.642079,0.354802,-0.24551,0.350837,0.00423697,-0.0298394,0.0191136
-0.0692572,-0.0217047,0.649333,0.331778,-0.206331,0.324019,-0.0200173,-0.011449,0.0384444
-0.0726988,-0.0158778,0.656086,0.280463,-0.1526,0.312348,-0.0315765,-0.0136035,0.055903
-0.075757,-0.0116143,0.662843,0.192148,-0.163506,0.316327,-0.025181,-0.00880633,0.0427341
-0.0792248,-0.00877306,0.668837,0.139006,-0.182412,0.247941,-0.00971297,0.0378733,0.0316761
-0.0830105,-0.00657822,0.67327,0.112508,-0.206022,0.168655,0.0155459,0.0695175,0.0319355
-0.0868781,-0.00522074,0.675759,0.0429128,-0.163016,0.0600827,0.00313432,0.0641916,0.0441275
-0.0889814,-0.00498935,0.675823,-0.0169504,-0.03783,-0.0469492,0.00135386,0.0630345,0.0662676
-0.0889814,-0.00498935,0.675823,-0.0169504,-0.03783,-0.0469492,0.00135386,0.0630345,0.0662676
-0.0882656,-0.00543637,0.67449,-0.020218,0.0943963,-0.0715575,0.0108946,0.0375936,0.0579211
-0.0855962,-0.0050912,0.67305,0.0276577,0.164862,-0.0642093,0.0349231,0.0247704,0.0296512
-0.0823012,-0.00508761,0.672003,-0.046278,0.156449,-0.0397142,0.0437247,0.00843181,0.00664258
-0.0797931,-0.00708781,0.670936,-0.15256,0.0945356,-0.0557937,0.0408576,0.0147172,-0.0169855
-0.0789518,-0.0113051,0.669195,-0.259069,-0.0143182,-0.0858283,0.0234602,0.0155507,-0.0360615
-0.0791796,-0.0168838,0.66635,-0.295887,0.0156272,-0.162769,0.0064844,0.0324641,-0.0255377
-0.0778737,-0.0221349,0.66135,-0.259705,0.10955,-0.295991,-0.00550643,0.0583266,-0.0159854
-0.0751457,-0.0262726,0.653708,-0.217253,0.152997,-0.42958,-0.009927,0.0602479,-0.0288162
-0.0722674,-0.0296646,0.643931,-0.185066,0.143956,-0.507806,-0.0120863,0.0282623,-0.0336581
-0.0703641,-0.0325377,0.632729,-0.182659,0.0895975,-0.579806,-0.0217568,-0.00691237,-0.0320247
-0.0693554,-0.0353943,0.620305,-0.193786,0.0539132,-0.629271,-0.0121645,-0.0221269,-0.0171586
-0.0693597,-0.0386983,0.607,-0.216157,-0.00896217,-0.6722,-0.0067518,-0.0364455,-0.0214313
-0.0704073,-0.0416712,0.592763,-0.160304,-0.0119625,-0.711497,0.0120148,-0.0397974,-0.0208606
-0.0702267,-0.0430631,0.57833,-0.0845156,0.0991358,-0.706632,0.023229,-0.0555619,0.0107095
-0.0673816,-0.0433385,0.56442,-0.0387064,0.20558,-0.673032,0.0418311,-0.0452016,0.0293104
-0.0646225,-0.0430611,0.550811,-0.0410798,0.113182,-0.690839,0.0412938,-0.0196254,-0.0112674
-0.063912,-0.0436305,0.535965,-0.101375,0.0319926,-0.781865,0.0434678,0.0293204,-0.0156409
-0.0643638,-0.0444387,0.51918,-0.0841845,0.00478946,-0.87149,0.0368207,0.0512028,-0.00281167
-0.0652678,-0.0451952,0.500799,-0.120923,-0.00813509,-0.946496,0.0101317,0.0424821,0.0171461
-0.065556,-0.0472975,0.481073,-0.21372,0.0710991,-0.995582,-0.0136504,0.0397411,0.0485396
-0.0641364,-0.0503937,0.46005,-0.217299,0.179398,-1.06779,-0.0289912,0.0503816,0.0495488
-0.0605161,-0.0536463,0.437712,-0.262777,0.304382,-1.12596,-0.0393087,0.0542286,0.0476826
-0.0543034,-0.0585503,0.414503,-0.336156,0.437597,-1.14106,-0.0273287,0.0568092,0.0371591
-0.0463601,-0.0637756,0.391344,-0.287517,0.478793,-1.13006,-0.0150147,0.0533485,-0.0297166
-0.0389932,-0.067877,0.368717,-0.2214,0.373243,-1.09928,0.00659074,0.0535894,-0.0847414
-0.0352197,-0.0711453,0.346542,-0.18785,0.153188,-1.0789,0.0431037,0.0447138,-0.113012
-0.0358134,-0.0738645,0.325383,-0.151416,-0.0415725,-0.995873,0.0678431,-0.0203762,-0.0924775
-0.0389137,-0.0754619,0.307048,-0.0700066,-0.125918,-0.795699,0.088018,-0.106091,-0.0420224
-0.0429157,-0.0757425,0.293738,-0.0226188,-0.165104,-0.522331,0.0824829,-0.179323,0.00443935
-0.0465633,-0.0757537,0.285246,-0.014093,-0.122293,-0.330573,0.0811878,-0.18939,0.0587497
-0.0486438,-0.0757198,0.280157,-0.00311135,-0.0486079,-0.182248,0.0849691,-0.17013,0.0914294
-0.049531,-0.0755745,0.277501,-0.0126568,-0.0363642,-0.0936248,0.0927654,-0.126589,0.0900695
-0.050421,-0.0763475,0.276139,-0.0630039,-0.0262823,-0.0360883,0.101721,-0.0654242,0.0814369
-0.0502928,-0.077077,0.275834,-0.000591656,0.0512051,0.00753613,0.10188,-0.00523854,0.0726289
-0.0487712,-0.0769765,0.275872,-0.0102031,0.0912125,-0.0100059,0.086907,0.0458871,0.0643499
-0.047027,-0.0781159,0.275366,-0.105082,0.0703239,-0.0295545,0.0754308,0.0751618,0.0436847
-0.046443,-0.0806453,0.274609,-0.139657,0.00975627,-0.0264345,0.0564225,0.078683,0.00544077
-0.0461685,-0.0834984,0.274257,-0.141362,0.0179616,0.00627411,0.0411238,0.0666384,0.00157297
-0.0456133,-0.08663,0.274635,-0.179668,0.0398742,0.0484425,0.0359813,0.0478779,0.00592548
-0.0440777,-0.0911014,0.276275,-0.240669,0.0746873,0.135451,0.0200312,0.0114569,0.0189948
-0.0420487,-0.0966124,0.279644,-0.277429,0.0858691,0.215037,0.00503607,-0.0140493,-0.00774038
-0.0396229,-0.103204,0.284218,-0.324953,0.085251,0.254301,-0.00501656,-0.0128872,-0.023054
-0.0372144,-0.110136,0.289356,-0.315647,0.0841631,0.278693,-0.00156331,-0.00177398,-0.0357386
-0.0349492,-0.115954,0.294991,-0.243965,0.067475,0.297176,-0.00223403,-0.0026263,-0.0521824
-0.0332185,-0.120951,0.301169,-0.2363,0.0275984,0.327262,-0.00388026,-0.0172472,-0.0401866
-0.032259,-0.125673,0.307712,-0.208943,-0.0122021,0.329202,-0.0142504,-0.0348887,-0.0230969
-0.0319352,-0.129901,0.314167,-0.187498,-0.0269922,0.31852,-0.0303815,-0.0474892,-0.000996232
-0.0311021,-0.133679,0.320502,-0.170166,0.0452341,0.318383,-0.0462982,-0.0583451,0.0385574
-0.0283388,-0.137173,0.327084,-0.156241,0.145519,0.348931,-0.0567852,-0.07728,0.0673267
-0.0232056,-0.140399,0.334661,-0.144357,0.232072,0.401618,-0.047322,-0.0843351,0.0756023
-0.0172008,-0.143212,0.342883,-0.126293,0.250655,0.406859,-0.0355884,-0.0630716,0.0555496
-0.0172008,-0.143212,0.342883,-0.126293,0.250655,0.406859,-0.0355884,-0.0630716,0.0555496
-0.0108143,-0.146469,0.351357,-0.202623,0.261456,0.44104,-0.0199108,-0.0612137,0.0616835
-0.00374063,-0.151308,0.360777,-0.265629,0.324283,0.489834,-0.0131783,-0.0659689,0.0733914
0.00496877,-0.156923,0.371301,-0.290783,0.374987,0.53961,-0.0132542,-0.0580741,0.065429
0.015013,-0.162768,0.382319,-0.297141,0.447406,0.528712,-0.00961079,-0.0232563,0.0495986
0.0263743,-0.16853,0.392905,-0.294206,0.508578,0.503908,0.00738862,0.00440146,0.0282143
0.038766,-0.174274,0.403411,-0.318438,0.529061,0.510487,0.00362461,0.00527194,0.00721455
0.0511516,-0.180507,0.414343,-0.336886,0.509883,0.533224,0.0104619,0.0119237,-0.0238358
0.0639744,-0.185206,0.425628,-0.16084,0.595463,0.530281,-0.00467093,0.0307713,-0.0523002
0.0790139,-0.185525,0.435782,0.0315485,0.688553,0.452199,-0.0186478,0.0832836,-0.062982
0.0933422,-0.183976,0.443695,0.0197137,0.536902,0.339239,0.00892167,0.111799,-0.0872872
0.102589,-0.184203,0.450386,-0.10449,0.262333,0.321809,-0.00769003,0.0688059,-0.115317
0.106979,-0.186426,0.457826,-0.178241,0.0446991,0.376616,-0.0331936,0.0152747,-0.107143
0.108455,-0.189174,0.466258,-0.167573,-0.0257834,0.408165,-0.0294373,0.00271763,-0.0567223
0.11012,-0.191086,0.474872,-0.11786,0.033903,0.405209,-0.0522486,0.00506665,0.00401938
0.112973,-0.19243,0.483097,-0.119638,0.0900379,0.383565,-0.0618998,0.0138492,0.0367937
0.116517,-0.194339,0.491247,-0.161598,0.0999423,0.384281,-0.0663816,0.0129371,0.04128
0.119928,-0.197135,0.499367,-0.21207,0.089485,0.370016,-0.0546252,0.0224316,0.0450603
0.123225,-0.20108,0.507712,-0.279648,0.0798362,0.399256,-0.0147549,0.0248662,0.0660495
0.126767,-0.206498,0.517626,-0.382082,0.0622769,0.500817,0.0169443,0.00645313,0.087219
0.130017,-0.213819,0.530376,-0.490121,-0.00832638,0.628899,0.0276284,-0.00706971,0.0720984
0.132677,-0.222228,0.54526,-0.519051,-0.0496541,0.674271,0.0268182,0.0182895,0.0664455
0.134846,-0.230775,0.559968,-0.513142,-0.0540167,0.610247,0.0111552,0.0683873,0.0806037
0.137057,-0.239573,0.572577,-0.531512,-0.00504533,0.472542,-0.00848873,0.115862,0.104603
0.14091,-0.249843,0.582402,-0.615587,0.165488,0.327211,-0.00601754,0.134553,0.127698
0.148088,-0.261688,0.589729,-0.636513,0.353955,0.208128,-0.0102607,0.11049,0.122176
0.157732,-0.273641,0.595061,-0.610171,0.452241,0.12107,-0.0179031,0.0644625,0.0628407
0.168483,-0.284748,0.599102,-0.529567,0.504799,0.0929452,-0.0161286,0.0195603,-0.00855374
0.179769,-0.2933,0.603257,-0.384928,0.477338,0.163048,-0.00421977,-0.0437515,-0.0693469
0.189802,-0.299525,0.609264,-0.34676,0.32923,0.284726,-0.0215424,-0.0997079,-0.137701
0.196448,-0.305056,0.617551,-0.332614,0.0779162,0.372649,-0.0213802,-0.0936354,-0.18976
0.198114,-0.309563,0.627002,-0.269274,-0.172271,0.411301,-0.0267445,-0.0699465,-0.206438
0.196358,-0.312256,0.636361,-0.165785,-0.25091,0.397426,-0.0509295,-0.0415354,-0.162881
0.194014,-0.312779,0.644477,-0.0317425,-0.222006,0.34272,-0.0591167,-0.0095776,-0.106195
0.191889,-0.311168,0.650658,0.0656418,-0.166746,0.261706,-0.0608121,0.00448278,-0.0650232
0.190627,-0.308525,0.654762,0.11077,-0.0819082,0.169009,-0.0610667,0.01556,-0.0229117
0.189947,-0.305729,0.656969,0.108737,-0.071109,0.0926936,-0.0389381,0.0106112,-0.00631875
0.188546,-0.303846,0.658118,0.0626106,-0.0981876,0.054997,-0.0306522,-0.00689456,-0.0103493
0.186447,-0.302338,0.65882,0.0740184,-0.122468,0.0362088,-0.0168811,-0.00977388,-0.00600898
0.184534,-0.30067,0.658859,0.0835631,-0.0619126,-0.00015508,-0.00892049,-0.00374079,0.0284604
0.184174,-0.299483,0.658388,0.0380388,0.0411502,-0.0155566,-0.0119126,-0.00355244,0.0598133
0.185498,-0.299183,0.658175,-0.00104795,0.100933,0.00931536,-0.00917487,-0.0108036,0.0522367
0.1881,-0.299275,0.658738,-0.0179864,0.147855,0.0415343,-0.0178072,-0.0110135,0.0272276
0.191116,-0.299269,0.659532,0.00952084,0.126471,0.024211,-0.0221028,0.0129328,-0.00532699
0.193309,-0.298871,0.659354,0.0399543,0.104089,-0.0301728,-0.0173315,0.0285109,-0.0197877
0.194896,-0.298072,0.658221,0.0633249,0.091013,-0.0512948,-0.00903825,0.0237204,-0.020811
0.195884,-0.296797,0.657024,0.0761031,0.0521158,-0.0276433,-0.00841999,0.00267637,-0.0214214
0.196943,-0.295661,0.656607,0.0429086,0.0709655,0.0137793,-0.0035271,-0.00511727,0.00183862
0.197995,-0.294541,0.656845,0.0769331,0.0514333,0.0338494,0.00157106,-0.00309923,-0.00989544
0.199221,-0.293175,0.657224,0.0658595,0.0759328,0.0398097,0.00609568,-0.00151706,0.00239176
0.200782,-0.291816,0.657788,0.0686886,0.0777048,0.0454884,-0.000787601,-0.00278011,-0.00402158
0.200782,-0.291816,0.657788,0.0686886,0.0777048,0.0454884,-0.000787601,-0.00278011,-0.00402158
0.202332,-0.290544,0.658436,0.0315215,0.0692646,0.0433727,0.00519116,0.00187173,2.13385e-05
0.20371,-0.289985,0.659143,0.0208737,0.0411253,0.0321747,0.00819932,0.00744331,-0.00742745
0.204587,-0.289395,0.659447,0.0297663,0.0596048,0.00392724,0.0177179,0.00983948,-0.00445747
0.206345,-0.288701,0.659081,0.0489254,0.132033,-0.022989,0.0136936,0.00464529,0.0104223
0.209171,-0.287732,0.658368,0.0581918,0.161767,-0.0203993,0.0250999,-0.00654146,0.00282389
0.211983,-0.28682,0.657899,0.0458061,0.12377,-0.00113186,0.0196471,-0.0195678,-0.0173845
0.213908,-0.28616,0.657997,0.0316444,0.0590677,0.0223173,0.013012,-0.0205514,-0.0324085
0.214756,-0.285457,0.658405,0.038003,0.00805127,0.0318871,0.00146285,-0.00782272,-0.032388
0.214755,-0.284436,0.658852,0.0572213,-0.0269672,0.0274851,-0.0143906,0.00475371,-0.027011
0.214478,-0.282809,0.659134,0.0782013,-0.0211869,0.0291539,-0.0300814,0.0167526,-0.0116017
0.214088,-0.280813,0.659129,0.0988962,-0.0317011,0.00287903,-0.0420251,0.029107,-0.00869083
0.21268,-0.278956,0.658448,0.0782554,-0.0896728,-0.0312708,-0.0334105,0.033852,-0.00866574
0.210203,-0.277772,0.657068,0.076553,-0.107506,-0.0645733,-0.0333632,0.0269182,0.00379437
0.207522,-0.276589,0.655323,0.0824399,-0.0800069,-0.0605481,-0.0216302,0.0107074,0.0205761
0.205483,-0.275662,0.653616,0.0662277,-0.037916,-0.0642664,-0.0186475,-0.00160021,0.0340126
0.204039,-0.275085,0.652134,0.0476082,-0.042068,-0.0453676,-0.00459298,-0.0161206,0.0300847
0.202887,-0.274738,0.651259,0.036712,-0.0323902,-0.0254541,-0.00619709,-0.0261926,0.017904
0.201818,-0.274119,0.650405,0.0523617,-0.0398899,-0.0375252,0.00889182,-0.0146259,0.0062055
0.200808,-0.273326,0.649284,0.057205,-0.0244217,-0.0430318,0.017431,-0.0124892,0.00772381
0.200259,-0.272308,0.648536,0.0577261,-0.016629,-0.00384603,0.021419,-0.0263712,0.00141442
0.199845,-0.270855,0.648623,0.0721669,-0.0322124,0.0316987,0.0157053,-0.0321431,-0.00987357
0.199246,-0.269088,0.648872,0.087863,-0.0328098,0.0196848,0.0081369,-0.0179584,-0.010762
0.198918,-0.267147,0.648709,0.102822,0.00551368,-0.00386197,-0.00660859,-0.00728205,-0.00459528
0.200218,-0.264607,0.647849,0.163261,0.139998,-0.0369004,-0.0179039,-0.00956148,0.015967
0.204212,-0.260469,0.646234,0.2412,0.262127,-0.0326164,-0.0264909,-0.0315359,0.0190215
0.208674,-0.255248,0.644771,0.26142,0.190282,-0.00268901,-0.0263785,-0.0404793,-0.0226586
0.210453,-0.251002,0.643881,0.169808,0.017427,0.00445716,-0.0207621,-0.015266,-0.0579572
0.208886,-0.248429,0.642945,0.123523,-0.121999,-0.0502866,-0.0213931,0.0252371,-0.0594301
0.205847,-0.245968,0.640093,0.181651,-0.0818275,-0.16928,-0.0258511,0.0555316,-0.0143346
0.203588,-0.242318,0.634745,0.250267,-0.0151612,-0.250148,-0.00882299,0.0590733,0.0203765
0.201865,-0.238478,0.628671,0.216881,-0.00915115,-0.232823,-0.00361437,0.0259376,0.0191675
0.200188,-0.235592,0.623862,0.160302,-0.0531894,-0.165187,0.00852832,-0.00200377,0.012497
0.198123,-0.233247,0.62044,0.132212,-0.0740281,-0.116479,0.0249009,-0.00832845,0.014344
0.196042,-0.231385,0.617907,0.112989,-0.0761265,-0.0869577,0.0317622,-0.00645585,0.0202268
0.194308,-0.229829,0.616076,0.0923264,-0.0531415,-0.0470399,0.0312892,-0.0119141,0.0268083
0.193133,-0.228224,0.615299,0.0835906,-0.0431643,0.00321103,0.0236592,-0.0217956,0.0237696
0.192449,-0.226504,0.615335,0.0822674,-0.0300594,0.0229477,0.0124594,-0.017861,0.0198529
0.192084,-0.224965,0.615478,0.0681208,-0.0294847,0.00843083,0.00871412,-0.00334546,0.0127974
0.191737,-0.22363,0.615053,0.0715208,-0.0188759,-0.0292844,-0.00999217,0.00126715,0.00459319
0.191283,-0.222251,0.613801,0.0822522,-0.0172503,-0.0740198,-0.0226924,0.00171146,-0.00488049
0.190622,-0.220631,0.61148,0.104279,-0.0123492,-0.120204,-0.0269641,0.00039281,-0.0149373
0.189617,-0.218893,0.60829,0.128751,-0.0270381,-0.153794,-0.0312909,-0.00747778,-0.0241607
0.188318,-0.216872,0.604273,0.147306,-0.0155981,-0.190925,-0.0375271,-0.00710675,-0.0216928
0.186903,-0.214556,0.599219,0.178548,-0.0028401,-0.243516,-0.0316992,-0.00923932,-0.0275855
0.185097,-0.211534,0.593056,0.236019,-0.0294399,-0.277002,-0.0169298,-0.026519,-0.0512589
0.182562,-0.207446,0.586646,0.272293,-0.0729675,-0.247366,-0.00683537,-0.0516489,-0.0602238
0.179449,-0.202921,0.581294,0.264792,-0.113973,-0.179626,-0.00488809,-0.052865,-0.0522375
0.179449,-0.202921,0.581294,0.264792,-0.113973,-0.179626,-0.00488809,-0.052865,-0.0522375
0.176107,-0.198439,0.57719,0.24534,-0.12773,-0.148542,-0.0077434,-0.0219379,-0.0364358
0.17331,-0.1946,0.573217,0.191654,-0.062837,-0.173669,-0.0243828,0.0116435,-0.017261
0.172235,-0.191958,0.568668,0.151365,0.0375591,-0.21583,-0.0344477,0.0369713,-0.0166256
0.172577,-0.190137,0.56393,0.0970352,0.0783268,-0.197897,-0.0251791,0.0459158,-0.0459141
0.172983,-0.18978,0.560035,-0.00805164,0.0294221,-0.175767,-0.0131166,0.0588087,-0.0841395
0.172048,-0.19183,0.556323,-0.115701,-0.0426213,-0.232525,-0.000167832,0.094073,-0.109847
0.170021,-0.19516,0.550997,-0.100706,-0.0439957,-0.332727,0.0273072,0.107819,-0.118929
0.16856,-0.197372,0.54392,-0.00679551,0.0445803,-0.378798,0.037185,0.0785194,-0.121325
0.16847,-0.198449,0.536109,0.0187273,0.0771849,-0.385141,0.0452723,0.042185,-0.123533
0.168013,-0.199164,0.528443,0.0398326,0.0117633,-0.359279,0.0764541,0.00892161,-0.154572
0.166379,-0.19925,0.52153,0.0673336,-0.0280065,-0.308227,0.0745722,-0.0285308,-0.172786
0.164435,-0.198347,0.515395,0.123766,-0.0495847,-0.265546,0.0785743,-0.0419742,-0.163095
0.162291,-0.196224,0.51011,0.160725,-0.0662078,-0.205427,0.0674432,-0.0611016,-0.15598
0.160129,-0.193413,0.506024,0.180853,-0.0684357,-0.148164,0.0513062,-0.0598084,-0.148144
0.158034,-0.189714,0.502777,0.234295,-0.0812301,-0.113353,0.0406678,-0.0387824,-0.143568
0.155566,-0.184908,0.499547,0.281726,-0.104966,-0.123028,0.0229642,-0.0121642,-0.139894
0.152721,-0.179525,0.495924,0.302082,-0.107814,-0.143125,0.0116019,0.00536747,-0.126797
0.149666,-0.173691,0.49195,0.330254,-0.12554,-0.158924,0.000200152,0.0226616,-0.116557
0.146112,-0.167488,0.487488,0.336887,-0.151266,-0.181777,-0.00386143,0.0460627,-0.0966889
0.142037,-0.161444,0.482557,0.325731,-0.173778,-0.208041,-0.00689131,0.0587689,-0.0837952
0.137659,-0.155728,0.4772,0.311075,-0.177907,-0.230051,-0.0183918,0.0620941,-0.0669942
0.1334,-0.150631,0.471682,0.265604,-0.165829,-0.238801,-0.0275865,0.0623711,-0.0519983
0.129567,-0.146289,0.466062,0.236895,-0.128811,-0.252555,-0.0356923,0.062576,-0.0346597
0.126394,-0.142489,0.460386,0.199564,-0.11805,-0.252024,-0.0342497,0.0574097,-0.0301461
0.12239,-0.140047,0.454621,0.102659,-0.192272,-0.295771,-0.0298553,0.0645421,-0.0389262
0.117176,-0.139827,0.448008,0.00475267,-0.217166,-0.343576,-0.00671239,0.0810876,-0.0375615
0.112566,-0.1411,0.441495,-0.0549867,-0.152905,-0.282871,0.0126281,0.0535354,-0.0495141
0.109843,-0.14333,0.437704,-0.125979,-0.0603731,-0.108151,0.0192638,-0.00198604,-0.0516194
0.109158,-0.146144,0.437011,-0.123207,0.00433146,-0.0196313,0.0240563,-0.0144904,-0.0576708
0.109557,-0.147847,0.436508,-0.0538397,0.0517182,-0.0519145,0.0327084,0.027252,-0.0847563
0.110872,-0.149034,0.435231,-0.0538712,0.0966144,-0.0819957,0.0456417,0.0238191,-0.0830902
0.112537,-0.15004,0.433538,-0.0252088,0.0769432,-0.097939,0.0333105,0.00153884,-0.102969
0.113334,-0.150624,0.431402,-0.0118136,0.0276194,-0.116824,0.0196894,-0.00167871,-0.131877
0.112448,-0.151066,0.428795,0.000567012,-0.0775406,-0.14391,0.0149668,-0.00109282,-0.154656
0.109971,-0.151126,0.42544,0.0370103,-0.115882,-0.18803,-0.0119253,0.00359312,-0.14266
0.106723,-0.149945,0.420793,0.134382,-0.138171,-0.260787,-0.0216006,0.0274806,-0.122987
0.102784,-0.147073,0.414157,0.215131,-0.157102,-0.365256,-0.0272923,0.0509508,-0.0925546
0.0979366,-0.142862,0.405094,0.294387,-0.198508,-0.475649,-0.0262121,0.0529059,-0.0663526
0.0918195,-0.137067,0.394201,0.371678,-0.258482,-0.529667,-0.0222118,0.0310407,-0.0393698
0.0844984,-0.130247,0.382521,0.400907,-0.310359,-0.563234,-0.0321846,0.0129735,0.00572288
0.0765698,-0.12285,0.369921,0.4328,-0.312759,-0.613467,-0.0218261,0.00369516,0.0565874
0.069401,-0.114789,0.356512,0.457717,-0.20613,-0.640862,-0.0141709,-0.0194136,0.103134
0.0661115,-0.106196,0.343487,0.490584,0.0423045,-0.566529,0.0182627,-0.0525603,0.140266
0.0681064,-0.095514,0.332822,0.659329,0.216319,-0.416309,0.0399224,-0.0974287,0.135743
0.072254,-0.0816232,0.324704,0.732355,0.239749,-0.292766,0.027033,-0.124227,0.117712
0.0759664,-0.0687596,0.319009,0.56301,0.157995,-0.172014,0.0245668,-0.121272,0.10383
0.0770971,-0.0595323,0.316238,0.389778,-0.032673,-0.028946,0.0198259,-0.117847,0.0625393
0.0742715,-0.0524248,0.316295,0.323643,-0.24177,0.0790646,0.0095626,-0.0885335,0.0319601
0.0742715,-0.0524248,0.316295,0.323643,-0.24177,0.0790646,0.0095626,-0.0885335,0.0319601
0.0681901,-0.0466913,0.317896,0.225537,-0.345135,0.103888,0.00713231,-0.0241217,0.0437688
0.0616347,-0.0430415,0.319343,0.126347,-0.284938,0.0639369,-0.0120543,0.0343798,0.0875241
0.0575005,-0.0413761,0.320154,0.0309086,-0.129193,0.0258835,-0.0289314,0.07091,0.109447
0.0559874,-0.0416653,0.320417,-0.0534782,-0.0583424,0.00398727,-0.0303359,0.0832401,0.0703511
0.0540059,-0.0432635,0.320139,-0.0971117,-0.160454,-0.0502643,-0.0239914,0.0912716,-0.00254488
0.0492867,-0.0458066,0.318248,-0.158782,-0.287265,-0.150169,-0.012533,0.101167,-0.0348395
0.0422998,-0.0500314,0.314845,-0.240306,-0.381669,-0.197022,-0.00987039,0.0697406,-0.0261773
0.0345171,-0.0553614,0.311001,-0.26364,-0.345946,-0.203051,-0.0341674,0.0231735,-0.00253874
0.0286229,-0.0606194,0.306834,-0.24491,-0.206028,-0.241229,-0.0474873,0.0141401,0.0251286
0.0255337,-0.0657733,0.301599,-0.259119,-0.0790416,-0.283027,-0.0521633,-6.13183e-06,0.020538
0.0243083,-0.0711685,0.296029,-0.247237,-0.00679992,-0.279139,-0.0376263,-0.0220056,-0.0141329
0.0238929,-0.0755828,0.290395,-0.178082,0.00484538,-0.298549,-0.00685462,-0.0109661,-0.0503808
0.0235092,-0.0784144,0.283876,-0.0880478,-0.00119812,-0.353797,0.028262,0.00476541,-0.0582189
0.0225879,-0.079627,0.276693,-0.0192141,-0.0443624,-0.347706,0.0607376,-0.0190417,-0.0633289
0.020569,-0.0796264,0.270392,0.0322831,-0.113205,-0.269939,0.0733086,-0.0611553,-0.0649791
0.0170701,-0.0785262,0.265823,0.078643,-0.185584,-0.179478,0.0686766,-0.0855865,-0.053062
0.0127412,-0.0767091,0.263062,0.108141,-0.218081,-0.0972916,0.0490489,-0.0838664,-0.0119938
0.00843235,-0.0744118,0.261637,0.113177,-0.185117,-0.0419524,0.019713,-0.0712912,0.0339404
0.00509179,-0.0721812,0.260908,0.104683,-0.143309,-0.0370591,-0.00462074,-0.0473229,0.0706711
0.0028438,-0.0706038,0.260198,0.0476705,-0.0712957,-0.0320587,-0.0196061,-0.0355871,0.0911325
0.00214552,-0.0700632,0.259728,0.015413,-0.00332078,-0.0167175,-0.0266611,-0.0315231,0.0883188
0.0027103,-0.0697526,0.259649,0.0015445,0.0408562,0.012093,-0.0228606,-0.0252014,0.0709441
0.00368889,-0.0701733,0.260272,-0.0569312,0.0385414,0.0422709,-0.0176111,-0.0133376,0.0443308
0.00444133,-0.0719853,0.261152,-0.133452,0.0288773,0.034113,-0.0184832,0.0112221,0.0249119
0.00475448,-0.0754921,0.26125,-0.215882,-0.000369203,-0.0275983,-0.0172531,0.047825,0.00611275
0.00423483,-0.0802189,0.259945,-0.260443,-0.0395838,-0.104337,-0.0224097,0.0554263,-0.0115865
0.00305796,-0.0860584,0.257256,-0.321005,-0.0400557,-0.160207,-0.0195261,0.0454413,-0.0190405
0.00200811,-0.0925853,0.254116,-0.320192,-0.0234494,-0.138359,0.00428711,0.0154572,-0.0264865
0.00194278,-0.0986577,0.252093,-0.274617,0.0412038,-0.0602629,0.012593,-0.0200369,-0.024228
0.00282951,-0.104064,0.251818,-0.259104,0.0432128,0.0280021,0.0298243,-0.0415901,-0.0364196
0.00346194,-0.109689,0.252758,-0.280207,0.00869562,0.0481898,0.0353315,-0.0427269,-0.0527076
0.00314917,-0.114745,0.253361,-0.207734,-0.0386464,0.0122555,0.0520778,-0.0388551,-0.0803418
0.00228607,-0.11803,0.253749,-0.126893,-0.0556646,0.0352238,0.0644565,-0.0617412,-0.0736562
0.00121809,-0.120114,0.255159,-0.0865236,-0.0646126,0.109002,0.0602531,-0.097792,-0.0495337
0.000176328,-0.121711,0.258205,-0.0764016,-0.0874312,0.183015,0.0467152,-0.107373,-0.0307283
-0.00177291,-0.122916,0.26208,-0.0551274,-0.166342,0.190416,0.0344896,-0.0829188,-0.0269096
-0.00524467,-0.123883,0.265685,-0.0591974,-0.219313,0.16309,0.00946165,-0.0530856,-0.00174159
-0.00926575,-0.124994,0.268526,-0.0704253,-0.227773,0.112839,-0.0192033,-0.0284158,0.0377187
-0.0128009,-0.126143,0.270286,-0.0653447,-0.145224,0.0584105,-0.0411494,-0.00799502,0.0743403
-0.0139986,-0.126849,0.271013,-0.0181494,0.00490124,0.0152212,-0.0649718,0.0067616,0.098573
-0.0126711,-0.127053,0.27084,-0.015964,0.127516,-0.0330546,-0.0748795,0.0197577,0.0932546
-0.00998412,-0.127276,0.269782,-0.00380766,0.157665,-0.0724621,-0.0649717,0.0317892,0.0646616
-0.00706063,-0.127053,0.267713,0.0154716,0.155205,-0.133559,-0.0668641,0.0392122,0.0421926
-0.00451376,-0.127044,0.264433,-0.026663,0.142437,-0.177521,-0.0539028,0.0329959,0.0226161
-0.00251576,-0.12807,0.260874,-0.0638406,0.11206,-0.164443,-0.0472027,0.0089224,0.00335807
-0.000658594,-0.129491,0.257763,-0.070618,0.127596,-0.144382,-0.0415375,-0.00116925,0.00534523
0.00179028,-0.131188,0.254738,-0.0982741,0.17137,-0.157062,-0.0352069,0.00987387,0.0114557
0.00497606,-0.133804,0.251372,-0.151261,0.206391,-0.167579,-0.0275603,0.0171837,0.00615549
0.00497606,-0.133804,0.251372,-0.151261,0.206391,-0.167579,-0.0275603,0.0171837,0.00615549
0.0084135,-0.137288,0.247994,-0.186574,0.195208,-0.163134,-0.0133544,0.0186298,-0.0173635
0.0110995,-0.141173,0.24452,-0.211463,0.152458,-0.175782,-0.00335946,0.021481,-0.0474544
0.0130133,-0.145864,0.240801,-0.249294,0.119938,-0.196433,0.00540524,0.0190971,-0.0475835
0.0145015,-0.151311,0.236717,-0.283808,0.0966335,-0.209349,0.0144427,0.00754488,-0.0434815
0.0156876,-0.156906,0.232346,-0.254291,0.0965501,-0.232101,0.0169001,0.00302368,-0.0491492
0.0174755,-0.161082,0.227362,-0.144123,0.159793,-0.267389,0.0148866,0.00105135,-0.0393721
0.0204929,-0.162824,0.221306,-0.023887,0.217113,-0.332598,0.0209782,0.0104866,-0.0330871
0.0239397,-0.163011,0.214355,0.0112472,0.208978,-0.334176,0.031632,-0.00611652,-0.036321
0.0260089,-0.162894,0.208108,0.0116168,0.0969744,-0.280077,0.0348699,-0.0457807,-0.0462255
0.0262677,-0.162837,0.202873,0.00584207,0.0289868,-0.240588,0.0263289,-0.0445801,-0.0157359
0.0260623,-0.162857,0.197945,0.00662956,0.032682,-0.247365,0.0120968,-0.0263343,0.0303021
0.0261007,-0.162946,0.19289,-0.00691853,0.0580568,-0.250399,-0.00232979,-0.016687,0.0509776
0.0268462,-0.1634,0.187715,-0.0254389,0.10589,-0.261735,-0.0159111,-0.0126498,0.0685234
0.0287967,-0.16422,0.182259,-0.0448555,0.16741,-0.278172,-0.0233547,-0.00560054,0.0704266
0.031676,-0.165171,0.176482,-0.029681,0.202272,-0.283175,-0.0245411,-0.00241874,0.0496466
0.0344482,-0.165628,0.171329,-0.00136239,0.167551,-0.206803,-0.00629061,-0.0210727,0.00989985
0.0371019,-0.165455,0.1686,0.025213,0.156282,-0.0560489,-0.00379569,-0.051954,-0.0069195
0.0397932,-0.164865,0.168756,0.024896,0.0916482,0.0548933,0.000811037,-0.042568,-0.0124941
0.0409539,-0.164824,0.170041,-0.0243573,0.0179793,0.0611379,0.00329831,-0.00882061,-0.0212921
0.0410017,-0.165251,0.171083,-0.01739,-0.0212367,0.0415008,0.018345,0.0156917,-0.0257433
0.0404889,-0.165088,0.172052,0.00934891,-0.0379285,0.054712,0.0221452,0.00211905,-0.0235597
0.0399582,-0.164705,0.173434,-0.0138298,-0.0333976,0.0872789,0.0267247,-0.0150352,-0.00772882
0.0394034,-0.165037,0.175721,-0.0457508,-0.0574309,0.134295,0.0345063,-0.0263495,-0.0105997
0.0388001,-0.166123,0.178786,-0.0603951,-0.0658218,0.152717,0.0293706,-0.0262761,-0.0151193
0.0382972,-0.167163,0.181768,-0.0526609,-0.0470246,0.129278,0.0227164,-0.00809045,-0.0155777
0.0382019,-0.167802,0.18435,-0.0364936,-0.02639,0.121491,0.0135218,-0.00518095,-0.013285
0.038636,-0.168402,0.186983,-0.053833,-0.00288355,0.130587,0.0039275,-0.0115405,-0.0107163
0.0392906,-0.169066,0.1897,-0.0461638,-0.00537306,0.120817,-0.0031522,-0.00555722,-0.0151252
0.0395719,-0.169585,0.191959,-0.0275506,-0.0235012,0.083574,-0.00778983,0.0104867,-0.0207472
0.0393902,-0.169768,0.193078,-0.000139787,-0.0328974,0.0231476,-0.0129197,0.0210791,-0.0145454
0.0381648,-0.169697,0.193213,-0.00976582,-0.0876332,-0.00427837,-0.00634218,0.00936995,-0.0085814
0.0362178,-0.170088,0.193142,-0.0357888,-0.103808,-0.00114998,-0.0135622,-0.0108673,0.0161583
0.0342077,-0.170707,0.193226,-0.0245139,-0.0825763,0.00413688,-0.0154392,-0.0187412,0.0360053
0.0329844,-0.171293,0.193503,-0.0152254,-0.0365048,0.0190088,-0.0191291,-0.0220953,0.051266
0.032702,-0.171401,0.19394,-0.00613355,0.000241938,0.0249072,-0.0283871,-0.0260466,0.052447
0.0331112,-0.171719,0.194402,-0.0250101,0.0337405,0.0145888,-0.0294292,-0.0167775,0.0463217
0.0338097,-0.172078,0.194453,-0.015316,0.0437689,-0.0030829,-0.0252321,-0.0121112,0.0226777
0.0345526,-0.17216,0.1943,0.00851715,0.0310128,-0.010691,-0.0211872,-0.0131996,0.00399232
0.0349606,-0.171897,0.194153,0.00981573,0.0164693,0.000527944,-0.0129692,-0.0133672,-0.0059253
0.0347364,-0.171621,0.194435,0.0170979,-0.0386202,0.0305283,-0.00260303,-0.0173067,-0.0161701
0.0337796,-0.171191,0.19518,0.019069,-0.0466541,0.0357213,-0.00820927,-0.0075755,-0.0120057
0.032909,-0.170608,0.195593,0.0294979,-0.0271737,0.00954306,-0.00360152,0.0117524,0.00248051
0.0326801,-0.169968,0.195634,0.0116128,0.0178479,0.00248483,-0.00702649,0.00864491,0.00738758
0.0330817,-0.169504,0.195741,0.0216496,0.0147366,0.01036,-0.00203835,0.00295316,-0.00298405
0.0330019,-0.168847,0.196018,0.0185474,-0.0147313,0.0203607,0.00296528,0.000258997,-0.0137962
0.0328086,-0.16904,0.196769,-0.0124262,-0.0381803,0.0489946,0.0138226,-0.00302899,-0.00883281
0.0313879,-0.169028,0.197765,0.016241,-0.113532,0.0482545,0.0107515,-0.00941065,-0.0302702
0.0313879,-0.169028,0.197765,0.016241,-0.113532,0.0482545,0.0107515,-0.00941065,-0.0302702
0.0293881,-0.169074,0.198743,-0.0235829,-0.0713238,0.0549022,0.00577939,-0.00954789,-0.00942039
0.028924,-0.16907,0.199908,0.0380922,-0.0345299,0.0547521,0.0067859,-0.00723949,-0.000449359
0.0283533,-0.167767,0.201191,0.059359,-0.047701,0.0779396,0.00682333,-0.0159805,-0.0197921
0.0278281,-0.166899,0.203152,0.0293188,-0.0605885,0.104856,0.0142949,-0.0097682,-0.0148112
0.0264974,-0.165905,0.205189,0.0516468,-0.0990934,0.100113,0.00861372,-0.00523317,-0.0246971
0.0250359,-0.16502,0.207168,0.0361008,-0.0834705,0.0961643,0.00587014,0.00532961,-0.0113916
0.0238251,-0.163829,0.209097,0.0719867,-0.0656687,0.101871,0.0074867,0.0084732,-0.00828356
0.0234056,-0.162139,0.21127,0.0851751,-0.0386107,0.105996,0.00128703,0.0189754,0.0053823
0.0228598,-0.1603,0.213263,0.083834,-0.0760458,0.0908516,-0.00191967,0.0262683,-0.00048995
0.0211142,-0.158709,0.214824,0.0710781,-0.128567,0.0561167,-0.00345229,0.0394811,-6.21676e-05
0.0186042,-0.157632,0.215501,0.0414117,-0.126024,0.0175269,-0.0118112,0.0367148,0.0269816
0.0164043,-0.15703,0.215551,0.0434317,-0.105871,-0.0137787,-0.0183837,0.0264605,0.0496665
0.0146803,-0.156576,0.215041,0.016528,-0.0545365,-0.0350768,-0.0222364,0.0120621,0.0499316
0.0142367,-0.156678,0.214572,0.00867407,0.00785677,-0.0101305,-0.0251702,-0.0168009,0.050441
0.0144197,-0.156636,0.214638,0.00917444,-0.00108251,0.00902369,-0.0145936,-0.0283866,0.0254968
0.0136956,-0.156823,0.214708,-0.0197769,-0.0577194,-0.000800002,-0.00923941,-0.0299444,0.0103715
0.0124774,-0.15769,0.214653,-0.0528727,-0.0451361,-0.00147147,-0.00406726,-0.040948,0.0264105
0.0122038,-0.158994,0.214825,-0.0762103,0.0213363,0.0255882,-0.00495424,-0.0584102,0.0370725
0.0133131,-0.160745,0.215764,-0.100843,0.0592909,0.0647968,0.00182782,-0.0612984,0.0234284
0.0147235,-0.162819,0.217443,-0.109902,0.0529673,0.0992558,0.00835997,-0.0561584,-0.00271249
0.0160093,-0.164553,0.219584,-0.0755997,0.0442445,0.102627,0.0146489,-0.0368737,-0.0167018
0.0175186,-0.165836,0.221663,-0.0805669,0.0717083,0.103315,0.0249284,-0.0159529,-0.0194859
0.019095,-0.166844,0.22397,-0.0652349,0.0295868,0.121126,0.0292823,-0.0122932,-0.0421727
0.0190834,-0.167666,0.226631,-0.058386,-0.067247,0.134581,0.0270075,-0.00996052,-0.0620847
0.0177128,-0.168826,0.229419,-0.0760752,-0.113322,0.130874,0.0224112,-0.00164318,-0.0426159
0.0154345,-0.170247,0.231896,-0.0828215,-0.162753,0.107572,0.00323711,-0.00249469,-0.0191521
0.0126578,-0.172065,0.233872,-0.108257,-0.15533,0.0828485,-0.0214885,-0.0124193,0.0144817
0.0104365,-0.174043,0.235358,-0.0929499,-0.0976929,0.05867,-0.0374088,-0.0217674,0.0364902
0.00955762,-0.175462,0.236142,-0.0547073,-0.00876509,0.0135681,-0.048046,-0.0225703,0.0455904
0.0101362,-0.176094,0.235949,-0.0168474,0.0511189,-0.0317125,-0.0471345,-0.0168605,0.0312225
0.0107587,-0.176213,0.234995,8.56305e-06,0.0190137,-0.0568222,-0.042498,-0.0274145,-0.00490701
0.0103103,-0.176014,0.233484,0.0149558,-0.0190499,-0.0845296,-0.0350379,-0.0314603,-0.0219115
0.00929037,-0.175517,0.231694,0.0340681,-0.0266706,-0.08203,-0.0168532,-0.0321458,-0.0177712
0.00795329,-0.174464,0.23028,0.0541895,-0.0520554,-0.0448749,-0.00961776,-0.0428738,-0.0148758
0.00649251,-0.173268,0.229671,0.0585612,-0.0579323,-0.0169643,-0.000413811,-0.0289541,-0.00263447
0.00522057,-0.171978,0.229208,0.0399367,-0.0293646,-0.0136999,0.00309621,-0.00723642,0.0147148
0.00454531,-0.17105,0.229042,0.0376088,-0.0254224,-0.00400807,0.00585123,0.00651076,0.0168449
0.00387377,-0.170023,0.228927,0.023156,-0.0266876,-0.000250412,0.00614608,0.0197448,0.0130851
0.00324364,-0.169468,0.228949,0.0125053,-0.0375654,-0.00383869,0.0125346,0.0354439,0.00660461
0.00263691,-0.16926,0.228642,0.00553585,-0.0240066,-0.0280642,0.00252772,0.0427597,0.00746542
0.00212423,-0.169174,0.227664,0.00954544,-0.0144566,-0.0675146,-0.000262856,0.0490849,0.00252193
0.00182298,-0.169091,0.225826,0.00772688,0.00805208,-0.116342,-0.0102504,0.0487852,0.000247657
0.00192175,-0.168954,0.223069,0.0335969,0.0470962,-0.150051,-0.0127739,0.0439463,-0.00522256
0.00263173,-0.16864,0.2198,0.0397046,0.0572087,-0.168332,-0.0112919,0.0308884,-0.00782657
0.00275823,-0.168161,0.216307,0.0458523,0.0115612,-0.17103,-0.000873016,0.0163614,-0.0247449
0.00213781,-0.167811,0.212928,0.035813,-0.00736655,-0.157765,0.00253088,0.00855863,-0.0176505
0.00131928,-0.167286,0.209907,0.0485351,-0.00781088,-0.129637,0.00632852,-0.000521511,-0.00474417
0.000824478,-0.166711,0.207719,0.0322114,0.00442075,-0.0807715,0.00545831,-0.0141299,0.0122739
0.000824478,-0.166711,0.207719,0.0322114,0.00442075,-0.0807715,0.00545831,-0.0141299,0.0122739
0.000494792,-0.1664,0.206585,0.0133241,-0.0136118,-0.028613,0.0103305,-0.0176988,0.0151791
5.00623e-05,-0.1662,0.206486,0.00695036,-0.0271299,0.0169945,0.00857184,-0.0183865,0.0184624
-0.00031262,-0.166135,0.207398,-0.000211779,-0.0181636,0.0686091,0.0091584,-0.0209318,0.0189003
-0.000199079,-0.165805,0.208911,0.0316986,-0.00796017,0.0679611,0.0097636,-0.00473766,0.021793
-5.22322e-06,-0.164856,0.210107,0.03945,-0.00157509,0.0489287,0.0107473,0.00752114,0.0145488
4.69572e-05,-0.164114,0.211223,0.0315254,-0.0226918,0.0623184,0.0122675,-0.00360301,0.003272
-0.000522158,-0.163332,0.212786,0.0337055,-0.0627544,0.0883468,0.00725959,-0.0176936,-0.00311625
-0.00164719,-0.162823,0.214681,0.016341,-0.0806349,0.0890354,0.00435671,-0.0106913,0.00746322
-0.00263591,-0.16265,0.21639,0.0111383,-0.0373822,0.080626,-0.000420134,-0.00896478,0.0220765
-0.00244872,-0.162327,0.217998,0.0244271,0.0152244,0.0735058,-0.0096837,-0.0129488,0.028309
-0.00163602,-0.16184,0.219385,0.00961489,0.0342652,0.062733,-0.0179776,-0.0160841,0.0178608
-0.000735579,-0.161948,0.220392,-0.0244906,0.036655,0.0382533,-0.0141666,-0.0139175,0.00899428
0.000379941,-0.162578,0.220988,-0.0376281,0.0656348,0.027157,-0.0141689,-0.0188112,0.00491023
0.00176669,-0.16322,0.221601,-0.0340032,0.0653691,0.0349169,-0.00925054,-0.028326,-0.00340468
0.00281335,-0.163978,0.222286,-0.0574796,0.0415595,0.031592,-0.00631566,-0.0221769,-0.0156613
0.00348827,-0.165051,0.222682,-0.0520183,0.0338965,0.0111079,-0.00473786,-0.0116841,-0.0179448
0.00405384,-0.165625,0.222675,-0.0211806,0.0327706,-0.00825599,-0.00451716,-0.00797792,-0.0188501
0.00442308,-0.165872,0.222371,-0.0320522,0.0172011,-0.0173392,-0.00234821,-0.00614652,-0.0128651
0.00452726,-0.166488,0.221969,-0.0505835,0.0130555,-0.0184102,0.000921698,-0.00293875,-0.00217944
0.00469081,-0.167178,0.221598,-0.0328296,0.0172471,-0.0117494,-0.0033284,-0.0029633,0.000360191
0.00490269,-0.167754,0.22138,-0.0360567,0.0182723,-0.0104999,-0.00980822,-0.00067772,-0.00101852
0.00517239,-0.168251,0.221055,-0.0190495,0.002311,-0.0155497,-0.00528244,0.00751463,-0.00206423
0.00481853,-0.168335,0.22073,0.000897753,-0.0416297,-0.0119943,-0.00183598,0.00312874,-0.011064
0.00363707,-0.168476,0.220616,-0.0192274,-0.0659544,-0.00250995,-0.00480628,-0.00299226,-0.00392646
0.00204986,-0.168828,0.220592,-0.0156025,-0.0895311,-0.00303979,-0.00852096,-0.00298828,0.00691372
0.000252801,-0.168963,0.220575,0.00330511,-0.101933,-0.00742289,-0.0069173,-0.00237301,0.0127831
-0.00157422,-0.168911,0.22051,0.00344605,-0.0913472,-0.000456481,-0.0117233,-0.0116298,0.0289801
-0.00305802,-0.16881,0.220504,0.00397827,-0.0539908,0.0013408,-0.0042639,-0.00947002,0.0386526
-0.00378763,-0.168471,0.220449,0.0317976,-0.0278023,-0.00792323,-0.000752097,-0.00417751,0.0384017
-0.00433429,-0.167962,0.220203,0.0103867,-0.0225381,-0.0106454,0.00151143,-0.00413363,0.0282308
-0.00489386,-0.168066,0.220083,-0.013482,-0.0220853,0.000924812,-0.00343012,-0.0158784,0.0189641
-0.00503756,-0.16824,0.220097,0.00412339,0.00453826,-0.00179357,-0.00344118,-0.0102662,0.015196
-0.00474628,-0.167862,0.219925,0.0293854,0.0254324,-0.0149427,-0.00316347,-0.00177607,0.0030688
-0.00451796,-0.167368,0.219426,0.0181382,0.00154715,-0.0312063,-0.00228957,-0.00257091,-0.0095889
-0.00488039,-0.167131,0.218725,0.00491653,-0.0213732,-0.0362871,-0.00342738,-0.00349699,-0.0126029
-0.00532479,-0.166933,0.218094,0.0107838,-0.00453529,-0.0208552,0.000169567,-0.00674991,-0.00347787
-0.00528978,-0.166717,0.217812,0.00716151,0.0100642,-0.00581392,-0.00453396,-0.00563647,0.000281334
-0.00504236,-0.166677,0.217701,-0.00890798,0.0236397,-0.00166968,-0.00299263,0.00140646,-0.00541759
-0.00442555,-0.166735,0.217742,0.00888965,0.0330293,0.00595863,-0.00367723,0.00643076,-0.0145491
-0.0039025,-0.166287,0.217895,0.0262434,0.0130572,0.00630253,-0.00384177,0.0111297,-0.030174
-0.00396456,-0.165793,0.217823,0.0146831,-0.00822446,-0.00992136,-0.00254429,0.0142263,-0.0296348
-0.00444576,-0.165529,0.217566,0.0169415,-0.0306256,-0.013389,-0.00176432,0.0124113,-0.021796
-0.00523022,-0.165243,0.217387,0.0125163,-0.0392428,-0.00371375,-0.00181432,0.00430109,-0.00303012
-0.00590374,-0.16511,0.217315,0.0049682,-0.0291743,-0.00218281,-0.0010583,0.00101449,0.0177858
-0.00628028,-0.165129,0.217275,0.00589763,-0.00660137,-0.00226903,-0.00358608,0.000369564,0.0260963
-0.0063451,-0.164988,0.217085,0.0142216,0.0040605,-0.0152896,-0.00176724,0.00311834,0.0256919
-0.00631098,-0.164756,0.216653,0.00849435,0.00377096,-0.0218232,0.000305061,0.00136335,0.0231209
-0.00641381,-0.164732,0.216282,-0.00453237,-0.00413964,-0.00898244,0.00058963,-0.0112475,0.0151591
-0.00641381,-0.164732,0.216282,-0.00453237,-0.00413964,-0.00898244,0.00058963,-0.0112475,0.0151591
-0.00640163,-0.164825,0.216292,0.00159676,0.00616594,0.0099717,-0.00331348,-0.0181444,0.0178906
-0.00602834,-0.164799,0.216602,0.0024763,0.0219761,0.0197127,-0.00426151,-0.0132365,0.0136703
-0.00565317,-0.164795,0.217038,0.00162475,0.00358459,0.0234128,-0.000343866,-0.0108978,0.00259531
-0.00590879,-0.164775,0.217559,-0.0043355,-0.0292497,0.0228438,-0.00148025,-0.0115343,-0.00152278
-0.00652203,-0.164904,0.217984,-0.0151757,-0.0318053,0.0181044,-0.00172995,-0.00812158,0.0117275
-0.00672735,-0.165098,0.218356,-0.00306825,-0.00183844,0.0184816,-0.000749437,-0.00577976,0.0226043
-0.00660965,-0.165043,0.218813,-0.00717948,0.00181514,0.0270969,-0.00431396,-0.0107146,0.019242
-0.00653033,-0.165356,0.219432,-0.0255226,0.000434289,0.0286549,-0.00507918,-0.00899404,0.0154374
-0.0062851,-0.165582,0.220017,0.00426359,0.00765758,0.0307875,-0.00321558,-0.00187731,0.00862682
-0.00614845,-0.165345,0.220632,0.00944392,-0.0104742,0.0315102,-0.00725637,-0.00443642,-0.00158727
-0.00628949,-0.165238,0.221254,0.00195402,-0.011568,0.0270989,-0.00940596,-0.00333874,-0.000212431
-0.00644092,-0.164987,0.221751,0.0186719,-0.00768618,0.0192529,-0.00844761,0.000631481,-0.00403273
-0.00646374,-0.164375,0.222211,0.0386991,-0.00344588,0.0261063,-0.00413674,0.000426412,-0.00535166
-0.00674515,-0.163589,0.222716,0.0383751,-0.0238901,0.0231273,-0.00445335,-0.00433679,-0.00939077
-0.00737433,-0.162944,0.223159,0.0210673,-0.0317409,0.0251835,-0.00132938,-0.00302899,-0.00610125
-0.00780504,-0.162574,0.223881,0.0240229,-0.0249995,0.049245,0.00587099,-0.00588374,-0.00520527
-0.00821055,-0.161957,0.225168,0.0371851,-0.0373137,0.0708263,0.0016638,-0.0107523,-0.0138826
-0.00872525,-0.161388,0.226532,0.0151319,-0.0321253,0.0594883,0.00244721,0.00506839,-0.00883609
-0.00908912,-0.161135,0.227642,0.0194666,-0.0312578,0.0551389,0.00274566,0.0106282,-0.00855452
-0.00974906,-0.160475,0.228746,0.0356609,-0.0524237,0.0521065,-0.00265968,0.00517619,-0.0156724
-0.0107258,-0.160047,0.229633,0.00111229,-0.0491645,0.0345231,-0.000840301,0.0110155,-3.48091e-05
-0.0113439,-0.159991,0.230254,0.00728459,-0.0272348,0.0273323,-0.00325126,0.00640111,0.0164316
-0.0116715,-0.159866,0.230747,0.00513034,-0.0116392,0.0176112,-0.00562844,0.00428142,0.0213
-0.0115515,-0.159911,0.231066,-0.00611204,0.0164445,0.0168661,-0.00345819,0.00013274,0.0254752
-0.0111535,-0.16,0.231347,0.0046561,0.0049621,0.0121572,-0.00630791,-0.00531085,0.0171648
-0.0113318,-0.160193,0.231464,-0.0183057,-0.0146821,0.00122491,-0.00544564,-0.00597517,0.0131035
-0.0117064,-0.160644,0.231382,-0.0153989,-0.0109609,-0.00726556,-0.0058091,-0.00658755,0.0193903
-0.0116173,-0.160738,0.231208,0.00209638,0.0328973,-0.00210319,-0.00563778,-0.00933592,0.0257543
-0.0108814,-0.160691,0.231466,0.00528228,0.0304068,0.0240817,-0.00328182,-0.0158661,0.0220622
-0.0105065,-0.160581,0.231979,6.53286e-05,0.00388211,0.0205386,-0.0077563,-0.0122628,0.00987673
-0.0105432,-0.160664,0.232194,-0.00284697,-0.00520678,0.00138772,-0.00488207,0.00180008,0.00896281
-0.0105674,-0.16059,0.232285,0.00859482,0.0090983,0.0101811,-0.00798609,-0.00462729,0.00694495
-0.010217,-0.160275,0.232693,0.0173494,0.0143935,0.0272765,-0.00627155,-0.00799344,0.00667846
-0.0100653,-0.159823,0.233244,0.0190305,-0.00118141,0.0204834,-0.00684781,-0.0025426,-0.00157934
-0.0100572,-0.159632,0.233458,0.00445258,0.00849104,0.000302464,-0.0043988,0.0095636,-0.00208282
-0.00983344,-0.159459,0.233457,0.0152598,0.0118973,0.00660548,-0.00156772,0.00549185,-0.00293827
-0.00984033,-0.159192,0.233792,0.00411796,-0.0116086,0.0221226,-4.9876e-05,-0.00271301,-0.0117613
-0.00994744,-0.159441,0.234266,-0.0245364,0.00694872,0.0232084,0.00451104,0.00320539,-0.00325698
-0.00957227,-0.159822,0.234506,-0.00280182,0.0298924,0.00411623,0.00133245,0.00887227,-0.0057705
-0.0089773,-0.159736,0.234517,0.00844093,0.0307679,0.00220018,0.00539915,0.00810301,-0.0145099
-0.00862458,-0.159516,0.234535,0.00402003,0.00505467,0.0016123,0.00840816,0.00223155,-0.0175084
-0.00875708,-0.159716,0.234552,-0.0209844,-0.0162952,-0.00232755,0.00380847,-0.00280277,-0.0135282
-0.00922292,-0.160246,0.234384,-0.0272614,-0.0140891,-0.00856659,0.00379457,-0.0041963,-0.00131828
-0.00905621,-0.160848,0.234365,-0.0192287,0.0246854,0.0083209,0.00135557,-0.0105881,0.0180268
-0.00799428,-0.161215,0.234669,-0.0217427,0.0689461,0.0224908,-0.0029127,-0.0117141,0.0253315
-0.0064838,-0.161665,0.235186,-0.0298649,0.0568134,0.0231846,-0.00644869,-0.00161381,0.0123001
-0.00537244,-0.162395,0.235581,-0.042004,0.0486167,0.0146427,-0.0125053,0.00544716,-0.000170887
-0.00537244,-0.162395,0.235581,-0.042004,0.0486167,0.0146427,-0.0125053,0.00544716,-0.000170887
-0.00459745,-0.162982,0.235465,-0.0215043,0.0359232,-0.0255874,-0.0131637,0.0123449,0.00108063
-0.00382874,-0.163529,0.234911,-0.0354009,0.0484125,-0.0204491,-0.00798688,0.00243652,0.0172303
-0.00317784,-0.164123,0.234624,-0.0274244,0.0309905,-0.00811447,-0.00579127,-0.0113023,0.0182954
-0.00257358,-0.164861,0.234482,-0.0396128,0.0393751,-0.008973,-0.00348854,-0.00385204,0.0300628
-0.00181583,-0.165718,0.234121,-0.0439186,0.0515232,-0.024556,-0.00338178,0.000231519,0.0368205
-0.000832892,-0.166719,0.23363,-0.0502668,0.058078,-0.0223341,-0.00578572,-0.00812556,0.0369461
0.000391644,-0.167691,0.233307,-0.0538179,0.0766742,-0.00514962,-0.00267497,-0.0157525,0.0284685
0.00205899,-0.168614,0.233408,-0.0340417,0.0840955,0.015304,-0.000503917,-0.0164491,0.0187294
0.00354763,-0.169084,0.233861,-0.0184193,0.0594129,0.0264723,-0.00296298,-0.0157827,-0.00398237
0.00459508,-0.169481,0.234274,-0.0242157,0.0427371,0.0113819,-0.0029881,-0.00465377,-0.00599134
0.00556348,-0.170084,0.2345,-0.0358321,0.0498899,0.0143007,-0.0125327,-0.00105232,-0.00242078
0.00667113,-0.170538,0.234766,-0.018796,0.0577087,0.00990389,-0.013929,-0.00143865,-0.0036335
0.00801297,-0.170923,0.234858,-0.0297097,0.0767434,-0.00201269,-0.0115277,0.00742845,-0.00720298
0.00956385,-0.171473,0.234696,-0.0272151,0.0857302,-0.0146783,-0.00853845,0.0124865,-0.0169536
0.0109466,-0.171824,0.234292,-0.0172108,0.0715315,-0.0229661,-0.0019504,0.0144604,-0.0241534
0.0121296,-0.172134,0.233706,-0.010244,0.0613821,-0.0401909,0.00666568,0.0180307,-0.0206951
0.013017,-0.17231,0.2326,-0.0102348,0.0550691,-0.0584352,0.0128414,0.0173079,-0.016006
0.0136247,-0.172708,0.231338,-0.0188773,0.0265033,-0.0601771,0.0207123,0.00672331,-0.0106348
0.0136839,-0.173176,0.230398,-0.0271432,0.0115808,-0.0308648,0.0198617,-0.00974442,-0.00153041
0.0141107,-0.173891,0.229991,-0.0295907,0.0419873,-0.0101315,0.0134768,-0.0131343,0.0185887
0.015262,-0.174594,0.229968,-0.036308,0.0727193,0.00630424,0.000381938,-0.0176262,0.019854
0.0169447,-0.175322,0.230175,-0.0270442,0.0606024,0.00759308,0.00272498,-0.0123308,0.00685275
0.0182281,-0.175692,0.230448,-0.02463,0.0469948,0.0199141,-0.00264192,-0.0112454,-0.00574625
0.0189673,-0.175999,0.230677,-0.0126647,0.0106177,-0.00384875,-0.0140192,-0.0033544,-0.00617981
0.0190647,-0.176379,0.230416,-0.0395755,0.0227857,-0.0189519,-0.023376,-0.00128652,0.0133442
0.0196899,-0.177035,0.230071,-0.0332065,0.0440342,-0.0178894,-0.0251945,-0.00597571,0.0258818
0.0207069,-0.177506,0.22966,-0.0255167,0.0654476,-0.0247046,-0.0342961,-0.00364706,0.024451
0.0216641,-0.177942,0.228854,-0.024755,0.0593659,-0.0584684,-0.0337868,0.00555219,0.0113382
0.0225636,-0.17838,0.2273,-0.0117301,0.0743736,-0.0953582,-0.0340903,0.00814208,0.0172377
0.0235805,-0.178439,0.22501,0.00662555,0.0781559,-0.117343,-0.0248214,0.00275823,0.016731
0.0244351,-0.178521,0.222684,-0.00689904,0.0588152,-0.108169,-0.0190548,-0.0139546,0.0115083
0.0251723,-0.178786,0.220597,-0.0146877,0.0749203,-0.092033,-0.00938755,-0.0179535,0.0138084
0.0264822,-0.179048,0.218948,-0.00161114,0.0949229,-0.0693213,0.000296108,-0.0160903,0.0121111
0.0278126,-0.179011,0.217488,0.00446832,0.0720456,-0.0689352,0.00336651,-0.00860704,-0.00136077
0.0286687,-0.179082,0.215914,-0.0106074,0.0584597,-0.0826877,0.0123362,0.00589521,-0.00319779
0.0296023,-0.179107,0.214364,0.00838911,0.0689103,-0.0659578,0.0135696,0.00553426,-0.00133699
0.0306797,-0.178764,0.213198,0.0120669,0.0589377,-0.0473246,0.0126911,0.00486492,-0.00916618
0.0316071,-0.178601,0.212352,0.0027831,0.0476084,-0.0379902,0.0192244,0.011831,-0.0113018
0.0324174,-0.1784,0.211573,0.021938,0.0374726,-0.0390182,0.0228055,0.0151265,-0.014084
0.0328619,-0.177821,0.210932,0.0369448,0.0059044,-0.0243971,0.0270188,0.0109199,-0.0149266
0.0327241,-0.177329,0.210691,0.0103806,-0.00418266,0.00715299,0.0256714,-0.00248083,-0.000507236
0.0328379,-0.177323,0.211288,0.00265175,-0.0059404,0.0537015,0.0265512,-0.0105628,0.0114377
0.0329875,-0.177091,0.21285,0.0131584,-0.0185183,0.09125,0.023351,-0.0172469,0.0079031
0.0327448,-0.176948,0.214851,-0.000892401,-0.0551978,0.103336,0.0242756,-0.00253338,0.00663924
0.0321415,-0.177018,0.217185,-0.0128142,-0.0610645,0.129696,0.0171943,-0.0112692,0.0177699
0.0315842,-0.177062,0.220129,-0.00233577,-0.0702746,0.146554,0.00805357,-0.00998513,0.0209686
0.0306754,-0.176828,0.223095,-0.00342981,-0.0885297,0.140339,0.00224783,-0.00200389,0.0209918
0.029814,-0.177056,0.226003,-0.0330164,-0.0595158,0.142447,-0.00918669,-0.00567614,0.0310635
0.029814,-0.177056,0.226003,-0.0330164,-0.0595158,0.142447,-0.00918669,-0.00567614,0.0310635
0.0295289,-0.177568,0.229059,-0.021924,-0.0388221,0.149085,-0.0153427,-0.0114143,0.0239777
0.0291357,-0.177919,0.231925,-0.0242409,-0.058532,0.133182,-0.0104222,-0.00179562,0.00555545
0.0282277,-0.178443,0.234434,-0.0343419,-0.0691792,0.114886,-0.00499443,0.00263214,-0.00124097
0.0273027,-0.178969,0.236741,-0.023722,-0.0593333,0.111536,-0.00670639,-0.00137913,0.00455034
0.0265331,-0.179322,0.239004,-0.0237763,-0.0515549,0.11072,0.000582991,-0.000978976,0.00780374
0.026246,-0.179966,0.241301,-0.0456768,-0.0196574,0.11748,0.00124989,-0.0035958,0.00891697
0.0263024,-0.180711,0.243826,-0.0367034,-0.0278193,0.126464,0.00403607,-0.00658737,-0.00778925
0.0260051,-0.181299,0.246287,-0.0333603,-0.0426082,0.10663,0.0001656,-0.00180973,-0.016951
0.0256965,-0.181909,0.24813,-0.0287125,-0.0229901,0.0739445,-0.00111504,0.00352599,-0.00882888
0.0255774,-0.182174,0.249477,-0.00606699,-0.0196191,0.0627457,-0.000767916,-0.0070038,-0.0127038
0.0255003,-0.18217,0.25085,-0.00145002,-0.0154651,0.0686064,-0.00507134,-0.0214345,-0.012457
0.0250981,-0.181964,0.252036,0.00768338,-0.0422507,0.04499,-0.00519564,-0.0182574,-0.0105635
0.0243046,-0.181854,0.252649,0.0059302,-0.0443507,0.0111262,-0.0080323,-0.0107792,0.00301021
0.0236012,-0.181649,0.252735,0.0102253,-0.0224407,0.00642515,-0.0113547,-0.0145594,0.0180481
0.0235726,-0.18131,0.252923,0.00931423,0.0189037,0.0105209,-0.0195982,-0.0196735,0.0322396
0.0240251,-0.181033,0.25299,0.00321805,0.0281044,-0.00119855,-0.0159093,-0.00801839,0.0335605
0.0242121,-0.180904,0.252851,0.00336586,-0.00228083,-0.0106729,-0.0133013,-0.00487041,0.0173744
0.0239868,-0.180916,0.252528,-0.00715002,-0.00545405,-0.0205547,-0.0159637,-0.00210445,0.0202616
0.0238168,-0.180961,0.251872,0.0039404,0.0105831,-0.0408305,-0.0142857,0.0044577,0.0265593
0.0238579,-0.180958,0.250906,-0.00109067,0.0174407,-0.0471521,-0.0125866,0.00064601,0.0215693
0.023955,-0.180978,0.249971,-0.000290653,0.0148951,-0.0346718,-0.00734145,-0.00538489,0.0118437
0.0240499,-0.1809,0.249468,0.011484,0.00722604,-0.0146999,-0.00287273,-0.00794828,0.00103694
0.0237723,-0.180626,0.249138,0.00959007,-0.021869,-0.0199384,-0.0013344,-0.000705704,-0.00116563
0.0232393,-0.1807,0.248573,-0.010611,-0.00933249,-0.0335842,0.00247072,0.0079802,0.00685954
0.0230939,-0.180813,0.248017,0.00380372,0.00895239,-0.0185579,0.00255317,0.0050617,0.00551504
0.0231737,-0.180562,0.247962,0.0140739,-0.00183539,0.00712202,0.00424361,0.000241995,-0.00397855
0.0228218,-0.180489,0.24799,-0.0147066,-0.0257502,-0.00525779,0.00748862,0.0063259,-0.00801629
0.0223432,-0.181097,0.247798,-0.0316559,-0.0133332,-0.00887069,0.00483374,0.00362264,-0.00291157
0.0223042,-0.181546,0.247805,-0.00409692,0.00145382,0.0102803,0.0066439,-0.00393011,-0.00640976
0.0223606,-0.181521,0.248041,-0.000359381,-0.00277644,0.00859705,0.00764116,-0.00144845,-0.0104195
0.022464,-0.181758,0.248132,-0.02186,0.00813486,0.00328171,0.0122554,0.00231634,-0.00703132
0.0225303,-0.182086,0.248366,-0.00515444,-0.0102381,0.0169841,0.00852945,-0.00568189,-0.0178954
0.0222601,-0.181999,0.248829,0.0062444,-0.0284326,0.0316914,0.0118313,-0.00678642,-0.0216121
0.0217568,-0.181776,0.249662,0.0125242,-0.0463086,0.0461672,0.010128,-0.00821532,-0.0173953
0.0207256,-0.181493,0.250558,0.00944776,-0.0841264,0.0340502,0.0010091,-0.00108494,-0.00799936
0.0191147,-0.181376,0.250971,-0.00408252,-0.0847755,0.00484005,-0.00459407,0.00865775,0.0160705
0.0179821,-0.181463,0.251001,-0.010729,-0.0292763,0.000717576,-0.0107279,0.00382708,0.0431446
0.018032,-0.181458,0.251182,0.000860125,0.0238925,0.0132398,-0.0117993,-0.00686462,0.0500874
0.0188386,-0.181485,0.251629,-0.00638948,0.0374773,0.0223912,-0.010914,-0.00826435,0.0360756
0.0194407,-0.181679,0.252128,-0.0110913,0.00611426,0.0273744,-0.00238067,-0.00328234,0.0132326
0.0192617,-0.181843,0.252687,0.00350169,-0.0292344,0.0245037,-0.000128832,-0.00258949,-0.00218976
0.018562,-0.18171,0.253076,0.00620566,-0.0412632,0.0129842,-0.0016233,-0.00435075,0.00477475
0.018036,-0.181735,0.253344,-0.00678403,-0.0173813,0.0189285,0.00228149,-0.00873935,0.0173377
0.0177081,-0.181709,0.254002,0.00707467,-0.0303449,0.046457,0.0039009,-0.0179604,0.0061177
0.0171809,-0.181592,0.255108,-0.00217841,-0.0375777,0.0652044,0.0065399,-0.0138632,0.00247043
0.0167085,-0.181646,0.256413,-0.00286561,-0.0339166,0.0612805,0.00682151,-0.00343332,0.00713784
0.0163109,-0.181532,0.257595,0.00328272,-0.026337,0.0561952,0.00565582,0.00394185,0.00389946
0.0159451,-0.18136,0.258668,0.00219563,-0.0340233,0.0464659,0.0041993,0.00607938,0.000441968
0.0159451,-0.18136,0.258668,0.00219563,-0.0340233,0.0464659,0.0041993,0.00607938,0.000441968
0.0154391,-0.181342,0.259537,-0.00894861,-0.0387985,0.0409795,0.00370508,0.00481534,0.000590384
0.0149035,-0.181675,0.260508,-0.0259421,-0.0300823,0.0560575,0.00157768,-0.00393499,-0.00158268
0.0147272,-0.182294,0.261846,-0.0335584,-0.0115142,0.070004,-0.0048849,-0.00806786,-0.00268382
0.014899,-0.182942,0.263156,-0.0259779,-0.00491971,0.0496705,-0.00740194,0.00191495,-0.00745797
0.0149094,-0.183498,0.263917,-0.0314969,-0.013218,0.0260657,-0.00266517,0.00947067,-0.013846
0.0146513,-0.184075,0.264448,-0.0292549,-0.026712,0.0268479,-0.00346271,0.000724137,-0.0202039
0.014143,-0.184493,0.264883,-0.0152001,-0.0329687,0.0150875,-0.00103938,0.00368612,-0.0193424
0.0131858,-0.184664,0.264945,-0.0122771,-0.0527198,-0.00728264,-0.00139512,0.00499791,-0.0225195
0.0117907,-0.18497,0.264495,-0.0166133,-0.0751792,-0.0358327,-0.00420404,0.00497119,-0.00656754
0.0101871,-0.185324,0.263495,-0.0177166,-0.0539236,-0.0587019,-0.00636568,0.00244199,0.0212931
0.00965784,-0.185601,0.262289,-0.00972115,0.0214289,-0.0589221,-0.00560084,-0.00350647,0.0509866
0.0104403,-0.18578,0.261154,-0.00753219,0.0706531,-0.0530232,-0.0100315,-0.0127771,0.0460629
0.0117734,-0.185931,0.260163,-0.00288594,0.0711015,-0.0479549,-0.00687051,-0.00792092,0.024124
0.0125909,-0.185952,0.259109,0.00365358,0.0212155,-0.0529734,-0.00260787,-0.00118181,-0.0031876
0.0122979,-0.186013,0.258058,-0.00758408,-0.0247274,-0.0456678,-0.000214129,-0.00468968,-0.00472105
0.0115757,-0.186246,0.257356,-0.00947622,-0.0328122,-0.0225576,0.0015794,-0.0067192,0.0109761
0.0111925,-0.186392,0.257079,-0.00500164,0.000423016,-0.00591277,-0.00526109,-0.00730535,0.0248846
0.0112917,-0.186403,0.256991,-0.00270746,0.0039065,-0.00762109,-0.00731171,0.00180818,0.0199833
0.0110682,-0.186586,0.256899,-0.0162379,-0.0300612,-0.00230119,-0.00506228,-0.000568628,0.00476938
0.0103491,-0.186923,0.257036,-0.0151798,-0.0422724,0.0096311,-0.00568252,-0.00514166,0.00343263
0.00950777,-0.187012,0.257112,0.00465798,-0.0389208,0.00385675,-0.00302471,0.00181995,0.00873429
0.00880231,-0.186891,0.257194,0.00378735,-0.0326956,0.0113141,-0.00242333,-0.00556841,0.0127762
0.00813613,-0.186926,0.257629,-0.00515935,-0.0385335,0.0295396,0.000443792,-0.0112328,0.0101356
0.00774875,-0.186966,0.258461,0.000689902,-0.0191353,0.0506004,0.00860646,-0.00564131,0.0102838
0.00751878,-0.186796,0.259688,0.0130745,-0.0369719,0.0678472,0.0143253,-0.000927702,-0.00106603
0.00666971,-0.186725,0.261228,-0.0144911,-0.0727789,0.0840183,0.0210799,0.00306344,-0.00846273
0.00530423,-0.187093,0.263139,-0.025334,-0.0899431,0.102891,0.0265877,0.00108506,-0.00774479
0.00398193,-0.18761,0.265429,-0.0279375,-0.0886884,0.111818,0.0209293,0.00365885,-0.000938177
0.00262839,-0.188222,0.267615,-0.0413299,-0.0841679,0.100656,0.0201384,0.00568251,0.0104724
0.00215879,-0.1894,0.269834,-0.0733107,-0.0231773,0.121378,0.0150002,-0.0015786,0.028929
0.00279812,-0.190847,0.272527,-0.0730493,0.0085155,0.129785,0.0069115,-0.00762251,0.0169964
0.0038027,-0.192344,0.275001,-0.0823512,0.0260327,0.10473,0.00078404,0.00265746,0.009094
0.00497366,-0.194111,0.276854,-0.087825,0.0416485,0.0760967,-0.00387315,0.00769819,0.00163901
0.0062125,-0.195673,0.27829,-0.0708004,0.048832,0.0651843,-0.0126857,0.00160329,-0.00817651
0.00786343,-0.197054,0.279496,-0.0690082,0.08727,0.048672,-0.0188501,0.00409371,-0.00342202
0.00995073,-0.19812,0.280231,-0.0346054,0.101886,0.0294881,-0.0261591,0.00466569,-0.0124081
0.011291,-0.198696,0.280639,-0.0305936,0.00877934,0.010041,-0.0327361,-0.000384793,-0.0393299
0.010697,-0.199329,0.280682,-0.0328448,-0.0593125,0.00016544,-0.0244162,0.00225954,-0.0311632
0.00885843,-0.200092,0.280718,-0.045137,-0.104197,-0.000946414,-0.0352929,-0.00749032,-0.00434983
0.00658119,-0.201316,0.280591,-0.0680136,-0.0881987,-0.00799611,-0.0332732,-0.00417283,0.0242473
0.00532363,-0.202553,0.280439,-0.0502561,-0.0170865,-0.00347944,-0.0340539,-0.0104056,0.0425305
0.00534842,-0.203082,0.28043,-0.0122899,0.02141,0.00245961,-0.0435686,-0.0131508,0.0379837
0.00596836,-0.203353,0.280128,-0.0184128,0.0485484,-0.0371476,-0.035188,0.00567251,0.0345076
0.00663666,-0.20378,0.278679,-0.0207723,0.0570123,-0.10276,-0.0294638,0.0252432,0.024972
0.0074346,-0.204099,0.275891,-0.00949551,0.0933108,-0.169757,-0.022005,0.0320867,0.0215601
0.00890862,-0.204195,0.271729,-0.00390742,0.139499,-0.2263,-0.00957792,0.0298867,0.0209336
0.0105225,-0.20419,0.266773,0.0112776,0.124657,-0.255731,0.00899866,0.0225525,0.000579417
0.0105225,-0.20419,0.266773,0.0112776,0.124657,-0.255731,0.00899866,0.0225525,0.000579417
0.0118374,-0.204137,0.261247,0.00346985,0.128165,-0.277861,0.022512,0.0212308,-0.000263512
0.0131359,-0.204227,0.2553,0.0077091,0.132454,-0.295532,0.0325934,0.0216919,0.00421894
0.0145275,-0.204232,0.249194,0.00591246,0.138067,-0.295277,0.0334739,0.0174762,0.00537413
0.0163793,-0.204474,0.243359,-0.0113994,0.163454,-0.271553,0.0310971,0.00935021,0.0179007
0.018629,-0.204902,0.238005,-0.0202739,0.168293,-0.247603,0.0219534,0.000981674,0.016051
0.0209619,-0.205569,0.233277,-0.034211,0.156285,-0.217198,0.01569,-0.00311977,0.0142372
0.0232021,-0.206537,0.229083,-0.050799,0.153853,-0.195346,0.00314147,-0.0136959,0.00974882
0.0255574,-0.207535,0.225708,-0.0365171,0.145679,-0.130735,-0.00773333,-0.026056,0.00140029
0.0279301,-0.208259,0.223639,-0.0358331,0.131606,-0.0785136,-0.0145667,-0.0193945,-0.00189346
0.0296739,-0.209021,0.222222,-0.0349119,0.0622389,-0.0690281,-0.0161148,0.00284038,-0.00652528
0.0296248,-0.209691,0.220717,-0.0300938,-0.038182,-0.0846141,-0.0126295,0.0171845,-0.00945538
0.0276428,-0.209907,0.218691,0.00126394,-0.0999179,-0.115236,-0.0108125,0.0199481,0.016968
0.0245646,-0.209291,0.21593,0.0537314,-0.144487,-0.15022,-0.00112276,0.0119912,0.0557338
0.0205509,-0.207816,0.212531,0.0983094,-0.178532,-0.174244,-0.000347149,-0.0163817,0.0902311
0.0160212,-0.205454,0.208803,0.147426,-0.191711,-0.185505,0.00358821,-0.040926,0.124717
0.0113783,-0.201841,0.204713,0.218906,-0.188534,-0.208171,0.000907397,-0.0579868,0.15679
0.00631824,-0.19689,0.200125,0.273604,-0.203457,-0.247636,0.000609284,-0.0617701,0.170541
0.00153193,-0.191096,0.194375,0.3056,-0.16044,-0.306493,-0.00391494,-0.0614256,0.220428
-0.00196477,-0.184649,0.187843,0.334447,-0.0844801,-0.327726,0.00129049,-0.0651776,0.24075
-0.00396897,-0.177704,0.181264,0.349322,0.0161543,-0.305028,-0.0119322,-0.0733922,0.241141
-0.00429854,-0.170866,0.175244,0.319537,0.0620898,-0.284165,-0.0036071,-0.0583109,0.233003
-0.0040102,-0.16478,0.169647,0.279826,0.0495648,-0.263598,0.00181963,-0.0452148,0.209957
-0.00384891,-0.159702,0.164749,0.216077,0.0423064,-0.216533,0.00167894,-0.0364654,0.187493
-0.00334976,-0.155954,0.161108,0.165309,0.0606986,-0.143746,0.00442298,-0.0256839,0.167622
-0.00263296,-0.152861,0.158655,0.132214,0.0420345,-0.099506,-0.00691924,-0.0144339,0.153802
-0.00217006,-0.151244,0.156934,0.01818,0.0395025,-0.0713111,-0.0108857,0.00564329,0.142116
-0.00107167,-0.152192,0.155859,-0.105969,0.085346,-0.0279971,-0.0144284,0.0190647,0.133323
0.00103914,-0.155189,0.155837,-0.190211,0.132452,0.0288706,-0.0128827,0.0309492,0.102865
0.0046809,-0.159679,0.157135,-0.257584,0.212428,0.0942569,-0.00160011,0.0509142,0.0778285
0.00965796,-0.165485,0.159627,-0.321389,0.221995,0.132906,0.0141863,0.0826597,0.0329387
0.0136079,-0.172091,0.162073,-0.329575,0.122743,0.0906114,0.0220092,0.109306,-0.0326998
0.0146892,-0.178819,0.163169,-0.346951,-0.019433,0.00986925,0.032451,0.114094,-0.0720515
0.0136511,-0.185969,0.16315,-0.350338,-0.077498,-0.00605707,0.0377321,0.072349,-0.0722962
0.0120822,-0.192398,0.163379,-0.280105,-0.0775988,0.0236335,0.03761,0.0136206,-0.0694112
0.0108682,-0.197083,0.164181,-0.191716,-0.0501699,0.0453507,0.0434958,-0.0215234,-0.0631629
0.0105443,-0.20013,0.165475,-0.107073,-0.0236377,0.0795849,0.0513882,-0.0498102,-0.056055
0.0100096,-0.20135,0.167443,-0.0243855,-0.0743797,0.1133,0.0544018,-0.0850933,-0.0706514
0.00841544,-0.20145,0.170277,0.0122004,-0.137074,0.167154,0.0549262,-0.106981,-0.0553525
0.00626081,-0.200581,0.174255,0.0676191,-0.142303,0.21781,0.0447528,-0.113592,-0.0127441
0.00461204,-0.198794,0.179198,0.0974825,-0.131858,0.259182,0.0286667,-0.10038,0.027811
0.00314,-0.196675,0.184813,0.0938513,-0.139396,0.280689,0.0100431,-0.0761622,0.0426981
0.00141238,-0.194742,0.190503,0.0906739,-0.136265,0.268328,-0.00329304,-0.0456095,0.0508294
-0.000152219,-0.192695,0.195898,0.103899,-0.124293,0.257386,-0.0159181,-0.0233375,0.0653082
-0.00122477,-0.190527,0.201124,0.0975428,-0.0883942,0.250542,-0.0212126,-0.00486654,0.0746469
-0.00193804,-0.188736,0.206192,0.0786161,-0.0769319,0.242103,-0.0360145,0.00494885,0.0708176
-0.00241949,-0.187609,0.210992,0.0301737,-0.0708439,0.222649,-0.0386233,0.0234198,0.0717751
-0.00297022,-0.187429,0.215267,-0.0111991,-0.0686444,0.195849,-0.0426446,0.0347667,0.0606836
-0.00337623,-0.188078,0.219214,-0.0531015,-0.0442375,0.190265,-0.0439398,0.0398658,0.0541371
-0.00337623,-0.188078,0.219214,-0.0531015,-0.0442375,0.190265,-0.0439398,0.0398658,0.0541371
-0.00350351,-0.189546,0.222893,-0.0860067,-0.0378338,0.1678,-0.0400773,0.0508451,0.0428139
-0.00369404,-0.191595,0.226061,-0.114454,-0.0333616,0.140836,-0.0290884,0.0527701,0.0356044
-0.00364236,-0.194262,0.228904,-0.149206,-0.0129087,0.146814,-0.0124326,0.0411799,0.0333842
-0.0030952,-0.197564,0.232322,-0.169043,0.00181337,0.184917,-0.00314483,0.0210649,0.0208567
-0.0023225,-0.201191,0.236231,-0.18518,0.0131816,0.193632,0.0106375,0.0209739,0.00681955
-0.00165223,-0.205203,0.239925,-0.202711,-0.0174462,0.166865,0.0186464,0.0189056,-0.0110024
-0.00206536,-0.209669,0.243263,-0.214767,-0.0782437,0.159515,0.0276396,0.000528082,-0.0358029
-0.00304733,-0.213888,0.246539,-0.186635,-0.0702204,0.159713,0.0276971,-0.0223504,-0.0372874
-0.0031956,-0.217152,0.249839,-0.134846,-0.0034119,0.159232,0.0189439,-0.0394241,-0.0277777
-0.00191249,-0.219478,0.253022,-0.092239,0.0480573,0.152619,0.00932815,-0.0521773,-0.0303839
-0.000143886,-0.220793,0.256057,-0.0439373,0.0321111,0.140644,0.00728151,-0.0553678,-0.0516958
0.000737783,-0.221214,0.258797,-0.0118115,-0.0107656,0.121249,0.000180462,-0.0516135,-0.0676576
0.000866754,-0.220982,0.260909,0.0312663,-0.0229182,0.0797663,-0.012717,-0.0400036,-0.0550641
0.000678008,-0.219871,0.262024,0.0594902,-0.0205151,0.0304492,-0.0253046,-0.0263312,-0.0308953
0.000345739,-0.218591,0.262368,0.0557458,-0.0188219,0.00715436,-0.0290393,-0.0186576,-0.00579059
-9.68803e-05,-0.217437,0.262418,0.0398848,-0.0246545,-0.000260986,-0.0355957,-0.0144487,0.0185527
-0.000365264,-0.216691,0.262198,0.0256232,0.0101898,-0.0211594,-0.0316867,0.00758104,0.0372527
5.59932e-08,-0.216089,0.261513,0.026871,0.0421432,-0.0472267,-0.0311432,0.0229848,0.0449655
0.000418637,-0.215682,0.260238,-0.000829045,0.0316,-0.0723333,-0.0277985,0.0331936,0.0346614
0.000568639,-0.215983,0.258639,-0.0235775,0.0253683,-0.0769663,-0.0200714,0.033907,0.0254416
0.000579525,-0.216452,0.25706,-0.0225693,0.0305142,-0.0739219,-0.0204329,0.0290854,0.0191155
0.000803507,-0.217175,0.255507,-0.0358949,0.041565,-0.0774653,-0.0147007,0.0313084,0.0166861
0.00120921,-0.2179,0.2538,-0.0213679,0.0366446,-0.0842943,-0.00874898,0.0288616,0.00806075
0.0012624,-0.21848,0.252016,-0.0274806,0.0162658,-0.0859008,-0.00449777,0.0214742,-0.00114393
0.000776446,-0.219382,0.250285,-0.0388136,-0.0194685,-0.0834537,-0.00226846,0.00974488,-0.00339925
-0.000231157,-0.220324,0.248516,-0.0237542,-0.0230503,-0.0872937,-0.0022311,0.000998229,-0.00139183
-0.000905854,-0.220844,0.2466,-0.00330391,0.00732242,-0.0954488,0.00172308,-0.00204234,0.00861055
-0.000684663,-0.220922,0.244718,0.00975112,0.0582721,-0.0782747,0.00233123,-0.0158056,0.0100738
0.000315984,-0.220603,0.243396,0.0335202,0.0634157,-0.0495886,0.0150573,-0.0242534,-0.000201762
0.00149464,-0.219817,0.242642,0.0396099,0.0633223,-0.0284987,0.0208802,-0.0186341,-0.00486821
0.00205747,-0.219305,0.241926,0.012743,0.0143278,-0.0400531,0.0193694,-0.00533222,-0.0163391
0.0018067,-0.219055,0.241138,0.0131851,-0.0206147,-0.0325015,0.0239018,0.000512272,-0.0146972
0.00133479,-0.218382,0.240595,0.0331356,-0.0153044,-0.0256976,0.0166412,0.000665888,-0.000313997
0.00140778,-0.217576,0.240174,0.033518,0.0194491,-0.0230777,0.0164324,0.00699149,0.0224737
0.00215796,-0.216833,0.239627,0.0331301,0.0535122,-0.0302157,0.00832958,0.0116989,0.0287054
0.00338261,-0.216257,0.239164,0.0237211,0.0548017,-0.0170654,0.006355,0.0109344,0.0214406
0.00439565,-0.215936,0.239043,0.00838659,0.0272399,-0.00453152,0.0020541,0.00554129,0.00862724
0.00486663,-0.216106,0.239026,-0.0151766,0.00692447,-0.00264836,0.00124329,0.00920555,0.00498772
0.0049933,-0.216639,0.238942,-0.0192347,-0.00431133,-0.00822692,-0.00463243,0.00677712,0.00592542
0.00495397,-0.217191,0.238743,-0.0234344,0.0063263,-0.0088355,-0.0054174,0.00387283,0.0103844
0.00522637,-0.217684,0.238677,-0.0165965,0.0189953,3.80294e-06,-0.00749864,-0.00170474,0.0137252
0.00557197,-0.217929,0.238633,-0.00691347,0.0163629,-0.00905144,-0.00699656,-0.000738651,0.0116868
0.00577379,-0.218183,0.238228,-0.0101975,0.0169642,-0.0305545,-0.00495024,0.00874819,0.0110661
0.0058434,-0.218372,0.237583,-0.00279812,0.00782324,-0.0259223,0.00140599,-0.00301759,0.00701171
0.00600329,-0.218369,0.237276,0.00248803,0.0158142,-0.0045343,0.000410673,-0.0149316,0.0122605
0.00622494,-0.218367,0.237282,-0.00419948,0.0169275,0.00165074,0.00368855,-0.00974156,0.0107338
0.0065582,-0.218473,0.237276,0.00670626,0.0155651,-0.00104993,0.00566743,-0.00329897,0.0131654
0.00620812,-0.218066,0.237079,0.0371286,-0.059897,-0.0210089,0.011456,0.00747392,0.0159869
0.00620812,-0.218066,0.237079,0.0371286,-0.059897,-0.0210089,0.011456,0.00747392,0.0159869
0.00350228,-0.217074,0.236093,0.0493175,-0.178936,-0.0777973,0.0149057,0.0187572,0.0478758
-0.000889609,-0.216169,0.233866,0.0427137,-0.194905,-0.136863,0.00463782,0.0145759,0.108104
-0.00470816,-0.214799,0.230656,0.10458,-0.117154,-0.175436,-0.00705777,-0.0071726,0.160038
-0.00764812,-0.211966,0.226717,0.162475,-0.0987218,-0.207755,-0.0113982,-0.0291689,0.17449
-0.0101002,-0.208712,0.222005,0.161549,-0.0519879,-0.24579,-0.00884166,-0.0468453,0.193504
-0.0119725,-0.20513,0.216884,0.189882,-0.0248986,-0.250366,-0.00204221,-0.06928,0.196463
-0.0133034,-0.201093,0.211869,0.197824,-0.00956562,-0.240156,-0.00295624,-0.0877407,0.197093
-0.0138769,-0.197478,0.207427,0.157523,0.0521217,-0.188454,-0.00879319,-0.105499,0.203569
-0.0135038,-0.194686,0.204018,0.11986,0.0682784,-0.15243,-0.0188409,-0.109428,0.196519
-0.0122387,-0.193018,0.201313,0.0297584,0.124166,-0.113614,-0.0229773,-0.0958898,0.208529
-0.00869916,-0.194059,0.199626,-0.135743,0.270034,-0.0333292,-0.0123535,-0.0817589,0.201957
-0.00053905,-0.19806,0.200927,-0.245892,0.522121,0.17803,0.00478571,-0.0730031,0.155331
0.0121724,-0.203343,0.206455,-0.281163,0.582291,0.330292,0.0317341,-0.00577728,0.0682985
0.0237159,-0.209544,0.213275,-0.364645,0.412805,0.295951,0.0302108,0.0955749,-0.044015
0.0311,-0.218365,0.2183,-0.519838,0.225473,0.165723,0.0324944,0.182063,-0.129093
0.0352705,-0.228981,0.221221,-0.506146,0.104482,0.096043,0.0257463,0.186253,-0.188618
0.0364744,-0.237693,0.223137,-0.373812,-0.0129854,0.0583297,0.030065,0.153181,-0.235717
0.0365054,-0.244408,0.22425,-0.29996,0.00163075,0.0251937,0.0263855,0.114097,-0.198075
0.0366945,-0.24908,0.224556,-0.156381,-0.00443355,-0.0106767,0.0205372,0.0619597,-0.18201
0.035719,-0.251039,0.224372,-0.054736,-0.0901218,-0.00317228,0.0208584,-0.00669567,-0.191921
0.032978,-0.251589,0.224724,0.00854774,-0.186806,0.0342497,0.0124233,-0.0711473,-0.175685
0.0285468,-0.250324,0.225749,0.109163,-0.273235,0.0651249,0.00445121,-0.108115,-0.12043
0.0229068,-0.248184,0.227231,0.0809404,-0.317597,0.0811474,-0.00656278,-0.111138,-0.0235395
0.0172087,-0.247034,0.228996,0.0422669,-0.274693,0.0910114,-0.0220413,-0.103553,0.0632485
0.0135146,-0.245816,0.230868,0.0840603,-0.13165,0.091324,-0.0320136,-0.0835276,0.120592
0.0129035,-0.243743,0.232609,0.115027,0.0254574,0.0759788,-0.0262699,-0.0544778,0.13601
0.014703,-0.241285,0.234042,0.12119,0.0916138,0.0652034,-0.0116673,-0.0318884,0.122325
0.0164174,-0.238976,0.235228,0.0956616,0.0422434,0.0532601,-0.0046586,-0.00958024,0.0789635
0.0168435,-0.237531,0.236227,0.0473182,-0.0119567,0.0408582,-0.00434584,0.0130637,0.0589728
0.016795,-0.237054,0.236916,0.00397049,0.0141341,0.0239861,-0.0151344,0.0367056,0.0666541
0.0182683,-0.237076,0.237178,-0.000572881,0.128269,0.00307222,-0.0197704,0.0558643,0.0764199
0.0215336,-0.237114,0.237115,-0.0135406,0.183271,-0.00198908,-0.0216619,0.0602834,0.0441519
0.0250433,-0.237823,0.237323,-0.0544611,0.148779,0.0179908,-0.0165844,0.0596394,-0.00832528
0.026831,-0.239131,0.237754,-0.0713113,0.0171409,0.0120225,-0.00369499,0.0710948,-0.0519225
0.0261606,-0.240907,0.237719,-0.0932696,-0.0639129,-0.0270383,-0.0017816,0.0740082,-0.0556385
0.0246766,-0.242875,0.236986,-0.0876918,-0.0566566,-0.0400177,-0.00205356,0.0486903,-0.0300112
0.0237886,-0.244385,0.236573,-0.0507015,-0.025423,-0.00229074,-0.000496579,0.00897118,-0.0174913
0.0233612,-0.245172,0.236813,-0.0242423,-0.0285115,0.021235,0.0104357,-0.0124526,-0.0235773
0.0224965,-0.245669,0.237379,-0.0103062,-0.0788395,0.027111,0.0158547,-0.0200301,-0.0289278
0.020508,-0.245841,0.238109,0.00230842,-0.126992,0.0468134,0.0199507,-0.0351355,-0.0171332
0.0185141,-0.245656,0.239401,0.0168718,-0.0967102,0.0806698,0.0140251,-0.0545326,0.0167327
0.0176981,-0.245166,0.241581,0.0256421,-0.0435708,0.126869,0.0103894,-0.0635488,0.0352527
0.017921,-0.244575,0.244681,0.0233176,-0.0157188,0.172684,-0.00101409,-0.0600146,0.0264659
0.0187946,-0.243858,0.248689,0.0294501,-0.0051828,0.207109,-0.0101045,-0.0397422,0.0113648
0.0198189,-0.242763,0.252916,0.0370394,-0.00951299,0.19382,-0.0226087,-0.0042256,-0.00122339
0.0206403,-0.241761,0.256627,0.0250763,0.00156126,0.165598,-0.0219307,0.0222141,-0.00527161
0.0215216,-0.240707,0.259963,0.0574115,-0.00414543,0.163809,-0.018687,0.0326525,-0.00970709
0.0215216,-0.240707,0.259963,0.0574115,-0.00414543,0.163809,-0.018687,0.0326525,-0.00970709
0.0218571,-0.23921,0.263374,0.0684557,-0.0474857,0.167687,-0.0165334,0.0370817,-0.0187732
0.0212491,-0.237998,0.266837,0.0439119,-0.0922237,0.171199,-0.0069309,0.0437834,-0.0148119
0.0202013,-0.236869,0.270523,0.0754288,-0.0960494,0.194914,0.00598365,0.039784,-0.00630087
0.0191277,-0.235127,0.275216,0.088667,-0.110588,0.271116,0.0142519,0.0165609,-0.00390458
0.0180897,-0.233682,0.281796,0.0747761,-0.141781,0.36949,0.0283776,0.00408088,0.00322467
0.0166609,-0.23229,0.290429,0.0772521,-0.185305,0.473778,0.0367506,-0.000974223,0.0018152
0.0151989,-0.230847,0.301268,0.0636875,-0.209344,0.577511,0.0345976,-0.000790298,0.0149865
0.0139983,-0.229537,0.314135,0.0530405,-0.203883,0.669699,0.030925,0.0046207,0.0232828
0.0132797,-0.228349,0.328711,0.0466737,-0.192864,0.741574,0.0282642,0.0155887,0.0257744
0.0129796,-0.227349,0.344744,0.0295309,-0.192628,0.809733,0.0319104,0.0303267,0.0327791
0.0129817,-0.226859,0.362188,-0.00557296,-0.191865,0.883185,0.0316171,0.0430411,0.042075
0.0132916,-0.227137,0.381158,-0.0408728,-0.204837,0.949287,0.0298816,0.0590828,0.0538648
0.0136561,-0.227997,0.40114,-0.066846,-0.203497,0.992543,0.0293461,0.077333,0.0693672
0.0138534,-0.229151,0.422701,-0.0817866,-0.270956,1.11869,0.0467051,0.057532,0.0614278
0.0134231,-0.230588,0.448193,-0.0849227,-0.348471,1.36563,0.0648135,0.0153312,0.0456339
0.0126197,-0.231648,0.479284,-0.0730316,-0.447979,1.63717,0.0805675,-0.00663562,0.036307
0.0114049,-0.233323,0.513571,-0.138089,-0.422904,1.63897,0.055509,0.0577902,0.0415354
0.0117882,-0.236051,0.546028,-0.163403,-0.30605,1.50378,0.0418227,0.133719,0.0840027
0.0147181,-0.238796,0.576168,-0.131303,-0.0938427,1.41883,0.0292792,0.135766,0.0759494
0.0209365,-0.239966,0.605663,-0.0346196,-0.0176286,1.43786,0.00194277,0.0916758,0.0284909
0.0277052,-0.239085,0.63558,0.0376865,-0.047719,1.45715,0.0113401,0.0688043,-0.0351045
0.0306349,-0.238138,0.666001,-0.0741278,-0.444333,1.47091,0.0482068,0.0682295,-0.125876
0.0231258,-0.240853,0.695874,-0.23318,-0.979291,1.40339,0.0637864,0.0685671,-0.20248
0.0082142,-0.243401,0.724619,-0.0108678,-1.09458,1.37408,0.0786522,0.0690237,-0.131163
-0.00388532,-0.239656,0.753173,0.374593,-0.769732,1.39012,0.0397088,0.0497715,0.017616
-0.00999263,-0.229863,0.782066,0.5683,-0.532092,1.38921,-0.00049369,0.031082,0.0698099
-0.0130516,-0.220114,0.810458,0.389923,-0.396698,1.34877,-0.0249223,0.0273563,0.0852255
-0.0138109,-0.215058,0.837638,0.187411,-0.28743,1.28018,-0.0460016,0.0242824,0.0587344
-0.0125179,-0.211213,0.863071,0.264565,-0.115159,1.17718,-0.0592175,0.0278566,-0.00403458
-0.00835316,-0.20373,0.885788,0.507506,0.0325488,1.027,-0.057234,0.0466089,-0.041742
-0.00477412,-0.191952,0.905348,0.638903,-0.0540438,0.875316,-0.0472697,0.0554558,-0.122732
-0.00504356,-0.179447,0.922082,0.614861,-0.259304,0.757018,-0.0318873,0.0449641,-0.166293
-0.0101881,-0.166496,0.936635,0.69362,-0.489548,0.664835,-0.0143364,0.0280587,-0.163874
-0.019458,-0.152229,0.949827,0.72306,-0.610656,0.619769,-0.000604568,0.0133521,-0.11487
-0.0305355,-0.138352,0.962963,0.686362,-0.678109,0.653383,0.0101128,-0.00619693,-0.0401531
-0.0414915,-0.125574,0.977662,0.643507,-0.622795,0.738335,-0.0116119,-0.0194553,0.0417481
-0.0517726,-0.113862,0.993541,0.569326,-0.555595,0.777425,-0.0223923,-0.00306641,0.0799773
-0.0601816,-0.104539,1.00975,0.464433,-0.494747,0.754434,-0.0194066,0.0231694,0.133243
-0.0707017,-0.0969903,1.02498,0.369114,-0.677352,0.715789,-0.0463884,0.00550242,0.0776372
-0.0808588,-0.0919684,1.04006,0.28051,-0.458145,0.72576,-0.0349575,0.00682464,0.15698
-0.0877039,-0.0871017,1.05612,0.331278,-0.411869,0.852286,-0.0114953,-0.0449688,0.143457
-0.0952762,-0.0821792,1.07596,0.317666,-0.578413,1.05154,0.00484532,-0.113825,0.0762269
-0.108397,-0.0798361,1.09853,0.100691,-0.874399,1.13226,0.0216592,-0.113229,-0.00345105
-0.126323,-0.0831827,1.12111,-0.116356,-1.06055,1.12342,0.0517756,-0.0755183,-0.0357513
-0.146706,-0.0867977,1.14287,0.110105,-1.12448,1.03845,0.0594184,-0.0654027,-0.0480661
-0.163503,-0.0844307,1.16243,0.385076,-0.646811,0.831008,0.0680336,0.0102894,0.106302
-0.167508,-0.0793676,1.17808,0.328893,0.111736,0.625042,0.0812247,0.0816807,0.246983
-0.159387,-0.0757053,1.19025,0.249932,0.49587,0.529673,0.0818886,0.0695697,0.186462
-0.159387,-0.0757053,1.19025,0.249932,0.49587,0.529673,0.0818886,0.0695697,0.186462
-0.14942,-0.0729099,1.20175,0.191887,0.402816,0.574458,0.0996716,0.0269625,-0.0188507
-0.141574,-0.0713283,1.21462,0.162938,0.318492,0.666602,0.126293,0.0132507,-0.0867105
-0.134422,-0.0698927,1.22937,0.184015,0.305332,0.768964,0.164574,0.00679389,-0.055279
-0.127777,-0.0686,1.24697,0.1569,0.225509,0.961841,0.185282,-0.0374029,-0.0317255
-0.122991,-0.0689993,1.26867,0.0628389,0.0920573,1.16388,0.143309,-0.0709739,-0.0309114
-0.119374,-0.0717626,1.29278,-0.0325603,0.125348,1.23789,0.099161,-0.0270995,-0.0175914
-0.114009,-0.0753776,1.31813,-0.0285831,0.222297,1.29981,0.0451866,-0.000477068,-0.00810766
-0.107049,-0.0785869,1.34446,0.00108888,0.203167,1.31841,0.0199372,0.0229192,-0.0100747
-0.102354,-0.0807303,1.37029,0.0526129,0.0350998,1.24175,0.0152642,0.0568848,-0.0439501
-0.101078,-0.0820147,1.39424,0.050351,-0.0877685,1.13946,-0.00491699,0.0621812,-0.0463663
-0.101026,-0.0835201,1.41678,0.0336366,-0.0568964,1.10641,-0.0540837,0.0223814,-0.0108556
-0.0988886,-0.0846478,1.43862,0.0766755,0.108065,1.04781,-0.084594,0.0242484,0.0457202
-0.0936073,-0.0842397,1.45856,0.170344,0.254619,0.90941,-0.0964359,0.0684173,0.0555834
-0.0866074,-0.0811121,1.47581,0.28098,0.290965,0.770194,-0.0728732,0.0966654,0.0302384
-0.0796406,-0.0766718,1.49073,0.262499,0.273914,0.683779,-0.0608597,0.0770898,0.0028435
-0.0737622,-0.0725471,1.50435,0.270029,0.202504,0.622047,-0.0321502,0.0739552,-0.0197315
-0.0698077,-0.0670642,1.51657,0.360493,0.110872,0.538275,-0.0493174,0.0814999,-0.0537503
-0.06867,-0.0602741,1.52661,0.382529,-0.0592747,0.408712,-0.0797628,0.101353,-0.0639677
-0.0705787,-0.0528325,1.53405,0.384277,-0.153886,0.295949,-0.0945104,0.0919674,-0.0296383
-0.0729762,-0.0465492,1.54018,0.293899,-0.0685482,0.274529,-0.119825,0.0545877,0.0293239
-0.0729094,-0.0409,1.54608,0.309247,0.0451231,0.283029,-0.0986638,0.0150807,0.0687291
-0.0706224,-0.0350934,1.55274,0.316646,0.14357,0.334069,-0.049078,-0.0236268,0.0681364
-0.0674518,-0.0294058,1.56064,0.297508,0.143038,0.407163,-0.0143239,-0.0529306,0.0138352
-0.0649598,-0.0245227,1.56995,0.236153,0.0759512,0.498126,0.0297079,-0.0643762,-0.0172407
-0.0647534,-0.0211052,1.58169,0.187568,-0.077157,0.653893,0.0622525,-0.0869452,-0.0415789
-0.0670964,-0.0186824,1.59658,0.150947,-0.170374,0.794746,0.0673397,-0.0910995,-0.0213299
-0.0694744,-0.0167796,1.61362,0.171541,-0.057007,0.86667,0.0545621,-0.0782259,0.0233414
-0.0682826,-0.0136259,1.63131,0.259058,0.12974,0.86152,0.0255445,-0.0624689,0.0642122
-0.0646297,-0.00931685,1.6488,0.280686,0.189606,0.846779,0.0189277,-0.0620816,0.0247092
-0.061854,-0.0045308,1.66602,0.294233,0.0563003,0.826671,-0.00503473,-0.0645894,-0.0466309
-0.0620738,-8.08355e-05,1.68241,0.251306,-0.070018,0.775699,-0.0192342,-0.0557296,-0.0542026
-0.0641863,0.00367673,1.69803,0.225527,-0.113407,0.755286,-0.0465148,-0.0666358,-0.0246795
-0.0654078,0.00799973,1.71355,0.311351,-0.00354832,0.766151,-0.0586337,-0.0646017,0.014706
-0.0643907,0.0135539,1.72988,0.327207,0.0861894,0.815278,-0.0654813,-0.0648004,0.0365627
-0.0626092,0.0185853,1.74695,0.290829,0.100883,0.837618,-0.0560032,-0.0352182,0.00613862
-0.0619589,0.0233431,1.76403,0.277634,-0.00760477,0.822529,-0.0488153,0.00406914,-0.0326626
-0.0631964,0.0272372,1.78074,0.205528,-0.0719633,0.822727,-0.0359748,0.0217407,-0.0234846
-0.0657057,0.0299554,1.79789,0.177498,-0.123612,0.862994,-0.0216511,0.0125102,0.000553071
-0.0686857,0.0320452,1.8156,0.13996,-0.0988291,0.882119,-0.0316536,0.00918204,0.0422196
-0.0702869,0.0328992,1.83355,0.0676888,0.00224641,0.88958,-0.0560905,0.00591572,0.0715913
-0.0701822,0.032338,1.85154,0.0155853,0.0618727,0.894659,-0.0801194,-0.00648599,0.0485914
-0.0692886,0.0320396,1.86933,0.101926,0.0633268,0.880399,-0.0731973,-0.00992751,-0.0106629
-0.0693754,0.0337793,1.888,0.189175,-0.00771565,0.960315,-0.0485327,-0.0359751,-0.0918875
-0.0714002,0.0370972,1.90774,0.278132,-0.157001,0.952974,-0.0206894,-0.0104272,-0.137878
-0.0763112,0.0418788,1.92631,0.321562,-0.230994,0.834496,-0.0197463,0.0273402,-0.128632
-0.0811129,0.0476124,1.94196,0.37589,-0.165483,0.681149,-0.0217288,0.0408653,-0.0698776
-0.0844921,0.0548003,1.95515,0.447647,-0.0851432,0.583619,-0.0297181,-0.00621652,-0.0530062
-0.086439,0.0634518,1.96777,0.50398,-0.0346265,0.615645,0.00667474,-0.0584474,-0.0221721
-0.086439,0.0634518,1.96777,0.50398,-0.0346265,0.615645,0.00667474,-0.0584474,-0.0221721
-0.087643,0.0720149,1.98226,0.454842,0.00985034,0.744565,0.00173283,-0.131493,0.0220985
-0.0889048,0.0786929,1.99885,0.351414,-0.0349727,0.836541,0.0199858,-0.0988481,0.0461602
-0.0922995,0.0826458,2.017,0.194222,-0.13493,0.914449,0.0221976,-0.053221,0.0907334
-0.095501,0.0830884,2.03605,0.0384317,0.0261054,0.964081,0.0311233,-0.00500466,0.213918
-0.0928176,0.081915,2.05575,0.0531942,0.408268,0.985941,0.0129975,0.0271054,0.269823
-0.0839025,0.081808,2.07575,0.11061,0.586964,0.988258,0.00132488,0.0313933,0.141038
-0.0755449,0.0824188,2.09574,0.0969945,0.365519,0.979111,0.004462,0.00113344,-0.0429649
-0.0734929,0.0824101,2.11532,0.04073,0.0106837,0.96164,0.0202297,-0.0161176,-0.11375
-0.077115,0.0815224,2.13497,0.0384411,-0.17675,0.994355,0.0140082,-0.0298197,-0.081158
-0.0821894,0.0812881,2.15526,0.0949461,-0.131409,1.00217,-0.00566798,-0.0116817,-0.0101913
-0.0849751,0.0821251,2.17523,0.16028,0.0203043,0.956415,-0.0226213,0.0239273,0.0374519
-0.0850752,0.0847456,2.19378,0.248507,0.125193,0.837845,-0.0446504,0.053852,0.0254003
-0.0835125,0.0886299,2.20989,0.25478,0.144842,0.733934,-0.0185964,0.0702949,0.00435275
-0.0828699,0.0919955,2.22478,0.20491,0.0278259,0.705399,-0.000323206,0.0289996,-0.0242321
-0.0843763,0.0946834,2.23888,0.184144,-0.0286319,0.658236,0.0203765,0.00938268,-0.00898206
-0.0852229,0.0972171,2.25185,0.177256,0.0921349,0.608258,0.0299084,0.0015287,0.0506718
-0.0828663,0.0995442,2.26443,0.159966,0.258824,0.631316,0.0397899,-0.0215613,0.0861175
-0.0781692,0.101797,2.27825,0.174031,0.321911,0.710267,0.0467711,-0.0418111,0.0736182
-0.0742739,0.103555,2.29321,0.0953069,0.216812,0.740487,0.0472122,-0.0355616,0.027881
-0.0723395,0.103361,2.30793,0.00711945,0.127698,0.710887,0.0525884,-1.80751e-05,0.01054
-0.0715868,0.102851,2.32211,0.0632336,0.102301,0.701914,0.0521201,0.0102926,-0.00368178
-0.0707249,0.103501,2.33665,0.0750072,0.154827,0.736004,0.0573485,0.00833051,0.0138142
-0.0687591,0.103324,2.35195,0.0228343,0.181903,0.770863,0.0716346,0.0176145,0.0177224
-0.0676887,0.102562,2.36771,0.000474003,0.0829676,0.795519,0.0751553,0.0192977,-0.0272166
-0.0688297,0.100746,2.38386,-0.0742474,-0.0538617,0.807131,0.0834261,0.0207109,-0.0573379
-0.0731162,0.0975422,2.40016,-0.130737,-0.199505,0.831394,0.0865131,0.0340025,-0.085919
-0.0795772,0.0938412,2.4171,-0.0877433,-0.256739,0.870482,0.0635644,0.0316002,-0.0712254
-0.0853265,0.0915663,2.43471,-0.00376149,-0.132507,0.891704,0.0307584,0.0307846,-0.0121609
-0.0888531,0.0901377,2.45236,-9.52363e-05,-0.0817433,0.853058,0.0108005,0.0373881,0.0141367
-0.0919341,0.0880849,2.46874,-0.0680418,-0.0831966,0.792771,0.00961598,0.0336955,0.00711423
-0.0954992,0.0845188,2.48419,-0.138921,-0.144081,0.764053,-0.000323012,0.00958905,-0.00923902
-0.100384,0.0797115,2.49865,-0.19116,-0.225731,0.709766,0.0030961,0.0082007,-0.00617939
-0.106545,0.0738599,2.51206,-0.245384,-0.2532,0.685729,0.0122576,-0.0251453,0.00831163
-0.110965,0.0674199,2.52551,-0.225104,-0.0636094,0.715752,0.0276305,-0.0614307,0.0499873
-0.111536,0.0622872,2.53956,-0.12757,0.0873285,0.720483,0.0309806,-0.0824675,0.0540082
-0.110176,0.058623,2.55384,-0.0904615,0.136526,0.728412,0.049675,-0.111699,0.0317954
-0.107505,0.0553047,2.56815,-0.0869996,0.211714,0.71217,0.0477774,-0.118353,0.0345464
-0.103468,0.0529155,2.58094,0.0111713,0.226034,0.545989,0.0337578,-0.0551567,0.0310863
-0.100324,0.0544229,2.58881,0.2091,0.0904677,0.205741,-0.00507949,0.0317214,0.00695688
-0.0994127,0.0587607,2.59113,0.179324,0.0385154,0.054095,-0.0177129,-0.0136762,0.0462017
-0.0990446,0.0586635,2.59441,-0.165008,0.0353074,0.286604,-0.00240722,-0.154703,0.088007
-0.0986477,0.0525026,2.6014,-0.337242,0.0651224,0.438796,0.0304811,-0.148755,0.0589526
-0.0961887,0.0456748,2.60937,-0.241808,0.235397,0.399604,0.04963,-0.0979263,0.0267185
-0.0900052,0.0412662,2.617,-0.143555,0.392011,0.418724,0.0659731,-0.0970055,-0.0122809
-0.0825606,0.0372884,2.62657,-0.183008,0.370027,0.576068,0.0837219,-0.160123,-0.0793248
-0.0772426,0.0321084,2.63922,-0.210375,0.164328,0.688849,0.0848777,-0.157182,-0.140733
-0.0776945,0.0275564,2.65218,-0.145882,-0.188105,0.600879,0.0599479,-0.0992935,-0.191078
-0.0776945,0.0275564,2.65218,-0.145882,-0.188105,0.600879,0.0599479,-0.0992935,-0.191078
-0.0847811,0.0237798,2.66246,-0.1566,-0.453956,0.452752,0.0638275,-0.0693622,-0.169263
-0.0944173,0.0202823,2.6696,-0.108141,-0.444942,0.286008,0.0748792,-0.0463238,-0.0527545
-0.102347,0.0177488,2.67418,-0.138462,-0.315262,0.218583,0.139017,-0.0655194,0.080487
-0.106596,0.0134141,2.67814,-0.222263,-0.0729219,0.232846,0.239396,-0.125823,0.154253
-0.103998,0.0094407,2.68409,-0.13664,0.340317,0.39818,0.336778,-0.264256,0.222122
-0.0953726,0.004463,2.6929,-0.299058,0.393728,0.506718,0.466123,-0.310707,0.165947
-0.0916601,-0.00564077,2.70296,-0.62257,-0.0575286,0.61667,0.488915,-0.350459,-0.0221275
-0.0978312,-0.0217992,2.71633,-0.77079,-0.508595,0.854567,0.316173,-0.418587,-0.156233
-0.105823,-0.0357304,2.73331,-0.370553,-0.215003,0.916723,0.130475,-0.410387,-0.0774415
-0.102842,-0.0393859,2.74948,0.139285,0.46953,0.695734,-0.0693091,-0.324105,-0.0177737
-0.0875037,-0.0352742,2.76163,0.337919,0.909608,0.502523,-0.165577,-0.244755,-0.100286
-0.0709028,-0.0272385,2.77184,0.565132,0.615957,0.44332,-0.246032,-0.213988,-0.375289
-0.0631802,-0.0133317,2.78029,0.864393,0.147382,0.289467,-0.305535,-0.0946607,-0.507348
-0.0648413,0.00523314,2.78516,0.993452,-0.311656,0.0776991,-0.318628,0.0478661,-0.487772
-0.0753342,0.0270732,2.78576,1.18765,-0.686849,-0.175034,-0.291021,0.13176,-0.370572
-0.0892257,0.053079,2.78249,1.35171,-0.672431,-0.33535,-0.184761,0.12741,-0.11027
-0.101173,0.082054,2.77832,1.4703,-0.570629,-0.327477,-0.0720838,0.0548928,0.0872269
-0.112288,0.111412,2.77581,1.35096,-0.574452,-0.22335,0.00558323,-0.012933,0.186714
-0.12454,0.135751,2.77527,1.02625,-0.590668,-0.0923797,0.00697181,-0.0475418,0.244234
-0.135833,0.152966,2.77899,0.750751,-0.471389,0.266107,-0.0342719,-0.0478861,0.281054
-0.145689,0.165285,2.78862,0.609609,-0.389829,0.400404,-0.117455,0.0674261,0.262986
-0.154418,0.175481,2.79442,0.453576,-0.407947,-0.0593437,-0.170945,0.305426,0.22256
-0.164548,0.181873,2.7879,0.00124139,-0.750076,-0.619763,-0.0913063,0.389841,0.151329
-0.179749,0.176967,2.77358,-0.697057,-0.999612,-0.581206,0.0301161,0.207111,0.143388
-0.196749,0.16074,2.76169,-1.00882,-0.826245,-0.283069,0.145873,0.0802142,0.192003
-0.206338,0.144443,2.75344,-0.683879,-0.18562,-0.22785,0.150589,0.11971,0.262296
-0.202308,0.135767,2.74467,-0.378811,0.442317,-0.469786,0.191742,0.237432,0.239512
-0.189453,0.131507,2.73158,-0.325878,0.569592,-0.657988,0.307119,0.181299,0.0972235
-0.178048,0.126444,2.72035,-0.350755,0.387426,-0.198998,0.311193,-0.0681064,-0.0316158
-0.171219,0.120468,2.72111,-0.213101,0.51404,0.235074,0.240072,-0.148271,-0.063115
-0.160911,0.118588,2.72615,0.103735,0.472727,0.292068,0.179722,-0.114737,-0.0722037
-0.154912,0.12123,2.73257,0.245999,0.141652,0.278438,0.17608,-0.00449423,-0.114441
-0.159951,0.126207,2.73897,0.290547,-0.591776,0.305783,0.191054,-0.042158,-0.133395
-0.1796,0.127294,2.74853,-0.10438,-1.1775,0.66747,0.0538086,-0.225802,-0.0949686
-0.209055,0.116197,2.76468,-0.654536,-1.53844,1.05276,0.0621997,-0.251832,-0.032092
-0.239575,0.0962496,2.78257,-0.75695,-1.26922,1.06491,0.0289319,-0.0455006,-0.0478127
-0.261867,0.0808207,2.79843,-0.321538,-0.852057,0.8192,0.0300123,0.14189,-0.0866221
-0.276996,0.0751376,2.81143,0.119207,-0.581903,0.581569,0.0551513,0.160989,-0.101334
-0.288525,0.0781893,2.82251,0.425335,-0.477686,0.419666,0.0284969,0.0993803,-0.0718371
-0.296439,0.0835111,2.83389,0.358922,-0.179997,0.561574,-0.0166563,-0.0329648,0.0181896
-0.295826,0.0845211,2.84945,0.224855,0.353134,0.857891,-0.073417,-0.146384,0.100867
-0.287974,0.0845229,2.86775,0.304977,0.547235,0.833972,-0.123391,-0.0930527,0.0284117
-0.277792,0.0873624,2.88466,0.442967,0.590339,0.696546,-0.111792,-0.0319046,-0.0055663
-0.266026,0.0944629,2.90067,0.685519,0.749128,0.692974,-0.0928103,-0.0449598,-0.0401344
-0.251125,0.107159,2.9211,1.05917,0.932541,0.958974,-0.0728014,-0.0903267,-0.0665705
-0.233123,0.125935,2.94758,1.35198,1.19942,1.0732,-0.133377,-0.0192954,-0.0790669
-0.209394,0.149318,2.97279,1.43718,1.42771,0.775557,-0.19267,0.108053,-0.0120514
-0.185642,0.174086,2.98851,1.1931,1.06702,0.258309,-0.200292,0.214605,-0.0388273
-0.185642,0.174086,2.98851,1.1931,1.06702,0.258309,-0.200292,0.214605,-0.0388273
-0.169799,0.190447,2.99353,0.52155,0.656977,0.00297318,-0.155955,0.186246,-0.0451868
-0.158042,0.199695,2.99561,0.582113,0.608433,0.0817518,-0.164422,0.0790463,-0.0926499
-0.144404,0.217479,3.0005,1.24564,0.892733,0.0615367,-0.188207,0.131479,-0.108029
-0.123706,0.246892,3.00164,1.58057,1.12338,-0.384328,-0.203791,0.23426,-0.0254502
-0.10003,0.277725,2.99278,1.30483,1.00873,-0.753789,-0.112886,0.233427,-0.0116924
-0.0758964,0.302783,2.97885,1.14388,1.0208,-0.745695,-0.0598582,0.0978148,0.0168565
-0.0503594,0.327845,2.96626,1.26256,1.1463,-0.590278,-0.043972,-0.0201294,0.0122345
-0.0229338,0.353279,2.95622,1.20781,1.22986,-0.469493,-0.0447838,-0.017717,0.0360953
0.00275913,0.376054,2.9456,1.02403,0.938638,-0.59161,0.0296756,0.103383,0.0345792
0.0239193,0.393733,2.92868,0.761467,0.468887,-0.94602,0.108635,0.182375,0.00991982
0.0386049,0.4066,2.90657,0.609415,0.234205,-0.949274,0.160902,0.0563013,-0.0348045
0.0524246,0.418059,2.88977,0.623857,0.51873,-0.483072,0.0126286,-0.141147,0.0679575
0.0672832,0.430238,2.88283,0.571076,0.557186,-0.158142,-0.109521,-0.081265,0.0877488
0.0767228,0.438505,2.87653,0.256756,0.0597546,-0.416755,-0.0728747,0.170466,-0.0331736
0.0766273,0.438707,2.86309,-0.109903,-0.612197,-0.757304,0.072497,0.195003,-0.125645
0.0672816,0.434416,2.84662,-0.158761,-0.914689,-0.64805,0.130359,-0.00821149,-0.102703
0.0534247,0.43221,2.83778,-0.00874576,-0.773597,-0.181421,0.00867062,-0.190268,0.0561762
0.042474,0.432478,2.83568,0.020618,-0.39307,-0.0818191,-0.0799031,-0.109489,0.190528
0.0395025,0.432582,2.83097,0.0223104,-0.167178,-0.369416,-0.111813,0.0592156,0.160459
0.0392644,0.43325,2.82005,0.0671017,-0.388644,-0.579171,-0.0634137,0.0798568,-0.00628608
0.033407,0.43279,2.80702,-0.0709261,-0.694608,-0.572533,-0.0203419,0.0129264,-0.101344
0.0240982,0.43115,2.79522,-0.0434415,-0.682923,-0.521209,0.00560566,-0.0233985,-0.0216793
0.0159533,0.429908,2.78243,-0.0720938,-0.640067,-0.655721,-0.0208638,0.0284813,0.0260302
0.0103953,0.42766,2.76631,-0.131081,-0.572237,-0.798327,-0.029158,0.0288935,0.0560841
0.00715106,0.4253,2.74873,-0.0680974,-0.497954,-0.761451,0.00966045,-0.0252874,0.0457641
0.0111525,0.42704,2.73293,0.373041,0.552788,-0.696488,0.00692393,-0.0579285,0.123976
0.0404293,0.436937,2.71727,0.505124,1.34556,-0.695172,-0.0987548,0.0254611,0.474495
0.0606633,0.441513,2.70169,-0.049212,-0.30983,-0.689579,-0.0601987,0.0195012,-0.290947
0.0387033,0.43278,2.68634,-0.680824,-2.29412,-0.769449,0.084518,0.0226068,-0.740002
-0.00268873,0.417425,2.66744,-0.736609,-2.28274,-0.974366,0.0930646,0.0602539,-0.181372
-0.0281264,0.406136,2.64486,-0.380836,-1.05054,-1.02197,-0.0375956,0.0472381,0.374971
-0.0272889,0.40251,2.62295,-0.0945442,0.234816,-1.00202,-0.170528,0.00479645,0.502944
-0.00691349,0.401243,2.59953,-0.087869,0.655708,-1.13738,-0.135222,0.042617,0.281897
0.0105225,0.39883,2.57429,-0.166269,0.0287537,-1.16387,-0.0885996,0.02982,-0.123701
0.012249,0.393078,2.54918,-0.387916,-0.783854,-1.15238,-0.00572972,0.0217972,-0.260982
0.00234921,0.383081,2.52415,-0.555482,-1.00741,-1.15077,0.00686961,0.0240788,-0.11347
-0.00543045,0.372548,2.50052,-0.472488,-0.587355,-1.02041,-0.00838497,0.00315011,0.105583
-0.00645045,0.364556,2.47967,-0.346727,-0.300422,-0.927207,0.0121301,0.0374881,0.140028
-0.00507866,0.357744,2.45959,-0.35722,-0.322795,-0.94519,0.0290034,0.0600157,0.0582898
-0.00702088,0.349923,2.43942,-0.433907,-0.569888,-0.917904,0.044361,0.0200109,-0.0276651
-0.0146394,0.340912,2.42071,-0.488576,-0.783257,-0.81123,0.0661799,-0.0224649,-0.0207398
-0.0250946,0.330751,2.40468,-0.541275,-0.738499,-0.673064,0.0637407,-0.0442955,0.0679374
-0.0333577,0.320277,2.3913,-0.527597,-0.50119,-0.552328,0.0775999,-0.0246942,0.137967
-0.0382589,0.310306,2.3806,-0.516214,-0.332605,-0.420458,0.107361,-0.0166408,0.126867
-0.0417563,0.299409,2.37275,-0.60507,-0.271914,-0.285616,0.134751,-0.0117002,0.0832944
-0.0461089,0.286211,2.36733,-0.744979,-0.317852,-0.16568,0.143919,-0.0141744,0.0368074
-0.0510802,0.269783,2.36529,-0.868887,-0.186051,0.0575911,0.107836,-0.055011,0.0519882
-0.0527334,0.252976,2.36744,-0.764463,0.0756841,0.209706,0.0372833,-0.0524328,0.102171
-0.0527334,0.252976,2.36744,-0.764463,0.0756841,0.209706,0.0372833,-0.0524328,0.102171
-0.0492906,0.238257,2.37071,-0.707005,0.343591,0.155634,-0.00210886,0.0160686,0.123906
-0.0403833,0.224244,2.37215,-0.653245,0.531345,0.0500207,-0.0137695,0.058948,0.103181
-0.0298481,0.212506,2.37259,-0.525308,0.477076,0.0585995,-0.0159173,0.0449865,-0.0122947
-0.0226714,0.202176,2.37444,-0.517452,0.265147,0.156757,-0.0212034,0.0188253,-0.110586
-0.0202994,0.191565,2.37793,-0.517367,0.0529747,0.187528,-0.0126659,0.0402035,-0.13141
-0.0205001,0.181365,2.38139,-0.494165,0.0256908,0.183598,0.00972555,0.0734237,-0.0736304
-0.0190039,0.171559,2.38555,-0.470038,0.205377,0.251932,0.00100842,0.0462217,-0.0128438
-0.0146711,0.162415,2.39115,-0.426946,0.293768,0.313577,0.00762644,0.0259291,-0.0538244
-0.00954422,0.154586,2.39809,-0.331321,0.329053,0.368819,0.018845,-0.00310305,-0.0909339
-0.00336406,0.148806,2.40537,-0.250253,0.400936,0.336658,0.00633296,-0.00671133,-0.0699709
0.00485887,0.144317,2.41167,-0.200127,0.501992,0.292462,0.00250073,-0.00452957,-0.0552834
0.0147098,0.141422,2.41788,-0.0709579,0.534481,0.325903,-0.0080316,-0.0407047,-0.0944564
0.0235232,0.14194,2.42505,0.0901052,0.436329,0.387211,0.0124517,-0.0492103,-0.148148
0.0294395,0.144102,2.43355,0.0813712,0.255117,0.44696,0.0179891,-0.0468874,-0.141439
0.0314681,0.145709,2.44254,0.0546124,0.0967589,0.438458,0.0164627,-0.0372401,-0.124459
0.031728,0.147148,2.45155,0.0821164,0.110108,0.45755,-0.00521092,-0.0688516,-0.0855234
0.0343547,0.150132,2.46136,0.184963,0.283876,0.512693,-0.0333206,-0.0993476,-0.0113133
0.0385666,0.154774,2.47155,0.227328,0.280612,0.484504,-0.0357615,-0.0695067,-0.0348288
0.0422848,0.159476,2.47995,0.198224,0.217611,0.353496,-0.0545226,-0.0170265,-0.0427771
0.0451519,0.163695,2.48518,0.204842,0.174898,0.176008,-0.0532763,0.0386058,-0.0482177
0.0493482,0.168386,2.48694,0.267668,0.283264,0.0335837,-0.0444953,0.0806625,-0.00246525
0.0568679,0.174914,2.48708,0.380955,0.437426,0.0424171,-0.0272681,0.0642061,0.0271407
0.0654971,0.182928,2.48853,0.371964,0.401446,0.144329,-0.01199,0.0246833,-0.0097447
0.0710722,0.189279,2.49138,0.234759,0.193815,0.160374,0.0144845,0.0474499,-0.0474238
0.0724821,0.193239,2.49401,0.1566,-0.0040311,0.118286,0.0399828,0.0515663,-0.0454814
0.0703426,0.196524,2.49601,0.154472,-0.15699,0.120164,0.0675125,0.00216123,-0.0316533
0.0659483,0.199391,2.49941,0.10136,-0.197226,0.241155,0.0652575,-0.0752278,0.0206287
0.0613057,0.201198,2.5052,0.0543422,-0.142241,0.317641,0.0418364,-0.107103,0.0733394
0.0576357,0.202313,2.51153,0.0102125,-0.0925176,0.287224,0.021513,-0.0994792,0.0825921
0.0551014,0.20222,2.51649,-0.034501,-0.0811979,0.193417,-0.00509255,-0.0844953,0.0647911
0.0524301,0.202,2.51917,-0.0105097,-0.124748,0.0670161,-0.0267432,-0.0734495,0.0373574
0.050126,0.201655,2.51932,-0.0353537,-0.0980754,-0.0559969,-0.047228,-0.0593524,0.0610254
0.0497029,0.201419,2.51709,0.00166325,0.0121841,-0.154788,-0.0429864,-0.0450875,0.0799073
0.0513302,0.202114,2.51345,0.0499224,0.0541905,-0.189669,-0.0246284,-0.0321236,0.0670229
0.0525541,0.203151,2.50972,0.0528048,-0.0229588,-0.156402,0.0241729,-0.019572,0.0283459
0.0506797,0.204303,2.50732,0.0593676,-0.196837,-0.0733222,0.0700551,-0.00388724,-0.00909984
0.0452708,0.205284,2.50682,0.01354,-0.335934,0.032171,0.104804,0.00160515,-0.000912249
0.0367688,0.205351,2.5086,-0.019075,-0.467386,0.136901,0.143425,0.0113907,0.00420672
0.0260991,0.205235,2.5125,-0.00376908,-0.495032,0.248411,0.162837,-0.00240976,0.0371666
0.0153704,0.205643,2.51866,0.0262981,-0.440615,0.351877,0.168655,-0.0252649,0.085992
0.00563262,0.206342,2.52684,0.033199,-0.377912,0.43986,0.18452,-0.0401139,0.112026
-0.00388697,0.20671,2.53666,-0.00717974,-0.377258,0.516526,0.189763,-0.0621085,0.110952
-0.01405,0.205909,2.54795,-0.06564,-0.39821,0.577881,0.189519,-0.0776473,0.109394
-0.024273,0.203301,2.55998,-0.177253,-0.360839,0.59056,0.148939,-0.0871589,0.13555
-0.0323288,0.198261,2.57137,-0.278036,-0.197352,0.517853,0.0976538,-0.0779074,0.16276
-0.036068,0.19237,2.57975,-0.277501,-0.0221583,0.301165,0.0727487,-0.0283581,0.156056
-0.0356814,0.186391,2.58367,-0.317106,0.123,0.124252,0.0940922,-0.00462812,0.128355
-0.0334302,0.179111,2.58556,-0.403262,0.11132,0.117303,0.11727,-0.0531532,0.0661248
-0.0334302,0.179111,2.58556,-0.403262,0.11132,0.117303,0.11727,-0.0531532,0.0661248
-0.0327995,0.170316,2.58897,-0.453484,0.00144351,0.256321,0.140306,-0.105332,-0.00259346
-0.0353952,0.160646,2.59516,-0.488504,-0.167839,0.368861,0.129735,-0.114473,-0.0475517
-0.0416334,0.150255,2.60234,-0.520046,-0.332002,0.367732,0.0975948,-0.0639329,-0.0676963
-0.0501631,0.139601,2.60908,-0.482037,-0.401779,0.338603,0.0409721,-0.0318264,-0.0671722
-0.0585963,0.131188,2.61487,-0.31313,-0.346266,0.270106,-0.0269776,-0.0154127,-0.0460762
-0.0659,0.125992,2.61908,-0.204791,-0.347733,0.181364,-0.0610734,-0.0144476,-0.0284057
-0.0738971,0.121116,2.62212,-0.277135,-0.41768,0.168604,-0.107222,-0.0291278,-0.0173437
-0.0831116,0.114205,2.62467,-0.381712,-0.450286,0.0926105,-0.172209,0.00342184,-0.00797516
-0.0909948,0.106339,2.62229,-0.407656,-0.315817,-0.303089,-0.137015,0.0975481,0.0157197
-0.0933607,0.100077,2.61137,-0.282559,-0.0145769,-0.648636,0.0667273,0.05659,0.0710009
-0.088815,0.0972212,2.60032,-0.129587,0.316059,-0.306121,0.132789,-0.231408,0.104102
-0.0818075,0.0946504,2.59936,-0.153798,0.323875,0.18314,0.048056,-0.381596,0.0618357
-0.0730041,0.0904773,2.60312,-0.197482,0.624529,0.104746,-0.0963042,-0.20913,0.034883
-0.0588611,0.088126,2.59966,-0.0591594,0.678998,-0.448809,-0.0870615,-0.0183571,-0.0932369
-0.0495575,0.0874225,2.58655,-0.138827,0.0576029,-0.762071,-0.00239442,-0.0217434,-0.275611
-0.054754,0.081934,2.57197,-0.507683,-0.656826,-0.606721,0.0100333,-0.138586,-0.252071
-0.0683156,0.0690684,2.56099,-0.773991,-0.629533,-0.422984,-0.0401918,-0.203799,-0.0158807
-0.0722534,0.0551043,2.55122,-0.608225,0.207794,-0.50372,-0.0451522,-0.129372,0.146252
-0.0609707,0.0474812,2.53874,-0.26348,0.751717,-0.632425,-0.00024708,-0.0630256,0.0680314
-0.0455994,0.0435587,2.52715,-0.233969,0.603662,-0.479971,-0.00730069,-0.135822,-0.162311
-0.0403707,0.0384119,2.51778,-0.316806,-0.160161,-0.494029,0.0161754,-0.0601236,-0.357799
-0.0502002,0.0324411,2.50412,-0.312535,-0.80066,-0.863317,0.0615969,0.0835217,-0.320282
-0.0659936,0.0289751,2.48321,-0.118759,-0.754276,-1.15559,0.0707857,0.0811712,-0.112184
-0.076762,0.0312636,2.46037,0.173014,-0.366194,-1.05011,0.00159126,-0.0916663,0.0621198
-0.0783186,0.0380662,2.44299,0.346132,0.174069,-0.744015,-0.0530589,-0.261839,0.150525
-0.0699776,0.0474153,2.43123,0.496507,0.566686,-0.472556,0.0441615,-0.275692,0.114687
-0.0575525,0.0593038,2.42628,0.647221,0.560325,-0.0863989,0.0784158,-0.309811,-0.0410389
-0.0499162,0.073127,2.42923,0.725566,0.174765,0.296216,0.116413,-0.27847,-0.211648
-0.0533695,0.087525,2.43898,0.745849,-0.460895,0.570654,0.107233,-0.200764,-0.292325
-0.0683977,0.101358,2.45206,0.696661,-0.854051,0.595591,0.0330206,-0.0886196,-0.17294
-0.0868969,0.114054,2.46345,0.650596,-0.79471,0.400703,-0.0320928,0.0382147,0.0707784
-0.0997649,0.12675,2.46999,0.683048,-0.358633,0.133113,-0.0689393,0.0849677,0.267624
-0.101829,0.140911,2.4725,0.731199,0.184964,-0.0122097,-0.10045,0.031436,0.347524
-0.0948385,0.155542,2.4733,0.718768,0.458234,-0.0361852,-0.0738966,-0.0401075,0.275923
-0.0853726,0.169981,2.47405,0.700228,0.464826,-0.012076,-0.0252739,-0.0937452,0.154026
-0.0778795,0.182929,2.47542,0.590768,0.295611,0.057694,0.030696,-0.14153,0.090442
-0.0737268,0.193412,2.47943,0.484751,0.234503,0.271566,0.0678311,-0.204352,0.0997971
-0.0692648,0.202522,2.48795,0.496514,0.41622,0.478548,0.10196,-0.207155,0.162638
-0.0607062,0.212134,2.50004,0.526899,0.670394,0.629658,0.11244,-0.174128,0.191161
-0.0489082,0.221553,2.51483,0.47388,0.793475,0.742083,0.128337,-0.140744,0.146205
-0.0360633,0.229483,2.5312,0.381252,0.834235,0.805692,0.152649,-0.10178,0.0744389
-0.0231272,0.236178,2.54898,0.336018,0.848229,0.907316,0.218849,-0.08579,0.00937867
-0.0124131,0.24178,2.57015,0.226313,0.712493,1.16454,0.274884,-0.104319,-0.018343
-0.00619481,0.244205,2.59847,0.0469417,0.57675,1.56933,0.282668,-0.121176,-0.00144476
-0.00477067,0.243319,2.63426,-0.128904,0.437852,1.83363,0.203254,-0.0918082,-0.0221888
-0.00580952,0.238414,2.672,-0.338795,0.360016,1.77457,0.112472,0.0294209,-0.0465828
-0.00641883,0.23006,2.70701,-0.447001,0.408688,1.63807,0.0128873,0.0813376,-0.0834351
-0.00641883,0.23006,2.70701,-0.447001,0.408688,1.63807,0.0128873,0.0813376,-0.0834351
-0.00491059,0.22079,2.74112,-0.461495,0.545531,1.69732,-0.0746306,0.076544,-0.118449
0.000745577,0.211868,2.77628,-0.395444,0.749428,1.67256,-0.148724,0.151922,-0.112799
0.00974828,0.204936,2.8073,-0.32364,0.738054,1.30162,-0.180229,0.323453,-0.16854
0.0176812,0.199818,2.82865,-0.186954,0.429571,0.767727,-0.190027,0.416783,-0.267731
0.0209387,0.198197,2.84027,-0.00841615,0.145511,0.422217,-0.222462,0.337878,-0.315385
0.0201325,0.199939,2.84818,0.156569,-0.0678946,0.37542,-0.267579,0.210771,-0.282525
0.0153791,0.203908,2.85559,0.199883,-0.226767,0.340815,-0.271087,0.178465,-0.194264
0.00988198,0.208009,2.86103,0.202322,-0.184533,0.173673,-0.256602,0.233428,-0.0807009
0.00717566,0.212502,2.86227,0.253654,-0.0574946,-0.0435895,-0.205668,0.268477,-0.0198942
0.00651124,0.218377,2.85964,0.324454,-0.090771,-0.195037,-0.116739,0.22693,-0.0339327
0.00435051,0.224666,2.85486,0.291676,-0.229635,-0.245621,-0.0384818,0.141726,-0.046396
0.000392974,0.229971,2.85002,0.259971,-0.259056,-0.21733,0.0384816,0.0652292,-0.00327092
-0.00350946,0.236142,2.84606,0.382124,-0.22371,-0.163413,0.102915,-0.00390047,0.0256323
-0.00786555,0.245714,2.8437,0.569802,-0.276276,-0.0702645,0.123443,-0.0670995,-0.00437027
-0.014664,0.258531,2.84346,0.674034,-0.415589,0.0437534,0.110322,-0.113831,-0.0113495
-0.0259833,0.271176,2.84612,0.568122,-0.641372,0.184706,0.0586003,-0.114674,0.0386778
-0.0424955,0.280612,2.851,0.379531,-0.876097,0.221186,0.00177388,-0.0398288,0.164425
-0.0622927,0.285178,2.85499,0.0706698,-0.899565,0.133798,-0.0338744,0.0413837,0.306383
-0.0770068,0.28361,2.85656,-0.167873,-0.440057,0.0319079,-0.0458171,0.0712357,0.456382
-0.0791394,0.28032,2.85619,-0.126489,0.188578,-0.0317921,-0.0361811,0.0700284,0.482129
-0.0712665,0.279275,2.8552,0.000687341,0.510253,-0.0528139,0.0208553,0.0519647,0.350371
-0.0610138,0.279151,2.85404,-0.0630037,0.415336,-0.0486708,0.0848761,2.65837e-05,0.19763
-0.0555177,0.275709,2.85345,-0.292755,0.096053,0.0222581,0.156375,-0.0638147,0.0950729
-0.0570005,0.267905,2.85494,-0.456092,-0.165721,0.185036,0.182684,-0.128248,0.0712668
-0.0625053,0.257122,2.86054,-0.580736,-0.173349,0.412313,0.140611,-0.167531,0.124356
-0.0661459,0.244263,2.86995,-0.626074,0.067781,0.547984,0.0831939,-0.123866,0.181344
-0.0640564,0.231177,2.88053,-0.592992,0.364489,0.538314,0.0327535,-0.0389586,0.156612
-0.0576934,0.219086,2.89002,-0.577577,0.435596,0.451168,0.0145656,0.0356513,0.0563816
-0.0530106,0.205099,2.89773,-0.797841,0.172299,0.376481,-0.00153042,0.0483605,-0.0742297
-0.0549191,0.186547,2.90357,-0.996848,-0.24812,0.289411,-0.00300662,0.0670438,-0.167452
-0.0624244,0.164666,2.90856,-1.12354,-0.371833,0.362838,-0.0422045,0.051252,-0.156928
-0.0712147,0.141886,2.91588,-1.07765,-0.383272,0.473347,-0.0980175,0.091056,-0.113083
-0.0784579,0.120069,2.92232,-1.05711,-0.21347,0.256798,-0.189078,0.203201,-0.0911101
-0.0801305,0.098062,2.92069,-1.13604,0.019794,-0.240583,-0.153967,0.296635,-0.08745
-0.0787481,0.0766418,2.91175,-1.00582,-0.00946212,-0.381899,-0.0220737,0.191877,-0.190336
-0.0797325,0.0603083,2.9052,-0.652291,-0.0776387,-0.120731,0.0383504,0.00685062,-0.253021
-0.079116,0.0514396,2.9038,-0.247457,0.135351,0.0187728,0.106853,-0.0727286,-0.183081
-0.0757844,0.0487755,2.90456,-0.0787212,0.111332,0.0849924,0.125656,-0.115078,-0.191693
-0.0788013,0.0445496,2.9073,-0.356249,-0.460935,0.230644,0.092512,-0.172247,-0.244632
-0.0926174,0.0344423,2.91282,-0.543401,-0.772546,0.40652,0.0742418,-0.129475,-0.147714
-0.105614,0.0242804,2.92116,-0.322676,-0.385863,0.482766,0.00780727,0.012315,0.0225163
-0.106193,0.0209409,2.92958,0.0688774,0.326517,0.360084,-0.0726183,0.174122,0.109887
-0.0958659,0.0236143,2.93462,0.176573,0.619477,0.096518,-0.146464,0.245658,0.0054
