attitude_roll,attitude_pitch,attitude_yaw,rotationRate_x,rotationRate_y,rotationRate_z,acceleration_x,acceleration_y,acceleration_z
-0.0103219,0.231334,0.00119926,-0.10453,0.167974,-0.134154,0.103949,-0.0150928,0.224103
-0.00776583,0.230264,0.000238697,0.017174,0.067945,0.0394061,0.110359,-0.0343845,0.180364
-0.00803677,0.232785,0.00217807,0.242619,-0.031205,0.124175,0.0781477,-0.0713744,0.125599
-0.00960528,0.23897,0.0048748,0.342046,-0.0592029,0.131732,0.0649199,-0.100365,0.115932
-0.0115459,0.244586,0.00774728,0.189359,-0.0713544,0.132137,0.0424215,-0.116976,0.137486
-0.0140529,0.24588,0.0101258,-0.0493251,-0.10331,0.101555,0.047718,-0.133619,0.103891
-0.0163556,0.243386,0.012656,-0.168207,-0.0647056,0.168128,0.0900001,-0.114295,0.0211027
-0.0189675,0.240186,0.0174554,-0.120074,-0.100245,0.316368,0.128529,-0.0826123,-0.0637473
-0.0231105,0.238926,0.0256311,0.00607606,-0.113003,0.480533,0.137869,-0.0676777,-0.13885
-0.0267162,0.240008,0.0370102,0.118888,0.0440089,0.611232,0.116585,-0.0560514,-0.197101
-0.0266354,0.242183,0.0502129,0.109536,0.285598,0.652345,0.0979528,-0.0745237,-0.206438
-0.0225837,0.242508,0.0635404,-0.0651941,0.390082,0.64368,0.120233,-0.106267,-0.165556
-0.01996,0.238358,0.0764281,-0.328589,0.118527,0.615615,0.122345,-0.107154,-0.144235
-0.024724,0.229956,0.0884689,-0.437743,-0.263338,0.583524,0.104149,-0.0834663,-0.255686
-0.0326639,0.222255,0.100165,-0.279701,-0.205018,0.589989,0.116388,-0.0428611,-0.424486
-0.0353576,0.21871,0.112903,-0.0385729,0.243742,0.695252,0.142952,0.0248472,-0.462786
-0.0302428,0.219338,0.129086,0.126507,0.580475,0.89215,0.18584,0.0776449,-0.332495
-0.0224256,0.222075,0.149378,0.186403,0.607261,1.07009,0.201484,0.0842065,-0.128105
-0.0166089,0.225546,0.172487,0.196156,0.487936,1.17392,0.197889,0.0714474,0.0215806
-0.0139171,0.228789,0.197477,0.158772,0.34955,1.25549,0.203083,0.0808019,0.124482
-0.013708,0.231048,0.223854,0.102093,0.289827,1.31102,0.207817,0.0867704,0.165596
-0.014372,0.231686,0.251124,-0.0274869,0.252844,1.35642,0.224513,0.0927168,0.194707
-0.0172972,0.228852,0.279733,-0.217306,0.116831,1.45412,0.25148,0.108864,0.200085
-0.023235,0.222687,0.310673,-0.327422,-0.0237589,1.57921,0.254364,0.136623,0.144386
-0.031828,0.215711,0.343454,-0.254978,-0.0835597,1.63955,0.217807,0.148063,0.0247153
-0.0396969,0.211279,0.377282,-0.0684116,0.00628899,1.69161,0.203797,0.158792,-0.0633205
-0.0463959,0.209995,0.412432,0.0867559,0.06398,1.76401,0.210232,0.182103,-0.0637158
-0.0522607,0.211344,0.449699,0.22803,0.115637,1.88113,0.222492,0.191403,-0.0356089
-0.0589584,0.214896,0.48934,0.33766,0.0424063,1.97039,0.214887,0.191502,0.0223133
-0.0674881,0.219919,0.530162,0.405982,-0.00588523,1.97046,0.184084,0.156719,0.0578151
-0.0772314,0.224979,0.56992,0.366462,-0.0962977,1.8622,0.147079,0.114367,0.100128
-0.0876598,0.228287,0.606709,0.250348,-0.125215,1.69618,0.133189,0.0653446,0.102426
-0.0979981,0.229173,0.639875,0.149335,-0.143,1.51905,0.122017,0.0464776,0.066762
-0.107316,0.229225,0.668997,0.166858,-0.118627,1.30638,0.096343,0.0293471,-0.0106567
-0.114548,0.230603,0.694116,0.240609,-0.0226706,1.13258,0.109914,0.0164823,-0.0678242
-0.119273,0.233358,0.716991,0.293276,0.0802981,1.06939,0.143109,0.0332632,-0.0790912
-0.121501,0.237335,0.739318,0.369867,0.214977,1.04372,0.152564,0.0297452,-0.0865128
-0.122015,0.24311,0.760904,0.457682,0.233892,0.966956,0.13205,0.0100398,-0.0720681
-0.122067,0.25045,0.780709,0.488502,0.253349,0.857678,0.129851,-0.0236751,-0.0438856
-0.121193,0.257457,0.798267,0.398335,0.26989,0.750959,0.142303,-0.0368051,-0.011122
-0.119578,0.262317,0.813581,0.26794,0.268582,0.668205,0.149117,-0.0490303,-0.0130746
-0.118408,0.265266,0.827149,0.192827,0.212784,0.606252,0.155625,-0.0483958,-0.0552232
-0.116539,0.267491,0.839678,0.164067,0.344542,0.584704,0.16199,-0.0393378,-0.120184
-0.111443,0.268042,0.852097,0.00198533,0.483,0.606687,0.18056,-0.0425899,-0.113758
-0.105891,0.264032,0.864221,-0.291141,0.302882,0.574812,0.139323,-0.0348623,-0.101219
-0.106096,0.25425,0.873041,-0.571879,-0.0425337,0.380377,0.104553,-0.0708221,-0.191444
-0.107894,0.241811,0.87847,-0.55453,0.0386616,0.314279,0.0719587,-0.0374098,-0.382976
-0.105427,0.23357,0.884976,-0.154107,0.400636,0.436306,0.0682249,0.0615914,-0.49685
-0.0955207,0.234947,0.896829,0.394176,0.868422,0.708486,0.088788,0.138325,-0.451157
-0.0787069,0.244702,0.914715,0.669176,1.20261,0.927444,0.0432786,0.185276,-0.234912
-0.0599153,0.256497,0.936316,0.630733,1.16635,1.07314,0.00881771,0.177323,0.00343651
-0.0599153,0.256497,0.936316,0.630733,1.16635,1.07314,0.00881771,0.177323,0.00343651
-0.0457428,0.266417,0.95962,0.47162,0.808938,1.11415,-0.0233913,0.166872,0.152127
-0.0411799,0.272966,0.983146,0.292011,0.284014,1.14746,-0.0215437,0.180752,0.214265
-0.0461076,0.27682,1.00859,0.22366,-0.0427462,1.30281,-0.00774165,0.222776,0.159317
-0.0556807,0.280428,1.03731,0.294683,-0.0794791,1.42877,-0.029133,0.242328,0.0732021
-0.0644401,0.285793,1.06749,0.414717,0.0583425,1.41809,-0.0681755,0.203244,0.035221
-0.0700043,0.292682,1.09639,0.43525,0.182389,1.3015,-0.0747816,0.154564,0.0862471
-0.0742489,0.298599,1.1227,0.318458,0.138427,1.18425,-0.0387362,0.128822,0.184378
-0.0795707,0.301646,1.14694,0.165138,0.0428666,1.1201,0.014939,0.120197,0.234878
-0.0860882,0.302176,1.17015,0.0912329,0.0213058,1.09603,0.0550171,0.1211,0.214034
-0.0914188,0.30209,1.19277,0.0979552,0.134855,1.05456,0.0550225,0.120072,0.164902
-0.0934391,0.302241,1.21427,0.0992198,0.295461,0.997795,0.0693596,0.10073,0.159904
-0.0930842,0.301574,1.2348,0.00472213,0.321162,0.971431,0.0968575,0.0824695,0.196449
-0.0931951,0.298707,1.25491,-0.106781,0.285912,0.977482,0.111843,0.0582003,0.197771
-0.0932212,0.293737,1.27486,-0.220394,0.290412,0.970441,0.108524,0.0368306,0.176401
-0.0929212,0.286479,1.29437,-0.319099,0.309546,0.960854,0.0866103,0.0131674,0.130964
-0.0922469,0.277696,1.31335,-0.384108,0.275304,0.933225,0.0548499,-0.0186751,0.0759936
-0.0924051,0.267922,1.3311,-0.427086,0.190377,0.864192,0.0263291,-0.0539818,0.00946426
-0.0931018,0.258103,1.34733,-0.403183,0.164726,0.787547,-0.0058305,-0.0828875,-0.0712624
-0.0932576,0.249292,1.36186,-0.336624,0.20267,0.70836,-0.0335507,-0.0949874,-0.138044
-0.0913727,0.242425,1.37551,-0.215482,0.334067,0.679229,-0.0566861,-0.0941706,-0.191097
-0.0858469,0.238915,1.38892,-0.010607,0.545816,0.654838,-0.0819618,-0.088623,-0.208985
-0.0764235,0.239753,1.40246,0.191308,0.687124,0.657216,-0.0956497,-0.0714512,-0.155661
-0.0665338,0.243714,1.41651,0.291475,0.63345,0.683471,-0.0961245,-0.0731444,-0.0610719
-0.0583988,0.248989,1.43118,0.318624,0.519882,0.704099,-0.110487,-0.0887963,-0.00999862
-0.0538704,0.25469,1.44589,0.328365,0.292123,0.683205,-0.124345,-0.108024,-0.0187394
-0.0543209,0.259685,1.45919,0.212672,-0.00292189,0.567772,-0.151475,-0.124755,-0.0746121
-0.0595062,0.261633,1.47,0.0550156,-0.189739,0.473291,-0.11075,-0.14869,-0.206563
-0.0648619,0.261654,1.47872,0.0120023,-0.0700109,0.368897,-0.0929225,-0.152973,-0.376369
-0.0648641,0.261053,1.48527,-0.0608582,0.23022,0.277558,-0.0886378,-0.12914,-0.445718
-0.0598668,0.257185,1.48993,-0.315366,0.358213,0.188014,-0.0788555,-0.120321,-0.40062
-0.0543849,0.247656,1.49155,-0.634876,0.175218,0.0112011,-0.0899701,-0.123016,-0.362632
-0.0534219,0.232799,1.48933,-0.823407,-0.0950152,-0.120008,-0.0550843,-0.0934257,-0.424466
-0.0548406,0.217424,1.48602,-0.676854,-0.0692411,-0.0997121,0.000361018,-0.013121,-0.531909
-0.0532795,0.208698,1.48566,-0.152535,0.271589,0.148533,0.0642905,0.0811491,-0.554688
-0.0440599,0.211553,1.49223,0.435307,0.760623,0.47462,0.10979,0.155214,-0.381275
-0.0292496,0.222601,1.50486,0.657978,0.952762,0.710715,0.118352,0.153598,-0.0618491
-0.0148908,0.235099,1.52138,0.595824,0.794643,0.85857,0.107636,0.110625,0.206575
-0.00890021,0.244853,1.53961,0.395498,0.196261,0.889094,0.107405,0.0748721,0.364696
-0.0163065,0.250372,1.55737,0.179135,-0.483365,0.822477,0.101735,0.0336983,0.379046
-0.0344103,0.251296,1.57323,-0.0370602,-0.876618,0.71909,0.0778481,0.0464657,0.263
-0.0555713,0.248746,1.58654,-0.146995,-0.859613,0.575558,0.0414889,0.07764,0.0891857
-0.0732259,0.244772,1.59632,-0.172922,-0.629192,0.400175,0.0318104,0.0916853,-0.0432563
-0.0831371,0.241447,1.60303,-0.0972377,-0.199104,0.303113,0.0686698,0.120791,-0.116192
-0.0847605,0.240263,1.60957,0.0464035,0.17654,0.360738,0.121992,0.166806,-0.0901644
-0.0806941,0.242184,1.61846,0.211205,0.40428,0.484504,0.148124,0.190705,0.0192475
-0.0747952,0.246694,1.62969,0.315545,0.448014,0.553892,0.138412,0.169966,0.167163
-0.0690261,0.252597,1.64142,0.341456,0.4023,0.529521,0.105204,0.143962,0.298328
-0.064736,0.258185,1.65206,0.278954,0.28865,0.464093,0.0915078,0.132477,0.392183
-0.0625779,0.262124,1.6613,0.170351,0.165786,0.407505,0.0934515,0.132515,0.430718
-0.0623943,0.263695,1.6695,0.0419774,0.0633766,0.38399,0.112643,0.14691,0.429223
-0.0638045,0.263023,1.67747,-0.0633161,0.00566842,0.387828,0.125579,0.155722,0.39681
-0.0638045,0.263023,1.67747,-0.0633161,0.00566842,0.387828,0.125579,0.155722,0.39681
-0.0661815,0.260671,1.68534,-0.117242,-0.0395359,0.38836,0.114711,0.155251,0.333578
-0.0687587,0.257535,1.69306,-0.14958,-0.0271648,0.379689,0.109194,0.146986,0.262664
-0.0716768,0.253098,1.70012,-0.261107,-0.0973126,0.330145,0.0932444,0.131065,0.20412
-0.0756329,0.245771,1.70596,-0.432886,-0.129914,0.291966,0.0950798,0.108691,0.11357
-0.0779938,0.234962,1.71089,-0.60671,0.015124,0.270281,0.0798633,0.109073,-0.0113904
-0.0775479,0.221348,1.7152,-0.707832,0.118678,0.25482,0.0489688,0.107622,-0.132066
-0.0759131,0.206347,1.7193,-0.76306,0.102861,0.267243,0.052274,0.0777347,-0.229996
-0.0761686,0.190049,1.7237,-0.836698,-0.0513012,0.27723,0.0103481,0.0556219,-0.316644
-0.0796872,0.172659,1.7272,-0.857922,-0.236953,0.190908,-0.0437883,0.0030254,-0.431065
-0.0858379,0.156331,1.72855,-0.743603,-0.330274,0.0808005,-0.0581658,-0.0264952,-0.546441
-0.091189,0.143587,1.72853,-0.52015,-0.175146,0.056001,-0.0534443,-0.0145899,-0.626692
-0.0925018,0.135361,1.72976,-0.299627,0.0533346,0.14588,-0.0553408,0.00825471,-0.59926
-0.0906181,0.130346,1.73246,-0.209438,0.127326,0.14245,-0.0932722,-0.0139434,-0.449304
-0.0889482,0.125826,1.73346,-0.251042,0.0443508,-0.0214546,-0.128699,-0.0767911,-0.303484
-0.0893195,0.12009,1.73,-0.361182,-0.127232,-0.273659,-0.155216,-0.0969798,-0.218695
-0.0919471,0.113161,1.72172,-0.376162,-0.191058,-0.466206,-0.137484,-0.0778916,-0.214695
-0.0928563,0.108242,1.7107,-0.193038,0.013087,-0.569589,-0.12985,-0.00975169,-0.251667
-0.0885003,0.108125,1.69897,0.0749203,0.292828,-0.576878,-0.11518,0.0691111,-0.198253
-0.0801782,0.112872,1.68837,0.292217,0.368766,-0.519404,-0.10633,0.121604,-0.0578341
-0.0736854,0.120543,1.67862,0.379494,0.132946,-0.523096,-0.133931,0.132947,0.08972
-0.0728867,0.128884,1.66808,0.364831,-0.171156,-0.597463,-0.180116,0.124759,0.171919
-0.0763587,0.136627,1.65544,0.321457,-0.296182,-0.717223,-0.221118,0.127169,0.191011
-0.0791899,0.143904,1.64007,0.29171,-0.188138,-0.856311,-0.239551,0.134939,0.1993
-0.0784965,0.150768,1.62211,0.243629,0.00248026,-0.969637,-0.213077,0.143132,0.238587
-0.0738159,0.156113,1.60232,0.133685,0.130483,-1.02104,-0.160379,0.142952,0.32365
-0.0683229,0.159175,1.58181,0.0393097,0.0716611,-1.02259,-0.117988,0.132488,0.396401
-0.0652961,0.16102,1.56146,0.0242524,-0.101663,-0.997832,-0.0797593,0.118546,0.429388
-0.0661997,0.163239,1.54184,0.0757136,-0.304334,-0.95028,-0.0537465,0.110253,0.429064
-0.0706336,0.166514,1.5232,0.123804,-0.423642,-0.911375,-0.055447,0.118612,0.401617
-0.0755276,0.170506,1.50517,0.134684,-0.343288,-0.90617,-0.0557805,0.104099,0.362191
-0.0781389,0.174123,1.48673,0.070667,-0.2488,-0.940403,-0.0472512,0.0821652,0.365068
-0.0797239,0.175484,1.46749,-0.0988365,-0.279025,-0.965471,-0.0314622,0.0668421,0.38984
-0.0836227,0.173113,1.44724,-0.302393,-0.478303,-1.01314,-0.0200791,0.0423359,0.360746
-0.0914181,0.167416,1.42566,-0.43359,-0.651162,-1.04565,-0.00480361,0.0179379,0.258131
-0.10077,0.160319,1.4041,-0.474722,-0.620834,-1.01131,-0.00345871,0.00486347,0.109793
-0.108847,0.152433,1.38257,-0.541818,-0.510044,-1.03419,-0.0278201,-0.0183534,0.00436002
-0.113405,0.143131,1.35979,-0.643401,-0.290752,-1.11649,-0.0331522,-0.0724296,-0.0825473
-0.11307,0.131699,1.33507,-0.773099,-0.00786029,-1.17246,-4.03449e-05,-0.0958844,-0.16152
-0.107876,0.117969,1.31055,-0.852804,0.191643,-1.08317,0.0423591,-0.0802719,-0.218823
-0.101428,0.103611,1.28878,-0.76372,0.182766,-0.920719,0.0833158,-0.0977314,-0.292838
-0.0976396,0.0933116,1.27111,-0.40413,-0.00210153,-0.734525,0.095733,-0.128061,-0.379439
-0.0979171,0.0910998,1.25816,0.0448028,-0.10257,-0.53522,0.114476,-0.124694,-0.419897
-0.0984916,0.0952631,1.24947,0.226972,-0.0254321,-0.376033,0.0983596,-0.129261,-0.375768
-0.0974996,0.0997804,1.24345,0.142079,0.0630905,-0.273528,0.0802595,-0.161722,-0.31193
-0.0954878,0.102398,1.23869,0.0974923,0.0825625,-0.236716,0.0581307,-0.181777,-0.300419
-0.0928586,0.10549,1.23399,0.174688,0.146461,-0.262407,0.0378885,-0.184241,-0.321672
-0.0881299,0.109996,1.22878,0.208227,0.269466,-0.29175,0.032415,-0.165326,-0.292219
-0.0810883,0.113478,1.22299,0.060718,0.360488,-0.314361,0.0535925,-0.147721,-0.218269
-0.0731132,0.113112,1.21698,-0.127808,0.357028,-0.271056,0.0973616,-0.12979,-0.176647
-0.0657021,0.110203,1.21208,-0.161939,0.334852,-0.179982,0.121577,-0.0896049,-0.21277
-0.0657021,0.110203,1.21208,-0.161939,0.334852,-0.179982,0.121577,-0.0896049,-0.21277
-0.0575869,0.10888,1.21007,0.0501695,0.480861,0.00271918,0.145456,-0.0317465,-0.254838
-0.0468975,0.113064,1.21294,0.388794,0.614787,0.281923,0.202556,0.0159606,-0.204484
-0.0353632,0.123574,1.22256,0.682792,0.620693,0.629525,0.237128,0.0528556,-0.0737062
-0.0275173,0.138607,1.23881,0.857043,0.355893,0.926746,0.236631,0.0572617,0.0569443
-0.0269492,0.156013,1.26017,0.924019,0.00928409,1.12397,0.214287,0.040253,0.146783
-0.0337446,0.17318,1.28401,0.842276,-0.257479,1.16329,0.151184,0.033308,0.181976
-0.0437866,0.187413,1.30777,0.676099,-0.285842,1.11815,0.104423,0.0273668,0.159084
-0.0525066,0.198657,1.33027,0.573628,-0.147714,1.03763,0.0797096,0.0413318,0.104531
-0.058328,0.208737,1.35128,0.566927,-0.0133611,0.9717,0.080345,0.0647377,0.0729128
-0.0619423,0.219697,1.37132,0.652448,0.0736334,0.923312,0.0906425,0.0799185,0.0681164
-0.0644065,0.232218,1.39065,0.706333,0.105046,0.885991,0.0997438,0.101047,0.127909
-0.0665263,0.244893,1.40953,0.669631,0.133423,0.870376,0.119395,0.109488,0.201461
-0.0682051,0.256099,1.42801,0.563738,0.155382,0.840728,0.123806,0.115385,0.262942
-0.0695949,0.264879,1.44562,0.430846,0.154875,0.799506,0.126104,0.116941,0.306278
-0.071279,0.271221,1.4622,0.321681,0.104942,0.762014,0.139767,0.117654,0.311523
-0.0738104,0.27593,1.47823,0.270051,0.0937477,0.748637,0.145051,0.137142,0.278675
-0.0754107,0.279755,1.49378,0.215475,0.165174,0.718567,0.144722,0.143644,0.245196
-0.0758572,0.281818,1.50879,0.0974742,0.209986,0.715365,0.169398,0.133663,0.217036
-0.0755586,0.281393,1.524,-0.0211054,0.235825,0.748369,0.176384,0.131881,0.167294
-0.0756374,0.279123,1.53974,-0.0800936,0.181965,0.782299,0.177621,0.119934,0.104163
-0.0774001,0.276054,1.556,-0.110425,0.099507,0.794463,0.154748,0.103875,0.0180654
-0.0799608,0.272181,1.572,-0.15856,0.0867197,0.776744,0.12761,0.0906098,-0.0837749
-0.0814759,0.267083,1.58757,-0.230917,0.185904,0.763453,0.102243,0.0950192,-0.175236
-0.080519,0.260391,1.60263,-0.323674,0.312759,0.745599,0.0553207,0.0973633,-0.242698
-0.0774962,0.251497,1.61694,-0.463038,0.32751,0.696438,0.0128647,0.0744917,-0.27135
-0.0748424,0.239936,1.62927,-0.593869,0.230992,0.584482,-0.0313733,0.0274352,-0.307077
-0.0737679,0.226673,1.63933,-0.647579,0.10166,0.497908,-0.0536573,0.00862676,-0.354998
-0.0748548,0.213381,1.64799,-0.603065,-0.00440142,0.450942,-0.061219,0.00250626,-0.411067
-0.076381,0.202019,1.65618,-0.465025,0.0503206,0.441439,-0.0776346,-0.000539869,-0.455444
-0.07511,0.193676,1.66442,-0.316794,0.233558,0.427367,-0.0990473,-0.00203681,-0.425882
-0.0711883,0.187475,1.67212,-0.263308,0.274132,0.369278,-0.118534,-0.0170057,-0.303793
-0.0676602,0.181859,1.67827,-0.257453,0.186314,0.25924,-0.154087,-0.0497023,-0.192523
-0.0654576,0.176714,1.68138,-0.23026,0.100749,0.0814666,-0.195633,-0.063874,-0.139355
-0.0631233,0.173009,1.68117,-0.126207,0.159067,-0.0677414,-0.221521,-0.0399496,-0.128387
-0.0579027,0.172434,1.67872,0.059639,0.321098,-0.163796,-0.229258,-0.000919804,-0.0972915
-0.0499895,0.175692,1.67495,0.239705,0.377885,-0.216509,-0.223078,0.037872,-0.0118176
-0.0431036,0.181986,1.67055,0.361487,0.200811,-0.243437,-0.223094,0.0677175,0.0957624
-0.0410938,0.189836,1.66551,0.387371,-0.101172,-0.298094,-0.234619,0.0907517,0.174962
-0.044707,0.197135,1.65871,0.304666,-0.368099,-0.412586,-0.261059,0.0997908,0.214637
-0.050916,0.202234,1.64884,0.154891,-0.423895,-0.590899,-0.292047,0.113502,0.211764
-0.0558069,0.204279,1.63499,-0.0168876,-0.332962,-0.771289,-0.292031,0.132884,0.20098
-0.0577649,0.203765,1.61782,-0.11876,-0.227963,-0.898222,-0.256404,0.148586,0.203447
-0.0579157,0.202305,1.59879,-0.120625,-0.183909,-0.950843,-0.197417,0.157074,0.223951
-0.0581308,0.201638,1.57909,-0.0519939,-0.243283,-0.98063,-0.1495,0.149066,0.26138
-0.0596096,0.202511,1.55902,0.0176395,-0.307858,-0.985448,-0.101555,0.134205,0.303951
-0.0624494,0.204429,1.53944,0.0439636,-0.370508,-0.942233,-0.0544912,0.130346,0.352604
-0.0665101,0.205837,1.52065,-0.0384013,-0.411226,-0.912869,-0.0554405,0.143382,0.402248
-0.0705675,0.205269,1.50189,-0.139618,-0.375731,-0.929747,-0.0515004,0.123051,0.409629
-0.0740159,0.2029,1.4822,-0.239978,-0.375461,-0.987452,-0.0369131,0.102481,0.398863
-0.0775245,0.198196,1.46141,-0.394467,-0.408128,-1.00215,-0.00603949,0.103533,0.391343
-0.0829428,0.190188,1.44094,-0.557112,-0.546519,-0.931407,0.0463044,0.100832,0.34282
-0.0829428,0.190188,1.44094,-0.557112,-0.546519,-0.931407,0.0463044,0.100832,0.34282
-0.0922193,0.179882,1.42187,-0.618637,-0.722996,-0.85853,0.0657462,0.0702099,0.219079
-0.104457,0.169297,1.40383,-0.610475,-0.796009,-0.810657,0.0564508,0.0327171,0.0726921
-0.117228,0.158492,1.38637,-0.674217,-0.760173,-0.787472,0.0607762,-0.0138471,-0.0361719
-0.128468,0.14597,1.36898,-0.77262,-0.598431,-0.768425,0.0685861,-0.0538886,-0.147862
-0.1349,0.132535,1.35184,-0.777118,-0.289132,-0.732434,0.0693469,-0.066446,-0.27603
-0.13682,0.119247,1.33619,-0.7486,-0.132267,-0.619583,0.101184,-0.0739825,-0.337731
-0.137579,0.106588,1.32349,-0.678302,-0.0937154,-0.466684,0.140854,-0.115019,-0.384577
-0.138978,0.095122,1.31377,-0.584006,-0.146511,-0.335003,0.144695,-0.150078,-0.439671
-0.140707,0.0858812,1.30696,-0.426639,-0.0709832,-0.216573,0.13463,-0.184869,-0.521833
-0.139793,0.0797175,1.30221,-0.25367,0.152908,-0.178101,0.0982915,-0.209994,-0.583395
-0.133547,0.0765402,1.29838,-0.122777,0.438958,-0.15979,0.0965973,-0.235653,-0.580715
-0.122686,0.0752216,1.29545,-0.0557821,0.604661,-0.105256,0.114815,-0.22444,-0.511345
-0.110047,0.0748014,1.29424,0.00852952,0.634044,-0.00583781,0.129965,-0.192785,-0.433877
-0.0983055,0.0759919,1.29525,0.131772,0.552433,0.090439,0.138712,-0.174478,-0.375406
-0.0875768,0.079874,1.29833,0.286687,0.579201,0.181937,0.123609,-0.144408,-0.324315
-0.0753783,0.0870215,1.30373,0.478382,0.695572,0.305696,0.119807,-0.096621,-0.228064
-0.0611508,0.098199,1.31223,0.685421,0.813265,0.470468,0.137967,-0.0470088,-0.0753576
-0.0452763,0.112348,1.32428,0.771134,0.883266,0.660499,0.148842,-0.00988213,0.0909439
-0.0310779,0.127092,1.34015,0.756512,0.666812,0.862327,0.163299,-3.55691e-05,0.225587
-0.0249796,0.141491,1.3599,0.753883,0.200517,1.05239,0.186104,0.00755087,0.271741
-0.0276052,0.156572,1.38287,0.82972,-0.0724771,1.17347,0.166546,0.0135687,0.217967
-0.033489,0.172982,1.40755,0.87905,-0.0731929,1.20678,0.120965,0.0343946,0.155742
-0.0382962,0.189134,1.43232,0.813216,0.0286731,1.16925,0.0864628,0.0480853,0.146975
-0.0420051,0.203116,1.45607,0.681086,0.0562343,1.10467,0.0812296,0.0499429,0.152026
-0.0455604,0.21476,1.47842,0.595346,0.0483232,1.04112,0.088581,0.0638976,0.139176
-0.0492087,0.225649,1.49998,0.609964,0.0679261,1.02513,0.10147,0.0989225,0.118809
-0.0520272,0.237525,1.52185,0.689816,0.17329,1.05132,0.113273,0.134163,0.129467
-0.0524531,0.250695,1.54463,0.729003,0.327706,1.08963,0.108179,0.163818,0.195328
-0.0511194,0.263411,1.56796,0.643855,0.383879,1.10007,0.102298,0.1754,0.299375
-0.049853,0.273574,1.59085,0.472393,0.352131,1.04685,0.0876063,0.168428,0.376456
-0.0490128,0.279858,1.6119,0.254415,0.294788,0.947705,0.070723,0.157124,0.410182
-0.0493405,0.28219,1.63077,0.0802507,0.189163,0.87001,0.0957402,0.153063,0.392003
-0.0515565,0.282167,1.64908,0.0256653,0.118025,0.912426,0.150997,0.179225,0.323527
-0.0546329,0.281637,1.66905,0.0145385,0.131743,1.01463,0.166682,0.207677,0.25966
-0.0587488,0.27984,1.69084,-0.0910322,0.0428097,1.08534,0.17339,0.18793,0.225997
-0.0649204,0.275135,1.71351,-0.243757,-0.0390939,1.11505,0.177791,0.137842,0.161503
-0.0723246,0.267409,1.73598,-0.371768,-0.0930022,1.09187,0.166983,0.108487,0.069161
-0.0803074,0.257483,1.7573,-0.455195,-0.144902,1.04015,0.154527,0.0824364,-0.0491288
-0.0877215,0.246326,1.77747,-0.494216,-0.0705424,1.01111,0.151295,0.075172,-0.171686
-0.0917531,0.234373,1.79724,-0.526648,0.168261,1.02382,0.164162,0.0756778,-0.25572
-0.089555,0.221676,1.81743,-0.556362,0.507998,1.05783,0.142957,0.0773626,-0.298551
-0.081611,0.208654,1.83818,-0.564822,0.692564,1.08539,0.131159,0.0440721,-0.27374
-0.0723007,0.195957,1.85961,-0.540859,0.650437,1.10588,0.114679,0.00600028,-0.223224
-0.0646302,0.183901,1.88111,-0.52668,0.519914,1.08163,0.0915418,-0.035243,-0.198022
-0.0595264,0.171631,1.90225,-0.588266,0.364943,1.08889,0.087258,-0.0613581,-0.187916
-0.0575989,0.1575,1.9239,-0.700303,0.179249,1.13202,0.0642093,-0.0725048,-0.205635
-0.0590863,0.141521,1.94603,-0.762988,-0.0067351,1.15174,0.0574087,-0.105792,-0.269019
-0.063701,0.124958,1.96823,-0.759904,-0.167889,1.14432,0.0105646,-0.129716,-0.35568
-0.0711306,0.108531,1.98925,-0.735944,-0.316016,1.04867,-0.0648608,-0.158131,-0.461523
-0.0788881,0.0932779,2.00765,-0.631602,-0.234515,0.892636,-0.11987,-0.185773,-0.588132
-0.0788881,0.0932779,2.00765,-0.631602,-0.234515,0.892636,-0.11987,-0.185773,-0.588132
-0.0821072,0.0816545,2.02265,-0.390104,0.0725073,0.695081,-0.168197,-0.168238,-0.674353
-0.0773851,0.0761494,2.03484,-0.0433786,0.504732,0.598406,-0.157505,-0.120595,-0.658333
-0.0639943,0.0785978,2.04754,0.380445,0.911442,0.668455,-0.120893,-0.0433703,-0.512666
-0.0451023,0.0891526,2.06237,0.743126,1.04604,0.750487,-0.136,0.0255884,-0.2662
-0.0274674,0.106141,2.07832,0.996733,0.837546,0.766647,-0.166538,0.0428159,-0.0287383
-0.0170644,0.126976,2.0936,1.09145,0.356523,0.694054,-0.192363,0.0504023,0.150359
-0.0166855,0.148091,2.10657,1.01902,-0.110437,0.548344,-0.214852,0.0597202,0.246989
-0.023033,0.166413,2.11601,0.831128,-0.331944,0.346461,-0.226265,0.0719875,0.261177
-0.0301668,0.181155,2.1214,0.673404,-0.253795,0.150004,-0.21879,0.0933283,0.217472
-0.033674,0.193605,2.12329,0.594945,-0.0603103,0.014007,-0.178051,0.12448,0.195574
-0.0331671,0.205474,2.12342,0.610938,0.104764,-0.0234321,-0.109993,0.15824,0.213701
-0.030042,0.218553,2.12372,0.713493,0.196115,0.0193884,-0.05016,0.18305,0.267154
-0.026811,0.233761,2.12526,0.80621,0.143444,0.0901659,-0.00570539,0.200266,0.357417
-0.025883,0.250113,2.12826,0.832009,0.0108579,0.151911,0.0211839,0.195039,0.444329
-0.0282582,0.266435,2.13226,0.803149,-0.141922,0.188823,0.0408074,0.185017,0.494024
-0.0338078,0.281205,2.13679,0.674884,-0.281397,0.195763,0.0379212,0.195512,0.51187
-0.0406707,0.292682,2.14116,0.482013,-0.258369,0.179901,0.0383201,0.192497,0.477342
-0.0460807,0.300024,2.14503,0.260841,-0.178996,0.155583,0.0504002,0.18098,0.43074
-0.0507746,0.302487,2.14858,-0.00162385,-0.215816,0.185252,0.0731525,0.171842,0.385467
-0.0579283,0.300021,2.15326,-0.202848,-0.357844,0.273237,0.0826077,0.150505,0.291542
-0.067049,0.29461,2.15881,-0.306488,-0.3572,0.276049,0.0447183,0.110557,0.1567
-0.0751489,0.286957,2.16298,-0.434881,-0.316056,0.162405,-0.00515543,0.0585631,0.0490234
-0.0800808,0.276817,2.16365,-0.573949,-0.151589,-0.0103242,-0.0324709,0.00687709,-0.0546719
-0.0805454,0.264335,2.16147,-0.677619,0.0627466,-0.0724046,-0.0180698,0.00238636,-0.127127
-0.0768228,0.251037,2.15969,-0.640275,0.277813,0.0268968,0.0254525,0.0139421,-0.175605
-0.0701464,0.239704,2.16104,-0.467398,0.41619,0.189345,0.0501712,0.000980079,-0.167501
-0.0622786,0.231993,2.16583,-0.283776,0.440342,0.326778,0.0420163,-0.0277725,-0.0949609
-0.0565869,0.227029,2.17331,-0.190559,0.306739,0.420546,0.0221007,-0.0631087,0.0189987
-0.0536088,0.222735,2.18205,-0.206352,0.197472,0.451911,0.00507931,-0.0983308,0.100101
-0.0521521,0.217403,2.19106,-0.295177,0.142672,0.451425,-0.00822633,-0.11858,0.149541
-0.0520254,0.209816,2.19977,-0.413742,0.0539557,0.439215,-0.0127219,-0.134722,0.159912
-0.0530714,0.200995,2.20831,-0.402036,0.0401779,0.450068,-0.000893123,-0.147127,0.0958138
-0.0530646,0.193666,2.21741,-0.276928,0.13586,0.488329,-0.000487808,-0.12549,0.0303543
-0.0519968,0.189045,2.22788,-0.137116,0.152758,0.566153,0.030677,-0.114737,0.0102757
-0.0513111,0.186828,2.23992,-0.0253031,0.140764,0.621487,0.0412256,-0.120135,0.0025149
-0.0511995,0.186417,2.25294,0.0401662,0.103326,0.671056,0.0541967,-0.121515,-0.0159733
-0.0519614,0.186871,2.2675,0.0810989,0.113079,0.764363,0.0586938,-0.094656,-0.058485
-0.0519085,0.188301,2.28373,0.149612,0.203106,0.816987,0.039234,-0.0800976,-0.12073
-0.0502705,0.190985,2.30071,0.192137,0.26249,0.841806,0.0387613,-0.0831537,-0.149443
-0.0491054,0.193644,2.31827,0.157541,0.176607,0.871944,0.0472985,-0.084816,-0.148429
-0.0512492,0.195245,2.33584,0.081565,-0.0962304,0.832657,0.0280214,-0.0928275,-0.167734
-0.0590356,0.195166,2.35164,0.00922821,-0.321367,0.723244,-0.00701438,-0.0888468,-0.244219
-0.0666525,0.194577,2.36524,0.0329385,-0.11676,0.618709,-0.00781954,-0.0670855,-0.356636
-0.0666,0.195148,2.37724,0.108381,0.359525,0.572622,0.0119886,-0.0257231,-0.380409
-0.0575674,0.197354,2.38926,0.173784,0.748397,0.606605,0.0710062,0.00212063,-0.291284
-0.0441771,0.200417,2.40265,0.197007,0.803185,0.701583,0.123204,0.0253871,-0.134422
-0.0327779,0.204442,2.41826,0.280802,0.630289,0.810834,0.131546,0.0377833,-0.0191543
-0.0259242,0.210982,2.43608,0.43448,0.430923,0.928264,0.132158,0.069573,0.0491678
-0.0228013,0.221067,2.45708,0.625754,0.356524,1.10834,0.139752,0.122805,0.0976181
-0.0206968,0.234059,2.48156,0.690839,0.400083,1.24861,0.137685,0.151484,0.166204
-0.0197257,0.245977,2.50863,0.519476,0.302337,1.36613,0.139751,0.150242,0.245132
-0.0239756,0.253334,2.53797,0.298314,-0.0356922,1.46875,0.166885,0.135658,0.249161
-0.0362187,0.257453,2.56943,0.22602,-0.386804,1.56608,0.175795,0.147914,0.137245
-0.0542638,0.261052,2.60184,0.276161,-0.538028,1.56075,0.142243,0.171763,-0.00159639
-0.073445,0.264089,2.63479,0.197105,-0.53023,1.60747,0.151752,0.189939,-0.0807898
-0.0922626,0.263965,2.6682,0.0664333,-0.460344,1.61213,0.153012,0.175934,-0.159699
-0.108397,0.261924,2.70113,0.077561,-0.293468,1.58447,0.15639,0.157194,-0.26382
-0.120692,0.261256,2.73386,0.237617,-0.0966716,1.58217,0.15942,0.160928,-0.319877
-0.129725,0.264383,2.76756,0.482092,0.0599805,1.62651,0.169804,0.171684,-0.296168
-0.136919,0.271679,2.80294,0.674871,0.133808,1.66293,0.169678,0.171669,-0.19526
-0.143836,0.281184,2.83881,0.733423,0.147475,1.62754,0.152177,0.14317,-0.0798635
-0.150387,0.291123,2.87365,0.739202,0.179028,1.53251,0.122856,0.116816,-0.000445247
-0.155862,0.301096,2.90603,0.7138,0.217108,1.37747,0.103875,0.0944187,0.0490568
-0.15938,0.310197,2.93453,0.603843,0.270141,1.17985,0.0954824,0.0693297,0.0997656
-0.160859,0.317639,2.9592,0.511422,0.340535,1.00523,0.0931174,0.0683672,0.119505
-0.160696,0.324098,2.97931,0.446053,0.290798,0.800387,0.100436,0.0521881,0.129817
-0.160412,0.330468,2.99559,0.435767,0.271092,0.616566,0.10935,0.0378948,0.100373
-0.158678,0.337124,3.00762,0.388674,0.308169,0.39906,0.0928443,0.047876,0.0741424
-0.153651,0.342613,3.01468,0.236684,0.429853,0.168027,0.0697658,0.0664335,0.0592931
-0.144144,0.344787,3.01603,-0.00166721,0.585046,-0.0698906,0.0467054,0.0765367,0.0289824
-0.128815,0.343457,3.01248,-0.15243,0.849645,-0.227881,0.0493627,0.09979,-0.042859
-0.107279,0.340756,3.00677,-0.171916,1.09932,-0.252564,0.048396,0.145052,-0.0818065
-0.0824432,0.338071,3.00199,-0.138739,1.20014,-0.16599,0.0393585,0.165836,-0.0612882
-0.0585063,0.335451,2.99885,-0.159484,1.05463,-0.126771,-0.0159685,0.152468,-0.004421
-0.0384371,0.331497,2.99614,-0.247377,0.897568,-0.109481,-0.0549273,0.117588,0.0078004
-0.0198674,0.325927,2.99416,-0.317554,0.90341,-0.0529116,-0.0781189,0.113781,-0.00789535
-0.0198674,0.325927,2.99416,-0.317554,0.90341,-0.0529116,-0.0781189,0.113781,-0.00789535
-0.00260087,0.318915,2.99414,-0.385659,0.797968,0.0699815,-0.0848411,0.125609,9.49502e-05
0.010436,0.311086,2.99731,-0.390635,0.599602,0.232041,-0.0807814,0.107774,-0.0155488
0.017588,0.303883,3.00375,-0.327137,0.3053,0.371736,-0.0893063,0.0895565,-0.0495669
0.0186838,0.299296,3.01365,-0.126724,0.136292,0.578488,-0.0730126,0.0697954,-0.116644
0.0171314,0.299661,3.02778,0.133381,0.142955,0.763894,-0.100947,0.0877839,-0.148585
0.015142,0.304492,3.04513,0.303223,0.164524,0.897629,-0.122111,0.0730626,-0.091993
0.0118342,0.31121,3.06442,0.327234,0.0661689,0.948402,-0.130345,0.040555,0.0091176
0.00591266,0.317527,3.08435,0.280637,-0.0318478,0.953316,-0.13611,0.0262687,0.0740325
-0.00159164,0.322415,3.10388,0.203123,-0.0986473,0.894438,-0.151292,0.00715074,0.0983588
-0.00956344,0.325486,3.12137,0.107689,-0.146829,0.750992,-0.179553,-0.0146728,0.111148
-0.0173831,0.326291,3.13504,-0.00648221,-0.193774,0.54369,-0.182479,-0.0417266,0.108899
-0.0245849,0.325085,-3.13901,-0.0892425,-0.232484,0.334334,-0.154668,-0.0534286,0.0878554
-0.0310712,0.322619,-3.13369,-0.129403,-0.237433,0.196076,-0.106553,-0.0400805,0.0515425
-0.0365766,0.319856,-3.13017,-0.129312,-0.200738,0.16225,-0.059494,-0.012108,0.0174476
-0.0412119,0.317529,-3.12716,-0.0882632,-0.172053,0.128414,-0.0421582,-0.0107625,-0.00889623
-0.0451258,0.316199,-3.12512,-0.0351289,-0.149381,0.0607427,-0.0425293,-0.0247219,-0.0233216
-0.0475191,0.315828,-3.12504,-0.00641512,-0.0962243,-0.0562368,-0.0480642,-0.0341993,-0.018551
-0.0485335,0.315654,-3.12751,-0.033574,-0.088286,-0.173053,-0.0305427,-0.0347308,0.00963962
-0.0488531,0.314591,-3.13216,-0.099195,-0.0819838,-0.262735,-0.00693823,-0.025503,0.0204673
-0.0484016,0.312631,-3.13841,-0.120309,-0.049415,-0.319969,0.0102861,-0.00937751,-0.00242162
-0.0467533,0.311107,3.13784,-0.068835,0.0209883,-0.336335,0.022749,0.00707126,-0.0299411
-0.0437984,0.311003,3.13068,0.00843944,0.0665648,-0.358086,0.0215729,0.0105119,-0.03793
-0.0399064,0.312068,3.12259,0.0494345,0.0718744,-0.422404,0.00336194,0.0046438,-0.0159454
-0.0357868,0.313599,3.11316,0.0648682,0.0638024,-0.481249,0.0147776,-0.000338256,0.0148141
-0.0316424,0.315232,3.10306,0.0671265,0.0419011,-0.477578,0.0263093,0.0134517,0.0383071
-0.027851,0.317032,3.09333,0.0866549,0.0213145,-0.459559,0.0206613,0.0164746,0.0480173
-0.0248395,0.318989,3.08334,0.0749628,-0.0380817,-0.509164,0.00190124,0.00458562,0.064174
-0.0241407,0.320332,3.07229,0.036245,-0.204936,-0.545427,0.00366913,-0.00343221,0.0792714
-0.0252134,0.320885,3.06057,-0.00979143,-0.241126,-0.569458,0.00544554,-0.00115266,0.0558482
-0.0247695,0.320159,3.04827,-0.0948673,-0.115849,-0.593758,-0.00324024,0.00346866,0.0290792
-0.0210849,0.317929,3.03547,-0.157731,0.0762159,-0.624187,-0.0148396,-0.0088878,0.00217938
-0.0150313,0.314327,3.02215,-0.216924,0.0927674,-0.625737,-0.0125002,-0.00321677,0.00646979
-0.00968319,0.310386,3.00943,-0.173591,0.0314162,-0.580227,-0.00449729,-0.00876781,-0.00691998
-0.00655684,0.308387,2.99782,-0.0314394,-0.0578439,-0.527165,-0.0140772,-0.000112385,-0.0247047
-0.0047634,0.308945,2.98732,0.0651032,-0.0731318,-0.476197,-0.0309846,0.000754923,-0.0175403
-0.00288748,0.310371,2.97777,0.059802,-0.0175343,-0.441177,-0.0482606,-0.00603491,0.0157386
0.000249898,0.310782,2.96864,-0.0293407,0.0427552,-0.43379,-0.0727172,-0.0132273,0.0501477
0.00418106,0.309375,2.95972,-0.103319,0.0575045,-0.414577,-0.0632935,-0.0358227,0.0682078
0.00668686,0.306915,2.95131,-0.132675,-0.0797703,-0.402475,-0.0620384,-0.0556842,0.0732288
0.00593406,0.304132,2.94244,-0.142079,-0.257584,-0.456706,-0.0784461,-0.0946241,0.0382581
0.0022486,0.300836,2.93216,-0.191142,-0.405865,-0.524984,-0.0902366,-0.0994176,-0.00290591
-0.00237813,0.296354,2.92074,-0.259274,-0.381775,-0.557078,-0.0833731,-0.0922273,-0.0664526
-0.00556523,0.290873,2.90926,-0.291244,-0.251442,-0.542957,-0.0750824,-0.0721747,-0.117933
-0.00612435,0.285004,2.89841,-0.299689,-0.115238,-0.504079,-0.0725987,-0.0671967,-0.129194
-0.00473782,0.279713,2.88823,-0.213246,-0.00642743,-0.474487,-0.05787,-0.0891699,-0.130703
-0.000906645,0.277099,2.87866,-0.0476964,0.102735,-0.446261,-0.0588051,-0.0890125,-0.0940709
0.00355414,0.277267,2.86997,0.0512937,0.0833785,-0.39019,-0.0409855,-0.08728,0.00917971
0.00611831,0.278442,2.86269,0.057547,-0.0250963,-0.313257,-0.0229114,-0.0926959,0.107234
0.00662084,0.27907,2.85669,0.00643393,-0.0781335,-0.267208,-0.0237749,-0.104589,0.160388
0.00659122,0.278672,2.85131,-0.0412024,-0.0735747,-0.259086,-0.027745,-0.120871,0.177877
0.00657989,0.277349,2.84567,-0.0843056,-0.083886,-0.289698,-0.0340994,-0.129071,0.186038
0.00639975,0.275102,2.83933,-0.141794,-0.114488,-0.323298,-0.0193731,-0.140021,0.188772
0.00591827,0.27137,2.8324,-0.239077,-0.0799686,-0.356042,0.00818385,-0.142425,0.181558
0.00728814,0.264964,2.82501,-0.389248,0.00898479,-0.34995,0.0200506,-0.139569,0.151783
0.00728814,0.264964,2.82501,-0.389248,0.00898479,-0.34995,0.0200506,-0.139569,0.151783
0.0102707,0.256528,2.81838,-0.427737,0.0987559,-0.301216,0.0297994,-0.142455,0.0885941
0.0131799,0.24846,2.81273,-0.368158,0.0461423,-0.256113,0.0376707,-0.141128,0.0446934
0.0137488,0.24178,2.8082,-0.290315,-0.125911,-0.186452,0.0405456,-0.140528,0.0207942
0.0106375,0.237409,2.80525,-0.134521,-0.213202,-0.109606,0.054511,-0.145628,-0.0348488
0.00841584,0.236227,2.80353,-0.00735002,-0.0288171,-0.0612504,0.02879,-0.12453,-0.0772908
0.00965132,0.23573,2.80291,-0.0682739,0.123508,0.00222319,0.0233764,-0.118941,-0.0389773
0.0123597,0.233168,2.80378,-0.181682,0.154182,0.0761097,0.0361776,-0.129336,-0.0199939
0.0147641,0.229497,2.80612,-0.16534,0.136042,0.147358,0.0448734,-0.128912,-0.0619696
0.0163113,0.227199,2.80992,-0.0753187,0.090173,0.221927,0.0565726,-0.136811,-0.112605
0.0158624,0.226112,2.81522,-0.0646506,-0.014646,0.288696,0.0496513,-0.129631,-0.125324
0.0131791,0.224178,2.82141,-0.152746,-0.101892,0.306224,0.0492086,-0.128021,-0.138007
0.0092083,0.219892,2.82739,-0.292405,-0.176868,0.260689,0.0345164,-0.127701,-0.178173
0.00379325,0.212071,2.83181,-0.505848,-0.260142,0.168968,0.0408932,-0.131098,-0.245341
-0.00222057,0.19977,2.83478,-0.714154,-0.263617,0.135504,0.0736181,-0.127362,-0.357628
-0.00662947,0.184831,2.83772,-0.74974,-0.103946,0.174543,0.0876017,-0.097546,-0.49412
-0.00818072,0.171657,2.84245,-0.52548,0.0164688,0.315244,0.112095,-0.0558088,-0.579564
-0.00774563,0.164602,2.85049,-0.17569,0.158198,0.487628,0.127483,-0.0226027,-0.581387
-0.00440319,0.164327,2.86223,0.148394,0.396138,0.672952,0.126887,0.00175348,-0.486519
0.00410295,0.169899,2.87712,0.391466,0.705444,0.787361,0.11084,0.020386,-0.2941
0.0180022,0.178579,2.89367,0.42867,0.938159,0.855526,0.0910345,0.0397678,-0.0493722
0.0332939,0.186776,2.91164,0.340016,0.865322,0.941919,0.100851,0.037285,0.153969
0.0428818,0.193335,2.93174,0.243463,0.416115,1.07167,0.136031,0.0416502,0.272413
0.0407847,0.198818,2.95491,0.226271,-0.155201,1.23038,0.173317,0.0469522,0.257943
0.0291305,0.204702,2.98095,0.265866,-0.432755,1.33737,0.1736,0.0514195,0.153297
0.0144727,0.210686,3.00875,0.270876,-0.422607,1.39679,0.151711,0.0707335,0.0569937
0.00154068,0.216382,3.03719,0.294278,-0.250249,1.38126,0.118963,0.0736752,-0.0185902
-0.00686338,0.222865,3.06457,0.364258,-0.0228538,1.29776,0.0974223,0.0688185,-0.053243
-0.0122187,0.230404,3.0906,0.408891,0.0633738,1.24794,0.121408,0.0757678,-0.00960696
-0.0166636,0.238264,3.11627,0.412443,0.0826975,1.25402,0.154376,0.089196,0.0591081
-0.0201838,0.246024,-3.14084,0.405148,0.196409,1.27109,0.170255,0.0934027,0.103068
-0.0222057,0.253603,-3.1144,0.414471,0.254893,1.2795,0.162485,0.0938342,0.162982
-0.023334,0.261303,-3.08833,0.408635,0.28973,1.22486,0.14873,0.0812767,0.229234
-0.0238016,0.268469,-3.06368,0.356748,0.314162,1.14034,0.136854,0.0823481,0.301353
-0.0236216,0.274033,-3.04092,0.246065,0.304866,1.04618,0.122042,0.0948045,0.360246
-0.0236293,0.277231,-3.01999,0.121039,0.265786,0.970628,0.112202,0.115643,0.394547
-0.024031,0.278199,-3.00026,0.023406,0.231233,0.93342,0.120334,0.132427,0.397462
-0.0251354,0.277354,-2.98118,-0.0689278,0.162555,0.910109,0.121066,0.143609,0.381737
-0.0281724,0.274564,-2.96247,-0.159188,0.0541946,0.909663,0.121535,0.143258,0.329654
-0.0333005,0.270429,-2.94351,-0.191513,-0.0569343,0.935878,0.11706,0.147852,0.239154
-0.0403341,0.265914,-2.92444,-0.199605,-0.142909,0.909081,0.0839345,0.142461,0.142397
-0.0479546,0.260561,-2.90692,-0.276018,-0.141625,0.800551,0.0488816,0.103082,0.0398265
-0.0541403,0.253034,-2.8922,-0.40903,-0.104773,0.666467,0.0137554,0.0940463,-0.0771759
-0.0581113,0.243281,-2.88015,-0.488026,0.0272566,0.563235,0.00590755,0.0881476,-0.213794
-0.0584651,0.232752,-2.86978,-0.498989,0.164347,0.52483,0.0165882,0.0823256,-0.327928
-0.0572581,0.222003,-2.85963,-0.533213,0.152186,0.528758,0.0105953,0.0796661,-0.370577
-0.0579813,0.209814,-2.85006,-0.636689,-0.0402408,0.46148,-0.0428399,0.0414533,-0.403151
-0.0616854,0.19635,-2.84319,-0.6498,-0.163251,0.279696,-0.10589,-0.0248796,-0.5066
-0.0649183,0.183964,-2.84003,-0.564133,-0.0548122,0.132362,-0.129673,-0.03512,-0.598595
-0.0630828,0.173824,-2.83835,-0.445778,0.267775,0.106398,-0.136899,-0.0137872,-0.59613
-0.0569648,0.165306,-2.83704,-0.417123,0.301573,0.060225,-0.160547,-0.0191009,-0.45264
-0.0528895,0.156665,-2.83764,-0.452022,0.0834211,-0.0907963,-0.183195,-0.0824549,-0.324358
-0.0527382,0.147844,-2.8422,-0.443897,-0.118501,-0.319488,-0.215272,-0.11455,-0.288255
-0.0540211,0.140667,-2.85112,-0.294472,-0.0868434,-0.508468,-0.225912,-0.103662,-0.318039
-0.0515959,0.138256,-2.86236,0.00358308,0.187965,-0.582236,-0.21697,-0.0439924,-0.312801
-0.0515959,0.138256,-2.86236,0.00358308,0.187965,-0.582236,-0.21697,-0.0439924,-0.312801
-0.0436208,0.141894,-2.87426,0.293351,0.426413,-0.608245,-0.215758,0.01979,-0.202718
-0.0327407,0.15065,-2.88637,0.530285,0.450834,-0.629576,-0.21431,0.0545914,-0.0339203
-0.0232577,0.163316,-2.89936,0.683325,0.258831,-0.695871,-0.238223,0.0831998,0.122291
-0.0191586,0.177579,-2.91398,0.694127,-0.107595,-0.776874,-0.244785,0.105313,0.252664
-0.0219332,0.190923,-2.93032,0.600464,-0.451675,-0.857935,-0.240872,0.126792,0.308635
-0.0293414,0.201936,-2.94847,0.45477,-0.621898,-0.965016,-0.258887,0.162084,0.302073
-0.0381648,0.210514,-2.96931,0.346786,-0.675043,-1.11395,-0.271036,0.177011,0.274041
-0.0456191,0.217913,-2.99338,0.299079,-0.566977,-1.27938,-0.249909,0.182105,0.248345
-0.0484239,0.2246,-3.02069,0.24148,-0.313936,-1.40673,-0.207297,0.202499,0.260301
-0.0463169,0.230299,-3.04971,0.187172,-0.163134,-1.44317,-0.145687,0.212842,0.317342
-0.0434392,0.234872,-3.07905,0.151749,-0.25107,-1.42846,-0.0804169,0.207572,0.375893
-0.0432021,0.239259,-3.10766,0.170118,-0.394361,-1.37233,-0.0244936,0.196852,0.39265
-0.0455005,0.244196,-3.13479,0.204918,-0.474179,-1.28975,0.00850608,0.198716,0.391996
-0.048355,0.249493,3.12288,0.188958,-0.445313,-1.22207,0.0168255,0.196147,0.406122
-0.0510373,0.253226,3.09807,0.0409697,-0.463733,-1.21558,0.0198014,0.164759,0.422735
-0.0549804,0.252596,3.07255,-0.246177,-0.589713,-1.2505,0.0442673,0.121607,0.418464
-0.0616484,0.246854,3.04668,-0.443988,-0.691298,-1.21255,0.0930211,0.0877991,0.312754
-0.0694588,0.23895,3.02181,-0.490033,-0.6817,-1.17124,0.0919977,0.0766178,0.171896
-0.0762364,0.230427,2.99673,-0.557578,-0.569469,-1.21832,0.0757974,0.0155641,0.0720442
-0.0807913,0.219517,2.97014,-0.757425,-0.470697,-1.2842,0.0908975,-0.0447085,0.0200452
-0.0824914,0.204082,2.94243,-0.999742,-0.2974,-1.27168,0.101089,-0.0778647,-0.0481303
-0.0817686,0.185125,2.91564,-1.08012,-0.148421,-1.20258,0.105123,-0.100492,-0.16391
-0.0792401,0.166605,2.89003,-0.940124,-0.0587397,-1.16607,0.0998964,-0.146848,-0.295582
-0.0754326,0.152569,2.86599,-0.639157,0.0482142,-1.08484,0.110435,-0.172118,-0.40934
-0.0716978,0.144321,2.8451,-0.347021,-0.00495897,-0.901163,0.151199,-0.172753,-0.438186
-0.0703066,0.140894,2.82887,-0.132892,-0.0629018,-0.685731,0.197848,-0.190321,-0.444499
-0.0688931,0.139648,2.81667,-0.10384,0.0592117,-0.521082,0.172462,-0.195645,-0.453185
-0.0642842,0.137807,2.80709,-0.134668,0.268473,-0.424209,0.134447,-0.207936,-0.471991
-0.0560881,0.136129,2.79928,-0.0676235,0.423269,-0.344332,0.119047,-0.200366,-0.486624
-0.0466291,0.135732,2.79308,-0.019479,0.410971,-0.266727,0.125438,-0.170791,-0.44161
-0.0395343,0.135344,2.78882,-0.0359099,0.248036,-0.151112,0.143029,-0.149447,-0.396714
-0.0352089,0.134945,2.78717,0.00610732,0.193175,-0.0047338,0.156601,-0.112382,-0.414109
-0.0309286,0.136684,2.78912,0.201324,0.287823,0.192883,0.13676,-0.0391262,-0.40926
-0.0241749,0.143791,2.79522,0.546097,0.491026,0.399447,0.139722,0.00683706,-0.323384
-0.0135588,0.15796,2.80586,0.874013,0.725985,0.635522,0.154106,0.0619058,-0.13574
-6.9979e-05,0.177004,2.82132,1.00688,0.849988,0.882211,0.157463,0.0956517,0.108155
0.0112681,0.196716,2.84157,0.940159,0.596352,1.12274,0.156079,0.097763,0.324371
0.0128271,0.21473,2.86624,0.845915,0.0360864,1.3108,0.164149,0.0787149,0.41009
0.00228898,0.231635,2.89416,0.849351,-0.412934,1.41678,0.161667,0.0600895,0.348381
-0.0137609,0.249101,2.92344,0.914826,-0.439987,1.41672,0.12944,0.0677915,0.230288
-0.028971,0.266629,2.95275,0.886028,-0.332432,1.38444,0.10796,0.0846021,0.189388
-0.0424363,0.282459,2.98144,0.794322,-0.240305,1.32156,0.109483,0.0831462,0.179739
-0.0543559,0.296074,3.00877,0.699294,-0.183894,1.22854,0.113077,0.0858344,0.165404
-0.0648479,0.30813,3.03428,0.660607,-0.0874956,1.13824,0.124479,0.0872279,0.137347
-0.0723031,0.319225,3.05789,0.59788,0.0715194,1.03574,0.123904,0.102817,0.141273
-0.0762568,0.328621,3.07953,0.49105,0.214298,0.951519,0.131493,0.116714,0.177335
-0.0776017,0.335681,3.09957,0.362243,0.296606,0.89036,0.13704,0.134313,0.21524
-0.0770288,0.340461,3.11815,0.252538,0.37843,0.828573,0.138957,0.148726,0.237749
-0.0745433,0.343178,3.13533,0.138273,0.434894,0.776515,0.141756,0.163599,0.264133
-0.0706963,0.343779,-3.13181,0.0306968,0.487438,0.734285,0.148368,0.170513,0.288272
-0.0659072,0.342301,-3.11657,-0.0818494,0.499207,0.721097,0.162045,0.181068,0.307295
-0.0615777,0.338739,-3.10118,-0.178731,0.447579,0.766724,0.194394,0.190482,0.299099
-0.0583115,0.333544,-3.08434,-0.247954,0.439383,0.856854,0.206831,0.201722,0.272384
-0.0583115,0.333544,-3.08434,-0.247954,0.439383,0.856854,0.206831,0.201722,0.272384
-0.0561952,0.326365,-3.06608,-0.383674,0.350281,0.909302,0.204095,0.19104,0.257319
-0.0556121,0.31619,-3.04729,-0.531396,0.32173,0.929617,0.191347,0.147327,0.187758
-0.0550681,0.303595,-3.02853,-0.623178,0.298816,0.929603,0.173739,0.129488,0.0853289
-0.0545401,0.289743,-3.00977,-0.662497,0.334248,0.943286,0.151545,0.12352,-0.0268263
-0.0520109,0.275321,-2.99057,-0.689576,0.440527,0.983748,0.132412,0.100148,-0.134361
-0.0482368,0.259892,-2.97064,-0.762534,0.452063,1.01029,0.0921615,0.0605954,-0.204323
-0.044665,0.242921,-2.95104,-0.849576,0.394868,0.955958,0.0358166,-0.0188149,-0.295496
-0.042141,0.224165,-2.93342,-0.960908,0.254573,0.852012,-0.00583109,-0.0698987,-0.371787
-0.0422865,0.203291,-2.91746,-1.04739,0.0669856,0.807014,-0.0328917,-0.0861768,-0.459273
-0.0443582,0.18236,-2.9022,-0.957699,0.0419749,0.778397,-0.0822767,-0.100021,-0.585435
-0.0439343,0.165009,-2.88809,-0.713033,0.291927,0.679208,-0.153957,-0.113556,-0.677239
-0.0370281,0.15217,-2.87655,-0.571263,0.551954,0.506641,-0.21472,-0.139539,-0.608714
-0.0265181,0.140262,-2.86871,-0.620275,0.581254,0.302059,-0.216879,-0.173537,-0.443274
-0.0164669,0.127629,-2.86514,-0.608633,0.470316,0.0814847,-0.229853,-0.185812,-0.387327
-0.00925208,0.116956,-2.86517,-0.441231,0.232494,-0.0443359,-0.214276,-0.14741,-0.397972
-0.00643205,0.111221,-2.86613,-0.111748,0.0702911,-0.0322283,-0.190065,-0.0869754,-0.435292
-0.00482156,0.113252,-2.8665,0.324261,0.127808,-0.00654298,-0.200745,-0.0140192,-0.431329
-0.000103607,0.123985,-2.86667,0.720395,0.334162,-0.0207215,-0.241596,0.0557354,-0.325212
0.00746506,0.140165,-2.86766,0.869934,0.369473,-0.0786098,-0.278174,0.107556,-0.12719
0.0136278,0.157571,-2.87018,0.861074,0.171468,-0.156619,-0.287094,0.129667,0.0442367
0.0140735,0.173778,-2.87486,0.766735,-0.206148,-0.292551,-0.301154,0.139884,0.146584
0.00848916,0.187841,-2.88276,0.65256,-0.484071,-0.478971,-0.333428,0.151505,0.176481
0.000659963,0.200094,-2.89475,0.589972,-0.510216,-0.694068,-0.336615,0.164445,0.16033
-0.004966,0.211711,-2.9108,0.567354,-0.358415,-0.875879,-0.291883,0.194462,0.182296
-0.00556906,0.222521,-2.92984,0.491441,-0.116309,-0.976805,-0.229081,0.229829,0.262225
-0.00163129,0.231567,-2.94972,0.414562,0.0438201,-0.952157,-0.151229,0.253292,0.363367
0.0035145,0.239514,-2.96832,0.394173,0.00305283,-0.854282,-0.0931358,0.267291,0.459622
0.00560162,0.247747,-2.98454,0.451964,-0.208506,-0.717035,-0.0580124,0.270809,0.514206
0.00200835,0.257606,-2.99818,0.536971,-0.486772,-0.621153,-0.0588268,0.267019,0.544515
-0.00605845,0.268581,-3.01105,0.543342,-0.644567,-0.631506,-0.0720244,0.240354,0.558369
-0.0165015,0.278514,-3.02426,0.409368,-0.745161,-0.652388,-0.0379071,0.222956,0.577667
-0.0276438,0.283884,-3.03763,0.0749006,-0.740175,-0.639828,0.00564465,0.224377,0.563658
-0.0385153,0.281741,-3.0507,-0.323794,-0.723812,-0.626398,0.00691256,0.201917,0.514212
-0.0498836,0.272712,-3.0649,-0.617916,-0.841379,-0.718535,-0.0126488,0.135372,0.393822
-0.0641456,0.259378,-3.08184,-0.794572,-1.01422,-0.841163,-0.00612734,0.0618838,0.23391
-0.0788218,0.243674,-3.10166,-0.9266,-0.905867,-0.967485,-0.0029927,0.0245793,0.067146
-0.0898229,0.224363,-3.12421,-1.21118,-0.724881,-1.03843,0.0285396,0.023419,-0.0246454
-0.0970359,0.199045,3.13555,-1.50835,-0.489916,-1.00152,0.0719758,0.00655596,-0.129428
-0.0996763,0.170781,3.11301,-1.46003,-0.177549,-0.921401,0.0922959,-0.0222787,-0.295119
-0.0970675,0.147486,3.09348,-1.00024,0.115819,-0.757954,0.130745,-0.0414484,-0.38975
-0.0901921,0.134552,3.07926,-0.452221,0.345821,-0.528773,0.15525,-0.0471588,-0.323659
-0.0821672,0.129288,3.07013,-0.202634,0.306047,-0.339843,0.151199,-0.0840391,-0.127933
-0.0760646,0.126512,3.0639,-0.148538,0.23014,-0.274691,0.127157,-0.151917,-0.0264549
-0.0711804,0.123349,3.05789,-0.23734,0.207319,-0.288645,0.110466,-0.193904,0.00209624
-0.0665846,0.117774,3.0512,-0.356612,0.183794,-0.342183,0.113072,-0.216192,-0.0312226
-0.0619826,0.110438,3.04357,-0.413645,0.183596,-0.370224,0.11578,-0.225724,-0.107808
-0.0580886,0.102018,3.03539,-0.481583,0.124333,-0.377506,0.143814,-0.223278,-0.179714
-0.0550431,0.092036,3.02767,-0.569861,0.0994599,-0.342579,0.141834,-0.219114,-0.284152
-0.0540826,0.0799878,3.02007,-0.667488,-0.0982033,-0.353808,0.102528,-0.212837,-0.402848
-0.0568234,0.0675067,3.01242,-0.593787,-0.190551,-0.336052,0.115425,-0.207203,-0.575192
-0.057977,0.0580608,3.00576,-0.380968,0.0961585,-0.257515,0.100434,-0.143495,-0.727804
-0.0508915,0.0526569,3.00215,-0.186915,0.604911,-0.046694,0.101779,-0.0678204,-0.736718
-0.0340433,0.050734,3.00426,0.0165192,1.05607,0.27516,0.126919,-0.0295948,-0.626423
-0.0107566,0.0538541,3.01291,0.330469,1.28751,0.58189,0.124541,-0.0136463,-0.44357
-0.0107566,0.0538541,3.01291,0.330469,1.28751,0.58189,0.124541,-0.0136463,-0.44357
0.0140132,0.0639233,3.02735,0.678157,1.23396,0.867623,0.0958334,0.00777318,-0.223149
0.0346566,0.0810374,3.04692,0.970608,0.948891,1.12645,0.0662789,0.0207985,-0.0147598
0.0469407,0.103145,3.07023,1.12769,0.472552,1.27378,0.0283534,0.0108299,0.135542
0.0480379,0.127203,3.0953,1.14257,-0.0479257,1.32547,0.00806313,-0.00132877,0.210442
0.0408594,0.150102,3.12051,1.02279,-0.269556,1.25518,-0.046416,0.000261813,0.197449
0.0317031,0.169481,-3.13995,0.831957,-0.264314,1.04763,-0.104349,0.00735441,0.157083
0.0243524,0.184924,-3.12182,0.684942,-0.137504,0.785577,-0.10325,0.00427549,0.104363
0.0208006,0.19821,-3.10868,0.634758,0.0212622,0.553602,-0.0798096,0.0384831,0.0733786
0.0206899,0.211381,-3.09882,0.676654,0.165957,0.468781,-0.0293985,0.0973071,0.0857787
0.0226636,0.225756,-3.08929,0.744057,0.219361,0.50157,0.0268483,0.149716,0.158243
0.02445,0.241554,-3.0789,0.814137,0.192985,0.547085,0.0505114,0.174026,0.256993
0.024783,0.258205,-3.06772,0.81424,0.112388,0.578697,0.0547001,0.18749,0.370789
0.0234805,0.27378,-3.05617,0.705923,0.0764285,0.567405,0.0503941,0.195177,0.459271
0.0228251,0.28617,-3.0451,0.493921,0.165159,0.525462,0.0458998,0.196617,0.521445
0.0246182,0.293408,-3.03495,0.187663,0.303475,0.462852,0.036739,0.197953,0.571064
0.0276429,0.293654,-3.02609,-0.184684,0.215206,0.390311,0.0328089,0.187126,0.608133
0.0273641,0.287196,-3.01864,-0.467173,-0.0610442,0.311594,0.0446828,0.161514,0.56638
0.0210481,0.276409,-3.0123,-0.607954,-0.373093,0.294093,0.0957954,0.145339,0.437109
0.0104481,0.263884,-3.00579,-0.654284,-0.494382,0.310473,0.106659,0.15196,0.282882
-0.00138957,0.250603,-2.999,-0.682964,-0.492796,0.356611,0.144062,0.128633,0.107694
-0.0125109,0.235915,-2.9908,-0.806934,-0.427383,0.44932,0.169909,0.119215,-0.0396616
-0.0219259,0.217346,-2.98136,-1.03804,-0.27737,0.501012,0.143982,0.0805071,-0.178379
-0.0271852,0.195079,-2.97141,-1.136,-0.033681,0.52943,0.130197,0.0219539,-0.343167
-0.0268104,0.173158,-2.96098,-0.988682,0.266202,0.568613,0.0933161,0.0132214,-0.493336
-0.020892,0.156248,-2.94906,-0.678596,0.48918,0.651233,0.071051,0.00236888,-0.535881
-0.0131788,0.144953,-2.93515,-0.456637,0.467848,0.747845,0.0676972,-0.029809,-0.445601
-0.00657485,0.136689,-2.91962,-0.379126,0.419985,0.785721,0.0338725,-0.0697602,-0.349849
-0.000363387,0.128966,-2.90422,-0.408237,0.395973,0.737898,-0.00729955,-0.114402,-0.279652
0.00525412,0.120118,-2.8902,-0.484221,0.338263,0.653724,-0.0229164,-0.159208,-0.244341
0.00955131,0.109693,-2.87811,-0.574469,0.187172,0.546767,-0.0330686,-0.184198,-0.22006
0.0093203,0.098234,-2.86785,-0.557195,-0.100514,0.467273,-0.0338114,-0.192818,-0.251675
0.0036437,0.088804,-2.85891,-0.373043,-0.365898,0.427339,-0.0240609,-0.180737,-0.327601
-0.00452802,0.083945,-2.85077,-0.124162,-0.334612,0.382845,-0.0299576,-0.162064,-0.400428
-0.0095709,0.0830686,-2.84394,0.019197,-0.103755,0.295202,-0.0591573,-0.149632,-0.379303
-0.00997498,0.083997,-2.83907,0.0744848,0.0749276,0.188571,-0.0579467,-0.147852,-0.291036
-0.0084795,0.0861585,-2.83627,0.155254,0.0908247,0.0911335,-0.0497643,-0.136681,-0.209647
-0.00682597,0.0906959,-2.83506,0.317245,0.0852464,0.0401971,-0.0461502,-0.098256,-0.177305
-0.00473469,0.0994878,-2.8344,0.56998,0.133084,0.0156809,-0.057743,-0.0459858,-0.148373
-0.00209132,0.113222,-2.834,0.798474,0.117467,0.0233787,-0.0615055,0.00110298,-0.0657158
-0.000440957,0.130426,-2.8333,0.904609,0.0318688,0.0443114,-0.053228,0.0357729,0.038473
-0.00171108,0.148299,-2.83222,0.866137,-0.133951,0.0495885,-0.0614486,0.0661065,0.127862
-0.00599115,0.163874,-2.83215,0.678864,-0.285291,-0.0665905,-0.0993595,0.0723674,0.166791
-0.0114938,0.175228,-2.83524,0.467295,-0.28842,-0.249422,-0.135686,0.0701304,0.138324
-0.0151513,0.183345,-2.84165,0.360491,-0.195515,-0.375985,-0.11343,0.0965648,0.096301
-0.0162893,0.191169,-2.84954,0.439249,-0.0431966,-0.400889,-0.0688166,0.139195,0.0756924
-0.0136619,0.201687,-2.85688,0.602889,0.141314,-0.321493,-0.0231602,0.170446,0.110071
-0.00910931,0.214827,-2.86197,0.697661,0.192323,-0.191784,0.00961694,0.186979,0.211958
-0.00524999,0.229147,-2.8646,0.730646,0.118245,-0.0902324,0.0176707,0.171224,0.324265
-0.00395936,0.243774,-2.86583,0.736935,-0.0281394,-0.0396975,0.00924389,0.155856,0.396437
-0.00551764,0.258569,-2.86621,0.740979,-0.107212,-0.00739264,0.00423555,0.153341,0.417517
-0.0078416,0.272543,-2.86582,0.641985,-0.121542,0.0381555,0.0196065,0.154038,0.436617
-0.00987149,0.283808,-2.86443,0.472104,-0.0347098,0.0780742,0.0235145,0.144195,0.437244
-0.0108725,0.290843,-2.86258,0.232544,-0.0218676,0.096348,0.0303132,0.117891,0.432647
-0.0123893,0.293364,-2.86022,0.0321498,-0.0850099,0.129087,0.039768,0.0856369,0.398426
-0.0123893,0.293364,-2.86022,0.0321498,-0.0850099,0.129087,0.039768,0.0856369,0.398426
-0.0162254,0.292754,-2.85712,-0.0839102,-0.207189,0.169603,0.0497751,0.0509501,0.325994
-0.0226652,0.289639,-2.8536,-0.235246,-0.330304,0.159653,0.032614,0.0163493,0.268953
-0.0301914,0.282795,-2.8513,-0.448984,-0.334885,0.0667103,0.00252903,-0.0364044,0.198932
-0.0357754,0.271861,-2.85155,-0.638991,-0.228608,-0.0471134,0.00746126,-0.0690609,0.122691
-0.0383415,0.257866,-2.85337,-0.761405,-0.0646467,-0.0521072,0.0379344,-0.0590694,0.0501339
-0.0380442,0.242181,-2.85402,-0.798523,0.0581063,0.0601879,0.0675952,-0.0452285,-0.00248051
-0.0365952,0.226786,-2.85214,-0.718433,0.133436,0.166973,0.07839,-0.0759345,-0.0416238
-0.0343753,0.214303,-2.84848,-0.502724,0.162717,0.235847,0.0726295,-0.120296,-0.0766139
-0.0315573,0.206299,-2.8434,-0.311108,0.203465,0.288371,0.0666039,-0.141062,-0.0541624
-0.0288905,0.20055,-2.83699,-0.259763,0.206512,0.359,0.0833613,-0.16508,-0.0100452
-0.0259135,0.195251,-2.82908,-0.249198,0.24329,0.432379,0.0977449,-0.181781,0.00245923
-0.0225116,0.190669,-2.81958,-0.172089,0.284047,0.512247,0.104652,-0.18849,-0.0209041
-0.0190809,0.188357,-2.80842,-0.031597,0.252943,0.596476,0.110051,-0.18716,-0.0508856
-0.017559,0.189347,-2.79507,0.158745,0.149706,0.716437,0.129991,-0.178864,-0.0890993
-0.0174335,0.194257,-2.77934,0.35807,0.209289,0.819382,0.111511,-0.160768,-0.174109
-0.0152327,0.202195,-2.76166,0.439109,0.342225,0.904259,0.0933825,-0.142869,-0.204445
-0.012278,0.210075,-2.74258,0.360681,0.340738,0.941093,0.087493,-0.162072,-0.186502
-0.0103895,0.21572,-2.72421,0.212247,0.200343,0.82627,0.0190901,-0.189895,-0.215872
-0.0125988,0.21781,-2.70922,0.014144,-0.0785985,0.646425,-0.0165536,-0.196902,-0.274193
-0.0170223,0.216834,-2.69719,-0.070133,-0.0344322,0.544226,0.00467523,-0.163264,-0.38539
-0.0156887,0.216006,-2.68664,0.0239976,0.422522,0.498367,-0.00753424,-0.0827125,-0.448011
-0.00389415,0.21845,-2.6763,0.231129,0.966597,0.521201,0.00551055,-0.0123783,-0.357422
0.0164338,0.224783,-2.66517,0.375375,1.26054,0.581993,0.0448782,0.0271247,-0.114309
0.0392303,0.233084,-2.65233,0.398591,1.28334,0.701456,0.0637843,0.0695105,0.161968
0.0594454,0.241219,-2.63686,0.336423,1.07777,0.847494,0.072223,0.0984905,0.370791
0.0731864,0.248812,-2.61837,0.30371,0.734722,0.998889,0.0871659,0.106711,0.482343
0.0779837,0.255969,-2.59673,0.228063,0.243148,1.15537,0.112744,0.122354,0.536576
0.0703163,0.260946,-2.57087,0.0681882,-0.326254,1.3963,0.180808,0.124282,0.504591
0.0512252,0.262109,-2.53981,-0.130198,-0.763754,1.59577,0.188598,0.126626,0.3874
0.024953,0.259468,-2.50584,-0.247854,-0.955069,1.65945,0.172586,0.0908559,0.167657
-0.0029437,0.253846,-2.47193,-0.345947,-0.94759,1.61917,0.165584,0.0648648,-0.0440592
-0.0273574,0.246087,-2.43897,-0.366607,-0.623035,1.59633,0.177043,0.0669445,-0.255542
-0.0428356,0.23855,-2.40645,-0.249707,-0.146872,1.61035,0.201186,0.0907859,-0.393254
-0.0494188,0.234456,-2.37275,-0.000839049,0.240989,1.70317,0.241757,0.112609,-0.413511
-0.0515168,0.234859,-2.33632,0.20546,0.357753,1.8445,0.266465,0.128534,-0.309932
-0.0540464,0.23847,-2.29704,0.34844,0.278728,1.94895,0.252855,0.116373,-0.165384
-0.0602523,0.244427,-2.25631,0.464354,0.0673246,1.96792,0.230713,0.0963397,-0.047079
-0.0700547,0.251488,-2.21589,0.466018,-0.0271243,1.90013,0.201813,0.0759637,0.0373497
-0.0797989,0.256466,-2.17753,0.287261,0.0230086,1.7713,0.179112,0.0542309,0.0898095
-0.0875373,0.257097,-2.1423,0.0745427,0.10444,1.62533,0.165179,0.0318768,0.0973861
-0.0929404,0.254777,-2.11069,-0.00980308,0.152804,1.45564,0.15669,0.0299226,0.0637323
-0.0964945,0.252093,-2.08222,0.0108106,0.210992,1.32853,0.166755,0.0332292,0.037023
-0.0981923,0.250055,-2.05584,0.0303058,0.274948,1.2502,0.17836,0.0501003,0.0395185
-0.0981477,0.248319,-2.03066,0.0314795,0.351272,1.2032,0.181593,0.0640278,0.052232
-0.0961838,0.246628,-2.00662,0.032814,0.442321,1.13686,0.165182,0.0625707,0.0481295
-0.09166,0.245476,-1.98384,0.0592851,0.558983,1.09044,0.158169,0.0667025,0.0422285
-0.0851294,0.244763,-1.96134,0.0573232,0.635062,1.10291,0.159717,0.0729838,0.0615149
-0.077866,0.243967,-1.93859,0.0455169,0.6326,1.1035,0.12538,0.0652848,0.0873505
-0.071114,0.243287,-1.91602,0.0530835,0.580346,1.08903,0.0952525,0.0380135,0.0893904
-0.065467,0.242718,-1.89396,0.0296755,0.523108,1.05256,0.0638231,0.00839275,0.0772516
-0.0606764,0.241122,-1.87298,-0.079013,0.445217,0.994525,0.0342419,-0.0246664,0.054321
-0.0580888,0.236896,-1.85324,-0.217811,0.28943,0.961662,0.0264053,-0.0720613,-0.0157287
-0.0571418,0.230958,-1.83397,-0.254778,0.273465,0.94658,0.00621681,-0.0992457,-0.144489
-0.0561461,0.225013,-1.81537,-0.22801,0.241139,0.899085,-0.024308,-0.119395,-0.241863
-0.0561461,0.225013,-1.81537,-0.22801,0.241139,0.899085,-0.024308,-0.119395,-0.241863
-0.0565745,0.21988,-1.79776,-0.193901,0.0879005,0.852099,-0.050118,-0.145932,-0.32384
-0.0610886,0.214899,-1.78096,-0.216284,-0.206944,0.82299,-0.0727694,-0.159631,-0.390654
-0.0707158,0.209584,-1.76517,-0.207996,-0.366215,0.744875,-0.122799,-0.180298,-0.489858
-0.0794692,0.204301,-1.75201,-0.257514,-0.198021,0.578675,-0.151971,-0.18614,-0.552253
-0.081215,0.196263,-1.7427,-0.504393,0.223661,0.407345,-0.161322,-0.168383,-0.54184
-0.0752693,0.182671,-1.73633,-0.767989,0.44436,0.347454,-0.138806,-0.137129,-0.490309
-0.0674156,0.167154,-1.73053,-0.680735,0.414265,0.326823,-0.118801,-0.105291,-0.479007
-0.0610465,0.156568,-1.72531,-0.317392,0.338054,0.256307,-0.120615,-0.0722962,-0.452747
-0.0541474,0.15416,-1.7205,0.0892159,0.44355,0.240173,-0.105472,-0.0140834,-0.348207
-0.0451903,0.158652,-1.71533,0.370291,0.536775,0.257205,-0.106546,0.0695627,-0.174654
-0.0353351,0.167714,-1.70924,0.539892,0.509248,0.311603,-0.0856514,0.118314,-0.00698662
-0.0290198,0.179054,-1.7021,0.612312,0.221707,0.354118,-0.083051,0.147672,0.117845
-0.0293868,0.191664,-1.69431,0.6723,-0.116532,0.371795,-0.0964607,0.16852,0.155719
-0.0357615,0.205429,-1.68701,0.724018,-0.343562,0.273707,-0.152971,0.176842,0.137665
-0.0438589,0.219556,-1.68327,0.686794,-0.361078,0.0239837,-0.202005,0.169365,0.115894
-0.0494427,0.232119,-1.68487,0.55541,-0.211256,-0.227761,-0.192397,0.173156,0.115501
-0.0499754,0.242262,-1.6905,0.446975,0.0258641,-0.348018,-0.132245,0.208725,0.129742
-0.0461757,0.251456,-1.69714,0.462773,0.166798,-0.325432,-0.059281,0.238804,0.173009
-0.0414814,0.261696,-1.70276,0.535806,0.134202,-0.264432,-0.0233122,0.247443,0.260364
-0.0388147,0.273053,-1.70724,0.583673,0.0118028,-0.220455,-0.00508265,0.228428,0.344994
-0.0385108,0.284989,-1.71132,0.585862,-0.0816087,-0.226059,0.0001899,0.201542,0.403549
-0.0391183,0.295959,-1.71595,0.475553,-0.115472,-0.257558,0.0129939,0.189652,0.453258
-0.0401368,0.303787,-1.72109,0.294017,-0.128832,-0.257756,0.0432935,0.177874,0.453747
-0.040793,0.308738,-1.72588,0.190936,-0.0927764,-0.215101,0.0654495,0.1708,0.409399
-0.0425333,0.311854,-1.72953,0.10128,-0.215173,-0.137401,0.0807222,0.172851,0.376779
-0.0478187,0.312745,-1.73126,-0.0214902,-0.363334,-0.0402912,0.0718184,0.142708,0.321453
-0.0558407,0.311204,-1.73218,-0.144562,-0.462732,-0.0588751,0.0282284,0.0842502,0.22604
-0.0650421,0.30725,-1.73465,-0.262175,-0.501267,-0.155834,-0.0169661,0.0220586,0.0991331
-0.0727165,0.301449,-1.73906,-0.350271,-0.393765,-0.213692,-0.00833672,-0.0169231,-0.0245298
-0.0777952,0.293896,-1.74407,-0.43711,-0.246309,-0.199297,-0.00570893,-0.0194599,-0.129085
-0.079631,0.285072,-1.74822,-0.466889,-0.0557934,-0.12362,-0.00265832,-0.0330893,-0.230808
-0.0787211,0.276546,-1.75055,-0.382369,0.0700711,-0.0345404,0.00303519,-0.0544798,-0.299078
-0.0762964,0.270706,-1.7512,-0.202257,0.156858,0.0117227,-0.00155041,-0.0750107,-0.341848
-0.0728207,0.268118,-1.75082,-0.0658067,0.200023,0.047646,0.00576473,-0.0958003,-0.337525
-0.0683884,0.267407,-1.74957,-0.0103291,0.292958,0.0707151,0.0112494,-0.103353,-0.31639
-0.061372,0.266814,-1.74816,-0.0683781,0.433985,0.073432,0.0210314,-0.0994233,-0.278442
-0.0530877,0.263806,-1.74678,-0.231392,0.410487,0.0766141,0.0394778,-0.0967873,-0.230764
-0.0452771,0.258125,-1.74544,-0.313927,0.430779,0.0794965,0.0660399,-0.0928915,-0.256182
-0.03728,0.251359,-1.74396,-0.357588,0.392076,0.10179,0.075132,-0.0482156,-0.274804
-0.0306391,0.244279,-1.74138,-0.324008,0.35042,0.175732,0.0969093,-0.0260874,-0.298835
-0.0240226,0.239137,-1.73722,-0.162014,0.451666,0.25036,0.100165,0.0064569,-0.298559
-0.0132162,0.238381,-1.73069,0.100564,0.779554,0.384675,0.0981997,0.0497283,-0.228665
0.00240131,0.24239,-1.72088,0.295607,0.97679,0.582851,0.0964848,0.0921199,-0.0401457
0.017511,0.249414,-1.70701,0.374557,0.802028,0.762924,0.120788,0.0878396,0.164938
0.0243895,0.257024,-1.69021,0.332343,0.296281,0.873064,0.123036,0.0633927,0.285299
0.0207817,0.263041,-1.67205,0.231885,-0.146169,0.882436,0.0944823,0.0374076,0.270205
0.0123395,0.267407,-1.6549,0.188249,-0.193164,0.774892,0.0426648,0.0261943,0.140945
0.00622361,0.270983,-1.63993,0.156712,-0.017018,0.688128,0.0266878,0.0574127,0.0573006
0.00425398,0.274145,-1.62625,0.162513,0.184541,0.629719,0.0137271,0.0827201,0.0215168
0.00589279,0.277963,-1.61383,0.220493,0.293107,0.58436,0.00266469,0.0906053,0.0255035
0.00886727,0.283426,-1.60194,0.323254,0.333479,0.561838,0.00247291,0.104644,0.0481236
0.0129747,0.290859,-1.5907,0.403832,0.411319,0.528053,-0.00380819,0.109086,0.0937969
0.0191883,0.29945,-1.58003,0.43298,0.524997,0.509167,-0.00554642,0.114483,0.166123
0.0273239,0.307914,-1.57021,0.373423,0.555852,0.447206,-0.0249828,0.118486,0.262808
0.0273239,0.307914,-1.57021,0.373423,0.555852,0.447206,-0.0249828,0.118486,0.262808
0.0347649,0.314129,-1.56196,0.207087,0.415807,0.354662,-0.0240849,0.104292,0.339361
0.0389656,0.316382,-1.55565,-0.0053081,0.206075,0.260482,0.00388648,0.0894966,0.355484
0.0403787,0.314886,-1.5505,-0.149716,0.119126,0.232763,0.0309683,0.0991067,0.285658
0.0411926,0.311597,-1.5453,-0.185665,0.122438,0.254483,0.0409412,0.116576,0.187519
0.0421419,0.308304,-1.53969,-0.168733,0.145496,0.266148,0.0459471,0.107856,0.12188
0.043177,0.304883,-1.53383,-0.206866,0.140962,0.275538,0.0391646,0.0882977,0.0966242
0.0442346,0.30021,-1.52791,-0.285889,0.135617,0.264602,0.0183655,0.0621089,0.0848941
0.0448798,0.294149,-1.52243,-0.341154,0.0868319,0.2327,0.012589,0.0343105,0.0674746
0.0446554,0.287046,-1.51752,-0.389305,0.0415093,0.21474,0.0185415,0.0224082,0.0384202
0.0446315,0.279218,-1.51258,-0.411697,0.105934,0.229549,0.0166358,0.0223992,-0.00988543
0.0455288,0.27147,-1.50708,-0.380552,0.116439,0.266973,0.0167768,0.0196887,-0.0374373
0.0461734,0.264925,-1.5009,-0.303837,0.101561,0.297236,0.0178618,0.00317007,-0.0523197
0.0458751,0.259809,-1.49437,-0.240038,0.0508505,0.308008,0.0109626,-0.0168774,-0.0485852
0.0453707,0.255426,-1.48791,-0.236833,0.0618477,0.296091,0.00119081,-0.0381295,-0.0383531
0.0448333,0.250643,-1.48173,-0.269839,0.0267606,0.287477,0.0143061,-0.0538074,-0.0192503
0.0428815,0.24539,-1.47515,-0.281968,-0.0661471,0.336263,0.0433767,-0.0581975,-0.0252185
0.0384643,0.240042,-1.46738,-0.28399,-0.191064,0.391446,0.0554822,-0.0678906,-0.0525379
0.0312616,0.234377,-1.45908,-0.306579,-0.333623,0.381229,0.037225,-0.0949727,-0.0967094
0.0217452,0.228376,-1.45169,-0.316531,-0.466017,0.318851,0.00550869,-0.11885,-0.162944
0.00959144,0.222182,-1.44553,-0.307925,-0.575734,0.279949,0.0122204,-0.118646,-0.250166
-0.00255575,0.216541,-1.43984,-0.267088,-0.50541,0.277229,-3.694e-05,-0.0894991,-0.343669
-0.0124829,0.211398,-1.43435,-0.250782,-0.374299,0.262448,-0.0222954,-0.0732082,-0.38275
-0.0199253,0.206354,-1.42956,-0.254416,-0.292106,0.201998,-0.0458216,-0.0827356,-0.366731
-0.0266209,0.200927,-1.42661,-0.290401,-0.321725,0.0912813,-0.0657604,-0.0971449,-0.30701
-0.0338839,0.194553,-1.42632,-0.345104,-0.399909,-0.0472142,-0.0847427,-0.0907749,-0.257634
-0.0415287,0.187595,-1.429,-0.358435,-0.401885,-0.183952,-0.086531,-0.0814785,-0.248036
-0.0475834,0.180892,-1.43379,-0.327279,-0.268467,-0.248677,-0.0743349,-0.0451751,-0.247944
-0.0497888,0.17536,-1.43957,-0.245788,-0.0602498,-0.291472,-0.0719515,-0.0160742,-0.22371
-0.0480461,0.172211,-1.44597,-0.0970074,0.11484,-0.329458,-0.0770877,0.00600135,-0.156523
-0.04345,0.172344,-1.45306,0.074676,0.192113,-0.368467,-0.0847249,0.0240313,-0.0659763
-0.0396151,0.175519,-1.46065,0.200544,0.0231877,-0.388203,-0.0746055,0.0476659,0.0429761
-0.0411975,0.180394,-1.46788,0.244238,-0.31734,-0.339977,-0.0569709,0.0843096,0.11572
-0.0486612,0.185494,-1.47386,0.243144,-0.486618,-0.279939,-0.0692426,0.116881,0.105461
-0.0566,0.190869,-1.47935,0.266591,-0.36833,-0.308582,-0.120819,0.123458,0.0587435
-0.0598368,0.196611,-1.48634,0.258914,-0.0950533,-0.414427,-0.161261,0.121646,0.0665188
-0.0579498,0.202134,-1.49522,0.246103,0.0884526,-0.485558,-0.153116,0.12645,0.136245
-0.0534761,0.207848,-1.50526,0.269191,0.129056,-0.527081,-0.131629,0.133234,0.232816
-0.0495647,0.21386,-1.51603,0.276309,0.0287869,-0.555169,-0.10849,0.135176,0.322287
-0.0475189,0.21985,-1.52723,0.268986,-0.0683379,-0.567636,-0.0828386,0.128621,0.37554
-0.0471118,0.225678,-1.53875,0.260632,-0.140718,-0.584413,-0.0645277,0.126401,0.397878
-0.0478399,0.231149,-1.55045,0.225538,-0.191211,-0.584514,-0.0462848,0.125992,0.411698
-0.0490025,0.235218,-1.56236,0.100412,-0.224051,-0.595377,-0.0453988,0.126426,0.427534
-0.0516351,0.235972,-1.57474,-0.0896231,-0.33062,-0.62144,-0.0356336,0.101555,0.419341
-0.0562794,0.232992,-1.58827,-0.276011,-0.456695,-0.679196,-0.0328862,0.0777527,0.372044
-0.0631272,0.226901,-1.60283,-0.405527,-0.542293,-0.691645,-0.010538,0.0657182,0.285187
-0.0709323,0.219053,-1.61718,-0.465309,-0.568668,-0.651293,0.00516857,0.0570422,0.171189
-0.078987,0.210859,-1.63084,-0.447477,-0.496998,-0.627808,0.0038845,0.0237686,0.0532786
-0.0846449,0.203098,-1.64449,-0.456135,-0.367509,-0.646021,0.00754982,-0.0103313,-0.00497156
-0.0885301,0.194374,-1.65847,-0.537844,-0.300566,-0.639209,0.0353426,-0.0377893,-0.0187675
-0.0915029,0.184088,-1.67201,-0.598081,-0.257155,-0.591418,0.0785703,-0.0619603,-0.0495278
-0.0938689,0.173497,-1.68419,-0.552112,-0.200415,-0.50443,0.103921,-0.0803172,-0.107362
-0.0957986,0.164679,-1.69422,-0.412418,-0.163125,-0.398482,0.120039,-0.105183,-0.1662
-0.097509,0.158608,-1.70183,-0.275063,-0.135095,-0.291984,0.12372,-0.119171,-0.189865
-0.099277,0.154268,-1.70737,-0.231339,-0.124259,-0.216529,0.113241,-0.141906,-0.198443
-0.099277,0.154268,-1.70737,-0.231339,-0.124259,-0.216529,0.113241,-0.141906,-0.198443
-0.100673,0.149708,-1.71172,-0.272835,-0.0802283,-0.171955,0.104033,-0.166067,-0.208437
-0.101097,0.14396,-1.71576,-0.33664,-0.0114646,-0.175673,0.0848208,-0.179917,-0.247575
-0.099125,0.137538,-1.72043,-0.337247,0.176083,-0.225708,0.0627804,-0.186138,-0.317651
-0.091997,0.132056,-1.72597,-0.25797,0.466254,-0.262196,0.0627166,-0.179484,-0.37441
-0.0794816,0.128239,-1.73118,-0.175263,0.696852,-0.2006,0.105067,-0.146984,-0.355932
-0.0647272,0.125751,-1.73392,-0.0943785,0.697904,-0.0440223,0.143334,-0.116005,-0.294443
-0.0528719,0.124634,-1.7332,-0.0166424,0.491616,0.117569,0.146019,-0.0947128,-0.246952
-0.0457003,0.12447,-1.7297,-0.00265561,0.285429,0.222605,0.110013,-0.0855678,-0.235716
-0.0414179,0.12362,-1.72474,-0.0677891,0.232158,0.265859,0.0710735,-0.0890971,-0.261046
-0.0368478,0.121844,-1.7193,-0.0622475,0.317143,0.289371,0.0401827,-0.0658042,-0.31218
-0.029118,0.12192,-1.71285,0.114564,0.538822,0.360274,0.0396399,-0.0292756,-0.332246
-0.0177746,0.126962,-1.70422,0.419622,0.707305,0.484768,0.0380468,0.0173377,-0.255489
-0.00331703,0.137694,-1.69378,0.62792,0.847983,0.528034,0.0216877,0.0356362,-0.0865883
0.0110725,0.150018,-1.68306,0.577619,0.71812,0.543258,0.00746937,0.0387996,0.117233
0.0215684,0.160592,-1.6722,0.471097,0.495049,0.55014,0.017758,0.0321259,0.21548
0.0273756,0.169579,-1.66139,0.40331,0.268168,0.53592,0.0190104,0.0415087,0.235866
0.0294151,0.17729,-1.65086,0.340523,0.143147,0.523978,0.0169638,0.0466778,0.215589
0.0302045,0.183939,-1.64088,0.302125,0.135513,0.476198,0.0012543,0.0594137,0.175737
0.0322423,0.190071,-1.63216,0.284153,0.223503,0.401085,-0.0125064,0.0692542,0.154988
0.0353593,0.19531,-1.62499,0.212383,0.220255,0.333734,-0.00114102,0.0743957,0.177564
0.038666,0.199097,-1.61859,0.153637,0.245847,0.321443,0.0273386,0.0917355,0.18482
0.0429113,0.202523,-1.61171,0.174329,0.323114,0.372545,0.0518049,0.11612,0.187202
0.0485188,0.207114,-1.60369,0.251561,0.400945,0.429927,0.0520545,0.125985,0.209975
0.0549667,0.213396,-1.59487,0.324175,0.413694,0.465707,0.0388974,0.126118,0.254726
0.0601612,0.220383,-1.58558,0.310908,0.300145,0.477757,0.036712,0.122427,0.312137
0.0636197,0.226847,-1.57592,0.268275,0.265121,0.515386,0.0515926,0.113319,0.320569
0.0654902,0.231797,-1.56493,0.150908,0.15851,0.59322,0.0778168,0.12673,0.338631
0.0645984,0.234336,-1.55203,0.0198362,0.0539329,0.677768,0.0937049,0.112217,0.325468
0.0606951,0.234445,-1.53754,-0.0938298,-0.104913,0.725122,0.0855786,0.0878178,0.276944
0.0538523,0.232348,-1.52262,-0.199571,-0.230444,0.709684,0.066837,0.0572288,0.207924
0.0454106,0.228149,-1.50825,-0.291216,-0.27877,0.668529,0.0626386,0.023401,0.123733
0.0364033,0.221995,-1.4948,-0.384368,-0.326895,0.618408,0.0521138,0.00775814,0.0482851
0.0266457,0.213896,-1.48233,-0.457298,-0.373729,0.583513,0.0583152,-0.00686285,-0.0458406
0.0173063,0.205203,-1.47038,-0.422804,-0.278979,0.572734,0.0561778,-0.00927781,-0.177484
0.0116479,0.198039,-1.4585,-0.306975,-0.0348788,0.585386,0.0543148,-0.00767516,-0.26122
0.0112996,0.193505,-1.44607,-0.161294,0.2243,0.637626,0.057042,-0.0109021,-0.272694
0.0134128,0.191467,-1.43266,-0.0723621,0.195685,0.670776,0.0418712,-0.0211569,-0.203329
0.0135398,0.190505,-1.41925,-0.0607936,0.0631227,0.643913,0.0247457,-0.0604013,-0.162758
0.0110457,0.18855,-1.40698,-0.165699,-0.0632664,0.549896,-0.00567705,-0.0793196,-0.159659
0.00761201,0.183867,-1.39695,-0.316318,-0.074686,0.438217,-0.0206215,-0.0790083,-0.203347
0.00373772,0.176401,-1.3888,-0.424031,-0.183647,0.371712,-0.0112328,-0.0774419,-0.264915
-0.00314212,0.16786,-1.38151,-0.410135,-0.404921,0.357597,-0.0212246,-0.0598714,-0.355018
-0.0144963,0.161443,-1.37411,-0.214616,-0.598101,0.377247,-0.0544794,-0.0278253,-0.462631
-0.0284108,0.158901,-1.36707,-0.0490506,-0.655499,0.307934,-0.122784,-0.000549689,-0.497982
-0.0407739,0.157899,-1.36263,-0.0644591,-0.490005,0.121904,-0.170346,-0.0255105,-0.471528
-0.0481556,0.155444,-1.36262,-0.182257,-0.25592,-0.106563,-0.181981,-0.0468415,-0.418827
-0.0502685,0.151786,-1.36673,-0.164003,-0.0202745,-0.260641,-0.161161,-0.037746,-0.387792
-0.0476706,0.15106,-1.37276,0.0851052,0.183623,-0.321342,-0.140375,0.00136231,-0.346801
-0.0419788,0.156089,-1.37936,0.38103,0.274356,-0.351556,-0.151659,0.034225,-0.227368
-0.0345539,0.166362,-1.38626,0.60995,0.354039,-0.370318,-0.156268,0.0482555,-0.0807554
-0.026175,0.179898,-1.39376,0.70169,0.313149,-0.416777,-0.174003,0.0570725,0.0775039
-0.0205275,0.194007,-1.40248,0.670463,0.0584598,-0.476471,-0.177689,0.0695773,0.212875
-0.0207153,0.206569,-1.41272,0.559674,-0.253448,-0.555391,-0.188833,0.076288,0.278671
-0.0207153,0.206569,-1.41272,0.559674,-0.253448,-0.555391,-0.188833,0.076288,0.278671
-0.0251815,0.216755,-1.42479,0.436118,-0.416795,-0.659292,-0.196144,0.0910685,0.281177
-0.0300179,0.224865,-1.43941,0.337803,-0.364481,-0.79629,-0.206704,0.103666,0.257008
-0.0322002,0.231324,-1.45686,0.260978,-0.239992,-0.924025,-0.182744,0.106891,0.253377
-0.0312322,0.236588,-1.47642,0.21325,-0.12965,-0.990718,-0.134316,0.11752,0.282155
-0.0288128,0.241307,-1.49685,0.203927,-0.127136,-1.00239,-0.0824691,0.130665,0.329602
-0.0271768,0.24607,-1.51695,0.224093,-0.203396,-0.956958,-0.0449036,0.149188,0.375067
-0.0277726,0.251664,-1.53558,0.294657,-0.314931,-0.866786,-0.0215982,0.160637,0.38054
-0.0310855,0.258696,-1.55249,0.347683,-0.438616,-0.804008,-0.0188887,0.159782,0.380671
-0.0359847,0.26575,-1.56858,0.281284,-0.453843,-0.781239,-0.0101927,0.139876,0.374092
-0.0400498,0.270082,-1.58436,0.084971,-0.365419,-0.76469,-0.00497623,0.122951,0.364832
-0.042766,0.270271,-1.60021,-0.12564,-0.365628,-0.770782,-0.0115945,0.103388,0.339145
-0.047206,0.267087,-1.61623,-0.239895,-0.506754,-0.755482,0.0116713,0.069495,0.263167
-0.0543667,0.263064,-1.63151,-0.224834,-0.603323,-0.699232,0.0295518,0.0471188,0.146361
-0.0629898,0.259946,-1.64569,-0.178854,-0.609403,-0.661445,0.025906,0.0365541,0.0655463
-0.0713813,0.256966,-1.65942,-0.223704,-0.578235,-0.644344,0.0206391,0.00828272,0.0282096
-0.0779927,0.252158,-1.67291,-0.364791,-0.423844,-0.628996,0.0142925,-0.0182827,0.00423574
-0.0819691,0.244312,-1.68666,-0.514327,-0.336947,-0.63613,0.0131922,-0.0453735,-0.0221964
-0.0851402,0.234827,-1.70043,-0.525158,-0.300542,-0.613255,0.0409096,-0.0749277,-0.0741504
-0.0883292,0.226636,-1.71298,-0.375696,-0.290358,-0.520548,0.0709744,-0.0803227,-0.13899
-0.0911841,0.22208,-1.72254,-0.173412,-0.223422,-0.374342,0.0912324,-0.084139,-0.167756
-0.0945507,0.220078,-1.72923,-0.112489,-0.264115,-0.271123,0.0841676,-0.102785,-0.136358
-0.0987877,0.217662,-1.73449,-0.19663,-0.269322,-0.22767,0.0604265,-0.135859,-0.142781
-0.103343,0.212976,-1.73963,-0.315253,-0.292694,-0.233326,0.0455613,-0.147502,-0.194022
-0.10696,0.206707,-1.74551,-0.356753,-0.17571,-0.281341,0.0387336,-0.165092,-0.292247
-0.106777,0.200215,-1.75265,-0.364268,0.0508451,-0.344739,0.0269615,-0.160053,-0.367751
-0.101791,0.194023,-1.76079,-0.33455,0.280605,-0.378474,0.0536116,-0.148959,-0.390023
-0.0929087,0.188654,-1.7687,-0.276484,0.442229,-0.323473,0.10532,-0.115609,-0.371527
-0.0826003,0.184094,-1.77425,-0.223296,0.460756,-0.171224,0.146893,-0.0701031,-0.30977
-0.0737815,0.180513,-1.77635,-0.147724,0.384365,-0.0113712,0.164115,-0.0614171,-0.250294
-0.0670825,0.178,-1.77549,-0.105472,0.304258,0.109211,0.151712,-0.0606092,-0.199105
-0.0622729,0.175962,-1.77241,-0.0721286,0.249728,0.20724,0.133186,-0.0568022,-0.170472
-0.057519,0.17527,-1.76734,0.0433195,0.310492,0.301814,0.13113,-0.0463596,-0.155804
-0.0514193,0.177868,-1.75977,0.268068,0.490507,0.429342,0.137973,-0.011957,-0.139636
-0.0405174,0.18462,-1.74917,0.442929,0.757013,0.594908,0.148827,0.0224557,-0.0548643
-0.0275689,0.194073,-1.73489,0.543368,0.757905,0.776037,0.16453,0.0284894,0.0953255
-0.0187984,0.204848,-1.7176,0.562176,0.429697,0.883825,0.15935,0.0256232,0.228034
-0.0179786,0.215085,-1.69874,0.489474,0.0676742,0.941586,0.15767,0.0124108,0.280588
-0.0224804,0.223565,-1.67897,0.400547,-0.0315623,0.965464,0.148567,0.0145689,0.241072
-0.0264291,0.230388,-1.65899,0.339154,0.104636,0.969283,0.133302,0.0333476,0.176256
-0.0270615,0.236412,-1.63864,0.325107,0.28909,1.00517,0.134551,0.0451591,0.160397
-0.0261226,0.242312,-1.61754,0.316117,0.271291,1.03205,0.137097,0.0524015,0.211116
-0.0269311,0.247692,-1.59631,0.2608,0.165421,1.01103,0.128691,0.0454598,0.266996
-0.0300891,0.2512,-1.57574,0.146164,0.0215644,0.986811,0.129284,0.0437325,0.287818
-0.0354207,0.252731,-1.55534,0.0809459,-0.0279566,0.98944,0.140108,0.0541412,0.235662
-0.0400747,0.253738,-1.5348,0.110327,0.117123,1.0109,0.154183,0.0726181,0.153559
-0.0407692,0.255736,-1.5133,0.166406,0.330483,1.07006,0.161731,0.0966468,0.13629
-0.0396315,0.257742,-1.49062,0.0978141,0.32541,1.11753,0.168851,0.102233,0.209327
-0.0404982,0.257311,-1.46724,-0.054683,0.180342,1.14862,0.174271,0.0815841,0.266379
-0.0440016,0.253948,-1.44376,-0.175871,0.0994042,1.13502,0.154698,0.0764531,0.234051
-0.0475815,0.248721,-1.42076,-0.236798,0.113848,1.12855,0.130542,0.0830023,0.171668
-0.050575,0.242751,-1.39785,-0.243598,0.160304,1.13126,0.122497,0.0935388,0.125399
-0.0519699,0.236661,-1.3749,-0.262328,0.242972,1.13796,0.119224,0.0979376,0.112888
-0.0517757,0.229613,-1.35174,-0.3348,0.308575,1.15369,0.0970557,0.0975348,0.136924
-0.0510207,0.220889,-1.3286,-0.423438,0.266727,1.1444,0.0827795,0.0828357,0.163643
-0.0510207,0.220889,-1.3286,-0.423438,0.266727,1.1444,0.0827795,0.0828357,0.163643
-0.0513977,0.21057,-1.30601,-0.490842,0.18244,1.11972,0.0661552,0.0623956,0.148038
-0.052847,0.199218,-1.28393,-0.525309,0.133904,1.10976,0.0659989,0.0496179,0.0968799
-0.0542485,0.187467,-1.26188,-0.532763,0.156696,1.12412,0.0669438,0.0408935,0.0383309
-0.0543761,0.175833,-1.2395,-0.509157,0.237096,1.14255,0.0507952,0.0184803,-0.0168588
-0.0528972,0.164955,-1.21684,-0.459118,0.290009,1.14966,0.0339969,-0.0158611,-0.0495609
-0.050726,0.15508,-1.19421,-0.409531,0.285028,1.1377,0.013139,-0.0533659,-0.0583003
-0.0482726,0.146034,-1.17219,-0.404266,0.285282,1.08,-0.0218857,-0.090904,-0.0517746
-0.0463977,0.136239,-1.15161,-0.496143,0.187942,1.01306,-0.0199667,-0.128617,-0.0497457
-0.0461659,0.124103,-1.13238,-0.633838,0.107298,0.940697,-0.0434388,-0.158564,-0.0939074
-0.0468589,0.10906,-1.11513,-0.797033,-0.019254,0.849596,-0.0593937,-0.193387,-0.150892
-0.0513633,0.0913787,-1.09955,-0.875656,-0.277236,0.791132,-0.0334988,-0.224544,-0.230217
-0.060105,0.0734448,-1.08549,-0.832142,-0.453715,0.713306,-0.0560905,-0.222291,-0.33987
-0.0702467,0.056748,-1.07313,-0.771084,-0.469162,0.62982,-0.0813829,-0.229965,-0.423597
-0.0807307,0.0403607,-1.06285,-0.812219,-0.544563,0.517931,-0.0809065,-0.246088,-0.438029
-0.0931251,0.0222729,-1.05548,-0.941178,-0.6693,0.371842,-0.0877882,-0.252036,-0.442843
-0.108028,0.00214499,-1.05147,-1.00859,-0.824263,0.230971,-0.0934001,-0.248618,-0.508136
-0.125231,-0.016629,-1.05064,-0.813419,-0.869322,0.0544718,-0.106177,-0.236309,-0.632327
-0.140796,-0.0291464,-1.05324,-0.453347,-0.652301,-0.133948,-0.102816,-0.203642,-0.716264
-0.150653,-0.0336139,-1.05718,-0.0378821,-0.314012,-0.163241,-0.0543772,-0.137962,-0.706572
-0.153298,-0.0291107,-1.05933,0.461895,0.0491758,-0.119874,-0.0268254,-0.0548634,-0.607635
-0.149146,-0.01481,-1.05936,0.929392,0.339011,-0.111128,-0.0479861,0.00124276,-0.417826
-0.141685,0.00636986,-1.05915,1.12618,0.351521,-0.187574,-0.101299,0.044761,-0.17041
-0.136422,0.0292616,-1.06102,1.09447,0.179961,-0.323379,-0.130341,0.0686099,-0.0096693
-0.134767,0.0508359,-1.06636,0.979356,-0.0260286,-0.506444,-0.168747,0.0954155,0.0454692
-0.135132,0.0711627,-1.07594,0.92141,-0.0809226,-0.708499,-0.182835,0.127682,0.0236693
-0.135376,0.0913664,-1.08883,0.910243,0.014895,-0.829822,-0.120407,0.166694,-0.000144303
-0.131865,0.111333,-1.10284,0.89955,0.207627,-0.801276,-0.0544204,0.229878,0.0139287
-0.123649,0.131159,-1.11552,0.916621,0.425692,-0.700697,-0.00686036,0.260376,0.0621957
-0.113563,0.151233,-1.12584,0.968441,0.428788,-0.545522,0.0489309,0.263084,0.137339
-0.104504,0.172423,-1.13263,1.07378,0.355394,-0.354417,0.0836939,0.260147,0.206558
-0.097883,0.195483,-1.13568,1.19695,0.258715,-0.180196,0.0934087,0.259838,0.267884
-0.0935083,0.2202,-1.13539,1.25803,0.175918,-0.0322652,0.100074,0.255488,0.337298
-0.0914154,0.244973,-1.13267,1.22347,0.106814,0.0480798,0.091004,0.244026,0.398374
-0.0905085,0.267937,-1.1293,1.08634,0.0697649,0.0648032,0.0732744,0.229922,0.445007
-0.0902792,0.287392,-1.12609,0.875447,0.0283839,0.0666492,0.0811489,0.217579,0.474811
-0.090699,0.302443,-1.12323,0.661625,0.0207006,0.0726477,0.0889813,0.214937,0.466206
-0.0912095,0.313906,-1.12039,0.512936,0.0114294,0.0925561,0.097115,0.216201,0.441551
-0.0922086,0.322845,-1.11748,0.397831,-0.020756,0.104156,0.117655,0.202993,0.421664
-0.0932959,0.329288,-1.11449,0.261928,0.00790728,0.117999,0.130712,0.189337,0.409351
-0.0939282,0.332348,-1.11157,0.0574992,0.0240275,0.12651,0.139836,0.17807,0.407238
-0.0941935,0.33102,-1.10909,-0.166907,0.0173345,0.116908,0.140477,0.151027,0.394858
-0.0951975,0.325671,-1.10719,-0.337188,-0.0524241,0.125531,0.163788,0.118055,0.351655
-0.0971639,0.317909,-1.10472,-0.40434,-0.0554843,0.181758,0.16733,0.0978894,0.284324
-0.0990462,0.309254,-1.10106,-0.42611,-0.0241857,0.250315,0.171525,0.0699269,0.242357
-0.100655,0.299822,-1.09604,-0.465914,0.00986274,0.322375,0.171961,0.0305188,0.219459
-0.101755,0.289571,-1.08963,-0.49832,0.0842903,0.393588,0.177016,-0.00530693,0.193339
-0.102365,0.278662,-1.08168,-0.494977,0.0796875,0.484808,0.191811,-0.0405281,0.160096
-0.102603,0.268728,-1.07161,-0.38953,0.178018,0.584531,0.208702,-0.0865912,0.091821
-0.101573,0.260751,-1.05944,-0.292098,0.239306,0.67255,0.203119,-0.115759,0.0503586
-0.100522,0.254003,-1.04504,-0.245068,0.201673,0.793658,0.227473,-0.163331,0.025757
-0.102872,0.247849,-1.02787,-0.204834,-0.0270318,0.92792,0.273244,-0.204083,-0.0320206
-0.109911,0.241732,-1.00803,-0.211983,-0.150002,1.05195,0.280191,-0.216853,-0.135627
-0.116065,0.234661,-0.986556,-0.267815,0.0845984,1.0914,0.248556,-0.234681,-0.26419
-0.115896,0.225682,-0.965673,-0.405838,0.386658,1.03217,0.242205,-0.27542,-0.339621
-0.115896,0.225682,-0.965673,-0.405838,0.386658,1.03217,0.242205,-0.27542,-0.339621
-0.112458,0.212909,-0.945994,-0.672648,0.281523,1.03696,0.267738,-0.264069,-0.354056
-0.114904,0.195125,-0.926501,-0.816355,-0.0692931,1.0875,0.300784,-0.244084,-0.462412
-0.119818,0.178139,-0.905082,-0.589689,0.031261,1.20273,0.289682,-0.165224,-0.654106
-0.119344,0.167296,-0.880437,-0.189416,0.490447,1.35838,0.239179,-0.0295438,-0.703913
-0.109041,0.164097,-0.85062,0.198528,1.01564,1.61781,0.24277,0.0590826,-0.576361
-0.0908428,0.167656,-0.814824,0.471982,1.32884,1.87791,0.28337,0.07863,-0.302404
-0.072022,0.174951,-0.773241,0.560879,1.23107,2.16414,0.286468,0.129779,-0.0231889
-0.0586659,0.183185,-0.726085,0.54924,0.908648,2.41848,0.259327,0.147036,0.154642
-0.0542754,0.191134,-0.67444,0.509237,0.498065,2.61294,0.227242,0.146805,0.209348
-0.0591682,0.197681,-0.619254,0.439069,0.0808273,2.77315,0.212462,0.149674,0.190357
-0.0723836,0.202088,-0.560893,0.381848,-0.228521,2.91445,0.181734,0.173783,0.104236
-0.0906343,0.205339,-0.500307,0.446648,-0.336096,2.97719,0.128877,0.197048,-0.0371724
-0.109842,0.209941,-0.439015,0.621309,-0.317578,2.95757,0.0803286,0.209257,-0.149097
-0.128423,0.21738,-0.377545,0.836124,-0.220985,2.94133,0.0684459,0.222203,-0.212667
-0.145558,0.227956,-0.315402,1.03327,-0.112748,2.93373,0.0612901,0.245197,-0.195625
-0.160991,0.240745,-0.252953,1.14197,-0.00364743,2.88052,0.0476569,0.244728,-0.106461
-0.175813,0.254054,-0.191738,1.15201,0.0103989,2.75688,0.0405256,0.210925,0.0122154
-0.191072,0.266579,-0.133352,1.10703,-0.0304764,2.57666,0.0322327,0.18247,0.102182
-0.205246,0.277675,-0.0792005,0.996343,0.0447558,2.3286,0.0241107,0.15617,0.149259
-0.218473,0.286965,-0.0302134,0.915851,0.0298997,2.08374,0.0412045,0.12992,0.178908
-0.230536,0.295429,0.0134323,0.842249,-0.0302756,1.82624,0.0731996,0.104993,0.205599
-0.243338,0.303113,0.0521406,0.774029,-0.0868857,1.60131,0.115015,0.0955358,0.207559
-0.255392,0.309642,0.0860469,0.64099,-0.0726066,1.37788,0.150813,0.0888665,0.199122
-0.264765,0.313456,0.114661,0.433293,0.0105705,1.17079,0.167526,0.0810223,0.166417
-0.269796,0.314453,0.137847,0.260238,0.195397,0.930564,0.165681,0.0597234,0.0839081
-0.270343,0.314082,0.155262,0.151327,0.271252,0.679763,0.147598,0.0657033,0.0150473
-0.26851,0.312825,0.167321,0.0374123,0.298138,0.476721,0.153146,0.0760736,-0.0427392
-0.262829,0.310606,0.175169,-0.0579531,0.551863,0.302716,0.134862,0.0896174,-0.109587
-0.249554,0.30685,0.179018,-0.223126,0.896827,0.159596,0.0942764,0.105051,-0.11982
-0.229491,0.299877,0.179617,-0.464401,1.09412,0.0608347,0.0546866,0.0685045,-0.0692781
-0.206787,0.287702,0.176729,-0.796769,1.0544,-0.0918584,-0.0115115,0.0181397,-0.0451576
-0.185089,0.2696,0.168125,-1.13401,0.89308,-0.382909,-0.0913359,-0.0679283,-0.110829
-0.163943,0.246877,0.152193,-1.34547,0.846166,-0.735562,-0.180117,-0.134606,-0.252764
-0.141328,0.223118,0.131353,-1.2675,0.960491,-0.856997,-0.180718,-0.121868,-0.411586
-0.11648,0.203519,0.112355,-0.879241,1.12001,-0.708448,-0.16551,-0.0540174,-0.509468
-0.0905298,0.19246,0.0989641,-0.364146,1.18413,-0.480354,-0.181328,0.00374375,-0.48815
-0.0670726,0.190255,0.0915175,0.0552965,0.971334,-0.23275,-0.193098,0.056037,-0.333393
-0.0520507,0.19446,0.0893542,0.337237,0.469624,-0.00976781,-0.218698,0.0904382,-0.17899
-0.0479756,0.203398,0.0913042,0.558318,0.00410187,0.147965,-0.260023,0.116457,-0.0971499
-0.0513734,0.215965,0.0960658,0.701565,-0.202441,0.244629,-0.289747,0.139156,-0.0481699
-0.056752,0.230025,0.102094,0.720428,-0.169158,0.24466,-0.31933,0.136419,0.0119796
-0.0592003,0.243322,0.106707,0.61349,0.0587527,0.0990596,-0.342876,0.112525,0.103944
-0.0564536,0.253606,0.106938,0.410275,0.181285,-0.136662,-0.340233,0.0926472,0.23019
-0.0521485,0.260111,0.102257,0.226187,0.101373,-0.341417,-0.27757,0.0904708,0.326513
-0.0498852,0.264181,0.094018,0.150754,-0.0807359,-0.460662,-0.193931,0.105555,0.37208
-0.0507328,0.267887,0.0844364,0.179524,-0.250893,-0.474725,-0.106875,0.132248,0.37778
-0.0541304,0.272314,0.0748418,0.2092,-0.31855,-0.482541,-0.0625595,0.151392,0.377985
-0.0571401,0.276728,0.0645588,0.157734,-0.257086,-0.539439,-0.0389664,0.141908,0.38789
-0.058556,0.279102,0.0530432,0.00376834,-0.209354,-0.576973,0.00492737,0.125895,0.41011
-0.059423,0.277902,0.0408542,-0.196413,-0.222362,-0.582888,0.0444448,0.109376,0.412191
-0.0609964,0.272705,0.0285436,-0.392074,-0.261702,-0.570191,0.0833946,0.0728653,0.379163
-0.0627144,0.263977,0.0164235,-0.534657,-0.223997,-0.539968,0.122224,0.0220455,0.292701
-0.063602,0.253759,0.0051873,-0.538463,-0.150588,-0.478882,0.144287,-0.0176015,0.175827
-0.0634014,0.244143,-0.00439723,-0.495645,-0.0715282,-0.384208,0.184893,-0.0578355,0.084484
-0.0634014,0.244143,-0.00439723,-0.495645,-0.0715282,-0.384208,0.184893,-0.0578355,0.084484
-0.0623634,0.234446,-0.0115904,-0.527355,0.0235394,-0.248813,0.227915,-0.095378,0.0257297
-0.0596215,0.22334,-0.0159832,-0.615629,0.12893,-0.110424,0.242066,-0.121682,-0.0204508
-0.0564505,0.210451,-0.0175871,-0.675368,0.150875,0.0276457,0.254837,-0.160591,-0.095856
-0.0541848,0.197217,-0.0161903,-0.619839,0.0897611,0.198412,0.281319,-0.183057,-0.206218
-0.0544904,0.186688,-0.0102379,-0.365014,0.0114862,0.45002,0.311772,-0.183489,-0.329549
-0.0550299,0.182223,0.0011147,-0.0481162,0.132576,0.685605,0.322066,-0.174557,-0.411417
-0.0551234,0.181671,0.0171429,0.0375757,0.131218,0.892186,0.326802,-0.182974,-0.375052
-0.0583251,0.180207,0.0365062,-0.096198,-0.139393,1.00166,0.294653,-0.191021,-0.352431
-0.0666576,0.176105,0.0568619,-0.159519,-0.288626,1.02258,0.253719,-0.201055,-0.475035
-0.0742185,0.17253,0.0778079,-0.0319235,-0.0772461,1.08232,0.230047,-0.134767,-0.613826
-0.0771237,0.173321,0.101575,0.329272,0.236269,1.27586,0.234981,-0.0280919,-0.642437
-0.0731086,0.182561,0.130749,0.787592,0.667082,1.52805,0.243567,0.0583797,-0.531971
-0.0634476,0.198082,0.164889,0.930601,0.897213,1.70702,0.21489,0.0959438,-0.232587
-0.0536373,0.213461,0.201869,0.797807,0.807955,1.82404,0.208172,0.0921231,0.0354684
-0.0490413,0.225622,0.240528,0.609228,0.452178,1.88632,0.206379,0.0860023,0.182346
-0.0538455,0.234302,0.280217,0.475194,0.00257019,1.94968,0.2355,0.0890668,0.199706
-0.0663734,0.240836,0.32185,0.435747,-0.244234,2.07083,0.250797,0.134694,0.121527
-0.0821477,0.246749,0.366428,0.488328,-0.24014,2.21336,0.252712,0.183324,0.0124011
-0.0984563,0.253152,0.414154,0.572522,-0.223704,2.34416,0.252833,0.204543,-0.0438086
-0.115898,0.26064,0.464913,0.706205,-0.235563,2.47233,0.26278,0.212121,-0.0771983
-0.135046,0.270244,0.518669,0.903084,-0.264135,2.56233,0.248005,0.230758,-0.0885867
-0.155248,0.282532,0.574579,1.07701,-0.2309,2.58696,0.226955,0.225871,-0.0696148
-0.176061,0.296039,0.631121,1.13356,-0.251179,2.54063,0.208092,0.209,-0.00599486
-0.197563,0.30903,0.68651,1.11383,-0.233286,2.42541,0.200884,0.18417,0.0404978
-0.217716,0.32074,0.739237,1.05669,-0.166538,2.25115,0.186308,0.165427,0.0560705
-0.236291,0.331338,0.788385,1.03799,-0.123262,2.062,0.191443,0.151846,0.0595454
-0.253781,0.341991,0.834058,1.05077,-0.120362,1.87738,0.208953,0.152898,0.0627929
-0.270323,0.353304,0.876693,1.08332,-0.0789748,1.71738,0.223403,0.1632,0.0645323
-0.285576,0.365323,0.916644,1.09868,-0.0418704,1.55479,0.22389,0.179028,0.0741439
-0.299115,0.377647,0.953158,1.05549,0.0210819,1.35323,0.212113,0.182623,0.0848861
-0.309808,0.389166,0.985098,0.92955,0.121414,1.137,0.205633,0.182045,0.0809456
-0.315608,0.398828,1.01193,0.747468,0.340313,0.923423,0.184044,0.188357,0.059549
-0.3145,0.405512,1.03257,0.464219,0.5797,0.677185,0.154279,0.177693,0.0552107
-0.30593,0.40802,1.04587,0.153347,0.817026,0.400473,0.116773,0.155429,0.0426609
-0.288809,0.406827,1.05089,-0.128816,1.09752,0.0732895,0.0580887,0.14141,0.0274552
-0.263494,0.402352,1.04791,-0.362824,1.30335,-0.194289,0.031633,0.140607,0.0391569
-0.23401,0.394796,1.04031,-0.536178,1.33843,-0.265692,0.0498577,0.143088,0.0622228
-0.204511,0.383803,1.03232,-0.704594,1.31523,-0.22387,0.0538836,0.115752,0.0729629
-0.175851,0.368503,1.02355,-0.970568,1.23554,-0.318234,-0.00417227,0.0567674,0.0605558
-0.14639,0.347206,1.01085,-1.3595,1.24105,-0.536828,-0.0696691,-0.0248858,0.0284138
-0.117738,0.317531,0.992544,-1.78545,1.03393,-0.775202,-0.126504,-0.077884,-0.059696
-0.0923696,0.283034,0.972314,-1.76516,0.916587,-0.729815,-0.101556,-0.0655174,-0.300702
-0.0716775,0.254059,0.95786,-1.17059,0.791976,-0.38921,-0.0511661,-0.00698107,-0.504907
-0.054757,0.239063,0.95337,-0.371853,0.801258,0.0445318,-0.0346869,0.0259311,-0.571781
-0.0407905,0.237205,0.957923,0.138214,0.670312,0.39207,-0.0674489,0.0403001,-0.442842
-0.0327634,0.241437,0.968715,0.275517,0.373015,0.620879,-0.129203,0.0445796,-0.243439
-0.0319506,0.246528,0.982834,0.266502,0.0545868,0.722079,-0.201305,0.0542192,-0.123884
-0.0369271,0.251368,0.997985,0.26483,-0.150226,0.718917,-0.241616,0.0564227,-0.0718822
-0.0440614,0.256054,1.01228,0.252542,-0.175507,0.640848,-0.240806,0.040634,-0.0344881
-0.0486792,0.260317,1.0244,0.219164,0.0451325,0.50703,-0.22274,0.0319229,0.0155331
-0.0482156,0.263508,1.03366,0.134191,0.210495,0.374949,-0.190924,0.0457933,0.129689
-0.0458911,0.265112,1.04051,0.0565436,0.16446,0.290056,-0.118417,0.0481654,0.237759
-0.0460186,0.265623,1.04613,0.0314287,-0.0393577,0.260494,-0.0448597,0.0593551,0.308848
-0.050616,0.265987,1.05154,0.0315153,-0.27271,0.263429,0.00979849,0.0736223,0.347036
-0.050616,0.265987,1.05154,0.0315153,-0.27271,0.263429,0.00979849,0.0736223,0.347036
-0.059369,0.266265,1.05696,0.0278089,-0.439119,0.253526,0.0509719,0.0700299,0.34569
-0.0691398,0.266277,1.06171,-0.0162749,-0.395823,0.190492,0.0630489,0.0639688,0.323643
-0.0765908,0.264212,1.06431,-0.182577,-0.275769,0.0775563,0.07293,0.0481211,0.317861
-0.0811963,0.258691,1.06458,-0.358675,-0.198433,0.00186642,0.115976,0.0307024,0.295572
-0.084803,0.250499,1.06348,-0.454182,-0.185315,-0.029274,0.146648,0.0301599,0.238241
-0.0883952,0.241192,1.06243,-0.481553,-0.210536,0.0183129,0.15799,0.0271293,0.168755
-0.0926199,0.231497,1.0624,-0.482378,-0.198195,0.0564897,0.124994,0.00357409,0.0857599
-0.0959593,0.221974,1.06225,-0.46963,-0.137513,0.0020521,0.0503553,-0.0294931,0.00584334
-0.0970802,0.212783,1.06045,-0.46518,0.00263933,-0.08785,0.0179595,-0.062348,-0.0575967
-0.0943568,0.203854,1.05742,-0.447293,0.224481,-0.10409,0.0350303,-0.0786673,-0.105339
-0.0871834,0.195503,1.05526,-0.409424,0.421371,-0.0155641,0.0697283,-0.0746916,-0.106516
-0.0788468,0.187541,1.05565,-0.375802,0.394242,0.125624,0.102546,-0.0901063,-0.0827815
-0.072681,0.180467,1.05916,-0.302507,0.270464,0.268707,0.118252,-0.123428,-0.0937122
-0.0697858,0.174596,1.06518,-0.260525,0.129847,0.360625,0.0999038,-0.138973,-0.118613
-0.0700908,0.168185,1.0728,-0.348719,-0.0268559,0.436029,0.096679,-0.153239,-0.153066
-0.0730177,0.159467,1.0818,-0.451824,-0.0951251,0.514056,0.129782,-0.179847,-0.245147
-0.0755509,0.14915,1.09192,-0.508291,0.0134362,0.554361,0.114863,-0.168174,-0.362663
-0.0754552,0.137319,1.10213,-0.609287,0.121,0.527977,0.0971197,-0.164046,-0.425394
-0.0749916,0.122963,1.11063,-0.758751,0.00866061,0.426504,0.0958248,-0.177213,-0.469538
-0.0767931,0.106585,1.11788,-0.797658,-0.0665675,0.449459,0.161869,-0.138795,-0.560836
-0.07795,0.0911445,1.12729,-0.653403,0.069369,0.624716,0.218798,-0.0697025,-0.651798
-0.0747622,0.0798945,1.14188,-0.347519,0.371365,0.920396,0.241141,0.0036834,-0.666634
-0.0655674,0.0753586,1.16284,0.0510876,0.724573,1.19388,0.214184,0.0390782,-0.577368
-0.0500957,0.0792022,1.18921,0.476168,0.978935,1.40686,0.176703,0.0594204,-0.374747
-0.0328554,0.0909586,1.21934,0.802797,0.970181,1.54661,0.142211,0.0834938,-0.118044
-0.0190779,0.107733,1.25172,0.92851,0.685708,1.63739,0.143157,0.101269,0.10303
-0.014308,0.125603,1.28557,0.905416,0.17931,1.70245,0.170246,0.0957318,0.218019
-0.0200519,0.141912,1.32015,0.767556,-0.266877,1.68984,0.172422,0.114047,0.214297
-0.0324655,0.154618,1.35347,0.603863,-0.431206,1.5668,0.144423,0.122814,0.10109
-0.0454616,0.164643,1.3834,0.528085,-0.374042,1.34611,0.106935,0.139837,-0.0582283
-0.0553453,0.174054,1.4091,0.562776,-0.184858,1.16915,0.124901,0.170704,-0.175797
-0.0604488,0.185424,1.43288,0.721651,0.123122,1.11751,0.168828,0.223411,-0.223939
-0.0586522,0.199745,1.45641,0.83083,0.508115,1.12254,0.196186,0.260752,-0.167473
-0.0513015,0.214995,1.48086,0.821624,0.711073,1.19367,0.197483,0.281122,-0.0242773
-0.0419926,0.230093,1.50637,0.807474,0.759084,1.21419,0.157436,0.266261,0.107995
-0.0333768,0.245188,1.53142,0.791081,0.696246,1.15848,0.101144,0.259615,0.218315
-0.0259948,0.259621,1.55458,0.71643,0.621592,1.04286,0.0607348,0.23964,0.291783
-0.0196326,0.27242,1.57538,0.613314,0.581094,0.93741,0.0495776,0.237553,0.334504
-0.0134365,0.283119,1.59407,0.482556,0.552082,0.851852,0.0492935,0.256464,0.362034
-0.00740168,0.290957,1.61165,0.323428,0.542018,0.846091,0.0649824,0.272251,0.368237
-0.002482,0.296185,1.62957,0.216949,0.464879,0.874814,0.0735104,0.275134,0.344272
0.000297485,0.299803,1.64796,0.139206,0.345553,0.885831,0.0577755,0.267409,0.29829
0.000589838,0.301408,1.66586,0.0128313,0.224172,0.817742,0.0224776,0.231588,0.23855
-6.93915e-05,0.300163,1.68166,-0.143891,0.189656,0.697696,0.0108848,0.179023,0.158352
-0.000461297,0.295799,1.69552,-0.29137,0.171423,0.648368,0.026839,0.180054,0.0770069
-0.00152491,0.288924,1.70896,-0.38587,0.101847,0.644801,0.0232818,0.197106,-0.00734657
-0.00412159,0.280894,1.72249,-0.407208,0.0281055,0.661799,0.0362019,0.170495,-0.112519
-0.00791694,0.27264,1.73651,-0.414518,-0.0225044,0.696722,0.0241803,0.160648,-0.192835
-0.0120801,0.264234,1.75097,-0.409504,0.00444648,0.70727,-0.0113344,0.14235,-0.270038
-0.0157964,0.256029,1.76557,-0.391622,-0.00390742,0.718242,-0.0333641,0.117591,-0.30588
-0.0200994,0.248134,1.78038,-0.377523,-0.0792143,0.738349,-0.0531951,0.0960897,-0.298615
-0.0263839,0.240415,1.7954,-0.364787,-0.1855,0.73594,-0.0888798,0.0615003,-0.291611
-0.0337715,0.232524,1.8096,-0.398469,-0.223721,0.659117,-0.13235,0.0112877,-0.266725
-0.0410579,0.223159,1.82116,-0.505402,-0.252066,0.491487,-0.167247,-0.0467246,-0.243651
-0.0410579,0.223159,1.82116,-0.505402,-0.252066,0.491487,-0.167247,-0.0467246,-0.243651
-0.0482078,0.211414,1.82821,-0.64002,-0.325748,0.245506,-0.197116,-0.105465,-0.248666
-0.0556211,0.198211,1.82994,-0.649355,-0.364953,-0.000339194,-0.190491,-0.146041,-0.300255
-0.0617432,0.186765,1.82725,-0.481162,-0.26813,-0.183494,-0.18412,-0.128924,-0.378073
-0.0635603,0.180532,1.82203,-0.15849,0.00999783,-0.279115,-0.170806,-0.0824255,-0.400211
-0.0599494,0.181301,1.81588,0.183034,0.206521,-0.323868,-0.156843,-0.036594,-0.309905
-0.0544987,0.187877,1.80939,0.423469,0.194618,-0.35056,-0.142593,-0.0139561,-0.15788
-0.0502827,0.19817,1.80251,0.550387,0.087335,-0.381136,-0.158608,0.0188359,-0.0249916
-0.0491191,0.209832,1.79481,0.569359,-0.139027,-0.436889,-0.168271,0.038328,0.0744815
-0.0520986,0.22116,1.78517,0.506494,-0.353859,-0.574985,-0.199392,0.0523688,0.124894
-0.0570586,0.230751,1.77182,0.372189,-0.426479,-0.792504,-0.244624,0.0757087,0.132952
-0.0609576,0.237523,1.75356,0.194512,-0.369182,-1.02065,-0.248789,0.108786,0.135753
-0.06158,0.241188,1.73122,0.0500901,-0.226302,-1.15697,-0.205407,0.151194,0.140754
-0.0590763,0.243085,1.70698,0.0162399,-0.108433,-1.19572,-0.147986,0.183264,0.155674
-0.0545292,0.24542,1.68265,0.087418,-0.0403735,-1.17871,-0.108294,0.196226,0.190838
-0.0502196,0.248932,1.65915,0.133848,-0.13833,-1.11712,-0.0643554,0.204072,0.278257
-0.0487182,0.253026,1.63745,0.186153,-0.227843,-1.00231,-0.0185713,0.187972,0.331925
-0.0486343,0.258352,1.618,0.248762,-0.274092,-0.920137,-0.0161238,0.193705,0.378068
-0.0498528,0.264173,1.59974,0.225095,-0.305935,-0.883159,-0.0183943,0.190081,0.432387
-0.0511631,0.268233,1.58187,0.0771191,-0.305273,-0.868321,-0.0118299,0.16847,0.473401
-0.05223,0.268501,1.56368,-0.150606,-0.29,-0.900514,-0.0106232,0.146634,0.49853
-0.0536843,0.264021,1.54438,-0.385419,-0.389123,-0.928727,0.0217851,0.119119,0.480101
-0.0583136,0.255973,1.52523,-0.504636,-0.576319,-0.876163,0.0636143,0.106413,0.399855
-0.0674905,0.246675,1.50739,-0.530404,-0.771455,-0.790871,0.100035,0.0923252,0.268837
-0.080062,0.236616,1.49105,-0.602717,-0.848308,-0.740569,0.101598,0.0549707,0.149504
-0.0922453,0.225007,1.47473,-0.68502,-0.719022,-0.753164,0.0841316,-0.0242933,0.000662267
-0.099662,0.212542,1.45789,-0.722125,-0.388863,-0.758259,0.0884234,-0.0710986,-0.137902
-0.102066,0.199525,1.44194,-0.714125,-0.178091,-0.651928,0.114836,-0.0854116,-0.223381
-0.101651,0.18739,1.42872,-0.627957,-0.0614533,-0.523619,0.134718,-0.11412,-0.279322
-0.10105,0.176744,1.41796,-0.542255,-0.0780226,-0.432946,0.117983,-0.150789,-0.315644
-0.102208,0.167902,1.40889,-0.416635,-0.19478,-0.370453,0.103021,-0.17836,-0.367917
-0.104576,0.162173,1.4013,-0.234318,-0.131441,-0.32202,0.0934026,-0.186316,-0.445225
-0.10367,0.159629,1.39488,-0.095799,0.164691,-0.289215,0.0588946,-0.170668,-0.484521
-0.0956414,0.159118,1.38895,-0.0232916,0.521921,-0.289295,0.0388083,-0.167954,-0.454965
-0.081954,0.159453,1.38303,0.00809956,0.718673,-0.296441,0.0453776,-0.165868,-0.366006
-0.0666671,0.160357,1.37729,0.0334742,0.67994,-0.265324,0.0762764,-0.146299,-0.263237
-0.0545654,0.160907,1.37286,-0.0123895,0.455379,-0.168112,0.105729,-0.115116,-0.191663
-0.0466687,0.160115,1.37025,-0.0747535,0.329015,-0.0952825,0.0883525,-0.0993272,-0.195003
-0.0395993,0.158334,1.36836,-0.105286,0.374727,-0.0840228,0.0586708,-0.093776,-0.237236
-0.0311934,0.156913,1.36737,-0.0104038,0.459968,0.00904372,0.0884377,-0.0586503,-0.250071
-0.0211167,0.158882,1.36935,0.219643,0.581334,0.183403,0.119741,-0.00601576,-0.222364
-0.0100051,0.165063,1.37511,0.39585,0.60802,0.382506,0.132702,0.0320513,-0.131851
0.000342807,0.174575,1.38477,0.561467,0.579714,0.550089,0.131758,0.0186449,-0.0540943
0.00853164,0.187151,1.39667,0.680028,0.434139,0.619732,0.104838,0.0121105,0.0161176
0.0126406,0.201053,1.40962,0.68466,0.240999,0.667965,0.0830429,0.0219512,0.0710415
0.0133729,0.214419,1.42338,0.637601,0.130836,0.690293,0.0666609,0.0357015,0.0824205
0.012473,0.226945,1.43695,0.602722,0.106491,0.642917,0.0297478,0.0496476,0.0707029
0.0117504,0.238943,1.44931,0.596223,0.108046,0.589903,0.0183842,0.0651516,0.070658
0.0117543,0.251166,1.46099,0.612648,0.176852,0.564302,0.0254343,0.0832354,0.0910081
0.0134595,0.263419,1.47203,0.58445,0.312285,0.518168,0.0175838,0.097923,0.140696
0.0185619,0.27372,1.48187,0.420837,0.44384,0.446698,-0.000490032,0.100195,0.224996
0.0256371,0.280869,1.48997,0.287833,0.478317,0.344487,-0.0111715,0.0941923,0.287541
0.0334857,0.285912,1.49618,0.206204,0.478538,0.283767,-0.000778757,0.114842,0.334722
0.0409845,0.289713,1.50199,0.160491,0.411872,0.299723,0.0238602,0.151431,0.381837
0.0409845,0.289713,1.50199,0.160491,0.411872,0.299723,0.0238602,0.151431,0.381837
0.0465002,0.292796,1.50848,0.114599,0.30792,0.336308,0.0339404,0.172419,0.422409
0.0486877,0.294577,1.51567,0.0303115,0.117909,0.360431,0.0361916,0.168784,0.447307
0.0470866,0.294671,1.52327,-0.0553818,-0.0553195,0.368075,0.0354345,0.160955,0.428875
0.0424066,0.293284,1.53116,-0.109856,-0.163356,0.39376,0.053029,0.161106,0.361926
0.0364027,0.291409,1.5402,-0.109122,-0.169502,0.466261,0.0732178,0.162623,0.279471
0.0303086,0.28923,1.5506,-0.157842,-0.155826,0.524082,0.0695571,0.150189,0.232422
0.0234968,0.284995,1.56214,-0.308918,-0.214245,0.571934,0.0829066,0.108469,0.197268
0.015097,0.277194,1.57448,-0.493418,-0.271712,0.595236,0.0742403,0.058646,0.122164
0.00615966,0.26633,1.58679,-0.593185,-0.295518,0.576984,0.043313,0.00541076,0.0185733
-0.00240145,0.254384,1.59804,-0.593631,-0.262371,0.512298,0.0354205,-0.0518936,-0.101368
-0.0090943,0.243065,1.60773,-0.538129,-0.170047,0.435372,0.010719,-0.0707071,-0.181215
-0.0138041,0.232516,1.61596,-0.509535,-0.103649,0.390447,0.0181472,-0.0766106,-0.215571
-0.0163271,0.222734,1.62411,-0.454987,0.0352657,0.432594,0.0555044,-0.0799449,-0.25196
-0.0165542,0.214401,1.63365,-0.352368,0.142882,0.513802,0.0601961,-0.074118,-0.264821
-0.0158644,0.208569,1.64478,-0.225032,0.1342,0.579868,0.055849,-0.0952017,-0.255346
-0.0169365,0.204659,1.65685,-0.160682,-0.00190623,0.605117,0.0462606,-0.125227,-0.224639
-0.0208959,0.201223,1.6688,-0.172764,-0.14207,0.570186,0.0315812,-0.143485,-0.23345
-0.0267771,0.196866,1.67982,-0.24566,-0.212938,0.519242,-0.0117681,-0.132146,-0.279723
-0.0334049,0.190595,1.68968,-0.349907,-0.263741,0.469632,-0.0487795,-0.10557,-0.326838
-0.040516,0.182492,1.6981,-0.431201,-0.3127,0.383942,-0.0752189,-0.0986704,-0.367892
-0.0489267,0.172743,1.70408,-0.517839,-0.439441,0.245198,-0.105995,-0.0982261,-0.406962
-0.0593137,0.161969,1.7068,-0.52337,-0.546045,0.0768032,-0.135741,-0.0858845,-0.481514
-0.0695284,0.152701,1.70607,-0.396297,-0.461952,-0.0834604,-0.127854,-0.0587222,-0.549089
-0.0753752,0.147401,1.70299,-0.140836,-0.133438,-0.172728,-0.10575,-0.0224281,-0.571666
-0.0737376,0.147653,1.69911,0.131091,0.230374,-0.197315,-0.0897743,0.0259776,-0.482349
-0.0657062,0.153204,1.696,0.407573,0.526164,-0.144062,-0.0627957,0.0647303,-0.306585
-0.0533281,0.163713,1.69418,0.610555,0.628252,-0.103719,-0.0785439,0.0936466,-0.0772584
-0.0423072,0.176688,1.69275,0.66381,0.410723,-0.0980735,-0.095342,0.100453,0.127151
-0.0376592,0.189518,1.69109,0.603103,0.00959805,-0.130385,-0.113323,0.0876012,0.246551
-0.0401856,0.200556,1.68789,0.487739,-0.282435,-0.239376,-0.158156,0.0914106,0.275414
-0.0452658,0.209359,1.68156,0.376095,-0.3293,-0.417212,-0.190723,0.0989002,0.24056
-0.0490564,0.216986,1.67202,0.367972,-0.220253,-0.541171,-0.161738,0.120057,0.201572
-0.0484235,0.225322,1.66074,0.409182,0.0432763,-0.588066,-0.111861,0.156724,0.216057
-0.0427222,0.233874,1.64925,0.389864,0.239994,-0.55828,-0.0598634,0.186094,0.306864
-0.0348738,0.241553,1.63892,0.336424,0.267598,-0.474811,-0.0183153,0.187834,0.415293
-0.0286339,0.247896,1.63019,0.273148,0.128926,-0.397563,0.00103669,0.176364,0.488
-0.0259794,0.253192,1.62289,0.251662,-0.0362721,-0.328457,-0.000196567,0.159751,0.504702
-0.0267934,0.258425,1.61671,0.265988,-0.207352,-0.289404,-0.0167325,0.152729,0.49994
-0.0309784,0.263539,1.61099,0.207751,-0.358043,-0.286174,-0.0194734,0.141633,0.496963
-0.0374982,0.265893,1.60513,-0.0113679,-0.436559,-0.291503,-0.018897,0.124359,0.488975
-0.0456173,0.263066,1.59876,-0.296364,-0.565941,-0.312582,-0.019627,0.110415,0.441582
-0.0568132,0.255401,1.59203,-0.473708,-0.711468,-0.292326,-0.000524953,0.0856718,0.30116
-0.0693144,0.246051,1.5858,-0.484748,-0.67802,-0.252859,-0.000804894,0.0482329,0.111672
-0.0803777,0.236971,1.58008,-0.476738,-0.556734,-0.244441,-0.0276655,0.0234866,-0.0135983
-0.0884714,0.227408,1.57388,-0.538184,-0.398257,-0.282176,-0.0583737,-0.0310472,-0.09552
-0.0931702,0.216915,1.56633,-0.567648,-0.231021,-0.35758,-0.0675462,-0.0698161,-0.164968
-0.09422,0.206585,1.55758,-0.536309,-0.0763616,-0.383679,-0.0442876,-0.0858052,-0.19548
-0.0931067,0.197314,1.54931,-0.454623,0.0143762,-0.33053,-0.00961601,-0.0980772,-0.187438
-0.090829,0.189939,1.54247,-0.348344,0.0848192,-0.27826,0.016609,-0.120802,-0.164473
-0.0885769,0.184171,1.53677,-0.275689,0.056182,-0.231048,0.0210166,-0.132542,-0.135146
-0.0867173,0.17961,1.53225,-0.217265,0.0138377,-0.17325,0.0244702,-0.141697,-0.133614
-0.0866659,0.176014,1.52862,-0.181386,-0.0520742,-0.164572,0.0349729,-0.159488,-0.147304
-0.0873185,0.172546,1.52492,-0.206305,-0.0644762,-0.169017,0.0529689,-0.17064,-0.186632
-0.0874031,0.168147,1.52116,-0.271591,-0.0043379,-0.159577,0.0713361,-0.162692,-0.237288
-0.0874031,0.168147,1.52116,-0.271591,-0.0043379,-0.159577,0.0713361,-0.162692,-0.237288
-0.0857797,0.162253,1.5176,-0.343993,0.129681,-0.141451,0.0865635,-0.14577,-0.305535
-0.0808988,0.155484,1.51409,-0.356284,0.306015,-0.15116,0.0810717,-0.133976,-0.376348
-0.0724997,0.148659,1.51061,-0.350063,0.459602,-0.122295,0.0976231,-0.117101,-0.397233
-0.0626898,0.142402,1.50884,-0.274048,0.489103,-0.00468536,0.131641,-0.0903324,-0.392697
-0.0532238,0.138441,1.50981,-0.118887,0.461861,0.122774,0.14528,-0.0701001,-0.369979
-0.0453141,0.137116,1.51339,-0.00949861,0.380717,0.23832,0.151929,-0.067079,-0.317211
-0.0385925,0.137438,1.51929,0.0748946,0.396048,0.347968,0.146785,-0.0591919,-0.288366
-0.0297713,0.140445,1.52769,0.272509,0.635126,0.477667,0.139169,-0.0237123,-0.281769
-0.0166624,0.147804,1.53918,0.480248,0.79894,0.646941,0.144379,0.0163306,-0.18174
-0.00401006,0.158279,1.55417,0.565141,0.659197,0.821233,0.143944,0.0376692,-0.00619072
0.00281206,0.169474,1.57209,0.553857,0.303006,0.936261,0.131261,0.0349361,0.112501
0.00283673,0.180224,1.5916,0.519208,0.0810405,0.983267,0.108324,0.0306748,0.134587
0.000637532,0.190387,1.61153,0.506928,0.0912607,0.976909,0.0700985,0.0471641,0.101117
0.000252368,0.20105,1.63117,0.563427,0.2603,0.959575,0.0554168,0.0665803,0.086318
0.00256252,0.212912,1.65087,0.611164,0.353228,0.983167,0.056257,0.094272,0.150039
0.00474699,0.22519,1.67135,0.602674,0.314202,1.03001,0.0709802,0.106638,0.250238
0.00556028,0.236751,1.69285,0.539619,0.256204,1.06903,0.066357,0.113467,0.337523
0.00545271,0.246911,1.71454,0.464734,0.264798,1.04082,0.049919,0.107752,0.380394
0.00579242,0.255401,1.73559,0.374593,0.288506,1.00994,0.0441392,0.113686,0.415056
0.00624608,0.262189,1.75601,0.293434,0.27387,0.973419,0.0529579,0.12063,0.445451
0.00619333,0.267421,1.77574,0.21853,0.231975,0.94806,0.0659721,0.126015,0.452291
0.00465582,0.270956,1.79555,0.114862,0.119826,0.979553,0.0887148,0.141997,0.454228
-0.000541416,0.271822,1.81651,-0.0265387,-0.0792099,1.05202,0.116214,0.148904,0.429393
-0.00974558,0.270405,1.83875,-0.0813359,-0.212614,1.07966,0.101173,0.130098,0.3211
-0.0194394,0.268576,1.86076,-0.0793342,-0.161973,1.04531,0.080982,0.107598,0.185586
-0.0282562,0.265217,1.88163,-0.238743,-0.186324,0.977832,0.0691195,0.0854982,0.120763
-0.0373022,0.257494,1.90068,-0.471157,-0.228957,0.88995,0.0633468,0.0343819,0.0212444
-0.0461021,0.246082,1.91754,-0.571516,-0.206761,0.803619,0.0673873,0.0102992,-0.136457
-0.0519327,0.234094,1.93329,-0.538435,-0.011932,0.800372,0.0663169,0.00843559,-0.273292
-0.0538373,0.223512,1.94924,-0.439202,0.192764,0.804946,0.0439889,0.00224952,-0.334744
-0.0521567,0.214665,1.96482,-0.372434,0.303169,0.756114,0.0161617,-0.0283134,-0.30138
-0.0486979,0.206364,1.97891,-0.401762,0.327654,0.663853,-0.00189946,-0.0616226,-0.221505
-0.0447196,0.196996,1.99122,-0.48327,0.307447,0.596797,0.011995,-0.0833743,-0.161923
-0.0419021,0.186058,2.00284,-0.563854,0.182451,0.603365,0.031325,-0.0841941,-0.140878
-0.0423579,0.173668,2.01469,-0.621072,-0.0246227,0.613691,0.0370391,-0.0928749,-0.159221
-0.0472052,0.16033,2.02639,-0.66689,-0.280854,0.597487,0.0370457,-0.111124,-0.196069
-0.0566497,0.146047,2.03756,-0.699395,-0.462295,0.577331,0.0322892,-0.117671,-0.265407
-0.0670049,0.131844,2.0478,-0.652327,-0.428563,0.521814,0.0164011,-0.124977,-0.381036
-0.075896,0.119322,2.05699,-0.52019,-0.339819,0.485086,0.00245383,-0.106562,-0.460179
-0.0825415,0.110383,2.06555,-0.303857,-0.229118,0.426873,-0.0206083,-0.0911657,-0.490946
-0.0863046,0.106007,2.0728,-0.0752967,-0.0544327,0.330747,-0.0466105,-0.0749165,-0.473548
-0.0857594,0.106386,2.07895,0.17215,0.176027,0.289758,-0.049504,-0.0356296,-0.41037
-0.0804393,0.111978,2.08513,0.426955,0.390318,0.280931,-0.0520782,0.0125165,-0.291031
-0.072946,0.12185,2.09128,0.588687,0.387917,0.255959,-0.0762491,0.0439422,-0.130476
-0.0685554,0.133793,2.0972,0.632346,0.100892,0.242278,-0.0804564,0.0651265,0.00252897
-0.0698749,0.145988,2.10246,0.626567,-0.126578,0.190991,-0.0876628,0.0807267,0.0432534
-0.0732027,0.158015,2.10625,0.598248,-0.122404,0.0913879,-0.115213,0.0916847,0.0336028
-0.075285,0.169756,2.10796,0.599329,-0.0370619,-0.00334618,-0.113108,0.109601,0.0404056
-0.074397,0.182025,2.10824,0.628323,0.11619,-0.0544466,-0.0851637,0.130149,0.0817718
-0.0714037,0.1947,2.10798,0.637623,0.167125,-0.054577,-0.047406,0.145682,0.169188
-0.0681373,0.207457,2.10816,0.642528,0.147347,-0.0115573,0.00270565,0.144601,0.261505
-0.0658654,0.220351,2.10954,0.656182,0.107624,0.0603964,0.044924,0.149725,0.337947
-0.0646989,0.233312,2.11259,0.661951,0.0797712,0.153017,0.0689445,0.155548,0.397811
-0.0646282,0.246233,2.11757,0.660369,0.0366891,0.239318,0.0774973,0.161202,0.445352
-0.0646282,0.246233,2.11757,0.660369,0.0366891,0.239318,0.0774973,0.161202,0.445352
-0.06596,0.258794,2.12356,0.619867,-0.0149148,0.255737,0.0661434,0.156885,0.469465
-0.0685639,0.269625,2.12954,0.490722,-0.0971432,0.247192,0.0515544,0.151074,0.476239
-0.0725255,0.277402,2.13511,0.317613,-0.131806,0.237148,0.0593921,0.142815,0.439863
-0.0768376,0.28145,2.1408,0.131038,-0.163013,0.294605,0.0864065,0.145272,0.382151
-0.0829864,0.282444,2.14872,0.0530361,-0.218311,0.473719,0.11223,0.133196,0.287898
-0.0903237,0.282459,2.16004,0.0410826,-0.202237,0.577139,0.061709,0.0942549,0.189399
-0.0969786,0.281722,2.17079,-0.0368878,-0.147859,0.428701,-0.0363239,0.0158032,0.111491
-0.100516,0.278769,2.17682,-0.209936,-0.0372098,0.17121,-0.0713431,-0.0576214,0.0659172
-0.0999224,0.272421,2.17785,-0.412217,0.11033,0.0238751,-0.0420146,-0.0501198,0.0316979
-0.0973,0.262948,2.17808,-0.497472,0.15545,0.123045,0.0363428,-0.00183624,-0.0200338
-0.0945902,0.253748,2.18168,-0.361216,0.193186,0.313832,0.0729159,0.00905946,-0.0836357
-0.0927659,0.247949,2.18916,-0.14814,0.185637,0.457697,0.0651265,-0.0119694,-0.0909484
-0.0913127,0.245456,2.19953,-0.0362655,0.205073,0.555368,0.0327124,-0.0404028,-0.023715
-0.0899706,0.243427,2.21094,-0.0820935,0.218985,0.561341,-0.00191099,-0.0783974,0.0724882
-0.0877048,0.239689,2.22179,-0.205983,0.260971,0.523663,-0.0208839,-0.109951,0.146893
-0.08493,0.23352,2.23163,-0.316219,0.2471,0.489684,-0.0261628,-0.123486,0.1818
-0.0827631,0.22616,2.24078,-0.321933,0.163845,0.464383,-0.0194579,-0.130621,0.17466
-0.0817643,0.220001,2.2495,-0.21508,0.153398,0.436006,-0.0103222,-0.138566,0.128307
-0.0803435,0.21558,2.25775,-0.186709,0.162799,0.404874,0.0105588,-0.142486,0.121361
-0.0786279,0.210336,2.26542,-0.291413,0.155543,0.393146,0.0466492,-0.156171,0.122507
-0.0775752,0.203344,2.27325,-0.31366,0.129404,0.433661,0.103763,-0.164067,0.0299638
-0.0764326,0.197662,2.28242,-0.165646,0.168976,0.511728,0.129254,-0.152118,-0.112529
-0.0739235,0.195583,2.29365,0.0393884,0.295064,0.618624,0.148742,-0.150679,-0.224198
-0.0699103,0.197202,2.30784,0.219656,0.397775,0.758811,0.156863,-0.135693,-0.283618
-0.0638825,0.201517,2.32449,0.296994,0.534118,0.835147,0.137971,-0.134424,-0.297839
-0.0562829,0.205934,2.34218,0.23418,0.566743,0.858617,0.10728,-0.143358,-0.272008
-0.0497759,0.208814,2.35955,0.156273,0.415098,0.816116,0.0595998,-0.148062,-0.275971
-0.0458362,0.211195,2.37535,0.170887,0.352589,0.717334,0.0127739,-0.138791,-0.334052
-0.0396217,0.21468,2.38933,0.241197,0.612483,0.641516,-0.00402255,-0.0967187,-0.370142
-0.0263197,0.219758,2.40229,0.296035,0.976095,0.625008,-0.00155316,-0.0402773,-0.282399
-0.00775112,0.225359,2.41549,0.269137,1.1071,0.660961,0.0229817,-0.00330442,-0.0835124
0.0098604,0.230547,2.4297,0.254102,0.962961,0.743292,0.052214,0.0215394,0.0957783
0.0225256,0.23629,2.44622,0.303258,0.711405,0.89666,0.089827,0.0610164,0.195996
0.0307871,0.24385,2.4666,0.392971,0.617125,1.11563,0.121847,0.105072,0.262452
0.0371598,0.252531,2.49108,0.363809,0.609517,1.28456,0.13311,0.115014,0.344247
0.0404527,0.258948,2.51893,0.160529,0.359926,1.44498,0.156921,0.0923976,0.414981
0.0350197,0.261618,2.55012,0.00798621,-0.115971,1.5663,0.165657,0.0538555,0.369754
0.0194875,0.262071,2.58276,-0.0519036,-0.551637,1.59465,0.16784,0.0274533,0.235356
-0.00176667,0.260291,2.61619,-0.160132,-0.669649,1.65137,0.161726,0.0618054,0.0826924
-0.022514,0.256013,2.65067,-0.210447,-0.480833,1.68708,0.149494,0.0780549,-0.0769816
-0.0373792,0.251178,2.68519,-0.165773,-0.152976,1.67685,0.149479,0.0709942,-0.184354
-0.0465645,0.247469,2.71978,-0.0567495,0.067097,1.714,0.177393,0.0631884,-0.197516
-0.0523091,0.245814,2.75561,0.0520513,0.197698,1.77702,0.184274,0.0706923,-0.146026
-0.0584712,0.245525,2.79264,0.117138,0.0394242,1.81412,0.160964,0.0549092,-0.049821
-0.0690091,0.246637,2.82974,0.228646,-0.16415,1.75969,0.146061,0.00810567,-0.00504225
-0.0811008,0.249129,2.86485,0.242803,-0.153683,1.62285,0.116704,-0.00711715,0.0191647
-0.0908624,0.249742,2.89699,0.0695888,-0.0215632,1.49412,0.106294,-0.00986511,0.0582408
-0.0975902,0.246543,2.92628,-0.104129,0.0527107,1.36619,0.112266,-0.0221371,0.0564411
-0.102387,0.241489,2.95225,-0.128336,0.0983862,1.20095,0.0979762,-0.024355,0.00215274
-0.105627,0.237023,2.97531,-0.079916,0.120153,1.09276,0.100698,-0.0107495,-0.0546013
-0.108214,0.233717,2.99693,-0.0280729,0.130893,1.04043,0.115961,0.00585666,-0.08871
-0.109933,0.230737,3.01739,-0.0721952,0.168884,0.969684,0.0772326,0.0183068,-0.109542
-0.110435,0.225948,3.03573,-0.214717,0.19438,0.86283,0.0488617,-0.00279167,-0.135038
-0.11027,0.218525,3.05133,-0.350916,0.165798,0.73001,0.0156636,-0.013542,-0.178972
-0.11027,0.218525,3.05133,-0.350916,0.165798,0.73001,0.0156636,-0.013542,-0.178972
-0.11055,0.209098,3.06376,-0.448492,0.0613703,0.590502,-0.00819753,-0.0142094,-0.241467
-0.112506,0.19856,3.07357,-0.488075,-0.0412437,0.493926,-0.0305311,-0.00495183,-0.328245
-0.115078,0.187866,3.08185,-0.486209,-0.0404535,0.445063,-0.0510295,0.0160171,-0.403365
-0.116394,0.177343,3.0895,-0.490377,0.055303,0.421216,-0.0725342,0.0180289,-0.422903
-0.115092,0.166173,3.09581,-0.567602,0.165362,0.314127,-0.114145,-0.000286132,-0.375372
-0.112719,0.153472,3.09923,-0.654967,0.0981218,0.165523,-0.116579,-0.0382616,-0.322743
-0.112406,0.140356,3.09957,-0.613225,-0.068539,0.0285068,-0.120333,-0.0550048,-0.342361
-0.114479,0.130503,3.09881,-0.352614,-0.135595,0.035886,-0.0816125,-0.0260411,-0.413309
-0.11549,0.127649,3.10028,0.102185,0.10681,0.157504,-0.0813519,0.0306684,-0.455753
-0.111976,0.134156,3.10525,0.580397,0.288274,0.232159,-0.126948,0.073207,-0.350672
-0.106625,0.147784,3.11078,0.783509,0.299985,0.158776,-0.155174,0.070922,-0.155677
-0.10195,0.162818,3.11494,0.736637,0.224451,0.0908103,-0.2022,0.100134,0.00858247
-0.0992059,0.176394,3.11701,0.643521,0.0758045,-0.031876,-0.237058,0.115483,0.0907568
-0.0988906,0.189019,3.11632,0.62205,-0.0471798,-0.157471,-0.24243,0.133849,0.117115
-0.0992493,0.202099,3.11315,0.655086,-0.0275823,-0.283028,-0.245093,0.162884,0.129947
-0.0975056,0.215837,3.10735,0.64587,0.0761819,-0.421012,-0.228333,0.182121,0.194692
-0.0931717,0.228778,3.09868,0.546998,0.163241,-0.540476,-0.193246,0.192379,0.290017
-0.087329,0.239338,3.08737,0.404425,0.167132,-0.649276,-0.153916,0.197966,0.38361
-0.0808573,0.247269,3.07379,0.284798,0.138799,-0.725532,-0.110896,0.199271,0.465776
-0.0751574,0.25293,3.05888,0.162347,0.0411366,-0.763101,-0.0758772,0.206449,0.530834
-0.0723764,0.255778,3.04313,0.0122251,-0.158146,-0.777529,-0.0404825,0.205116,0.563231
-0.0729068,0.256106,3.02731,-0.0814418,-0.275253,-0.752817,-0.00839107,0.203541,0.529984
-0.0749306,0.255197,3.01177,-0.118766,-0.309864,-0.750089,0.00255077,0.196467,0.469705
-0.0768854,0.253519,2.9961,-0.173138,-0.278537,-0.751342,0.0173019,0.174076,0.423596
-0.0779783,0.249652,2.98035,-0.353635,-0.23131,-0.740662,0.0310201,0.150281,0.395284
-0.079319,0.241651,2.96491,-0.549908,-0.297133,-0.687325,0.0512225,0.117312,0.333095
-0.0828297,0.231271,2.95063,-0.569443,-0.395652,-0.622098,0.0434076,0.0765815,0.192497
-0.0887886,0.222123,2.93739,-0.453376,-0.487192,-0.600527,0.0304022,0.0255067,0.058458
-0.0956657,0.21478,2.92442,-0.420312,-0.462309,-0.590869,0.0488763,-0.0223413,-0.0386745
-0.100664,0.206658,2.91206,-0.534678,-0.264167,-0.531326,0.0605294,-0.0393164,-0.116793
-0.101235,0.195119,2.90099,-0.727385,-0.0358006,-0.42379,0.0658654,-0.062693,-0.181667
-0.0992867,0.180096,2.89185,-0.838415,0.0177158,-0.334993,0.032335,-0.0942682,-0.261512
-0.0989189,0.165038,2.88399,-0.689533,-0.127717,-0.29345,0.00586298,-0.132998,-0.398262
-0.101207,0.155193,2.87735,-0.360534,-0.187181,-0.269238,-0.00192553,-0.143968,-0.514449
-0.102548,0.150543,2.87169,-0.203618,-0.00103612,-0.238556,0.00161596,-0.142825,-0.536692
-0.0979817,0.146545,2.86696,-0.266176,0.402799,-0.189745,0.0097708,-0.149542,-0.492728
-0.0860628,0.140552,2.86271,-0.375885,0.685566,-0.175395,0.0224716,-0.156846,-0.400779
-0.0718384,0.132669,2.85875,-0.429411,0.641116,-0.144753,0.0584811,-0.16197,-0.305015
-0.0613068,0.12459,2.85591,-0.391308,0.352402,-0.0781777,0.0964686,-0.158462,-0.252444
-0.0560312,0.117776,2.85493,-0.288391,0.215903,0.0354799,0.14175,-0.142628,-0.26401
-0.0510668,0.113771,2.85735,-0.0841756,0.361046,0.228792,0.169886,-0.102112,-0.289117
-0.0420184,0.11463,2.86411,0.19734,0.609425,0.450784,0.197294,-0.0649881,-0.237359
-0.0303872,0.120742,2.87614,0.450075,0.642535,0.7305,0.224696,-0.036305,-0.105441
-0.0224622,0.131358,2.89367,0.652641,0.336306,0.973932,0.215077,-0.0206153,0.0280764
-0.0228715,0.145724,2.9151,0.828686,-0.0656907,1.10498,0.183745,-0.025034,0.0858831
-0.0298812,0.162904,2.93847,0.934686,-0.220156,1.15721,0.15561,-0.0210888,0.0760569
-0.0375061,0.180963,2.96269,0.943067,-0.100245,1.16321,0.10555,0.0159597,0.0597461
-0.0420419,0.198521,2.98655,0.90925,0.0798449,1.11061,0.0802055,0.029983,0.073472
-0.0447705,0.215188,3.00924,0.855946,0.0813608,1.04025,0.066993,0.0517875,0.129293
-0.0486739,0.230591,3.03043,0.786157,-0.00525669,0.957705,0.061527,0.0762549,0.173154
-0.0535205,0.244804,3.04989,0.737826,0.00479132,0.86147,0.0592852,0.094478,0.186508
-0.0570265,0.258275,3.06743,0.704563,0.0841986,0.765532,0.0640926,0.112942,0.20435
-0.0590157,0.270929,3.08328,0.649874,0.126997,0.692489,0.0750032,0.13518,0.250648
-0.0596495,0.282198,3.09762,0.549526,0.191903,0.622327,0.0792746,0.149286,0.289808
-0.0596495,0.282198,3.09762,0.549526,0.191903,0.622327,0.0792746,0.149286,0.289808
-0.0596619,0.291415,3.11038,0.442797,0.178119,0.547571,0.0841511,0.1539,0.308475
-0.0593785,0.29843,3.1216,0.315491,0.160235,0.490589,0.1059,0.150953,0.315962
-0.0593475,0.303321,3.13191,0.241909,0.163706,0.471031,0.133235,0.161835,0.291049
-0.0584222,0.307293,-3.14127,0.210114,0.231967,0.462948,0.143438,0.172673,0.258384
-0.0563739,0.310164,-3.13149,0.124757,0.264861,0.453937,0.155859,0.167275,0.256328
-0.0541917,0.310825,-3.12178,-0.0110685,0.231825,0.471721,0.179789,0.152127,0.25203
-0.0537645,0.30868,-3.11166,-0.152054,0.108983,0.509927,0.194708,0.142302,0.217518
-0.0560288,0.304002,-3.10092,-0.255429,0.0124441,0.541417,0.197688,0.114298,0.125287
-0.0594613,0.29726,-3.08996,-0.370162,-0.0432,0.542506,0.151653,0.0890896,0.0306706
-0.063392,0.287935,-3.07951,-0.488212,-0.0207998,0.507975,0.0963861,0.0497501,-0.0857875
-0.0649099,0.277225,-3.07081,-0.525459,0.115315,0.390349,0.0354407,0.00768113,-0.217102
-0.0632162,0.265859,-3.0642,-0.574495,0.216725,0.342669,0.0214953,-0.0165587,-0.286267
-0.0609145,0.253499,-3.05746,-0.617661,0.152362,0.393682,0.0183581,-0.0181744,-0.318026
-0.0608636,0.240781,-3.04971,-0.601124,0.0516385,0.418519,-0.0302842,-0.0412473,-0.38256
-0.0623329,0.228573,-3.0425,-0.581138,-0.0163209,0.346579,-0.0877499,-0.101049,-0.440682
-0.06347,0.216767,-3.03731,-0.568602,0.0229231,0.238012,-0.127937,-0.146651,-0.481637
-0.0632502,0.205588,-3.03411,-0.524242,0.0591822,0.156736,-0.139127,-0.153844,-0.487387
-0.0622317,0.195993,-3.03214,-0.423305,0.0749922,0.0940016,-0.153843,-0.134971,-0.464937
-0.0613608,0.188527,-3.03167,-0.329622,0.0162525,-0.00875384,-0.158423,-0.137051,-0.412542
-0.0610203,0.182657,-3.03348,-0.272631,-0.00187584,-0.139778,-0.161178,-0.13722,-0.353579
-0.0596811,0.178362,-3.038,-0.167875,0.0711254,-0.280128,-0.158387,-0.119885,-0.323281
-0.0553767,0.177387,-3.04473,0.0516935,0.251077,-0.365363,-0.138986,-0.078242,-0.303105
