attitude_roll,attitude_pitch,attitude_yaw,rotationRate_x,rotationRate_y,rotationRate_z,acceleration_x,acceleration_y,acceleration_z
-0.0570887,0.471645,0.473529,0.0843201,-0.0825901,-0.551047,0.00561644,0.119818,0.28877
-0.053718,0.47176,0.461703,-0.152534,-0.118646,-0.502027,0.033179,0.0412924,0.281041
-0.051493,0.466526,0.450638,-0.408406,-0.159081,-0.465137,0.0362348,-0.0221833,0.206253
-0.051493,0.466526,0.450638,-0.408406,-0.159081,-0.465137,0.0362348,-0.0221833,0.206253
-0.0496223,0.457439,0.439859,-0.522842,-0.134216,-0.444026,0.0488662,-0.0535717,0.0879307
-0.048138,0.447673,0.430401,-0.476411,-0.144817,-0.352055,0.0734984,-0.0800547,-0.0198604
-0.0487735,0.439697,0.423039,-0.350658,-0.244727,-0.294234,0.0576665,-0.105996,-0.112217
-0.0516501,0.434142,0.416408,-0.247474,-0.316182,-0.28683,0.0391931,-0.123802,-0.188217
-0.0550144,0.429783,0.409711,-0.244518,-0.280539,-0.303619,0.0163556,-0.141783,-0.246448
-0.0558924,0.424414,0.402214,-0.338576,-0.101022,-0.349184,-0.0102196,-0.137514,-0.310633
-0.0522844,0.417125,0.39408,-0.421546,0.128637,-0.338561,-0.00431389,-0.10332,-0.360384
-0.0447456,0.409271,0.387178,-0.376645,0.341527,-0.241208,0.00615485,-0.0744104,-0.394481
-0.0351075,0.403156,0.383051,-0.236739,0.443765,-0.119645,-0.016725,-0.0444593,-0.377462
-0.0249877,0.400447,0.380961,-0.0368473,0.468345,-0.0770298,-0.0511645,-0.0062421,-0.293085
-0.0162926,0.401471,0.379264,0.120915,0.308307,-0.0786883,-0.0311003,0.0402178,-0.14598
-0.0127977,0.404492,0.377818,0.164019,-0.0346378,-0.0526228,0.0215455,0.100141,0.00871986
-0.0160701,0.407207,0.377485,0.091657,-0.267608,0.0306216,0.0670168,0.171117,0.128454
-0.0222881,0.407338,0.37987,-0.0866596,-0.216315,0.197346,0.107148,0.238406,0.225552
-0.0266952,0.403253,0.386246,-0.304085,0.0457176,0.400694,0.130081,0.268588,0.303281
-0.027472,0.395139,0.396684,-0.473254,0.257613,0.574676,0.133705,0.263904,0.355258
-0.0266554,0.383575,0.409952,-0.665685,0.302949,0.682728,0.144711,0.24788,0.401643
-0.027254,0.367047,0.425105,-0.969519,0.150985,0.776428,0.161452,0.229084,0.425492
-0.0329742,0.343836,0.441626,-1.301,-0.134156,0.837844,0.156222,0.197209,0.349846
-0.0425548,0.315314,0.458231,-1.45671,-0.263112,0.841694,0.128732,0.175777,0.189447
-0.0525829,0.286383,0.474655,-1.32779,-0.220248,0.879397,0.124042,0.167128,0.035369
-0.0594297,0.261638,0.492117,-1.0487,0.0270709,0.947744,0.126435,0.142956,-0.0352343
-0.0603095,0.241902,0.511173,-0.851569,0.367064,1.01263,0.156388,0.104219,-0.00591761
-0.0543648,0.223379,0.531226,-0.92669,0.681298,1.04957,0.156885,0.048461,0.0593766
-0.0428342,0.202032,0.55179,-1.11604,0.892258,1.05766,0.136234,-0.0205306,0.0788446
-0.0280691,0.178264,0.571925,-1.16721,0.939876,1.0033,0.0961174,-0.0646981,0.0476691
-0.0134383,0.155981,0.590891,-0.999251,0.836797,0.919163,0.0735165,-0.0926978,0.00122869
-0.000460151,0.138672,0.608471,-0.729267,0.708358,0.837507,0.091978,-0.124681,-0.0181599
0.00919967,0.126166,0.624683,-0.560693,0.4607,0.769017,0.121687,-0.14785,-0.0143532
0.014242,0.115426,0.639849,-0.559637,0.23651,0.737568,0.141523,-0.152821,-0.0251417
0.0161912,0.104031,0.655277,-0.590459,0.161036,0.795839,0.136287,-0.140938,-0.0839516
0.0186094,0.0934437,0.671838,-0.486729,0.268654,0.824007,0.0965393,-0.143707,-0.168674
0.0241687,0.0855749,0.687975,-0.338984,0.425728,0.763816,0.0760198,-0.167749,-0.23799
0.0321161,0.0804248,0.70256,-0.229971,0.474506,0.676195,0.0489716,-0.160156,-0.285042
0.0400296,0.0767127,0.715386,-0.199342,0.39258,0.592383,0.0174718,-0.125145,-0.31981
0.0460267,0.0732655,0.726474,-0.195648,0.308128,0.495671,-0.019886,-0.0927546,-0.363587
0.0517013,0.0698641,0.73552,-0.18133,0.335484,0.401864,-0.0318073,-0.0733812,-0.425281
0.0587529,0.0674751,0.743406,-0.0919786,0.419407,0.382212,-0.0407785,-0.0590257,-0.468246
0.0666582,0.0675613,0.751106,0.0587587,0.404695,0.388624,-0.0785266,-0.0357768,-0.469616
0.0727832,0.0706291,0.75858,0.18164,0.229088,0.376901,-0.11334,-0.0215774,-0.442359
0.0740508,0.0750935,0.765328,0.205796,-0.0474052,0.312994,-0.145476,-0.0284469,-0.419293
0.0702911,0.0795871,0.770132,0.218669,-0.284978,0.204576,-0.14925,-0.0547743,-0.424801
0.0631355,0.0853249,0.773159,0.350406,-0.37466,0.137784,-0.14488,-0.0550527,-0.445137
0.0562247,0.0938895,0.774543,0.480127,-0.29614,0.0438872,-0.158227,-0.0347731,-0.401134
0.0513007,0.1037,0.773667,0.487878,-0.208632,-0.0871977,-0.164482,-0.0366985,-0.313306
0.0486522,0.112817,0.769738,0.453944,-0.096351,-0.261378,-0.176147,-0.043352,-0.238673
0.0485126,0.122092,0.762467,0.529607,-0.0159723,-0.399746,-0.153388,-0.0151279,-0.18508
0.0495933,0.134398,0.75357,0.766813,0.0089851,-0.400122,-0.120537,0.0448366,-0.130796
0.0508806,0.152706,0.745562,1.11001,0.00739966,-0.29535,-0.124608,0.10977,-0.0360025
0.0516021,0.177408,0.739266,1.36672,-0.054991,-0.208978,-0.151325,0.162228,0.107002
0.0498139,0.204859,0.733713,1.36719,-0.2519,-0.218621,-0.181412,0.178359,0.263565
0.0498139,0.204859,0.733713,1.36719,-0.2519,-0.218621,-0.181412,0.178359,0.263565
0.0438383,0.229659,0.726778,1.11738,-0.482065,-0.368042,-0.206507,0.171874,0.368454
0.0361866,0.247495,0.715886,0.691912,-0.511232,-0.631418,-0.222408,0.169643,0.409873
0.0312959,0.256415,0.700027,0.277307,-0.358237,-0.861903,-0.201303,0.191847,0.392735
0.0308694,0.25894,0.680927,0.0739316,-0.185118,-0.955868,-0.135838,0.238982,0.349609
0.0331844,0.259759,0.66163,0.095458,-0.0931375,-0.883863,-0.0676945,0.277111,0.335991
0.0354088,0.262117,0.645085,0.201209,-0.13799,-0.708816,-0.0273563,0.286729,0.373335
0.0347697,0.266552,0.632041,0.276859,-0.283871,-0.544423,-0.00895311,0.279413,0.418173
0.0297381,0.271322,0.621968,0.201397,-0.492687,-0.425695,-0.0176902,0.268738,0.466959
0.0208469,0.273104,0.613376,-0.00700973,-0.590488,-0.410162,-0.0502089,0.239234,0.459296
0.0120618,0.270986,0.604426,-0.17606,-0.520314,-0.465849,-0.0638369,0.20718,0.402051
0.00564218,0.266209,0.594151,-0.297306,-0.403577,-0.530722,-0.0522726,0.19702,0.361885
0.00117774,0.258854,0.582934,-0.433553,-0.325704,-0.54723,-0.0231722,0.17208,0.313165
-0.00134857,0.249106,0.571835,-0.548434,-0.231352,-0.531509,0.0229744,0.122468,0.251984
-0.00382844,0.237003,0.560806,-0.677852,-0.301163,-0.537205,0.0647871,0.082737,0.207085
-0.00870064,0.221769,0.549926,-0.866225,-0.426189,-0.50845,0.0853307,0.0565496,0.14245
-0.0151222,0.202871,0.540024,-1.02129,-0.39866,-0.433825,0.0796308,0.0146534,0.0222269
-0.01991,0.182551,0.531713,-1.00413,-0.22327,-0.355235,0.0643929,-0.0321449,-0.126293
-0.0207651,0.163481,0.524502,-0.924348,0.00199814,-0.321526,0.0685062,-0.0967376,-0.205456
-0.0181434,0.145748,0.517785,-0.867913,0.155974,-0.317291,0.053564,-0.162171,-0.24276
-0.013079,0.129172,0.510969,-0.801207,0.235137,-0.326829,0.0495144,-0.198854,-0.262536
-0.00792053,0.114507,0.504668,-0.666474,0.19883,-0.286511,0.0495709,-0.224351,-0.295795
-0.00355605,0.103179,0.49913,-0.474366,0.180617,-0.259509,0.0540437,-0.245744,-0.334029
0.000831322,0.0952896,0.494293,-0.32209,0.219158,-0.214985,0.0601924,-0.251427,-0.374883
0.00576867,0.0900563,0.490542,-0.206369,0.237079,-0.162508,0.0366437,-0.239945,-0.424311
0.0112627,0.0862993,0.487473,-0.193587,0.277057,-0.161733,0.00722731,-0.2412,-0.461716
0.0173053,0.0811082,0.483512,-0.338939,0.310974,-0.247294,-0.0092825,-0.25472,-0.483509
0.0243217,0.0726034,0.478067,-0.486252,0.351319,-0.30606,0.0151888,-0.244034,-0.524124
0.032547,0.0628382,0.472284,-0.441542,0.442089,-0.28157,0.0456785,-0.201104,-0.561035
0.0427727,0.055822,0.468111,-0.225009,0.556998,-0.137008,0.0998393,-0.146767,-0.53427
0.0553658,0.0547022,0.46838,0.132452,0.709517,0.179746,0.158628,-0.0872776,-0.430852
0.0701722,0.0619413,0.475226,0.54119,0.791857,0.551253,0.144207,-0.0207094,-0.240916
0.084067,0.0770203,0.488699,0.838687,0.665316,0.905755,0.112173,0.00629597,-0.00802684
0.093229,0.097374,0.50797,1.00312,0.406187,1.17954,0.0638106,0.0116794,0.196492
0.0949745,0.120008,0.531491,1.02263,0.0081728,1.35578,0.0384644,-0.00248785,0.341483
0.0876566,0.142433,0.557646,0.965448,-0.393031,1.42326,0.0166289,-0.0138558,0.413243
0.0724697,0.162634,0.584747,0.83958,-0.688798,1.41318,-0.00388494,-0.0104299,0.428535
0.0531629,0.180013,0.611715,0.736625,-0.754638,1.34852,-0.0160244,-0.0012252,0.406432
0.0343869,0.194726,0.637262,0.616486,-0.62303,1.2242,-0.00626454,0.00354081,0.401312
0.01945,0.205535,0.660304,0.393575,-0.412441,1.07209,0.00233819,0.0108385,0.415489
0.00927629,0.211177,0.680728,0.147997,-0.188984,0.943693,0.0372251,0.00740165,0.412374
0.00326436,0.212265,0.698866,-0.0271907,-0.0478507,0.838334,0.0778178,0.00355145,0.369671
-0.000774817,0.211798,0.715442,0.0181871,-0.0352968,0.803718,0.114283,0.0253887,0.279336
-0.00639338,0.214349,0.732256,0.252547,-0.210233,0.856454,0.155493,0.0647931,0.227782
-0.0171317,0.221337,0.750553,0.43628,-0.461337,0.927573,0.194447,0.0772006,0.216962
-0.0316146,0.229678,0.770072,0.410495,-0.51011,0.951041,0.202914,0.0760375,0.196276
-0.0447131,0.235434,0.789065,0.220128,-0.351676,0.856655,0.167901,0.0679975,0.136099
-0.0536684,0.236723,0.804583,-0.0113923,-0.197678,0.641479,0.147392,0.055609,0.0472349
-0.0598303,0.234434,0.815344,-0.133874,-0.176362,0.430584,0.160195,0.0543293,0.000110924
-0.0644958,0.231336,0.822968,-0.118467,-0.0939933,0.35329,0.203649,0.0910794,-0.0908576
-0.0658824,0.228898,0.829956,-0.0866955,0.142119,0.3528,0.234436,0.143255,-0.150312
-0.0658824,0.228898,0.829956,-0.0866955,0.142119,0.3528,0.234436,0.143255,-0.150312
-0.061394,0.226828,0.837374,-0.0849368,0.464747,0.385257,0.242111,0.174183,-0.157227
-0.0514707,0.224235,0.845149,-0.139561,0.694731,0.384862,0.22292,0.187342,-0.116064
-0.0375218,0.220115,0.852629,-0.250779,0.858092,0.364014,0.184099,0.194813,-0.055912
-0.021166,0.213558,0.859736,-0.3878,0.925764,0.353386,0.152031,0.210001,-0.000703931
-0.00346811,0.204279,0.86682,-0.540628,0.996386,0.362268,0.133141,0.220348,0.0288385
0.0145319,0.191894,0.874859,-0.707882,0.954011,0.42463,0.129198,0.225203,0.0348096
0.031327,0.176565,0.884495,-0.838551,0.894887,0.492742,0.111377,0.213827,-0.0025872
0.0453453,0.159624,0.895816,-0.888893,0.685877,0.562226,0.10109,0.192089,-0.0813088
0.0544943,0.142423,0.909144,-0.906488,0.432605,0.681479,0.0831081,0.195348,-0.180494
0.0590721,0.125134,0.925696,-0.917058,0.256981,0.868025,0.0629144,0.187292,-0.273176
0.0603999,0.108227,0.945723,-0.88526,0.119383,1.00352,0.0186949,0.142791,-0.3615
0.0601756,0.0927323,0.967036,-0.795817,0.0719046,1.00721,-0.0772911,0.0780578,-0.434413
0.0598883,0.0784559,0.987085,-0.769492,0.0937516,0.891156,-0.167548,0.00101342,-0.45573
0.0619508,0.06324,1.00377,-0.872479,0.245877,0.669351,-0.2291,-0.0901835,-0.431419
0.0669143,0.0446881,1.01561,-1.05612,0.270613,0.391953,-0.249079,-0.196187,-0.386489
0.0704431,0.0234012,1.02235,-1.06453,0.0902151,0.15375,-0.216209,-0.275292,-0.377891
0.0711813,0.00565889,1.02552,-0.679068,0.0273739,0.0612638,-0.157286,-0.30443,-0.455322
0.0727406,-0.0019862,1.02759,-0.0998638,0.138643,0.102122,-0.12097,-0.257525,-0.491736
0.0764805,0.0013219,1.03043,0.372161,0.214069,0.210095,-0.103048,-0.195532,-0.378504
0.0793111,0.0116361,1.03473,0.585062,0.0206459,0.297974,-0.0906667,-0.168311,-0.183234
0.0756367,0.0242665,1.0402,0.626461,-0.383385,0.339142,-0.0876884,-0.143491,-0.0179079
0.0644598,0.0379874,1.04592,0.728879,-0.69611,0.329099,-0.104057,-0.120179,0.0311694
0.0487583,0.0554439,1.0512,1.01161,-0.814667,0.291763,-0.130238,-0.0807997,0.00232744
0.0327151,0.07878,1.05554,1.29271,-0.746698,0.241301,-0.139389,-0.0183626,0.0146603
0.0188791,0.105991,1.05943,1.39612,-0.595571,0.21193,-0.121357,0.0417213,0.112421
0.00828021,0.133347,1.06249,1.31795,-0.431067,0.115701,-0.113843,0.0738703,0.24617
0.00129227,0.157525,1.06315,1.08366,-0.264553,-0.0453001,-0.115153,0.0842732,0.365853
-0.00236215,0.17596,1.06037,0.765266,-0.159679,-0.228359,-0.108972,0.0899245,0.448744
-0.00437125,0.18867,1.05451,0.532034,-0.182023,-0.345708,-0.0766389,0.098838,0.472922
-0.0076091,0.198569,1.04684,0.479412,-0.287173,-0.401847,-0.0149404,0.112962,0.436834
-0.0128948,0.2085,1.03905,0.513439,-0.407069,-0.361149,0.05447,0.143516,0.38973
-0.0198883,0.218759,1.03258,0.482933,-0.407797,-0.291927,0.110401,0.160881,0.358299
-0.0264729,0.226621,1.02725,0.270103,-0.383766,-0.256555,0.13999,0.156205,0.373717
-0.0322161,0.229261,1.02171,-0.0298157,-0.291459,-0.30202,0.143474,0.122323,0.360842
-0.0348803,0.225865,1.01473,-0.33481,-0.151615,-0.359121,0.142645,0.0878866,0.30758
-0.0351324,0.217056,1.00689,-0.543476,-0.0298594,-0.36489,0.148437,0.0624476,0.228741
-0.0325037,0.206216,0.999733,-0.545572,0.139408,-0.281846,0.148768,0.0545046,0.102105
-0.0277401,0.195978,0.994917,-0.506146,0.231001,-0.160805,0.157684,0.0521325,0.0264856
-0.0218727,0.185741,0.992527,-0.536682,0.310273,-0.0473573,0.148463,0.0312022,0.0129753
-0.0154329,0.174956,0.99263,-0.530446,0.327113,0.0857244,0.133376,-0.0057141,0.0182473
-0.010217,0.165714,0.995784,-0.373256,0.235406,0.235393,0.118521,-0.0313175,0.0130896
-0.00665319,0.160156,1.00152,-0.20332,0.234494,0.330717,0.088935,-0.0554328,0.0310954
-0.00307848,0.155988,1.00885,-0.24097,0.234818,0.392519,0.0533646,-0.0932091,0.110092
0.000351282,0.150257,1.0172,-0.324533,0.239452,0.429243,0.0186346,-0.130612,0.168374
0.00394291,0.14337,1.02571,-0.3695,0.247438,0.406327,-0.0174065,-0.156056,0.170519
0.00790068,0.13507,1.03348,-0.486922,0.247278,0.359411,-0.0216531,-0.18962,0.172608
0.0108158,0.123398,1.04055,-0.689739,0.101938,0.337885,0.0210507,-0.238075,0.178495
0.00896695,0.108326,1.04752,-0.807593,-0.232482,0.345439,0.0850799,-0.273783,0.110981
0.000187072,0.0922111,1.05502,-0.807775,-0.556252,0.407627,0.128369,-0.269034,-0.0533665
-0.0130798,0.0760569,1.06438,-0.815304,-0.646919,0.547503,0.181422,-0.246328,-0.234757
-0.0257576,0.0592493,1.07609,-0.855142,-0.51863,0.636191,0.215651,-0.239873,-0.427364
-0.0257576,0.0592493,1.07609,-0.855142,-0.51863,0.636191,0.215651,-0.239873,-0.427364
-0.0337934,0.0413242,1.08762,-0.902267,-0.202046,0.555101,0.174704,-0.256234,-0.620626
-0.0342027,0.0230597,1.09725,-0.869866,0.184468,0.502499,0.17173,-0.270949,-0.761227
-0.0271459,0.00720807,1.10785,-0.67325,0.516766,0.642588,0.242169,-0.222788,-0.824781
-0.0146637,-0.00377822,1.12329,-0.388402,0.721417,0.944975,0.282684,-0.141565,-0.784157
0.000609884,-0.0083415,1.1452,-0.0507505,0.770626,1.25106,0.283371,-0.0998636,-0.662709
0.0161138,-0.005449,1.17254,0.32066,0.767603,1.48466,0.249024,-0.0833756,-0.502556
0.0311128,0.00499147,1.20366,0.638513,0.730392,1.66214,0.191366,-0.0525494,-0.310784
0.0447273,0.021471,1.23807,0.86646,0.685078,1.85383,0.156699,0.00457787,-0.0984441
0.0566144,0.0417097,1.27585,0.939469,0.614098,2.02638,0.116683,0.0747787,0.0948195
0.0651848,0.0625048,1.31652,0.873607,0.431368,2.16379,0.0886599,0.112971,0.247469
0.0673168,0.0815216,1.3593,0.7418,0.074972,2.21738,0.0616959,0.134181,0.332068
0.0613657,0.0980157,1.40267,0.638045,-0.273024,2.20394,0.0499138,0.140294,0.334651
0.0485869,0.112724,1.44534,0.613211,-0.5318,2.12717,0.0654337,0.151731,0.263813
0.0323419,0.12702,1.487,0.662884,-0.571535,2.08681,0.0942518,0.184632,0.159684
0.0161685,0.142114,1.52871,0.752222,-0.481026,2.0959,0.157762,0.21645,0.0648627
0.00167412,0.158196,1.571,0.817519,-0.333805,2.1139,0.21551,0.242651,0.0234309
-0.0104793,0.174355,1.61404,0.814927,-0.178738,2.14158,0.254232,0.251079,0.0250983
-0.0209854,0.189745,1.65803,0.803556,-0.0787255,2.16739,0.281243,0.262705,0.0458773
-0.030382,0.204424,1.70229,0.782033,-0.000936775,2.13617,0.276144,0.262833,0.0608338
-0.0390139,0.218088,1.74548,0.732016,0.0275497,2.04721,0.25477,0.249597,0.0779717
-0.0477568,0.230869,1.78683,0.732349,0.0370724,1.93489,0.244043,0.242419,0.0876536
-0.0549454,0.243583,1.82577,0.728327,0.169652,1.78879,0.23953,0.238679,0.081015
-0.0581152,0.255554,1.86177,0.66026,0.422016,1.64039,0.226103,0.246617,0.0904018
-0.0557082,0.265409,1.89499,0.500888,0.653817,1.52612,0.217319,0.265874,0.132922
-0.0497646,0.272039,1.92631,0.324013,0.757519,1.47135,0.223284,0.281254,0.18095
-0.0430971,0.275389,1.95663,0.147538,0.720656,1.44241,0.233538,0.2783,0.211838
-0.037198,0.275776,1.98652,0.00245517,0.685444,1.44296,0.228091,0.265199,0.211167
-0.0315293,0.273705,2.01603,-0.117508,0.682602,1.40361,0.191407,0.241752,0.175661
-0.0254058,0.269838,2.044,-0.184002,0.69572,1.29723,0.157342,0.197453,0.120333
-0.0183096,0.265396,2.06953,-0.194909,0.688312,1.18133,0.147596,0.15252,0.0620865
-0.010181,0.261319,2.09304,-0.181394,0.746728,1.1175,0.148293,0.127907,0.00445223
-0.000971056,0.257385,2.11664,-0.206762,0.775721,1.18839,0.158089,0.129232,-0.016691
0.00850258,0.253287,2.14187,-0.209214,0.824227,1.24433,0.13598,0.115455,-0.0336652
0.0190428,0.249719,2.16722,-0.18569,0.843776,1.19782,0.0766875,0.0721589,-0.042241
0.0295665,0.246777,2.19084,-0.163424,0.805791,1.0928,0.0341843,0.0223102,-0.0325196
0.04017,0.244601,2.21266,-0.126579,0.786039,1.04004,0.0295329,0.00391877,-0.0265815
0.0505069,0.243793,2.2346,-0.0472085,0.790135,1.09764,0.0685765,-0.00107685,-0.0197455
0.0607668,0.244699,2.25787,-0.00923919,0.7936,1.1663,0.105402,-0.00659102,0.00125641
0.0700536,0.245352,2.28259,-0.100149,0.731043,1.23889,0.104158,0.00232756,0.0547088
0.0771952,0.243757,2.30879,-0.255233,0.615671,1.28558,0.0804652,-0.0102369,0.0917089
0.0807751,0.238925,2.33572,-0.43098,0.347532,1.28304,0.0372054,-0.0268607,0.0963089
0.0783319,0.231798,2.36242,-0.461217,0.0672643,1.26142,0.0249611,-0.0635918,0.0133156
0.0734146,0.22552,2.38894,-0.361143,0.0910085,1.27801,-0.00731286,-0.0608719,-0.127267
0.0713894,0.221116,2.41567,-0.274052,0.292867,1.28664,-0.0625121,-0.0410267,-0.212104
0.0727275,0.217773,2.44128,-0.266653,0.384028,1.16394,-0.130044,-0.0436943,-0.214234
0.0755266,0.21297,2.4635,-0.397179,0.335484,0.974984,-0.15424,-0.0751199,-0.155338
0.0769041,0.204828,2.4825,-0.563212,0.203722,0.833434,-0.128002,-0.0755621,-0.118631
0.0769464,0.193813,2.49957,-0.651672,0.153426,0.774951,-0.110175,-0.0415286,-0.146077
0.0772672,0.183162,2.51666,-0.511604,0.198751,0.84075,-0.0768758,-0.00424668,-0.214211
0.0779944,0.177994,2.536,-0.12729,0.208477,1.0366,-0.0363096,0.0359273,-0.245277
0.0776942,0.181623,2.55909,0.292501,0.155873,1.25993,-0.0202176,0.0822835,-0.190878
0.0740787,0.192319,2.58572,0.535313,-0.0511021,1.421,-0.0440973,0.106068,-0.0573376
0.0639746,0.205159,2.61419,0.517834,-0.411822,1.4337,-0.098952,0.11513,0.090353
0.0468337,0.215545,2.6414,0.372073,-0.695115,1.26557,-0.144275,0.0990421,0.155293
0.027567,0.222826,2.66405,0.284783,-0.708713,0.963753,-0.193752,0.0982299,0.104926
0.0109646,0.228144,2.6805,0.221025,-0.590747,0.66482,-0.21057,0.120442,0.0321195
-0.00233703,0.232137,2.69188,0.174707,-0.477982,0.464874,-0.157134,0.145845,0.012252
-0.0128457,0.235075,2.70024,0.1252,-0.383513,0.360462,-0.0742084,0.168142,0.034169
-0.0211212,0.236894,2.70719,0.0527888,-0.285914,0.316775,-0.0158167,0.180378,0.0806042
-0.0275078,0.236157,2.71326,-0.132687,-0.212521,0.275106,0.0389785,0.160589,0.151289
-0.0315602,0.231447,2.71814,-0.32085,-0.0665941,0.211256,0.0710273,0.127,0.19035
-0.0323745,0.22382,2.72183,-0.416382,0.0461984,0.184165,0.0938326,0.099352,0.180509
-0.0316211,0.21524,2.72602,-0.421562,0.123021,0.275155,0.149401,0.101582,0.165905
-0.0300492,0.206634,2.73303,-0.435636,0.176302,0.433878,0.183107,0.101926,0.1705
-0.0280149,0.196625,2.74278,-0.554311,0.22484,0.536577,0.176794,0.0663324,0.196716
-0.0255614,0.183887,2.7535,-0.687612,0.205873,0.540184,0.142834,-0.0101709,0.197755
-0.0243535,0.169249,2.76374,-0.741426,0.0724322,0.519845,0.13054,-0.0804439,0.154304
-0.0269959,0.15446,2.7749,-0.704179,-0.158791,0.660065,0.151992,-0.105858,0.0981627
-0.0336011,0.140832,2.7907,-0.601561,-0.243167,0.951689,0.179151,-0.112609,0.0264975
-0.0404838,0.129649,2.81158,-0.439037,-0.135591,1.12917,0.141985,-0.146273,-0.0565531
-0.0436746,0.121158,2.83415,-0.330702,0.0958111,1.13884,0.07131,-0.214511,-0.108405
-0.0434764,0.114104,2.85608,-0.286243,0.140244,1.06993,0.0362831,-0.259023,-0.117641
-0.0440601,0.108159,2.87637,-0.209823,0.0133919,0.979529,0.0270953,-0.272942,-0.13161
-0.0475619,0.104361,2.89516,-0.0819716,-0.147056,0.921199,0.0559981,-0.266098,-0.168995
-0.0527474,0.103025,2.91375,0.0300866,-0.151027,0.95057,0.0920552,-0.228807,-0.211505
-0.0562694,0.103325,2.93344,0.101861,0.0293741,1.00869,0.123414,-0.18737,-0.243541
-0.0562694,0.103325,2.93344,0.101861,0.0293741,1.00869,0.123414,-0.18737,-0.243541
-0.0554946,0.104706,2.95402,0.137791,0.241409,1.02031,0.133501,-0.170159,-0.258366
-0.0520518,0.106158,2.97423,0.0954692,0.299667,0.980219,0.133217,-0.153121,-0.23688
-0.0478357,0.106345,2.99368,0.0203114,0.332788,0.965534,0.149323,-0.123927,-0.222439
-0.0418993,0.105608,3.01321,-0.00128231,0.494524,0.987534,0.173062,-0.082409,-0.258031
-0.0320145,0.104608,3.0335,-0.030826,0.699949,1.04155,0.189427,-0.0473923,-0.278635
-0.0194366,0.102941,3.05494,-0.087376,0.773372,1.10204,0.212463,-0.0338378,-0.258976
-0.0064868,0.10034,3.07767,-0.147971,0.740474,1.1763,0.228317,-0.0267507,-0.237717
0.00474621,0.0972131,3.10243,-0.15233,0.610028,1.3078,0.241172,-0.00352593,-0.224459
0.0117635,0.0956655,3.13068,0.00679104,0.355704,1.5299,0.261301,0.0355373,-0.223681
0.013997,0.0999095,-3.11909,0.395985,0.244955,1.81863,0.285237,0.0800748,-0.230884
0.015058,0.112032,-3.07988,0.722225,0.288344,2.10706,0.291174,0.125042,-0.179828
0.0162407,0.127887,-3.03521,0.754579,0.342702,2.36253,0.285711,0.165976,-0.0626795
0.0149513,0.142381,-2.98601,0.607056,0.159495,2.52147,0.266084,0.162348,0.0288327
0.00772115,0.153744,-2.93507,0.499957,-0.132275,2.52355,0.231231,0.127809,0.015107
-0.00548361,0.164364,-2.88488,0.592143,-0.378889,2.44422,0.190804,0.117849,-0.0917546
-0.0221869,0.177761,-2.83628,0.826148,-0.419666,2.33574,0.162338,0.158989,-0.201486
-0.036565,0.195185,-2.78964,1.0426,-0.102629,2.20182,0.160435,0.189569,-0.237051
-0.0429199,0.214895,-2.74564,1.07159,0.360715,2.0342,0.141544,0.214984,-0.156423
-0.041633,0.233394,-2.70459,0.938763,0.642685,1.90436,0.129024,0.237003,0.0266399
-0.0376458,0.248973,-2.66592,0.771225,0.642026,1.80028,0.134285,0.237604,0.201313
-0.03553,0.26174,-2.62933,0.644258,0.485088,1.70663,0.131252,0.236789,0.316589
-0.0370343,0.272384,-2.59465,0.541221,0.279636,1.60562,0.129029,0.235505,0.380425
-0.0419814,0.28094,-2.5623,0.435367,0.120243,1.47487,0.124567,0.226096,0.412082
-0.0491121,0.287229,-2.53294,0.325454,-0.00228899,1.31784,0.113457,0.213044,0.417212
-0.0567108,0.290981,-2.50694,0.167818,0.00627826,1.16591,0.116203,0.217281,0.398913
-0.0624067,0.290915,-2.48344,-0.0434328,0.103363,1.09568,0.154701,0.238291,0.366914
-0.064251,0.286973,-2.46123,-0.220861,0.364353,1.06465,0.168301,0.248199,0.289981
-0.0612911,0.278769,-2.43975,-0.484969,0.496245,1.06329,0.18044,0.25001,0.235179
-0.0574016,0.265505,-2.41809,-0.694201,0.444182,1.10027,0.202332,0.234397,0.181663
-0.055586,0.249755,-2.39666,-0.750795,0.295978,1.04745,0.186143,0.215475,0.0490956
-0.0546333,0.233615,-2.37715,-0.764028,0.30204,0.944278,0.126762,0.207219,-0.0993248
-0.050744,0.217295,-2.35963,-0.78448,0.504776,0.860576,0.107086,0.180676,-0.208595
-0.0416841,0.200385,-2.34335,-0.842238,0.73907,0.825798,0.10375,0.166316,-0.256793
-0.0283315,0.182299,-2.3269,-0.910422,0.897571,0.869118,0.100246,0.144426,-0.260511
-0.012995,0.163346,-2.30933,-0.959407,0.899171,0.898232,0.0769696,0.1027,-0.2655
0.000198049,0.143787,-2.29141,-0.982025,0.676023,0.883708,0.0264763,0.0483057,-0.278783
0.00841748,0.125019,-2.27398,-0.895107,0.391761,0.828049,-0.0257925,-0.00882056,-0.34155
0.0124302,0.108832,-2.25843,-0.745782,0.196718,0.690724,-0.106488,-0.0462596,-0.433193
0.0141816,0.0951534,-2.24673,-0.66596,0.120552,0.442032,-0.178256,-0.0770482,-0.495774
0.0161454,0.0816301,-2.24087,-0.718069,0.149665,0.127087,-0.222039,-0.114307,-0.518337
0.0202145,0.0667892,-2.24063,-0.735544,0.268451,-0.11537,-0.245632,-0.123614,-0.54618
0.027351,0.0541653,-2.24444,-0.474028,0.418314,-0.286837,-0.261118,-0.102493,-0.610467
0.0368409,0.0491543,-2.25093,0.0169849,0.500817,-0.355592,-0.235259,-0.0774371,-0.626306
0.0482594,0.0542581,-2.25779,0.501017,0.608858,-0.298523,-0.199995,-0.0208113,-0.5375
0.0614549,0.0670874,-2.26369,0.77958,0.659731,-0.222512,-0.224807,0.052999,-0.352445
0.0740357,0.0836012,-2.26868,0.894556,0.536443,-0.176588,-0.274485,0.10305,-0.143445
0.0825811,0.101956,-2.27384,0.986731,0.254004,-0.204648,-0.322675,0.120533,0.0150985
0.0851894,0.122182,-2.28059,1.09391,-0.0558116,-0.303835,-0.360438,0.132712,0.117409
0.0832177,0.144023,-2.28991,1.15349,-0.242401,-0.441086,-0.376252,0.1438,0.196381
0.0793531,0.166001,-2.30212,1.12386,-0.324189,-0.589528,-0.376871,0.160326,0.275356
0.0746225,0.186132,-2.3175,1.00208,-0.430568,-0.777273,-0.370705,0.169404,0.363446
0.0688972,0.203471,-2.33688,0.871656,-0.511588,-0.997675,-0.361414,0.174391,0.421322
0.0626209,0.217991,-2.36024,0.741124,-0.61364,-1.18557,-0.326587,0.191183,0.457758
0.0626209,0.217991,-2.36024,0.741124,-0.61364,-1.18557,-0.326587,0.191183,0.457758
0.0556951,0.23031,-2.38659,0.64528,-0.651829,-1.30985,-0.270276,0.227364,0.460672
0.0501073,0.240662,-2.41495,0.529742,-0.568113,-1.39047,-0.218672,0.263019,0.465323
0.0464535,0.248638,-2.4444,0.411681,-0.521144,-1.43152,-0.162318,0.286733,0.477847
0.0439466,0.254202,-2.4745,0.270725,-0.501492,-1.46592,-0.114054,0.283898,0.496105
0.0409131,0.256809,-2.50503,0.10921,-0.571688,-1.48832,-0.0571385,0.255766,0.510692
0.0360709,0.255478,-2.53573,-0.140528,-0.713932,-1.4818,-0.000590824,0.237861,0.506632
0.0275898,0.249004,-2.56509,-0.408009,-0.866932,-1.37299,0.0635202,0.223794,0.458353
0.015687,0.238021,-2.59176,-0.625285,-0.952882,-1.25711,0.146194,0.169832,0.342872
0.0036442,0.224051,-2.61631,-0.73409,-0.778494,-1.14868,0.193239,0.0956098,0.168511
-0.00431997,0.208889,-2.63834,-0.796489,-0.513525,-1.00848,0.235488,0.023047,-0.000812173
-0.00990036,0.191981,-2.65719,-0.917616,-0.46706,-0.822158,0.283736,-0.0425034,-0.0874811
-0.0175041,0.172989,-2.67231,-0.997172,-0.571254,-0.665354,0.305816,-0.101798,-0.177018
-0.026929,0.153058,-2.68585,-1.02866,-0.565336,-0.644656,0.243454,-0.160009,-0.328043
-0.0344773,0.133289,-2.69987,-0.976602,-0.356971,-0.691117,0.196396,-0.236643,-0.512877
-0.0361308,0.115749,-2.71437,-0.80835,0.0400309,-0.666564,0.196175,-0.26868,-0.671692
-0.0293771,0.103173,-2.72612,-0.473366,0.498985,-0.429335,0.236095,-0.254783,-0.748941
-0.0151967,0.0979313,-2.73119,-0.0616238,0.859207,-0.0599473,0.246309,-0.204349,-0.699471
0.00345274,0.100245,-2.72914,0.268158,0.977701,0.239138,0.190702,-0.164907,-0.528037
0.0208391,0.107367,-2.72292,0.402745,0.794503,0.371379,0.123158,-0.177553,-0.285912
0.0331675,0.115583,-2.71514,0.393333,0.545357,0.426286,0.0740392,-0.180085,-0.0850689
0.0415863,0.123983,-2.70614,0.424954,0.432434,0.501868,0.0507553,-0.147483,-0.00174385
0.0489901,0.133137,-2.6958,0.428698,0.455904,0.567755,0.0388195,-0.0938642,0.0251632
0.0560789,0.141319,-2.68408,0.321305,0.375794,0.644348,0.0533654,-0.0707594,0.0724896
0.0590478,0.147872,-2.67053,0.275463,0.0977235,0.732817,0.0688125,-0.0511827,0.0748569
0.0554515,0.155001,-2.65524,0.37187,-0.216369,0.822571,0.0986075,-0.0365219,-0.00203258
0.0462616,0.165133,-2.63846,0.566383,-0.417339,0.876093,0.109963,-0.0010222,-0.105967
0.0344063,0.179404,-2.62113,0.800522,-0.427132,0.889271,0.101513,0.0380622,-0.168182
0.0248669,0.198187,-2.60367,1.0207,-0.170352,0.884503,0.0834715,0.0856711,-0.18214
0.021294,0.220032,-2.58624,1.10706,0.158585,0.874185,0.05257,0.14511,-0.0875326
0.0220936,0.242035,-2.56937,1.05262,0.279759,0.80794,0.0264952,0.170877,0.0870704
0.0237555,0.26252,-2.55445,0.969197,0.240486,0.680546,-5.48363e-06,0.158074,0.248151
0.0244854,0.280933,-2.54249,0.833343,0.152704,0.521646,-0.0187624,0.154648,0.373473
0.0234258,0.295588,-2.53327,0.601577,-0.00184832,0.409453,0.00531736,0.160748,0.492471
0.0199515,0.305017,-2.52604,0.328108,-0.120889,0.306261,0.0464308,0.161668,0.563027
0.0159648,0.30894,-2.52085,0.0444733,-0.09997,0.19941,0.0932359,0.156893,0.567541
0.0139437,0.306355,-2.51746,-0.326771,-0.00481316,0.145513,0.132565,0.162929,0.546913
0.0129778,0.29663,-2.51382,-0.617247,-0.00198127,0.194677,0.169566,0.18918,0.487374
0.0111743,0.283815,-2.50906,-0.635252,-0.055424,0.249517,0.19751,0.18627,0.348392
0.00712646,0.272062,-2.50287,-0.559344,-0.186304,0.346845,0.24869,0.175304,0.218504
0.000968027,0.260618,-2.49416,-0.623946,-0.168518,0.498782,0.277919,0.170947,0.115004
-0.00465825,0.246161,-2.48211,-0.835034,-0.115127,0.668467,0.30504,0.148467,0.0215109
-0.0106376,0.227863,-2.46753,-0.964799,-0.13049,0.743114,0.288866,0.101888,-0.122278
-0.0159697,0.208351,-2.45297,-0.955701,-0.0734198,0.697232,0.217864,0.0457904,-0.315422
-0.0185336,0.189918,-2.4397,-0.863215,0.0936279,0.653004,0.181011,-0.0110359,-0.46749
-0.0169463,0.17343,-2.42656,-0.775037,0.293943,0.682895,0.161314,-0.0430604,-0.537894
-0.0122604,0.15831,-2.413,-0.722294,0.371737,0.662871,0.098853,-0.076634,-0.543158
-0.00779636,0.144453,-2.40099,-0.653875,0.206648,0.530787,0.0168093,-0.149155,-0.528435
-0.00724005,0.133097,-2.39216,-0.458208,-0.0140445,0.358171,-0.0513415,-0.223954,-0.559102
-0.00952232,0.127119,-2.38589,-0.120356,-0.0846676,0.301104,-0.0607146,-0.245949,-0.61665
-0.0101956,0.128341,-2.37966,0.233857,0.12137,0.305738,-0.068929,-0.21596,-0.649649
-0.00585814,0.135065,-2.37454,0.423241,0.373586,0.167116,-0.174524,-0.170902,-0.566772
0.00294261,0.144451,-2.37395,0.508998,0.483637,-0.129505,-0.244153,-0.19124,-0.422346
0.0136102,0.155282,-2.37976,0.581631,0.481872,-0.425364,-0.274371,-0.165196,-0.302361
0.0238545,0.16749,-2.39045,0.677842,0.349783,-0.581289,-0.268086,-0.0770513,-0.2257
0.0238545,0.16749,-2.39045,0.677842,0.349783,-0.581289,-0.268086,-0.0770513,-0.2257
0.0313999,0.18244,-2.40251,0.869529,0.216862,-0.545859,-0.237051,0.044574,-0.19158
0.0369841,0.20156,-2.4134,1.0682,0.121943,-0.467411,-0.242297,0.155704,-0.162699
0.040526,0.223566,-2.4236,1.15508,0.0247594,-0.462526,-0.282167,0.233061,-0.0800089
0.0425135,0.245993,-2.4344,1.12048,-0.0843333,-0.498658,-0.311439,0.283666,0.0317179
0.0426353,0.267018,-2.44581,1.02512,-0.178849,-0.51644,-0.300313,0.328447,0.142793
0.0418998,0.285703,-2.4573,0.887845,-0.20222,-0.508847,-0.268476,0.36246,0.244251
0.0406176,0.301146,-2.46807,0.698034,-0.247041,-0.458743,-0.22605,0.376601,0.350297
0.0378419,0.31311,-2.47758,0.550009,-0.324521,-0.399961,-0.193632,0.372579,0.444718
0.0327407,0.322905,-2.4857,0.468312,-0.467669,-0.336143,-0.158591,0.351869,0.511683
0.0227934,0.331373,-2.49235,0.39229,-0.750865,-0.270206,-0.105276,0.329537,0.575158
0.00762851,0.337629,-2.49787,0.223162,-0.90404,-0.249164,-0.0708574,0.320768,0.612598
-0.00777756,0.339301,-2.50341,-0.0719655,-0.808875,-0.289351,-0.0693871,0.313114,0.625515
-0.0206375,0.334588,-2.51055,-0.401412,-0.752691,-0.379801,-0.0670104,0.290371,0.626489
-0.0338773,0.324444,-2.51973,-0.622889,-0.906617,-0.459603,-0.0290688,0.271037,0.576053
-0.0513758,0.311023,-2.53081,-0.769491,-1.18253,-0.532339,0.00503559,0.260089,0.474172
-0.0727403,0.29459,-2.5432,-0.963187,-1.31097,-0.544856,0.0611836,0.236713,0.338241
-0.0941476,0.274121,-2.55636,-1.18955,-1.13882,-0.542713,0.120146,0.170741,0.173274
-0.108767,0.249507,-2.56984,-1.39136,-0.664091,-0.489835,0.144925,0.121423,0.00984728
-0.114005,0.221624,-2.58254,-1.50557,-0.168013,-0.430716,0.144088,0.0658378,-0.116072
-0.111259,0.192834,-2.59471,-1.49036,0.141447,-0.442059,0.110223,-0.0197386,-0.199774
-0.106004,0.164806,-2.60732,-1.43228,0.133035,-0.489616,0.0955065,-0.112245,-0.218794
-0.101794,0.138813,-2.61989,-1.26754,0.115129,-0.464042,0.0868776,-0.172911,-0.254034
-0.0974452,0.117402,-2.63038,-0.967862,0.193711,-0.340998,0.101825,-0.210779,-0.300383
-0.0919695,0.101189,-2.63701,-0.737541,0.291365,-0.156778,0.123032,-0.227093,-0.269848
-0.084922,0.0878786,-2.63945,-0.623422,0.371637,0.0303303,0.120732,-0.264926,-0.197863
-0.0774924,0.0762944,-2.63853,-0.533588,0.358106,0.132926,0.102473,-0.312375,-0.170528
-0.0724727,0.0657909,-2.63657,-0.506482,0.15418,0.1313,0.0706352,-0.352469,-0.192069
-0.0705177,0.0559597,-2.63488,-0.457854,0.068605,0.107104,0.0697386,-0.391961,-0.297992
-0.0685718,0.0477647,-2.634,-0.345858,0.166404,0.0376475,0.0298505,-0.376341,-0.456384
-0.0631319,0.0421677,-2.63406,-0.221313,0.37753,0.00978767,0.0150297,-0.339604,-0.594508
-0.0534512,0.039071,-2.63313,-0.0717232,0.605836,0.117423,0.0533239,-0.295351,-0.656502
-0.038881,0.0394723,-2.62928,0.136076,0.876648,0.268031,0.0760113,-0.242719,-0.682854
-0.0196576,0.0442901,-2.62246,0.379212,1.07134,0.394816,0.062911,-0.190084,-0.638548
0.00337558,0.0549128,-2.61355,0.699013,1.2787,0.489374,0.0221727,-0.128129,-0.539187
0.0292838,0.0720405,-2.60289,0.992245,1.36088,0.615708,-0.00427078,-0.0581335,-0.362747
0.0550926,0.0946236,-2.58974,1.19447,1.31462,0.802691,-0.0108121,0.010025,-0.145052
0.0778246,0.120548,-2.57352,1.28008,1.11437,0.969808,-0.0362883,0.052889,0.0629802
0.0945637,0.147717,-2.55571,1.2616,0.788604,1.00524,-0.0896103,0.0713598,0.226527
0.103481,0.173663,-2.5385,1.14862,0.360811,0.941232,-0.131436,0.073991,0.346297
0.103352,0.197302,-2.52293,1.05987,-0.0621663,0.828139,-0.139649,0.082285,0.393183
0.0970538,0.2192,-2.50955,0.989647,-0.25212,0.705045,-0.140161,0.117153,0.363644
0.0893189,0.239217,-2.498,0.902616,-0.238586,0.613005,-0.123632,0.162266,0.329681
0.0833437,0.257291,-2.48775,0.810018,-0.0839704,0.537023,-0.0908677,0.197699,0.309429
0.0811526,0.272914,-2.47864,0.6748,0.0815179,0.473041,-0.0724482,0.223564,0.315594
0.0804798,0.285604,-2.4706,0.530544,0.0402859,0.401468,-0.0436739,0.224333,0.341365
0.0781897,0.29562,-2.46372,0.418044,-0.0711425,0.337912,-0.0119624,0.224652,0.349802
0.0736753,0.303495,-2.45754,0.321981,-0.197331,0.320182,0.0215828,0.232543,0.332523
0.0669295,0.309478,-2.45095,0.218243,-0.267921,0.356825,0.0666688,0.243648,0.291699
0.0591548,0.312771,-2.44315,0.0548331,-0.260247,0.406777,0.0963053,0.263812,0.257834
0.051858,0.312485,-2.4345,-0.131663,-0.198441,0.402036,0.106727,0.252783,0.212973
0.0463524,0.308462,-2.42677,-0.305225,-0.117987,0.30404,0.088801,0.219014,0.162334
0.0432112,0.301103,-2.42123,-0.450924,-0.0209355,0.203996,0.0916192,0.191883,0.113084
0.0427374,0.29098,-2.41699,-0.577541,0.101695,0.172703,0.122524,0.184429,0.0734519
0.0452013,0.27886,-2.41237,-0.647512,0.259387,0.22982,0.138338,0.18914,0.0305629
0.0452013,0.27886,-2.41237,-0.647512,0.259387,0.22982,0.138338,0.18914,0.0305629
0.0488472,0.265755,-2.40596,-0.692049,0.261423,0.332967,0.158056,0.165592,0.0214523
0.0516087,0.252242,-2.39742,-0.697472,0.240431,0.419039,0.143284,0.132877,0.0214483
0.0538705,0.238687,-2.38801,-0.717226,0.213121,0.406918,0.0816848,0.0839612,0.0143071
0.0559612,0.224078,-2.37964,-0.800238,0.192373,0.324842,0.0337385,0.020669,0.0188223
0.0585101,0.207199,-2.37287,-0.937328,0.20915,0.25967,-0.000524275,-0.0111382,0.0126419
0.0608571,0.187504,-2.36611,-1.05893,0.149306,0.295705,0.0070799,-0.0268646,-0.010664
0.0619516,0.166825,-2.35837,-1.04913,0.0932197,0.331781,-0.0209524,-0.0483486,-0.0954105
0.0610404,0.146786,-2.35067,-1.00018,-0.0590888,0.289687,-0.0560131,-0.0943559,-0.186058
0.0585745,0.127815,-2.34479,-0.946425,-0.111763,0.166359,-0.107578,-0.153294,-0.287202
0.0552219,0.108778,-2.3417,-0.992154,-0.197716,0.0378439,-0.114331,-0.194598,-0.344859
0.0497236,0.0882564,-2.34078,-1.06078,-0.349136,-0.0502139,-0.103053,-0.210457,-0.402508
0.0409593,0.0672884,-2.3413,-1.01634,-0.539085,-0.0866573,-0.0888899,-0.220131,-0.516222
0.0292293,0.0487751,-2.34236,-0.806318,-0.603823,-0.0793664,-0.0713656,-0.215771,-0.653532
0.018595,0.0361468,-2.34383,-0.446398,-0.433673,-0.106105,-0.0919308,-0.188715,-0.754091
0.01288,0.0304002,-2.34685,-0.149204,-0.15371,-0.221412,-0.143169,-0.162277,-0.747081
0.0124364,0.0292743,-2.35302,0.0373321,0.0714868,-0.397647,-0.169688,-0.161419,-0.627199
0.0157465,0.0319718,-2.36226,0.259777,0.219402,-0.503703,-0.137564,-0.153672,-0.48884
0.0209833,0.0398919,-2.37248,0.56091,0.239739,-0.487187,-0.116104,-0.0821738,-0.375634
0.024709,0.0543588,-2.38165,0.91178,0.0645146,-0.390541,-0.0927242,-0.00647422,-0.256924
0.0236106,0.0755159,-2.38903,1.20738,-0.228465,-0.302619,-0.0973479,0.0708513,-0.132507
0.0164452,0.100868,-2.39526,1.31267,-0.536942,-0.280378,-0.126499,0.135243,0.0022136
0.00434997,0.126207,-2.40161,1.21106,-0.72248,-0.339806,-0.161725,0.183322,0.116778
-0.00929475,0.148568,-2.40973,1.02996,-0.735599,-0.483134,-0.196664,0.212414,0.18845
-0.0211214,0.167554,-2.42101,0.854512,-0.61863,-0.665625,-0.210011,0.226204,0.226147
-0.0288247,0.183267,-2.43568,0.684916,-0.403053,-0.809861,-0.191434,0.242545,0.265682
-0.0318566,0.196287,-2.4525,0.583416,-0.231147,-0.87939,-0.154353,0.257635,0.30992
-0.032247,0.208259,-2.47037,0.571065,-0.205997,-0.910285,-0.114375,0.263138,0.363809
-0.0335619,0.220389,-2.48874,0.591438,-0.325155,-0.926315,-0.0733351,0.256543,0.41876
-0.0375442,0.232738,-2.5074,0.573792,-0.503571,-0.93424,-0.039206,0.246863,0.46834
-0.0444049,0.244152,-2.5259,0.486062,-0.600299,-0.911487,-0.00798213,0.259891,0.502345
-0.0515438,0.253265,-2.54382,0.337068,-0.537999,-0.875941,0.00190378,0.282793,0.517671
-0.0567606,0.259085,-2.56143,0.136162,-0.445379,-0.869157,0.0238614,0.272798,0.535487
-0.0611002,0.25985,-2.57953,-0.177506,-0.478911,-0.887398,0.0291203,0.253777,0.56518
-0.0669411,0.254005,-2.59869,-0.520485,-0.595364,-0.935268,0.032503,0.217332,0.563021
-0.07435,0.242019,-2.61967,-0.810216,-0.659135,-1.01447,0.0419195,0.166696,0.484394
-0.0825738,0.225524,-2.64235,-1.00199,-0.685189,-1.05682,0.0605396,0.128372,0.371472
-0.0904904,0.20664,-2.66603,-1.06196,-0.588496,-1.09696,0.064244,0.098895,0.230779
-0.0952304,0.18782,-2.6909,-1.04539,-0.373333,-1.16242,0.0572204,0.0638384,0.0928153
-0.0957624,0.169376,-2.71646,-1.04612,-0.116079,-1.15825,0.0902195,0.013813,0.00897545
-0.0912455,0.150272,-2.74081,-1.09794,0.171344,-1.04479,0.136113,-0.017361,-0.0279865
-0.0830863,0.129338,-2.76159,-1.16781,0.333905,-0.823131,0.173454,-0.0407156,-0.0300992
-0.0742691,0.10712,-2.7781,-1.16871,0.325674,-0.665906,0.156356,-0.0831177,-0.0551341
-0.0680173,0.08588,-2.79253,-1.03481,0.167502,-0.636677,0.102565,-0.160991,-0.118889
-0.0646591,0.0679257,-2.80648,-0.85866,0.073247,-0.631274,0.0926633,-0.231901,-0.208355
-0.0617873,0.0528022,-2.81941,-0.752857,0.172506,-0.551755,0.137544,-0.261843,-0.276172
-0.0555813,0.0388265,-2.82994,-0.721044,0.416699,-0.412611,0.168212,-0.258257,-0.340782
-0.0445719,0.0250512,-2.83718,-0.680656,0.637956,-0.234078,0.183993,-0.247931,-0.404169
-0.0306787,0.0132273,-2.84052,-0.505399,0.729334,-0.0653972,0.188279,-0.252032,-0.490106
-0.0169472,0.00489211,-2.84048,-0.333967,0.624859,0.0982613,0.16607,-0.222983,-0.533832
-0.00598003,-0.000413374,-2.83655,-0.210125,0.476524,0.301305,0.179594,-0.19098,-0.557971
0.00278158,-0.00371685,-2.82856,-0.12154,0.407426,0.497171,0.168498,-0.142526,-0.588466
0.0112883,-0.00463778,-2.81672,0.0505115,0.474973,0.691262,0.16576,-0.109801,-0.616163
0.0229984,-0.000563448,-2.80095,0.341574,0.695974,0.905031,0.145247,-0.0498188,-0.616186
0.0385501,0.00989467,-2.78068,0.635551,0.860955,1.16198,0.120748,0.0252296,-0.508314
0.0385501,0.00989467,-2.78068,0.635551,0.860955,1.16198,0.120748,0.0252296,-0.508314
0.0560178,0.0259485,-2.75599,0.832357,0.915036,1.3753,0.0893551,0.0838222,-0.306607
0.0727238,0.0451475,-2.72853,0.891411,0.838768,1.48075,0.0496067,0.0955319,-0.0831578
0.0862933,0.0646493,-2.70022,0.812312,0.663975,1.49072,0.0218582,0.0803666,0.109234
0.0949536,0.0817924,-2.67213,0.639817,0.404298,1.45572,0.0164527,0.060995,0.244944
0.0978662,0.0955611,-2.64487,0.476979,0.138139,1.38145,0.0198775,0.0396754,0.293393
0.0961415,0.106447,-2.61895,0.368468,-0.0244812,1.29705,0.0348141,0.0352015,0.27791
0.0925202,0.115883,-2.59475,0.360833,-0.0442176,1.18908,0.0297066,0.0535965,0.227204
0.0896397,0.125449,-2.57261,0.394209,0.0122559,1.10377,0.048757,0.0533426,0.190398
0.0874517,0.135277,-2.5516,0.393376,0.038448,1.07754,0.0994623,0.0566328,0.200807
0.0852636,0.144647,-2.53014,0.35798,0.0297626,1.14557,0.138584,0.0790186,0.224655
0.0819639,0.153755,-2.50663,0.361527,-0.0126871,1.25002,0.155788,0.112455,0.23429
0.0776527,0.163389,-2.48154,0.410775,-0.0134132,1.29453,0.127652,0.122944,0.224141
0.0733933,0.17422,-2.45626,0.479015,0.00851762,1.26558,0.0933404,0.110107,0.21564
0.0691313,0.185499,-2.43232,0.455089,-0.0182513,1.17043,0.0654096,0.103749,0.242811
0.0633979,0.194517,-2.40987,0.295411,-0.131331,1.10292,0.0704993,0.0988861,0.290877
0.0555923,0.20022,-2.38805,0.15525,-0.221551,1.07309,0.0869953,0.104418,0.274926
0.046813,0.20383,-2.36685,0.1099,-0.220427,1.02417,0.0863292,0.108534,0.200394
0.0389172,0.207021,-2.34677,0.133978,-0.157044,0.956183,0.0724275,0.097574,0.116182
0.0328514,0.210861,-2.32806,0.184769,-0.0588999,0.900183,0.0679186,0.0904815,0.0552349
0.0291367,0.215302,-2.31005,0.196222,0.0702219,0.888754,0.0661597,0.106221,0.0262104
0.0273846,0.219257,-2.29179,0.146725,0.127849,0.915318,0.0787736,0.109853,0.0278175
0.0254326,0.222027,-2.27314,0.0826462,0.0636886,0.912188,0.0825552,0.0927504,0.0262699
0.0218987,0.223632,-2.25506,0.0386492,0.000207894,0.852323,0.0602065,0.070589,-0.00156063
0.0187138,0.224189,-2.23838,-0.0145025,0.0636907,0.782234,0.0286763,0.0579025,-0.0520973
0.0178531,0.223715,-2.22306,-0.0621814,0.209773,0.711834,0.0135528,0.0667785,-0.106573
0.0206193,0.222161,-2.20941,-0.128194,0.34839,0.620576,0.00115962,0.0500347,-0.140278
0.024951,0.219052,-2.19743,-0.201981,0.335635,0.555489,-0.00218122,0.0247685,-0.139373
0.0287371,0.215338,-2.18623,-0.19084,0.289847,0.532616,-0.0034114,0.0130853,-0.158265
0.0318196,0.21208,-2.17569,-0.179604,0.231443,0.482991,-0.0296976,0.00721601,-0.179852
0.0336552,0.208243,-2.16657,-0.252675,0.135176,0.401679,-0.0409175,-0.0277258,-0.179492
0.033274,0.202209,-2.15897,-0.377893,-0.0229961,0.328192,-0.0369998,-0.060046,-0.178845
0.0305338,0.1943,-2.1527,-0.420027,-0.115106,0.26061,-0.0397203,-0.070348,-0.238848
0.0271969,0.186231,-2.14807,-0.399486,-0.124298,0.164271,-0.0516868,-0.0831998,-0.31929
0.0242212,0.178212,-2.14569,-0.420847,-0.142351,0.0518318,-0.0540324,-0.0906134,-0.345609
0.020826,0.169318,-2.14545,-0.467868,-0.185792,-0.0407339,-0.0574224,-0.0766986,-0.335635
0.0177089,0.160135,-2.14672,-0.431275,-0.135743,-0.1012,-0.0520578,-0.0660424,-0.348215
0.0168944,0.152729,-2.14907,-0.296045,0.025873,-0.143848,-0.047474,-0.0687351,-0.363436
0.0195219,0.148289,-2.15221,-0.142951,0.190954,-0.178051,-0.0573618,-0.0684551,-0.325571
0.0257566,0.146687,-2.15636,-0.00725214,0.379992,-0.24501,-0.0858715,-0.0655084,-0.239949
0.0357482,0.147616,-2.16224,0.123344,0.5213,-0.334635,-0.119107,-0.065017,-0.13608
0.047537,0.151151,-2.16982,0.258977,0.520024,-0.387221,-0.121196,-0.0490541,-0.0282044
0.0573489,0.156884,-2.17794,0.342419,0.302587,-0.372768,-0.109745,-0.0022362,0.0739552
0.0608084,0.163715,-2.18501,0.375014,-0.0791,-0.274538,-0.0887059,0.045828,0.145038
0.0564654,0.171125,-2.1896,0.39352,-0.405045,-0.13569,-0.0650563,0.0932187,0.163297
0.0476329,0.179422,-2.19165,0.450103,-0.486198,-0.0334286,-0.075003,0.129465,0.124723
0.0386085,0.18911,-2.19245,0.52473,-0.41608,-0.0125379,-0.109749,0.14227,0.0868782
0.0319249,0.200041,-2.19351,0.563559,-0.274832,-0.0645426,-0.149462,0.158518,0.0979519
0.0280441,0.211137,-2.19605,0.55422,-0.161414,-0.1596,-0.173933,0.166435,0.160621
0.0268911,0.221886,-2.20091,0.536049,-0.0691284,-0.291602,-0.189925,0.170906,0.235462
0.027654,0.231933,-2.20858,0.481342,-0.0398454,-0.424057,-0.183328,0.168916,0.31677
0.0287869,0.239837,-2.21844,0.322927,-0.0878083,-0.510077,-0.168248,0.180858,0.3979
0.0292124,0.243895,-2.22984,0.118739,-0.142997,-0.597162,-0.154824,0.173735,0.452107
0.0290205,0.244111,-2.24344,-0.0538922,-0.21254,-0.730043,-0.141971,0.140238,0.457752
0.0278006,0.241288,-2.25938,-0.181683,-0.288443,-0.814472,-0.104094,0.1176,0.446272
0.0278006,0.241288,-2.25938,-0.181683,-0.288443,-0.814472,-0.104094,0.1176,0.446272
0.0253053,0.236052,-2.2759,-0.3079,-0.356254,-0.80038,-0.0587806,0.117625,0.421573
0.021215,0.22801,-2.2917,-0.462522,-0.414061,-0.756154,-0.0240366,0.104365,0.38697
0.0156837,0.217157,-2.30663,-0.594999,-0.478433,-0.730169,0.00253802,0.0645604,0.3273
0.00823005,0.204061,-2.3213,-0.696588,-0.571713,-0.726395,0.0183385,0.029369,0.250703
-0.000377735,0.189255,-2.33606,-0.780419,-0.567175,-0.735224,0.0326281,-0.000196338,0.156293
-0.00816213,0.172948,-2.35108,-0.856316,-0.46524,-0.73883,0.0456074,-0.036455,0.042834
-0.0133252,0.15571,-2.36574,-0.873665,-0.28459,-0.679297,0.0707655,-0.0626304,-0.0796604
-0.0148402,0.139405,-2.37826,-0.752589,-0.0489627,-0.522279,0.113985,-0.0692519,-0.207839
-0.0126103,0.12681,-2.38682,-0.509339,0.145917,-0.312562,0.152371,-0.0820868,-0.303152
-0.00807944,0.119188,-2.39131,-0.274206,0.238373,-0.132119,0.159313,-0.106131,-0.330476
-0.0034247,0.115158,-2.39253,-0.1487,0.1988,-0.000151645,0.15512,-0.140757,-0.296836
-0.00011448,0.112525,-2.39182,-0.12998,0.129022,0.0623099,0.147498,-0.173479,-0.275245
0.00153935,0.109954,-2.39009,-0.117037,0.0770717,0.111429,0.144451,-0.197411,-0.304029
0.00381876,0.108387,-2.3875,-0.0357363,0.215759,0.144309,0.120654,-0.180582,-0.398347
0.010602,0.108799,-2.38417,0.0708195,0.511794,0.186584,0.1032,-0.15051,-0.476534
0.0234976,0.111426,-2.38012,0.179546,0.787327,0.220228,0.085186,-0.129496,-0.494757
0.0386416,0.11556,-2.37526,0.209161,0.751034,0.289899,0.0962692,-0.114144,-0.429957
0.0512195,0.120008,-2.36833,0.209765,0.588542,0.426109,0.121412,-0.0962529,-0.356334
0.0607103,0.125439,-2.35841,0.296957,0.512245,0.595555,0.123794,-0.0590326,-0.338512
0.0700418,0.134149,-2.34519,0.500461,0.610606,0.775952,0.108913,-0.018688,-0.323899
0.0812843,0.147351,-2.32879,0.679346,0.725101,0.949917,0.0804059,0.0222758,-0.223239
0.0924019,0.163008,-2.30931,0.691931,0.676745,1.10586,0.0654315,0.0495702,-0.0318091
0.101116,0.178356,-2.28704,0.612114,0.557765,1.22296,0.0543749,0.0446758,0.144836
0.105678,0.19177,-2.26317,0.473225,0.324598,1.24215,0.0254961,0.0339198,0.266963
0.105059,0.202187,-2.23949,0.323897,0.0949893,1.18326,-0.00795749,0.0064308,0.345856
0.101114,0.209726,-2.21679,0.205485,-0.0115967,1.11273,0.00532015,0.00154218,0.344049
0.0960468,0.21509,-2.19512,0.129217,-0.02763,1.05988,0.0292048,0.0172228,0.332623
0.0913588,0.219303,-2.17375,0.100979,0.0202546,1.07736,0.0650975,0.0420272,0.326975
0.0867167,0.22332,-2.15134,0.108303,-0.0101586,1.14753,0.100891,0.0592522,0.339347
0.0801216,0.228001,-2.1273,0.168909,-0.107061,1.2328,0.124642,0.0690939,0.341204
0.071658,0.233738,-2.10198,0.194627,-0.162404,1.26249,0.113639,0.0739161,0.357869
0.062002,0.238125,-2.07677,0.0596411,-0.213028,1.21863,0.122144,0.0487467,0.368291
0.0521698,0.239104,-2.05238,-0.0853371,-0.185444,1.16381,0.150051,0.0337992,0.317076
0.04306,0.237573,-2.02866,-0.176267,-0.177432,1.14374,0.177477,0.0525289,0.240497
0.0340468,0.234008,-2.00494,-0.266592,-0.166432,1.16205,0.197524,0.0589958,0.151258
0.0249033,0.229326,-1.9805,-0.24045,-0.196655,1.20597,0.211606,0.0533715,0.0408396
0.0148102,0.226791,-1.95572,-0.0546599,-0.250623,1.20273,0.199299,0.0703721,-0.0400724
0.00451998,0.227198,-1.93134,0.0341416,-0.209512,1.18998,0.185751,0.111677,-0.0436223
-0.00392687,0.227108,-1.90695,-0.0607548,-0.088394,1.18935,0.16975,0.109591,-0.0325982
-0.00988199,0.224777,-1.88296,-0.14125,0.0327464,1.1532,0.144933,0.0985301,-0.0529596
-0.0130192,0.221814,-1.85989,-0.120206,0.174421,1.11453,0.115269,0.0975329,-0.0709695
-0.0131703,0.219497,-1.83723,-0.0881291,0.288813,1.10664,0.0886138,0.0839806,-0.0400535
-0.0113887,0.217247,-1.81546,-0.126929,0.366938,1.00629,0.0214968,0.0523647,0.00949699
-0.00729222,0.213416,-1.79662,-0.244621,0.454589,0.840996,-0.0133506,0.0135419,0.0544814
-0.000798878,0.207101,-1.78127,-0.383625,0.498478,0.671355,-0.008404,-0.019794,0.0862358
0.00658692,0.198134,-1.76872,-0.516175,0.501734,0.576543,0.0193293,-0.0328656,0.0896062
0.0143444,0.186737,-1.75707,-0.637933,0.486509,0.561909,0.0336807,-0.0528714,0.0684363
0.0211198,0.17347,-1.7455,-0.695441,0.382924,0.549412,0.0193141,-0.0860046,0.00328106
0.0250032,0.160093,-1.73436,-0.673785,0.187921,0.516051,0.00688954,-0.114393,-0.0830272
0.0248852,0.146016,-1.72402,-0.7899,-0.0545066,0.468617,0.00951609,-0.144251,-0.146415
0.0211762,0.129016,-1.71473,-0.92471,-0.153377,0.411439,0.0183995,-0.180728,-0.265064
0.0177445,0.110354,-1.70673,-0.946421,-0.0835955,0.35625,0.0217931,-0.177208,-0.403319
0.0169267,0.0928428,-1.69933,-0.806332,0.0759417,0.363559,0.0493549,-0.17229,-0.500299
0.0169267,0.0928428,-1.69933,-0.806332,0.0759417,0.363559,0.0493549,-0.17229,-0.500299
0.0186375,0.0788914,-1.6912,-0.611548,0.141502,0.435799,0.0724402,-0.138033,-0.503131
0.0204497,0.068311,-1.6812,-0.477797,0.103003,0.540938,0.0839542,-0.135081,-0.452202
0.021341,0.0601905,-1.66955,-0.363072,0.0600966,0.59517,0.0714575,-0.147091,-0.408349
0.0214072,0.054328,-1.65749,-0.251442,0.0158376,0.59069,0.0331762,-0.133122,-0.375361
0.0207115,0.0506639,-1.64581,-0.131833,-0.0330517,0.572366,0.01313,-0.117189,-0.358553
0.0191202,0.0502854,-1.63434,0.0900375,-0.0501317,0.583725,0.0077911,-0.0678693,-0.363629
0.0181268,0.0554861,-1.62247,0.409479,0.0199947,0.615193,-0.0124674,0.00673632,-0.336328
0.018629,0.066552,-1.61024,0.660352,0.106946,0.625161,-0.0419174,0.076711,-0.241675
0.0206466,0.0812636,-1.59832,0.766942,0.174098,0.592474,-0.06527,0.125242,-0.135699
0.0228364,0.0968538,-1.58715,0.763279,0.116248,0.560502,-0.0745615,0.162376,-0.0445427
0.0225727,0.112469,-1.57652,0.792964,-0.0337216,0.53632,-0.0852792,0.18729,-0.00422126
0.0187894,0.129309,-1.5664,0.87925,-0.217686,0.504729,-0.0977483,0.220349,0.0182859
0.0118852,0.147923,-1.55665,0.968712,-0.313752,0.493787,-0.0950529,0.243194,0.0536
0.00486732,0.167743,-1.54708,0.998746,-0.227196,0.462741,-0.0897905,0.241268,0.111273
-3.38372e-05,0.186949,-1.53849,0.9144,-0.113507,0.390973,-0.0731632,0.223291,0.204683
-0.00272504,0.20392,-1.53119,0.785579,-0.0178903,0.328886,-0.0419481,0.196742,0.288664
-0.0039692,0.218167,-1.52499,0.649001,0.0142929,0.277065,-0.0120398,0.178553,0.357437
-0.00501207,0.229832,-1.51966,0.530535,-0.00382695,0.24007,0.0112126,0.153641,0.398421
-0.00673475,0.23932,-1.51499,0.424456,-0.0647678,0.211555,0.0370603,0.140973,0.424053
-0.00962412,0.246768,-1.51072,0.328303,-0.110842,0.199611,0.0644929,0.122872,0.421795
-0.0131344,0.252426,-1.50643,0.242189,-0.131309,0.214237,0.0912547,0.116743,0.415308
-0.0166402,0.256341,-1.50151,0.15113,-0.0952737,0.263342,0.118177,0.107455,0.404309
-0.0196231,0.257917,-1.49554,0.00427977,-0.05747,0.310274,0.129401,0.0921638,0.393434
-0.0222765,0.256149,-1.48876,-0.167125,-0.0382872,0.351407,0.126422,0.0685732,0.354203
-0.0247446,0.251385,-1.48126,-0.28036,-0.0120012,0.391317,0.115273,0.0417757,0.268489
-0.0259943,0.245251,-1.47316,-0.302522,0.0890741,0.414296,0.0887206,0.0200219,0.168738
-0.0255544,0.239468,-1.46442,-0.249655,0.149767,0.45728,0.0893213,0.00323826,0.104417
-0.0249581,0.234887,-1.45427,-0.186822,0.14786,0.553917,0.0943843,-0.00107685,0.059289
-0.0246599,0.23154,-1.44202,-0.121408,0.174597,0.636789,0.0658237,-0.0137788,0.0215107
-0.0237232,0.229153,-1.42895,-0.0962467,0.22076,0.636244,0.0325003,-0.0339099,0.00533867
-0.0218326,0.226647,-1.41611,-0.131166,0.253827,0.624683,0.0107135,-0.0458271,0.00757939
-0.0192313,0.223435,-1.40329,-0.16079,0.288825,0.634402,-0.0108653,-0.0484696,0.00123739
-0.0159966,0.219862,-1.39052,-0.180749,0.315127,0.622718,-0.029311,-0.056075,0.00581676
-0.0124608,0.215686,-1.37793,-0.218025,0.314137,0.617992,-0.0360308,-0.0717792,0.0126426
-0.00819867,0.210947,-1.36568,-0.240289,0.374738,0.590191,-0.0462892,-0.0873974,0.00763118
-0.00278199,0.206162,-1.35386,-0.226068,0.411997,0.571094,-0.0456778,-0.106788,0.00991732
0.00305553,0.202168,-1.34227,-0.172709,0.400213,0.57008,-0.0367,-0.114559,0.0299677
0.00796081,0.199274,-1.33053,-0.12663,0.324402,0.580069,-0.0242827,-0.120935,0.0614935
0.0116096,0.197199,-1.3187,-0.101385,0.281077,0.578667,-0.0164198,-0.124832,0.0914846
0.0144687,0.195048,-1.30706,-0.133611,0.236998,0.562914,-0.00455033,-0.136402,0.109674
0.0166084,0.192066,-1.29573,-0.187816,0.190177,0.549683,0.0144136,-0.143005,0.107148
0.0174539,0.188199,-1.28435,-0.207888,0.116994,0.56695,0.0472777,-0.14897,0.0585939
0.0174065,0.184581,-1.27261,-0.173972,0.0958139,0.580043,0.0543012,-0.144178,-0.00996399
0.0169749,0.181755,-1.26051,-0.132264,0.0827181,0.618959,0.0756669,-0.136734,-0.0744903
0.0167051,0.179673,-1.24737,-0.0925542,0.158331,0.674136,0.0887739,-0.127628,-0.148712
0.0192638,0.178664,-1.23333,-0.0400948,0.344724,0.707556,0.1011,-0.130406,-0.199038
0.0242091,0.178246,-1.21851,-0.0322921,0.391478,0.767059,0.133937,-0.123645,-0.202457
0.0283516,0.178451,-1.20188,0.00872263,0.261456,0.875241,0.146663,-0.103776,-0.222727
0.0273305,0.179552,-1.1835,0.0464814,-0.0197819,0.934812,0.12216,-0.0854032,-0.260752
0.0225147,0.181443,-1.16445,0.100746,-0.0858001,0.955026,0.106824,-0.0684519,-0.317645
0.0186506,0.185222,-1.14489,0.238769,0.0957343,0.984617,0.0944014,-0.0270783,-0.332202
0.0205924,0.192054,-1.1247,0.388931,0.479202,1.01267,0.0827844,0.00674772,-0.244851
0.0293063,0.200376,-1.10428,0.370086,0.781299,1.01495,0.0815289,0.0199761,-0.0526251
0.0434338,0.207414,-1.08394,0.257084,1.04118,1.00322,0.0745606,0.0248537,0.116865
0.0434338,0.207414,-1.08394,0.257084,1.04118,1.00322,0.0745606,0.0248537,0.116865
0.0611969,0.212156,-1.06374,0.114265,1.12053,1.01614,0.080517,0.0422026,0.260524
0.0773212,0.215155,-1.04206,0.0434525,0.914025,1.13904,0.129523,0.0565167,0.362162
0.0858957,0.217943,-1.01699,0.0255486,0.457858,1.3469,0.180613,0.0908857,0.414578
0.0834932,0.220815,-0.986773,-0.00273052,-0.0283724,1.62965,0.223698,0.113816,0.410965
0.0708575,0.222431,-0.951021,-0.129658,-0.429504,1.85536,0.229774,0.115164,0.374726
0.0505702,0.21994,-0.91164,-0.363173,-0.723127,1.95818,0.200394,0.103135,0.286507
0.0266708,0.212468,-0.871537,-0.520587,-0.759791,1.92069,0.16398,0.0859342,0.106209
0.00459981,0.201502,-0.833271,-0.641747,-0.651177,1.82719,0.187479,0.101737,-0.045817
-0.0138812,0.187382,-0.79633,-0.737879,-0.47038,1.8305,0.247189,0.11776,-0.187231
-0.0279331,0.172686,-0.758852,-0.612192,-0.276636,1.90977,0.302004,0.12558,-0.331435
-0.0383123,0.162457,-0.71927,-0.268419,-0.0977846,2.04673,0.346408,0.139816,-0.401434
-0.0455084,0.158275,-0.676476,-0.0122389,0.0465611,2.20342,0.354098,0.144188,-0.340335
-0.0511764,0.156586,-0.630903,0.0395228,0.0842596,2.2961,0.322714,0.105059,-0.231332
-0.0574167,0.155374,-0.58472,0.092978,-0.00616184,2.26478,0.289451,0.0520423,-0.166399
-0.0653928,0.155607,-0.539639,0.197976,-0.0920831,2.19253,0.273846,0.0239987,-0.131549
-0.0738057,0.157324,-0.496221,0.246045,-0.0590423,2.09098,0.262663,0.0130757,-0.0860531
-0.0800685,0.158861,-0.454853,0.199244,0.080517,1.98528,0.25082,0.00690316,-0.0465019
-0.0828385,0.159523,-0.415683,0.184468,0.25088,1.8812,0.240766,0.00372653,-0.0356442
-0.08242,0.160752,-0.378539,0.240124,0.365881,1.78132,0.2319,0.0126454,-0.026406
-0.0800923,0.163398,-0.343004,0.296442,0.421334,1.7139,0.235466,0.0222303,0.00921303
-0.0773263,0.167069,-0.308194,0.328604,0.41195,1.69873,0.239473,0.0357386,0.0419372
-0.0750746,0.171342,-0.27347,0.356384,0.402302,1.69394,0.223335,0.0363186,0.038337
-0.0726504,0.176687,-0.238951,0.426786,0.442378,1.65599,0.187454,0.0246768,0.00806445
-0.0687475,0.183888,-0.205583,0.521096,0.554575,1.57802,0.156204,0.0116805,-0.0150012
-0.0626658,0.192986,-0.173513,0.581864,0.63983,1.51773,0.138824,0.0117064,-0.00785625
-0.0558272,0.20307,-0.142572,0.597898,0.646288,1.4591,0.122187,0.000230268,0.00182146
-0.0494308,0.213508,-0.112845,0.59207,0.593777,1.407,0.121211,-0.0146724,0.00405389
-0.0447964,0.223778,-0.0838285,0.555711,0.508992,1.3814,0.104166,-0.0207763,-0.0167874
-0.0409598,0.232706,-0.0557796,0.428083,0.510814,1.31355,0.0783273,-0.0422008,-0.0498648
-0.0371362,0.238286,-0.0297082,0.221368,0.486945,1.20008,0.0574256,-0.0746467,-0.104396
-0.0324194,0.240475,-0.0068087,0.0708352,0.510597,1.0082,0.00418306,-0.0874588,-0.202488
-0.0264848,0.240129,0.0117041,-0.0535574,0.549699,0.809266,-0.0204055,-0.0722616,-0.283336
-0.0182118,0.23738,0.0269267,-0.19493,0.632925,0.692459,-0.00996407,-0.0557516,-0.310034
-0.00902476,0.231388,0.0401703,-0.389507,0.56753,0.619464,-0.0122272,-0.0305432,-0.297549
-0.00218614,0.222031,0.0526311,-0.526325,0.415322,0.603261,-0.0172309,-0.01598,-0.327895
0.00320083,0.211022,0.0644677,-0.563755,0.387771,0.560236,-0.038225,0.000917926,-0.376237
0.00836915,0.200319,0.0761813,-0.496936,0.37506,0.601001,-0.0393449,0.031242,-0.395504
0.0141064,0.192341,0.0895199,-0.300337,0.490466,0.709689,-0.0494904,0.0686292,-0.390227
0.0227611,0.189148,0.105263,-0.0403457,0.665138,0.836003,-0.077651,0.0969734,-0.322426
0.0330561,0.191653,0.12327,0.243328,0.673283,0.932815,-0.112264,0.116584,-0.19983
0.0409417,0.19967,0.142158,0.474643,0.443794,0.942915,-0.16881,0.14201,-0.0739881
0.0420451,0.211179,0.160545,0.584797,0.0233238,0.910557,-0.175224,0.161486,0.0212319
0.0335221,0.223876,0.178045,0.617953,-0.481112,0.849308,-0.162059,0.179423,0.0417115
0.0172353,0.237092,0.194287,0.667805,-0.747158,0.76657,-0.169645,0.217863,-0.0233585
-0.00235747,0.251204,0.20869,0.735318,-0.856245,0.629525,-0.18102,0.251516,-0.0811936
-0.0224153,0.266546,0.219689,0.826752,-0.843103,0.407899,-0.18869,0.252536,-0.125537
-0.0397823,0.284034,0.226312,0.942945,-0.708612,0.183642,-0.142425,0.27434,-0.110025
-0.0527486,0.303421,0.229712,0.997711,-0.472089,0.0719919,-0.0618516,0.31049,-0.0206096
-0.0598918,0.32243,0.231896,0.889783,-0.17786,0.0276302,-0.0165012,0.331185,0.10993
-0.0608937,0.338086,0.232953,0.68011,0.099004,-0.02426,-0.00586706,0.319292,0.223167
-0.0574541,0.3498,0.232353,0.502515,0.17782,-0.108751,-0.0149331,0.296735,0.304133
-0.0541505,0.358997,0.229413,0.411,0.0385226,-0.21154,-0.0046242,0.286958,0.353472
-0.0535524,0.366567,0.224699,0.30443,-0.150319,-0.257832,0.0214215,0.296019,0.398351
-0.0562472,0.371016,0.219547,0.108593,-0.288448,-0.242511,0.0432983,0.30609,0.424397
-0.0562472,0.371016,0.219547,0.108593,-0.288448,-0.242511,0.0432983,0.30609,0.424397
-0.0601396,0.371556,0.214561,-0.0732294,-0.262969,-0.238259,0.0353417,0.297071,0.403025
-0.0626054,0.368837,0.208642,-0.239917,-0.204136,-0.300979,0.0156781,0.273693,0.381771
-0.0637446,0.362753,0.201291,-0.413646,-0.172858,-0.343731,0.0223398,0.250998,0.361568
-0.0635181,0.353149,0.19298,-0.604955,-0.0812185,-0.375265,0.0330995,0.229384,0.323481
-0.0600955,0.339491,0.183654,-0.822267,0.113767,-0.418882,0.032492,0.195647,0.286407
-0.0527396,0.321283,0.173312,-1.05306,0.261286,-0.455604,0.0424952,0.142154,0.233813
-0.0439854,0.299099,0.162552,-1.19968,0.271014,-0.459535,0.0599023,0.0862553,0.146939
-0.0360847,0.275096,0.15224,-1.22598,0.216202,-0.420336,0.0797033,0.0255913,0.0378988
-0.031143,0.251642,0.144242,-1.13645,0.0591477,-0.264649,0.131643,-0.0503984,-0.0539068
-0.0307179,0.230984,0.139972,-0.931492,-0.105899,-0.0846708,0.151434,-0.120109,-0.145167
-0.033499,0.214852,0.13966,-0.700743,-0.170602,0.0984763,0.152931,-0.18644,-0.199779
-0.0378831,0.202332,0.14249,-0.548496,-0.197623,0.203204,0.120338,-0.251728,-0.228988
-0.0425368,0.193074,0.146551,-0.345035,-0.194449,0.213922,0.0783092,-0.311022,-0.277647
-0.0466184,0.188854,0.150155,-0.0584882,-0.134704,0.150578,0.0695766,-0.335948,-0.309725
-0.0486278,0.190086,0.152847,0.176048,-0.0153788,0.120705,0.0967444,-0.318702,-0.288017
-0.0484813,0.194797,0.155653,0.284602,0.0709272,0.135963,0.104186,-0.268484,-0.243851
-0.0477002,0.200476,0.158976,0.288883,0.0570172,0.155465,0.103383,-0.227698,-0.236872
-0.0477156,0.206509,0.162295,0.347624,0.0219257,0.137897,0.0888288,-0.191196,-0.302971
-0.0463808,0.214733,0.165297,0.489303,0.190777,0.127201,0.0718802,-0.129366,-0.366074
-0.0411142,0.225373,0.168684,0.578687,0.406305,0.170274,0.0736782,-0.0703071,-0.352865
-0.0324954,0.23692,0.173007,0.580412,0.537432,0.20439,0.0722773,-0.0415044,-0.295751
-0.0225171,0.24802,0.17746,0.533348,0.56536,0.185984,0.058722,-0.0413956,-0.239051
-0.012522,0.257392,0.180946,0.4025,0.511455,0.143735,0.0568785,-0.0262482,-0.187316
-0.00380859,0.263856,0.183953,0.254951,0.45023,0.155823,0.0755152,0.00445777,-0.169061
0.00435596,0.268378,0.187824,0.226767,0.502266,0.224035,0.0864982,0.037324,-0.185419
0.0144433,0.274119,0.193213,0.36452,0.665014,0.306619,0.0925265,0.0533678,-0.158408
0.0271725,0.283547,0.200477,0.560779,0.805616,0.419938,0.105935,0.082024,-0.0545827
0.0409524,0.296117,0.21009,0.648401,0.841559,0.552114,0.113093,0.104888,0.0983904
0.0538716,0.309429,0.222302,0.614557,0.801228,0.675464,0.12463,0.0983683,0.222366
0.0638841,0.321463,0.236852,0.494142,0.649195,0.786837,0.123084,0.0964569,0.29567
0.0692256,0.330466,0.254162,0.286393,0.415131,0.914023,0.133547,0.0880944,0.323234
0.0679063,0.335422,0.273844,0.0997077,0.117662,0.963169,0.124846,0.070165,0.253863
0.0619177,0.338031,0.293795,0.0622944,-0.0489637,0.931054,0.0914496,0.0869254,0.123212
0.0544832,0.340988,0.312452,0.142849,-0.0365318,0.84699,0.0557042,0.117072,0.0165727
0.0497354,0.345755,0.329802,0.247314,0.172021,0.830026,0.0547745,0.158487,-0.031428
0.0502388,0.352351,0.347631,0.321559,0.486631,0.890911,0.0608997,0.204557,-0.00579661
0.0556376,0.36002,0.367097,0.335309,0.711199,0.974247,0.0544778,0.228391,0.0767299
0.063271,0.367349,0.387781,0.277556,0.767701,0.99302,0.0286056,0.207088,0.17606
0.0704456,0.373566,0.408265,0.217833,0.693971,0.954942,0.00795352,0.186853,0.239544
0.0758359,0.378205,0.428062,0.0930786,0.560313,0.925549,0.015849,0.192266,0.294196
0.0778897,0.379436,0.447953,-0.11841,0.378721,0.931165,0.0252423,0.193364,0.307771
0.0767966,0.376328,0.468116,-0.330915,0.265112,0.917908,0.0334757,0.176178,0.260836
0.0741822,0.369742,0.488218,-0.44983,0.221142,0.904007,0.0309921,0.167192,0.219178
0.0713544,0.361926,0.507966,-0.452536,0.204983,0.891337,0.0251522,0.158535,0.125494
0.0686633,0.354566,0.52778,-0.411601,0.227537,0.91862,0.0186966,0.157456,0.0626627
0.0665549,0.348077,0.54818,-0.368053,0.25729,0.946783,-0.00088726,0.14442,0.0364143
0.0651976,0.342149,0.568487,-0.356124,0.297235,0.923673,-0.0429576,0.121035,0.044557
0.0652616,0.336297,0.58783,-0.344703,0.361561,0.855589,-0.0877156,0.090675,0.0668668
0.0673528,0.330617,0.60528,-0.348246,0.402967,0.757621,-0.0979893,0.0523795,0.0969569
0.069488,0.32346,0.621134,-0.492817,0.31074,0.714069,-0.06722,0.0296872,0.165992
0.069253,0.3125,0.637112,-0.710343,0.155575,0.724184,-0.0232132,0.00258291,0.208198
0.0651881,0.297696,0.652738,-0.853506,-0.11497,0.66127,-0.0220698,-0.0419476,0.166661
0.0559506,0.281065,0.666578,-0.872142,-0.388108,0.559128,-0.0252847,-0.102534,0.0420207
0.0438327,0.264227,0.677624,-0.875274,-0.514924,0.425253,-0.0455328,-0.137259,-0.113788
0.0438327,0.264227,0.677624,-0.875274,-0.514924,0.425253,-0.0455328,-0.137259,-0.113788
0.0312148,0.247169,0.686108,-0.852373,-0.507224,0.346528,-0.0462372,-0.152618,-0.259455
0.0202844,0.231344,0.693306,-0.744786,-0.425756,0.324808,-0.0162179,-0.158776,-0.410325
0.0106548,0.21773,0.700904,-0.635416,-0.379875,0.418338,0.0151097,-0.137288,-0.515105
0.000998462,0.206311,0.711094,-0.506077,-0.374231,0.564616,0.0231774,-0.119109,-0.578885
-0.00868878,0.198181,0.723043,-0.30377,-0.365704,0.583853,-0.0496479,-0.113691,-0.626331
-0.0176456,0.193944,0.733709,-0.123839,-0.319218,0.445923,-0.133138,-0.145496,-0.611461
-0.0247257,0.191788,0.740345,-0.104295,-0.265473,0.208654,-0.181785,-0.171538,-0.528874
-0.0303759,0.188754,0.742048,-0.205406,-0.299725,-0.034246,-0.204513,-0.16675,-0.439967
-0.0367163,0.183977,0.738619,-0.266011,-0.396387,-0.288185,-0.226073,-0.145016,-0.397147
-0.0433916,0.17993,0.730286,-0.140575,-0.399318,-0.50387,-0.216325,-0.110971,-0.415996
-0.0476724,0.180662,0.718827,0.191123,-0.198565,-0.613632,-0.180065,-0.0193856,-0.441221
-0.046411,0.189051,0.706297,0.581332,0.0934629,-0.656328,-0.174632,0.058822,-0.330444
-0.0399057,0.203775,0.693244,0.799859,0.28693,-0.697526,-0.185036,0.120153,-0.132371
-0.030683,0.22065,0.679206,0.822901,0.308629,-0.73251,-0.199192,0.163231,0.0526276
-0.0226752,0.236848,0.664385,0.756772,0.13002,-0.767419,-0.22059,0.199484,0.167496
-0.019187,0.251549,0.648164,0.691572,-0.183921,-0.843581,-0.243137,0.236881,0.218365
-0.0208261,0.265563,0.630377,0.693086,-0.415684,-0.90513,-0.241853,0.265855,0.218428
-0.025123,0.28037,0.611359,0.755522,-0.50114,-0.967819,-0.232971,0.299111,0.222369
-0.0288447,0.296383,0.591026,0.785698,-0.442457,-1.03329,-0.2132,0.325815,0.280495
-0.0305174,0.312029,0.569142,0.702429,-0.388724,-1.10718,-0.183378,0.345168,0.379874
-0.0301333,0.325219,0.545696,0.545438,-0.306792,-1.15612,-0.136001,0.348554,0.458274
-0.0280935,0.335091,0.521582,0.378253,-0.291814,-1.15014,-0.0826949,0.346875,0.519081
-0.0266725,0.341909,0.497882,0.256238,-0.364333,-1.11277,-0.0606898,0.343404,0.547311
-0.0269188,0.346743,0.474677,0.173392,-0.447375,-1.09358,-0.0501105,0.335473,0.552265
-0.0290219,0.349622,0.451624,0.0312317,-0.558377,-1.0907,-0.0268606,0.318007,0.567967
-0.0335218,0.348807,0.428673,-0.197321,-0.669016,-1.06828,-0.000241041,0.292568,0.562056
-0.0407371,0.342533,0.406053,-0.520604,-0.860706,-1.03693,0.0529626,0.257505,0.520029
-0.0529843,0.32973,0.384252,-0.842869,-1.05072,-0.96988,0.0880247,0.213116,0.389535
-0.0662414,0.312083,0.362625,-1.02996,-0.916567,-0.993919,0.0700909,0.162221,0.205407
-0.0746374,0.291766,0.339467,-1.16547,-0.602129,-1.07457,0.0666865,0.107086,0.0640036
-0.0761254,0.268602,0.314814,-1.33084,-0.232164,-1.10394,0.0976474,0.0459321,-0.0210561
-0.0722693,0.242457,0.290714,-1.43114,-0.0300813,-1.01947,0.1273,0.00551483,-0.0962055
-0.0672311,0.216201,0.26949,-1.29849,0.0346737,-0.856899,0.12006,-0.0274681,-0.181157
-0.0637785,0.194561,0.2526,-0.955539,-0.0447549,-0.65549,0.118624,-0.0766679,-0.224002
-0.0627441,0.179818,0.240084,-0.623253,-0.0623712,-0.490076,0.110825,-0.141676,-0.185205
-0.0615528,0.169264,0.230679,-0.530859,0.0306761,-0.378831,0.0801051,-0.186813,-0.0921922
-0.0581341,0.158836,0.223188,-0.556952,0.191445,-0.302148,0.0533874,-0.232547,-0.0426373
-0.0527841,0.148397,0.216822,-0.500071,0.218627,-0.279095,0.0426736,-0.276341,-0.053872
-0.0484293,0.140036,0.210745,-0.375046,0.120502,-0.280207,0.0468836,-0.288019,-0.0766238
-0.0466257,0.133667,0.204729,-0.300435,-0.0163016,-0.289414,0.0663042,-0.304032,-0.108432
-0.0471215,0.128207,0.198653,-0.292589,-0.112092,-0.291581,0.0964764,-0.303464,-0.156449
-0.0490211,0.12161,0.192578,-0.402309,-0.127828,-0.270898,0.0980476,-0.277615,-0.231066
-0.0499047,0.113091,0.186886,-0.465487,-0.0308902,-0.265037,0.0835466,-0.259693,-0.356838
-0.0500188,0.104025,0.180736,-0.47314,-0.0442949,-0.302573,0.0809167,-0.239455,-0.468304
-0.0497672,0.0952812,0.174304,-0.426985,0.0185575,-0.2853,0.0884767,-0.188829,-0.572297
-0.0473355,0.0885392,0.168875,-0.258842,0.203399,-0.214308,0.103559,-0.130403,-0.65051
-0.040606,0.0859194,0.166122,-0.0147957,0.455909,-0.0336969,0.127664,-0.0765397,-0.646951
-0.0287188,0.0877803,0.167983,0.195894,0.753868,0.21565,0.148126,-0.0422915,-0.557636
-0.0119181,0.0930954,0.174847,0.348268,0.980871,0.455829,0.147364,-0.0317643,-0.408988
0.00776311,0.10135,0.185864,0.478672,1.06533,0.634411,0.126493,-0.0396013,-0.244374
0.0269075,0.112429,0.199945,0.614631,0.997339,0.788109,0.101714,-0.0325523,-0.102239
0.0434024,0.126988,0.216901,0.786118,0.841399,0.947635,0.0841579,-0.00978225,0.0214856
0.0549602,0.145015,0.236386,0.91176,0.574976,1.07298,0.0620076,0.0146393,0.137302
0.0549602,0.145015,0.236386,0.91176,0.574976,1.07298,0.0620076,0.0146393,0.137302
0.0599353,0.164661,0.257947,0.906464,0.249503,1.16861,0.0514455,0.0202569,0.23217
0.0575864,0.182926,0.281081,0.783088,-0.0637434,1.2077,0.0482946,0.00977309,0.269711
0.0503181,0.198723,0.3043,0.685291,-0.193476,1.14541,0.0141085,0.0115655,0.229811
0.0414328,0.212612,0.32571,0.613558,-0.257182,1.01918,-0.00980283,0.0433352,0.176382
0.0319908,0.225149,0.344879,0.578904,-0.270156,0.901509,0.00291006,0.0616612,0.12595
0.0225527,0.237033,0.361897,0.575902,-0.285772,0.794915,0.028266,0.0879535,0.0850579
0.0134316,0.24945,0.377043,0.660878,-0.232314,0.709303,0.054169,0.115646,0.0383273
0.00632168,0.264334,0.391085,0.818888,-0.122084,0.679236,0.0832992,0.163794,0.0408089
0.00197325,0.281736,0.405558,0.904727,0.0852987,0.740891,0.117337,0.211861,0.108262
0.000842567,0.299421,0.421867,0.847122,0.249789,0.822972,0.126301,0.230255,0.208559
0.0011192,0.314928,0.439323,0.696715,0.28661,0.8366,0.117466,0.20959,0.290967
0.000676812,0.326783,0.456219,0.480138,0.184869,0.765271,0.105362,0.180952,0.333158
-0.0017514,0.333999,0.471067,0.245777,0.0611982,0.640657,0.102927,0.155506,0.312154
-0.00504984,0.337233,0.483237,0.0928181,0.0232563,0.520851,0.128117,0.154593,0.238202
-0.00703563,0.338008,0.493648,-0.0122865,0.134725,0.48336,0.159668,0.18639,0.176228
-0.00675906,0.336528,0.504583,-0.1255,0.254135,0.568707,0.200792,0.204922,0.13813
-0.00472799,0.333055,0.517662,-0.211021,0.373176,0.665323,0.182752,0.192211,0.104019
-0.00143048,0.328063,0.532342,-0.288021,0.427747,0.720428,0.137478,0.15592,0.0844389
0.00279807,0.321639,0.547299,-0.357386,0.46347,0.68532,0.0716863,0.112783,0.0718686
0.00778312,0.31391,0.560697,-0.422734,0.462994,0.588128,0.0333688,0.0787997,0.0629821
0.0138745,0.305184,0.572439,-0.464079,0.514093,0.535452,0.0496485,0.0638202,0.0557202
0.021508,0.295436,0.583955,-0.543409,0.583785,0.563697,0.0539036,0.0646099,0.0699946
0.0292615,0.283878,0.597036,-0.645757,0.548039,0.669458,0.0517019,0.0407769,0.0704207
0.0351236,0.271014,0.612062,-0.678324,0.453359,0.721267,0.00238969,0.000420123,0.0415343
0.0393257,0.257907,0.627053,-0.700188,0.340629,0.662381,-0.0552119,-0.0403829,0.0144876
0.0411525,0.243913,0.640037,-0.756092,0.164852,0.538327,-0.0838532,-0.0913531,-0.027278
0.0405509,0.228793,0.650484,-0.792587,0.0405412,0.422836,-0.0960172,-0.104604,-0.113331
0.0394012,0.213152,0.659301,-0.812574,0.0480186,0.39205,-0.0811784,-0.101919,-0.195097
0.0381033,0.196971,0.668386,-0.839589,-0.0196983,0.447732,-0.0496256,-0.106409,-0.257444
0.0340519,0.181132,0.678909,-0.768869,-0.194913,0.526266,-0.0510207,-0.123613,-0.338173
0.0256704,0.167177,0.690172,-0.676266,-0.476018,0.522851,-0.102321,-0.130124,-0.409637
0.0117585,0.154129,0.700133,-0.657869,-0.740247,0.429899,-0.15789,-0.143782,-0.498236
-0.00466561,0.141443,0.707223,-0.606417,-0.760899,0.254065,-0.207799,-0.146183,-0.604983
-0.0183158,0.130479,0.710178,-0.48802,-0.535323,0.0582248,-0.215422,-0.119403,-0.668914
-0.0256804,0.122149,0.709702,-0.347142,-0.227937,-0.0820728,-0.211727,-0.089229,-0.650707
-0.0280191,0.117125,0.706754,-0.153244,-0.0685248,-0.196806,-0.188241,-0.0835664,-0.574563
-0.0279808,0.116941,0.701691,0.135812,0.0199527,-0.303511,-0.174759,-0.0649359,-0.4787
-0.0253379,0.123312,0.69507,0.494761,0.162741,-0.367859,-0.162098,-0.0162217,-0.348137
-0.0198893,0.136584,0.687517,0.79969,0.26994,-0.409913,-0.156811,0.0467132,-0.159793
-0.0131316,0.154349,0.679115,0.941196,0.265171,-0.456069,-0.157282,0.0871778,0.0277606
-0.0079216,0.172991,0.669459,0.8919,0.0633283,-0.51806,-0.151544,0.121668,0.188031
-0.00829936,0.189419,0.65884,0.74632,-0.311018,-0.531369,-0.119947,0.138026,0.264917
-0.0162402,0.203378,0.648292,0.663972,-0.668721,-0.523555,-0.115412,0.176848,0.247541
-0.0291766,0.217186,0.637542,0.710546,-0.818475,-0.576283,-0.147538,0.212263,0.188144
-0.0432557,0.232767,0.625179,0.813174,-0.836406,-0.691133,-0.152733,0.227985,0.172561
-0.0551388,0.2506,0.610515,0.887769,-0.699094,-0.820999,-0.125352,0.255646,0.216559
-0.0627399,0.269169,0.593878,0.862402,-0.484771,-0.885157,-0.0746602,0.289201,0.302199
-0.0653797,0.286286,0.576394,0.719905,-0.275649,-0.90542,-0.0441985,0.31558,0.404805
-0.0646648,0.299893,0.558915,0.545662,-0.188111,-0.850909,-0.01967,0.318062,0.483401
-0.0636434,0.310553,0.542007,0.425457,-0.233633,-0.85372,-0.025883,0.303571,0.520015
-0.0636856,0.318771,0.523776,0.277525,-0.334826,-0.931922,-0.0263861,0.280167,0.534366
-0.0647666,0.323243,0.503985,0.0398534,-0.397302,-0.959098,0.0196824,0.271806,0.534464
-0.0669977,0.322807,0.484325,-0.205791,-0.443878,-0.898327,0.0641306,0.267212,0.494683
-0.070728,0.317479,0.465815,-0.450833,-0.545329,-0.825548,0.0887133,0.227944,0.431262
-0.070728,0.317479,0.465815,-0.450833,-0.545329,-0.825548,0.0887133,0.227944,0.431262
-0.0774088,0.307404,0.448056,-0.67182,-0.633594,-0.806639,0.0779026,0.150883,0.309094
-0.0837499,0.293351,0.429278,-0.88121,-0.549907,-0.889586,0.0485385,0.0727307,0.177085
-0.0871271,0.275493,0.407752,-1.0688,-0.375122,-1.01614,0.0610306,-0.00831267,0.0493392
-0.086826,0.254929,0.384166,-1.1713,-0.24005,-1.05346,0.110831,-0.045446,-0.0591727
-0.0857302,0.233375,0.36159,-1.15271,-0.212042,-0.924281,0.145011,-0.037994,-0.158169
-0.085705,0.21325,0.343214,-0.983045,-0.179176,-0.691132,0.144849,-0.038759,-0.261575
-0.084801,0.197938,0.33005,-0.638947,0.0309794,-0.469343,0.139091,-0.0864329,-0.322289
-0.0796598,0.189443,0.321541,-0.304092,0.314418,-0.308726,0.108212,-0.126949,-0.254571
-0.0707076,0.185283,0.31607,-0.181034,0.441816,-0.199088,0.0796477,-0.156672,-0.0953775
-0.0609931,0.182331,0.312832,-0.141034,0.462308,-0.11036,0.0525749,-0.192609,0.00642103
-0.0524464,0.179353,0.310614,-0.180762,0.329074,-0.0935568,0.0375586,-0.223295,0.0721145
-0.0477929,0.175134,0.308347,-0.256597,0.100161,-0.114997,0.0532542,-0.252121,0.0654575
-0.0473029,0.169333,0.305499,-0.335719,-0.0789654,-0.140715,0.0687647,-0.266808,-0.0128417
-0.0491059,0.162075,0.302155,-0.408598,-0.144136,-0.143731,0.0924797,-0.261622,-0.141431
-0.05123,0.153323,0.299458,-0.473846,-0.0878764,-0.074224,0.11477,-0.234454,-0.290005
-0.0519175,0.144054,0.297716,-0.44706,-0.00171891,-0.0653847,0.0822558,-0.22296,-0.452151
-0.0505418,0.136253,0.29559,-0.33975,0.100938,-0.0951629,0.0738252,-0.19893,-0.593053
-0.0473232,0.131422,0.294099,-0.127158,0.227818,-0.0151795,0.0926892,-0.13632,-0.690168
-0.0399666,0.131508,0.295199,0.13803,0.530782,0.12961,0.0907737,-0.0775494,-0.696179
-0.0265643,0.136101,0.2995,0.320547,0.857091,0.280508,0.0805453,-0.0601197,-0.600738
-0.008885,0.143652,0.306347,0.449368,0.974363,0.375012,0.076344,-0.058486,-0.436273
0.00878739,0.154141,0.314658,0.615289,0.911216,0.447575,0.0657646,-0.0340446,-0.279885
0.0243442,0.168957,0.324423,0.860318,0.802902,0.546851,0.0526039,0.0149717,-0.127233
0.0372289,0.188408,0.336098,1.03005,0.695434,0.661994,0.0523208,0.0679864,0.0424904
0.0473359,0.20957,0.349788,1.00577,0.586198,0.769619,0.0649994,0.0816048,0.18723
0.0537158,0.228976,0.365359,0.846655,0.376993,0.84709,0.0675539,0.0798858,0.274176
0.0544067,0.244849,0.382263,0.661916,0.085635,0.874464,0.0600961,0.0846192,0.272037
0.049726,0.258005,0.399315,0.590914,-0.0983257,0.838248,0.0390979,0.0887394,0.180016
0.0430588,0.270356,0.415101,0.590486,-0.126164,0.742692,0.0188514,0.0987394,0.122298
0.0379276,0.28308,0.429262,0.630825,0.000663707,0.68735,0.0254498,0.131747,0.111899
0.0351771,0.296382,0.443224,0.645373,0.114623,0.712094,0.0528962,0.157754,0.147946
0.0333404,0.30978,0.458076,0.647456,0.130185,0.758303,0.0691131,0.172143,0.189527
0.0310146,0.323258,0.473919,0.648069,0.12813,0.786368,0.0651857,0.174515,0.228954
0.0279603,0.33622,0.489948,0.598863,0.0912127,0.763058,0.0498111,0.163112,0.275427
0.0250764,0.347606,0.504995,0.493936,0.127797,0.687758,0.0405433,0.150417,0.315719
0.0230628,0.355901,0.518271,0.29169,0.117332,0.586342,0.0467895,0.150468,0.357982
0.0212071,0.359348,0.529726,0.0300049,0.107125,0.506672,0.0670782,0.155436,0.360293
0.0197796,0.358079,0.540258,-0.161187,0.120407,0.490396,0.101654,0.168652,0.313372
0.0186581,0.354078,0.550969,-0.244475,0.147276,0.51496,0.126421,0.184067,0.265684
0.0179515,0.349097,0.562571,-0.274526,0.179408,0.57159,0.147469,0.190194,0.246064
0.0173514,0.343168,0.575482,-0.349785,0.195415,0.630303,0.14957,0.190125,0.2528
0.016741,0.335185,0.589283,-0.48448,0.194367,0.660338,0.142883,0.171534,0.255679
0.0158517,0.324165,0.60339,-0.638742,0.179593,0.658358,0.133656,0.150503,0.228331
0.015234,0.310366,0.617442,-0.75249,0.193217,0.664955,0.121954,0.131823,0.170175
0.0146226,0.295234,0.632005,-0.767404,0.193329,0.717146,0.113956,0.106867,0.0952578
0.013882,0.28046,0.648023,-0.749228,0.173728,0.811423,0.121655,0.0911133,0.0612843
0.0122684,0.265277,0.666033,-0.79836,0.177246,0.910961,0.104845,0.0718385,0.0190549
0.0116673,0.248998,0.685901,-0.859319,0.267454,0.994353,0.0757442,0.0370364,-0.0337289
0.0121193,0.231531,0.707119,-0.907806,0.254856,1.04425,0.050506,-0.00954586,-0.0981053
0.011319,0.213658,0.728617,-0.900642,0.137992,1.03449,0.0249341,-0.0626827,-0.202656
0.00883886,0.196039,0.749414,-0.901378,0.0276102,0.987288,0.0133643,-0.11361,-0.303372
0.00443455,0.17768,0.768834,-0.952091,-0.0987649,0.909439,-0.0115058,-0.149547,-0.404578
-0.00154444,0.158534,0.786352,-0.956803,-0.206974,0.819825,-0.0413369,-0.169476,-0.532546
-0.00805405,0.140576,0.802103,-0.813809,-0.192581,0.758125,-0.0583249,-0.170921,-0.656228
-0.00805405,0.140576,0.802103,-0.813809,-0.192581,0.758125,-0.0583249,-0.170921,-0.656228
-0.0129007,0.126505,0.817007,-0.582475,-0.0868818,0.74346,-0.0764513,-0.154762,-0.69066
-0.0151794,0.116188,0.831573,-0.453944,0.01571,0.720096,-0.0993491,-0.162394,-0.615652
-0.0163524,0.107268,0.845165,-0.435459,-0.000867112,0.630352,-0.12867,-0.190575,-0.525275
-0.0187002,0.0983288,0.856043,-0.428071,-0.134692,0.470039,-0.163276,-0.205769,-0.484466
-0.022793,0.0910568,0.863608,-0.251917,-0.176581,0.306325,-0.203637,-0.168972,-0.515128
-0.0251432,0.0894949,0.868361,0.133455,0.0227165,0.172897,-0.226608,-0.112376,-0.528716
-0.0216563,0.0965647,0.870488,0.568577,0.348867,0.0286721,-0.225807,-0.0388086,-0.406626
-0.0117219,0.111393,0.870522,0.900482,0.63552,-0.0368783,-0.214242,0.044467,-0.210978
0.00231728,0.131373,0.869637,1.07957,0.717916,-0.0564386,-0.226434,0.121383,0.00782925
0.0150554,0.153281,0.86815,1.09249,0.486107,-0.0765357,-0.242478,0.166445,0.202122
0.0206306,0.174011,0.86554,0.983701,0.0340894,-0.162228,-0.285714,0.188942,0.304696
0.0186797,0.192114,0.860054,0.836612,-0.323731,-0.360633,-0.325006,0.207002,0.33275
0.0118028,0.206621,0.849739,0.627592,-0.532874,-0.631276,-0.35106,0.242706,0.333505
0.00426332,0.216947,0.834238,0.425967,-0.523163,-0.876257,-0.336515,0.270501,0.308047
-0.000750381,0.2241,0.814455,0.310157,-0.410965,-1.05102,-0.284684,0.294983,0.29459
-0.0019403,0.229405,0.791428,0.208807,-0.229956,-1.19376,-0.241122,0.314587,0.322814
0.000427088,0.232248,0.766349,0.0830687,-0.116859,-1.23639,-0.185932,0.318743,0.374213
0.00452641,0.233196,0.741156,0.0315681,-0.076752,-1.22117,-0.145609,0.2996,0.406074
0.00803626,0.233568,0.716239,0.0198721,-0.159504,-1.20923,-0.12676,0.282491,0.444571
0.00944727,0.233217,0.69171,-0.0410625,-0.268468,-1.18224,-0.112234,0.266235,0.48233
0.00842958,0.231127,0.667638,-0.157358,-0.393043,-1.17779,-0.104473,0.249826,0.50586
0.00514972,0.226205,0.643086,-0.334385,-0.489162,-1.23937,-0.0965712,0.203941,0.498834
-0.000412563,0.216934,0.616874,-0.593235,-0.672399,-1.31379,-0.031549,0.164516,0.457168
-0.00972642,0.203035,0.590392,-0.800907,-0.794918,-1.26565,0.0367024,0.160032,0.344083
-0.0211012,0.185597,0.565137,-0.981785,-0.830544,-1.19998,0.0591895,0.137704,0.212268
-0.0325134,0.165109,0.540362,-1.12707,-0.717369,-1.19581,0.0785133,0.0681074,0.0460903
-0.040489,0.143158,0.515653,-1.14324,-0.453433,-1.16051,0.11236,0.0108493,-0.10943
-0.0442507,0.122229,0.492261,-1.02946,-0.242167,-1.05854,0.152076,-0.00577572,-0.233209
-0.0445849,0.104235,0.471862,-0.868179,-0.0295838,-0.882984,0.170854,-0.0230595,-0.277336
-0.0421433,0.0892746,0.455422,-0.696195,0.121044,-0.698651,0.190233,-0.0678263,-0.334304
-0.0377772,0.0775265,0.442245,-0.544281,0.170548,-0.579369,0.189892,-0.136525,-0.364143
-0.034374,0.0682696,0.431542,-0.420642,0.0934794,-0.457052,0.189973,-0.184896,-0.347432
-0.0322021,0.0613613,0.423301,-0.302189,0.0997302,-0.351569,0.182008,-0.206103,-0.360767
-0.0287547,0.0560394,0.416978,-0.268156,0.223761,-0.258483,0.164875,-0.212987,-0.381743
-0.0225585,0.0505675,0.412825,-0.288856,0.36431,-0.144382,0.163061,-0.227698,-0.395011
-0.0142275,0.0452731,0.41069,-0.233895,0.450828,-0.0665691,0.137549,-0.233459,-0.437176
-0.00528737,0.0418806,0.409716,-0.0937735,0.430883,-0.0322045,0.0965455,-0.226168,-0.484655
0.00290264,0.0416237,0.409448,0.0598438,0.39078,0.0194771,0.08879,-0.200347,-0.519303
0.0108007,0.0440998,0.411444,0.193224,0.422414,0.202368,0.133924,-0.154141,-0.521584
0.0202094,0.0499875,0.418002,0.401358,0.568966,0.469696,0.170934,-0.101553,-0.498066
0.0322486,0.0608954,0.430008,0.664002,0.685133,0.766471,0.168348,-0.0452976,-0.412727
0.0446412,0.0773493,0.447452,0.909605,0.661066,1.03018,0.149706,-0.00669686,-0.24878
0.0553713,0.0981165,0.468918,1.04036,0.607735,1.20036,0.104652,0.0149361,-0.0503411
0.0642861,0.120392,0.492469,1.03019,0.534471,1.26375,0.0520069,0.0152122,0.120151
0.0706034,0.141803,0.516468,0.942518,0.40629,1.26001,0.0257902,-0.000456527,0.245095
0.0733703,0.16102,0.540529,0.800906,0.216366,1.26492,0.0265817,-0.0027146,0.323657
0.0711715,0.177464,0.56554,0.676872,-0.00496102,1.32907,0.0648473,0.00932798,0.352469
0.0645823,0.192463,0.592265,0.66272,-0.139594,1.39526,0.0837642,0.0281912,0.306242
0.0560933,0.207744,0.61998,0.700663,-0.143229,1.41135,0.0799224,0.0525058,0.240372
0.0476554,0.222986,0.647876,0.669595,-0.101601,1.39005,0.0860951,0.050244,0.217405
0.0400949,0.236754,0.67508,0.593112,-0.0353063,1.32131,0.0795948,0.0532434,0.228373
0.0337141,0.248877,0.701052,0.530313,-0.0017529,1.26093,0.090454,0.0517355,0.235958
0.0264006,0.259398,0.72627,0.448413,-0.0927704,1.22489,0.12924,0.0574022,0.25791
0.017705,0.267986,0.751203,0.34589,-0.109903,1.20026,0.164752,0.0645798,0.257505
0.017705,0.267986,0.751203,0.34589,-0.109903,1.20026,0.164752,0.0645798,0.257505
0.00915366,0.273355,0.775305,0.152615,-0.0977439,1.13812,0.169562,0.0580191,0.24083
0.00136319,0.27483,0.798183,-0.00479271,-0.0674466,1.07432,0.178116,0.0490478,0.191215
-0.00556311,0.274202,0.819847,-0.0413283,-0.0530497,1.03179,0.188751,0.0588042,0.101466
-0.012031,0.274015,0.841181,0.0501689,-0.00261264,1.0298,0.200669,0.0817253,0.010703
-0.0166483,0.275939,0.862515,0.168171,0.134095,1.03157,0.206295,0.100178,-0.0431057
-0.0178985,0.279778,0.884153,0.232499,0.324929,1.05242,0.212865,0.114902,-0.0392202
-0.0162044,0.283921,0.906394,0.204462,0.437947,1.08398,0.207694,0.137605,0.0238643
-0.0138255,0.286866,0.92914,0.121204,0.433073,1.09983,0.189545,0.138157,0.0934585
-0.0114139,0.288194,0.952034,0.0307965,0.466333,1.09611,0.169573,0.123149,0.113634
-0.00837841,0.287224,0.974621,-0.113489,0.484688,1.07464,0.149042,0.104413,0.11934
-0.00444813,0.283656,0.996745,-0.220395,0.530916,1.06315,0.140989,0.0770626,0.0979382
0.000145784,0.278652,1.01884,-0.273027,0.529638,1.06378,0.137387,0.0546617,0.0486922
0.00412056,0.272753,1.0408,-0.321644,0.470841,1.05279,0.115874,0.0420126,0.00387251
0.00754913,0.266123,1.06243,-0.360587,0.463319,1.02929,0.0904645,0.0268017,-0.056653
0.0114379,0.258048,1.08332,-0.485421,0.469921,0.991373,0.0731849,0.0117089,-0.106904
0.0159253,0.247102,1.10348,-0.623516,0.481379,0.942862,0.0570841,-0.0127141,-0.167216
0.0216289,0.234332,1.12215,-0.689843,0.548176,0.842742,0.0312405,-0.0464627,-0.265763
0.0295443,0.220357,1.13894,-0.761425,0.61048,0.779205,0.00662052,-0.0551494,-0.346902
0.0377407,0.205269,1.15546,-0.786664,0.525383,0.795452,-0.00121881,-0.0416834,-0.391411
0.0426245,0.191705,1.17248,-0.610607,0.277825,0.823508,-0.00376028,-0.055362,-0.44577
0.043056,0.183162,1.18967,-0.318868,0.144418,0.82734,-0.00997409,-0.0650071,-0.486678
0.0446313,0.179593,1.20611,-0.14241,0.34125,0.764256,-0.0564416,-0.0602015,-0.471714
0.051661,0.177388,1.22052,-0.166524,0.606379,0.648433,-0.101777,-0.0564667,-0.3563
0.0630096,0.174603,1.23306,-0.164432,0.724734,0.578392,-0.0858447,-0.0630225,-0.223244
0.0747816,0.173398,1.24477,-0.0156953,0.616563,0.586784,-0.0656722,-0.0420083,-0.146518
0.0825071,0.176579,1.2576,0.242187,0.385299,0.718584,-0.0425731,0.00336014,-0.0971607
0.0852371,0.185179,1.27288,0.477269,0.169914,0.843457,-0.0507042,0.0635929,-0.045369
0.0837001,0.197464,1.28938,0.592932,-0.00991725,0.868278,-0.111824,0.107957,0.0207593
0.078507,0.210877,1.30583,0.606291,-0.18435,0.847927,-0.154692,0.127515,0.0835548
0.0696307,0.223817,1.32147,0.56835,-0.364664,0.7701,-0.180754,0.143782,0.119469
0.057299,0.23559,1.3356,0.522625,-0.544967,0.687732,-0.203421,0.159473,0.117983
0.042615,0.246731,1.34853,0.533374,-0.587696,0.630058,-0.201209,0.186847,0.088907
0.0284774,0.257764,1.36033,0.525545,-0.512399,0.545316,-0.192435,0.220053,0.0930961
0.0179031,0.268427,1.36957,0.524679,-0.261908,0.352521,-0.224613,0.223589,0.12471
0.0152121,0.27862,1.37369,0.473095,0.0743859,0.0513026,-0.272895,0.202168,0.162451
0.0181924,0.286437,1.37171,0.301636,0.121312,-0.20498,-0.254618,0.184133,0.274283
0.0205307,0.290262,1.36647,0.103208,-0.0527954,-0.255841,-0.152605,0.179133,0.387365
0.0190046,0.291151,1.36167,0.00993367,-0.216894,-0.2016,-0.0785827,0.195044,0.407357
0.0149165,0.290714,1.35757,-0.0551677,-0.299551,-0.207489,-0.064873,0.190751,0.390245
0.0101749,0.288202,1.35232,-0.206105,-0.326195,-0.313359,-0.0750322,0.142291,0.38226
0.00561016,0.282095,1.34462,-0.39981,-0.338915,-0.430217,-0.066393,0.093813,0.357783
0.00182161,0.272348,1.33491,-0.56368,-0.312026,-0.493321,-0.0424802,0.0665098,0.286001
-0.000876529,0.260053,1.32482,-0.660296,-0.214736,-0.474597,0.00118276,0.0513522,0.193884
-0.00248537,0.246226,1.31565,-0.723195,-0.187548,-0.40744,0.0391078,0.0316328,0.12186
-0.00433192,0.231842,1.30832,-0.701905,-0.167622,-0.293302,0.061879,0.0133548,0.0465237
-0.00598756,0.219489,1.30334,-0.521422,-0.101082,-0.200922,0.0584257,-0.00553547,-0.04148
-0.00612311,0.211266,1.29963,-0.321516,0.00812078,-0.15903,0.0426386,-0.0342139,-0.0841265
-0.00460361,0.205336,1.29698,-0.30251,0.0793193,-0.0925984,0.04714,-0.0573648,-0.0278996
-0.00283937,0.198605,1.29563,-0.376413,0.048692,-0.0406713,0.0463016,-0.0708712,0.0568311
-0.00274453,0.190517,1.29517,-0.424174,-0.0413864,-0.00557752,0.0373018,-0.0916848,0.083511
-0.00387354,0.182387,1.2953,-0.383741,-0.049414,0.00885246,0.030619,-0.120396,0.0420762
-0.00417259,0.175503,1.29547,-0.304366,0.0348812,0.00557637,0.00445945,-0.13396,-0.00308633
-0.00263389,0.170023,1.29546,-0.254628,0.112259,-0.00196758,-0.00604055,-0.151123,-0.0160399
-0.000122124,0.164914,1.29556,-0.267098,0.13261,0.020967,0.0044845,-0.154802,0.00196594
-0.000122124,0.164914,1.29556,-0.267098,0.13261,0.020967,0.0044845,-0.154802,0.00196594
0.0021686,0.159308,1.29634,-0.285301,0.099741,0.0561817,0.0098828,-0.156047,0.00813276
0.00390143,0.15415,1.29761,-0.221772,0.102423,0.067115,6.63698e-05,-0.161096,-0.0318846
0.00591974,0.150686,1.2993,-0.122963,0.138102,0.105681,0.0086585,-0.16127,-0.081692
0.00888986,0.149005,1.30212,-0.0578915,0.199297,0.175168,0.0239694,-0.15869,-0.117825
0.0119264,0.147527,1.30648,-0.112817,0.151948,0.256884,0.0344528,-0.148692,-0.12693
0.0133125,0.144577,1.31243,-0.182677,0.0798704,0.319177,0.0221356,-0.132309,-0.166679
0.0132366,0.14093,1.31902,-0.178403,0.023323,0.317716,0.00931023,-0.139336,-0.261878
0.0136993,0.138213,1.32491,-0.093725,0.133908,0.256519,-0.0039247,-0.146711,-0.377564
0.0176583,0.137288,1.3294,-0.0262358,0.329822,0.19765,-0.00995334,-0.129058,-0.455654
0.0249205,0.136619,1.33355,-0.0712012,0.423761,0.233734,0.0157806,-0.0915275,-0.452848
0.0325132,0.134387,1.3393,-0.161913,0.414355,0.335582,0.0451019,-0.0377095,-0.417438
0.0398671,0.131427,1.34698,-0.145186,0.432288,0.406695,0.0469282,-0.0245299,-0.425458
0.0477678,0.129976,1.35572,-0.0181629,0.485476,0.466717,0.0386059,-0.0273877,-0.426604
0.0575194,0.132127,1.36616,0.182711,0.616689,0.591816,0.0538685,-0.00973672,-0.380122
0.0685127,0.138582,1.37919,0.370823,0.644127,0.741556,0.0637737,0.0183113,-0.250055
0.0785811,0.14822,1.39497,0.46182,0.581053,0.886009,0.0563631,0.0400268,-0.0605558
0.0860224,0.15936,1.41324,0.493277,0.428617,1.002,0.0416982,0.0418189,0.117223
0.0883682,0.170593,1.4333,0.442178,0.116741,1.06545,0.0407592,0.0315377,0.261806
0.0836956,0.180221,1.45437,0.328895,-0.214738,1.08703,0.0344553,0.0255147,0.342055
0.0725466,0.186816,1.47535,0.169778,-0.48682,1.0213,0.0216127,0.0227219,0.350789
0.0588775,0.190526,1.49478,0.103574,-0.474986,0.917051,0.0141665,0.0192701,0.27128
0.0472872,0.194093,1.51249,0.171304,-0.34332,0.849666,0.027318,0.0474755,0.16697
0.0381515,0.199171,1.52958,0.26439,-0.244947,0.859674,0.0525013,0.0918688,0.13621
0.030258,0.20567,1.54721,0.315342,-0.206667,0.894167,0.0873123,0.118835,0.158454
0.0220636,0.212439,1.56528,0.309569,-0.251619,0.884792,0.0964762,0.127105,0.201708
0.0126278,0.218496,1.58271,0.268828,-0.31564,0.830989,0.0938892,0.118953,0.226437
0.00238402,0.223742,1.599,0.243279,-0.345582,0.763688,0.101389,0.109835,0.200947
-0.00760417,0.228456,1.61392,0.236523,-0.310174,0.697129,0.102728,0.117496,0.153234
-0.0161888,0.232955,1.62782,0.233923,-0.216675,0.657301,0.120014,0.123356,0.112204
-0.0220709,0.237607,1.64113,0.252807,-0.0725281,0.631191,0.122066,0.138805,0.0754881
-0.0256313,0.242404,1.65375,0.243529,0.00660178,0.579006,0.129463,0.13614,0.0685893
-0.027614,0.2463,1.66492,0.169938,0.0662266,0.494541,0.117369,0.125928,0.0843959
-0.0282634,0.248485,1.67439,0.0751291,0.0994573,0.423877,0.126055,0.109003,0.0922512
-0.0277162,0.248971,1.68282,0.00302227,0.16662,0.405475,0.142291,0.110481,0.0830521
-0.0255595,0.248442,1.69127,-0.0332234,0.264973,0.421148,0.149681,0.112014,0.0612805
-0.0216427,0.247112,1.69988,-0.0780901,0.333844,0.426639,0.133899,0.10485,0.0587817
-0.0168082,0.244843,1.70893,-0.137315,0.363748,0.457919,0.130427,0.0883515,0.0829076
-0.0116813,0.24111,1.71842,-0.234332,0.376282,0.466746,0.11698,0.0701713,0.113662
-0.00672415,0.234946,1.72788,-0.373504,0.338563,0.458558,0.105752,0.0323815,0.139268
-0.00269068,0.226401,1.73719,-0.465133,0.289641,0.457011,0.106061,-0.00448658,0.128835
0.000806385,0.216751,1.7467,-0.501121,0.262533,0.479037,0.113455,-0.0294945,0.0815356
0.00337359,0.206795,1.75702,-0.493132,0.222701,0.535068,0.122354,-0.0346355,0.0409443
0.0053181,0.197215,1.76859,-0.472796,0.214071,0.598956,0.132114,-0.0438985,0.00547403
0.00675444,0.188311,1.78159,-0.423854,0.180037,0.679713,0.138705,-0.0576575,-0.0233006
0.00771483,0.180866,1.79619,-0.33294,0.187779,0.748002,0.133479,-0.0646562,-0.0575091
0.00864057,0.175223,1.8119,-0.245066,0.185182,0.797367,0.11257,-0.0756261,-0.0729053
0.00939735,0.171367,1.82827,-0.163478,0.174072,0.811272,0.102954,-0.107195,-0.0726591
0.00970895,0.168672,1.84484,-0.13359,0.134703,0.831282,0.0945855,-0.129353,-0.0585494
0.00880446,0.166263,1.86201,-0.116972,0.0529635,0.859353,0.0874627,-0.139983,-0.044895
0.00630435,0.164677,1.87917,-0.0476265,-0.0115923,0.829324,0.0571965,-0.152397,-0.0653365
0.0032901,0.164693,1.89535,0.0353654,-0.0111132,0.76648,0.0290268,-0.16294,-0.0890217
0.00126446,0.165912,1.91025,0.0729578,0.0509603,0.712955,0.00993761,-0.156061,-0.0821378
-6.9055e-05,0.167691,1.92453,0.108349,0.037486,0.704729,0.020347,-0.145686,-0.048512
-0.00242386,0.170401,1.93873,0.1655,-0.0473671,0.699755,0.0280693,-0.134713,-0.0229394
-0.00242386,0.170401,1.93873,0.1655,-0.0473671,0.699755,0.0280693,-0.134713,-0.0229394
-0.00676888,0.174125,1.95284,0.206993,-0.132953,0.690189,0.0315078,-0.130815,-0.000220954
-0.0117682,0.178354,1.96651,0.220785,-0.119971,0.652394,0.0271758,-0.136067,0.00587374
-0.0161088,0.182371,1.9792,0.19179,-0.0937934,0.591679,0.026278,-0.138524,0.0139743
-0.0208275,0.185452,1.99074,0.136304,-0.181616,0.539124,0.0325081,-0.136853,0.0341994
-0.0276249,0.187588,2.00124,0.104114,-0.30802,0.489166,0.0475988,-0.137363,0.0240132
-0.0358518,0.189495,2.01091,0.124244,-0.305973,0.466629,0.0648808,-0.122016,-0.0218276
-0.0426934,0.192137,2.0207,0.174397,-0.179581,0.491231,0.0966741,-0.102424,-0.0671171
-0.0472317,0.194631,2.03096,0.0788098,-0.124031,0.501824,0.12367,-0.100007,-0.0449231
-0.0524127,0.192955,2.04123,-0.202438,-0.200885,0.516256,0.142832,-0.111554,0.0349952
-0.0589917,0.185989,2.05097,-0.428764,-0.279972,0.467177,0.140765,-0.131014,0.0111194
-0.0668284,0.175611,2.0589,-0.554743,-0.380735,0.378706,0.135255,-0.146106,-0.0834196
-0.0757155,0.16391,2.06559,-0.543324,-0.354981,0.389296,0.16104,-0.124894,-0.208979
-0.0813922,0.154367,2.07391,-0.32399,-0.0764227,0.523095,0.194059,-0.0787433,-0.359446
-0.0814302,0.150922,2.08643,0.101977,0.246377,0.75056,0.223864,-0.0311381,-0.424494
-0.0783982,0.155913,2.10461,0.518319,0.280859,1.00104,0.238867,0.0169765,-0.334943
-0.0768418,0.166959,2.12761,0.733016,0.238667,1.163,0.21344,0.0439008,-0.145203
-0.0765891,0.180033,2.15302,0.737047,0.244754,1.23872,0.159781,0.0757907,0.00945705
-0.0763998,0.191669,2.1801,0.624768,0.262986,1.339,0.112586,0.12786,0.11507
-0.0770509,0.201177,2.20898,0.558761,0.230393,1.41186,0.0756512,0.17164,0.150021
-0.0794644,0.210264,2.23883,0.57877,0.113933,1.42754,0.0463062,0.177712,0.145269
-0.0852779,0.219316,2.2682,0.541522,-0.0737084,1.35835,0.0129287,0.191409,0.150982
-0.0943639,0.22632,2.2954,0.380537,-0.219453,1.22323,-0.0228944,0.21008,0.156214
-0.104365,0.230039,2.31916,0.237735,-0.209419,1.04773,-0.0389799,0.215274,0.115943
-0.111704,0.23225,2.33911,0.200283,-0.0707446,0.874037,-0.0388906,0.224186,0.0331718
-0.115907,0.234563,2.35635,0.221984,0.048799,0.792883,-0.000174887,0.244167,-0.0210621
-0.117216,0.23781,2.37314,0.279746,0.210283,0.812637,0.0461667,0.27299,-0.0349805
-0.115855,0.241638,2.39106,0.284101,0.332876,0.879246,0.0825593,0.290121,0.0165318
-0.11298,0.244187,2.40985,0.152174,0.387457,0.900759,0.0864457,0.270027,0.119482
-0.109745,0.243296,2.42788,-0.0508407,0.360732,0.84528,0.0620184,0.220089,0.212941
-0.106697,0.238775,2.44378,-0.225047,0.318991,0.748107,0.0569034,0.159486,0.245431
-0.103662,0.23136,2.45779,-0.368459,0.318106,0.701893,0.069729,0.127861,0.234
-0.100545,0.221227,2.47146,-0.508789,0.29522,0.745055,0.107161,0.118413,0.218977
-0.0981613,0.208379,2.48625,-0.618352,0.254951,0.824667,0.126676,0.092739,0.190043
-0.0968386,0.193865,2.50231,-0.677228,0.198372,0.880049,0.137448,0.048228,0.140152
-0.0963224,0.177847,2.51891,-0.773474,0.165188,0.908839,0.127921,0.0116582,0.0919387
-0.095792,0.159416,2.53612,-0.897796,0.192396,0.969761,0.127529,-0.0176655,0.0338497
-0.0938611,0.139306,2.55461,-0.913877,0.272362,1.05347,0.123425,-0.0315393,-0.0545433
-0.091415,0.120881,2.57508,-0.699221,0.223159,1.15316,0.105072,-0.0450018,-0.154585
-0.0909441,0.108176,2.59836,-0.368676,0.082813,1.27514,0.105867,-0.0535031,-0.218724
-0.0931173,0.100413,2.62467,-0.196612,0.00187804,1.40799,0.118271,-0.0611177,-0.20286
-0.09518,0.0941479,2.65325,-0.177193,0.0877837,1.48083,0.0926624,-0.0671392,-0.167352
-0.0950784,0.0880773,2.68252,-0.136826,0.188923,1.48406,0.0525598,-0.080341,-0.15283
-0.0927567,0.0838822,2.71199,0.00740778,0.288091,1.49206,0.0436226,-0.0954306,-0.152438
-0.0893802,0.0829863,2.74231,0.171025,0.284503,1.5399,0.0599624,-0.100199,-0.120502
-0.0869099,0.0848344,2.77415,0.284236,0.234504,1.61939,0.0909135,-0.111648,-0.0556206
-0.0857405,0.0882147,2.80786,0.332964,0.183837,1.71212,0.113302,-0.129292,0.00577337
-0.0851932,0.0920701,2.84317,0.347318,0.190366,1.76182,0.109495,-0.154199,0.0409508
-0.085135,0.0957335,2.87884,0.314909,0.132958,1.7484,0.0840783,-0.172952,0.0655769
-0.0869006,0.09867,2.91386,0.28884,0.0429329,1.70938,0.0642287,-0.18509,0.0489218
-0.0893851,0.102031,2.94806,0.364665,0.0790631,1.66294,0.0651355,-0.178343,-0.0347
-0.0888746,0.107232,2.98145,0.433157,0.331794,1.61254,0.0582186,-0.155546,-0.111307
-0.0841836,0.112598,3.0138,0.359772,0.461643,1.55338,0.0640816,-0.141302,-0.109934
-0.0793704,0.115743,3.0449,0.196419,0.337669,1.5125,0.0940306,-0.139032,-0.0829074
-0.0780678,0.116157,3.07479,0.0835504,0.136447,1.4496,0.105936,-0.131251,-0.139403
-0.0780678,0.116157,3.07479,0.0835504,0.136447,1.4496,0.105936,-0.131251,-0.139403
-0.0796514,0.115091,3.10326,0.0275231,0.0305854,1.39508,0.0969699,-0.104371,-0.275573
-0.0816984,0.114114,3.13094,0.116466,0.15089,1.3745,0.11634,-0.0673777,-0.41358
-0.0783284,0.115929,-3.12441,0.278211,0.504927,1.37131,0.108348,0.0134205,-0.516533
-0.0695316,0.120182,-3.09729,0.320804,0.634788,1.27222,0.052205,0.0836528,-0.493972
-0.0605202,0.124787,-3.07298,0.296943,0.548362,1.11926,0.00308237,0.113553,-0.420389
-0.0540679,0.130097,-3.0507,0.39526,0.396379,1.08952,0.0384481,0.146973,-0.368557
-0.0491466,0.140271,-3.02751,0.786883,0.464387,1.17094,0.10086,0.200221,-0.36583
-0.0407991,0.159329,-3.00137,1.19714,0.775658,1.34248,0.158603,0.241053,-0.322158
-0.0283793,0.182852,-2.97156,1.20258,0.907073,1.51263,0.158304,0.316783,-0.130699
-0.0182523,0.204352,-2.93965,1.01912,0.687727,1.54487,0.120182,0.285376,0.0489148
-0.0144322,0.222746,-2.9094,0.883525,0.345983,1.37836,0.0771702,0.216972,0.110721
-0.015551,0.23943,-2.88279,0.834527,0.20916,1.20604,0.0723883,0.196194,0.0800442
-0.0164193,0.255369,-2.85873,0.804621,0.301647,1.12016,0.0802172,0.230432,0.0221729
-0.0158864,0.270615,-2.83587,0.760289,0.334512,1.07301,0.0990631,0.255636,0.0195917
-0.0154945,0.285128,-2.81356,0.736589,0.314417,1.0562,0.114142,0.259949,0.0368878
-0.015413,0.299938,-2.79137,0.787913,0.348087,1.05298,0.108749,0.271932,0.0376999
-0.0146314,0.31571,-2.76941,0.807984,0.382522,1.01424,0.0840677,0.278174,0.0603529
-0.0135181,0.331034,-2.7486,0.75364,0.409413,0.940508,0.0507934,0.262033,0.119235
-0.0106854,0.345382,-2.73007,0.71606,0.509673,0.790182,0.0084978,0.234567,0.139852
-0.0045898,0.359219,-2.71489,0.688091,0.613456,0.630675,-0.0087647,0.225063,0.153996
0.00406866,0.372845,-2.70284,0.676379,0.705128,0.512297,-0.00436895,0.238503,0.164899
0.015506,0.38529,-2.69251,0.531956,0.803818,0.471843,0.0141347,0.248494,0.202808
0.0286113,0.393344,-2.68281,0.231539,0.965164,0.449396,0.0219018,0.243829,0.281699
0.038366,0.393085,-2.67359,-0.259852,0.278865,0.406997,0.0584408,0.178878,0.428301
0.0386243,0.386878,-2.66447,-0.342432,0.160701,0.432064,0.0740567,0.160532,0.322572
0.0389822,0.380638,-2.65465,-0.350735,0.241886,0.448408,0.019954,0.190391,0.173374
0.0396266,0.372505,-2.64435,-0.501574,0.153749,0.495002,-0.0027959,0.163587,0.173409
0.0367347,0.362517,-2.63279,-0.514177,0.00561493,0.542961,0.032784,0.115203,0.11823
0.0322801,0.353079,-2.62049,-0.48467,-0.0349492,0.585739,0.00941984,0.0889222,0.0179628
0.0255038,0.343447,-2.60729,-0.525174,-0.201067,0.616436,-0.00229856,0.0568122,-0.0273193
0.0162345,0.332772,-2.59455,-0.564346,-0.266202,0.564053,-0.0356679,0.0211375,-0.0957098
0.00793619,0.321824,-2.58365,-0.533868,-0.197421,0.451857,-0.0808014,-0.00650215,-0.208825
0.00252918,0.311704,-2.57502,-0.500716,-0.106371,0.382605,-0.0951197,-0.01943,-0.293033
-0.00356017,0.301172,-2.56668,-0.562076,-0.277109,0.427123,-0.0516996,-0.0120763,-0.286914
-0.0136029,0.288992,-2.55757,-0.657273,-0.466809,0.445262,-0.0628131,-0.00314564,-0.307884
-0.026908,0.275269,-2.54922,-0.686632,-0.604965,0.366616,-0.119936,-0.0189042,-0.376741
-0.04,0.261581,-2.5443,-0.672889,-0.541016,0.145183,-0.175314,-0.0271435,-0.446335
-0.0493043,0.247806,-2.54402,-0.718701,-0.39725,-0.0422403,-0.196026,0.00344132,-0.444445
-0.0562155,0.232683,-2.54668,-0.800818,-0.37056,-0.124816,-0.144547,0.0284252,-0.380979
-0.0628182,0.217312,-2.55073,-0.739539,-0.381825,-0.180764,-0.108133,0.0400989,-0.357812
-0.0693257,0.204355,-2.55565,-0.567237,-0.363068,-0.209416,-0.0992397,0.0458615,-0.353604
-0.0740355,0.196,-2.56074,-0.299217,-0.185055,-0.226676,-0.096592,0.061966,-0.339445
-0.0754387,0.192897,-2.56547,-0.0476853,-0.0677557,-0.20361,-0.0821739,0.0837169,-0.252799
-0.0758312,0.194373,-2.56908,0.154238,-0.0552748,-0.164223,-0.0654386,0.105093,-0.117491
-0.0771206,0.198589,-2.57206,0.223758,-0.138334,-0.167864,-0.0704661,0.116689,0.0294188
-0.0803444,0.203414,-2.57518,0.232533,-0.248552,-0.178334,-0.0877938,0.120349,0.141232
-0.0859389,0.20855,-2.57861,0.260989,-0.38012,-0.200937,-0.100505,0.117258,0.214117
-0.0936496,0.214503,-2.58268,0.290682,-0.468304,-0.263174,-0.123642,0.13347,0.265174
-0.102141,0.22071,-2.58873,0.264425,-0.492165,-0.40398,-0.159238,0.149938,0.313827
-0.10866,0.226183,-2.59853,0.168436,-0.381514,-0.610942,-0.180311,0.146348,0.352251
-0.112501,0.22968,-2.6126,0.0332443,-0.318124,-0.783724,-0.158293,0.144811,0.408319
-0.114184,0.231394,-2.62983,-0.0350495,-0.259167,-0.895864,-0.128557,0.154078,0.432234
-0.115647,0.232753,-2.64885,-0.0374098,-0.335318,-0.951247,-0.0878568,0.174917,0.443693
-0.115647,0.232753,-2.64885,-0.0374098,-0.335318,-0.951247,-0.0878568,0.174917,0.443693
-0.119271,0.23389,-2.66811,-0.0792516,-0.497668,-0.917742,-0.0264781,0.189359,0.465861
-0.126943,0.233502,-2.68639,-0.184033,-0.685442,-0.850316,0.0357184,0.177568,0.469978
-0.138036,0.230617,-2.70391,-0.336849,-0.817148,-0.815864,0.0591563,0.151094,0.428346
-0.150817,0.224621,-2.72164,-0.498955,-0.854552,-0.823656,0.0390042,0.1283,0.348059
-0.162951,0.216634,-2.74123,-0.585963,-0.774801,-0.974451,0.0129462,0.0732654,0.234792
-0.171922,0.207795,-2.76518,-0.699629,-0.619435,-1.1843,-0.00688969,0.0230295,0.150281
-0.176377,0.196024,-2.79292,-0.965457,-0.379267,-1.27349,0.0652764,-0.0127488,0.127009
-0.176175,0.178058,-2.82208,-1.30826,-0.152292,-1.22069,0.138802,-0.00974032,0.117729
-0.17309,0.153969,-2.85016,-1.51897,-0.0192869,-1.08665,0.194619,-0.0298962,0.0483859
-0.169613,0.127485,-2.8755,-1.49004,-0.00751636,-0.945857,0.210705,-0.071179,-0.0790043
-0.167677,0.103483,-2.89732,-1.21701,-0.0571101,-0.784602,0.200316,-0.103733,-0.217023
-0.167977,0.0861722,-2.914,-0.753843,-0.135353,-0.556111,0.21149,-0.125849,-0.311755
-0.170223,0.0775171,-2.92423,-0.300766,-0.154049,-0.314711,0.232065,-0.138594,-0.323748
-0.172301,0.0744645,-2.92895,-0.137387,-0.0883117,-0.112302,0.232711,-0.16648,-0.232366
-0.173082,0.0714678,-2.93047,-0.195862,0.0161442,-0.00806335,0.191082,-0.198277,-0.117676
-0.17141,0.0670705,-2.93157,-0.248835,0.120518,-0.0439157,0.126411,-0.239712,-0.0907227
-0.168823,0.0626796,-2.93401,-0.213036,0.115859,-0.114026,0.103056,-0.270201,-0.100595
-0.16697,0.0598029,-2.93663,-0.110558,0.0453483,-0.077037,0.132237,-0.259309,-0.129958
-0.166805,0.0583039,-2.93707,-0.0658391,-0.0324668,0.0679159,0.168772,-0.20772,-0.167304
-0.168048,0.0561675,-2.93437,-0.0998033,-0.0563629,0.231711,0.161699,-0.146987,-0.209367
-0.168814,0.053231,-2.929,-0.100147,0.0212454,0.330169,0.122732,-0.108339,-0.295015
-0.167539,0.0501448,-2.92251,-0.109875,0.14461,0.35489,0.0488406,-0.0759749,-0.378629
-0.163736,0.0463454,-2.91563,-0.158831,0.276725,0.388984,0.0200536,-0.072644,-0.42015
-0.156686,0.041193,-2.90831,-0.237677,0.463446,0.416645,0.00051792,-0.0598471,-0.430279
-0.145227,0.0345269,-2.90074,-0.310668,0.69701,0.434129,-0.0179361,-0.0514328,-0.412179
-0.130537,0.0264389,-2.89342,-0.390349,0.790228,0.397627,-0.0242219,-0.0664597,-0.359868
-0.115207,0.0176576,-2.88677,-0.373981,0.729237,0.388336,-0.0231114,-0.0838906,-0.310434
-0.102655,0.0113775,-2.879,-0.14355,0.547367,0.464156,0.0143485,-0.0660306,-0.292301
-0.0930315,0.0103442,-2.86824,0.139014,0.422386,0.636453,0.0486571,-0.0245833,-0.259291
-0.0854892,0.0142912,-2.85233,0.409294,0.389186,0.93757,0.124744,0.0168541,-0.188187
-0.0769871,0.0239703,-2.82943,0.743358,0.509803,1.25963,0.156158,0.0563319,-0.127974
-0.067428,0.0394457,-2.80134,0.981768,0.509462,1.4025,0.107669,0.0740882,-0.0106474
-0.0603056,0.0579579,-2.77215,1.02314,0.315859,1.37987,0.0501276,0.0361359,0.142563
-0.0584388,0.0757639,-2.74438,0.915422,0.0666754,1.28579,0.0228376,0.0135882,0.257041
-0.0607368,0.0915994,-2.7184,0.83685,-0.0475883,1.21761,0.0445453,0.0130564,0.285247
-0.0635823,0.10652,-2.6935,0.8144,0.03651,1.17454,0.0596546,0.0499828,0.251204
-0.0639819,0.121451,-2.66919,0.845906,0.205969,1.15039,0.0726378,0.0842573,0.223025
-0.0617864,0.137698,-2.64528,0.939243,0.302018,1.11488,0.0901086,0.0873824,0.218564
-0.0591883,0.155715,-2.62234,0.980388,0.284921,1.04367,0.0898864,0.0953482,0.25349
-0.0576808,0.172993,-2.60093,0.84494,0.213752,0.964936,0.0998486,0.0969823,0.304175
-0.0559206,0.186456,-2.58214,0.594944,0.347881,0.792408,0.0925357,0.0797253,0.301993
-0.0496172,0.195151,-2.56777,0.366967,0.532959,0.581977,0.0842237,0.04212,0.251448
-0.0402493,0.20113,-2.55728,0.289727,0.596296,0.43998,0.113829,0.0254599,0.181746
-0.0304763,0.205849,-2.54895,0.197749,0.535138,0.375555,0.16435,0.050544,0.141
-0.0225497,0.20876,-2.54088,0.129094,0.413403,0.42169,0.20141,0.0700707,0.0983555
-0.0168774,0.211923,-2.53185,0.218425,0.35233,0.449643,0.187153,0.0960822,-0.000141561
-0.0112747,0.217392,-2.52251,0.317725,0.445098,0.464297,0.170631,0.112519,-0.0716333
-0.00227004,0.223489,-2.51235,0.278648,0.676877,0.529156,0.142503,0.13658,-0.0710454
0.0104793,0.228515,-2.50111,0.212286,0.824295,0.559087,0.102983,0.138656,-0.0303373
0.0245944,0.231972,-2.48992,0.104087,0.810704,0.545763,0.0668413,0.124246,0.0274249
0.0367642,0.23321,-2.47883,-0.0106221,0.651959,0.539698,0.0526637,0.0979533,0.0724919
0.0457126,0.232808,-2.46801,-0.0741569,0.498374,0.512531,0.0375521,0.0840887,0.0599119
0.0523453,0.231499,-2.45741,-0.112748,0.431287,0.523954,0.0169301,0.0992339,0.0236719
0.0578339,0.229239,-2.44607,-0.179849,0.368869,0.56715,0.0201723,0.0971091,-0.00848609
0.0578339,0.229239,-2.44607,-0.179849,0.368869,0.56715,0.0201723,0.0971091,-0.00848609
0.0620326,0.225622,-2.43429,-0.251362,0.328152,0.550395,-0.0108153,0.0938753,-0.0419594
0.0656018,0.220679,-2.42297,-0.310126,0.267531,0.522202,-0.0531008,0.0735521,-0.0936258
0.067268,0.214497,-2.41225,-0.389507,0.101946,0.48538,-0.0678895,0.0559038,-0.124613
0.0646843,0.206149,-2.40209,-0.508766,-0.153062,0.45585,-0.0735397,0.0368453,-0.146496
0.0575843,0.196022,-2.39258,-0.555446,-0.382075,0.401864,-0.0911793,0.018744,-0.223261
0.0474641,0.185506,-2.38498,-0.532183,-0.445752,0.287864,-0.118806,-0.0131421,-0.329391
0.0388837,0.175406,-2.38041,-0.503956,-0.316462,0.108569,-0.156472,-0.0310131,-0.417501
0.0346482,0.165601,-2.37997,-0.473766,-0.109607,-0.101946,-0.176288,-0.0599776,-0.458303
0.0347009,0.156869,-2.38388,-0.367606,0.0503569,-0.306339,-0.16943,-0.0851671,-0.460948
0.0382869,0.151411,-2.39111,-0.136993,0.188074,-0.413707,-0.142011,-0.0800934,-0.441685
0.0443119,0.151237,-2.3998,0.151598,0.275742,-0.434783,-0.094039,-0.0526927,-0.371485
0.0515266,0.156088,-2.40848,0.356014,0.297237,-0.403696,-0.0594836,-0.0220355,-0.253092
0.0580147,0.163867,-2.41682,0.464112,0.206728,-0.38689,-0.0713809,0.00776917,-0.135188
0.0619465,0.173342,-2.42555,0.528023,0.0316711,-0.424613,-0.0970967,0.0315752,-0.0606223
0.0629035,0.183906,-2.43521,0.598698,-0.0795854,-0.449935,-0.111485,0.0737399,-0.0260553
0.0637673,0.196301,-2.44484,0.709744,-0.00162692,-0.406633,-0.101105,0.131108,-0.0319865
0.0667054,0.211167,-2.45342,0.830826,0.106285,-0.332075,-0.0994923,0.185905,0.00204057
0.0706506,0.228335,-2.46057,0.93052,0.0997876,-0.249588,-0.0973088,0.206382,0.092205
0.0732436,0.247085,-2.4667,0.973082,0.0248,-0.219202,-0.105196,0.21609,0.203923
0.0745856,0.265495,-2.47253,0.891244,-0.0413555,-0.207272,-0.115241,0.218061,0.314117
0.0745836,0.281519,-2.47814,0.746003,-0.11649,-0.22208,-0.114107,0.20413,0.406115
0.0730256,0.294261,-2.4843,0.564576,-0.21779,-0.288074,-0.118744,0.188562,0.463805
0.0696386,0.302996,-2.49191,0.357514,-0.351889,-0.382892,-0.126746,0.163417,0.48848
0.0641147,0.307529,-2.50138,0.160544,-0.483471,-0.48732,-0.116225,0.142792,0.469895
0.0572037,0.308567,-2.51255,0.015665,-0.524583,-0.563619,-0.100767,0.134016,0.400232
0.0504621,0.30714,-2.52455,-0.0970732,-0.519338,-0.578914,-0.0701596,0.126171,0.314995
0.0436584,0.303779,-2.53605,-0.180043,-0.505405,-0.531028,-0.0271961,0.113017,0.239284
0.0376145,0.299475,-2.5465,-0.209458,-0.411458,-0.487865,-0.0151952,0.0906124,0.157605
0.0328177,0.294798,-2.55624,-0.235836,-0.364272,-0.471197,-0.0318083,0.0558507,0.0904553
0.0286192,0.289228,-2.5661,-0.29487,-0.340138,-0.511721,-0.0612708,0.0223344,0.0584441
0.0259688,0.282408,-2.57763,-0.357216,-0.250216,-0.619504,-0.099034,-0.0243704,0.0246691
0.0257372,0.273975,-2.59122,-0.461855,-0.158338,-0.695651,-0.0766849,-0.0612876,0.0127992
0.0269418,0.263433,-2.60519,-0.549258,-0.0992767,-0.667489,-0.0416495,-0.0597476,0.0146813
0.0280067,0.251895,-2.61777,-0.560574,-0.145848,-0.580773,-0.0104262,-0.0590948,9.0301e-05
0.0266103,0.241274,-2.62869,-0.459216,-0.253179,-0.514463,-0.0115848,-0.0706307,-0.0271121
0.0230924,0.233467,-2.63843,-0.299991,-0.324918,-0.448691,-0.0146209,-0.0888238,-0.0623165
0.0185112,0.2288,-2.64667,-0.154246,-0.310458,-0.35898,-0.000220805,-0.0961889,-0.0743234
0.01429,0.226598,-2.65303,-0.0679603,-0.264825,-0.269934,0.000434272,-0.0895294,-0.0560893
0.0103524,0.22583,-2.65807,-0.00285205,-0.244727,-0.236951,-0.00940272,-0.10482,-0.0247113
0.0067277,0.225908,-2.66327,-0.00121311,-0.242394,-0.275953,-0.029155,-0.114906,0.00157708
0.00351319,0.225365,-2.6694,-0.047737,-0.201058,-0.321485,-0.0368106,-0.118991,0.0235804
0.00131308,0.224282,-2.67644,-0.0562234,-0.19536,-0.367696,-0.0340408,-0.120657,0.00630999
-0.0011394,0.223355,-2.68396,-0.0298328,-0.204051,-0.355124,-0.00738806,-0.121316,-0.0255886
-0.00354084,0.223185,-2.69081,0.00512278,-0.185567,-0.315684,0.0245864,-0.113578,-0.075651
-0.00556761,0.223126,-2.69694,-0.0282054,-0.14692,-0.289704,0.0214971,-0.10091,-0.1112
-0.00673578,0.221903,-2.70281,-0.0916007,-0.104528,-0.284675,0.0136354,-0.116629,-0.152487
-0.00668094,0.220015,-2.70862,-0.0844532,0.000793496,-0.283742,0.0136304,-0.121355,-0.216907
-0.00440785,0.218972,-2.71471,-0.0186036,0.131285,-0.31719,-0.00294536,-0.113126,-0.275857
0.00180254,0.21933,-2.72183,0.0378144,0.308547,-0.38475,-0.0307358,-0.106201,-0.309191
0.0108542,0.2196,-2.73031,-0.0284867,0.388784,-0.441488,-0.039051,-0.0955766,-0.269205
0.0201944,0.217608,-2.73967,-0.145039,0.355202,-0.471775,-0.0320001,-0.0709555,-0.204874
0.0299617,0.214457,-2.74916,-0.130071,0.435782,-0.463241,-0.00711519,-0.0523501,-0.195588
0.0412352,0.212211,-2.75816,-0.0699473,0.484307,-0.416886,0.0195614,-0.0296428,-0.15455
0.0518996,0.210683,-2.76547,-0.0503042,0.416736,-0.294459,0.0702272,-0.00931732,-0.0508331
0.0518996,0.210683,-2.76547,-0.0503042,0.416736,-0.294459,0.0702272,-0.00931732,-0.0508331
0.0592906,0.209665,-2.76956,-0.0203844,0.207513,-0.103756,0.126643,0.00100933,0.0414303
0.0608518,0.209776,-2.76953,0.0352542,-0.0464993,0.111184,0.160398,0.0217021,0.0876717
0.0575484,0.211148,-2.76507,0.065718,-0.173783,0.326899,0.177266,0.0397983,0.111686
0.0520308,0.212493,-2.757,0.0114353,-0.207746,0.460325,0.171361,0.0374964,0.125386
0.0447928,0.21196,-2.74691,-0.111294,-0.31835,0.517999,0.159776,0.0246004,0.134156
0.0352728,0.20976,-2.7362,-0.11932,-0.396393,0.519136,0.138008,0.0135228,0.0742896
0.0255634,0.209128,-2.72565,0.0401417,-0.330233,0.520389,0.13915,0.0160174,-0.0440341
0.0185879,0.211854,-2.71466,0.198947,-0.123563,0.572363,0.158693,0.0425939,-0.0955852
0.015847,0.216572,-2.70232,0.236828,0.107021,0.646821,0.164196,0.0722892,-0.0610041
0.0162863,0.2213,-2.68854,0.212515,0.214245,0.697494,0.154857,0.0861519,0.0241895
0.0173466,0.225378,-2.67438,0.173322,0.20147,0.685485,0.127655,0.0814915,0.114364
0.0178639,0.228535,-2.66048,0.116279,0.159363,0.682656,0.119992,0.0731848,0.182172
0.0173787,0.230608,-2.64624,0.0683064,0.115566,0.716352,0.136586,0.0770496,0.224617
0.0156181,0.232015,-2.63094,0.0521352,0.0641106,0.785788,0.162642,0.0736282,0.237216
0.0125501,0.233139,-2.61414,0.0209737,0.0112227,0.851243,0.186001,0.067489,0.240798
0.00859009,0.232657,-2.59648,-0.0900287,0.0144026,0.870086,0.174793,0.0663642,0.245925
0.00516802,0.230031,-2.57866,-0.17501,0.0526501,0.861449,0.162311,0.0513414,0.216566
0.00311049,0.226199,-2.56115,-0.214515,0.14255,0.852492,0.16097,0.044099,0.161686
0.00261426,0.221667,-2.54332,-0.241402,0.20483,0.890707,0.168135,0.0454028,0.127781
0.00315724,0.216972,-2.52489,-0.226604,0.242446,0.909593,0.154784,0.0421625,0.0916308
0.00426559,0.212843,-2.50646,-0.196258,0.26595,0.891952,0.12138,0.043118,0.0683526
0.00590378,0.208988,-2.48852,-0.20932,0.256285,0.866558,0.0998918,0.0367395,0.0632463
0.00692586,0.204734,-2.471,-0.222974,0.209687,0.85311,0.0930113,0.0276475,0.054821
0.00757621,0.200415,-2.45366,-0.225583,0.219373,0.852606,0.0745915,0.0411325,0.0186217
0.00872177,0.195851,-2.43601,-0.249508,0.234902,0.879684,0.0650229,0.0441187,-0.00598645
0.010443,0.190783,-2.41836,-0.28158,0.277204,0.839934,0.0439306,0.0364451,-0.0184722
0.0130243,0.184569,-2.40218,-0.372901,0.270363,0.743264,-0.00445615,0.0317894,-0.0118189
0.0153397,0.175862,-2.38804,-0.521007,0.209477,0.641516,-0.0107996,0.00836115,-0.000296116
0.016595,0.164392,-2.37572,-0.650282,0.125003,0.55657,-0.0174691,0.00285535,-0.0347817
0.0156883,0.150064,-2.36484,-0.797675,-0.0506263,0.507015,-0.0173271,0.00410034,-0.0887832
0.0115572,0.133747,-2.35421,-0.827911,-0.216766,0.5237,0.0184077,-0.0134562,-0.183054
0.00433125,0.11831,-2.34368,-0.720501,-0.366937,0.504941,0.00883684,-0.0161978,-0.319195
-0.00532675,0.104671,-2.33383,-0.666348,-0.495546,0.48025,0.000567328,-0.0177885,-0.409113
-0.0173885,0.0913376,-2.3243,-0.653532,-0.60935,0.490853,0.0263331,-0.0340793,-0.465089
-0.0302369,0.0790538,-2.31432,-0.527886,-0.58226,0.545452,0.0471819,-0.0325397,-0.561104
-0.0412354,0.0707721,-2.30323,-0.247618,-0.390349,0.57777,0.0296002,-0.0177116,-0.651484
-0.046005,0.0679466,-2.29275,-0.0252513,-0.0308789,0.449334,-0.0707708,-0.00223511,-0.653952
-0.0446421,0.0674926,-2.28665,-0.016987,0.182147,0.154929,-0.145904,-0.0342737,-0.507879
-0.0399002,0.067252,-2.28597,0.032442,0.294552,-0.0517252,-0.132777,-0.0666793,-0.360278
-0.0332325,0.0703892,-2.28718,0.315607,0.333867,-0.0499699,-0.0769328,-0.0228544,-0.293509
-0.0266663,0.0809132,-2.28681,0.736422,0.335087,0.0610848,-0.0628406,0.0645438,-0.207804
-0.0203991,0.0984094,-2.28424,0.979255,0.323061,0.141771,-0.0711774,0.115249,-0.0614418
-0.0137584,0.117637,-2.28099,0.902846,0.384385,0.136677,-0.0993437,0.128535,0.115141
-0.00585301,0.133088,-2.27853,0.645932,0.416183,0.094057,-0.137357,0.128819,0.255468
0.00130554,0.143972,-2.27701,0.477522,0.307229,0.0591572,-0.154216,0.129208,0.317214
0.00552077,0.15337,-2.27586,0.487847,0.13427,0.0629442,-0.150109,0.148069,0.316418
0.0064134,0.163769,-2.27431,0.552868,-0.0088573,0.0980273,-0.141185,0.168363,0.314725
0.00499072,0.174935,-2.27217,0.550112,-0.102578,0.109584,-0.137025,0.176989,0.345733
0.00204208,0.185157,-2.27055,0.464549,-0.157189,0.0452819,-0.143105,0.164692,0.380137
-0.00126607,0.193139,-2.27084,0.332316,-0.170024,-0.0724059,-0.14544,0.144699,0.388892
-0.00389398,0.19848,-2.2733,0.207312,-0.145473,-0.158627,-0.128675,0.132162,0.369444
-0.00580426,0.201728,-2.27702,0.118779,-0.109393,-0.205947,-0.0991719,0.135757,0.327255
-0.0076203,0.203458,-2.28119,0.0696837,-0.19533,-0.195868,-0.0866684,0.146515,0.283484
-0.0124301,0.205249,-2.28497,0.112994,-0.352835,-0.184442,-0.062706,0.134368,0.234596
-0.0124301,0.205249,-2.28497,0.112994,-0.352835,-0.184442,-0.062706,0.134368,0.234596
-0.019476,0.207401,-2.28896,0.068963,-0.412187,-0.215771,-0.0526436,0.123611,0.197164
-0.0260547,0.206992,-2.2941,-0.139407,-0.351582,-0.293822,-0.077959,0.108868,0.18755
-0.0308481,0.202154,-2.30138,-0.349534,-0.258991,-0.402823,-0.0913058,0.0858964,0.160765
-0.0329141,0.194422,-2.31053,-0.43936,-0.150404,-0.460567,-0.0841669,0.0696798,0.0925513
-0.033866,0.185758,-2.32016,-0.45069,-0.132687,-0.451838,-0.0720849,0.0758965,0.0409488
-0.0351251,0.177417,-2.32949,-0.41231,-0.162661,-0.445252,-0.0600989,0.0543716,0.00798774
-0.0366152,0.170134,-2.33892,-0.356704,-0.138915,-0.463087,-0.0655908,0.0329462,-0.0143508
-0.0374104,0.163619,-2.34844,-0.336128,-0.107143,-0.448118,-0.0663541,0.0229823,-0.0113758
-0.0380929,0.157386,-2.3576,-0.312699,-0.107644,-0.437356,-0.0665587,0.0144946,0.0151526
-0.0390919,0.15165,-2.36672,-0.29971,-0.134282,-0.444723,-0.0653858,-0.00798845,0.0386561
-0.0404226,0.14607,-2.37599,-0.298787,-0.1272,-0.455281,-0.0610014,-0.0326566,0.0670491
-0.0415005,0.140426,-2.38568,-0.307913,-0.118241,-0.483877,-0.0658077,-0.0469707,0.0890507
-0.0424806,0.134399,-2.39587,-0.339103,-0.124297,-0.502779,-0.0659626,-0.0542833,0.106253
-0.0439672,0.127548,-2.40647,-0.395892,-0.164718,-0.526366,-0.0586532,-0.067423,0.120648
-0.0466316,0.119474,-2.41772,-0.465405,-0.239329,-0.556107,-0.0448278,-0.0913665,0.108873
-0.0505089,0.110159,-2.42956,-0.513749,-0.276155,-0.572258,-0.0289965,-0.0984985,0.0570937
-0.0546658,0.100606,-2.44163,-0.493047,-0.264401,-0.584419,-0.015233,-0.0981719,-0.0414091
-0.0581865,0.0920114,-2.45411,-0.445087,-0.200936,-0.606002,-0.0159601,-0.103538,-0.147013
-0.0604811,0.0846182,-2.46654,-0.358579,-0.11524,-0.583287,0.016008,-0.115419,-0.229857
-0.0604704,0.0795684,-2.47806,-0.209987,0.0464477,-0.522388,0.0381934,-0.110808,-0.328121
-0.057078,0.0776522,-2.4877,-0.0462356,0.222608,-0.442212,0.053152,-0.110887,-0.383879
-0.0508795,0.0781011,-2.49663,0.0235276,0.308647,-0.468213,0.015943,-0.118801,-0.376073
-0.043713,0.0788178,-2.507,-0.0166393,0.318041,-0.583342,-0.0264134,-0.14743,-0.338179
-0.0365123,0.0780607,-2.51997,-0.109472,0.315333,-0.700222,-0.0261527,-0.158988,-0.318392
-0.028242,0.0758034,-2.53458,-0.154448,0.410222,-0.741569,-0.0022079,-0.139403,-0.350895
-0.018319,0.0729256,-2.54918,-0.15858,0.465441,-0.695643,0.0275466,-0.0975492,-0.388888
-0.00776869,0.0711816,-2.56151,-0.00413873,0.519277,-0.519153,0.092954,-0.0696103,-0.407714
0.00389705,0.074355,-2.5697,0.340084,0.613039,-0.291659,0.121236,-0.0305872,-0.41781
0.0178968,0.0851446,-2.57294,0.744454,0.753089,-0.0153193,0.120185,0.0153548,-0.365446
0.0331884,0.103216,-2.57118,1.03593,0.770369,0.231621,0.120711,0.0286924,-0.203074
0.0460581,0.125373,-2.56549,1.12789,0.557812,0.411842,0.0929914,0.0451654,0.00968409
0.0524725,0.147541,-2.55725,1.03492,0.184122,0.492701,0.0641645,0.0410492,0.177944
0.0512332,0.167008,-2.54906,0.871142,-0.146676,0.39619,0.0109183,0.0159182,0.235937
0.0462674,0.18319,-2.54345,0.732749,-0.210423,0.239517,-0.0131742,-0.00189976,0.210578
0.0427575,0.196997,-2.54018,0.647531,-0.0605201,0.163167,0.00959592,0.0331425,0.14941
0.0428508,0.209798,-2.53727,0.630303,0.111642,0.195868,0.0500816,0.0905259,0.118685
0.044656,0.222635,-2.53304,0.635647,0.144472,0.269582,0.0844361,0.131292,0.142529
0.0461097,0.235505,-2.52756,0.627834,0.131249,0.318073,0.0751894,0.146786,0.187
0.0475608,0.247846,-2.52159,0.580328,0.153102,0.318888,0.0638037,0.143586,0.227639
0.0491591,0.259265,-2.51581,0.543206,0.169327,0.294378,0.0522955,0.145469,0.265063
0.0518152,0.26992,-2.51065,0.485446,0.224141,0.257146,0.043818,0.142753,0.280538
0.0546611,0.278303,-2.50607,0.316968,0.182516,0.239703,0.0470318,0.142141,0.321613
0.0564135,0.282853,-2.50116,0.116038,0.132087,0.256092,0.0647076,0.134154,0.344844
0.0572223,0.283825,-2.49581,-0.0368909,0.0897683,0.259131,0.0611249,0.127121,0.316132
0.0572095,0.282216,-2.49068,-0.15299,0.0595604,0.225321,0.0566406,0.109997,0.269065
0.0571512,0.278129,-2.48608,-0.283041,0.0610488,0.198731,0.0560063,0.0967923,0.232462
0.0574026,0.271859,-2.4816,-0.359726,0.0861005,0.200266,0.0727114,0.0765975,0.192415
0.0577644,0.264617,-2.47666,-0.398335,0.0731885,0.243805,0.0992759,0.068073,0.162634
0.0572719,0.25613,-2.47018,-0.494591,0.0384957,0.338321,0.125413,0.0707976,0.162081
0.0553521,0.245817,-2.46173,-0.570094,-0.0216426,0.411511,0.136662,0.036699,0.146279
0.0522045,0.234784,-2.4523,-0.577717,-0.0595761,0.443791,0.124467,-0.00372592,0.0890223
0.048859,0.223642,-2.44199,-0.58876,-0.0371952,0.514755,0.132766,-0.0318492,0.0400794
0.0459396,0.212537,-2.43009,-0.568314,0.00360676,0.598176,0.131654,-0.0492069,-0.00383323
0.0437364,0.202515,-2.41679,-0.487074,0.0509345,0.659524,0.113528,-0.0609055,-0.0464126
0.0437364,0.202515,-2.41679,-0.487074,0.0509345,0.659524,0.113528,-0.0609055,-0.0464126
0.0426264,0.194397,-2.40254,-0.397787,0.107798,0.702099,0.0984021,-0.0755324,-0.0648472
0.0416564,0.187122,-2.38775,-0.410845,0.0607645,0.716504,0.086463,-0.090518,-0.0408459
0.0391093,0.17875,-2.37305,-0.495296,-0.0533661,0.688709,0.0664583,-0.104183,-0.0277942
0.0342297,0.168322,-2.35951,-0.601304,-0.19128,0.605014,0.045347,-0.116346,-0.0680855
0.0281715,0.155927,-2.34746,-0.667901,-0.214002,0.563576,0.0369017,-0.114006,-0.170773
0.022622,0.142858,-2.33578,-0.656282,-0.146422,0.577248,0.0484264,-0.104011,-0.300021
0.0187998,0.13138,-2.3231,-0.500127,-0.0637632,0.667229,0.0486698,-0.0855503,-0.414936
0.0158383,0.123888,-2.30853,-0.290077,-0.0646276,0.740269,-0.00111356,-0.0688417,-0.47396
0.0119792,0.118982,-2.29479,-0.262689,-0.180364,0.589554,-0.101692,-0.0874139,-0.453339
0.00549849,0.112527,-2.28585,-0.401054,-0.357609,0.283804,-0.193086,-0.141631,-0.423378
-0.00342251,0.103677,-2.28326,-0.454754,-0.492487,0.0030871,-0.225295,-0.154626,-0.468358
-0.0131332,0.0959006,-2.28469,-0.310106,-0.480239,-0.113638,-0.176549,-0.101146,-0.560223
