attitude_roll,attitude_pitch,attitude_yaw,rotationRate_x,rotationRate_y,rotationRate_z,acceleration_x,acceleration_y,acceleration_z
0.00409038,0.252356,-0.000518873,-0.306007,0.0190076,-0.103296,-0.0453274,0.0978915,-0.0314981
-0.00138158,0.248125,-0.00129821,-0.109068,-0.540928,0.0293033,0.00637467,0.0918547,-0.0327473
-0.0139542,0.248315,9.67049e-05,0.124152,-0.614275,0.0849906,-0.0293819,0.069913,-0.0889176
-0.0242486,0.252101,0.00134829,0.234879,-0.345543,0.0174865,-0.0777622,0.0630836,-0.103916
-0.0272451,0.256827,0.00134668,0.220537,0.0490398,-0.0242366,-0.0811347,0.0467529,-0.0610054
-0.023809,0.260714,0.000661751,0.171095,0.235701,-0.0566471,-0.0654225,0.0335731,0.0200705
-0.0192305,0.263896,-0.000740376,0.149767,0.147846,-0.0820931,-0.0390231,0.0152531,0.0908893
-0.0179169,0.266658,-0.00236715,0.119919,-0.0626878,-0.0830657,-0.0283105,-0.000238866,0.124139
-0.0202488,0.268663,-0.00432073,0.0785996,-0.183322,-0.114422,-0.0404307,-0.0124814,0.107316
-0.0225098,0.269724,-0.0071977,0.0141698,-0.112683,-0.173538,-0.063221,-0.0172113,0.0796283
-0.0229974,0.268945,-0.0116809,-0.110237,-0.0642429,-0.260395,-0.0775779,-0.0175044,0.0737671
-0.0226968,0.265604,-0.0176558,-0.235708,-0.0731672,-0.300528,-0.0618717,-0.0107322,0.0668128
-0.0225267,0.260341,-0.0240486,-0.297142,-0.0648442,-0.301201,-0.0463495,-0.00363746,0.0381092
-0.0217484,0.254721,-0.030053,-0.265794,0.00203315,-0.261369,-0.0345275,-0.00225165,0.00493467
-0.0194764,0.250559,-0.0348534,-0.154584,0.0972232,-0.193612,-0.0291829,-0.00632735,0.00605071
-0.016241,0.248696,-0.0379671,-0.0343659,0.146268,-0.0974362,-0.0174625,-0.0105582,0.0491998
-0.013485,0.249033,-0.0389163,0.057526,0.0932765,-0.00235841,-0.0345388,-0.0122913,0.119103
-0.0126504,0.250624,-0.0385925,0.0890016,-0.00491469,0.0230819,-0.0598582,-0.033867,0.181006
-0.0136537,0.251896,-0.0384434,0.0202669,-0.0819336,-0.0215515,-0.0889046,-0.045315,0.223463
-0.0149008,0.25122,-0.0396244,-0.0882257,-0.0597907,-0.0895697,-0.0719474,-0.0673165,0.227322
-0.0155963,0.248278,-0.0417968,-0.214169,-0.0857767,-0.113935,-0.0565378,-0.0564038,0.2299
-0.0176429,0.243124,-0.0443358,-0.297447,-0.172281,-0.113085,-0.0332308,-0.0542775,0.195461
-0.0211307,0.237104,-0.0464403,-0.311448,-0.235192,-0.0803661,-0.00979646,-0.0621692,0.142536
-0.0261294,0.230918,-0.0480151,-0.315578,-0.317262,-0.051224,0.0161556,-0.0698345,0.0894574
-0.0326517,0.224885,-0.0485731,-0.3018,-0.321916,0.0202408,0.0420015,-0.0801066,0.0264395
-0.03864,0.218364,-0.0476246,-0.366733,-0.2505,0.0932486,0.0279321,-0.0689357,-0.013245
-0.0432886,0.209742,-0.045415,-0.502999,-0.190914,0.156615,0.0288989,-0.088576,-0.0464369
-0.0486342,0.198309,-0.0425483,-0.623134,-0.319265,0.17885,0.0326781,-0.127527,-0.117056
-0.0572973,0.185507,-0.0393631,-0.627896,-0.463504,0.203986,0.0341582,-0.148532,-0.273317
-0.066824,0.173345,-0.0358591,-0.553319,-0.392961,0.21275,0.0306784,-0.14608,-0.452762
-0.0724905,0.163475,-0.0324431,-0.404014,-0.105648,0.192889,0.0493057,-0.15993,-0.588281
-0.0722733,0.156941,-0.0292738,-0.228403,0.167441,0.177582,0.0410952,-0.124571,-0.641364
-0.0678705,0.153779,-0.0259038,-0.0657955,0.323365,0.175906,0.0146346,-0.0736177,-0.618003
-0.0604036,0.153926,-0.0222969,0.109711,0.480203,0.186876,0.0109471,-0.0436115,-0.551116
-0.0494563,0.158479,-0.0175439,0.394855,0.727983,0.269759,0.0495948,-0.0193685,-0.463614
-0.0322293,0.169512,-0.0103914,0.729899,1.11486,0.393107,0.052468,0.0277099,-0.302
-0.00905643,0.185666,-0.000942238,0.864655,1.34397,0.503998,0.0399676,0.0664375,-0.0416256
0.0167191,0.202283,0.0103414,0.77419,1.43352,0.605166,0.0303755,0.070886,0.19212
0.0417131,0.216029,0.0230695,0.558958,1.2936,0.681112,0.039789,0.0512666,0.365204
0.0608917,0.225804,0.0370117,0.357259,0.915009,0.729726,0.0579087,0.0328656,0.439895
0.0713271,0.232332,0.0520165,0.202501,0.464408,0.772329,0.0723108,0.030662,0.448655
0.0724305,0.235528,0.0678573,-0.00816638,0.0303882,0.780885,0.0858655,0.0260814,0.418145
0.0658425,0.233829,0.083826,-0.263414,-0.304487,0.766712,0.0986237,0.000594124,0.340048
0.053436,0.228039,0.0998681,-0.381736,-0.554745,0.759657,0.113332,-0.00160868,0.195026
0.0372969,0.220949,0.115475,-0.39085,-0.722177,0.736479,0.104838,0.0192042,0.0398003
0.0179779,0.214105,0.13061,-0.318123,-0.842488,0.723241,0.118435,0.0252015,-0.109966
-5.7669e-05,0.209755,0.144879,-0.108365,-0.602699,0.666323,0.107249,0.0321647,-0.255835
-0.0093997,0.210371,0.158432,0.179614,-0.0154833,0.682741,0.0995854,0.0885226,-0.303752
-0.00633789,0.216674,0.173857,0.453982,0.627843,0.836682,0.108881,0.148256,-0.221507
0.00613403,0.227404,0.192715,0.594095,0.978761,1.00015,0.0973412,0.182969,-0.021491
0.0211318,0.23936,0.214113,0.555639,0.9865,1.08718,0.039012,0.186605,0.177587
0.0343133,0.249821,0.236467,0.423521,0.864317,1.10263,-0.0160144,0.169731,0.307498
0.0343133,0.249821,0.236467,0.423521,0.864317,1.10263,-0.0160144,0.169731,0.307498
0.0440893,0.257494,0.258103,0.258547,0.650443,1.01007,-0.0525096,0.14571,0.374325
0.0496873,0.261823,0.277142,0.0854187,0.403332,0.853516,-0.068955,0.12493,0.397498
0.0511364,0.262617,0.293318,-0.0862839,0.17349,0.729166,-0.0523219,0.110149,0.382344
0.0492146,0.259859,0.307657,-0.261718,0.0115112,0.646131,-0.0561185,0.102937,0.336106
0.0455185,0.253966,0.320281,-0.376988,-0.0405029,0.544647,-0.0640933,0.0831536,0.250109
0.0424552,0.246091,0.330522,-0.464039,-0.0169355,0.419499,-0.060924,0.0558248,0.172489
0.0400284,0.236296,0.338383,-0.557745,-0.0398836,0.300553,-0.061626,0.0490296,0.0948918
0.0374261,0.2244,0.344134,-0.645785,-0.0838051,0.221423,-0.053798,0.0297872,0.00842494
0.0351716,0.211321,0.34858,-0.665911,-0.0235191,0.167629,-0.0576213,0.0155381,-0.100899
0.0354203,0.198908,0.352246,-0.576905,0.127076,0.158207,-0.0656596,0.0114116,-0.198646
0.0387673,0.188988,0.35602,-0.443591,0.280095,0.170006,-0.0759551,0.00193666,-0.233143
0.0451986,0.180993,0.359757,-0.389272,0.4389,0.163329,-0.103588,-0.0119649,-0.216298
0.0547358,0.17322,0.363345,-0.421721,0.545069,0.145004,-0.132305,-0.0301601,-0.179343
0.0642447,0.16441,0.366568,-0.47672,0.417492,0.120377,-0.143779,-0.0552784,-0.170885
0.0688216,0.154585,0.369419,-0.520638,0.0577754,0.0938649,-0.129379,-0.0715852,-0.198147
0.0663083,0.143939,0.371749,-0.563753,-0.243482,0.0615524,-0.13491,-0.0634663,-0.255223
0.0598387,0.131755,0.373197,-0.68395,-0.365573,-0.00578643,-0.142292,-0.0522654,-0.303288
0.0521682,0.116318,0.372896,-0.856322,-0.387573,-0.114718,-0.133427,-0.0537438,-0.332083
0.0455137,0.0981307,0.37039,-0.93648,-0.297717,-0.219105,-0.112006,-0.0572697,-0.382627
0.0408084,0.0792134,0.36617,-0.933598,-0.228631,-0.280209,-0.102299,-0.0418412,-0.399794
0.0358622,0.0610972,0.361217,-0.848137,-0.324988,-0.277211,-0.0741788,-0.0377568,-0.387258
0.0279472,0.0458701,0.356575,-0.641605,-0.482705,-0.240369,-0.046591,-0.0358874,-0.393578
0.0189425,0.0364474,0.352068,-0.275399,-0.383378,-0.240475,-0.0540393,-0.0415179,-0.427204
0.0143573,0.0345238,0.347126,0.0778414,-0.0900683,-0.25876,-0.0736287,-0.0117172,-0.380688
0.0157329,0.0386735,0.341818,0.334419,0.193881,-0.261493,-0.079548,0.0188426,-0.261934
0.0208018,0.0470696,0.336562,0.505646,0.242015,-0.254403,-0.0962167,0.0458009,-0.111614
0.0242201,0.0581935,0.331209,0.617167,0.0455404,-0.260065,-0.120582,0.059778,0.0148602
0.0228168,0.0711929,0.325266,0.690331,-0.228834,-0.319528,-0.161383,0.0628014,0.102249
0.0164528,0.0847245,0.317024,0.669436,-0.452369,-0.497097,-0.210256,0.0533883,0.169557
0.00689406,0.0972025,0.304405,0.59431,-0.624044,-0.752781,-0.232264,0.0369603,0.227174
-0.00466413,0.108135,0.286459,0.501946,-0.674913,-1.03872,-0.217974,0.0455924,0.270363
-0.0139262,0.117133,0.263249,0.372602,-0.48747,-1.26793,-0.164728,0.073759,0.303339
-0.0168167,0.123666,0.236535,0.246656,-0.109626,-1.38951,-0.113836,0.106505,0.33788
-0.0116418,0.128419,0.207939,0.204438,0.256414,-1.46164,-0.0982108,0.121276,0.369872
-0.000599113,0.132958,0.178337,0.241975,0.411275,-1.47498,-0.0869611,0.142606,0.431634
0.0105911,0.138305,0.149075,0.311778,0.288569,-1.41979,-0.0641549,0.158525,0.489938
0.0180381,0.144635,0.121251,0.35485,0.0357131,-1.3338,-0.0315512,0.151852,0.531649
0.0187286,0.151221,0.0949169,0.343914,-0.366923,-1.26923,-0.00827518,0.149593,0.533245
0.0109652,0.156873,0.0698681,0.250565,-0.784177,-1.19693,0.0170933,0.153209,0.493856
-0.00417384,0.160177,0.0465263,0.0647691,-1.08156,-1.13014,0.0113988,0.163201,0.387657
-0.0231235,0.158685,0.023424,-0.263648,-1.1364,-1.1646,-0.0337487,0.138351,0.259541
-0.0404147,0.150491,-0.00103703,-0.631279,-0.974667,-1.24447,-0.0258946,0.0909638,0.0878658
-0.0531485,0.136077,-0.0281469,-0.924923,-0.678501,-1.37441,-0.0164441,0.0754466,-0.138344
-0.0599999,0.117072,-0.0575447,-1.13755,-0.381879,-1.41786,0.0654129,0.0488418,-0.323024
-0.0621456,0.0942094,-0.0869959,-1.33957,-0.205298,-1.37413,0.141618,0.0178371,-0.441812
-0.0666588,0.0674488,-0.115697,-1.49614,-0.554542,-1.30801,0.177939,-0.0274663,-0.575397
-0.082145,0.0407535,-0.142507,-1.29404,-1.10216,-1.1508,0.266173,-0.105025,-0.811542
-0.103662,0.0225081,-0.164629,-0.702497,-0.973504,-0.874703,0.323574,-0.101517,-1.02102
-0.113791,0.0163882,-0.179204,-0.0909063,0.0264041,-0.489293,0.322957,-0.0916296,-1.0398
-0.10053,0.0197067,-0.184028,0.333662,1.24713,-0.0401197,0.304459,-0.114954,-0.802834
-0.10053,0.0197067,-0.184028,0.333662,1.24713,-0.0401197,0.304459,-0.114954,-0.802834
-0.0684503,0.0284588,-0.181428,0.531219,1.86604,0.194911,0.244349,-0.17081,-0.422134
-0.0313679,0.0391388,-0.175953,0.543611,1.76366,0.284305,0.182523,-0.220377,-0.0944275
-0.0025929,0.0495767,-0.169885,0.523174,1.09253,0.293201,0.177669,-0.28632,0.0964395
0.0116467,0.0609681,-0.164862,0.64592,0.401896,0.203285,0.18294,-0.308119,0.14137
0.0161502,0.0760205,-0.162254,0.851271,0.163407,0.0914536,0.180705,-0.281276,0.129016
0.0209654,0.0938158,-0.161071,0.891123,0.368825,0.071489,0.175128,-0.21928,0.170829
0.031139,0.109998,-0.160192,0.694884,0.648314,0.0450273,0.182418,-0.199336,0.257284
0.0457233,0.120497,-0.160156,0.357504,0.768001,0.0102374,0.219135,-0.228657,0.307248
0.0596143,0.12554,-0.159999,0.19189,0.586398,0.0427661,0.269747,-0.242435,0.263866
0.067674,0.129895,-0.158902,0.261186,0.228417,0.0949687,0.273005,-0.194323,0.158236
0.0692509,0.137053,-0.156567,0.455018,0.0045051,0.210996,0.271907,-0.135318,0.0449808
0.0687209,0.149456,-0.151121,0.764458,0.0805037,0.414663,0.27591,-0.0664626,-0.0439078
0.0720882,0.168436,-0.142255,1.05366,0.42863,0.589632,0.233132,0.0204698,-0.0476114
0.0829482,0.191263,-0.130624,1.08861,0.821899,0.71762,0.160632,0.0769698,0.0547445
0.097373,0.21249,-0.117491,0.90255,0.848578,0.758921,0.0794058,0.093493,0.158257
0.109376,0.230734,-0.103276,0.808251,0.631308,0.827187,0.0561644,0.106469,0.164779
0.114935,0.250077,-0.0867937,0.97308,0.333553,1.00022,0.05188,0.167354,0.108955
0.114944,0.274766,-0.0668021,1.25237,0.243599,1.20427,0.017983,0.234106,0.0632388
0.113818,0.30358,-0.0434068,1.32521,0.300585,1.34649,-0.0290637,0.249286,0.0960016
0.112158,0.332316,-0.0181212,1.26291,0.331507,1.34207,-0.0886033,0.221497,0.138157
0.111835,0.359321,0.00563917,1.16395,0.442636,1.16866,-0.141584,0.209503,0.159612
0.113616,0.382618,0.0257959,0.927789,0.453174,0.984913,-0.144694,0.21147,0.190951
0.114323,0.399754,0.0442726,0.569047,0.297248,0.920338,-0.100594,0.214646,0.187742
0.109942,0.409544,0.0626943,0.243334,-0.0349063,0.888952,-0.0898286,0.213865,0.105169
0.0980928,0.414608,0.0812977,0.0955012,-0.382231,0.84472,-0.118904,0.236922,-0.0474232
0.0809162,0.415947,0.0976739,-0.134547,-0.689069,0.652019,-0.161811,0.260654,-0.146044
0.0593652,0.410167,0.109787,-0.528914,-0.951758,0.413031,-0.176327,0.254613,-0.223981
0.0377529,0.396514,0.116659,-0.844114,-0.896885,0.16738,-0.145808,0.233007,-0.349332
0.0210447,0.378493,0.119188,-0.922926,-0.669255,0.0471022,-0.0827404,0.25746,-0.465209
0.0102881,0.361937,0.121156,-0.707528,-0.336313,0.143608,-0.0225304,0.311911,-0.515658
0.0045014,0.350977,0.126985,-0.392842,-0.0364253,0.410496,0.0338284,0.351246,-0.451796
0.00278277,0.34529,0.138303,-0.219664,0.217567,0.6343,0.0503447,0.327972,-0.272176
0.00313843,0.34076,0.15253,-0.26484,0.287513,0.676737,0.00970681,0.258046,-0.0929955
0.00434264,0.333869,0.165878,-0.453793,0.226143,0.57147,-0.032591,0.189212,0.0212345
0.00184954,0.322327,0.176569,-0.696332,-0.158567,0.448955,-0.033874,0.137728,0.0641915
-0.00774939,0.307505,0.185408,-0.749891,-0.495437,0.40823,-0.0337672,0.127831,0.00070101
-0.0213899,0.293628,0.193823,-0.617911,-0.590219,0.418776,-0.0645949,0.155515,-0.0960124
-0.0347254,0.28241,0.202443,-0.49387,-0.473537,0.436633,-0.0742009,0.147873,-0.12082
-0.0441658,0.272913,0.210726,-0.442095,-0.24006,0.372079,-0.112024,0.113867,-0.103379
-0.048057,0.263778,0.216284,-0.454528,-0.0236461,0.203592,-0.139124,0.072055,-0.04704
-0.0484304,0.254194,0.218446,-0.49748,0.0185644,0.0596798,-0.122059,0.0446787,0.018123
-0.0486882,0.244308,0.218416,-0.474562,-0.0658998,0.00337302,-0.0862602,0.0303525,0.0562675
-0.0506931,0.236462,0.218258,-0.296755,-0.116292,0.0291358,-0.0490052,0.0225028,0.0526807
-0.0529544,0.232384,0.218899,-0.12387,-0.0767517,0.0446347,-0.0484077,0.0132572,0.0935364
-0.0526641,0.230351,0.21902,-0.111177,0.133551,-0.0468242,-0.0718891,-0.0177592,0.159965
-0.0468561,0.226999,0.216198,-0.249322,0.366481,-0.215906,-0.0918444,-0.052503,0.245311
-0.0372577,0.221274,0.209997,-0.325806,0.427881,-0.355938,-0.0780543,-0.0718631,0.29945
-0.0280175,0.215588,0.201949,-0.251842,0.297307,-0.400727,-0.0412077,-0.0715545,0.327099
-0.022036,0.212178,0.193747,-0.109719,0.143763,-0.391418,-0.0193992,-0.0675779,0.346905
-0.0184682,0.210946,0.185546,-0.0551977,0.0340535,-0.42191,-0.0183497,-0.0803182,0.390005
-0.0171294,0.209176,0.17604,-0.150235,-0.0831792,-0.507425,-0.0212697,-0.0948974,0.412904
-0.0171294,0.209176,0.17604,-0.150235,-0.0831792,-0.507425,-0.0212697,-0.0948974,0.412904
-0.0168215,0.20526,0.164922,-0.261207,-0.122835,-0.571471,-0.00742765,-0.0985925,0.390872
-0.0181659,0.198999,0.152759,-0.387534,-0.266414,-0.608991,0.00646912,-0.0850416,0.354645
-0.0215528,0.190675,0.14019,-0.453914,-0.284238,-0.603554,0.0244565,-0.0915149,0.255376
-0.0238878,0.181862,0.128116,-0.461458,-0.172658,-0.570937,0.0393913,-0.0895396,0.15376
-0.0246707,0.171682,0.116424,-0.623973,-0.137604,-0.56252,0.0293867,-0.0915805,0.110502
-0.025671,0.156674,0.104247,-0.916158,-0.172671,-0.606345,-0.0139376,-0.113269,-0.0120854
-0.0289401,0.136296,0.0912477,-1.13421,-0.389674,-0.612405,-0.0375401,-0.110997,-0.215484
-0.0381959,0.114505,0.0791168,-1.01311,-0.641479,-0.498578,-0.00399458,-0.110797,-0.478663
-0.0487624,0.100019,0.0704802,-0.425542,-0.420209,-0.291199,0.0543588,-0.117494,-0.71933
-0.0503066,0.0987333,0.066966,0.243179,0.253767,-0.0523077,0.0162118,-0.0798329,-0.748195
-0.0408727,0.106792,0.0685625,0.495253,0.609807,0.161327,-0.00652116,-0.0977718,-0.508297
-0.0303836,0.116071,0.0735109,0.418429,0.435908,0.272569,-0.00727051,-0.179569,-0.273026
-0.026217,0.122475,0.0784787,0.233673,0.0355795,0.165267,-0.0549912,-0.254357,-0.174671
-0.028614,0.125557,0.0793201,0.0886928,-0.230365,-0.0981059,-0.103222,-0.306352,-0.188835
-0.0332892,0.126652,0.0745735,0.0230295,-0.24866,-0.369961,-0.101383,-0.291488,-0.236632
-0.0344349,0.127459,0.0652748,0.0296912,0.0477869,-0.53013,-0.0254521,-0.262718,-0.251086
-0.0284976,0.128662,0.0548837,0.0663771,0.403176,-0.47892,0.063094,-0.215611,-0.20395
-0.0171585,0.130827,0.0473049,0.138175,0.60002,-0.268529,0.125074,-0.185067,-0.11944
-0.00478835,0.134675,0.0438766,0.247007,0.554774,-0.0916207,0.136947,-0.172998,-0.0322596
0.00429844,0.141132,0.0431452,0.41403,0.354171,0.0154215,0.14351,-0.150092,0.0244415
0.0102727,0.151408,0.0445708,0.602887,0.283481,0.138651,0.174232,-0.110354,0.0740025
0.0154363,0.16442,0.0487863,0.673799,0.313665,0.304382,0.210114,-0.0536352,0.141196
0.0213965,0.177739,0.0567749,0.638191,0.417632,0.518229,0.246047,-0.00744572,0.186627
0.0272912,0.190128,0.0699079,0.571772,0.379672,0.820569,0.293761,0.0201918,0.228563
0.0293206,0.201628,0.0893225,0.539753,0.199325,1.11014,0.319971,0.0284661,0.243954
0.0263811,0.212999,0.114104,0.529147,0.0301858,1.35249,0.309957,0.0457271,0.239986
0.0191861,0.223784,0.143604,0.485779,-0.101563,1.54954,0.290971,0.0638547,0.231767
0.00926256,0.233425,0.176452,0.437536,-0.161397,1.67084,0.274985,0.073489,0.213118
-0.00299796,0.242176,0.211866,0.43632,-0.215641,1.77905,0.275081,0.0862668,0.199848
-0.016382,0.250716,0.249601,0.457791,-0.193922,1.88846,0.269318,0.130422,0.19825
-0.0299937,0.259241,0.290273,0.493392,-0.149701,2.04381,0.263148,0.180297,0.226404
-0.04404,0.268291,0.334466,0.576614,-0.101628,2.1963,0.240403,0.224435,0.268283
-0.0586198,0.278233,0.381559,0.628703,-0.11027,2.27712,0.194776,0.253401,0.330634
-0.0752046,0.286547,0.429169,0.476541,-0.230773,2.22988,0.13161,0.253879,0.380297
-0.0946689,0.289339,0.474818,0.147221,-0.45753,2.11461,0.113853,0.230143,0.386331
-0.118759,0.284799,0.516939,-0.147649,-0.749858,1.96693,0.129805,0.202275,0.285463
-0.145754,0.275782,0.555472,-0.236132,-0.842919,1.8455,0.145198,0.216696,0.0874775
-0.17115,0.26584,0.591756,-0.180364,-0.698279,1.78309,0.168422,0.235193,-0.093918
-0.19116,0.25699,0.626752,-0.0751279,-0.388144,1.70584,0.164913,0.233907,-0.214551
-0.20284,0.250291,0.659604,0.0294895,0.0595006,1.54844,0.126769,0.24059,-0.271802
-0.204842,0.244876,0.689504,0.00556626,0.446799,1.42196,0.120059,0.243764,-0.228476
-0.200216,0.238217,0.717207,-0.119504,0.667204,1.35601,0.125821,0.236062,-0.15309
-0.191209,0.229943,0.742886,-0.190435,0.823575,1.25061,0.0934303,0.21544,-0.125487
-0.178804,0.221564,0.765802,-0.235288,0.911937,1.10489,0.0668006,0.18521,-0.0815479
-0.16485,0.21204,0.785488,-0.400166,0.902081,0.95915,0.047422,0.160711,-0.0200552
-0.150517,0.199129,0.801725,-0.63314,0.87401,0.814108,0.0394424,0.120179,0.00225264
-0.135428,0.182313,0.814447,-0.85995,0.884722,0.669952,0.0330759,0.0851434,-0.0220375
-0.119744,0.161316,0.82442,-1.11445,0.827871,0.587096,0.0146049,0.0763276,-0.0540017
-0.106284,0.13521,0.833145,-1.38076,0.631964,0.577311,0.00451481,0.0452289,-0.117593
-0.0969724,0.105202,0.841653,-1.5105,0.399969,0.56871,-0.0160195,-0.00929606,-0.240868
-0.0969724,0.105202,0.841653,-1.5105,0.399969,0.56871,-0.0160195,-0.00929606,-0.240868
-0.091917,0.0740433,0.849965,-1.5087,0.18292,0.565441,-0.0439162,-0.0440969,-0.386817
-0.0899338,0.0440789,0.858896,-1.38571,0.102815,0.601662,-0.0702478,-0.0757017,-0.53014
-0.0877967,0.0175813,0.868855,-1.1649,0.161182,0.625226,-0.0920325,-0.10832,-0.627785
-0.0827954,-0.00408267,0.879691,-0.908174,0.353063,0.647251,-0.120074,-0.140801,-0.642106
-0.0747725,-0.0206846,0.891493,-0.660312,0.39806,0.665385,-0.152578,-0.162681,-0.570039
-0.0673555,-0.0318473,0.903919,-0.356396,0.317094,0.654701,-0.165426,-0.176221,-0.478726
-0.0608186,-0.0360156,0.916782,0.0279387,0.306894,0.660178,-0.160358,-0.173612,-0.404657
-0.053601,-0.0324824,0.930345,0.379816,0.383261,0.673277,-0.152508,-0.146918,-0.299265
-0.0450195,-0.0237201,0.944427,0.544503,0.41702,0.706512,-0.166541,-0.10375,-0.167447
-0.0369247,-0.0122865,0.959787,0.669107,0.34051,0.780565,-0.186689,-0.0724364,-0.0737703
-0.0327195,0.00203991,0.975857,0.8229,0.0332299,0.762714,-0.224809,-0.0502978,-0.00651872
-0.0363949,0.019451,0.990952,0.970497,-0.371609,0.684538,-0.245358,-0.0308432,0.0376925
-0.0468327,0.0396561,1.00455,1.11566,-0.595738,0.591395,-0.245503,0.00419947,0.0615337
-0.0591043,0.0625699,1.01652,1.22965,-0.544471,0.483151,-0.225576,0.0452866,0.0999381
-0.0690049,0.0868217,1.02668,1.24679,-0.349416,0.381487,-0.181813,0.0740478,0.190472
-0.073841,0.110379,1.03488,1.14971,-0.0614307,0.261976,-0.147256,0.0889907,0.302836
-0.0734427,0.131198,1.03993,0.964025,0.148888,0.0766128,-0.13662,0.0882348,0.414423
-0.0697749,0.148128,1.04041,0.738748,0.188072,-0.150224,-0.125366,0.069233,0.504617
-0.0662616,0.161115,1.03614,0.542173,0.0932087,-0.352095,-0.0803201,0.0624729,0.542119
-0.0638726,0.170499,1.02818,0.337165,0.00799605,-0.471769,-0.0150535,0.0833555,0.552186
-0.0633238,0.175488,1.01908,0.108837,-0.101011,-0.431839,0.0653918,0.110822,0.524065
-0.0646706,0.17635,1.01154,-0.0584244,-0.181652,-0.309867,0.12031,0.119316,0.445689
-0.0697302,0.174488,1.00655,-0.150309,-0.443749,-0.164015,0.140347,0.125112,0.354981
-0.0821247,0.171493,1.00427,-0.14902,-0.838818,-0.0437005,0.145572,0.111999,0.23909
-0.101009,0.16987,1.00382,-0.017567,-1.01374,-0.00180588,0.133779,0.099138,0.0818405
-0.12058,0.170293,1.00349,0.0230219,-0.917412,-0.0449792,0.111239,0.0925516,-0.0211172
-0.136069,0.169951,1.00188,-0.100535,-0.642136,-0.105948,0.0849278,0.07749,-0.0820496
-0.144914,0.166813,0.998715,-0.266274,-0.302831,-0.151333,0.0596548,0.0671331,-0.124315
-0.147575,0.160837,0.994442,-0.372539,-0.0526791,-0.179915,0.0396128,0.0524939,-0.152191
-0.145457,0.154363,0.989704,-0.320715,0.19452,-0.183061,0.0278642,0.0240811,-0.173005
-0.138351,0.14975,0.985439,-0.201254,0.436422,-0.167029,0.012694,0.00801654,-0.138377
-0.127624,0.14695,0.981892,-0.14137,0.575531,-0.137727,0.00801644,-0.0152756,-0.0382931
-0.115101,0.144524,0.97923,-0.138317,0.627835,-0.096068,0.012346,-0.0498413,0.0677894
-0.102558,0.141683,0.977372,-0.163313,0.58598,-0.0521227,0.00793833,-0.0805309,0.13822
-0.0919028,0.138466,0.976301,-0.165627,0.45849,-0.0211479,-4.73857e-05,-0.114432,0.169431
-0.0842643,0.135451,0.975834,-0.134692,0.295056,0.000616781,0.00127084,-0.147479,0.158361
-0.0800314,0.133509,0.975873,-0.0647058,0.145555,0.0169993,0.0111955,-0.172948,0.118071
-0.0775966,0.132794,0.976582,-0.0136639,0.123448,0.0622826,0.0420004,-0.182843,0.0534751
-0.0746557,0.132761,0.978418,0.0127177,0.20771,0.119692,0.0582286,-0.187392,-0.00518256
-0.0698639,0.132968,0.981578,0.0263635,0.311427,0.189268,0.0839155,-0.197121,-0.0538629
-0.0629152,0.133586,0.985988,0.060169,0.455197,0.250214,0.11697,-0.217931,-0.106329
-0.0539027,0.13469,0.992005,0.0699325,0.467241,0.348103,0.147276,-0.21441,-0.110151
-0.0491175,0.135491,1.00015,0.0484201,0.0588967,0.446475,0.14783,-0.214441,-0.122527
-0.0554279,0.135789,1.0093,0.0344296,-0.540878,0.439848,0.110111,-0.220265,-0.225876
-0.0693519,0.136843,1.01731,0.14723,-0.624349,0.343805,0.060134,-0.1974,-0.410747
-0.0775081,0.142244,1.02402,0.472326,0.00728837,0.29734,0.0547826,-0.124516,-0.52035
-0.0683335,0.155199,1.03171,0.85241,1.02165,0.388614,0.113739,-0.0352279,-0.416577
-0.0415914,0.173253,1.04243,0.967216,1.76367,0.583268,0.156802,0.0299923,-0.107742
-0.00616305,0.191216,1.05727,0.841918,1.97281,0.846119,0.163704,0.0590715,0.192037
0.027234,0.206119,1.07742,0.622482,1.706,1.13946,0.202655,0.0314452,0.376953
0.027234,0.206119,1.07742,0.622482,1.706,1.13946,0.202655,0.0314452,0.376953
0.0498648,0.217376,1.10243,0.420452,1.05144,1.34172,0.208287,-0.0176842,0.434726
0.0561607,0.226076,1.13049,0.310651,0.188498,1.42599,0.204986,-0.0480314,0.401179
0.0457284,0.23257,1.15912,0.174596,-0.521736,1.40043,0.182889,-0.0385484,0.321807
0.0244873,0.234505,1.18789,-0.100607,-0.905861,1.42197,0.175633,0.000702903,0.214754
-0.00181444,0.230199,1.21748,-0.342021,-1.0074,1.45985,0.183987,0.0261143,0.0489674
-0.0275671,0.222975,1.24725,-0.283521,-0.856386,1.4599,0.197978,0.0308549,-0.171474
-0.0463564,0.219557,1.27724,0.07527,-0.320246,1.50909,0.221543,0.071847,-0.337173
-0.053728,0.223503,1.31026,0.470874,0.278984,1.73037,0.250151,0.141721,-0.340474
-0.0539775,0.233311,1.34906,0.673541,0.501737,1.98877,0.259978,0.178984,-0.1697
-0.055111,0.244693,1.39207,0.663205,0.396504,2.10507,0.23165,0.146037,-0.0105094
-0.0597662,0.254104,1.43556,0.510579,0.199371,2.0458,0.166959,0.114614,0.0605211
-0.0685919,0.260049,1.47685,0.3497,-0.0312348,1.90072,0.130519,0.0831928,0.0520262
-0.0803802,0.263356,1.51421,0.259987,-0.147541,1.68225,0.0994978,0.0753706,-0.0215282
-0.091534,0.265058,1.54698,0.163311,-0.111716,1.47361,0.0909911,0.076571,-0.085197
-0.100884,0.263626,1.5754,-0.0536474,-0.0920116,1.28658,0.106327,0.0717552,-0.116224
-0.108914,0.258096,1.5998,-0.233497,-0.0786742,1.12906,0.109325,0.0752933,-0.188891
-0.115756,0.250343,1.62058,-0.304285,-0.0965138,0.958837,0.0765429,0.0947367,-0.284818
-0.122325,0.242129,1.63739,-0.317932,-0.132149,0.76113,0.0540534,0.0856101,-0.381777
-0.127403,0.234431,1.6498,-0.286915,-0.0671752,0.532179,0.0482046,0.0820518,-0.467091
-0.128814,0.228696,1.65824,-0.16612,0.153843,0.378918,0.0469732,0.112069,-0.534122
-0.123385,0.226078,1.66514,-0.00806537,0.564526,0.342738,0.0479341,0.156759,-0.526523
-0.110258,0.226086,1.67275,0.0748398,0.884728,0.399355,0.0296284,0.184096,-0.405085
-0.0935415,0.226666,1.6813,0.0620143,0.940952,0.407992,-0.0224943,0.156417,-0.247521
-0.0770968,0.227062,1.68861,0.0407143,0.865602,0.280498,-0.105941,0.120898,-0.153242
-0.0615726,0.227531,1.69269,0.047494,0.79311,0.115347,-0.16721,0.105075,-0.105135
-0.0461383,0.228858,1.69382,0.099881,0.791669,-0.000858518,-0.219729,0.130949,-0.0710099
-0.0300579,0.231705,1.69317,0.177715,0.789976,-0.0747893,-0.268907,0.172066,-0.00911218
-0.0151419,0.235432,1.69086,0.177095,0.634786,-0.163333,-0.313981,0.198885,0.0826539
-0.00374618,0.237867,1.68625,0.0510101,0.396088,-0.29447,-0.35137,0.211796,0.15926
0.00369712,0.237118,1.67879,-0.121105,0.188999,-0.427488,-0.358254,0.213433,0.198621
0.00873602,0.23369,1.6692,-0.191854,0.126784,-0.501431,-0.335449,0.215242,0.186496
0.0145997,0.23004,1.65876,-0.153104,0.235665,-0.509461,-0.308297,0.219731,0.193448
0.0231162,0.227094,1.64867,-0.136106,0.377186,-0.487633,-0.287581,0.198383,0.255116
0.0334844,0.223681,1.63875,-0.183863,0.415656,-0.492458,-0.265387,0.147037,0.334633
0.0425921,0.218959,1.62847,-0.249301,0.233894,-0.540974,-0.248624,0.0991865,0.388416
0.047051,0.213168,1.61681,-0.26299,-0.0163895,-0.627279,-0.205164,0.0480284,0.392727
0.047651,0.207758,1.60337,-0.222762,-0.206944,-0.724657,-0.186822,0.0313548,0.388518
0.044102,0.202826,1.58753,-0.195752,-0.468919,-0.847052,-0.150759,0.0243141,0.379565
0.0369957,0.198539,1.56996,-0.180282,-0.579252,-0.876819,-0.0757658,0.0189076,0.347178
0.0282663,0.193472,1.55234,-0.303487,-0.642061,-0.880534,-0.0663858,0.040625,0.343377
0.0172305,0.185218,1.53417,-0.467028,-0.819991,-0.927781,-0.0332772,0.00412214,0.284356
0.00349767,0.175623,1.51532,-0.453314,-0.85806,-0.930635,0.0415847,-0.0369024,0.124123
-0.00920801,0.167068,1.49689,-0.419936,-0.720066,-0.884676,0.0769965,-0.0341474,0.0206264
-0.0186343,0.158707,1.47955,-0.461995,-0.510649,-0.818362,0.116467,-0.0634248,-0.0339639
-0.0247879,0.148925,1.46339,-0.564703,-0.350254,-0.763571,0.172933,-0.116151,-0.0820361
-0.0277459,0.136526,1.44802,-0.730223,-0.170225,-0.729316,0.2,-0.144888,-0.13609
-0.0286931,0.120414,1.43342,-0.926867,-0.164064,-0.6819,0.205315,-0.164545,-0.205297
-0.0325359,0.101167,1.41944,-1.00732,-0.390452,-0.646113,0.219803,-0.202763,-0.347803
-0.0411539,0.0832997,1.40676,-0.781105,-0.55383,-0.5448,0.255508,-0.202746,-0.552392
-0.0498499,0.0724404,1.39715,-0.348384,-0.315253,-0.349375,0.285706,-0.159145,-0.694307
-0.050804,0.0688413,1.39278,-0.0852807,0.181205,-0.0559954,0.293093,-0.116363,-0.673379
-0.0425168,0.0678918,1.39483,-0.0127651,0.640196,0.259765,0.276033,-0.112367,-0.569398
-0.0286618,0.0680647,1.40234,0.0651429,0.745823,0.466433,0.23225,-0.119824,-0.446802
-0.0154008,0.0703399,1.41285,0.196834,0.656616,0.571545,0.183071,-0.124756,-0.355206
-0.00257466,0.0762126,1.42523,0.415961,0.762702,0.666144,0.149113,-0.107531,-0.287727
0.0135282,0.0869272,1.43966,0.637234,0.961218,0.79068,0.139859,-0.0592089,-0.156821
0.0315159,0.100865,1.45696,0.698855,0.961884,0.977872,0.16294,-0.0207808,0.0313649
0.0460415,0.115003,1.478,0.618405,0.680624,1.17416,0.157846,-0.00396327,0.167741
0.0517017,0.127254,1.50263,0.491405,0.173312,1.32734,0.145379,-0.00288059,0.229068
0.0476633,0.137941,1.52938,0.462748,-0.160457,1.36615,0.0859097,0.012351,0.189953
0.0400947,0.148874,1.55605,0.531381,-0.185032,1.32616,0.0265367,0.0560242,0.125671
0.0341307,0.161789,1.58217,0.682182,0.0289257,1.31729,0.0136847,0.0983854,0.106254
0.0336535,0.177942,1.60842,0.836676,0.354329,1.3354,0.0102496,0.156344,0.170741
0.0376851,0.195706,1.63519,0.819,0.524463,1.36756,0.00614907,0.199205,0.306111
0.0427565,0.211696,1.66283,0.668272,0.508313,1.41314,0.00261369,0.217443,0.410819
0.0443148,0.224988,1.69183,0.551588,0.24122,1.48545,0.0139603,0.229336,0.445336
0.0381116,0.236888,1.72249,0.524251,-0.159921,1.55035,0.0366463,0.245329,0.41198
0.0245023,0.248097,1.75393,0.487109,-0.395466,1.52585,0.0105215,0.256607,0.326177
0.00872512,0.256887,1.78407,0.317575,-0.416609,1.4027,-0.00212165,0.242719,0.243668
-0.00654026,0.260466,1.81119,0.0322701,-0.401616,1.23164,0.00407648,0.243843,0.154177
-0.0194521,0.258358,1.83519,-0.194373,-0.25092,1.11135,0.0225131,0.252273,0.0182484
-0.0279105,0.252667,1.85724,-0.32201,-0.0496242,1.04396,0.0352758,0.253284,-0.0920494
-0.0325865,0.244334,1.87778,-0.464601,0.0686934,0.978654,0.0344053,0.225568,-0.137028
-0.035803,0.232971,1.89643,-0.612053,0.0421482,0.869381,0.0196,0.182499,-0.162877
-0.0385694,0.218938,1.91222,-0.743053,0.0335098,0.720003,-0.00819809,0.149826,-0.207153
-0.0409746,0.20208,1.92436,-0.898608,-0.0144587,0.535088,-0.0175792,0.107812,-0.247306
-0.0409746,0.20208,1.92436,-0.898608,-0.0144587,0.535088,-0.0175792,0.107812,-0.247306
-0.042488,0.18264,1.93264,-1.00341,0.0418573,0.370846,0.00539175,0.0607923,-0.312716
-0.0416311,0.161974,1.938,-1.03692,0.132154,0.260694,0.0239844,0.0476346,-0.359357
-0.0396055,0.141555,1.94217,-0.96749,0.114364,0.258499,0.0534355,0.0308224,-0.389425
-0.0384161,0.124275,1.94744,-0.716792,0.0758868,0.324137,0.0324036,0.03077,-0.428809
-0.0377866,0.113047,1.95355,-0.398955,0.0688797,0.29978,-0.0465395,0.0229928,-0.418698
-0.0359138,0.106774,1.95742,-0.248506,0.170879,0.0863621,-0.13451,-0.0175741,-0.339222
-0.0310513,0.102093,1.95606,-0.232735,0.315106,-0.208405,-0.182082,-0.0346349,-0.240885
-0.0215968,0.0980828,1.94932,-0.176744,0.580607,-0.435201,-0.175637,-0.0193076,-0.177356
-0.00669622,0.0957558,1.93952,-0.0636037,0.799208,-0.522179,-0.185214,0.0341929,-0.102656
0.0102904,0.0958243,1.92903,0.0726805,0.761627,-0.518677,-0.219075,0.075765,0.000837564
0.0238825,0.0985499,1.91868,0.221194,0.474163,-0.521659,-0.261145,0.085863,0.0925204
0.0309758,0.103988,1.90728,0.34679,0.127105,-0.619313,-0.313732,0.0850477,0.158672
0.0323234,0.111086,1.8929,0.402451,-0.117819,-0.800202,-0.344481,0.0790433,0.213044
0.0315024,0.11871,1.87461,0.410764,-0.139921,-0.993025,-0.347331,0.0926437,0.260322
0.0325063,0.125651,1.8526,0.351734,-0.0115007,-1.17524,-0.33655,0.115479,0.319107
0.037435,0.131028,1.827,0.270548,0.162649,-1.34766,-0.315685,0.118065,0.379756
0.0450457,0.134192,1.79831,0.160216,0.198391,-1.48841,-0.288461,0.112977,0.440825
0.0520796,0.134356,1.76709,0.00975327,0.0530705,-1.61282,-0.255017,0.104869,0.480962
0.0547112,0.131614,1.73354,-0.089476,-0.239888,-1.73711,-0.218548,0.0970089,0.472534
0.0518107,0.127718,1.69762,-0.10165,-0.493712,-1.8473,-0.170186,0.0962281,0.404129
0.0452995,0.123902,1.66029,-0.104048,-0.601105,-1.86273,-0.0940855,0.110692,0.328688
0.037662,0.119789,1.62389,-0.165557,-0.608376,-1.7728,-0.046325,0.127834,0.267887
0.0294172,0.114374,1.58929,-0.268016,-0.635,-1.69821,-0.00343349,0.0934344,0.20994
0.0194706,0.106833,1.55564,-0.412205,-0.739643,-1.68708,0.0119983,0.0444499,0.133393
0.00783515,0.0965132,1.52168,-0.577673,-0.750254,-1.72147,0.00663611,0.00799982,0.0209199
-0.00327081,0.0830903,1.48664,-0.761025,-0.676321,-1.78304,0.023752,-0.0228708,-0.0825569
-0.0122498,0.066762,1.45047,-0.899038,-0.470047,-1.80878,0.0782622,-0.0434256,-0.205016
-0.016779,0.0484077,1.41459,-0.989939,-0.195364,-1.74206,0.141865,-0.0526855,-0.300369
-0.0172873,0.0286938,1.38104,-1.03718,-0.0138503,-1.5718,0.216666,-0.0658689,-0.369473
-0.0174152,0.0091088,1.3521,-0.9509,-0.101153,-1.28519,0.280078,-0.0925149,-0.432078
-0.0222856,-0.00697257,1.3293,-0.685565,-0.405756,-0.972021,0.3066,-0.125991,-0.511228
-0.0334789,-0.0168866,1.31263,-0.362016,-0.652339,-0.678486,0.316808,-0.162546,-0.588655
-0.0462087,-0.0210727,1.30133,-0.119542,-0.529489,-0.451493,0.313104,-0.200408,-0.614281
-0.0517204,-0.0212139,1.29402,0.0732321,0.0578242,-0.276387,0.281346,-0.211352,-0.605734
-0.043109,-0.0174439,1.29068,0.283444,0.769164,-0.0724022,0.255659,-0.191042,-0.482008
-0.0241922,-0.0103694,1.29122,0.410864,1.05051,0.0966557,0.234851,-0.188973,-0.243755
-0.00444085,-0.00181037,1.2948,0.436999,0.852329,0.250603,0.233002,-0.205302,-0.0437127
0.00742262,0.00652744,1.30148,0.401744,0.317477,0.421308,0.24186,-0.208408,0.0519684
0.00920681,0.0150799,1.31174,0.474173,-0.0666197,0.617943,0.240626,-0.172192,0.00785482
0.00653984,0.0265571,1.32576,0.67568,-0.108312,0.794662,0.203332,-0.098507,-0.0586778
0.00649487,0.0420795,1.34329,0.857504,0.199583,0.978113,0.179866,-0.0511642,-0.0627807
0.013091,0.0598271,1.36418,0.867522,0.537275,1.12283,0.161432,-0.0220873,0.0271476
0.0230252,0.0758976,1.38745,0.691271,0.567754,1.23153,0.139793,-0.0187645,0.145615
0.0307607,0.0888705,1.41256,0.569373,0.394635,1.30821,0.108007,-0.0188056,0.178169
0.0339965,0.101494,1.43883,0.641595,0.207656,1.35173,0.0672439,0.00605937,0.134111
0.0347102,0.116795,1.46572,0.798426,0.175947,1.37839,0.046603,0.0361773,0.120488
0.0352296,0.134469,1.49282,0.855216,0.232724,1.38563,0.0439683,0.0704046,0.171037
0.0367378,0.151685,1.52052,0.752433,0.295616,1.42302,0.0579151,0.0891685,0.252911
0.0379632,0.166294,1.5489,0.610691,0.279755,1.43196,0.0570213,0.0967416,0.288427
0.0385125,0.178311,1.57701,0.489176,0.259748,1.38348,0.0570934,0.0846397,0.297975
0.0383278,0.188094,1.60406,0.396737,0.217014,1.31722,0.0646217,0.079092,0.293897
0.0375579,0.196429,1.62983,0.343293,0.208181,1.25015,0.0838089,0.0838861,0.265189
0.0368025,0.203491,1.65479,0.260332,0.202503,1.23835,0.101386,0.105959,0.244039
0.034844,0.207997,1.68008,0.0954828,0.0983739,1.26459,0.122103,0.128864,0.237969
0.034844,0.207997,1.68008,0.0954828,0.0983739,1.26459,0.122103,0.128864,0.237969
0.0295517,0.209367,1.70609,-0.0218757,-0.0856647,1.28627,0.138334,0.128648,0.173231
0.0214703,0.209583,1.73195,-0.00285074,-0.14843,1.24458,0.141156,0.107191,0.0396447
0.0141365,0.210506,1.7567,0.0354889,-0.0519979,1.18402,0.153107,0.102402,-0.049394
0.00932099,0.210821,1.78016,-0.0519891,0.0362362,1.11141,0.157252,0.094425,-0.0795713
0.00460755,0.208544,1.80178,-0.189724,-0.0726257,1.00308,0.150583,0.0805556,-0.124536
-0.00210395,0.203773,1.82107,-0.289765,-0.203719,0.893231,0.155014,0.0770607,-0.209794
-0.0105252,0.196836,1.83792,-0.4035,-0.293395,0.768917,0.156348,0.0823926,-0.30272
-0.0185351,0.187626,1.85218,-0.485908,-0.188808,0.648863,0.160787,0.0721927,-0.413196
-0.0209898,0.177761,1.86399,-0.46185,0.177081,0.545319,0.149533,0.0779186,-0.497359
-0.0161249,0.1693,1.87457,-0.358538,0.462194,0.537279,0.163202,0.0900314,-0.499121
-0.00790529,0.163335,1.88629,-0.220724,0.514401,0.642776,0.200625,0.0906498,-0.428242
-0.00041358,0.160435,1.90065,-0.0527985,0.488961,0.776509,0.190426,0.0841554,-0.356333
0.00755923,0.16144,1.91722,0.136931,0.588885,0.843364,0.114167,0.0863536,-0.28833
0.0179073,0.16519,1.93394,0.190877,0.704821,0.805461,0.0210794,0.0843772,-0.169777
0.0298321,0.168793,1.94894,0.126138,0.72647,0.669872,-0.0364534,0.0706261,-0.0584583
0.0416598,0.170746,1.96082,0.0327497,0.644444,0.521139,-0.0595969,0.0518904,-0.0057531
0.051479,0.171743,1.9705,0.0420679,0.512898,0.454292,-0.0532475,0.0637372,-0.0185345
0.0591351,0.1741,1.9799,0.147773,0.418306,0.500785,-0.0666759,0.128209,-0.0482109
0.0645373,0.178847,1.99105,0.254025,0.317719,0.634914,-0.0999782,0.200814,-0.0382017
0.0675048,0.185717,2.00489,0.347753,0.248817,0.766085,-0.146738,0.243993,-0.0172371
0.0696048,0.194903,2.02028,0.464411,0.259234,0.788941,-0.204676,0.233558,0.0259473
0.0718589,0.205814,2.03501,0.529091,0.262578,0.731252,-0.242859,0.218433,0.106023
0.0747266,0.218023,2.04827,0.595625,0.311185,0.663044,-0.258498,0.203666,0.200226
0.0787407,0.231224,2.06029,0.623911,0.347277,0.609346,-0.264295,0.190991,0.322467
0.0830316,0.244022,2.07076,0.56242,0.312642,0.504815,-0.276829,0.166351,0.437719
0.0861574,0.254419,2.07837,0.395607,0.18303,0.31014,-0.285857,0.131215,0.526689
0.0875972,0.260033,2.08158,0.130691,0.0363038,0.044849,-0.283107,0.0901656,0.567886
0.0867957,0.259811,2.07939,-0.1194,-0.178637,-0.263598,-0.259833,0.0533913,0.52852
0.0834238,0.255626,2.07162,-0.209209,-0.331297,-0.49146,-0.164573,0.0356273,0.411391
0.0790584,0.250673,2.06133,-0.207403,-0.347484,-0.521532,-0.0579531,0.0629825,0.297415
0.0749547,0.245425,2.05163,-0.260388,-0.312975,-0.447198,-0.00150418,0.0697199,0.229838
0.0706731,0.23891,2.04413,-0.331164,-0.301582,-0.328541,0.0366159,0.0287732,0.166666
0.065976,0.232036,2.03855,-0.301164,-0.293259,-0.281833,0.0319385,-0.0146238,0.0756972
0.0620611,0.226036,2.03292,-0.285625,-0.230307,-0.308843,0.0200769,-0.0408984,0.0162196
0.0592332,0.219035,2.02656,-0.386209,-0.179889,-0.354166,0.0204781,-0.0689056,-0.00517285
0.0578203,0.20972,2.01952,-0.498406,-0.12191,-0.379787,0.0297817,-0.0800987,-0.0298929
0.0571833,0.19906,2.0127,-0.509057,-0.0720486,-0.332129,0.0519933,-0.0687929,-0.0760215
0.0571065,0.189454,2.00773,-0.412273,-0.0390456,-0.205474,0.0754764,-0.0576338,-0.107598
0.0569719,0.182386,2.00571,-0.282805,-0.0158567,-0.0289194,0.0869324,-0.0589191,-0.101144
0.0563297,0.177979,2.00723,-0.177545,-0.0291483,0.14555,0.0794313,-0.0702427,-0.0466392
0.0544509,0.175118,2.01155,-0.143502,-0.0927643,0.248429,0.0450106,-0.0928503,0.023957
0.0509806,0.172507,2.01699,-0.143841,-0.155286,0.260332,-0.00729457,-0.119791,0.0670075
0.0466411,0.169928,2.02181,-0.141225,-0.206309,0.198732,-0.0355005,-0.139116,0.090238
0.0416457,0.167291,2.02544,-0.13791,-0.21497,0.154439,-0.0237033,-0.15226,0.0896615
0.0370395,0.164865,2.02871,-0.1125,-0.196888,0.164412,-0.000213087,-0.151997,0.0775914
0.0329866,0.163494,2.03236,-0.0290292,-0.142884,0.19473,0.0107483,-0.154357,0.0538312
0.0296675,0.164386,2.03673,0.104558,-0.116416,0.239064,0.0324127,-0.170475,0.0436867
0.026779,0.16757,2.04186,0.185901,-0.106555,0.279041,0.0581939,-0.18978,0.0647563
0.0234311,0.171521,2.04774,0.185727,-0.130162,0.307129,0.0749372,-0.214802,0.0767612
0.0190935,0.174948,2.05393,0.148326,-0.205283,0.309673,0.0915353,-0.229522,0.0475443
0.0135319,0.177962,2.06036,0.147553,-0.235248,0.332832,0.103793,-0.219354,-0.020507
0.00793755,0.180972,2.06737,0.149668,-0.171621,0.362871,0.107304,-0.20211,-0.0960888
0.00520846,0.183895,2.07471,0.128805,0.0411334,0.349349,0.12142,-0.225617,-0.1537
0.0066201,0.185346,2.08108,-0.0150594,0.168753,0.281402,0.126733,-0.232279,-0.174391
0.0066201,0.185346,2.08108,-0.0150594,0.168753,0.281402,0.126733,-0.232279,-0.174391
0.00710638,0.182798,2.08595,-0.249052,-0.0687125,0.200323,0.123704,-0.219327,-0.213814
0.00266493,0.176701,2.08987,-0.326453,-0.2915,0.20233,0.155427,-0.202696,-0.356105
-0.00392036,0.171897,2.09504,-0.107989,-0.210494,0.32385,0.172381,-0.11914,-0.503454
-0.00423288,0.17401,2.10364,0.337903,0.416464,0.544827,0.195651,-0.0390101,-0.534519
0.00960726,0.184056,2.11737,0.604692,1.17922,0.799527,0.186936,0.035619,-0.329436
0.0345773,0.196347,2.13544,0.55928,1.605,1.00674,0.176894,0.0421338,-0.0164436
0.0628394,0.2074,2.15742,0.444534,1.60277,1.20245,0.160838,0.0448139,0.219787
0.0860677,0.217431,2.18345,0.37382,1.22413,1.42569,0.153993,0.0653311,0.362397
0.0976363,0.227585,2.21439,0.368284,0.594253,1.68276,0.18764,0.054422,0.418824
0.0947902,0.238272,2.25046,0.347752,-0.028432,1.92909,0.207556,0.0682531,0.40812
0.0794386,0.248037,2.2922,0.259274,-0.460596,2.21155,0.233361,0.0896479,0.328537
0.0555996,0.254659,2.34028,0.0717756,-0.737953,2.48844,0.232507,0.106362,0.218192
0.0254633,0.256833,2.39356,-0.0552836,-0.904322,2.66596,0.198107,0.095617,0.0347875
-0.00736017,0.256129,2.44887,-0.0428131,-0.979336,2.6781,0.147089,0.0720936,-0.190912
-0.039802,0.256181,2.50286,0.203845,-0.850569,2.5454,0.116328,0.031144,-0.425476
-0.0652811,0.261584,2.55377,0.598985,-0.354665,2.3576,0.104077,0.0349783,-0.554631
-0.078776,0.273516,2.60217,0.903651,0.264774,2.24107,0.114908,0.083717,-0.484495
-0.0823902,0.289042,2.64945,0.992481,0.649684,2.17309,0.125148,0.118713,-0.262843
-0.0813948,0.305343,2.69554,0.989982,0.771191,2.08971,0.111739,0.135979,-0.060156
-0.0797006,0.321244,2.73949,0.92936,0.726862,1.95169,0.0731782,0.141782,0.0921022
-0.0801649,0.335807,2.77977,0.831736,0.519016,1.7302,0.0544117,0.115389,0.189755
-0.0844182,0.348513,2.81463,0.706912,0.225045,1.44552,0.0647378,0.0892886,0.230831
-0.0919084,0.35917,2.84338,0.600149,0.0623349,1.16439,0.103012,0.0862847,0.216707
-0.0985497,0.367801,2.86693,0.459713,0.132207,0.97036,0.140257,0.125678,0.177097
-0.102138,0.373298,2.88719,0.281109,0.238629,0.870311,0.187529,0.144519,0.127586
-0.103742,0.375933,2.90545,0.175052,0.251981,0.802546,0.225994,0.130293,0.0515684
-0.10458,0.377987,2.92222,0.19834,0.297713,0.735752,0.23409,0.117677,-0.0504152
-0.103474,0.380575,2.93759,0.189688,0.378451,0.657919,0.192594,0.133631,-0.116157
-0.100242,0.38228,2.95095,0.100909,0.443392,0.564819,0.136857,0.135778,-0.153196
-0.0949793,0.382508,2.96223,0.0245878,0.503152,0.483264,0.109574,0.13512,-0.193836
-0.0882825,0.381335,2.97212,-0.0664974,0.531799,0.456487,0.0984057,0.129469,-0.216712
-0.0813664,0.377705,2.98155,-0.23383,0.501462,0.441608,0.056398,0.110549,-0.226089
-0.0749113,0.370472,2.98977,-0.429975,0.455738,0.370055,-0.00442447,0.0689642,-0.257836
-0.0678709,0.359743,2.99594,-0.592479,0.482482,0.289903,-0.0485525,0.0276933,-0.314993
-0.0585584,0.34668,3.00025,-0.674176,0.627646,0.19959,-0.103145,0.00150537,-0.369547
-0.0445175,0.332564,3.00239,-0.734786,0.838361,0.0728624,-0.145832,-0.0220123,-0.366519
-0.0272229,0.317051,3.00207,-0.821101,0.864073,-0.0386813,-0.162843,-0.0236529,-0.304221
-0.00965971,0.300718,3.00047,-0.790228,0.858821,-0.0686252,-0.136358,-0.0251747,-0.265135
0.00838889,0.286855,2.99947,-0.584087,0.928023,-0.0145878,-0.107869,-0.00482804,-0.223513
0.0267191,0.277514,3.00048,-0.361377,0.917238,0.102463,-0.0987071,0.0246369,-0.129424
0.0424959,0.272082,3.00429,-0.214361,0.727996,0.251042,-0.0834313,0.0459282,-0.0105106
0.0510775,0.268612,3.01154,-0.176238,0.292636,0.43499,-0.0804287,0.0789773,0.0817792
0.049508,0.265805,3.02263,-0.151488,-0.112276,0.618951,-0.094335,0.105078,0.0899656
0.0420737,0.264312,3.03716,-0.0485132,-0.213178,0.764767,-0.126065,0.119461,0.0464342
0.0335905,0.26529,3.05361,0.0876404,-0.208446,0.809846,-0.174102,0.114866,0.0394996
0.0256818,0.269121,3.06981,0.258624,-0.1298,0.762291,-0.195226,0.0942226,0.0572388
0.0203941,0.275931,3.08438,0.363015,-0.0455224,0.651362,-0.207182,0.0894751,0.142651
0.0155056,0.283055,3.09617,0.309756,-0.110129,0.493215,-0.19894,0.0762112,0.260995
0.010201,0.287859,3.10456,0.146821,-0.218558,0.312378,-0.18042,0.0662336,0.340533
0.00254076,0.288612,3.10891,-0.0631445,-0.399755,0.109606,-0.140696,0.0443421,0.370548
-0.00591345,0.286057,3.10925,-0.180372,-0.424575,-0.0740755,-0.108066,0.0364438,0.327527
-0.0129052,0.282116,3.10619,-0.207009,-0.339493,-0.209009,-0.084819,0.0578383,0.265168
-0.0167312,0.27805,3.10065,-0.210952,-0.200609,-0.320688,-0.046229,0.057852,0.224016
-0.0167312,0.27805,3.10065,-0.210952,-0.200609,-0.320688,-0.046229,0.057852,0.224016
-0.0174941,0.273648,3.09281,-0.244543,-0.104627,-0.421375,-0.0148807,0.0513431,0.203992
-0.016852,0.268794,3.08353,-0.251887,-0.0807549,-0.451477,0.0185807,0.0499469,0.174694
-0.016394,0.264461,3.07448,-0.197461,-0.114295,-0.404204,0.0505218,0.0542057,0.142396
-0.0174597,0.261127,3.06673,-0.161493,-0.208375,-0.348886,0.0549681,0.0372983,0.122157
-0.0214439,0.258052,3.05965,-0.156775,-0.377443,-0.336077,0.0653032,-0.00342318,0.0953439
-0.0274106,0.255436,3.05228,-0.124161,-0.38032,-0.379195,0.0565472,-0.0241425,0.0146446
-0.031981,0.253178,3.04369,-0.150381,-0.277536,-0.451532,0.0338096,-0.0190644,-0.0440315
-0.0338427,0.249129,3.03344,-0.305276,-0.173936,-0.528805,0.0429997,-0.041602,-0.0603276
-0.0332279,0.241939,3.02184,-0.4432,-0.0384811,-0.56771,0.0721864,-0.057762,-0.102369
-0.0299826,0.233079,3.01037,-0.463667,0.0901533,-0.497002,0.112923,-0.0456061,-0.170605
-0.0249893,0.224739,3.00156,-0.388671,0.19869,-0.338255,0.147588,-0.04346,-0.233277
-0.0194173,0.218299,2.9961,-0.270222,0.233568,-0.183196,0.170536,-0.078902,-0.266821
-0.014518,0.213352,2.99366,-0.254944,0.191233,-0.0487411,0.177915,-0.101419,-0.253306
-0.0112596,0.207386,2.99402,-0.355058,0.133206,0.0886389,0.166429,-0.11528,-0.251592
-0.0104821,0.199065,2.9969,-0.47526,-0.00298361,0.199341,0.129171,-0.119508,-0.29208
-0.0121862,0.18878,3.00126,-0.541982,-0.0644857,0.224321,0.0801457,-0.138755,-0.373033
-0.0129251,0.177747,3.00515,-0.536224,0.10144,0.168592,0.0375319,-0.132055,-0.446761
-0.00637252,0.168918,3.00803,-0.310682,0.66631,0.13789,0.036601,-0.0827838,-0.492219
0.0128604,0.165627,3.0115,-0.0403004,1.27204,0.227825,0.0766256,-0.0140686,-0.349429
0.0400801,0.166671,3.01843,0.117662,1.51418,0.477246,0.129538,0.0382609,-0.0934612
0.0675984,0.171226,3.03086,0.2776,1.39881,0.779131,0.139694,0.0569878,0.108401
0.0883104,0.179843,3.04874,0.436847,0.947884,1.03917,0.116337,0.056225,0.250134
0.0964225,0.191559,3.07152,0.504344,0.251647,1.29418,0.110062,0.0217346,0.335288
0.0891905,0.203666,3.09794,0.442079,-0.42283,1.36,0.052295,0.00101274,0.342474
0.0714268,0.21301,3.12373,0.280894,-0.768179,1.22058,-0.0426688,-0.00959009,0.266319
0.0516495,0.218685,-3.13747,0.167762,-0.683316,0.959177,-0.0904361,-0.0153998,0.139326
0.0367157,0.222788,-3.12085,0.20398,-0.413381,0.689039,-0.0901826,0.000734359,0.0246006
0.0306229,0.228924,-3.10916,0.375986,0.0814021,0.495965,-0.0435828,0.0303969,-0.0298567
0.0346895,0.237806,-3.09995,0.458469,0.511603,0.45476,0.0125886,0.0793208,0.0503283
0.0443489,0.246962,-3.09029,0.412148,0.624876,0.527962,0.0484414,0.103468,0.18799
0.0518362,0.255266,-3.07928,0.376308,0.365057,0.565354,0.0421969,0.0929109,0.280994
0.0527167,0.26319,-3.06849,0.359041,0.00544122,0.505508,0.024226,0.0663143,0.316305
0.0484165,0.270039,-3.05975,0.269285,-0.173288,0.363269,0.00123845,0.0526121,0.311096
0.0425209,0.273771,-3.05418,0.0732025,-0.265848,0.193196,-0.000611238,0.0551849,0.295887
0.0359492,0.273774,-3.05151,-0.0656202,-0.296776,0.080125,0.0457957,0.0563474,0.224251
0.030706,0.272199,-3.05025,-0.0910878,-0.185716,0.0467111,0.0803383,0.0734154,0.145467
0.0282148,0.270396,-3.04904,-0.0969378,-0.0235766,0.0761744,0.093511,0.0988235,0.109919
0.0285535,0.26786,-3.04697,-0.174774,0.0902977,0.11405,0.107341,0.0930983,0.118777
0.030432,0.263247,-3.04431,-0.298978,0.170791,0.120223,0.10354,0.0783625,0.12471
0.0335844,0.255914,-3.04177,-0.437216,0.197743,0.103635,0.0919661,0.0656298,0.10475
0.0370423,0.246483,-3.0391,-0.507377,0.196281,0.128848,0.107671,0.0529092,0.0529736
0.0392256,0.236227,-3.03559,-0.528935,0.112121,0.18191,0.121999,0.0510681,-0.00299197
0.0391685,0.225502,-3.03059,-0.576332,-0.0253356,0.259759,0.12704,0.0313656,-0.0570257
0.0349548,0.213287,-3.02427,-0.676643,-0.25645,0.314444,0.131539,0.00702277,-0.115084
0.0265599,0.199009,-3.01671,-0.769493,-0.421767,0.386315,0.132125,-0.00348938,-0.206759
0.015951,0.183711,-3.00747,-0.770013,-0.446527,0.492793,0.12389,-0.0117172,-0.325699
0.00513876,0.169292,-2.99619,-0.673059,-0.435421,0.605991,0.117097,-0.0279109,-0.44276
-0.00502832,0.157563,-2.98268,-0.504922,-0.35289,0.747023,0.101127,-0.0370275,-0.533625
-0.0136541,0.148787,-2.96601,-0.359084,-0.261861,0.904646,0.0712726,-0.0488586,-0.566744
-0.020047,0.143164,-2.94717,-0.162948,-0.100271,0.953159,-0.00446662,-0.0731597,-0.590584
-0.0229872,0.14178,-2.92873,0.0561766,0.0646106,0.856582,-0.0784417,-0.100577,-0.559414
-0.022514,0.143918,-2.91349,0.176609,0.179854,0.649327,-0.123381,-0.111293,-0.456832
-0.0198651,0.147877,-2.90261,0.242136,0.243927,0.422271,-0.141532,-0.0930024,-0.362076
-0.0154878,0.15357,-2.8958,0.35154,0.304182,0.253847,-0.14418,-0.0490287,-0.293961
-0.0154878,0.15357,-2.8958,0.35154,0.304182,0.253847,-0.14418,-0.0490287,-0.293961
-0.0092813,0.162223,-2.89167,0.524307,0.386396,0.153532,-0.148266,0.0280595,-0.226444
-0.00124354,0.174521,-2.88912,0.706515,0.458596,0.0968874,-0.156414,0.0948859,-0.135079
0.00749072,0.189989,-2.88753,0.831398,0.418875,0.0626749,-0.181306,0.147237,-0.0152136
0.0140083,0.207212,-2.8872,0.877291,0.222562,-0.0227406,-0.213919,0.179777,0.103222
0.0160117,0.224259,-2.88935,0.817635,-0.0760156,-0.168996,-0.245316,0.201403,0.19717
0.0130093,0.239328,-2.89485,0.697048,-0.329813,-0.350209,-0.265736,0.224904,0.250682
0.0071888,0.251867,-2.90393,0.575443,-0.446428,-0.521946,-0.252522,0.244727,0.264597
0.00241519,0.262386,-2.91639,0.485913,-0.316508,-0.675579,-0.225889,0.264116,0.272793
0.00259083,0.270869,-2.93154,0.362581,-0.0550169,-0.783098,-0.193857,0.279471,0.318165
0.0083429,0.276506,-2.94858,0.207046,0.141011,-0.847283,-0.160553,0.277482,0.384208
0.0164542,0.278811,-2.96604,0.0535514,0.157821,-0.821122,-0.11352,0.265416,0.433345
0.0218899,0.278627,-2.9828,-0.0297884,-0.105977,-0.795096,-0.0753958,0.234172,0.456718
0.0207854,0.277302,-2.99893,-0.0589631,-0.451479,-0.756561,-0.0371865,0.201145,0.445904
0.0133898,0.275511,-3.01382,-0.105365,-0.658281,-0.692471,-0.0219482,0.191305,0.406399
0.0036249,0.271863,-3.02802,-0.266431,-0.689847,-0.697933,-0.022962,0.162509,0.37829
-0.0058544,0.264306,-3.04313,-0.496266,-0.659877,-0.76791,-0.0183205,0.117273,0.349932
-0.014582,0.25181,-3.06032,-0.78495,-0.678073,-0.885636,-0.00583688,0.0817383,0.302665
-0.0239789,0.233474,-3.07986,-1.06612,-0.734227,-0.966552,0.0311691,0.0466664,0.203805
-0.034199,0.211688,-3.10016,-1.14118,-0.730522,-0.945009,0.0809908,0.0319494,0.0369966
-0.044496,0.190481,-3.11911,-1.03505,-0.67642,-0.814591,0.120184,0.0275121,-0.111008
-0.0539385,0.172729,-3.13462,-0.804317,-0.533792,-0.62562,0.15243,-0.00629009,-0.219805
-0.0601662,0.159889,3.13687,-0.564468,-0.277218,-0.45836,0.170493,-0.0511183,-0.259491
-0.0623745,0.150139,3.12816,-0.489206,-0.0890968,-0.355995,0.166949,-0.104545,-0.221119
-0.0617378,0.140893,3.12082,-0.485733,0.0368587,-0.322902,0.138419,-0.160308,-0.18779
-0.0598914,0.131883,3.11396,-0.443087,0.0161454,-0.303768,0.136454,-0.199828,-0.186487
-0.0597157,0.124711,3.10772,-0.303373,-0.0700326,-0.264532,0.144803,-0.229036,-0.226652
-0.0606455,0.120671,3.10271,-0.139656,-0.0567479,-0.212628,0.132647,-0.237273,-0.278689
-0.0601232,0.119111,3.09854,-0.0576761,0.0618498,-0.194451,0.107864,-0.247458,-0.302245
-0.0575816,0.118358,3.09456,-0.0395855,0.145045,-0.202326,0.0981322,-0.260244,-0.315817
-0.0532353,0.118298,3.09016,0.0228641,0.237973,-0.237551,0.085309,-0.274128,-0.364963
-0.0467299,0.120035,3.08505,0.131751,0.352221,-0.276868,0.0586753,-0.260761,-0.408746
-0.0381824,0.124068,3.07934,0.248523,0.422906,-0.294883,0.0626447,-0.237181,-0.428011
-0.0286642,0.129781,3.07405,0.292244,0.44882,-0.239273,0.0803602,-0.190743,-0.410657
-0.0196087,0.135425,3.07059,0.272048,0.423382,-0.113642,0.0852085,-0.144118,-0.379143
-0.0103166,0.141198,3.06955,0.314359,0.507189,-0.0079629,0.063238,-0.111361,-0.351084
0.0010418,0.148581,3.07007,0.439059,0.643881,0.047555,0.0393597,-0.0891935,-0.287523
0.014898,0.159137,3.07127,0.618237,0.746415,0.074922,0.0588229,-0.0808986,-0.163243
0.0294088,0.173001,3.07321,0.759339,0.736543,0.172698,0.100795,-0.0484108,5.79953e-05
0.0433214,0.189661,3.07846,0.888724,0.746073,0.424539,0.136485,0.00261298,0.120902
0.0551281,0.208979,3.08922,0.986496,0.632929,0.732401,0.143959,0.0436275,0.229626
0.0616507,0.229814,3.10585,0.984089,0.35368,0.994016,0.116156,0.0508247,0.317379
0.0596363,0.249428,3.12658,0.833122,-0.0701847,1.12043,0.0809458,0.0267421,0.370377
0.0491025,0.265152,-3.13467,0.637886,-0.390045,1.06825,0.0283924,-0.00666672,0.31649
0.0347146,0.27743,-3.11485,0.527221,-0.49471,0.879426,-0.0242405,-0.0134233,0.219865
0.0212033,0.287835,-3.09966,0.480987,-0.403244,0.614899,-0.0346117,-0.0130434,0.139034
0.0126355,0.297152,-3.08903,0.439049,-0.139595,0.43614,0.0133702,0.0145544,0.0988591
0.0103989,0.305623,-3.08097,0.406049,0.144856,0.369601,0.0493483,0.0714868,0.107752
0.0124786,0.313817,-3.07252,0.414445,0.304124,0.461052,0.101275,0.108939,0.145867
0.0158988,0.322754,-3.06148,0.473593,0.36792,0.610029,0.114256,0.143016,0.185154
0.0177635,0.332841,-3.04722,0.50729,0.260341,0.754093,0.115033,0.156029,0.227989
0.0158016,0.343152,-3.03055,0.496226,0.104632,0.828708,0.102018,0.138611,0.245964
0.0113921,0.352993,-3.01298,0.468693,0.0846965,0.836158,0.0660928,0.132009,0.217548
0.00812805,0.362226,-2.99554,0.439334,0.213348,0.808157,0.0332015,0.13283,0.180715
0.00725235,0.370395,-2.97858,0.357072,0.280725,0.795214,0.0350486,0.126128,0.171158
0.00725235,0.370395,-2.97858,0.357072,0.280725,0.795214,0.0350486,0.126128,0.171158
0.00632219,0.376629,-2.9615,0.256494,0.234519,0.804542,0.0458635,0.107244,0.149389
0.00364574,0.380773,-2.94434,0.144626,0.131066,0.795368,0.0239286,0.102885,0.09692
-0.00151059,0.382171,-2.92769,-0.0212903,-0.0471681,0.748022,0.0140664,0.0853386,0.0306391
-0.00940231,0.380301,-2.9127,-0.147288,-0.142275,0.648435,-0.00488041,0.0534667,-0.0896004
-0.0158049,0.376431,-2.90026,-0.249378,-0.0553085,0.511015,-0.0469784,0.0387315,-0.208531
-0.0202414,0.369089,-2.89101,-0.497023,-0.0729297,0.370618,-0.0781536,0.0461149,-0.25801
-0.0251918,0.356073,-2.88498,-0.783365,-0.230525,0.222829,-0.0830804,0.021509,-0.32955
-0.0324271,0.33897,-2.88221,-0.881537,-0.380315,0.0966294,-0.0708638,-0.00474897,-0.465998
-0.0409113,0.322812,-2.88133,-0.692878,-0.425589,0.0683749,-0.0531927,0.0045974,-0.609942
-0.0484858,0.312573,-2.87942,-0.310503,-0.214343,0.175612,-0.064752,0.0480168,-0.671658
-0.0500754,0.309918,-2.87439,0.0390932,0.210666,0.297457,-0.128569,0.0901524,-0.583274
-0.0453202,0.311974,-2.86831,0.154997,0.403413,0.244418,-0.192966,0.0679705,-0.351433
-0.0381464,0.31444,-2.86536,0.0872243,0.383674,0.00373462,-0.232394,0.0135379,-0.14866
-0.0304017,0.315209,-2.86844,-0.00231805,0.302141,-0.292322,-0.240495,0.00400048,-0.0375466
-0.0217557,0.315571,-2.8768,0.0408243,0.31233,-0.484256,-0.216228,0.0405228,0.00436473
-0.0117726,0.317874,-2.88764,0.183681,0.347937,-0.529242,-0.190752,0.105364,0.0456156
-0.00194416,0.323104,-2.89855,0.328786,0.26727,-0.509996,-0.178775,0.14347,0.118419
0.00465395,0.330514,-2.90916,0.396344,0.0321668,-0.502182,-0.175545,0.158545,0.202472
0.00538881,0.337866,-2.91995,0.32675,-0.325,-0.524074,-0.190311,0.165688,0.2751
0.00034685,0.34303,-2.93153,0.199943,-0.52043,-0.576334,-0.196845,0.155312,0.280653
-0.00522294,0.346064,-2.94453,0.113332,-0.448195,-0.649915,-0.197556,0.156184,0.246442
-0.00763592,0.348066,-2.95879,0.08751,-0.27999,-0.690931,-0.172418,0.157624,0.236607
-0.00719662,0.350005,-2.9737,0.0972328,-0.22556,-0.720009,-0.141128,0.14141,0.264893
-0.0070737,0.352187,-2.98939,0.107409,-0.32069,-0.759509,-0.0990734,0.109905,0.302397
-0.00929775,0.354098,-3.00613,0.0579581,-0.472587,-0.820054,-0.060371,0.0894967,0.333152
-0.0128981,0.354274,-3.02416,-0.0717087,-0.490873,-0.8777,-0.0401951,0.0884719,0.338898
-0.015315,0.351394,-3.04335,-0.23915,-0.417193,-0.92035,-0.0164441,0.0873868,0.316347
-0.0153121,0.345703,-3.06337,-0.350014,-0.246536,-0.966218,0.00686783,0.0739202,0.26934
-0.0105827,0.338327,-3.08436,-0.411794,-0.000963207,-0.996639,0.019733,0.0573584,0.224752
-0.0036459,0.330136,-3.10496,-0.411104,-0.0370038,-0.935271,0.0795446,0.0417313,0.214638
-0.00066178,0.322654,-3.1234,-0.34006,-0.255928,-0.809919,0.13843,0.00972718,0.174685
-0.00276529,0.316542,-3.13875,-0.286303,-0.411899,-0.653676,0.178546,-0.0256774,0.11755
-0.00670338,0.310797,3.13231,-0.315248,-0.324932,-0.505717,0.194752,-0.0570518,0.0543485
-0.00874563,0.303313,3.12313,-0.451203,-0.157442,-0.370296,0.195877,-0.0795362,0.000519395
-0.00770032,0.292457,3.11638,-0.643225,0.0357129,-0.275684,0.178317,-0.108529,-0.060587
-0.00480145,0.278363,3.11111,-0.751072,0.094735,-0.238387,0.146539,-0.136595,-0.158378
-0.00204918,0.263417,3.1061,-0.740249,0.00239696,-0.241014,0.128703,-0.157084,-0.25645
-0.00284386,0.249456,3.10154,-0.641343,-0.168122,-0.190059,0.149927,-0.176005,-0.351315
-0.00488534,0.23884,3.09847,-0.416506,-0.0643049,-0.103138,0.150026,-0.171276,-0.454851
-0.00223349,0.233005,3.09733,-0.183047,0.33754,0.00036736,0.136649,-0.160302,-0.485506
0.00829929,0.23038,3.09831,-0.113179,0.698129,0.0783467,0.108467,-0.169876,-0.415126
0.0228687,0.227605,3.09969,-0.17845,0.741566,0.030139,0.0773934,-0.215822,-0.314818
0.0355864,0.222817,3.09903,-0.297459,0.488838,-0.110893,0.0563498,-0.232696,-0.26037
0.043504,0.216377,3.09614,-0.31449,0.282503,-0.177718,0.0933881,-0.211012,-0.29974
0.0495227,0.211169,3.09341,-0.166651,0.278615,-0.0896777,0.122984,-0.132316,-0.364629
0.0564139,0.210979,3.0939,0.164309,0.44273,0.15471,0.133404,-0.0474341,-0.350191
0.0662134,0.218351,3.0992,0.525101,0.651813,0.40806,0.113491,0.00841443,-0.218053
0.0777085,0.231492,3.10881,0.68213,0.657471,0.60995,0.0773183,0.0264421,0.0018363
0.0849279,0.24575,3.1209,0.623239,0.324717,0.652557,0.0194531,0.018736,0.181959
0.0838217,0.257369,3.13265,0.432871,-0.160099,0.567272,-0.0165434,-0.0106454,0.25862
0.0741854,0.265069,-3.14122,0.289688,-0.507239,0.39009,-0.0491289,-0.0123767,0.208331
0.0625593,0.271443,-3.13524,0.339957,-0.431877,0.239581,-0.0580016,0.035898,0.100295
0.0563689,0.2798,-3.13172,0.477376,-0.0794706,0.163098,-0.0354713,0.0754496,0.0752762
0.0576088,0.290295,-3.12951,0.545412,0.255899,0.0952191,-0.0204999,0.0944933,0.154782
0.0576088,0.290295,-3.12951,0.545412,0.255899,0.0952191,-0.0204999,0.0944933,0.154782
0.0658038,0.30085,-3.12941,0.494665,0.556221,-0.0152706,-0.0266395,0.105521,0.272552
0.0800726,0.309182,-3.13132,0.340886,0.79092,-0.0948363,-0.0251689,0.130573,0.36666
0.0966846,0.313963,-3.13343,0.163532,0.770141,-0.044502,0.0198487,0.138802,0.427998
0.110319,0.316484,-3.13343,0.115551,0.584925,0.0639959,0.0303975,0.152383,0.42286
0.119453,0.319844,-3.13182,0.212434,0.384889,0.121,0.0132937,0.155895,0.376037
0.124666,0.325191,-3.1295,0.273188,0.209106,0.164587,0.022112,0.141863,0.349965
0.126445,0.33067,-3.12653,0.217476,0.0765112,0.192276,0.0486619,0.125168,0.32629
0.126074,0.3343,-3.12214,0.0816742,0.0288804,0.282585,0.0835366,0.119886,0.287073
0.123545,0.334834,-3.11501,-0.109599,-0.0646899,0.384411,0.0807564,0.114776,0.233943
0.118739,0.332418,-3.10608,-0.22432,-0.106138,0.412437,0.0472651,0.0795037,0.132188
0.113409,0.328168,-3.09737,-0.296553,-0.152576,0.347795,0.0367177,0.0400222,0.0493025
0.107523,0.321965,-3.09021,-0.412515,-0.223119,0.273076,0.0558981,0.00325948,-0.0178765
0.0991897,0.31268,-3.08361,-0.578569,-0.410076,0.273222,0.0889562,-0.000648022,-0.0899076
0.0876747,0.300773,-3.07593,-0.658856,-0.490664,0.34744,0.102114,0.00112319,-0.2154
0.075802,0.288612,-3.06714,-0.604201,-0.424473,0.38678,0.075291,-0.0152892,-0.340332
0.0670433,0.278824,-3.05825,-0.426336,-0.177765,0.394778,0.0710313,-0.0467347,-0.425424
0.0645215,0.272755,-3.04962,-0.246031,0.155321,0.399966,0.0566813,-0.0539939,-0.42891
0.0673882,0.269124,-3.041,-0.204523,0.310158,0.414942,0.0631384,-0.0629554,-0.328177
0.0706279,0.264602,-3.03199,-0.325624,0.244508,0.421433,0.0804617,-0.0825298,-0.229455
0.073235,0.25732,-3.02303,-0.454835,0.275907,0.382274,0.0599158,-0.100307,-0.237207
0.0776525,0.248009,-3.01512,-0.52774,0.357024,0.317414,0.0511419,-0.107507,-0.268198
0.0823056,0.237581,-3.00767,-0.557757,0.23063,0.341745,0.0818398,-0.107711,-0.26223
0.0807134,0.228204,-2.99882,-0.426492,-0.212101,0.450207,0.115114,-0.0992562,-0.268172
0.0686383,0.22258,-2.98795,-0.220491,-0.752581,0.557329,0.103518,-0.0839712,-0.287372
0.0489113,0.220401,-2.97651,-0.0763296,-0.888592,0.522662,0.0523275,-0.0917737,-0.34509
0.031139,0.220612,-2.96699,0.0664288,-0.628532,0.410732,0.0256814,-0.0818928,-0.383566
0.0228279,0.223838,-2.95979,0.233439,-0.00983377,0.304939,0.0221161,-0.0590324,-0.369424
0.0273707,0.22964,-2.95403,0.327219,0.54245,0.303471,0.0100181,0.00739726,-0.258611
0.0380459,0.237102,-2.94666,0.401722,0.621864,0.452088,0.0044398,0.0633626,-0.10882
0.0459273,0.246988,-2.9362,0.562891,0.393646,0.589221,-0.0344471,0.0665825,-0.00780976
0.048122,0.260713,-2.92449,0.749028,0.141981,0.596564,-0.0943446,0.063022,0.0598602
0.0470005,0.277068,-2.91382,0.814758,0.0575958,0.497889,-0.145884,0.0657426,0.14128
0.0464202,0.293064,-2.90579,0.738997,0.124995,0.348831,-0.170371,0.0824508,0.221453
0.0483724,0.306945,-2.90074,0.63248,0.217365,0.209243,-0.159939,0.107553,0.289869
0.0525422,0.319131,-2.89767,0.586525,0.284816,0.160173,-0.127427,0.143256,0.333177
0.0586453,0.331227,-2.89496,0.624643,0.451931,0.157316,-0.107107,0.164589,0.322787
0.0695236,0.345766,-2.89259,0.94642,0.691253,0.171428,-0.113223,0.173466,0.311072
0.0765196,0.372556,-2.89176,1.4968,-0.14721,0.151508,-0.0502963,0.201507,0.433466
0.0687931,0.399608,-2.8895,1.09907,-0.362652,0.265154,-0.00143348,0.180424,0.599805
0.0603563,0.415126,-2.88425,0.428603,-0.283403,0.283746,-0.0313469,0.184082,0.600197
0.0551885,0.418048,-2.87921,-0.153591,0.00724157,0.196174,-0.0564985,0.144625,0.497086
0.0562844,0.41067,-2.87588,-0.54474,0.159101,0.0617434,-0.0504176,0.122078,0.385433
0.0570745,0.400341,-2.87468,-0.439101,-0.0581984,0.00640265,-0.0095337,0.0944906,0.22703
0.0520385,0.393492,-2.87421,-0.272231,-0.452176,0.00535173,-0.00354515,0.0850304,0.125863
0.0411919,0.38849,-2.87374,-0.253725,-0.545079,0.00319861,-0.0519513,0.0638653,0.0628043
0.0317531,0.382377,-2.87462,-0.369116,-0.419517,-0.113861,-0.0844934,0.0484506,0.0148522
0.0274651,0.373217,-2.8776,-0.539612,-0.0933127,-0.175954,-0.0577367,0.0212899,-0.0248651
0.030618,0.361072,-2.88062,-0.658344,0.288685,-0.123984,-0.0182632,0.0168365,-0.0541777
