attitude_roll,attitude_pitch,attitude_yaw,rotationRate_x,rotationRate_y,rotationRate_z,acceleration_x,acceleration_y,acceleration_z
0.126287,0.443332,-0.0284972,0.183196,-0.356767,-0.173601,-0.0410369,0.0723231,0.0294346
0.117155,0.447271,-0.0320815,0.23057,-0.68578,-0.105702,-0.0266077,0.0368154,0.0501593
0.103232,0.45092,-0.0353864,0.144297,-0.800775,-0.167368,-0.00807793,0.0200989,0.114249
0.0904403,0.451786,-0.0408069,-0.0164551,-0.680865,-0.311571,0.0234504,-0.00127789,0.169887
0.0824344,0.449098,-0.0489797,-0.178016,-0.456513,-0.421365,0.0420044,-0.0302483,0.173506
0.0797383,0.443692,-0.0583334,-0.286983,-0.227193,-0.456886,0.040745,-0.0341634,0.176671
0.0806356,0.436105,-0.0682702,-0.400492,-0.12911,-0.487372,0.0610392,-0.00437614,0.160218
0.0820382,0.426067,-0.0779719,-0.525738,-0.136316,-0.456418,0.105235,-0.0228187,0.129368
0.0828518,0.413574,-0.0862234,-0.648916,-0.119425,-0.38865,0.145961,-0.0461286,0.114988
0.0835184,0.399048,-0.0925972,-0.740822,-0.0564724,-0.306085,0.161597,-0.0598844,0.100593
0.0841914,0.382764,-0.096538,-0.840047,-0.0312748,-0.178325,0.169262,-0.0778387,0.0680575
0.0840894,0.3653,-0.0970756,-0.873382,0.00744686,-0.017411,0.170056,-0.117914,0.033164
0.0836787,0.348248,-0.0946897,-0.822344,0.0242926,0.0939419,0.17432,-0.141094,-0.0013206
0.0827446,0.333322,-0.0901123,-0.682669,0.0320243,0.212804,0.16964,-0.165766,-0.0314018
0.0805511,0.321666,-0.0834593,-0.51581,-0.0567607,0.31482,0.162097,-0.182311,-0.060485
0.0754549,0.313985,-0.0751685,-0.299758,-0.180457,0.402514,0.145282,-0.195666,-0.080267
0.0678603,0.310556,-0.0656425,-0.118828,-0.284092,0.471135,0.123943,-0.184296,-0.0754182
0.0587831,0.309858,-0.0547457,-0.0292746,-0.263364,0.552237,0.0970943,-0.180214,-0.0623145
0.0510392,0.310134,-0.0421845,-0.0206017,-0.102253,0.638395,0.0785073,-0.165654,-0.034955
0.0473185,0.310248,-0.027322,-0.0392702,0.198664,0.785667,0.0649428,-0.149738,0.00398749
0.0488984,0.310105,-0.00823059,-0.0562517,0.516459,1.03553,0.0622782,-0.156038,0.0397862
0.0519714,0.309309,0.0160386,-0.163169,0.431027,1.23064,0.0459915,-0.165906,0.00318366
0.0491479,0.305637,0.0426404,-0.321071,0.132195,1.24433,0.00513542,-0.0997951,-0.0936844
0.0440495,0.299264,0.0682736,-0.416888,0.143582,1.14795,-0.0256901,-0.0551281,-0.0756771
0.0402113,0.291198,0.090921,-0.482194,0.0940405,0.952514,-0.0543467,-0.000315011,-0.129589
0.0356292,0.282118,0.108544,-0.475421,-0.0250555,0.67007,-0.0761752,0.0666905,-0.201778
0.0322452,0.273588,0.118891,-0.376724,-0.00662216,0.296859,-0.0832561,0.142746,-0.208454
0.0335326,0.269693,0.12245,-0.000191128,0.257842,0.0586565,-0.100689,0.175432,-0.123389
0.0411328,0.274031,0.122461,0.422351,0.468915,-0.00657793,-0.111532,0.209869,-0.0518594
0.0514022,0.286186,0.122555,0.751471,0.518153,0.0869564,-0.119343,0.199181,8.30293e-05
0.060095,0.302872,0.124518,0.848359,0.377434,0.183591,-0.0990427,0.16545,0.0201743
0.0648866,0.31892,0.127799,0.676661,0.20763,0.214639,-0.0785697,0.118503,0.0404414
0.0665134,0.329033,0.131169,0.271932,0.0456011,0.156659,-0.0616629,0.0779495,0.0528596
0.0645945,0.329806,0.133088,-0.196933,-0.17261,0.0300479,-0.0457661,0.0519935,0.0215095
0.0603029,0.32305,0.132952,-0.424271,-0.219924,-0.0787708,-0.0396318,0.0310376,0.0124659
0.0576691,0.314822,0.130972,-0.342059,-0.0828892,-0.143945,-0.0348764,0.0373996,0.0314701
0.0588611,0.310343,0.128028,-0.0755749,0.10186,-0.144944,-0.0300159,0.0333057,0.0497925
0.0627612,0.311441,0.125287,0.183945,0.184619,-0.109061,-0.0128583,0.000705183,0.061042
0.0670111,0.316299,0.12294,0.283692,0.129455,-0.0775448,0.00223292,-0.0239098,0.0817593
0.0679562,0.321642,0.12161,0.242668,-0.0696236,-0.00607362,0.00729473,-0.0629796,0.0674384
0.0654141,0.325563,0.122051,0.131877,-0.162975,0.0728759,0.00303814,-0.0879794,0.0999091
0.0603615,0.327186,0.124173,0.0290885,-0.257355,0.134211,-0.00173524,-0.0897225,0.0866138
0.0550189,0.327829,0.127362,0.0295065,-0.133476,0.161704,-0.0128017,-0.0833617,0.105803
0.0536385,0.329023,0.130871,0.0756202,0.112402,0.176456,-0.0225082,-0.0671252,0.114004
0.0570797,0.331643,0.135168,0.158381,0.353692,0.249476,-0.0233157,-0.0612132,0.102675
0.0636082,0.335565,0.141034,0.190682,0.463252,0.315697,-0.01551,-0.073987,0.0796745
0.0708668,0.339848,0.147835,0.179279,0.473459,0.342409,-0.0107274,-0.0872035,0.0610749
0.0778325,0.34371,0.154912,0.164958,0.447902,0.350649,-0.00878359,-0.102883,0.0462807
0.0839432,0.348271,0.162505,0.242956,0.413516,0.398412,-0.00514152,-0.112829,0.0113615
0.0887465,0.354794,0.170965,0.324034,0.345153,0.439631,0.000660785,-0.13153,-0.0303125
0.0914786,0.362035,0.179431,0.301043,0.210244,0.395563,0.00740498,-0.152368,-0.0594854
0.0915465,0.367572,0.186164,0.189115,0.0508934,0.279363,0.0120084,-0.140344,-0.0946004
0.0912571,0.37155,0.191228,0.185124,0.159401,0.251233,0.00973804,-0.137428,-0.0845016
0.0912571,0.37155,0.191228,0.185124,0.159401,0.251233,0.00973804,-0.137428,-0.0845016
0.0944596,0.37596,0.196823,0.177481,0.319519,0.304908,0.0200413,-0.165244,-0.0636303
0.0973397,0.378503,0.203244,-0.0112064,0.17363,0.292054,0.0341436,-0.143913,-0.1268
0.0969322,0.375975,0.208427,-0.289342,-0.0198161,0.142214,0.0488652,-0.113793,-0.151105
0.0944546,0.368615,0.210448,-0.425467,-0.147384,-0.00828606,0.0544467,-0.0544557,-0.156994
0.0910164,0.360832,0.210593,-0.309303,-0.150618,-0.0228879,0.037292,0.0235238,-0.155824
0.089738,0.357877,0.211826,0.0324655,0.106291,0.137152,0.020583,0.0824334,-0.0997799
0.0941996,0.363088,0.217117,0.422202,0.533149,0.407064,0.023278,0.0916126,0.00542825
0.105138,0.37454,0.228082,0.553147,0.917156,0.727722,0.0487543,0.0743559,0.100082
0.117597,0.386035,0.24621,0.348323,0.91829,1.04946,0.0941735,0.0319744,0.111066
0.123959,0.392179,0.270787,-0.0268709,0.642317,1.24544,0.140781,-0.00404263,0.079555
0.123929,0.391605,0.299605,-0.346222,0.474323,1.36458,0.159962,-0.0097,0.0714447
0.120568,0.385929,0.330779,-0.546057,0.371916,1.39326,0.166341,-0.000273943,0.0309449
0.116165,0.377907,0.361281,-0.552076,0.330465,1.2888,0.170885,0.0210148,-0.0140811
0.11266,0.371075,0.388181,-0.39924,0.286641,1.10968,0.15527,0.045433,-0.0490369
0.109751,0.367626,0.41097,-0.178756,0.24237,0.962456,0.141211,0.0458944,-0.0638408
0.106879,0.368213,0.430806,0.0233638,0.176217,0.883934,0.13723,0.0515538,-0.0511115
0.102847,0.372141,0.449323,0.166107,0.0770736,0.875309,0.127429,0.0541622,-0.0257487
0.0962986,0.378228,0.467641,0.25021,-0.0738951,0.864385,0.115617,0.0589865,4.23789e-05
0.0866218,0.385024,0.485014,0.265464,-0.232834,0.782876,0.10555,0.0593433,0.020162
0.0755389,0.391499,0.499878,0.253958,-0.298239,0.624597,0.0851654,0.0692876,0.052989
0.0652849,0.397089,0.510731,0.221892,-0.300286,0.40681,0.0548431,0.084505,0.0673665
0.0571467,0.401408,0.51675,0.170113,-0.283493,0.173218,0.0235505,0.101561,0.0746793
0.0515701,0.404317,0.518005,0.119448,-0.210741,-0.035511,-0.00822173,0.118504,0.0764591
0.0491225,0.406204,0.515485,0.0866922,-0.133616,-0.174918,-0.028353,0.12538,0.0815055
0.0493209,0.407557,0.510543,0.0707004,-0.0411661,-0.262259,-0.0350699,0.128041,0.082564
0.0517747,0.408462,0.504225,0.0429781,0.0247684,-0.308689,-0.0426571,0.113888,0.0797722
0.0557595,0.408451,0.496838,-0.0126502,0.0835375,-0.364326,-0.0467973,0.100527,0.075811
0.0613185,0.407109,0.488232,-0.0784173,0.117201,-0.430215,-0.0491611,0.0750027,0.0756013
0.0672834,0.404487,0.478257,-0.124083,0.0771318,-0.494869,-0.0424439,0.0522996,0.0594973
0.0726657,0.400809,0.467143,-0.17449,0.0195977,-0.542247,-0.0345601,0.0204121,0.046322
0.0773237,0.395838,0.455305,-0.230065,0.00760499,-0.566745,-0.0230251,-0.00109109,0.0147958
0.0839613,0.389977,0.444053,-0.270617,0.287532,-0.484027,-0.0303554,-0.00324076,0.0156234
0.0959811,0.38327,0.437253,-0.341531,0.589946,-0.16272,-0.0415937,0.0129325,-0.0157411
0.107261,0.376113,0.438833,-0.378473,0.584638,0.209308,0.00659864,-0.0649733,-0.104482
0.115611,0.369141,0.445196,-0.362744,0.43034,0.217484,0.047736,-0.0887701,-0.094142
0.119992,0.362683,0.447633,-0.306748,0.0900959,-0.0747296,0.037222,-0.0547617,-0.131391
0.120648,0.35588,0.443953,-0.342483,-0.140937,-0.344971,0.00428175,-0.0927619,-0.129975
0.118657,0.346807,0.435062,-0.462901,-0.360014,-0.58119,-0.00802898,-0.0697715,-0.132495
0.114399,0.334974,0.422577,-0.551514,-0.452769,-0.686535,-0.0049611,-0.0390838,-0.13666
0.10977,0.323607,0.409819,-0.394259,-0.402576,-0.604481,-0.00967084,0.0160474,-0.132548
0.105839,0.318448,0.399852,0.0138044,-0.294956,-0.357453,-0.00416929,0.0557234,-0.0994153
0.10231,0.32308,0.395237,0.464433,-0.22179,-0.0294879,-0.00158691,0.0659624,-0.0416207
0.0970994,0.335815,0.396287,0.748667,-0.285687,0.227903,-0.0074252,0.0622965,0.0124944
0.088414,0.35278,0.400689,0.861501,-0.449131,0.303838,-0.007269,0.056293,0.0597809
0.0759101,0.370062,0.404732,0.786197,-0.645341,0.185925,-0.00794399,0.0513096,0.0892117
0.0618694,0.383399,0.405387,0.491845,-0.703928,-0.0498787,-0.0203994,0.0584624,0.113887
0.0496276,0.387755,0.400356,-0.064639,-0.710381,-0.403616,-0.0216782,0.0709818,0.107909
0.0404051,0.380063,0.387768,-0.60455,-0.647921,-0.778876,-0.00752813,0.0902329,0.0329399
0.037817,0.36483,0.368892,-0.787263,-0.239445,-0.993734,4.42192e-06,0.12028,0.000853419
0.0462695,0.348698,0.34795,-0.701919,0.34968,-0.97876,0.0179472,0.131469,-0.00903285
0.0635809,0.33587,0.330167,-0.4657,0.721198,-0.725417,0.0397131,0.114289,-0.0169969
0.0635809,0.33587,0.330167,-0.4657,0.721198,-0.725417,0.0397131,0.114289,-0.0169969
0.0824235,0.328296,0.318844,-0.224818,0.732609,-0.397758,0.0533992,0.0724459,-0.0016278
0.0968828,0.324791,0.313181,-0.0883196,0.503219,-0.188093,0.0519723,0.0313756,0.0240074
0.10544,0.323155,0.310006,-0.0616497,0.271054,-0.15132,0.0288194,-0.00116622,0.0591679
0.110639,0.320567,0.306818,-0.18218,0.15761,-0.173701,0.00591367,-0.0362136,0.0984665
0.114661,0.314635,0.303829,-0.366039,0.174061,-0.161882,-0.0137308,-0.0533392,0.0990387
0.119571,0.305925,0.302111,-0.463704,0.263624,-0.0963521,-0.0363395,-0.0412928,0.0812665
0.125709,0.296215,0.302172,-0.483423,0.345909,-0.0163344,-0.0388177,-0.0403431,0.0474269
0.132391,0.287212,0.304084,-0.412236,0.358193,0.0811707,-0.0443826,-0.043793,0.0174634
0.138195,0.281013,0.307786,-0.240056,0.316194,0.183836,-0.0549445,-0.0442346,0.00528038
0.142027,0.278283,0.313026,-0.109432,0.201038,0.271432,-0.0571707,-0.0604998,0.000629306
0.143395,0.277816,0.319442,-0.0333229,0.1175,0.327636,-0.0630841,-0.0650688,0.0121199
0.143552,0.278568,0.326653,0.00374257,0.108077,0.363648,-0.0665303,-0.0814352,0.0292737
0.143766,0.279929,0.334204,0.026361,0.117329,0.363042,-0.0708453,-0.0930209,0.03989
0.143782,0.281767,0.341461,0.057612,0.0735054,0.350945,-0.0579548,-0.108055,0.0301675
0.142451,0.284367,0.348478,0.101541,-0.0201508,0.349392,-0.0548017,-0.119993,0.0177899
0.138919,0.287471,0.355263,0.096605,-0.145371,0.337776,-0.0429768,-0.125377,0.00175816
0.132714,0.290324,0.362172,0.105612,-0.275352,0.352777,-0.0340293,-0.129829,-0.0195433
0.124189,0.294162,0.36901,0.197504,-0.361983,0.331884,-0.0403628,-0.113886,-0.0506763
0.115307,0.299947,0.374768,0.311474,-0.327425,0.280545,-0.0448518,-0.106096,-0.0629701
0.108755,0.3074,0.37944,0.35078,-0.187591,0.231272,-0.0409373,-0.145889,-0.0531637
0.104333,0.313562,0.38215,0.184768,-0.207566,0.0730704,-0.0274261,-0.150032,-0.0667644
0.098598,0.314057,0.38191,-0.128543,-0.376994,-0.0793529,-0.0348924,-0.113948,-0.128711
0.0903898,0.309502,0.379672,-0.254503,-0.48772,-0.164232,-0.0480139,-0.0925566,-0.191921
0.0817083,0.305431,0.376255,-0.0880496,-0.474343,-0.18306,-0.0801288,-0.0605174,-0.22671
0.0731408,0.306412,0.372214,0.225793,-0.511236,-0.20194,-0.107575,-0.036022,-0.260202
0.0637914,0.313762,0.366479,0.528851,-0.605334,-0.304347,-0.127775,0.0110775,-0.253392
0.0528308,0.32588,0.357964,0.697674,-0.746243,-0.422381,-0.122583,0.048628,-0.208936
0.0405047,0.340174,0.347375,0.761685,-0.799504,-0.500008,-0.109493,0.0769978,-0.12758
0.0297908,0.355764,0.335457,0.834009,-0.632692,-0.566023,-0.0974097,0.106012,-0.0362713
0.0252961,0.373254,0.321845,0.936088,-0.282891,-0.648982,-0.0765457,0.147728,0.0538337
0.0289913,0.392164,0.306837,0.96557,0.0884238,-0.679253,-0.0438307,0.166781,0.128209
0.0399545,0.41034,0.291611,0.864948,0.388687,-0.642524,0.000603512,0.180171,0.193231
0.0544785,0.424897,0.277843,0.624027,0.45026,-0.528181,0.0570491,0.166469,0.219224
0.0658577,0.433971,0.267493,0.328256,0.207888,-0.352449,0.118635,0.1294,0.196322
0.0695,0.43727,0.261246,0.0308707,-0.10483,-0.191798,0.161486,0.105078,0.159553
0.0650596,0.433807,0.258738,-0.386231,-0.455865,-0.0674125,0.169661,0.102228,0.101971
0.0524705,0.421144,0.258642,-0.852378,-0.762106,-0.0175355,0.147952,0.143348,-0.0116383
0.0367672,0.401924,0.259634,-0.992397,-0.685605,0.0284108,0.106475,0.184296,-0.101964
0.0260946,0.383882,0.261388,-0.767746,-0.276179,0.0798144,0.075966,0.201854,-0.149194
0.0242839,0.37196,0.264622,-0.426823,0.2028,0.20238,0.0513993,0.193062,-0.151391
0.0296428,0.366359,0.271074,-0.178395,0.524324,0.377561,0.0242693,0.167606,-0.106934
0.0378115,0.363824,0.280661,-0.1282,0.593095,0.489713,0.0104025,0.12967,-0.043008
0.0450699,0.361675,0.291459,-0.129809,0.49486,0.484252,-0.00419128,0.0802358,0.0106497
0.0502413,0.359783,0.30106,-0.0924257,0.360339,0.388914,-0.0315323,0.0559588,0.0585411
0.053882,0.358875,0.308083,-0.0313365,0.260975,0.255345,-0.0591072,0.0401863,0.097867
0.0573961,0.358849,0.311734,0.00112376,0.220942,0.0809294,-0.0670926,0.0217445,0.13172
0.061522,0.358403,0.311435,-0.0593768,0.175317,-0.117042,-0.0602773,0.00756335,0.156915
0.0660778,0.355754,0.306842,-0.178511,0.113399,-0.32517,-0.0397394,-0.0044246,0.15682
0.0706431,0.350665,0.298385,-0.270096,0.0606215,-0.490265,-0.00864117,-0.019255,0.138798
0.0757041,0.343186,0.286877,-0.40047,0.0556564,-0.635834,0.00670507,-0.0196662,0.120692
0.0814631,0.332412,0.272908,-0.56045,0.0545612,-0.749453,0.0258189,-0.0256967,0.0824585
0.0877423,0.318507,0.257229,-0.685408,0.0765754,-0.832643,0.0370169,-0.0283731,0.0324916
0.0877423,0.318507,0.257229,-0.685408,0.0765754,-0.832643,0.0370169,-0.0283731,0.0324916
0.0944417,0.30258,0.240938,-0.734762,0.094496,-0.837621,0.0374394,-0.0329788,-0.0178685
0.101899,0.286895,0.225207,-0.648074,0.216536,-0.799915,0.0373834,-0.0410906,-0.0594894
0.111843,0.274079,0.210746,-0.462841,0.366807,-0.704871,0.0459067,-0.0651858,-0.0676317
0.123308,0.265488,0.198291,-0.251147,0.430969,-0.574406,0.0701406,-0.0894875,-0.0616798
0.134337,0.26067,0.18873,-0.13037,0.403746,-0.388958,0.0950174,-0.127358,-0.0225598
0.142352,0.257522,0.183235,-0.11541,0.229397,-0.173845,0.117903,-0.171615,-2.20537e-06
0.144527,0.255063,0.182145,-0.103449,-0.050247,0.0253866,0.122217,-0.209318,-0.00894809
0.140167,0.253977,0.184262,-0.0230234,-0.329392,0.148692,0.107983,-0.219219,-0.0340035
0.13052,0.255285,0.187785,0.108044,-0.507612,0.197645,0.0917651,-0.230419,-0.0721787
0.119325,0.259018,0.19134,0.189038,-0.504368,0.168265,0.0916854,-0.264453,-0.0801333
0.108417,0.26197,0.192634,0.0520453,-0.552251,-0.0366024,0.0911808,-0.239597,-0.131495
0.0988021,0.261136,0.189776,-0.0800827,-0.429343,-0.226669,0.0659577,-0.16777,-0.178843
0.095005,0.259562,0.184453,-0.00347085,-0.0694763,-0.275997,0.0799463,-0.146022,-0.191878
0.0978419,0.260432,0.17912,0.116538,0.161074,-0.217968,0.117126,-0.133646,-0.204404
0.10183,0.262305,0.175469,0.0761638,0.120055,-0.10169,0.132796,-0.0668646,-0.243004
0.103996,0.262907,0.175165,0.00461086,0.124086,0.100948,0.123116,0.0391091,-0.240705
0.107102,0.266126,0.180499,0.32487,0.337236,0.451421,0.107925,0.0796765,-0.146047
0.112485,0.279902,0.191777,0.911595,0.462246,0.754902,0.102692,0.0942397,-0.0573815
0.116928,0.305038,0.206649,1.3654,0.364993,0.923526,0.0863257,0.12879,0.0232807
0.117015,0.336375,0.223229,1.50732,0.167944,0.973231,0.0624933,0.164631,0.0871299
0.112731,0.368257,0.24,1.42803,-0.013196,0.940964,0.0633078,0.17217,0.149721
0.104893,0.396563,0.256492,1.19268,-0.146744,0.880411,0.069211,0.161611,0.176235
0.0946575,0.418752,0.272407,0.84427,-0.230344,0.774231,0.0646665,0.153813,0.170372
0.083967,0.432997,0.286387,0.456946,-0.251468,0.604759,0.0560128,0.15287,0.149189
0.0749915,0.439237,0.297081,0.0832284,-0.169534,0.404993,0.0456549,0.151689,0.117209
0.0703502,0.437697,0.304215,-0.285798,0.0144516,0.235759,0.0258576,0.167675,0.0849475
0.0711118,0.429084,0.308933,-0.581971,0.269164,0.145912,0.0143687,0.175117,0.0541896
0.0776871,0.416237,0.313212,-0.691412,0.549435,0.163079,0.0221266,0.156961,0.0488824
0.0887838,0.402872,0.319063,-0.66666,0.768951,0.278822,0.0489706,0.128588,0.0516153
0.101699,0.390958,0.328636,-0.594817,0.857573,0.497555,0.0764707,0.0995652,0.0709971
0.112736,0.380985,0.3439,-0.553002,0.790544,0.80007,0.0960845,0.058648,0.0922976
0.119047,0.372047,0.365624,-0.575677,0.61561,1.08608,0.0974281,0.0207649,0.109013
0.119679,0.362662,0.392408,-0.652909,0.401875,1.24838,0.0826476,-0.00523585,0.105438
0.115753,0.351799,0.421105,-0.728895,0.2158,1.25757,0.0647205,-0.0286277,0.0838395
0.109565,0.339666,0.448767,-0.74715,0.116101,1.16686,0.0390064,-0.0303228,0.0585808
0.103624,0.327416,0.473637,-0.711427,0.114712,1.03068,0.0226919,-0.020688,0.0458623
0.0996224,0.315704,0.495655,-0.659693,0.182053,0.928828,0.021928,-0.0114592,0.0432769
0.0979816,0.304865,0.516138,-0.606205,0.276727,0.906703,0.0315945,-0.00787961,0.0509357
0.097925,0.294628,0.53668,-0.613203,0.301532,0.942981,0.0435902,-0.00769654,0.0658513
0.0972197,0.283794,0.558183,-0.658235,0.231942,0.990549,0.0529036,-0.00189108,0.0566478
0.0951999,0.272637,0.580666,-0.648059,0.18393,1.04566,0.0544509,-0.00686628,0.0558866
0.0920546,0.261447,0.604126,-0.682508,0.102506,1.08604,0.0473381,-0.00391167,0.0483221
0.0870804,0.249456,0.628139,-0.703677,0.0246924,1.10514,0.0346028,-0.00451161,0.0198489
0.0819196,0.237677,0.652045,-0.64731,0.0467196,1.08924,0.0244305,-0.0169503,0.000519216
0.0782387,0.22728,0.675127,-0.570023,0.109351,1.05535,0.0152513,-0.0283184,-0.0162616
0.0758624,0.217997,0.697118,-0.522224,0.124301,0.998427,0.00861521,-0.0376166,-0.0384231
0.0742237,0.209346,0.717699,-0.475325,0.156769,0.932358,0.00331495,-0.0403641,-0.061727
0.0741596,0.201674,0.7369,-0.420578,0.226125,0.876135,-0.00398647,-0.0463025,-0.0719258
0.0755068,0.195095,0.75481,-0.355978,0.260858,0.818512,-0.00497326,-0.0450776,-0.0913155
0.0776948,0.190727,0.771563,-0.201642,0.262145,0.785776,-0.00542367,-0.0432157,-0.0885696
0.080089,0.189304,0.78782,-0.0751173,0.29715,0.796249,-0.00176143,-0.0412252,-0.0903487
0.0833536,0.190418,0.804771,0.0746639,0.318309,0.879999,0.00172856,-0.0427401,-0.0716702
0.0833536,0.190418,0.804771,0.0746639,0.318309,0.879999,0.00172856,-0.0427401,-0.0716702
0.085478,0.195188,0.823638,0.200364,0.262176,0.978261,0.012637,-0.0671731,-0.083514
0.0863987,0.200556,0.843015,0.146507,0.182047,0.928119,0.0414607,-0.0918469,-0.0854059
0.0847926,0.203765,0.860809,0.019861,0.0319251,0.825314,0.0228961,-0.0659681,-0.107932
0.0827132,0.204677,0.876875,-0.0403726,0.110564,0.746333,0.00902569,-0.0464133,-0.100866
0.0832168,0.205585,0.891643,0.0297332,0.227364,0.69812,0.016652,-0.039482,-0.101411
0.0855795,0.20844,0.905631,0.130817,0.285012,0.688477,0.0351647,-0.0249691,-0.0965452
0.0889099,0.212834,0.919479,0.173237,0.327858,0.690441,0.0466945,0.000873595,-0.0747035
0.0925408,0.217739,0.933335,0.183859,0.31786,0.694863,0.0636123,0.0181462,-0.0591767
0.0954896,0.222892,0.947375,0.193111,0.276669,0.71476,0.0778209,0.0298431,-0.0527403
0.0976696,0.228493,0.962042,0.226453,0.277541,0.761579,0.0781159,0.0537191,-0.0459071
0.100081,0.235228,0.977952,0.286708,0.331426,0.840081,0.0692958,0.0761124,-0.0296735
0.103462,0.243268,0.995449,0.335465,0.41416,0.921902,0.0566392,0.0991064,-0.0170711
0.107639,0.252545,1.01444,0.383469,0.454542,0.994103,0.0495414,0.111945,-0.00123727
0.111675,0.26294,1.03451,0.427793,0.450712,1.03512,0.049797,0.11931,0.0171407
0.115181,0.27412,1.05522,0.445226,0.438372,1.06399,0.0444856,0.124383,0.0439623
0.1179,0.285222,1.07644,0.403517,0.42358,1.0783,0.0427035,0.124007,0.0747483
0.120732,0.295112,1.09802,0.315259,0.474431,1.08252,0.0509359,0.112686,0.105826
0.124179,0.302747,1.11999,0.163479,0.498077,1.08192,0.064344,0.0954918,0.127881
0.127534,0.306193,1.14233,-0.112283,0.505445,1.05382,0.0831036,0.0723967,0.128758
0.130641,0.303085,1.16418,-0.460113,0.431012,0.947656,0.0918086,0.0634044,0.108366
0.131576,0.293369,1.18402,-0.722472,0.239307,0.795526,0.100102,0.06254,0.0616565
0.129582,0.27963,1.20121,-0.822769,0.0547533,0.657083,0.0949309,0.0691667,0.0182239
0.12563,0.264903,1.21589,-0.799872,-0.0309817,0.563115,0.083432,0.0898338,-0.0102464
0.122084,0.251064,1.22932,-0.717661,0.0506272,0.56374,0.0641504,0.100729,-0.0211049
0.121927,0.239298,1.24325,-0.604838,0.275101,0.640405,0.0441485,0.10253,-0.00665498
0.125809,0.23011,1.25898,-0.491276,0.462338,0.764306,0.0319436,0.091122,0.00751096
0.132008,0.223602,1.27706,-0.37712,0.532249,0.883761,0.0143213,0.0747101,0.0227277
0.137903,0.219854,1.29663,-0.251079,0.465646,0.937938,-0.000246391,0.0495232,0.040883
0.141803,0.218554,1.31618,-0.146623,0.346338,0.914721,-0.0189934,0.0266635,0.0508709
0.143922,0.21906,1.33446,-0.0677064,0.26445,0.844704,-0.0451346,0.00889255,0.0679542
0.145027,0.220155,1.35086,-0.0676032,0.198677,0.738622,-0.0653627,-0.00949398,0.0782136
0.145573,0.220129,1.36468,-0.132244,0.154093,0.57857,-0.0799897,-0.0231912,0.0742816
0.146037,0.218062,1.37473,-0.205549,0.107572,0.348745,-0.0853706,-0.0329601,0.0539846
0.146685,0.214101,1.37994,-0.254015,0.069961,0.0969339,-0.0848699,-0.0409796,0.0288383
0.147854,0.208706,1.38036,-0.280063,0.057583,-0.126529,-0.0815585,-0.0414329,0.00194311
0.149556,0.202386,1.37707,-0.289946,0.0451398,-0.271593,-0.0719529,-0.0405853,-0.028339
0.151389,0.195939,1.37156,-0.252065,0.0244184,-0.342826,-0.0598979,-0.0366814,-0.0591924
0.153077,0.191046,1.36518,-0.127091,0.0304588,-0.339015,-0.0491047,-0.0398349,-0.0814019
0.154728,0.18851,1.35856,-0.0385647,0.00615922,-0.343193,-0.0380545,-0.040998,-0.0952005
0.155844,0.187049,1.35155,-0.00247786,-0.0176569,-0.35405,-0.030467,-0.0362845,-0.103859
0.157311,0.18632,1.34456,0.036832,0.0396989,-0.32921,-0.0382291,-0.0437599,-0.090309
0.159389,0.186048,1.33777,0.0248425,0.0180844,-0.343444,-0.0279391,-0.0727288,-0.0882924
0.160311,0.184733,1.33001,-0.0380157,-0.0556952,-0.429615,-0.0317871,-0.0553449,-0.0994125
0.160995,0.182086,1.32076,-0.0655735,-0.0349901,-0.498784,-0.0351678,-0.0627537,-0.0859668
0.162357,0.179646,1.31062,-0.00875845,-0.0314042,-0.511139,-0.0224013,-0.0819692,-0.0758769
0.162125,0.178162,1.30021,0.0132414,-0.211829,-0.524744,-0.00305302,-0.0943097,-0.0957361
0.156945,0.175949,1.289,-0.066065,-0.500378,-0.609296,0.0100977,-0.0717231,-0.129881
0.14768,0.171935,1.27607,-0.117953,-0.589971,-0.696724,0.00418037,-0.0236287,-0.158541
0.139622,0.168461,1.26212,0.00744806,-0.417569,-0.689522,-0.0155406,0.0260485,-0.155753
0.136001,0.170123,1.24893,0.362413,-0.171546,-0.545173,-0.0265997,0.0580517,-0.116905
0.135649,0.180356,1.2387,0.767893,-0.0823502,-0.30764,-0.0322252,0.0642827,-0.0495341
0.135649,0.180356,1.2387,0.767893,-0.0823502,-0.30764,-0.0322252,0.0642827,-0.0495341
0.134343,0.198111,1.23186,1.05267,-0.196943,-0.13903,-0.0232416,0.0591685,0.00519043
0.129928,0.220473,1.22615,1.20263,-0.352718,-0.147248,-0.0344774,0.0694299,0.0645084
0.12342,0.24392,1.21857,1.17431,-0.463987,-0.307833,-0.0492572,0.0838854,0.106221
0.116127,0.264713,1.207,0.996267,-0.536228,-0.558904,-0.0592633,0.0945177,0.109668
0.109998,0.280652,1.19068,0.741131,-0.502717,-0.815966,-0.0663577,0.106053,0.116307
0.106668,0.290693,1.16995,0.464733,-0.39847,-1.03631,-0.0628754,0.104518,0.103067
0.107265,0.294411,1.14575,0.123831,-0.236365,-1.20935,-0.0656183,0.11879,0.0916251
0.111917,0.289464,1.11919,-0.345972,-0.054093,-1.34485,-0.0605588,0.138755,0.0547267
0.120831,0.275218,1.09169,-0.724583,0.18349,-1.41855,-0.0567357,0.143201,0.0254024
0.133917,0.255722,1.06462,-0.819998,0.39583,-1.37965,-0.0507909,0.142257,0.0106527
0.148917,0.237433,1.0403,-0.612162,0.476735,-1.1773,-0.0486692,0.125207,0.0143801
0.162365,0.225567,1.02068,-0.253579,0.396203,-0.875163,-0.0453901,0.0966902,0.0342057
0.171825,0.221002,1.00629,0.00639255,0.208019,-0.590492,-0.0429057,0.0481565,0.0758128
0.17602,0.220408,0.995913,0.0833424,-0.00120621,-0.429706,-0.0432972,0.00584365,0.102653
0.176496,0.220041,0.987739,-0.00598685,-0.116019,-0.373978,-0.0616979,-0.03144,0.134114
0.175146,0.216722,0.980097,-0.19545,-0.174955,-0.423614,-0.0685213,-0.0610176,0.134808
0.173148,0.209388,0.97174,-0.380819,-0.208652,-0.507311,-0.0740383,-0.0944003,0.12468
0.170188,0.198099,0.961977,-0.556099,-0.279643,-0.620623,-0.0718166,-0.106798,0.0844421
0.166432,0.183774,0.950665,-0.643515,-0.307684,-0.700485,-0.0673097,-0.110579,0.047533
0.162598,0.168633,0.938161,-0.62971,-0.290178,-0.74771,-0.0656683,-0.0993918,0.00184971
0.159189,0.154189,0.925111,-0.579224,-0.256724,-0.73389,-0.0508169,-0.100862,-0.0432935
0.156057,0.141327,0.91263,-0.484017,-0.239107,-0.674107,-0.0372218,-0.1013,-0.0791148
0.153083,0.131331,0.901377,-0.31249,-0.202659,-0.567539,-0.0269203,-0.105161,-0.0971399
0.150829,0.125872,0.891932,-0.0828118,-0.139513,-0.433908,-0.0223907,-0.112741,-0.0847418
0.149351,0.125085,0.884443,0.103683,-0.109693,-0.317899,-0.0181788,-0.128674,-0.0587905
0.14775,0.127259,0.87816,0.188216,-0.132903,-0.275283,-0.00587046,-0.149238,-0.036258
0.145255,0.130329,0.871969,0.192682,-0.199211,-0.300393,0.000510618,-0.161345,-0.0228286
0.141731,0.133054,0.864741,0.178219,-0.229372,-0.368047,0.00966521,-0.159361,-0.0221644
0.138651,0.135508,0.856431,0.184082,-0.176801,-0.400263,0.00954458,-0.146599,-0.0188283
0.137078,0.13834,0.848151,0.215758,-0.0904115,-0.355036,0.0200973,-0.141093,-0.0261536
0.136487,0.142113,0.840861,0.245495,-0.0962751,-0.317254,0.043576,-0.155819,-0.0452578
0.134404,0.145947,0.833649,0.219916,-0.210227,-0.333499,0.0406729,-0.11191,-0.0798264
0.130649,0.149177,0.826298,0.20194,-0.258103,-0.339478,0.02246,-0.0692102,-0.0981779
0.126623,0.152658,0.818865,0.244583,-0.260683,-0.341051,0.0208746,-0.0448489,-0.123028
0.122202,0.157431,0.811094,0.319217,-0.297811,-0.361756,0.0137493,-0.0158719,-0.170046
0.117377,0.163384,0.802571,0.36007,-0.304471,-0.39799,0.00376055,0.022048,-0.203883
0.113783,0.170137,0.793287,0.408434,-0.18122,-0.420196,-0.0108701,0.0530915,-0.214278
0.114046,0.178043,0.783968,0.478056,0.049931,-0.386812,-0.0312808,0.0786233,-0.1958
0.118971,0.188077,0.775853,0.622732,0.286635,-0.27782,-0.0522968,0.0981636,-0.159725
0.127482,0.202151,0.769919,0.839992,0.412042,-0.123974,-0.0690059,0.106203,-0.0852737
0.135941,0.220518,0.766171,1.00631,0.328462,-0.00380381,-0.0656972,0.105576,-0.00964314
0.14138,0.241769,0.763865,1.10617,0.151859,0.0698765,-0.0596018,0.11059,0.0734723
0.142573,0.264318,0.762578,1.11264,-0.0737503,0.11865,-0.0523629,0.114782,0.149737
0.139165,0.28603,0.762098,1.01629,-0.267871,0.135817,-0.0338835,0.108973,0.201607
0.132474,0.304678,0.762303,0.791458,-0.386791,0.13133,-0.00947168,0.0900407,0.238096
0.123365,0.317072,0.762993,0.39342,-0.492512,0.0835215,0.0147038,0.0748172,0.229903
0.112662,0.319854,0.763162,-0.1231,-0.560977,-0.0401255,0.0380226,0.0650689,0.187801
0.101621,0.31254,0.761623,-0.57331,-0.586677,-0.181215,0.0481218,0.0678527,0.123374
0.0906416,0.29641,0.757596,-0.983955,-0.61034,-0.358688,0.0345541,0.111027,0.0163386
0.0816817,0.272612,0.75004,-1.27753,-0.46366,-0.562467,0.00850406,0.172996,-0.0783634
0.0780628,0.246213,0.738965,-1.16918,-0.148651,-0.683294,0.011328,0.192783,-0.143127
0.081662,0.226717,0.727163,-0.642657,0.207145,-0.569748,0.0177909,0.177691,-0.118178
0.081662,0.226717,0.727163,-0.642657,0.207145,-0.569748,0.0177909,0.177691,-0.118178
0.0892664,0.218206,0.719055,-0.168564,0.330824,-0.267444,0.0220054,0.158662,-0.0625576
0.0953671,0.216997,0.717084,0.0294372,0.205643,0.0546977,0.0332922,0.119961,0.0138285
0.0967695,0.218219,0.720226,0.0491127,0.00800426,0.226233,0.0361965,0.0649104,0.0783454
0.0948237,0.219337,0.724686,0.0117478,-0.086854,0.179849,0.0153138,0.031975,0.124733
0.0927042,0.219031,0.726468,-0.0684738,-0.0791343,-0.0219249,-0.00851163,0.00999366,0.147057
0.0921014,0.216215,0.723729,-0.191921,-0.0431826,-0.270555,-0.0222029,-0.0106545,0.155011
0.0929072,0.210187,0.716253,-0.336147,-0.0361191,-0.500393,-0.0186646,-0.0262514,0.150471
0.0942579,0.201208,0.704992,-0.445497,-0.0613418,-0.661281,0.000691161,-0.0469125,0.135709
0.0954209,0.190175,0.691487,-0.513234,-0.0797186,-0.74268,0.0210351,-0.0596725,0.106517
0.0965707,0.17817,0.677095,-0.535114,-0.0668276,-0.764863,0.0356904,-0.0657525,0.0762334
0.0980764,0.166054,0.662666,-0.522262,-0.0255951,-0.758375,0.0431982,-0.0691747,0.0465686
0.10018,0.154422,0.648349,-0.483991,0.00588769,-0.758503,0.0489739,-0.0768887,0.0138166
0.10256,0.14395,0.634003,-0.411948,0.013218,-0.7484,0.0600554,-0.088175,-0.0129187
0.104886,0.134924,0.619812,-0.325792,0.0246551,-0.734119,0.0616933,-0.0911776,-0.0402298
0.107723,0.128356,0.605855,-0.174358,0.0739368,-0.697723,0.0690287,-0.102099,-0.0477734
0.110591,0.124713,0.592668,-0.0515337,0.038721,-0.632215,0.0837435,-0.118866,-0.0615118
0.112257,0.123174,0.580845,0.0243723,-0.015641,-0.546857,0.0879241,-0.132752,-0.069136
0.112904,0.122793,0.570532,0.0314349,-0.0538612,-0.475373,0.0997475,-0.176969,-0.080804
0.111623,0.121276,0.560579,-0.0962157,-0.207608,-0.550804,0.106041,-0.204736,-0.146381
0.108077,0.115776,0.54775,-0.310174,-0.266905,-0.774857,0.069094,-0.15499,-0.227471
0.105078,0.10607,0.530435,-0.439025,-0.207968,-1.02948,0.0514515,-0.133341,-0.301251
0.104979,0.0952723,0.508896,-0.38036,0.00164467,-1.17757,0.051023,-0.100016,-0.323995
0.109374,0.0863096,0.486034,-0.275088,0.218824,-1.15157,0.027465,-0.0287115,-0.300157
0.117328,0.0791452,0.464651,-0.182541,0.392821,-1.01799,0.000799805,0.0500709,-0.254125
0.127838,0.0754681,0.446501,0.0675025,0.495801,-0.806423,-0.00716239,0.0718259,-0.175366
0.138791,0.0787097,0.432273,0.439837,0.460763,-0.538997,0.00058648,0.0672301,-0.0729087
0.147376,0.0898388,0.422704,0.77486,0.297681,-0.232901,-0.000773177,0.0638085,0.0356469
0.15159,0.107433,0.418562,0.997207,0.0796916,0.0845444,-0.0171589,0.0608855,0.127319
0.150816,0.129232,0.419623,1.12017,-0.143168,0.325268,-0.043569,0.0653961,0.185712
0.145447,0.153212,0.423894,1.16326,-0.322082,0.417807,-0.0637231,0.0680187,0.210532
0.137102,0.17678,0.428543,1.071,-0.418869,0.335891,-0.078146,0.0700413,0.20821
0.128037,0.196739,0.430707,0.849417,-0.435492,0.115936,-0.0775253,0.0600655,0.187693
0.119969,0.210336,0.428277,0.502514,-0.40877,-0.18547,-0.0651796,0.0470916,0.148666
0.114152,0.215373,0.420929,0.0710658,-0.3064,-0.450852,-0.0562033,0.0317811,0.107593
0.112057,0.211075,0.41014,-0.371633,-0.121367,-0.623785,-0.0550658,0.0380788,0.0564666
0.114304,0.198405,0.397899,-0.717206,0.101234,-0.692412,-0.0550399,0.0505603,-0.00179964
0.120917,0.181188,0.385794,-0.789483,0.322035,-0.666154,-0.0468098,0.0553662,-0.0378035
0.131099,0.165938,0.375399,-0.54405,0.501494,-0.510134,-0.026343,0.0420696,-0.0375955
0.142987,0.157874,0.368956,-0.166956,0.531466,-0.210652,-0.00446694,0.0164876,0.000678778
0.151727,0.157082,0.368302,0.0624537,0.298743,0.126213,0.0177993,-0.0158651,0.0356976
0.153945,0.159839,0.373042,0.115554,0.00288671,0.354266,0.0365745,-0.0491385,0.0728065
0.150816,0.163122,0.380852,0.0762495,-0.16382,0.430937,0.0299112,-0.0639644,0.104217
0.146106,0.164786,0.389305,-0.039144,-0.141199,0.405848,0.0179147,-0.0754301,0.123664
0.143193,0.163793,0.397134,-0.166767,-0.0157281,0.339679,0.0119312,-0.0865719,0.130846
0.142873,0.160386,0.404162,-0.260464,0.0849292,0.299561,0.0173839,-0.0955497,0.124218
0.143641,0.155344,0.41095,-0.329502,0.0763036,0.30324,0.0383555,-0.103321,0.111237
0.143191,0.149304,0.418753,-0.371497,-0.00201456,0.380703,0.0605604,-0.109688,0.0914252
0.141121,0.143149,0.428665,-0.370044,-0.0538411,0.506404,0.0729286,-0.112695,0.0777106
0.138219,0.137734,0.441319,-0.335624,-0.0555044,0.652927,0.0805204,-0.119248,0.0693093
0.138219,0.137734,0.441319,-0.335624,-0.0555044,0.652927,0.0805204,-0.119248,0.0693093
0.135047,0.133285,0.456644,-0.309542,-0.0580877,0.771091,0.0827593,-0.130522,0.0491384
0.131539,0.129669,0.473564,-0.265142,-0.0704585,0.823062,0.0698919,-0.117093,0.022925
0.128076,0.127473,0.490822,-0.163744,-0.0499382,0.834805,0.0572245,-0.106545,0.00402588
0.125237,0.127622,0.507955,-0.0340775,-0.0140547,0.84881,0.0622173,-0.112409,-0.00784421
0.123345,0.130198,0.525265,0.0666273,0.0502689,0.879007,0.0693386,-0.113273,-0.0136927
0.122602,0.134145,0.543039,0.0996349,0.107006,0.905796,0.0699506,-0.105713,-0.0197034
0.122851,0.138429,0.561105,0.102776,0.161205,0.912686,0.0699597,-0.0981268,-0.0309162
0.124402,0.142737,0.579229,0.10016,0.237758,0.913472,0.073134,-0.105397,-0.0399442
0.126365,0.146533,0.59696,0.0350306,0.184721,0.847544,0.0853895,-0.117235,-0.0775037
0.126531,0.147592,0.612541,-0.131329,0.069743,0.680523,0.0727032,-0.0629803,-0.146633
0.126194,0.145739,0.625225,-0.173066,0.106566,0.544108,0.0564902,-0.0167179,-0.201849
0.127759,0.144978,0.635913,-0.0138369,0.19348,0.511987,0.0711294,0.00741667,-0.23224
0.130062,0.148341,0.646664,0.201528,0.176895,0.595487,0.087702,0.0381631,-0.253665
0.131342,0.155858,0.659374,0.360505,0.1463,0.750519,0.0948505,0.0783847,-0.241837
0.132264,0.166307,0.675267,0.453373,0.213475,0.933777,0.0840062,0.109145,-0.197368
0.134349,0.178552,0.694248,0.50464,0.313524,1.06268,0.0702263,0.133766,-0.146485
0.137672,0.192261,0.715073,0.573405,0.38976,1.12986,0.0620993,0.146829,-0.0887785
0.141762,0.207946,0.736589,0.680791,0.436566,1.16073,0.0484472,0.161285,-0.0162674
0.145949,0.225878,0.758413,0.771562,0.436823,1.19705,0.0498062,0.175164,0.0649443
0.148895,0.245067,0.781167,0.773865,0.379329,1.26654,0.0764999,0.168509,0.129523
0.149438,0.263411,0.805966,0.656002,0.282214,1.36309,0.10723,0.153488,0.169621
0.145804,0.278328,0.833183,0.403925,0.0610485,1.42866,0.137449,0.141112,0.158086
0.136193,0.287094,0.862206,0.0582024,-0.200391,1.42594,0.16727,0.122049,0.10264
0.122656,0.288663,0.891318,-0.250084,-0.282437,1.34131,0.157479,0.127002,0.0378339
0.110458,0.284796,0.918778,-0.405893,-0.12517,1.21916,0.110409,0.170534,-0.0148035
0.104328,0.279625,0.944018,-0.332897,0.232104,1.13921,0.0680576,0.194971,-0.0252987
0.105461,0.277033,0.968379,-0.175207,0.515366,1.16844,0.0463459,0.197194,-0.00235051
0.109617,0.277012,0.993898,-0.110342,0.557252,1.26234,0.0402806,0.179046,0.0347782
0.112573,0.277557,1.02113,-0.13028,0.480401,1.32025,0.0369992,0.144765,0.079267
0.114509,0.277781,1.04853,-0.14641,0.468172,1.26907,0.0269619,0.110023,0.125504
0.117223,0.27708,1.07377,-0.215438,0.48631,1.11012,0.0197542,0.0794717,0.146923
0.121171,0.273696,1.09516,-0.376819,0.479607,0.877922,0.0157499,0.0616276,0.143509
0.125982,0.266051,1.11223,-0.576531,0.446147,0.660451,0.00632044,0.049484,0.127596
0.131229,0.254682,1.12595,-0.690489,0.433959,0.517214,-0.00628559,0.0439303,0.102291
0.137059,0.242421,1.13804,-0.65546,0.442981,0.489924,-0.0174312,0.0317096,0.0770888
0.142753,0.231803,1.14997,-0.552787,0.387105,0.50811,-0.0228328,0.0110591,0.0534264
0.146593,0.223187,1.1618,-0.465556,0.255185,0.493658,-0.0268447,-0.00774103,0.0229497
0.148337,0.215877,1.1723,-0.412215,0.150346,0.396623,-0.0343627,-0.0288536,0.00723034
0.149081,0.208509,1.17984,-0.426459,0.0912008,0.210813,-0.0437191,-0.0332478,-0.0165963
0.150068,0.200219,1.18369,-0.446841,0.101189,0.0456426,-0.0287822,-0.0443415,-0.051774
0.152502,0.191192,1.18513,-0.459881,0.171273,-0.0281745,-0.0159952,-0.0448947,-0.0712726
0.156142,0.182366,1.18613,-0.401046,0.205964,0.00277277,-0.000494748,-0.0469144,-0.0874301
0.15986,0.176308,1.18806,-0.209769,0.178803,0.0913832,0.0188091,-0.0515938,-0.0827881
0.162049,0.174742,1.1913,-0.00360583,0.0912197,0.196859,0.0338497,-0.0574383,-0.0699242
0.16232,0.17705,1.19617,0.137798,0.0302702,0.321413,0.0481018,-0.0687471,-0.0353621
0.160782,0.181648,1.20363,0.16825,-0.0790167,0.468512,0.0792232,-0.1416,-0.00800455
0.154236,0.185001,1.21311,-0.0179085,-0.413243,0.469203,0.116758,-0.194363,-0.0693663
0.142737,0.18273,1.22204,-0.360649,-0.516186,0.351528,0.103935,-0.163317,-0.116661
0.142737,0.18273,1.22204,-0.360649,-0.516186,0.351528,0.103935,-0.163317,-0.116661
0.132608,0.172529,1.22934,-0.716147,-0.328984,0.223009,0.0911478,-0.123522,-0.177853
0.128484,0.158039,1.23544,-0.730244,0.0252763,0.207915,0.0791852,-0.0664644,-0.205478
0.13043,0.147192,1.24222,-0.38583,0.227008,0.327152,0.08387,-0.0375733,-0.228184
0.133921,0.146015,1.25084,0.178658,0.230581,0.502519,0.0693005,0.0231979,-0.224914
0.137007,0.157533,1.2613,0.801964,0.23114,0.662636,0.0475004,0.0612702,-0.150208
0.139839,0.181109,1.27272,1.35865,0.262754,0.769943,0.0579949,0.0671443,-0.0763418
0.143505,0.214954,1.28503,1.76404,0.328107,0.900559,0.0636935,0.0616913,0.0351046
0.146269,0.254228,1.2996,1.84374,0.24982,1.05962,0.0816382,0.0547512,0.0999788
0.143931,0.292285,1.31769,1.61043,-0.0165183,1.19176,0.120553,0.0177405,0.119027
0.133687,0.323562,1.33888,1.15488,-0.371259,1.20161,0.148332,-0.019884,0.115232
0.115501,0.342822,1.36006,0.462161,-0.72341,0.974174,0.136701,0.00147527,0.055301
0.0948883,0.346886,1.37656,-0.174264,-0.675818,0.602744,0.110986,0.0571492,-0.0120826
0.0822604,0.341268,1.3864,-0.392946,-0.205397,0.293041,0.0804688,0.117321,-0.0181767
0.0827822,0.335138,1.3923,-0.22075,0.456737,0.270604,0.10395,0.143628,-0.00297618
0.0947778,0.334246,1.40124,0.0428385,0.976959,0.60706,0.141619,0.139977,0.0537453
0.110061,0.338014,1.41943,0.119622,1.05802,1.14727,0.189986,0.121516,0.10891
0.119102,0.343246,1.44912,0.0588643,0.782856,1.66238,0.223025,0.0852787,0.143218
0.117789,0.347867,1.48831,-0.0413635,0.419229,1.99963,0.210674,0.0740934,0.150995
0.108995,0.350849,1.53275,-0.132732,0.26396,2.13269,0.161108,0.0842345,0.143668
0.0988799,0.352093,1.57859,-0.178547,0.317279,2.11599,0.091694,0.0996393,0.115495
0.090933,0.352759,1.62272,-0.13001,0.40631,1.98528,0.0461315,0.117735,0.067969
0.0857937,0.354603,1.66393,-0.0275044,0.506842,1.87649,0.0266678,0.105824,0.0420929
0.0833643,0.357826,1.70353,0.0208477,0.627235,1.83904,0.012903,0.104481,0.0376404
0.0828941,0.36119,1.743,0.00079458,0.692229,1.85165,0.00944206,0.096262,0.0362991
0.0829468,0.364171,1.78287,-0.0106032,0.722935,1.87579,0.0180865,0.077305,0.034112
0.0827952,0.366535,1.82382,-0.0813041,0.716377,1.94483,0.0238975,0.051757,0.0457028
0.0815376,0.366909,1.86678,-0.211564,0.695081,2.03309,0.0281608,0.0294474,0.0534778
0.0797371,0.364825,1.91126,-0.322736,0.71445,2.0602,0.0268317,0.00800055,0.0624588
0.0785019,0.3607,1.95594,-0.414312,0.74652,2.04848,0.0345047,-0.010703,0.0643908
0.0781492,0.354703,2.00064,-0.508068,0.764897,2.06138,0.050127,-0.0283904,0.0630921
0.0772083,0.346876,2.04602,-0.598022,0.672813,2.10278,0.0688503,-0.0381204,0.046982
0.0737876,0.337441,2.09177,-0.659404,0.516356,2.09249,0.0762346,-0.0318263,0.0221989
0.0680428,0.326785,2.13686,-0.705218,0.372654,2.05325,0.0917815,-0.0276026,0.00342047
0.0604427,0.314396,2.18011,-0.788382,0.248199,1.92409,0.0900465,0.0106127,-0.0443141
0.0531557,0.299878,2.21983,-0.86205,0.219287,1.75185,0.120887,0.0379876,-0.0925924
0.0465814,0.284032,2.2557,-0.864302,0.163571,1.59084,0.163568,0.0511325,-0.170914
0.0413631,0.269046,2.28869,-0.75452,0.223623,1.52346,0.127998,0.122089,-0.169994
0.0341761,0.253521,2.32117,-0.969583,-0.060039,1.55299,0.107655,0.171576,-0.242399
0.0299555,0.234849,2.35642,-0.953156,0.46805,1.82641,0.0838777,0.17688,0.0361543
0.0317473,0.218734,2.39882,-0.750268,0.64601,2.23577,0.100392,0.161635,-0.0303767
0.0383536,0.209752,2.44858,-0.31805,0.919648,2.55285,0.110384,0.129223,-0.0597614
0.0438985,0.209711,2.50318,0.081008,0.661001,2.738,0.111938,0.130297,-0.136636
0.0418641,0.216893,2.56,0.361105,0.325665,2.79937,0.120094,0.143862,-0.100991
0.0332201,0.227417,2.61724,0.450118,0.132463,2.79115,0.147069,0.150175,-0.0992224
0.0241971,0.237614,2.67475,0.378476,0.3269,2.81548,0.144515,0.175997,-0.0298622
0.0192899,0.244677,2.73345,0.187658,0.581603,2.86991,0.12748,0.199472,-0.00579488
0.0183682,0.247215,2.79358,-0.044511,0.755029,2.93618,0.140272,0.210006,0.00858831
0.0184653,0.24518,2.85506,-0.271738,0.712144,2.98702,0.148149,0.219812,0.00282627
0.0184653,0.24518,2.85506,-0.271738,0.712144,2.98702,0.148149,0.219812,0.00282627
0.0157222,0.238801,2.91703,-0.43306,0.48926,2.96389,0.139525,0.232083,-0.0349371
0.0101948,0.23088,2.97673,-0.402634,0.356813,2.78333,0.0872896,0.232618,-0.0900923
0.004946,0.224732,3.03172,-0.23883,0.40612,2.54915,0.0648653,0.225439,-0.117458
0.00366923,0.221624,3.08305,-0.093572,0.563322,2.45358,0.0908572,0.190335,-0.071935
0.00298051,0.221302,3.13361,0.0463641,0.420806,2.46159,0.102561,0.146777,-0.0304649
-0.00349476,0.223553,-3.09849,0.162161,0.0421312,2.49692,0.096288,0.144226,0.00433064
-0.016025,0.226476,-3.04588,0.1464,0.020134,2.63353,0.117544,0.149335,0.0396767
-0.0247044,0.226824,-2.98866,0.00969926,0.31688,2.903,0.12969,0.179489,0.0759865
-0.0320649,0.225175,-2.92708,0.0163284,0.316484,3.03628,0.094101,0.168864,0.037517
-0.0402875,0.224364,-2.86483,0.128437,0.261578,2.979,0.086432,0.144575,0.0556725
-0.0476814,0.22558,-2.80484,0.242457,0.33644,2.81377,0.0871509,0.145867,0.0727389
-0.0535843,0.228533,-2.74902,0.31964,0.279012,2.56761,0.0686303,0.126085,0.0670843
-0.0619883,0.232521,-2.69801,0.353936,0.058969,2.3535,0.0530794,0.116952,0.0295692
-0.0731216,0.236672,-2.65056,0.363806,-0.0302137,2.20765,0.0544489,0.0872216,0.0194069
-0.0827446,0.240023,-2.6054,0.2989,0.160831,2.12382,0.00680972,0.0402917,0.0230934
-0.0871093,0.241428,-2.56196,0.1903,0.478811,2.03079,0.00697654,0.0218654,-0.0222166
-0.0842384,0.240669,-2.52139,0.0783853,0.716807,1.8944,-0.0125245,0.00484701,-0.0390094
-0.0784073,0.238962,-2.48333,0.0564219,0.634679,1.78534,-0.0196324,-0.0020296,-0.0684949
-0.075617,0.237757,-2.44853,0.0974544,0.517792,1.54524,-0.0232751,0.079655,-0.140024
-0.0720202,0.238128,-2.41926,0.136661,0.518803,1.28938,-0.027973,0.0796336,-0.0637731
-0.0655503,0.238364,-2.39434,0.0295699,0.763199,1.12773,-0.0328148,0.0250997,-0.052273
-0.0518998,0.236527,-2.37248,-0.0772,1.04043,1.00258,-0.0373059,0.000150681,0.0154808
-0.0370715,0.232917,-2.35309,-0.194446,0.778122,0.907691,-0.0715733,-0.0093414,-0.0888742
-0.0287434,0.227475,-2.33516,-0.271746,0.442155,0.837638,-0.0489052,-0.00777294,-0.145655
-0.0241969,0.221665,-2.31786,-0.2462,0.441525,0.903382,-0.0127286,-0.105478,-0.084903
-0.0280085,0.215547,-2.29658,-0.344264,-0.28449,1.14495,-0.0554984,-0.153794,-0.1775
-0.038648,0.207137,-2.27403,-0.386158,-0.481371,1.01018,-0.012984,-0.0553424,0.124698
-0.0523915,0.198329,-2.25651,-0.388445,-0.422305,0.716587,-0.0931598,0.00329058,0.0388969
-0.0632257,0.191384,-2.24469,-0.233567,-0.487051,0.512795,-0.0700043,0.0101796,0.0675183
-0.0759642,0.186992,-2.23468,-0.16062,-0.619454,0.511571,-0.0968643,-0.0640347,0.0294169
-0.0932127,0.18233,-2.22322,-0.167072,-0.727749,0.627003,-0.0886866,-0.112182,-0.0206164
-0.104902,0.178897,-2.21022,-0.034432,-0.172265,0.683914,-0.0507093,-0.0885201,0.174936
-0.103516,0.178487,-2.19509,0.154352,0.591665,0.799652,-0.0559182,-0.115474,0.214579
-0.088207,0.181428,-2.1769,0.262838,1.07314,0.938869,-0.0459673,-0.140138,0.194775
-0.0732542,0.183607,-2.15641,0.153116,0.968449,1.02109,-0.0230427,-0.107233,-0.135992
-0.0596372,0.185248,-2.13452,0.124607,0.750758,1.11838,0.00496275,-0.0594159,-0.0400055
-0.0478129,0.185981,-2.11154,0.083234,0.80468,1.10245,0.00564969,-0.0087996,-0.0317497
-0.0377573,0.187011,-2.08976,0.119476,0.594683,1.01004,-0.0130197,0.0205477,-0.0811852
-0.0315095,0.189331,-2.07016,0.178943,0.378192,0.896904,-0.0278356,0.0184786,-0.0635843
-0.029469,0.193091,-2.05254,0.23808,0.172708,0.813488,-0.0459272,0.0205063,-0.032972
-0.0305149,0.197684,-2.03615,0.253539,0.06647,0.787753,-0.0760258,0.00783116,0.00600749
-0.032834,0.201991,-2.01943,0.22426,0.048356,0.823246,-0.0968524,-0.0280027,0.034912
-0.0344109,0.205544,-2.00285,0.17888,0.15114,0.757279,-0.106884,0.00806968,0.0632858
-0.0325084,0.208302,-1.98879,0.148181,0.324675,0.595471,-0.121902,0.0507317,0.0787577
-0.0265958,0.211153,-1.97842,0.176989,0.472963,0.402578,-0.134658,0.0665511,0.067288
-0.017681,0.215057,-1.9716,0.22444,0.549857,0.263297,-0.129105,0.0511258,0.0430958
-0.00814518,0.220047,-1.96707,0.264595,0.479245,0.175846,-0.126725,0.0162947,0.0106602
0.00180146,0.224652,-1.96366,0.180388,0.574233,0.162279,-0.112108,0.00185028,0.0225386
0.00180146,0.224652,-1.96366,0.180388,0.574233,0.162279,-0.112108,0.00185028,0.0225386
0.0119597,0.227611,-1.96045,0.117728,0.495955,0.145559,-0.0994653,0.00477985,0.000917733
0.0206798,0.229566,-1.95801,0.0773938,0.428408,0.0948396,-0.0768222,0.0286566,0.00912529
0.0279292,0.230738,-1.9567,0.0440515,0.315471,0.0334673,-0.0592442,0.04115,0.0112348
0.0328479,0.231521,-1.95655,0.0332135,0.172949,-0.0109811,-0.0332933,0.0404632,0.0232237
0.0349674,0.231964,-1.95677,0.00997983,0.0253766,0.00333286,-0.00367419,0.0163272,0.0498924
0.0335872,0.232095,-1.95578,0.00551349,-0.132646,0.107757,0.0292855,-0.0219821,0.0806395
0.0293544,0.232558,-1.95197,0.0377856,-0.176994,0.268775,0.049687,-0.045274,0.13361
0.0249345,0.234072,-1.9448,0.0915189,-0.0730482,0.426448,0.0535373,-0.0409934,0.183686
0.0234349,0.236318,-1.93465,0.101753,0.173295,0.554616,0.0400237,-0.0384733,0.214325
0.0259714,0.238472,-1.92222,0.0806142,0.3489,0.648336,0.0409438,-0.0268734,0.195844
0.0302402,0.240433,-1.90815,0.0856392,0.370783,0.709879,0.0475995,0.00318374,0.146236
0.0323526,0.242892,-1.89289,0.110377,0.168895,0.770323,0.0609792,0.048418,0.0821685
0.0285744,0.246181,-1.87725,0.174286,-0.149646,0.73131,0.0525521,0.083927,0.0196252
0.0205065,0.251016,-1.86291,0.275644,-0.280076,0.667908,0.0109145,0.0993709,0.0194823
0.0108742,0.25768,-1.84923,0.355385,-0.309504,0.675118,-0.00494551,0.109314,0.0651934
0.00205806,0.264709,-1.83448,0.316308,-0.163197,0.75745,-0.00609098,0.0949264,0.146594
-0.00365053,0.270026,-1.81771,0.209695,0.0223386,0.845208,-0.0150212,0.0784169,0.224225
-0.00731077,0.273411,-1.79976,0.150414,0.0608956,0.860149,-0.0248212,0.094923,0.268906
-0.0119006,0.276291,-1.78204,0.14327,-0.0491679,0.832168,-0.0393933,0.110879,0.299911
-0.0184968,0.278214,-1.76478,0.046693,-0.121505,0.824733,-0.0635906,0.0820883,0.348331
-0.0253298,0.276325,-1.74714,-0.219846,-0.0581737,0.877494,-0.0904866,0.0125226,0.39422
-0.0302394,0.268319,-1.72854,-0.516412,0.052379,0.909781,-0.123252,-0.0351976,0.412004
-0.0340869,0.25557,-1.7104,-0.66183,0.00686276,0.866566,-0.111604,-0.0187334,0.380486
-0.0401187,0.242232,-1.69346,-0.568991,-0.212304,0.809526,-0.0750156,0.00622711,0.327125
-0.0504458,0.232367,-1.67772,-0.345928,-0.414034,0.763439,-0.02724,0.00374995,0.28434
-0.0607845,0.22559,-1.66173,-0.270997,-0.177251,0.847654,-0.0091515,-0.0394407,0.307335
-0.0646619,0.218866,-1.64205,-0.260677,0.17155,1.09067,0.0162614,-0.110361,0.244276
-0.0626084,0.212488,-1.61851,-0.234942,0.597822,1.20587,-0.0243957,-0.0529164,0.096169
-0.0554267,0.208839,-1.59564,0.0658718,0.438435,0.975603,-0.0213058,0.0195347,-0.0987763
-0.0544422,0.212857,-1.57927,0.370671,0.103515,0.583222,-0.0651447,0.0574601,-0.185317
-0.0525954,0.220835,-1.57216,0.450906,0.233249,0.112844,-0.0394801,0.120351,-0.049728
-0.047555,0.232714,-1.57215,0.776946,0.292866,-0.155247,-0.0806364,0.024534,-0.0225323
-0.0359191,0.251707,-1.57761,1.06579,0.73888,-0.426527,-0.00753283,0.0319862,-0.026948
-0.019932,0.276073,-1.58621,1.25112,0.680858,-0.448599,-0.115666,-0.0467416,-0.202959
0.000753253,0.298488,-1.59631,0.919154,1.0582,-0.580544,-0.101626,0.0199053,0.00834852
0.0190608,0.31133,-1.61076,0.359045,0.0861864,-0.790758,-0.116318,0.0124863,-0.0652441
0.00247331,0.30983,-1.6327,-0.596434,-2.73135,-1.3482,-0.0640316,-0.022801,-0.351328
-0.0472966,0.291433,-1.66619,-1.24942,-3.34824,-1.69325,0.0986453,0.0523243,0.0839136
-0.109083,0.261473,-1.70396,-2.00238,-3.5216,-1.62234,0.0840487,-0.0940201,-0.113233
-0.143397,0.22312,-1.7427,-2.06046,-0.880859,-1.67259,0.117223,-0.0406899,0.31791
-0.138568,0.190777,-1.78237,-1.69942,0.565745,-1.63944,0.206908,0.0509344,0.110981
-0.102747,0.163194,-1.81463,-1.42164,2.39921,-1.04291,0.0564803,-0.176488,0.259632
-0.0384291,0.138557,-1.82768,-1.07173,3.53787,-0.103999,-0.0970498,-0.387505,0.221527
0.0308961,0.122394,-1.82387,-0.537737,3.2972,0.419299,-0.168828,-0.407987,-0.0569504
0.093583,0.116778,-1.81662,-0.139957,3.19107,0.164285,-0.189825,-0.328769,-0.258059
0.15893,0.112429,-1.81434,-0.332788,3.1406,0.088324,0.162501,-0.0369016,-0.225639
0.214907,0.105199,-1.80948,-0.461084,2.45285,0.224802,0.238835,-0.00580467,-0.476113
0.214907,0.105199,-1.80948,-0.461084,2.45285,0.224802,0.238835,-0.00580467,-0.476113
0.274061,0.0889532,-1.79208,-0.594273,0.854419,0.387096,0.195774,-0.00613478,-0.456104
0.288236,0.0777146,-1.78079,-0.791097,0.671827,0.387231,0.167708,0.00982636,-0.311283
0.298065,0.0635397,-1.76758,-0.919026,0.365362,0.473874,0.1228,-0.0295206,-0.302187
0.302197,0.0486798,-1.75249,-0.907893,0.138664,0.500173,0.143454,0.022034,-0.321913
0.302491,0.0356944,-1.73756,-0.748696,-0.0118329,0.537975,0.119435,0.0291408,-0.257238
0.301367,0.0267718,-1.72328,-0.520865,-0.0595266,0.533084,0.104938,0.0396318,-0.173279
0.300216,0.0215828,-1.71173,-0.325696,0.0611755,0.32505,0.122769,0.118795,-0.129163
0.304069,0.0170784,-1.71089,-0.0639941,0.0957838,-0.272861,0.151505,0.364185,-0.0508044
0.299163,0.01981,-1.71628,0.46702,-0.355423,-0.0797585,0.0536959,-0.0155612,-0.248614
0.29569,0.0325628,-1.71762,0.745568,-0.0685992,0.287327,0.132614,-0.00209568,0.0213104
0.294307,0.0480125,-1.71573,0.571491,-0.0134819,0.275653,0.0414492,0.0152487,-0.000886679
0.293728,0.0545141,-1.71484,0.00112409,-0.130093,-0.0187573,0.0077824,0.0467051,0.00756812
0.285955,0.048456,-1.71649,-0.491328,-0.643348,-0.290911,0.0374865,0.0469874,-0.108506
0.270189,0.0349582,-1.71935,-0.672652,-0.873966,-0.311302,0.0527377,0.00440297,-0.0953096
0.253376,0.0213913,-1.72108,-0.556706,-0.756174,-0.198289,0.0623566,-0.0395234,-0.0281673
0.241361,0.0118842,-1.7216,-0.342053,-0.438032,-0.105425,0.0425779,-0.0303219,0.022657
0.233293,0.00738944,-1.72278,-0.0610437,-0.437437,-0.132136,0.0489443,-0.00587051,-0.0461134
0.221967,0.00793422,-1.72671,0.187842,-0.702259,-0.232751,0.0607415,0.0299678,-0.153623
0.205071,0.011776,-1.73277,0.289482,-0.965319,-0.268752,0.0340481,0.0327566,-0.167124
0.184152,0.0162722,-1.73892,0.254094,-1.0933,-0.229985,0.0133833,0.0291804,-0.128488
0.162352,0.0199367,-1.74383,0.183556,-1.09354,-0.200326,-0.0115225,0.0277326,-0.050181
0.139048,0.0221325,-1.74891,0.103219,-1.25803,-0.274419,-0.0209819,0.0683801,-0.0443026
0.112633,0.022254,-1.75524,-0.01925,-1.33477,-0.341403,-0.0147106,0.0782977,0.00286281
0.0875262,0.0200477,-1.76207,-0.12532,-1.12659,-0.350646,-0.00155098,0.0530969,0.0867159
0.0690792,0.0168169,-1.76873,-0.128426,-0.719299,-0.327342,0.0253611,0.0245218,0.168281
0.0574601,0.014847,-1.77434,-0.0270779,-0.466722,-0.2215,0.067761,-0.0176089,0.166636
0.0501925,0.0149168,-1.77663,0.0294792,-0.257387,0.00601835,0.0942434,-0.0473701,0.154239
0.046841,0.0153331,-1.77428,-0.00676098,-0.108477,0.220979,0.115566,-0.0382258,0.125129
0.0442608,0.0149685,-1.76841,-0.0508891,-0.145612,0.341462,0.146295,0.000380495,0.0478742
0.0408423,0.0139341,-1.76115,-0.0803462,-0.173878,0.368035,0.156103,0.0316185,0.011505
0.0372431,0.0125253,-1.75378,-0.0843349,-0.165944,0.355793,0.145889,0.0462927,-0.00383884
0.0345804,0.0112054,-1.7466,-0.0696983,-0.0739474,0.355544,0.121618,0.0358787,-3.49283e-05
0.0346864,0.0105412,-1.73949,-0.0169516,0.0982139,0.344615,0.0882473,0.0242892,0.0288077
0.0382785,0.0109328,-1.73275,0.0300495,0.256458,0.329782,0.065203,0.0126874,0.0362561
0.0445833,0.0119786,-1.72623,0.043319,0.373393,0.322705,0.0491084,0.00892656,0.032382
0.0523872,0.0129968,-1.71992,0.0242437,0.393123,0.309139,0.0379427,0.00352072,0.0174646
0.0596728,0.0135152,-1.71376,-0.015035,0.323168,0.308383,0.0315088,-0.00388027,-0.00242037
0.0651606,0.0129502,-1.70733,-0.0856494,0.238445,0.328268,0.0164797,-0.0204974,-0.00547123
0.0692413,0.0107982,-1.70043,-0.173564,0.167841,0.337597,-0.00559854,-0.0345206,0.00331348
0.0717726,0.00693363,-1.69347,-0.262224,0.0957635,0.320056,-0.0200736,-0.0319916,-0.0084579
0.0734484,0.00141556,-1.68688,-0.326815,0.0741334,0.292864,-0.0399503,-0.0341069,-0.00976193
0.0750331,-0.00485455,-1.68101,-0.329009,0.0861699,0.236516,-0.0563155,-0.0292228,-0.0157496
0.0767309,-0.0107533,-1.67652,-0.280878,0.0775296,0.163254,-0.059012,-0.0193743,-0.028055
0.0786893,-0.0153016,-1.67337,-0.186796,0.116792,0.118502,-0.0618753,-0.0151636,-0.0266181
0.081309,-0.0176898,-1.67099,-0.0655199,0.135053,0.101058,-0.057281,-0.0170785,-0.031368
0.0842313,-0.0175292,-1.66906,0.0622845,0.155719,0.0943978,-0.0525178,-0.0103719,-0.0300656
0.0872989,-0.0150461,-1.66739,0.169339,0.145844,0.093625,-0.0493364,-0.00711093,-0.0340875
0.0872989,-0.0150461,-1.66739,0.169339,0.145844,0.093625,-0.0493364,-0.00711093,-0.0340875
0.0899928,-0.0105488,-1.66593,0.261127,0.11536,0.0876699,-0.0487897,-0.00381946,-0.0267003
0.0917542,-0.00473162,-1.66477,0.297016,0.0656715,0.0786811,-0.0462143,-0.00181717,-0.0221466
0.0932183,0.00137327,-1.66371,0.286055,0.0766726,0.0819106,-0.0525407,-0.00363162,-0.00325924
0.094481,0.00696388,-1.66262,0.262165,0.0542577,0.0772256,-0.0480125,0.005972,-0.00459093
0.0950114,0.0121718,-1.6616,0.250919,0.0188353,0.0702295,-0.0422797,0.00774642,-0.00318015
0.0948905,0.0172066,-1.66077,0.23825,-0.00279309,0.0618451,-0.0369796,0.00879813,-0.000282049
0.0950918,0.0219349,-1.66014,0.220285,0.0250132,0.0463452,-0.0362861,0.0106874,0.00748026
0.0957171,0.0262855,-1.65968,0.205847,0.0324758,0.0383151,-0.0345792,0.00911639,0.00325751
0.0960303,0.0304844,-1.65939,0.208398,-0.00892965,0.0288473,-0.0273568,0.00704219,-0.00668722
0.0950163,0.0345223,-1.65942,0.208334,-0.060119,0.00164003,-0.025603,0.00737011,-0.00492066
0.0934251,0.0382658,-1.66012,0.187365,-0.0652317,-0.034682,-0.0200704,0.00702171,0.0037908
0.0923139,0.0415665,-1.66125,0.167296,-0.0238654,-0.0434702,-0.0156262,-0.00246707,0.0107359
0.0921069,0.0444727,-1.66237,0.149714,0.0119527,-0.0416183,-0.0120823,-0.00966489,0.0104626
0.0921306,0.0472355,-1.66361,0.153052,-0.00510679,-0.0578243,0.000707917,-0.00867497,-0.00693858
0.0915421,0.0501839,-1.66512,0.165522,-0.0475049,-0.0627181,0.0090426,-0.0147786,-0.0174036
0.0901262,0.0531707,-1.66667,0.146235,-0.0908373,-0.0604351,0.0119296,-0.0253303,-0.0224034
0.0878934,0.055596,-1.66805,0.0997408,-0.13176,-0.0543389,0.0208912,-0.0310567,-0.0275397
0.0850024,0.0569657,-1.66923,0.0448313,-0.161807,-0.0500673,0.0273592,-0.0328936,-0.0333182
0.0814914,0.0573514,-1.67035,0.0097277,-0.205627,-0.0576304,0.0280161,-0.0303723,-0.0350476
0.0767617,0.0573895,-1.67171,0.00802236,-0.274269,-0.0801415,0.0333795,-0.0237577,-0.039712
0.0709456,0.057547,-1.67355,0.0196962,-0.30785,-0.0964175,0.0281997,-0.023753,-0.025407
0.0650161,0.0579898,-1.67546,0.0330008,-0.303115,-0.0831145,0.0243723,-0.0293077,-0.00403434
0.058883,0.0587709,-1.67676,0.0462811,-0.320634,-0.0444664,0.0191487,-0.0327393,0.0061717
0.0527386,0.0598558,-1.67738,0.0629117,-0.300377,-0.0169986,0.0118792,-0.0224554,0.0287732
0.0471698,0.0612422,-1.67771,0.0750592,-0.251987,-0.0118747,-0.00223358,-0.0146933,0.050253
0.0429911,0.0628954,-1.67793,0.0879539,-0.158408,0.000750184,-0.0180821,-0.00941171,0.0814817
0.0407221,0.0647244,-1.67774,0.0940349,-0.065882,0.0248371,-0.0390235,-0.0107602,0.106011
0.0401392,0.0665691,-1.67722,0.0837474,0.00556294,0.0338274,-0.060471,-0.00649339,0.125293
0.0412208,0.0679427,-1.67688,0.0395358,0.118602,0.000595007,-0.0893166,0.00098066,0.145145
0.0452951,0.0679025,-1.6774,-0.0429402,0.284689,-0.0570763,-0.123773,0.000147119,0.158949
0.052261,0.0658434,-1.67928,-0.155635,0.389233,-0.152667,-0.137527,0.0121154,0.137782
0.0603111,0.0614847,-1.68367,-0.246467,0.365092,-0.312539,-0.129497,0.0356586,0.0817144
0.0681742,0.0556564,-1.6912,-0.270344,0.387929,-0.459935,-0.139732,0.0385683,0.0382923
0.0768565,0.04997,-1.70083,-0.21557,0.411838,-0.518477,-0.132609,0.0111462,0.0106961
0.085072,0.0459749,-1.71089,-0.0932054,0.344298,-0.510808,-0.0965678,-0.00822527,-0.0374299
0.0912375,0.0445658,-1.72109,0.0418758,0.210014,-0.514209,-0.0787524,-0.0134324,-0.0777188
0.0940974,0.0457794,-1.7315,0.168804,0.0367247,-0.502679,-0.065372,-0.0214516,-0.0873303
0.0945437,0.0492507,-1.74171,0.259405,-0.0194846,-0.472751,-0.0671431,-0.0345247,-0.0565001
0.0941307,0.0540118,-1.75137,0.287024,-0.0903769,-0.446378,-0.0715921,-0.0355226,-0.0530438
0.0912243,0.0583974,-1.76093,0.224896,-0.251396,-0.464024,-0.0503236,-0.0106665,-0.0919609
0.0850747,0.0613205,-1.77078,0.14966,-0.430463,-0.481549,-0.0386698,0.00397004,-0.0977898
0.074387,0.0629947,-1.78084,0.092626,-0.709999,-0.504065,-0.0130443,0.00300127,-0.0935649
0.0576012,0.0634404,-1.79134,0.01696,-1.02058,-0.535706,0.0155445,0.00700136,-0.0722551
0.0355323,0.0621767,-1.80256,-0.09931,-1.22401,-0.585961,0.0417075,0.00973792,-0.03987
0.00932383,0.0586992,-1.81469,-0.210096,-1.47873,-0.625279,0.066788,0.0115769,-0.0299487
-0.021873,0.0537438,-1.8277,-0.290735,-1.66718,-0.661444,0.0926405,0.0147928,-0.00679439
-0.0553213,0.0473197,-1.84133,-0.412145,-1.71913,-0.662006,0.100214,-0.0132448,0.0333633
-0.089933,0.038349,-1.85531,-0.582953,-1.79344,-0.673176,0.115167,-0.0106411,0.0317408
-0.089933,0.038349,-1.85531,-0.582953,-1.79344,-0.673176,0.115167,-0.0106411,0.0317408
-0.125263,0.0265497,-1.87134,-0.748766,-1.71858,-0.791655,0.119932,0.0218316,0.0367066
-0.157485,0.0139156,-1.88794,-0.629155,-1.61537,-0.524876,0.162954,-0.00445645,0.0327562
-0.190056,0.00715449,-1.89554,-0.140136,-1.55887,-0.173062,0.251425,-0.132402,-0.115077
-0.220493,0.00945147,-1.89888,0.215549,-1.50826,-0.248733,0.283811,-0.0347686,-0.157921
-0.24908,0.0148202,-1.90491,0.125455,-1.32823,-0.453408,0.173884,0.0418735,-0.129325
-0.270567,0.0183344,-1.91469,-0.0513567,-0.70163,-0.563769,0.0678009,0.0234756,0.000734687
-0.277552,0.0199796,-1.9251,-0.0106773,-0.108614,-0.447119,0.0182861,-0.0106766,0.131978
-0.276334,0.0242946,-1.93168,0.275265,0.127912,-0.305973,0.00831562,0.00218225,0.038896
-0.273769,0.0339522,-1.93457,0.530127,0.150221,-0.262518,0.00177383,0.0451303,-0.032364
-0.269129,0.0460625,-1.93766,0.51228,0.294773,-0.374192,-0.0093838,0.0720014,0.0776501
-0.262224,0.0570818,-1.94365,0.387871,0.340832,-0.480224,-0.0422944,0.0695935,0.0641115
-0.255018,0.0663058,-1.9518,0.300537,0.327391,-0.531502,-0.0390933,0.0593908,0.0226613
-0.246866,0.074006,-1.9613,0.218877,0.398833,-0.571981,-0.0741429,0.0383855,0.0394164
-0.238725,0.0806712,-1.97079,0.253299,0.231344,-0.426515,-0.0385668,0.0146505,0.00630695
-0.239872,0.0894671,-1.97234,0.564944,-0.371912,0.0418334,0.170664,-0.151726,-0.285873
-0.250514,0.100077,-1.9692,0.433088,-0.583607,-0.0608222,0.169971,-0.0701488,-0.226034
-0.262197,0.105372,-1.97183,0.0306143,-0.508328,-0.296253,0.0483077,0.0600418,-0.0767655
-0.267002,0.104864,-1.97641,-0.133213,-0.211241,-0.044643,-0.0364366,-0.092792,0.131692
-0.273454,0.103275,-1.97562,0.00982235,-0.398036,0.122505,-0.121837,-0.105588,-0.0747112
-0.281821,0.104349,-1.97384,0.115188,-0.318819,-0.0329826,-0.103626,0.0599852,0.00806016
-0.283797,0.108498,-1.97673,0.222923,0.0758408,-0.326144,-0.0328161,0.098459,0.209619
-0.279538,0.116036,-1.98262,0.336345,0.210597,-0.416468,-0.0797489,0.0660936,0.109764
-0.275159,0.125786,-1.98821,0.412523,0.17751,-0.364488,0.0111611,0.0555999,0.0367183
-0.271911,0.134733,-1.99248,0.314093,0.0372955,-0.265796,0.0226082,-0.00913726,0.0182503
-0.272805,0.139883,-1.99529,0.0821324,-0.134634,-0.118359,0.083636,-0.116355,-0.0796366
-0.278911,0.139231,-1.99468,-0.152021,-0.539267,0.18316,0.0769356,-0.207136,-0.0726054
-0.294344,0.132429,-1.9912,-0.365465,-0.934391,0.282877,0.123189,-0.0879891,-0.141078
-0.31431,0.123297,-1.98935,-0.415045,-0.945214,0.138661,0.017415,0.0552205,-0.0446129
-0.327382,0.117489,-1.99081,-0.124162,-0.249302,-0.0857462,-0.0358613,0.153382,0.197684
-0.322456,0.119811,-1.99292,0.238004,0.640121,-0.147268,0.00359049,0.100176,0.364054
-0.307202,0.126548,-1.99353,0.335337,0.791269,-0.129698,0.074465,0.0150199,0.200887
-0.292511,0.132612,-1.99502,0.162231,0.612255,-0.204145,0.0982492,0.0665801,0.103687
-0.282385,0.134864,-1.99996,-0.0780138,0.319014,-0.316575,0.0970392,0.0869554,0.0390753
-0.278621,0.133066,-2.00653,-0.260292,-0.0378818,-0.204392,0.10463,-0.0113844,-0.0549372
-0.282313,0.127319,-2.00893,-0.338719,-0.316385,0.128891,0.0855885,-0.143578,-0.131116
-0.29312,0.11863,-2.00588,-0.399039,-0.815069,0.408096,0.0757286,-0.172938,-0.202793
-0.311549,0.107746,-2.00086,-0.493021,-0.75168,0.302954,-0.056404,-0.124137,-0.12942
-0.319823,0.0978684,-2.00129,-0.386827,-0.037106,-0.0312018,-0.0789054,0.100062,0.151963
-0.312963,0.0954397,-2.00551,0.0479135,0.625491,-0.260799,-0.0908455,0.100223,0.166761
-0.299018,0.101532,-2.00921,0.366695,0.579532,-0.218653,-0.0159102,0.0513241,-0.000177205
-0.293544,0.108541,-2.00902,0.222798,-0.0712866,0.0358614,0.0377662,-0.0686588,-0.239907
-0.301623,0.108052,-2.00655,-0.202236,-0.66602,0.193195,0.067677,-0.0996622,-0.22651
-0.317389,0.100462,-2.00393,-0.346731,-0.743478,0.279855,0.0541967,-0.110477,-0.106418
-0.33108,0.0941897,-2.0005,-0.144499,-0.667788,0.202257,-0.0169522,-0.0855913,0.0200064
-0.347873,0.0916263,-1.99846,-0.0243702,-1.00257,0.12571,0.0657721,-0.00573087,-0.192979
-0.370622,0.0911821,-1.99433,0.119061,-1.18746,0.288544,0.0271644,-0.118234,-0.175484
-0.3904,0.0919606,-1.9877,0.187692,-0.604531,0.225317,-0.0745866,-0.0556452,0.0780607
-0.396267,0.0957936,-1.98386,0.351473,0.0689637,-0.0199244,-0.125695,0.113607,0.19135
-0.396267,0.0957936,-1.98386,0.351473,0.0689637,-0.0199244,-0.125695,0.113607,0.19135
-0.391802,0.105707,-1.98248,0.582185,0.337952,-0.229539,-0.118812,0.0823019,0.108868
-0.380953,0.119562,-1.98269,0.658206,0.702727,-0.261489,0.0199838,0.0861501,0.240211
-0.366246,0.13293,-1.98229,0.570055,0.736206,-0.216451,0.0199769,0.0343338,0.202343
-0.353378,0.143155,-1.98347,0.311724,0.47051,-0.231518,0.0751493,0.0524569,0.171852
-0.348271,0.146181,-1.98579,-0.117081,0.00825412,-0.0598328,0.100252,-0.0452112,0.0621718
-0.351793,0.139388,-1.98655,-0.531347,-0.31941,0.223997,0.101768,-0.145578,0.0200599
-0.358803,0.124598,-1.98501,-0.746983,-0.325717,0.400573,0.0520597,-0.143638,0.0220617
-0.36463,0.107821,-1.9826,-0.689981,-0.21652,0.400825,0.00918067,-0.0614091,-0.0142695
-0.368111,0.0944331,-1.9797,-0.433521,-0.0956665,0.325313,-0.0636397,0.00464741,-0.0463375
-0.369403,0.0874299,-1.97737,-0.126821,-0.0373125,0.132588,-0.0895084,0.0753099,-0.0711562
-0.368484,0.0876798,-1.97667,0.165673,0.184443,-0.0793784,-0.0964125,0.0604068,-0.0469207
-0.361919,0.0941608,-1.97802,0.363487,0.407756,-0.264654,-0.0751566,0.069806,0.0229034
-0.352983,0.103726,-1.98141,0.394683,0.413336,-0.364658,-0.034959,0.0644622,-0.00862271
-0.344957,0.113469,-1.98549,0.37812,0.362943,-0.327701,0.0147382,-0.000650451,-0.0197348
-0.337654,0.121947,-1.98816,0.310962,0.303368,-0.194211,0.0708188,-0.0551738,0.0212747
-0.332753,0.127015,-1.98869,0.133936,0.182438,-0.0222558,0.10499,-0.0990797,-0.00582647
-0.330745,0.12734,-1.98762,-0.0653929,0.0404007,0.100469,0.114965,-0.0880613,-0.0137767
-0.33045,0.124219,-1.9857,-0.151991,0.00901533,0.182725,0.114892,-0.0760819,0.0184114
-0.332473,0.119432,-1.98209,-0.170054,-0.157579,0.321211,0.129019,-0.0992351,-0.0688654
-0.336436,0.113884,-1.97546,-0.14134,-0.167182,0.471522,0.0973192,-0.110987,-0.0087105
-0.341331,0.10751,-1.96642,-0.172575,-0.201779,0.57418,0.0682066,-0.102154,-0.0237935
-0.345845,0.099593,-1.95661,-0.238162,-0.135902,0.583634,-0.00527868,-0.0468118,0.0199441
-0.347628,0.091697,-1.94847,-0.206928,0.0462078,0.414319,-0.0704615,0.0476843,0.0738984
-0.345446,0.0868638,-1.94394,-0.0783223,0.227498,0.171025,-0.111391,0.103539,0.065856
-0.338923,0.0867084,-1.94256,0.112425,0.416203,-0.0258435,-0.111374,0.111395,0.0729473
-0.32952,0.0907258,-1.94312,0.219735,0.475099,-0.148303,-0.0689317,0.0903267,0.0527037
-0.323821,0.0953078,-1.94493,0.123387,0.0634509,-0.146676,-0.00225294,0.0357306,-0.137361
-0.320781,0.0978326,-1.94735,0.0652153,0.30827,-0.189219,-0.0606959,0.0474295,0.0557185
-0.31118,0.101334,-1.95149,0.138803,0.553872,-0.294331,-0.015091,0.0720162,0.146644
-0.300656,0.105447,-1.9566,0.0690899,0.319646,-0.288482,0.0118326,0.0333672,-0.00104463
-0.299734,0.106441,-1.96057,-0.079068,-0.173144,-0.0875199,0.0715951,-0.0647046,-0.222157
-0.302692,0.104768,-1.96064,-0.0628801,-0.0674286,0.102896,0.043023,-0.108559,-0.00647628
-0.302586,0.103263,-1.95866,-0.0312104,0.0507794,0.101551,0.036271,-0.0401246,0.0468199
-0.302115,0.102202,-1.95759,-0.0344784,0.0155127,0.0369972,0.0260594,0.0105022,-0.0171303
-0.300568,0.102111,-1.95664,0.0790083,0.163121,0.0728659,0.00475609,0.0030565,0.058195
-0.297293,0.103405,-1.95454,0.0730622,0.181034,0.0780283,0.0137647,-0.0132339,0.0423039
-0.294335,0.103469,-1.95284,-0.0255381,0.140975,0.0857132,0.0299001,-0.00869972,0.0322757
-0.292602,0.100999,-1.9516,-0.171996,0.0713755,0.0988353,0.00242883,-0.0215638,-0.000645161
-0.290718,0.0965953,-1.95091,-0.209173,0.108624,0.099346,0.00532067,-0.0155848,0.0436753
-0.289718,0.0917713,-1.95034,-0.256338,-0.0249969,0.0870638,-0.00951171,-0.020357,-0.0241168
-0.289608,0.0867385,-1.94989,-0.191549,0.00830537,0.0931488,-0.0138828,-0.0177556,-0.00827485
-0.29005,0.0831979,-1.94946,-0.137846,-0.0162123,0.0607604,0.0160751,-0.0178807,-0.0740461
-0.289629,0.0809679,-1.94901,-0.063899,0.0182533,0.0366208,0.00402144,-0.0328748,-0.0126395
-0.289012,0.0800084,-1.94835,0.00300445,0.0937352,0.0526367,-0.0240118,-0.0324579,-0.052246
-0.290681,0.0793211,-1.94879,-0.112711,-0.297945,-0.0566821,0.0492992,0.0308676,-0.133525
-0.298342,0.076631,-1.95058,-0.169369,-0.42965,-0.0183456,0.00280496,-0.0192386,-0.099882
-0.307083,0.0741812,-1.95138,-0.0697688,-0.357027,0.00329693,-0.0116313,-0.0090777,-0.0555515
-0.310282,0.075339,-1.95088,0.22337,0.00971119,0.00590541,-0.0313692,0.0265159,0.0903696
-0.310282,0.075339,-1.95088,0.22337,0.00971119,0.00590541,-0.0313692,0.0265159,0.0903696
-0.309322,0.0822519,-1.94941,0.428699,0.0361899,-0.104207,-0.0408393,0.0357572,0.0271397
-0.313268,0.0907239,-1.9517,0.258027,-0.407344,-0.376681,-0.00164628,0.125985,-0.118392
-0.320116,0.0971389,-1.9589,0.189154,-0.223014,-0.441334,0.0131139,0.0641035,0.0171118
-0.318214,0.104595,-1.96402,0.363113,0.39298,-0.251399,-0.0361134,-0.0372121,0.202097
-0.305285,0.113516,-1.96499,0.409113,0.812698,-0.136013,-0.0368795,-0.0216766,0.205588
-0.287191,0.120921,-1.96541,0.292765,1.04935,-0.115792,-0.00410253,0.000234254,0.105483
-0.26105,0.127285,-1.96632,0.303493,1.46832,-0.183392,-0.0708205,0.0480992,0.276434
-0.232896,0.134562,-1.97034,0.281719,1.18823,-0.366184,0.0466722,0.060807,0.057987
-0.213088,0.140365,-1.97688,0.13742,0.631916,-0.339708,0.135547,0.0183687,-0.0756414
-0.205094,0.142061,-1.98104,-0.0653251,0.177909,-0.0775834,0.141732,-0.0972773,-0.119367
-0.20314,0.138402,-1.98066,-0.279994,0.0523248,0.181595,0.114001,-0.155848,-0.0475973
-0.202975,0.130063,-1.97634,-0.432575,0.0250024,0.397381,0.0853792,-0.159839,-0.034844
-0.203712,0.119141,-1.96888,-0.470662,-0.038392,0.519157,0.0411888,-0.0990519,-0.035997
-0.206864,0.10823,-1.96011,-0.385781,-0.189664,0.563308,0.0656254,-0.0536481,-0.0911488
-0.211258,0.0998378,-1.94976,-0.230525,-0.083535,0.59255,-0.022311,-0.0353377,-0.018724
-0.212466,0.0940636,-1.93954,-0.121589,0.0809141,0.5017,-0.0368263,0.0214457,0.0126823
-0.209934,0.0908049,-1.93136,-0.0297436,0.195029,0.363385,-0.00799358,0.0324527,0.0332803
-0.210353,0.0890162,-1.92818,-0.0641507,-0.0290368,0.213706,0.0897842,0.127122,-0.145788
-0.208651,0.0873739,-1.92218,0.0585958,0.155966,0.329174,0.0127622,-0.0262626,0.0610203
-0.206261,0.0881321,-1.91617,0.102546,0.103543,0.233972,0.020108,0.00719223,0.000242651
-0.207226,0.088408,-1.91286,-0.0302316,-0.20054,0.0640061,0.0369277,0.0692499,-0.0680173
-0.21448,0.0864768,-1.91407,-0.165229,-0.509378,-0.125283,0.0509417,0.0820813,-0.111998
-0.22492,0.0837582,-1.91814,-0.162998,-0.481042,-0.188711,0.0464961,0.0397303,-0.0643415
-0.23002,0.0824331,-1.92171,-0.0363756,-0.00540129,-0.107994,0.0252426,-0.0322232,0.0463748
-0.224627,0.083331,-1.92225,0.106406,0.521077,0.0286667,-0.00599602,-0.0774405,0.0691048
-0.210071,0.0862965,-1.92044,0.209052,0.901326,0.0605263,-0.00673951,-0.0456465,0.0580865
-0.192157,0.0908453,-1.91902,0.260889,0.822929,-0.0291371,0.0308567,-0.00620344,-0.0402296
-0.177381,0.0966869,-1.92023,0.278973,0.690498,-0.199828,0.019332,0.041391,-0.0818725
-0.162816,0.102829,-1.92443,0.243871,0.734568,-0.283936,0.0146353,0.00264166,-0.00989276
-0.14582,0.107639,-1.92885,0.166773,0.888716,-0.204629,0.00424968,-0.0470941,0.0365022
-0.127363,0.110791,-1.93133,0.0981966,0.932304,-0.0878354,0.0182843,-0.0664681,0.0057469
-0.108836,0.111937,-1.93229,-0.00142907,0.861106,-0.0389805,0.0308536,-0.0493839,-0.0218274
-0.0933891,0.110962,-1.93339,-0.096399,0.649969,-0.063981,0.0530986,-0.011397,-0.0839976
-0.0813594,0.108601,-1.93474,-0.138104,0.583388,-0.0340245,0.0540422,-0.0135302,-0.0891662
-0.0684634,0.106146,-1.93475,-0.0924363,0.706456,0.0527722,0.059419,-0.0249891,-0.0344927
-0.0528555,0.105132,-1.93285,0.00659624,0.862645,0.131323,0.0683168,-0.00481766,-0.011503
-0.0340105,0.106442,-1.93003,0.140253,1.05078,0.12879,0.0679759,0.042826,0.0196443
-0.0100829,0.110718,-1.92797,0.282984,1.39223,0.0650918,0.0611227,0.0912351,0.108786
0.0228136,0.117274,-1.9271,0.343533,1.86249,0.0395005,0.0745283,0.108003,0.205733
0.0601177,0.123156,-1.92608,0.202067,1.67971,0.093287,0.116491,0.0923275,0.0655689
0.0846948,0.12475,-1.92442,-0.079611,0.74598,0.0438826,0.177081,0.16413,-0.211844
0.0901863,0.119407,-1.92537,-0.452199,-0.14674,-0.203206,0.177423,0.21295,-0.30652
0.0834568,0.105837,-1.93051,-0.844791,-0.485274,-0.390774,0.146141,0.148578,-0.255837
0.0749107,0.0853845,-1.9364,-1.09835,-0.400411,-0.313803,0.108324,0.0540003,-0.206953
0.0684665,0.0627372,-1.9393,-1.09324,-0.276314,-0.135494,0.0985306,-0.00169607,-0.248278
0.0628258,0.0424037,-1.93895,-0.919243,-0.338612,0.0409266,0.0899667,-0.012266,-0.314134
0.0532366,0.025872,-1.93495,-0.7669,-0.612537,0.27305,0.0777878,-0.0172217,-0.376125
0.0532366,0.025872,-1.93495,-0.7669,-0.612537,0.27305,0.0777878,-0.0172217,-0.376125
0.0382226,0.0110368,-1.92601,-0.774783,-0.848146,0.545889,0.0484438,-0.0461076,-0.359464
0.0207028,-0.00537657,-1.91309,-0.908648,-0.8476,0.63783,0.00595608,-0.0453698,-0.303787
0.00540945,-0.0247932,-1.90171,-1.01725,-0.691711,0.447507,-0.0250458,0.00185122,-0.268205
-0.00700756,-0.0445537,-1.89478,-0.906308,-0.591548,0.265687,-0.0226778,0.0170913,-0.315516
-0.0193974,-0.0595815,-1.89027,-0.558713,-0.679687,0.221427,0.00420983,0.00354888,-0.375528
-0.0335081,-0.0666798,-1.88574,-0.139051,-0.739781,0.243448,0.0281325,0.00526907,-0.345754
-0.0486878,-0.0663491,-1.88106,0.164865,-0.811545,0.205812,0.049416,0.0208883,-0.281413
-0.0654077,-0.0616193,-1.87757,0.303454,-0.863703,0.105325,0.0561427,0.0260051,-0.20969
-0.0823551,-0.0548929,-1.87614,0.365074,-0.805629,-0.00728429,0.0597688,0.0154014,-0.106941
-0.0966217,-0.0470033,-1.87605,0.423205,-0.605033,-0.0433964,0.0675563,-0.0103191,-0.00664854
-0.106502,-0.0375969,-1.87566,0.518199,-0.38126,-0.0054867,0.0807743,-0.0321406,0.054636
-0.112216,-0.0261649,-1.87422,0.62434,-0.196293,0.0183724,0.0811655,-0.0446098,0.0965655
-0.114485,-0.0130185,-1.87218,0.680137,-0.0339806,0.037549,0.0728898,-0.0499597,0.140632
-0.11321,0.000130015,-1.86939,0.634268,0.160821,0.0928357,0.0435251,-0.0833966,0.179893
-0.107821,0.0113304,-1.86565,0.506485,0.399549,0.146547,0.00929317,-0.0981211,0.226215
-0.0960245,0.0196341,-1.86148,0.357022,0.811712,0.181954,-0.040616,-0.112051,0.313423
-0.0737485,0.0249775,-1.85658,0.212939,1.43791,0.27894,-0.0908158,-0.139927,0.419929
-0.0382838,0.0273255,-1.849,0.0500807,2.10487,0.479912,-0.12034,-0.195197,0.487114
0.0102256,0.025583,-1.83611,-0.237624,2.74347,0.825302,-0.138686,-0.252984,0.516665
0.0695432,0.0169613,-1.81463,-0.73707,3.1535,1.28749,-0.120976,-0.303199,0.519595
0.135299,-0.00109348,-1.78151,-1.40577,3.41848,1.78965,-0.0842731,-0.290446,0.50203
0.195784,-0.0270744,-1.73829,-1.80263,2.71569,1.96848,0.0271391,-0.0957204,-0.0104308
0.245042,-0.0518964,-1.69275,-1.43043,1.79872,1.82244,-0.00788066,0.0787269,-0.0392205
0.269128,-0.0617597,-1.65655,-0.408891,0.42188,1.40698,0.0181852,0.149065,-0.352334
0.267547,-0.05543,-1.63201,0.188658,-0.641986,1.14819,0.0240181,0.0862762,-0.336665
0.248328,-0.049097,-1.61021,-0.195938,-1.4474,1.05832,-0.0277903,-0.0585224,-0.166273
0.213932,-0.0519272,-1.59351,-0.467418,-1.89944,0.540812,-0.166607,-0.0209896,-0.190022
0.176318,-0.0621834,-1.58198,-0.749109,-1.90395,0.433277,-0.0536829,-0.0387669,0.0266456
0.137844,-0.0770467,-1.57131,-0.844754,-1.93955,0.382143,-0.111946,-0.114568,0.0144467
0.103168,-0.0918181,-1.56124,-0.689448,-1.54519,0.451468,-0.0915806,-0.121413,0.10823
0.0787231,-0.10172,-1.55098,-0.38117,-0.964078,0.435382,-0.121265,-0.138272,0.166417
0.0669964,-0.105615,-1.54349,-0.0658012,-0.27003,0.263499,-0.161971,-0.104488,0.19018
0.0681994,-0.103154,-1.54014,0.293179,0.334702,0.0829685,-0.166387,-0.108922,0.169237
0.0812235,-0.0937274,-1.54075,0.618934,0.987887,-0.0516307,-0.164946,-0.121727,0.167087
0.107124,-0.0795579,-1.54412,0.805703,1.61116,-0.163293,-0.173079,-0.134924,0.184238
0.144167,-0.0623145,-1.55153,0.992681,2.08895,-0.363223,-0.168292,-0.104419,0.178348
0.18881,-0.0428498,-1.56369,1.07915,2.37387,-0.463693,-0.131534,-0.113332,0.174549
0.236147,-0.0250814,-1.57489,0.830915,2.33247,-0.203216,-0.0686321,-0.209268,0.147844
0.27966,-0.0118271,-1.57704,0.530303,1.92427,0.368833,-0.00981963,-0.311082,0.0364912
0.310929,0.00133004,-1.56777,0.470529,1.17913,0.832588,0.016094,-0.331205,-0.107445
0.326915,0.0153209,-1.55372,0.389372,0.429793,0.869654,-0.0245311,-0.212478,-0.145435
0.329236,0.0257996,-1.54076,0.159291,-0.127224,0.674558,-0.0314948,-0.0980131,-0.12977
0.322344,0.0298307,-1.53019,-0.114595,-0.516669,0.446869,-0.0617977,-0.0647325,-0.0904245
0.309495,0.0273573,-1.52197,-0.371798,-0.708184,0.279501,-0.0693868,-0.0705312,-0.0628225
0.293701,0.0201869,-1.51397,-0.513922,-0.815827,0.298144,-0.0851991,-0.112169,-0.0323197
0.277811,0.0129578,-1.50467,-0.395684,-0.726618,0.374165,-0.115324,-0.1387,-0.0310833
0.264355,0.0104849,-1.49642,-0.0247586,-0.619448,0.321077,-0.120373,-0.0825787,-0.0566577
0.252229,0.0166038,-1.49314,0.543415,-0.585211,0.129715,-0.0862905,0.00822598,-0.0976472
0.252229,0.0166038,-1.49314,0.543415,-0.585211,0.129715,-0.0862905,0.00822598,-0.0976472
0.241675,0.0325159,-1.49657,1.03209,-0.437384,-0.0487205,-0.0934052,0.0162443,-0.0834383
0.237508,0.0540447,-1.50259,1.11642,0.0402753,0.00493129,-0.139021,-0.059095,0.0316502
0.244012,0.0738522,-1.50555,0.819337,0.556824,0.178689,-0.105548,-0.0935581,0.10535
0.257898,0.0870468,-1.50391,0.421765,0.775645,0.28152,-0.0593043,-0.0371628,0.0447493
0.272277,0.0937544,-1.50023,0.146604,0.639205,0.219262,-0.0120682,0.04868,-0.0742874
0.281694,0.0955594,-1.4973,-0.0358033,0.320287,0.118059,0.0213955,0.105317,-0.154484
0.285089,0.0949486,-1.49484,-0.0704077,0.0801607,0.111034,0.0139391,0.103504,-0.142983
0.287649,0.0951173,-1.49208,0.0294809,0.251292,0.152174,-0.0139683,0.0881837,-0.00702989
0.29513,0.099027,-1.48974,0.301069,0.509072,0.173741,-0.0283617,0.0761449,0.0822191
0.306865,0.109172,-1.48903,0.629536,0.645664,0.204924,-0.00919637,0.0357284,0.0936062
0.321048,0.12473,-1.48751,0.764769,0.78287,0.467732,0.0228731,-0.0440656,0.0856679
0.335112,0.144647,-1.47972,0.871336,0.664634,0.881632,0.0759116,-0.0935281,-0.00372106
0.343205,0.168504,-1.46608,0.869297,0.346249,1.13573,0.108888,-0.0469071,-0.0528268
0.344439,0.190025,-1.44909,0.542682,0.0863853,1.10405,0.0876445,0.0139266,-0.0331216
0.340272,0.203045,-1.43237,0.142837,-0.172697,0.840192,0.0577717,0.0780866,-0.0298717
0.331384,0.207727,-1.4195,-0.0803924,-0.447818,0.499832,0.0323812,0.090529,-0.0402044
0.31861,0.207904,-1.41182,-0.124237,-0.645238,0.229764,0.00914216,0.0641059,-0.0270928
0.304413,0.206634,-1.40865,-0.0837847,-0.659154,0.0319425,-0.0121377,0.0333065,0.0377626
0.292597,0.205561,-1.40962,0.0114407,-0.529303,-0.159044,-0.0418891,0.0132593,0.1128
0.284444,0.205514,-1.41565,0.158664,-0.409501,-0.420547,-0.0716239,0.0189504,0.143492
0.279637,0.207243,-1.42839,0.353336,-0.338409,-0.713513,-0.0925493,0.0313398,0.141044
0.276654,0.211257,-1.4465,0.502076,-0.342885,-0.848892,-0.069297,0.00621296,0.116797
0.273463,0.217292,-1.46635,0.58669,-0.389931,-0.820183,-0.0592338,-0.0248467,0.0900108
0.269641,0.224763,-1.48476,0.595462,-0.375484,-0.694474,-0.0366933,-0.0423839,0.103502
0.26657,0.232594,-1.5007,0.560478,-0.278308,-0.597016,-0.038115,-0.0406155,0.119901
0.265418,0.240033,-1.5151,0.521433,-0.177549,-0.56289,-0.0527051,-0.0335363,0.12146
0.265738,0.24656,-1.52908,0.45434,-0.136677,-0.568118,-0.0639133,-0.0394842,0.107334
0.265912,0.251434,-1.54266,0.349984,-0.185815,-0.566827,-0.0631509,-0.0505693,0.0794736
0.26476,0.254098,-1.55538,0.227102,-0.243175,-0.547587,-0.0539038,-0.0609144,0.0576237
0.262572,0.254659,-1.56704,0.116206,-0.262116,-0.520793,-0.0487557,-0.0762554,0.0383705
0.260085,0.253198,-1.57749,0.00170111,-0.247127,-0.484212,-0.0452888,-0.0923791,0.0162453
0.257293,0.249741,-1.5866,-0.103685,-0.261765,-0.456664,-0.0315269,-0.0848474,-0.0192188
0.253394,0.244929,-1.59498,-0.141167,-0.337443,-0.448015,-0.00941415,-0.0603234,-0.0650215
0.247738,0.240331,-1.6038,-0.0775491,-0.436773,-0.50312,-0.00461288,-0.0350475,-0.104628
0.240839,0.237326,-1.61495,0.0408127,-0.494814,-0.613902,-0.0164391,-0.0340603,-0.125358
0.234534,0.235646,-1.62838,0.0931467,-0.431363,-0.68152,-0.041931,-0.0614816,-0.0990413
0.230613,0.234218,-1.64309,0.0885384,-0.289394,-0.734464,-0.0138376,-0.0205726,-0.0948637
0.229459,0.232652,-1.65835,0.111101,-0.184278,-0.72453,-0.0132082,-0.0169995,-0.11194
0.229936,0.232327,-1.67344,0.192704,-0.127915,-0.717519,-0.00682601,0.0013915,-0.130024
0.230886,0.233505,-1.68954,0.28214,-0.162304,-0.781628,0.00120156,0.0513508,-0.147071
0.230946,0.23638,-1.70787,0.401931,-0.258494,-0.883469,0.00631806,0.0802846,-0.141479
0.22945,0.241461,-1.72871,0.560642,-0.376285,-0.946857,0.0228701,0.0971845,-0.115066
0.226443,0.250476,-1.75096,0.803804,-0.451765,-0.934663,0.00629404,0.0775772,-0.0550526
0.223394,0.264075,-1.77376,0.973602,-0.405827,-0.90444,-0.0640039,0.0438839,0.0310534
0.222954,0.278772,-1.79646,0.892907,-0.225482,-0.89214,-0.134512,0.0329726,0.111075
0.226501,0.289927,-1.81799,0.633868,-0.0318991,-0.859744,-0.170687,0.0190666,0.12753
0.232711,0.295842,-1.83735,0.369753,0.0708288,-0.806255,-0.172868,0.00895298,0.0831622
0.239052,0.297886,-1.85514,0.246025,0.0227237,-0.8015,-0.136144,0.0536317,-0.00477356
0.239052,0.297886,-1.85514,0.246025,0.0227237,-0.8015,-0.136144,0.0536317,-0.00477356
0.243601,0.298856,-1.87311,0.275745,-0.104086,-0.833227,-0.0933611,0.0960625,-0.0747998
0.245197,0.301267,-1.89226,0.404991,-0.309676,-0.87858,-0.0504785,0.12481,-0.108026
0.242936,0.306285,-1.91304,0.561687,-0.52823,-0.912309,-0.0209227,0.147603,-0.106123
0.237576,0.314402,-1.93501,0.709994,-0.654559,-0.910127,-0.0154221,0.145887,-0.0634013
0.231125,0.325173,-1.95684,0.795342,-0.650747,-0.841411,-0.0297213,0.129119,0.0065046
0.225329,0.337138,-1.97715,0.782697,-0.580117,-0.748943,-0.04813,0.0996776,0.0620915
0.220587,0.348575,-1.99536,0.693318,-0.499341,-0.665409,-0.0690926,0.0746676,0.0938293
0.216885,0.358271,-2.01145,0.572076,-0.426803,-0.595793,-0.0768761,0.0592738,0.106886
0.213645,0.365682,-2.0257,0.4357,-0.404166,-0.545097,-0.0732336,0.0518916,0.100194
0.210187,0.370752,-2.03854,0.307247,-0.399728,-0.517562,-0.0702451,0.0401725,0.0926796
0.206226,0.373389,-2.0503,0.177449,-0.424088,-0.490514,-0.0623011,0.0241667,0.0822502
0.201068,0.373999,-2.06092,0.0844181,-0.477838,-0.463167,-0.0593387,0.00578234,0.0728108
0.194292,0.373267,-2.07092,0.0370158,-0.564534,-0.470254,-0.0728743,-0.00426799,0.0706648
0.186198,0.372172,-2.08192,0.0509911,-0.635689,-0.56286,-0.0857348,0.00505826,0.0715355
0.178221,0.371049,-2.09525,0.0511128,-0.611701,-0.663326,-0.0893787,-0.00453353,0.0937303
0.173167,0.368793,-2.10944,-0.0677839,-0.35862,-0.652347,-0.0698672,-0.0477899,0.138921
0.17493,0.36305,-2.12162,-0.310496,0.127245,-0.553392,-0.0494136,-0.087988,0.165013
0.185504,0.352843,-2.13033,-0.515062,0.582345,-0.426651,-0.0189353,-0.101012,0.112129
0.201196,0.341026,-2.13647,-0.497342,0.708154,-0.381776,0.00925341,-0.089084,-0.0260761
0.216239,0.331181,-2.14305,-0.324966,0.544109,-0.424981,0.0376101,-0.0528616,-0.157251
0.227245,0.324334,-2.15057,-0.206205,0.30655,-0.398224,0.0519705,-0.0766778,-0.198652
0.23296,0.318608,-2.15712,-0.221975,0.0669278,-0.338146,0.0346965,-0.115009,-0.185478
0.233914,0.311981,-2.16224,-0.321992,-0.144861,-0.288174,0.00280657,-0.145769,-0.160571
0.229804,0.302732,-2.16537,-0.519515,-0.3331,-0.210647,-0.0282191,-0.16528,-0.158092
0.222045,0.289489,-2.16603,-0.747025,-0.460216,-0.153402,-0.0326707,-0.132735,-0.141708
0.211756,0.272934,-2.16516,-0.844452,-0.510386,-0.114344,-0.0266459,-0.0843545,-0.141701
0.201645,0.256974,-2.1635,-0.702055,-0.447626,-0.0468844,0.00549877,-0.0245925,-0.124561
0.192741,0.246428,-2.16145,-0.347245,-0.387735,0.036677,0.0206423,0.0346674,-0.107174
0.185054,0.243823,-2.15957,0.0487354,-0.329186,0.0843351,0.0262155,0.0892381,-0.0611917
0.178685,0.248377,-2.15884,0.364833,-0.291805,0.0566466,0.0217336,0.137982,0.000739276
0.173822,0.257788,-2.15998,0.557338,-0.208502,0.0041815,0.0314211,0.154798,0.0675434
0.171796,0.270066,-2.16221,0.665288,-0.0367583,0.00822513,0.0455714,0.130305,0.138058
0.173614,0.283488,-2.16342,0.650558,0.184267,0.127199,0.069366,0.0990119,0.182881
0.178388,0.295893,-2.16104,0.49496,0.342727,0.315097,0.0961826,0.0765364,0.1962
0.18388,0.304119,-2.15414,0.166852,0.384881,0.463372,0.0957473,0.0816187,0.185875
0.187854,0.305189,-2.14366,-0.254294,0.304013,0.515756,0.0803173,0.090162,0.155257
0.188397,0.297984,-2.13142,-0.6496,0.0927845,0.478639,0.0700231,0.0987845,0.107336
0.184133,0.284456,-2.11975,-0.844325,-0.173443,0.358369,0.0631098,0.121746,0.0344247
0.176427,0.268573,-2.11043,-0.845631,-0.321917,0.241533,0.0436539,0.097189,0.00796086
0.16742,0.253754,-2.10331,-0.712219,-0.382372,0.186001,0.0391365,0.0642112,0.00235504
0.158089,0.241884,-2.0977,-0.545264,-0.398377,0.157597,0.0322102,0.0292358,0.0105239
0.149012,0.232849,-2.09343,-0.414907,-0.400793,0.110706,0.0185089,0.00382233,0.0335954
0.140479,0.225877,-2.09077,-0.313819,-0.391069,0.0408689,0.00938269,-0.00949833,0.049409
0.132578,0.220327,-2.08979,-0.25189,-0.371476,-0.0180372,0.00491685,-0.0285522,0.0599598
0.125275,0.215652,-2.08989,-0.216356,-0.352844,-0.0495277,0.00302333,-0.0610398,0.0608568
0.118685,0.211179,-2.09065,-0.221874,-0.319843,-0.0785755,0.00440236,-0.0877356,0.0556381
0.113287,0.206561,-2.09208,-0.214008,-0.243497,-0.115336,0.0128779,-0.100233,0.0483654
0.109726,0.202638,-2.09441,-0.14006,-0.153675,-0.150888,0.0225722,-0.118021,0.0321352
0.109726,0.202638,-2.09441,-0.14006,-0.153675,-0.150888,0.0225722,-0.118021,0.0321352
0.108135,0.200461,-2.09743,-0.0382367,-0.0688874,-0.159431,0.0445205,-0.132239,0.0143052
0.107666,0.20071,-2.10052,0.0921297,-0.0531306,-0.133191,0.0607298,-0.144782,-0.00843006
0.10664,0.203099,-2.10302,0.15783,-0.110245,-0.0870276,0.0666937,-0.155518,-0.0226844
0.103932,0.205956,-2.1047,0.125766,-0.194526,-0.043384,0.0575049,-0.172633,-0.0129426
0.0994652,0.207429,-2.10536,0.0251147,-0.248161,-0.0106103,0.0464431,-0.174045,-0.00752002
0.0945421,0.207098,-2.10543,-0.0608384,-0.234573,-0.00274999,0.0351946,-0.160499,-0.00399482
0.0904199,0.205672,-2.10546,-0.0754983,-0.194252,-0.0167598,0.0344854,-0.129607,-0.0159351
0.0864433,0.205084,-2.10646,0.0257847,-0.237645,-0.0942746,0.0447155,-0.0772494,-0.0688776
0.0814787,0.206809,-2.10972,0.160528,-0.330766,-0.204794,0.0474667,-0.0430293,-0.0998121
0.0751866,0.210834,-2.11532,0.257168,-0.38863,-0.295918,0.0291934,-0.0597677,-0.100376
0.0696772,0.215137,-2.12195,0.170144,-0.260514,-0.297859,0.00290695,-0.113743,-0.0624718
0.0684693,0.214814,-2.12724,-0.182022,0.0435136,-0.195939,0.0201317,-0.113083,-0.0677688
0.0730579,0.209368,-2.1291,-0.241198,0.362598,-0.0294467,0.0534179,-0.0693342,-0.173693
0.0820825,0.210114,-2.12883,0.397942,0.471876,0.0427082,0.0854318,0.0399613,-0.345201
0.0894566,0.226899,-2.12998,1.25532,0.193981,-0.0266955,0.105198,0.143964,-0.419512
0.0900476,0.258481,-2.13479,1.84097,-0.257447,-0.156549,0.106451,0.183438,-0.331724
0.0828816,0.296811,-2.14257,1.9521,-0.666033,-0.234816,0.0874592,0.1641,-0.160855
0.0686714,0.333973,-2.15015,1.74382,-0.942402,-0.177383,0.0523308,0.101908,0.0128637
0.0509241,0.365316,-2.15462,1.38155,-0.925874,-0.0462118,-0.00101906,0.0379541,0.155746
0.0348407,0.38942,-2.15518,1.00978,-0.661351,0.0959747,-0.05017,-0.000978887,0.233589
0.0241088,0.40624,-2.15213,0.65565,-0.28187,0.229896,-0.0701639,0.000565618,0.244137
0.0195082,0.416335,-2.14621,0.354149,0.04205,0.323369,-0.0710481,0.0294726,0.195485
0.0192145,0.421355,-2.13852,0.14278,0.214345,0.384399,-0.0527501,0.0667122,0.128813
0.0204214,0.423084,-2.12983,0.0284142,0.240241,0.397029,-0.0252265,0.0973572,0.0691382
0.0210179,0.423455,-2.12164,0.00414889,0.14043,0.338126,-0.00258902,0.131814,0.03156
0.0197535,0.424069,-2.1153,0.0541739,-0.00828196,0.236403,0.00639616,0.144489,0.0214435
0.0165974,0.426123,-2.1112,0.139489,-0.12959,0.147466,0.00801988,0.112776,0.0400119
0.0114739,0.429503,-2.10829,0.169019,-0.264675,0.145867,0.0264032,0.0678013,0.0599309
0.00293179,0.431765,-2.10366,0.0313748,-0.385363,0.294572,0.0534286,0.0270866,0.083777
-0.00922721,0.430706,-2.09488,-0.126616,-0.454153,0.493194,0.0627972,-0.00498796,0.112459
-0.023996,0.426983,-2.08249,-0.20884,-0.491885,0.622879,0.0611462,-0.00724527,0.127578
-0.0397144,0.421991,-2.06777,-0.243702,-0.465592,0.724484,0.0640988,-0.00256217,0.147777
-0.0554866,0.416056,-2.05102,-0.277431,-0.423635,0.826708,0.0576393,-0.019901,0.155546
-0.0710202,0.408937,-2.03198,-0.326304,-0.361284,0.946632,0.0455934,-0.0469915,0.158807
-0.0858134,0.400016,-2.01085,-0.412657,-0.276396,1.0427,0.0328146,-0.0652027,0.153978
-0.0987271,0.388708,-1.98854,-0.517981,-0.152548,1.09093,0.0230984,-0.0695392,0.145854
-0.108585,0.374876,-1.96617,-0.637134,0.00656977,1.10005,0.0153351,-0.0717704,0.118447
-0.114556,0.358734,-1.94476,-0.72252,0.158198,1.04355,0.0124548,-0.0666661,0.0702349
-0.116872,0.342153,-1.92559,-0.689949,0.253658,0.919166,0.023681,-0.0494171,0.00692761
-0.116622,0.327481,-1.90944,-0.579265,0.294972,0.757421,0.0323392,-0.0424615,-0.0439511
-0.114795,0.315417,-1.89639,-0.474921,0.290532,0.609936,0.0308896,-0.0630776,-0.0734734
-0.112684,0.305322,-1.88566,-0.419244,0.245606,0.519237,0.0303865,-0.100874,-0.107352
-0.111467,0.296244,-1.87622,-0.375951,0.143106,0.473961,0.0295625,-0.125718,-0.143688
-0.111508,0.288403,-1.86784,-0.311921,0.11645,0.40438,-0.00165585,-0.154589,-0.156233
-0.110599,0.281633,-1.85994,-0.285053,0.226401,0.451215,-0.0587242,-0.224349,-0.147302
-0.106056,0.274166,-1.84981,-0.378506,0.539345,0.584999,-0.0716348,-0.219734,-0.12012
-0.0941259,0.263791,-1.83796,-0.51691,0.953667,0.632668,-0.0456015,-0.0930023,-0.126847
-0.0747254,0.253212,-1.82607,-0.378315,1.24472,0.574942,-0.0105189,0.0534472,-0.197553
-0.0747254,0.253212,-1.82607,-0.378315,1.24472,0.574942,-0.0105189,0.0534472,-0.197553
-0.0520324,0.249271,-1.81607,0.0801771,1.19941,0.40266,0.0312212,0.184487,-0.273399
-0.0326763,0.256323,-1.8091,0.641181,0.886007,0.252783,0.0574668,0.234986,-0.282547
-0.0189045,0.273797,-1.80408,1.07057,0.63038,0.198671,0.0565445,0.219455,-0.180747
-0.00889167,0.29751,-1.79954,1.24988,0.515151,0.215937,0.0508899,0.197712,-0.0446092
-0.000641141,0.322513,-1.79404,1.20974,0.483026,0.298559,0.0312172,0.150401,0.0675366
0.00661276,0.344884,-1.78666,0.985976,0.479729,0.404361,0.0152305,0.108199,0.139794
0.0128342,0.361201,-1.7768,0.608233,0.476178,0.53524,0.00250536,0.074635,0.179033
0.0174657,0.369295,-1.76394,0.190676,0.429755,0.662743,-0.0107332,0.0640216,0.182165
0.0199491,0.37013,-1.7491,-0.117376,0.352142,0.695695,-0.0299799,0.0729492,0.159161
0.0214823,0.365779,-1.73473,-0.331336,0.337858,0.616858,-0.0538578,0.0909988,0.154638
0.0244376,0.358013,-1.72256,-0.454193,0.390011,0.496753,-0.0668769,0.0841638,0.148122
0.0295636,0.348766,-1.71311,-0.475928,0.441029,0.361744,-0.0656978,0.0608855,0.122139
0.0361554,0.339881,-1.70631,-0.416046,0.43343,0.250296,-0.0540687,0.0349125,0.0857483
0.042781,0.33274,-1.70173,-0.305528,0.364683,0.155062,-0.0372026,0.0070079,0.0551413
0.0482964,0.327793,-1.69918,-0.199873,0.265423,0.0628292,-0.0199655,-0.0159668,0.046756
0.0528193,0.324625,-1.69864,-0.123173,0.207772,-0.0237752,-0.0054206,-0.0449228,0.063392
0.0569421,0.322625,-1.69952,-0.0792991,0.175485,-0.054731,0.00419141,-0.0784051,0.0846562
0.0604872,0.321229,-1.70025,-0.0565792,0.151196,-0.015822,0.00906334,-0.106111,0.09465
0.0631965,0.320434,-1.69991,-0.0218747,0.127188,0.0387069,0.00935037,-0.113977,0.0929866
0.0651921,0.320555,-1.69914,0.0288261,0.0978522,0.0261897,-0.012923,-0.107514,0.0833361
0.0669449,0.321414,-1.6993,0.0533699,0.0748972,-0.0431538,-0.0407183,-0.106898,0.073694
0.0689287,0.322296,-1.70122,0.0257002,0.0615714,-0.136223,-0.0644886,-0.110394,0.051071
0.0711656,0.322437,-1.70506,-0.00476517,0.0296077,-0.221444,-0.0740482,-0.11496,0.0116629
0.073046,0.322638,-1.71056,0.046839,-0.00677248,-0.29387,-0.0811783,-0.107659,-0.0470162
0.0749264,0.324074,-1.71752,0.127551,-0.0236125,-0.352558,-0.0909335,-0.106679,-0.0848955
0.0767438,0.326679,-1.72614,0.180245,-0.0799142,-0.452051,-0.101712,-0.0846181,-0.124003
0.0777424,0.329998,-1.73781,0.233263,-0.203915,-0.626866,-0.0998713,-0.042414,-0.170386
0.0769155,0.33439,-1.75345,0.327574,-0.392397,-0.804884,-0.0959295,-0.0221949,-0.197083
0.073602,0.340964,-1.77303,0.451796,-0.560377,-0.972646,-0.102948,-0.0480353,-0.199157
0.0700722,0.348406,-1.79514,0.403475,-0.483137,-1.00862,-0.131467,-0.126434,-0.125407
0.0708931,0.353434,-1.81619,0.227404,-0.14339,-0.908383,-0.0887943,-0.126535,-0.0419196
0.0769289,0.356226,-1.83467,0.219911,0.0767343,-0.796463,-0.0320501,-0.0722499,-0.0847175
0.0851833,0.361632,-1.85163,0.465428,0.127398,-0.740703,0.00491059,-0.00877804,-0.136567
0.092664,0.372589,-1.8688,0.751566,-0.0260072,-0.754174,0.0238179,0.0567311,-0.15145
0.0962163,0.388136,-1.88721,0.93043,-0.311785,-0.80327,0.0211397,0.10202,-0.111319
0.0944396,0.405874,-1.90757,0.979872,-0.646339,-0.884709,-0.000654906,0.12288,-0.0155429
0.0875907,0.422727,-1.92935,0.830694,-0.879842,-0.928989,-0.046804,0.106248,0.0997615
0.0783659,0.434715,-1.95132,0.499839,-0.91361,-0.953554,-0.112844,0.0742588,0.193071
0.0709477,0.439272,-1.97313,0.100387,-0.708816,-0.968166,-0.167872,0.0320469,0.245894
0.0694402,0.436638,-1.99434,-0.203022,-0.324388,-0.947712,-0.190057,-0.00122264,0.249347
0.0745369,0.429726,-2.01367,-0.339217,0.00261687,-0.832611,-0.166544,-0.00510085,0.190064
0.0825051,0.420516,-2.02994,-0.47749,0.0676928,-0.721691,-0.122961,0.0317668,0.0979293
0.0871392,0.407096,-2.04452,-0.758817,-0.240912,-0.730183,-0.0807863,0.10589,-0.019719
0.0830969,0.38786,-2.05937,-1.002,-0.737398,-0.785084,-0.0379719,0.178654,-0.09995
0.0690653,0.36599,-2.07476,-1.02703,-1.19999,-0.793427,-0.0184651,0.171946,-0.0789542
0.0477215,0.345306,-2.09047,-0.931223,-1.41868,-0.798137,-0.0415306,0.135497,0.0415701
0.0253889,0.327712,-2.10731,-0.760156,-1.295,-0.84929,-0.0538355,0.129816,0.175327
0.00937224,0.312817,-2.12504,-0.731432,-0.796714,-0.825568,-0.048819,0.112031,0.287137
0.00937224,0.312817,-2.12504,-0.731432,-0.796714,-0.825568,-0.048819,0.112031,0.287137
0.00536702,0.29685,-2.14052,-0.84281,-0.0628047,-0.635814,-0.0537162,0.0605455,0.325496
0.0137241,0.279941,-2.15143,-0.78925,0.546504,-0.435367,-0.0408536,0.0556872,0.230848
0.0304051,0.266476,-2.15918,-0.508156,0.837543,-0.35095,-0.0245209,0.0847447,0.0853985
0.0486061,0.259286,-2.16606,-0.204216,0.753921,-0.34736,-0.00783931,0.0924809,-0.0535808
0.0631246,0.256146,-2.17348,-0.108681,0.486972,-0.387034,0.00268093,0.0818915,-0.126182
0.0717649,0.252096,-2.18159,-0.273172,0.16967,-0.413453,0.0108854,0.0440204,-0.15283
0.0742982,0.243483,-2.18939,-0.515962,-0.0994407,-0.39187,0.0224268,0.00402413,-0.165947
0.0718157,0.231304,-2.19589,-0.61675,-0.284143,-0.323306,0.0334284,-0.033784,-0.170498
0.0663173,0.218995,-2.20116,-0.54867,-0.359492,-0.280939,0.044506,-0.0402433,-0.165632
0.0605434,0.20909,-2.20607,-0.394493,-0.304166,-0.257662,0.0567171,-0.041652,-0.140058
0.0562397,0.202706,-2.21068,-0.21458,-0.218354,-0.226235,0.0585731,-0.0615725,-0.116536
0.0537452,0.199395,-2.2147,-0.109672,-0.110294,-0.182884,0.0537446,-0.0884383,-0.0793188
0.0532948,0.197336,-2.21805,-0.0850697,0.00645471,-0.157951,0.0366315,-0.102877,-0.0421318
0.0553275,0.195305,-2.22107,-0.102133,0.138977,-0.15143,0.0154542,-0.106304,-0.0175065
0.0600142,0.193132,-2.22421,-0.0933122,0.264231,-0.16674,-0.00528942,-0.112953,-0.0247381
0.0674102,0.190861,-2.22737,-0.137649,0.423478,-0.142749,-0.0260054,-0.13746,-0.0321379
0.078411,0.186019,-2.22917,-0.350191,0.631783,-0.0606877,-0.0200336,-0.131779,-0.0401229
0.0920686,0.177119,-2.22876,-0.500415,0.698224,0.0121865,0.00855981,-0.0886681,-0.11216
0.105313,0.167736,-2.22737,-0.397248,0.620665,0.0209235,0.0370733,-0.0178489,-0.187558
0.115549,0.163131,-2.22677,-0.0354824,0.386975,-0.0180791,0.0551231,0.0414368,-0.226674
0.120429,0.166827,-2.22811,0.409252,0.073169,-0.068811,0.0545643,0.0733726,-0.205077
0.120198,0.177826,-2.23144,0.674739,-0.128277,-0.115778,0.0275966,0.0732065,-0.0987069
0.117246,0.191865,-2.23537,0.720168,-0.207581,-0.0860571,0.00771256,0.0553598,0.0121728
0.114193,0.204944,-2.23766,0.580648,-0.111095,0.0231948,-0.00777036,0.0291201,0.0977872
0.113709,0.214759,-2.23691,0.381906,0.07787,0.168519,-0.00641112,0.0185324,0.134308
0.115619,0.221417,-2.2327,0.229976,0.176787,0.307203,0.00996782,0.0354693,0.111499
0.117614,0.225371,-2.22582,0.0796461,0.15503,0.388735,0.0197796,0.0679659,0.0705622
0.117778,0.226411,-2.21782,-0.0655418,0.0205747,0.380184,0.0201215,0.098536,0.0389248
0.11459,0.224719,-2.21046,-0.172031,-0.172927,0.303686,0.0174878,0.11332,0.0157962
0.108049,0.221643,-2.20454,-0.182676,-0.331375,0.240193,0.0125363,0.0988305,0.0235291
0.0997236,0.218906,-2.19963,-0.133116,-0.37304,0.210621,0.00691301,0.0690598,0.0587341
0.0915565,0.217159,-2.19521,-0.0889567,-0.339218,0.197153,0.00272921,0.0443289,0.100582
0.0845269,0.216056,-2.19125,-0.0563107,-0.277089,0.173147,-0.0023853,0.0242693,0.131268
0.0788125,0.215177,-2.18801,-0.0627876,-0.225378,0.13666,-0.00564151,0.00069119,0.155409
0.0738261,0.21346,-2.18532,-0.133159,-0.216449,0.116357,-0.0086695,-0.0234478,0.169039
0.0690056,0.210026,-2.18281,-0.224208,-0.205396,0.102331,-0.0127482,-0.0503648,0.172338
0.0649782,0.204963,-2.18064,-0.284432,-0.144278,0.0772347,-0.0234733,-0.0686557,0.171323
0.0624284,0.199447,-2.17905,-0.254862,-0.077403,0.0448549,-0.0237518,-0.0765918,0.136028
0.0615861,0.195144,-2.17816,-0.175296,0.0101698,0.0179767,-0.0247803,-0.092225,0.0954929
0.0622819,0.192535,-2.17786,-0.0857281,0.0524073,-0.00558555,-0.0217239,-0.101224,0.0438282
0.0633454,0.191419,-2.17812,-0.04226,0.0450876,-0.0290818,-0.0157601,-0.119639,-0.00405943
0.0639815,0.190196,-2.17888,-0.085203,-0.00241883,-0.053174,-0.0130412,-0.134373,-0.0454479
0.0632253,0.188058,-2.17974,-0.127587,-0.0912854,-0.0318891,-0.005688,-0.161147,-0.0897383
0.0607604,0.185174,-2.17952,-0.157488,-0.139131,0.0397024,-0.00635548,-0.183879,-0.120274
0.0575181,0.182431,-2.17787,-0.115695,-0.149251,0.104116,-0.00396595,-0.165427,-0.149385
0.0538089,0.181435,-2.17539,0.0103826,-0.18527,0.117113,-0.0125864,-0.138132,-0.180847
0.0489182,0.18289,-2.17373,0.103984,-0.269416,0.048724,-0.0498684,-0.145582,-0.205247
0.0489182,0.18289,-2.17373,0.103984,-0.269416,0.048724,-0.0498684,-0.145582,-0.205247
0.0436443,0.184216,-2.17355,-0.0219513,-0.225191,-0.0218417,-0.0843046,-0.156592,-0.172183
0.0410664,0.180612,-2.1742,-0.339432,-0.0395366,-0.0370083,-0.066266,-0.120265,-0.160009
0.0415956,0.172309,-2.17408,-0.413273,0.0806945,0.0166361,-0.0249919,-0.0565847,-0.241537
0.0435462,0.167191,-2.17377,-0.0361464,0.0819819,-0.0320054,-0.0147577,0.0426334,-0.322709
0.0443514,0.172226,-2.17625,0.54343,-0.0583037,-0.205325,-0.0156505,0.148885,-0.331498
0.0431806,0.187423,-2.18364,0.948594,-0.183036,-0.449729,-0.0264353,0.200335,-0.228175
0.0403181,0.20815,-2.19594,1.13025,-0.350294,-0.653696,-0.0414666,0.193543,-0.0782884
0.0351498,0.230777,-2.21187,1.14848,-0.4913,-0.793469,-0.0560309,0.156713,0.0746484
0.029607,0.251884,-2.22975,0.965213,-0.446034,-0.851424,-0.0911075,0.0988536,0.221179
0.0275067,0.267539,-2.24781,0.627613,-0.199361,-0.835965,-0.128545,0.0534981,0.316171
0.0315248,0.276235,-2.2651,0.299257,0.143718,-0.798587,-0.153249,0.0365898,0.337099
0.0422595,0.279196,-2.28156,0.0728628,0.455378,-0.759491,-0.154747,0.0644466,0.303498
0.0577032,0.278309,-2.29703,-0.0895695,0.637554,-0.71646,-0.127184,0.110911,0.228476
0.0753667,0.273691,-2.31119,-0.275288,0.703727,-0.669242,-0.0910171,0.167931,0.151071
0.0915418,0.266035,-2.32472,-0.3432,0.503112,-0.702463,-0.0659966,0.228027,0.040081
0.101923,0.258576,-2.34011,-0.235181,0.124561,-0.860511,-0.0555941,0.272641,-0.0375449
0.105941,0.253049,-2.35958,-0.134501,-0.184294,-1.05377,-0.0538681,0.277427,-0.0204135
0.106127,0.24795,-2.38214,-0.149616,-0.340209,-1.13942,-0.0540887,0.211237,0.0471545
0.104096,0.242007,-2.4049,-0.213587,-0.396255,-1.08874,-0.0547527,0.1125,0.107785
0.101203,0.234472,-2.42532,-0.32915,-0.361872,-0.944717,-0.0515285,0.0321795,0.145181
0.0984877,0.225364,-2.44224,-0.396669,-0.28666,-0.776027,-0.0470597,-0.0234869,0.14899
0.0967917,0.215854,-2.45583,-0.414793,-0.173832,-0.630866,-0.0428081,-0.0549532,0.142144
0.0964833,0.206456,-2.4664,-0.414353,-0.0918357,-0.476915,-0.0291938,-0.0864197,0.100859
0.0962019,0.19785,-2.47359,-0.363845,-0.0863802,-0.300167,-0.0184503,-0.11867,0.0405177
0.095093,0.190642,-2.47742,-0.315726,-0.101863,-0.147575,-0.0133192,-0.134409,-0.0121163
0.0929013,0.184505,-2.47871,-0.284174,-0.139521,-0.0423724,-0.00955869,-0.125882,-0.0646383
0.0895526,0.178847,-2.47806,-0.290275,-0.178743,0.0519764,-0.0131774,-0.129997,-0.107403
0.085418,0.172951,-2.47568,-0.310941,-0.188167,0.126346,-0.0124929,-0.118803,-0.145448
0.0809838,0.167295,-2.47214,-0.266779,-0.201612,0.160289,-0.013024,-0.0963777,-0.187222
0.075861,0.163126,-2.46896,-0.166342,-0.258534,0.104159,-0.0141589,-0.0639298,-0.21901
0.0698198,0.160853,-2.46785,-0.0743774,-0.312112,-0.0170628,-0.0166774,-0.0420493,-0.212702
0.0636673,0.159618,-2.46922,-0.0441861,-0.323656,-0.121588,-0.0123395,-0.0422004,-0.173098
0.0572816,0.158262,-2.47245,-0.0858998,-0.357582,-0.189951,-0.0033274,-0.0613919,-0.161212
0.0512872,0.154903,-2.47578,-0.248888,-0.254881,-0.130615,-0.0174326,-0.114225,-0.135953
0.0485516,0.147427,-2.47681,-0.481711,-0.0329002,-0.017144,-0.00522041,-0.0927306,-0.121205
0.049462,0.137248,-2.47613,-0.472759,0.116395,0.0222184,0.0280342,0.00472267,-0.179957
0.0521288,0.131162,-2.47569,-0.0922034,0.124485,-0.018744,0.0611506,0.0950042,-0.235415
0.0533408,0.134368,-2.47734,0.415742,-0.0435743,-0.130334,0.08248,0.154044,-0.240388
0.0509302,0.14712,-2.48184,0.848253,-0.255176,-0.247213,0.0928607,0.172789,-0.153107
0.0452688,0.167069,-2.48849,1.13008,-0.392262,-0.291822,0.101876,0.14168,-0.00442046
0.0387564,0.190604,-2.49462,1.19176,-0.330302,-0.181556,0.109157,0.0737751,0.143659
0.0345257,0.213375,-2.49642,1.04716,-0.107807,0.107534,0.09958,-0.00851634,0.24743
0.034193,0.231462,-2.49115,0.705977,0.191328,0.464154,0.0944109,-0.0416559,0.289139
0.0372168,0.241613,-2.47894,0.257652,0.364599,0.723545,0.0696312,-0.026371,0.262822
0.04064,0.243347,-2.46291,-0.126285,0.325127,0.801029,0.0549286,0.033143,0.176645
0.0416167,0.238544,-2.44708,-0.393271,0.129224,0.68292,0.0393159,0.0940001,0.0949566
0.0389352,0.229734,-2.43472,-0.50844,-0.104935,0.471796,0.0246889,0.121609,0.0394717
0.0335535,0.219807,-2.42652,-0.489579,-0.225518,0.290036,0.0135094,0.105828,0.0281246
0.0335535,0.219807,-2.42652,-0.489579,-0.225518,0.290036,0.0135094,0.105828,0.0281246
0.0278341,0.210652,-2.42176,-0.433928,-0.218068,0.15442,0.0043399,0.0709296,0.0432508
0.0239034,0.202732,-2.41913,-0.354264,-0.108125,0.0949414,0.00681604,0.0358645,0.0647201
0.0227801,0.19694,-2.41717,-0.21486,0.0376872,0.0814786,0.00644026,-0.000573725,0.0781327
0.0246002,0.19416,-2.41571,-0.0698911,0.161258,0.0435699,0.00249107,-0.0154773,0.0917683
0.0282451,0.193778,-2.41566,0.0168055,0.188677,-0.0452786,-0.00129978,-0.0240003,0.0958825
0.0319913,0.194159,-2.41758,0.0163101,0.139502,-0.137946,-0.00231682,-0.0387632,0.102183
0.0348033,0.193994,-2.42091,-0.0251699,0.0816315,-0.181285,-0.0013982,-0.0683901,0.116299
0.0368275,0.193137,-2.42448,-0.0364071,0.0606166,-0.168787,0.000166051,-0.0923936,0.12303
0.0388165,0.192708,-2.42778,0.00795398,0.0799515,-0.15348,0.000287455,-0.100551,0.118537
0.0412032,0.193635,-2.43078,0.0865943,0.101663,-0.131528,0.000426032,-0.10013,0.0894873
0.0438704,0.19563,-2.43329,0.105486,0.113342,-0.107841,0.0034127,-0.101452,0.0617229
0.0464413,0.197589,-2.43555,0.0820029,0.0899957,-0.1065,0.0019793,-0.0897197,0.0212945
0.0480983,0.198408,-2.43765,-0.0135119,0.0344802,-0.0881604,-0.00415245,-0.102818,-0.0104983
0.0483439,0.196599,-2.43913,-0.171018,-0.0471333,-0.06864,-0.0135959,-0.106499,-0.0411764
0.0466864,0.191789,-2.44037,-0.300722,-0.145361,-0.082607,-0.0163491,-0.091535,-0.0758623
0.0430837,0.185296,-2.44233,-0.324772,-0.252649,-0.149672,-0.0249228,-0.0695623,-0.114847
0.0375503,0.179025,-2.44647,-0.290421,-0.368396,-0.289255,-0.0477752,-0.0584414,-0.149015
0.0311628,0.172578,-2.45342,-0.360549,-0.363302,-0.401182,-0.0821933,-0.103455,-0.139936
0.026645,0.162694,-2.46166,-0.620298,-0.210126,-0.417117,-0.0661002,-0.112727,-0.128668
0.0251635,0.14785,-2.46886,-0.785516,-0.0540771,-0.318592,-0.0179894,-0.0764889,-0.205483
0.0258641,0.134061,-2.47443,-0.504913,0.0247374,-0.284905,0.00925247,0.00675207,-0.308697
0.0261885,0.129514,-2.48093,0.092191,-0.107506,-0.391252,0.0191083,0.110872,-0.367602
0.0235545,0.137009,-2.49101,0.640412,-0.27919,-0.592243,0.014617,0.169188,-0.309862
0.0186332,0.1527,-2.50529,0.908863,-0.419575,-0.764626,0.00543421,0.160469,-0.164075
0.0114817,0.17189,-2.52195,0.999484,-0.541705,-0.824898,0.0101264,0.120722,-0.0145118
0.00381498,0.191783,-2.53873,0.967508,-0.479705,-0.788607,-0.0168065,0.0600705,0.145752
-0.000132363,0.209321,-2.55381,0.755657,-0.188569,-0.670226,-0.0506823,0.0217144,0.272423
0.00255544,0.221503,-2.56611,0.450959,0.192722,-0.518968,-0.0768033,0.00813285,0.308771
0.0115937,0.227438,-2.57542,0.152858,0.475279,-0.385221,-0.0938755,0.0201902,0.255447
0.0241121,0.227975,-2.58245,-0.0806737,0.585382,-0.307945,-0.0856198,0.0632395,0.153653
0.0369565,0.224419,-2.58854,-0.243231,0.540522,-0.304328,-0.0667833,0.116034,0.0504908
0.0477354,0.218553,-2.59528,-0.289168,0.361675,-0.383516,-0.046567,0.165029,-0.0361761
0.0540274,0.213209,-2.60415,-0.180757,0.056851,-0.503947,-0.0222455,0.194538,-0.0955718
0.0542437,0.210732,-2.61558,-0.00882506,-0.265076,-0.614654,-0.0109797,0.176934,-0.0932472
0.0497506,0.210773,-2.62897,0.0598667,-0.427465,-0.675733,-0.0169523,0.129168,-5.54919e-05
0.0439599,0.211344,-2.64296,0.0588115,-0.420742,-0.671066,-0.0292655,0.0635191,0.112029
0.039423,0.211891,-2.65618,0.0539274,-0.29454,-0.601945,-0.0366697,0.00558217,0.189919
0.037723,0.212473,-2.66755,0.0484693,-0.111541,-0.495991,-0.0390632,-0.0332021,0.227168
0.0390768,0.212952,-2.67679,0.0270248,0.0414377,-0.398076,-0.0383981,-0.0509071,0.223537
0.0423735,0.212737,-2.68392,-0.0274821,0.119344,-0.296905,-0.0347377,-0.0700223,0.194749
0.0461668,0.21132,-2.68902,-0.0926619,0.148656,-0.206127,-0.0390661,-0.0837062,0.150526
0.050191,0.208754,-2.69224,-0.142741,0.186716,-0.120907,-0.0443048,-0.0872074,0.10807
0.0547882,0.205596,-2.69379,-0.165607,0.240918,-0.0420115,-0.0550419,-0.0915191,0.0640948
0.0600387,0.201903,-2.69354,-0.208985,0.284858,0.0477038,-0.0608742,-0.0972264,0.0108349
0.0656597,0.197376,-2.69135,-0.253674,0.311546,0.130376,-0.0556106,-0.0893344,-0.0519239
0.070913,0.192414,-2.68787,-0.255791,0.268512,0.167442,-0.0498774,-0.0710545,-0.127077
0.074801,0.187667,-2.68405,-0.244182,0.183683,0.169479,-0.0417419,-0.0544606,-0.188487
0.0768941,0.18305,-2.68038,-0.246774,0.094128,0.150279,-0.0341989,-0.0481649,-0.229375
0.0768941,0.18305,-2.68038,-0.246774,0.094128,0.150279,-0.0341989,-0.0481649,-0.229375
0.0771539,0.178435,-2.67751,-0.224365,-0.0205702,0.088146,-0.0277121,-0.0441901,-0.261084
0.0748822,0.174545,-2.67603,-0.185121,-0.173243,0.0441091,-0.0315155,-0.0805054,-0.29632
0.0707586,0.169887,-2.67412,-0.341275,-0.163277,0.116358,-0.0422464,-0.132962,-0.25612
0.0677139,0.160447,-2.67027,-0.59063,-0.0983913,0.18033,-0.0228936,-0.0945283,-0.240112
0.0645611,0.149572,-2.66589,-0.447006,-0.16336,0.156231,0.0118724,-0.00680776,-0.296505
0.0598104,0.145273,-2.66363,0.0341208,-0.286695,0.0214065,0.029539,0.0709709,-0.289204
0.0526998,0.151612,-2.66543,0.597135,-0.434568,-0.157228,0.042335,0.115891,-0.210948
0.0440002,0.168234,-2.67071,1.05581,-0.489605,-0.265294,0.0452428,0.104773,-0.0672724
0.036463,0.192281,-2.67692,1.31764,-0.339441,-0.227388,0.0437915,0.066587,0.091453
0.0335694,0.219342,-2.68103,1.34747,-0.0101327,-0.0630043,0.0392015,0.0211608,0.208172
0.037021,0.245047,-2.68093,1.17281,0.342491,0.167801,0.0439882,0.00230646,0.252252
0.0448886,0.265696,-2.67557,0.840885,0.540669,0.421233,0.0540522,0.0121691,0.222956
0.0527174,0.279028,-2.66579,0.431218,0.468089,0.553289,0.0594676,0.0641485,0.148205
0.0565841,0.284064,-2.65465,0.0171018,0.201467,0.511775,0.0509524,0.128938,0.0883929
0.0544011,0.281375,-2.64527,-0.321551,-0.156547,0.356129,0.0344492,0.168546,0.0558874
0.0466607,0.272871,-2.63907,-0.524151,-0.411642,0.194461,0.0220071,0.173642,0.0702446
0.0364644,0.262045,-2.63608,-0.543255,-0.493686,0.0492046,0.00809267,0.14341,0.114039
0.0269376,0.252088,-2.636,-0.434167,-0.43555,-0.0699788,0.00266453,0.10868,0.159403
0.0196615,0.244858,-2.63788,-0.280131,-0.327949,-0.11649,0.0142971,0.0628222,0.184843
0.0149359,0.240222,-2.64005,-0.19849,-0.197076,-0.0949065,0.0197648,0.0103949,0.212067
0.0125272,0.236033,-2.6415,-0.231434,-0.0872435,-0.0558268,0.0148438,-0.0264672,0.228392
0.0115607,0.230386,-2.64241,-0.32709,-0.033653,-0.0431252,-0.000451768,-0.0516915,0.221392
0.0113459,0.222959,-2.64311,-0.397095,-0.00235218,-0.0378415,-0.0240653,-0.0736679,0.19427
0.0119184,0.214805,-2.64409,-0.405689,0.0444151,-0.0732799,-0.0473956,-0.0789116,0.156026
0.0139703,0.206938,-2.64613,-0.366648,0.111195,-0.128383,-0.0663299,-0.0823161,0.11042
0.0174686,0.200124,-2.64934,-0.306948,0.164771,-0.191836,-0.0728137,-0.0934145,0.0581089
0.0218191,0.194352,-2.65393,-0.260769,0.16224,-0.264794,-0.074141,-0.0940852,-0.00407642
0.0258747,0.189054,-2.65982,-0.256441,0.112793,-0.318701,-0.0650379,-0.091352,-0.0641515
0.0283442,0.183729,-2.66662,-0.252099,0.00121538,-0.358229,-0.053193,-0.0919915,-0.122893
0.0284903,0.178569,-2.67407,-0.236201,-0.125515,-0.381614,-0.037677,-0.0830291,-0.169392
0.0261367,0.174143,-2.68182,-0.17637,-0.240657,-0.390242,-0.0208556,-0.0667873,-0.203403
0.021815,0.171547,-2.68998,-0.0532447,-0.333447,-0.423766,-0.0146877,-0.0418174,-0.220479
0.0155252,0.171938,-2.69964,0.114155,-0.454302,-0.532166,-0.0247256,-0.0225118,-0.227968
0.00833413,0.174766,-2.71123,0.135065,-0.400658,-0.568958,-0.0508249,-0.0785793,-0.175316
0.00547527,0.175436,-2.72178,-0.0870636,-0.0570719,-0.452632,-0.0466662,-0.105767,-0.0811143
0.00790199,0.171669,-2.72986,-0.230238,0.110138,-0.352688,-0.0180549,-0.0584973,-0.145253
0.0107547,0.168488,-2.73705,-0.0440169,0.0293653,-0.380045,0.017001,0.0395634,-0.24197
0.0109152,0.170474,-2.74599,0.250208,-0.181808,-0.500136,0.0269477,0.113741,-0.262326
0.00695462,0.177738,-2.75762,0.462873,-0.403023,-0.633937,0.0252747,0.134491,-0.196136
-0.000255994,0.188061,-2.77189,0.554908,-0.565347,-0.748217,0.015968,0.11298,-0.0653914
-0.0097836,0.199682,-2.78754,0.579124,-0.659749,-0.769863,-0.00504413,0.0683988,0.0754808
-0.0188086,0.210675,-2.80266,0.465871,-0.505094,-0.708473,-0.0503492,0.0200787,0.209254
-0.022605,0.218195,-2.81615,0.243481,-0.131009,-0.618739,-0.0944642,-0.00212985,0.28497
-0.0186447,0.221322,-2.828,0.0500764,0.245383,-0.542663,-0.117599,0.00667493,0.26943
-0.00899319,0.221384,-2.8385,-0.0457235,0.445062,-0.477627,-0.112641,0.0299739,0.168869
0.0019997,0.220029,-2.84781,-0.091185,0.426982,-0.432234,-0.084471,0.0708276,0.0429668
0.0118108,0.217387,-2.85632,-0.168697,0.349435,-0.404136,-0.040509,0.135067,-0.0445236
0.0187353,0.213515,-2.86502,-0.174991,0.119364,-0.465076,0.00439628,0.220624,-0.143134
0.0187353,0.213515,-2.86502,-0.174991,0.119364,-0.465076,0.00439628,0.220624,-0.143134
0.0194699,0.211667,-2.87612,0.0334125,-0.291829,-0.621687,0.0346005,0.260764,-0.20158
0.0126864,0.214368,-2.89059,0.239439,-0.657706,-0.771244,0.0416204,0.236595,-0.130832
0.00122397,0.219689,-2.90735,0.278128,-0.813611,-0.835276,0.0333513,0.158249,0.0288057
-0.0116248,0.224669,-2.9242,0.187608,-0.799767,-0.785331,0.0257061,0.0716297,0.171839
-0.0230114,0.226948,-2.93899,0.00664886,-0.650749,-0.644368,0.00622978,-0.0171371,0.275095
-0.0312544,0.225175,-2.95053,-0.217821,-0.413894,-0.467082,-0.00600806,-0.0690055,0.323034
-0.0351206,0.218912,-2.95842,-0.426313,-0.14639,-0.282769,-0.0164448,-0.0979724,0.321526
-0.0347259,0.208965,-2.96312,-0.559018,0.0750708,-0.146921,-0.0232568,-0.104122,0.269527
-0.0310299,0.197374,-2.96562,-0.588028,0.237859,-0.0658797,-0.0297276,-0.0987815,0.195002
-0.0245628,0.186004,-2.96673,-0.533871,0.389226,-0.0129438,-0.0423001,-0.0928679,0.117129
-0.0153474,0.176967,-2.96674,-0.339682,0.51358,0.0260778,-0.052413,-0.0840264,0.035902
-0.00463799,0.172726,-2.96606,-0.0924444,0.557464,0.0447078,-0.0558864,-0.0671758,-0.048521
0.00616357,0.172037,-2.96496,-0.00188112,0.524102,0.0639277,-0.0627742,-0.0701743,-0.107478
0.0156623,0.171636,-2.9635,-0.0568252,0.431211,0.0727975,-0.0707751,-0.0833251,-0.147306
0.0228653,0.169672,-2.96214,-0.137813,0.300096,0.0484365,-0.0730721,-0.0844827,-0.180664
0.0273782,0.166585,-2.96145,-0.160585,0.161722,0.00518069,-0.0644409,-0.0688798,-0.202995
0.0295955,0.163685,-2.96171,-0.116561,0.0614045,-0.0433544,-0.0533503,-0.0558717,-0.202473
0.0303616,0.161848,-2.96311,-0.0698111,0.0056751,-0.0849461,-0.0467296,-0.0754449,-0.196446
0.0318679,0.15978,-2.96343,-0.163196,0.179755,0.0974665,-0.0681693,-0.13254,-0.161966
0.0368652,0.155261,-2.95818,-0.279906,0.365111,0.374118,-0.0460113,-0.0908456,-0.175694
0.0427934,0.150579,-2.94961,-0.18301,0.335558,0.427721,0.00766105,0.0258952,-0.238219
0.0469838,0.149716,-2.94122,0.0645546,0.17727,0.383304,0.0630865,0.129718,-0.212565
0.0463719,0.153884,-2.93474,0.319858,-0.167886,0.257016,0.102187,0.179889,-0.179475
0.0389052,0.16275,-2.93161,0.535575,-0.494322,0.0955631,0.123713,0.183807,-0.0891871
0.0276494,0.174511,-2.93071,0.599142,-0.549655,0.0651204,0.102901,0.123944,0.0601645
0.0188908,0.185811,-2.92782,0.492227,-0.214674,0.286164,0.0709588,0.0211846,0.211982
0.0187878,0.193548,-2.91809,0.242112,0.404024,0.686792,0.0401426,-0.0723061,0.321639
0.029106,0.195974,-2.90029,-0.0375346,0.925374,1.04158,0.0286146,-0.0777388,0.309773
0.0458744,0.194226,-2.87613,-0.170801,1.09217,1.26972,0.0345938,-0.0209513,0.204881
0.0600822,0.195039,-2.84938,0.080158,0.968237,1.27959,-0.00739394,0.0245238,0.100882
0.0771403,0.198892,-2.82654,0.128114,1.12204,0.946263,-0.0143721,0.106061,0.133468
0.0909158,0.203646,-2.81037,0.25662,0.448729,0.690467,-0.0642563,0.12166,0.083598
0.105055,0.211035,-2.79908,0.307435,1.3866,0.510737,-0.0156675,0.0131833,0.192593
0.131932,0.218119,-2.79019,0.319769,1.34149,0.426284,-0.0177,0.031045,0.0400416
0.156728,0.226572,-2.78427,0.443356,1.19133,0.231065,0.0180989,0.00176892,0.00211048
0.175368,0.237049,-2.78485,0.587288,0.633803,-0.106265,0.0339916,0.0418117,-0.0987359
0.184242,0.248376,-2.79085,0.598983,0.131345,-0.224586,0.0289025,-0.00537553,-0.132603
0.186174,0.258346,-2.7971,0.456523,-0.0616975,-0.162331,0.0168428,-0.039333,-0.0697601
0.184901,0.264369,-2.80091,0.176072,-0.193069,-0.115036,-0.0194567,-0.06681,-0.0108361
0.181211,0.263628,-2.80561,-0.120151,-0.258059,-0.368852,-0.0601329,-0.0057112,-0.0140565
0.178547,0.260341,-2.81389,0.0101091,-0.167557,-0.407532,-0.0287926,-0.113683,0.0223366
0.178476,0.262069,-2.81987,0.208589,-0.0231231,-0.100819,0.0362036,-0.226562,0.0316446
0.177257,0.265275,-2.81948,0.0645363,-0.127677,0.16536,0.0276835,-0.1924,-0.0429134
0.172532,0.265204,-2.81513,-0.136526,-0.186811,0.218738,0.0188342,-0.119059,-0.0179164
0.167264,0.261921,-2.81037,-0.252285,-0.207812,0.164411,0.0121513,-0.0713395,-0.00135171
0.16212,0.256839,-2.8067,-0.303451,-0.213834,0.107085,0.000515163,-0.0421331,-0.00279075
0.157201,0.250857,-2.80381,-0.323335,-0.204421,0.078225,0.0083345,-0.0566362,-0.0177777
0.148278,0.245585,-2.80232,-0.214082,-0.473345,-0.0163577,0.0145196,-0.0219522,-0.221969
0.148278,0.245585,-2.80232,-0.214082,-0.473345,-0.0163577,0.0145196,-0.0219522,-0.221969
0.136446,0.24346,-2.80267,0.018178,-0.642686,-0.0417678,0.0381391,-0.010327,-0.105222
0.123895,0.245895,-2.80372,0.236029,-0.658005,-0.0202474,0.0306822,-0.00820816,-0.0516902
0.110199,0.252705,-2.80425,0.413719,-0.695021,0.0502755,0.019127,-0.0392524,-0.0640005
0.0975986,0.261002,-2.80334,0.343634,-0.517234,0.0852843,0.011783,-0.095482,-0.0212387
0.0792091,0.265126,-2.80516,-0.017301,-1.19105,-0.236129,-0.157981,-0.0686267,-0.221072
0.0586424,0.257316,-2.80932,-0.67836,-1.24629,-0.0234561,-0.0687794,-0.0545961,-0.038309
0.0265422,0.240726,-2.8056,-0.947786,-1.71877,0.209931,0.0254041,-0.0279188,-0.1225
-0.00804061,0.222643,-2.80122,-0.775613,-1.49086,0.222732,0.241805,0.100539,-0.138682
-0.0324832,0.212024,-2.79673,-0.220843,-0.874629,0.20146,0.20834,0.124791,-0.0446219
-0.0474403,0.214882,-2.79462,0.514958,-0.585997,-0.0223684,0.0650239,0.0939546,0.0252034
-0.053496,0.23153,-2.79615,1.0745,0.00801471,-0.186324,-0.042576,0.100393,0.18274
-0.0455948,0.255186,-2.79947,1.17667,0.69483,-0.237643,-0.0914409,0.0862577,0.254117
-0.025469,0.275479,-2.80364,0.74939,1.1533,-0.229236,-0.137512,0.0365343,0.224114
0.000135102,0.283265,-2.80779,0.030892,1.16163,-0.184935,-0.1605,-0.017673,0.140064
0.0236812,0.276422,-2.81235,-0.740774,1.16335,-0.298543,-0.132491,-0.00587803,0.0479347
0.0497578,0.254252,-2.82072,-1.34621,1.08011,-0.609057,-0.0576292,0.066204,0.0191287
0.069872,0.223619,-2.83533,-1.56649,0.571211,-0.972816,0.00450926,0.10558,-0.102367
0.0796612,0.19132,-2.85472,-1.43077,0.00645943,-1.08666,0.0689392,0.170075,-0.146115
0.0782423,0.165986,-2.87239,-0.894296,-0.432335,-0.785312,0.101028,0.194324,-0.135505
0.0681942,0.154612,-2.88306,-0.134222,-0.696987,-0.365101,0.0672388,0.190862,-0.0439188
0.055946,0.160008,-2.88863,0.712131,-0.511844,-0.19263,0.0060615,0.136652,0.124903
0.0522699,0.181511,-2.89286,1.38777,0.0956222,-0.0762069,-0.0595513,0.00697733,0.208852
0.0590631,0.211559,-2.89348,1.51031,0.494801,0.163162,-0.0638468,-0.013877,0.171465
0.0678388,0.239632,-2.89139,1.22415,0.321827,0.194178,-0.0446401,0.031748,0.0748734
0.0683983,0.259239,-2.88855,0.683208,-0.237228,0.224213,-0.0148985,0.0454386,0.00415057
0.0550862,0.26794,-2.88362,0.163081,-0.935916,0.306407,0.0275795,0.0136015,-0.043065
0.0309278,0.267974,-2.87736,-0.127583,-1.23125,0.26065,-0.00221605,0.00414282,-0.029972
0.00481681,0.265348,-2.87434,-0.115935,-1.27152,0.0400932,0.000539783,0.0354996,-0.00534683
-0.0198346,0.263626,-2.87336,-0.0519863,-1.15562,0.0773786,-0.0210741,-0.00279891,0.0124265
-0.0422083,0.26295,-2.87144,-0.017653,-0.989219,0.105266,-0.0189012,-0.0232571,0.0126036
-0.0593059,0.262309,-2.86911,-0.0416655,-0.643518,0.122406,-0.0292889,-0.0337188,0.0262603
-0.0708126,0.260876,-2.86658,-0.0913228,-0.482893,0.119969,-0.022766,-0.0307234,-0.0160086
-0.0807378,0.258184,-2.86476,-0.167596,-0.463388,0.0691341,-0.0142623,-0.0289465,-0.0588467
-0.0899255,0.253915,-2.86419,-0.242007,-0.429972,0.0216728,-0.0130659,-0.0451758,-0.0707495
-0.0984878,0.249107,-2.86481,-0.225675,-0.440238,-0.0251838,-0.0313391,-0.078306,-0.0798597
-0.105681,0.244588,-2.86497,-0.249812,-0.211032,0.0932627,-0.032543,-0.103088,-0.0191084
-0.106689,0.237576,-2.86167,-0.417403,0.156502,0.272699,-0.0157216,-0.09383,-0.0121916
-0.103823,0.227451,-2.8567,-0.510871,0.209637,0.295646,0.0232696,-0.0220637,-0.116558
-0.101097,0.217224,-2.85221,-0.430545,0.148543,0.234108,0.0654722,0.0645337,-0.147429
-0.100632,0.210194,-2.84917,-0.222057,-0.0583537,0.129546,0.103958,0.104325,-0.172252
-0.104866,0.208134,-2.84766,0.0285704,-0.311545,0.0410558,0.105024,0.104401,-0.144541
-0.11184,0.210614,-2.84694,0.208038,-0.308758,0.00948462,0.0897314,0.0924219,-0.0420464
-0.116133,0.216169,-2.84603,0.357995,-0.119915,0.0244748,0.0815133,0.0580262,0.0369654
-0.118274,0.224781,-2.84351,0.522238,-0.0496509,0.135073,0.104028,0.0256117,0.0411375
-0.119718,0.236019,-2.83756,0.640625,0.0599388,0.303258,0.100374,0.00801916,0.0673681
-0.118432,0.248459,-2.82858,0.682128,0.269135,0.405644,0.0768384,0.0234064,0.104806
-0.114743,0.259989,-2.81717,0.553287,0.40446,0.549431,0.0391407,0.0014239,0.0808115
-0.108828,0.267133,-2.80404,0.275899,0.494198,0.608356,0.0368441,0.0108394,0.0686583
-0.108828,0.267133,-2.80404,0.275899,0.494198,0.608356,0.0368441,0.0108394,0.0686583
-0.103287,0.268281,-2.79174,-0.0341181,0.332894,0.528285,0.0386398,0.0619031,0.0228711
-0.102296,0.263847,-2.78302,-0.31208,-0.0113829,0.340371,0.027295,0.0860223,-0.0298569
-0.107123,0.25527,-2.77898,-0.467224,-0.352503,0.137505,0.0213151,0.0618788,-0.0432765
-0.115181,0.248043,-2.77806,-0.178112,-0.321522,0.062586,-0.00205491,0.0241941,0.0505874
-0.117204,0.248701,-2.77661,0.233981,0.207218,0.0633688,-0.0235177,-0.0166572,0.16345
-0.109342,0.255408,-2.77485,0.393314,0.521701,0.0488145,0.0154662,-0.00538632,0.145956
-0.101613,0.261449,-2.77237,0.203277,0.245682,0.128316,0.0292351,-0.0405615,0.0302171
-0.101879,0.263164,-2.76967,-0.01025,-0.13098,0.0914005,0.0234184,-0.0204417,0.0244994
-0.102196,0.261269,-2.77011,-0.157012,0.170705,-0.132527,0.00355451,0.0303102,0.144662
