attitude_roll,attitude_pitch,attitude_yaw,rotationRate_x,rotationRate_y,rotationRate_z,acceleration_x,acceleration_y,acceleration_z
0.0749112,0.211783,-0.00796592,-0.582364,0.0834857,0.340377,0.017987,-0.0538195,-0.116683
0.0718751,0.201693,-0.000804998,-0.490125,-0.296226,0.252174,0.040574,-0.053059,-0.152851
0.0606717,0.192534,0.00335677,-0.431157,-0.749726,0.0998555,0.0794477,-0.071028,-0.207234
0.0421544,0.185824,0.00516608,-0.224719,-0.981671,0.06713,0.0861624,-0.0813114,-0.253303
0.0225754,0.183441,0.00753988,-0.0402626,-0.895076,0.181634,0.0655281,-0.0815329,-0.249878
0.00582582,0.182974,0.013045,-0.0459774,-0.651221,0.354857,0.0536587,-0.0980133,-0.26143
-0.00533648,0.180031,0.0213619,-0.278336,-0.29734,0.443182,0.0393536,-0.0711843,-0.254427
-0.00878373,0.170789,0.0304747,-0.639502,0.120846,0.453368,0.0234874,-0.0262837,-0.262161
-0.00461909,0.154967,0.0399262,-0.886053,0.414836,0.494891,-0.0177446,0.0624441,-0.273408
0.00345906,0.138351,0.0512078,-0.689882,0.530389,0.629431,-0.001305,0.138215,-0.257516
0.0122182,0.130196,0.0660156,-0.118811,0.500762,0.838691,0.0712901,0.161216,-0.175972
0.0184838,0.135045,0.0861279,0.538743,0.375367,1.13009,0.0786551,0.112006,-0.0820737
0.0193637,0.149641,0.109705,0.794584,0.0288789,1.18607,0.0759009,0.135472,-0.0635915
0.0137641,0.165512,0.132952,0.703707,-0.186264,1.10638,0.0588579,0.118951,-0.0169484
0.00597066,0.177287,0.153825,0.435915,-0.201921,0.950682,0.0449958,0.120589,0.0119876
0.000219488,0.183447,0.172051,0.176412,-0.0252027,0.851558,0.0183999,0.132721,0.0471857
-0.00112813,0.185332,0.189153,0.0408549,0.198984,0.829744,0.0034129,0.134331,0.0441081
0.00209662,0.186436,0.206301,0.0828164,0.443055,0.855891,0.0139615,0.129389,0.0631743
0.00957257,0.189188,0.224564,0.175179,0.610038,0.939084,0.0295236,0.114285,0.0930133
0.0191575,0.194208,0.245083,0.289472,0.754411,1.07643,0.0385768,0.0903898,0.124987
0.0311143,0.20102,0.268354,0.304321,0.83483,1.19827,0.0484051,0.0746381,0.183216
0.0408488,0.206924,0.293723,0.19495,0.640006,1.28967,0.0580256,0.0604312,0.15023
0.0466955,0.21143,0.320606,0.155559,0.498508,1.33272,0.0498962,0.0422252,0.16087
0.0490811,0.216128,0.34785,0.199472,0.317159,1.32775,0.0476916,0.0472584,0.145206
0.0488748,0.2222,0.374514,0.287438,0.248484,1.28746,0.0371084,0.0354246,0.135124
0.0480659,0.230992,0.400193,0.477899,0.291318,1.23614,0.0163086,0.03859,0.102656
0.0503062,0.243476,0.42449,0.621719,0.485965,1.16984,0.00510745,0.0272259,0.136667
0.0556749,0.257186,0.447464,0.604502,0.606386,1.11711,-0.00868044,0.0192527,0.122792
0.062906,0.269585,0.469364,0.493072,0.675121,1.04475,-0.00442639,0.00114927,0.123718
0.0717118,0.279245,0.489194,0.334736,0.726814,0.907531,0.00647299,-0.0175525,0.135276
0.0812003,0.286095,0.506101,0.233034,0.660638,0.750977,3.61353e-05,-0.0243261,0.116776
0.0889691,0.291296,0.519507,0.17557,0.476629,0.562845,0.00302606,-0.0333783,0.0809304
0.0933477,0.295223,0.529087,0.129887,0.229023,0.382366,-0.0085064,-0.0366985,0.0445518
0.0934862,0.297653,0.534981,0.0478153,-0.0647662,0.201164,-0.00249902,-0.0445525,0.0161229
0.0881835,0.297789,0.537291,-0.0544134,-0.371897,0.0137931,0.00328547,-0.0489846,-0.0293402
0.0795471,0.295553,0.53581,-0.145949,-0.50307,-0.180492,-0.00994722,-0.0345213,-0.0537997
0.072592,0.291631,0.530171,-0.20582,-0.301939,-0.381648,-0.00556206,-0.0237795,-0.0496902
0.0727615,0.284648,0.520387,-0.469533,0.0242301,-0.604329,0.0288455,-0.0211829,-0.0300834
0.0790255,0.269046,0.506615,-0.992806,0.217111,-0.831141,0.102455,-0.0387227,-0.0780005
0.0893289,0.242691,0.489241,-1.44637,0.341853,-1.05227,0.150556,-0.0238754,-0.114673
0.0996164,0.208363,0.469047,-1.75483,0.158631,-1.20522,0.144917,0.0419722,-0.216421
0.102458,0.169035,0.447522,-1.86329,-0.257576,-1.26379,0.13894,0.112812,-0.407834
0.0974148,0.132499,0.42669,-1.48086,-0.517196,-1.08546,0.099133,0.172928,-0.536887
0.0898478,0.107769,0.410841,-0.790784,-0.336068,-0.686459,-0.00976913,0.2296,-0.546707
0.0881113,0.0977759,0.403628,-0.170173,0.0967977,-0.074999,-0.141624,0.266779,-0.457642
0.0938037,0.0997886,0.408815,0.323822,0.488104,0.556357,-0.233627,0.177122,-0.32133
0.103754,0.110357,0.42171,0.537029,0.561788,0.72863,-0.296221,0.143718,-0.204192
0.112569,0.121948,0.432924,0.469794,0.465579,0.434108,-0.339158,0.112139,-0.0700592
0.121619,0.130764,0.434352,0.391469,0.448091,-0.2415,-0.333892,0.0466663,0.120492
0.131504,0.135863,0.420709,0.270328,0.324472,-1.00528,-0.311603,-0.0150979,0.230613
0.139993,0.136632,0.394613,0.173984,0.194587,-1.46563,-0.272864,-0.0555954,0.281709
0.148031,0.13546,0.364063,0.145499,0.196943,-1.46435,-0.223975,-0.0565886,0.320869
0.148031,0.13546,0.364063,0.145499,0.196943,-1.46435,-0.223975,-0.0565886,0.320869
0.155393,0.134207,0.336619,0.144273,0.16285,-1.21176,-0.158244,-0.0597378,0.299944
0.160813,0.134242,0.314491,0.217474,0.0548808,-0.952549,-0.0977822,-0.056758,0.276053
0.16242,0.137358,0.29643,0.387893,-0.117418,-0.771182,-0.0742767,-0.0282197,0.232168
0.161586,0.144577,0.280787,0.557594,-0.171104,-0.640187,-0.062297,0.00308241,0.234519
0.159672,0.154754,0.267053,0.629167,-0.215531,-0.542098,-0.0485894,0.0167161,0.237581
0.157184,0.16555,0.254855,0.61469,-0.205912,-0.463697,-0.0313806,0.0419305,0.229158
0.155923,0.175534,0.244498,0.524931,-0.120306,-0.391204,-0.032682,0.047269,0.23398
0.15452,0.183962,0.235144,0.445832,-0.206905,-0.406486,-0.0179018,0.0400276,0.189721
0.150624,0.190881,0.225221,0.36732,-0.357171,-0.426741,0.00768422,0.0446588,0.134631
0.145389,0.197241,0.216956,0.4069,-0.299319,-0.252166,-0.00505979,0.0513111,0.110112
0.140798,0.20559,0.21226,0.461688,-0.271373,-0.106071,0.00538358,0.0285464,0.0773163
0.13554,0.21453,0.208956,0.466435,-0.341187,-0.105578,0.0207281,0.00494134,0.0498872
0.127068,0.223725,0.204324,0.506325,-0.643014,-0.257247,0.0291877,-0.0287781,0.029152
0.112618,0.232343,0.193827,0.439426,-1.03184,-0.677705,0.0940695,-0.0257079,0.0370181
0.0914642,0.234781,0.173626,-0.0793635,-1.53569,-1.24287,0.179022,-0.0185295,0.0530337
0.0660764,0.223886,0.146233,-0.809592,-1.39613,-1.36184,0.283703,-0.0942027,0.0742326
0.0522958,0.200171,0.12503,-1.17914,-0.56786,-0.624131,0.299938,-0.125016,0.0565127
0.0478025,0.177124,0.124862,-1.13707,0.24983,0.320948,0.26731,-0.22619,-0.212083
0.0544229,0.155661,0.13856,-1.04238,0.467821,0.856335,0.186176,-0.174251,-0.417881
0.0595004,0.137694,0.157417,-0.781042,0.25892,0.85988,0.102352,-0.0719996,-0.627764
0.0597657,0.129423,0.17411,-0.134823,0.00973542,0.736068,0.0205119,-0.0565922,-0.726381
0.0577353,0.132292,0.188923,0.284615,0.0384372,0.781288,-0.0153137,0.0137121,-0.699217
0.0592676,0.141374,0.206348,0.501256,0.379928,0.996276,-0.033587,0.0519596,-0.557735
0.0676875,0.155331,0.227692,0.778969,0.739958,1.16893,-0.0273012,0.0702797,-0.37827
0.0793772,0.176346,0.250781,1.1287,0.738424,1.22891,-0.00544754,0.0671872,-0.203774
0.0873185,0.20292,0.273731,1.27222,0.457236,1.21741,0.0110325,0.0610574,-0.0391266
0.0890194,0.229344,0.295886,1.11286,0.218994,1.154,0.0337415,0.0328353,0.100483
0.0882278,0.250062,0.317044,0.734134,0.238288,1.06573,0.0402986,0.0127683,0.213343
0.0895613,0.262187,0.33714,0.311571,0.421254,0.966852,0.0308178,0.00440237,0.261256
0.0954116,0.267171,0.355812,0.0534921,0.635009,0.861725,0.0174117,0.00399369,0.280264
0.10487,0.269193,0.372485,0.0119441,0.719588,0.751332,0.0167526,0.00444865,0.280421
0.114696,0.271473,0.386911,0.0680049,0.59914,0.655531,0.0318214,0.0078052,0.284821
0.120552,0.275105,0.399512,0.140319,0.30438,0.595686,0.0547937,0.0148272,0.289778
0.120619,0.279458,0.411367,0.137328,0.0553104,0.592788,0.0778232,0.0163133,0.306989
0.117282,0.282728,0.423991,0.0235806,-0.012289,0.644007,0.0764754,0.0215757,0.319805
0.113918,0.282993,0.438119,-0.155608,0.0843247,0.702469,0.0623131,0.0351203,0.306387
0.1128,0.280133,0.453624,-0.278755,0.234666,0.72481,0.0372736,0.0450383,0.262391
0.114991,0.275963,0.46904,-0.279282,0.399592,0.69039,0.0142066,0.0542729,0.216322
0.120374,0.272895,0.483431,-0.177985,0.517663,0.65239,-0.0007255,0.0571636,0.178744
0.127454,0.271977,0.497342,-0.0887135,0.539915,0.665618,-0.00340347,0.0459343,0.173278
0.133741,0.272022,0.511636,-0.103318,0.461495,0.690789,0.00341146,0.0274071,0.193794
0.137854,0.270669,0.526378,-0.238306,0.336213,0.682061,0.00184691,0.00712171,0.206984
0.139544,0.26616,0.540834,-0.394742,0.231553,0.624541,-0.00353335,-0.00964639,0.195507
0.140347,0.258368,0.554193,-0.55614,0.20106,0.535677,-0.0147147,-0.0183161,0.176922
0.141485,0.246944,0.566119,-0.72616,0.201277,0.445527,-0.00557074,-0.0351607,0.142867
0.142409,0.232557,0.577058,-0.828642,0.141197,0.403967,0.00292957,-0.0346396,0.0871158
0.141905,0.217031,0.587774,-0.821016,0.0534097,0.408274,0.0102038,-0.0308086,0.026906
0.140054,0.203097,0.598775,-0.697279,-0.0165236,0.465027,0.0283882,-0.0513478,-0.00670624
0.135757,0.191313,0.610671,-0.641509,-0.182113,0.513695,0.0351133,-0.0639412,-0.0575051
0.128161,0.179726,0.62246,-0.656558,-0.350501,0.463333,0.00954787,-0.0420045,-0.134223
0.118496,0.167684,0.632974,-0.650262,-0.408714,0.421931,0.00526585,-0.00871421,-0.234456
0.109551,0.15673,0.643816,-0.523211,-0.30206,0.536058,0.0405674,0.0293645,-0.343572
0.109551,0.15673,0.643816,-0.523211,-0.30206,0.536058,0.0405674,0.0293645,-0.343572
0.102693,0.150723,0.656672,-0.186917,-0.196447,0.638413,0.129149,0.0774748,-0.437353
0.0961825,0.150731,0.669796,-0.00234946,-0.315932,0.633863,0.208308,0.120803,-0.436394
0.0830724,0.150414,0.682999,-0.207918,-0.863312,0.692227,0.272208,0.11518,-0.39202
0.0560226,0.143092,0.700692,-0.660987,-1.47596,1.06284,0.327788,0.106273,-0.405953
0.0236591,0.126052,0.728696,-1.10999,-1.2594,1.61763,0.212661,0.11992,-0.330142
-0.000562057,0.103492,0.765704,-1.06211,-0.719207,1.96866,0.0372259,0.16509,-0.340251
-0.0143387,0.0873348,0.805554,-0.46857,-0.347567,1.9165,-0.12889,0.170582,-0.344276
-0.0241712,0.0840094,0.840492,0.175572,-0.383954,1.52165,-0.233012,0.14847,-0.325687
-0.0357399,0.0910421,0.866397,0.543661,-0.529321,1.0175,-0.293685,0.110661,-0.22957
-0.0471436,0.102149,0.882267,0.576767,-0.398073,0.506226,-0.325999,0.0917629,-0.0847328
-0.0523463,0.111872,0.887581,0.398156,-0.0416372,-0.0397057,-0.335837,0.0760552,0.0347309
-0.0481416,0.118411,0.881395,0.238215,0.38199,-0.600202,-0.314488,0.057755,0.11468
-0.0354454,0.123322,0.864488,0.192565,0.638598,-1.06905,-0.264544,0.0342037,0.161155
-0.01896,0.127908,0.839308,0.19611,0.659627,-1.40429,-0.207835,0.0280572,0.189925
-0.00278995,0.132389,0.80888,0.212379,0.536043,-1.5747,-0.149227,0.0243056,0.219517
0.0103419,0.136609,0.776485,0.228343,0.331836,-1.59691,-0.0951758,0.0247042,0.239394
0.0193917,0.141214,0.744759,0.288789,0.14339,-1.5114,-0.0542927,0.0281354,0.251655
0.0255913,0.14757,0.715323,0.409183,0.0697857,-1.37159,-0.045101,0.0397808,0.280388
0.0313068,0.156139,0.688539,0.513796,0.117847,-1.24165,-0.0431891,0.0516388,0.308777
0.0383796,0.166607,0.664053,0.608395,0.18448,-1.1253,-0.0381441,0.0521438,0.341415
0.0461923,0.17872,0.641552,0.685736,0.20383,-1.02724,-0.0314329,0.0490007,0.371084
0.0538395,0.192037,0.620962,0.729898,0.163938,-0.920404,-0.0310042,0.0444352,0.407136
0.0595806,0.205448,0.602217,0.695797,0.0324298,-0.830097,-0.024022,0.0344347,0.428466
0.061804,0.21732,0.585143,0.562127,-0.183121,-0.761851,-0.0157715,0.0136323,0.434591
0.0592899,0.225014,0.569196,0.278159,-0.406601,-0.739209,0.0054252,-0.0138036,0.401301
0.0532897,0.225999,0.553766,-0.102566,-0.519497,-0.753288,0.0077976,-0.0334423,0.349133
0.045965,0.219421,0.537734,-0.456847,-0.548837,-0.845942,0.00581201,-0.0443901,0.258883
0.0393172,0.207431,0.519258,-0.632263,-0.490765,-1.0018,-0.00297255,-0.0465559,0.147576
0.0350468,0.193307,0.497853,-0.692692,-0.350481,-1.1186,-0.00261822,-0.0410342,0.0367563
0.0337271,0.177566,0.47561,-0.811307,-0.186002,-1.08559,0.00945782,-0.0504319,-0.064623
0.0351162,0.159034,0.455486,-0.951954,-0.00601503,-0.938177,0.0206776,-0.0582342,-0.168364
0.0395924,0.139299,0.439047,-0.916508,0.193531,-0.746433,0.0156262,-0.0670993,-0.269175
0.0465373,0.122526,0.426431,-0.671536,0.326391,-0.571157,0.00933975,-0.0787539,-0.359875
0.0546825,0.111547,0.417115,-0.38013,0.360305,-0.403333,0.00592608,-0.0912295,-0.410273
0.0626573,0.105777,0.411033,-0.171965,0.381962,-0.223643,0.0179949,-0.11903,-0.425997
0.0712306,0.103631,0.408736,-0.0432078,0.441785,-0.0142078,0.0296448,-0.163034,-0.407011
0.0802072,0.103367,0.410392,-0.00870518,0.460126,0.169537,0.0362884,-0.183454,-0.40502
0.0888547,0.103539,0.415096,-0.00668221,0.446426,0.283686,0.0335025,-0.163996,-0.411303
0.0964849,0.104954,0.421831,0.103559,0.353439,0.400048,0.0507708,-0.12345,-0.396526
0.100632,0.110267,0.430916,0.339002,0.170246,0.554961,0.0765855,-0.0778071,-0.350762
0.102409,0.120209,0.442763,0.504153,0.157725,0.70224,0.0699247,-0.0111538,-0.219678
0.10365,0.132418,0.456706,0.540968,0.127493,0.777932,0.0816152,0.0306825,-0.0944576
0.102699,0.144063,0.47125,0.444393,-0.0415623,0.757376,0.116515,0.0385546,-0.00422096
0.0984372,0.152812,0.485291,0.273844,-0.162277,0.700263,0.136876,0.0584217,0.0764427
0.0927654,0.157482,0.498303,0.0660297,-0.162174,0.610578,0.149389,0.0732591,0.123195
0.089666,0.157676,0.509709,-0.154747,0.0500064,0.516511,0.164769,0.0852003,0.172165
0.0917749,0.153032,0.520273,-0.405795,0.317912,0.492244,0.19156,0.0824437,0.193139
0.0981437,0.143551,0.532325,-0.64382,0.460705,0.626713,0.227149,0.0629197,0.187924
0.104785,0.130637,0.549228,-0.784174,0.403016,0.922807,0.246731,0.0409254,0.158053
0.108403,0.117189,0.573389,-0.771652,0.253363,1.31062,0.223453,0.0414963,0.127845
0.108538,0.106923,0.604646,-0.546617,0.111775,1.63332,0.180883,0.0482325,0.110081
0.108538,0.106923,0.604646,-0.546617,0.111775,1.63332,0.180883,0.0482325,0.110081
0.106091,0.103379,0.640192,-0.17215,0.0235693,1.8024,0.132817,0.0491179,0.114893
0.102586,0.107326,0.676716,0.169389,0.0238771,1.81074,0.092138,0.0419037,0.143194
0.0997697,0.116592,0.711718,0.375701,0.0795513,1.71288,0.054377,0.031657,0.194021
0.097512,0.128177,0.743729,0.444183,0.0735556,1.53818,0.041228,0.00961649,0.233469
0.0946897,0.13969,0.771909,0.407931,0.0142425,1.33449,0.0420233,-0.0153814,0.266417
0.0906584,0.148962,0.796124,0.274765,-0.0738207,1.12498,0.0396187,-0.0304369,0.285249
0.0852764,0.154386,0.816453,0.0879159,-0.157215,0.917978,0.0410688,-0.0370535,0.280765
0.0789783,0.155883,0.83315,-0.0712871,-0.200226,0.737836,0.0461143,-0.0372372,0.254479
0.0729559,0.154014,0.846823,-0.211611,-0.18249,0.593832,0.0413901,-0.0258693,0.219681
0.0682107,0.149599,0.858013,-0.294843,-0.11384,0.479318,0.0481277,-0.0210333,0.177343
0.0655343,0.143697,0.867521,-0.356903,-0.00644956,0.424716,0.0639869,-0.0280613,0.143117
0.0656151,0.136104,0.876728,-0.47011,0.144371,0.445677,0.0734507,-0.0352298,0.125339
0.0683118,0.125638,0.887101,-0.629993,0.238892,0.505883,0.0748727,-0.037366,0.0911834
0.0720027,0.112907,0.898808,-0.699093,0.258299,0.557565,0.0761006,-0.0408976,0.039154
0.0758401,0.0998529,0.911694,-0.680316,0.263422,0.626905,0.0869024,-0.0493456,-0.0135787
0.0797589,0.0876512,0.926678,-0.650403,0.262887,0.765039,0.0951767,-0.0674294,-0.0517903
0.0833302,0.0758911,0.944756,-0.683335,0.233279,0.923623,0.100828,-0.0822476,-0.0946562
0.0871696,0.0617945,0.966284,-0.954503,0.325885,1.08728,0.105062,-0.104245,-0.141395
0.0937807,0.0393234,0.991681,-1.51021,0.420069,1.2209,0.11729,-0.118844,-0.265326
0.100634,0.00844422,1.02033,-1.71423,0.311968,1.31209,0.133716,-0.118967,-0.473128
0.105569,-0.0190855,1.0507,-1.24571,0.116615,1.4193,0.14463,-0.118328,-0.628017
0.103974,-0.0343557,1.08217,-0.623184,-0.423065,1.51916,0.164921,-0.103471,-0.742972
0.0901418,-0.0394844,1.11307,-0.207842,-1.01272,1.4481,0.134614,-0.0511777,-0.818053
0.0705551,-0.0370554,1.14033,0.25036,-0.907849,1.28508,0.0872208,0.00383129,-0.754302
0.0596207,-0.0250471,1.1649,0.783943,-0.205589,1.24477,0.0327337,0.0489301,-0.581207
0.0642734,-0.00357726,1.18862,1.17566,0.601435,1.24006,0.00899808,0.0846337,-0.370647
0.0811147,0.0240205,1.21126,1.36773,1.01264,1.19321,0.00607944,0.0999764,-0.18871
0.100414,0.053828,1.23158,1.38785,0.911254,1.07594,0.00529178,0.11087,-0.0583125
0.113147,0.0828493,1.24837,1.2816,0.437391,0.882041,-0.00247227,0.132605,0.0322966
0.115615,0.10762,1.26085,0.993693,-0.0396979,0.614926,-0.0306142,0.168966,0.113615
0.111025,0.124422,1.268,0.580561,-0.286166,0.26872,-0.0598157,0.209276,0.174454
0.105475,0.132589,1.26899,0.245439,-0.192066,-0.0732602,-0.0728463,0.226744,0.219769
0.105648,0.135523,1.26481,0.12209,0.183807,-0.280696,-0.0759969,0.235358,0.273194
0.11485,0.137557,1.25823,0.163291,0.640199,-0.311617,-0.076177,0.233864,0.323628
0.132851,0.141089,1.25263,0.24454,1.04958,-0.171598,-0.0806679,0.221554,0.383286
0.156579,0.146079,1.2507,0.261434,1.23446,0.0651341,-0.091871,0.199103,0.434811
0.180522,0.151844,1.25385,0.249785,1.16038,0.338622,-0.106799,0.168671,0.462665
0.200215,0.159022,1.26255,0.296725,0.909883,0.642063,-0.118581,0.148465,0.472358
0.212575,0.169422,1.2773,0.436471,0.549812,0.995079,-0.10818,0.126987,0.45315
0.215641,0.185167,1.29888,0.641754,0.129,1.4137,-0.0853468,0.108366,0.425442
0.208135,0.206032,1.32817,0.7598,-0.311764,1.80558,-0.0664617,0.0752897,0.410606
0.189903,0.228229,1.36434,0.674739,-0.726712,2.05021,-0.058838,0.0528979,0.408217
0.161828,0.246713,1.40497,0.434416,-1.10709,2.10893,-0.063455,0.0223856,0.377751
0.125304,0.258337,1.44607,0.135547,-1.52737,1.93449,-0.0621435,-0.01769,0.315422
0.0801151,0.261574,1.48203,-0.173773,-2.04843,1.50613,-0.0575929,-0.0527085,0.209559
0.0284377,0.2566,1.50827,-0.453356,-2.35618,0.986553,-0.0546331,-0.0841886,0.128382
-0.0215523,0.245303,1.52401,-0.671989,-2.13902,0.561622,-0.0592948,-0.0799649,0.0963035
-0.0597298,0.229978,1.53236,-0.80618,-1.38764,0.343185,-0.0724165,-0.0527291,0.0793722
-0.0777966,0.212804,1.53749,-0.850612,-0.253763,0.298455,-0.0950098,-0.0331834,0.0611103
-0.0717141,0.195621,1.54272,-0.800398,0.918797,0.349219,-0.124889,-0.0235507,0.0348024
-0.0469388,0.180405,1.54912,-0.658808,1.57302,0.363735,-0.115476,-0.0428928,-0.0329984
-0.014459,0.168788,1.55633,-0.476542,1.71438,0.382757,-0.103728,-0.0788994,-0.0761731
-0.014459,0.168788,1.55633,-0.476542,1.71438,0.382757,-0.103728,-0.0788994,-0.0761731
0.0171575,0.160719,1.56484,-0.342751,1.53067,0.453629,-0.104063,-0.125479,-0.0960712
0.0427234,0.154908,1.57484,-0.272325,1.1554,0.498162,-0.106439,-0.159782,-0.112958
0.0600521,0.150753,1.58528,-0.183277,0.726723,0.505644,-0.10856,-0.169306,-0.138704
0.0692056,0.149189,1.596,-0.0303478,0.356952,0.549009,-0.105141,-0.174621,-0.164873
0.0721937,0.151104,1.60812,0.128234,0.155032,0.665068,-0.0939685,-0.172743,-0.179054
0.0720855,0.155596,1.62304,0.178281,0.0636465,0.826872,-0.0685439,-0.208358,-0.174696
0.0691406,0.158375,1.64065,-0.0758898,-0.0955676,0.893158,-0.0432271,-0.227174,-0.213407
0.0619726,0.154317,1.65795,-0.419615,-0.3451,0.753149,-0.0248201,-0.198056,-0.284288
0.0516504,0.145069,1.67227,-0.541134,-0.434253,0.622049,-0.0166614,-0.12021,-0.323271
0.0428467,0.135583,1.6853,-0.421163,-0.194763,0.652193,0.000970673,0.0084742,-0.30629
0.042723,0.131029,1.70153,-0.0702492,0.440679,0.969268,0.0302726,0.0592893,-0.200288
0.0548432,0.134574,1.72549,0.27067,1.02865,1.39593,0.0685893,0.0496348,-0.0646085
0.0737114,0.143221,1.75583,0.354256,1.19265,1.60405,0.134049,0.020051,0.0257853
0.0912528,0.152331,1.78836,0.275345,0.999728,1.65187,0.162477,0.00129114,0.0960477
0.103224,0.159828,1.82174,0.139943,0.715175,1.67909,0.175021,-0.0224463,0.172185
0.109639,0.164525,1.8557,-0.0339517,0.478242,1.68081,0.192046,-0.0471078,0.228681
0.111681,0.165811,1.88982,-0.201687,0.285966,1.66338,0.194721,-0.0574056,0.252281
0.109912,0.164496,1.92402,-0.282191,0.101596,1.65947,0.189366,-0.0755944,0.250995
0.104581,0.162478,1.95805,-0.263839,-0.0897682,1.64055,0.184139,-0.0983831,0.236076
0.0951549,0.160984,1.99111,-0.213748,-0.328398,1.55947,0.170942,-0.1189,0.205627
0.0810293,0.159557,2.02151,-0.198099,-0.583207,1.39528,0.16702,-0.141626,0.163609
0.0636457,0.157215,2.04806,-0.235826,-0.702633,1.18391,0.158693,-0.166338,0.139857
0.0463563,0.153065,2.07016,-0.29106,-0.661451,0.968288,0.152093,-0.155912,0.106769
0.0312727,0.148028,2.08857,-0.267052,-0.555295,0.836578,0.156193,-0.143802,0.0563444
0.0192223,0.143932,2.10501,-0.17271,-0.39817,0.780527,0.1527,-0.120405,0.0181177
0.0105448,0.142185,2.12059,-0.0201644,-0.250226,0.755585,0.155821,-0.10663,-0.0246574
0.00479337,0.14348,2.13577,0.135164,-0.101614,0.741314,0.149965,-0.0969255,-0.0500666
0.00250172,0.147569,2.15089,0.262578,0.106057,0.756532,0.143842,-0.0867305,-0.0572126
0.00512239,0.154055,2.1667,0.367578,0.400409,0.808134,0.137852,-0.0899766,-0.0380706
0.0135745,0.16217,2.18353,0.417959,0.689149,0.846142,0.118196,-0.0871972,-0.000470579
0.0262957,0.171273,2.20086,0.450105,0.837149,0.868949,0.111528,-0.0949286,0.0145689
0.040858,0.180673,2.21813,0.409329,0.903795,0.8535,0.107874,-0.109737,0.0269999
0.0562434,0.188379,2.23499,0.260453,0.923139,0.830197,0.102831,-0.120106,0.0261201
0.070927,0.192868,2.25113,0.0911342,0.833694,0.760055,0.106136,-0.118827,-0.0188118
0.0837731,0.194374,2.26555,-0.050746,0.727946,0.657028,0.102028,-0.0868468,-0.0683993
0.0958114,0.192614,2.27852,-0.25288,0.725812,0.61008,0.105048,-0.0447804,-0.112167
0.107543,0.186122,2.2916,-0.531466,0.664836,0.582314,0.112032,-0.00370215,-0.184401
0.11599,0.17247,2.30379,-0.99608,0.347412,0.41857,0.11287,0.0373699,-0.284594
0.11712,0.147728,2.31173,-1.50192,-0.108459,0.0375704,0.107534,0.0908707,-0.443754
0.110395,0.116042,2.31112,-1.53072,-0.556773,-0.460886,0.0787112,0.153517,-0.605591
0.0972701,0.0885663,2.30061,-1.00957,-0.786934,-0.805216,0.05428,0.287013,-0.687263
0.085202,0.0751099,2.28547,-0.180759,-0.433493,-0.749962,0.0165508,0.385571,-0.626035
0.0853508,0.0774452,2.27301,0.447648,0.373962,-0.449457,-0.0555728,0.415365,-0.419652
0.101982,0.0885582,2.26557,0.667787,1.19133,-0.213439,-0.116878,0.375582,-0.208847
0.13148,0.101951,2.25966,0.712302,1.60538,-0.25836,-0.16309,0.30786,-0.0510102
0.165202,0.115235,2.25011,0.734799,1.58221,-0.492904,-0.194138,0.220937,0.0663607
0.195277,0.127496,2.23526,0.716323,1.19448,-0.72001,-0.203953,0.145293,0.143808
0.216358,0.136793,2.21666,0.534953,0.640755,-0.872666,-0.185722,0.082625,0.202791
0.226355,0.140492,2.1968,0.256801,0.101264,-0.945868,-0.156237,0.0385288,0.229706
0.226971,0.139373,2.17724,0.0988795,-0.285138,-0.945519,-0.134177,0.0211553,0.229904
0.221299,0.137117,2.15852,0.115378,-0.510491,-0.899505,-0.112472,0.0170591,0.223536
0.221299,0.137117,2.15852,0.115378,-0.510491,-0.899505,-0.112472,0.0170591,0.223536
0.212689,0.136586,2.14083,0.211728,-0.553736,-0.811644,-0.094453,0.00876632,0.237498
0.204294,0.138669,2.12455,0.31848,-0.508406,-0.719058,-0.0746468,-0.00105685,0.26346
0.196678,0.143635,2.10949,0.445879,-0.445616,-0.642185,-0.0594892,-0.0224161,0.274897
0.190402,0.150286,2.09514,0.457469,-0.404862,-0.629072,-0.0534844,-0.0386794,0.297963
0.184371,0.1563,2.08033,0.395297,-0.420298,-0.697567,-0.0406971,-0.0555015,0.297729
0.178342,0.160784,2.06424,0.33553,-0.437236,-0.774014,-0.0299684,-0.0539273,0.286158
0.172035,0.164075,2.04693,0.284224,-0.469862,-0.840085,-0.0237011,-0.0402428,0.264472
0.165198,0.166125,2.0287,0.213095,-0.517536,-0.886486,-0.0144333,-0.0265478,0.243085
0.157312,0.166629,2.00976,0.131355,-0.580615,-0.942067,-0.00570592,-0.0224958,0.204548
0.148276,0.165194,1.98999,0.0189453,-0.644851,-0.998234,0.00111327,-0.0234839,0.164284
0.138398,0.161733,1.96947,-0.0648648,-0.645989,-1.04447,0.000989407,-0.0194519,0.119175
0.130429,0.157372,1.94837,-0.0871343,-0.445723,-1.06147,-0.0056648,-0.0184478,0.0858822
0.128493,0.152021,1.9274,-0.192984,-0.048054,-1.04389,-0.00459185,-0.026985,0.0724813
0.134432,0.143812,1.90791,-0.365042,0.328415,-0.960285,0.0150912,-0.0650115,0.0347637
0.14505,0.132956,1.89093,-0.451465,0.45482,-0.832076,0.0485362,-0.0942265,-0.0546042
0.155371,0.121775,1.87759,-0.446034,0.390258,-0.619861,0.0870452,-0.130067,-0.14067
0.163464,0.111448,1.86944,-0.445358,0.335299,-0.329336,0.125214,-0.161365,-0.199353
0.170535,0.101534,1.8674,-0.505984,0.350909,-0.0405233,0.162829,-0.189534,-0.240223
0.177122,0.0900989,1.87053,-0.68701,0.320037,0.10819,0.216714,-0.228413,-0.29985
0.183246,0.0740877,1.87535,-0.975271,0.348279,0.0697165,0.27569,-0.189835,-0.366608
0.189394,0.0524435,1.88122,-1.21462,0.233705,0.128123,0.308669,-0.0773413,-0.465307
0.189232,0.0309378,1.89008,-0.94337,-0.245064,0.358803,0.345173,0.0474734,-0.634852
0.179212,0.022197,1.90323,-0.11088,-0.663419,0.798142,0.354382,0.12713,-0.652504
0.163913,0.0314529,1.92363,0.599453,-0.775466,1.35157,0.309099,0.149856,-0.484335
0.147441,0.0509939,1.95235,0.806058,-0.736135,1.72434,0.245709,0.125999,-0.284123
0.131801,0.0715233,1.98581,0.739732,-0.590663,1.81113,0.180394,0.0785424,-0.120186
0.119809,0.0901083,2.019,0.698848,-0.315834,1.65956,0.101223,0.0583092,0.000430763
0.11389,0.108097,2.04829,0.751489,0.0109204,1.43058,0.0501658,0.0511548,0.0890408
0.114436,0.126627,2.07358,0.785443,0.331001,1.27858,0.0290614,0.0435867,0.174607
0.121014,0.144882,2.09695,0.737399,0.625192,1.23369,0.0100314,0.0341159,0.259996
0.131625,0.161557,2.11991,0.617321,0.740008,1.21136,0.00298607,0.016431,0.32129
0.142579,0.17579,2.14221,0.487684,0.704789,1.14541,-0.0042409,0.00908412,0.354084
0.151799,0.1878,2.16341,0.389448,0.581402,1.08525,-0.00897057,0.0111765,0.379369
0.158165,0.198365,2.18396,0.332174,0.444401,1.06776,-0.00527795,0.0208889,0.390394
0.161553,0.208006,2.20509,0.287786,0.312283,1.13354,0.0131942,0.0262576,0.392218
0.16156,0.217441,2.22856,0.27655,0.181748,1.28162,0.0320012,0.0406824,0.382255
0.157867,0.22759,2.2556,0.306124,0.0400556,1.46583,0.04719,0.0448744,0.363756
0.150141,0.238538,2.28562,0.325156,-0.126528,1.55638,0.0576459,0.0409093,0.335127
0.138044,0.249154,2.31672,0.267932,-0.333264,1.55236,0.0680136,0.0273463,0.30115
0.12206,0.256882,2.34764,0.0978957,-0.474072,1.49681,0.0846912,0.0168985,0.258377
0.10451,0.260507,2.37798,-0.0638515,-0.47961,1.44794,0.0997311,0.0118278,0.197834
0.0878078,0.260555,2.40754,-0.199238,-0.417472,1.37142,0.0932282,0.0181916,0.12529
0.0732854,0.25757,2.43434,-0.298411,-0.350064,1.15535,0.0704156,0.0522165,0.0366209
0.0617831,0.252607,2.45611,-0.319334,-0.22672,0.916444,0.0593105,0.0866756,-0.0496051
0.0553081,0.247631,2.47396,-0.273521,0.0394806,0.795137,0.0495404,0.116278,-0.0907484
0.0560636,0.242981,2.49041,-0.285356,0.434437,0.768457,0.0305573,0.131618,-0.0969246
0.0639041,0.237819,2.50609,-0.317642,0.656013,0.702095,0.0268497,0.109516,-0.139032
0.0732625,0.232545,2.51929,-0.266628,0.530937,0.508483,0.00991941,0.0954599,-0.240938
0.0789774,0.23031,2.52619,0.0376463,0.193155,0.101774,-0.0241083,0.0963219,-0.369298
0.0812904,0.234599,2.52273,0.361221,0.0102652,-0.372195,-0.0266543,0.0803844,-0.403636
0.0858782,0.239283,2.51224,0.0849769,0.277696,-0.562006,-0.0011146,0.0400608,-0.325529
0.0858782,0.239283,2.51224,0.0849769,0.277696,-0.562006,-0.0011146,0.0400608,-0.325529
0.0989133,0.233337,2.49956,-0.559787,0.691504,-0.753089,0.00478455,-0.0155859,-0.278803
0.117695,0.215884,2.48139,-0.901225,0.693935,-1.21894,-0.00991601,-0.0304787,-0.347048
0.133742,0.194346,2.45341,-0.831466,0.317352,-1.7262,-0.037236,0.0271859,-0.427933
0.143344,0.17576,2.41867,-0.510168,0.0424108,-1.80406,-0.00539914,0.0888278,-0.41529
0.149708,0.16491,2.38694,-0.104968,0.121747,-1.36757,0.0269916,0.130686,-0.320636
0.159112,0.162795,2.36534,0.193847,0.464354,-0.770579,0.0132705,0.132017,-0.171545
0.172744,0.166419,2.35301,0.337809,0.657141,-0.413058,-0.0269184,0.117571,-0.048345
0.187481,0.171986,2.34465,0.331201,0.628765,-0.321499,-0.0706746,0.0813869,0.070628
0.1994,0.176277,2.33664,0.232452,0.393359,-0.388128,-0.110509,0.0614283,0.147049
0.2062,0.177914,2.32686,0.120914,0.122529,-0.516882,-0.129092,0.0515044,0.192796
0.209314,0.177152,2.31525,0.0515164,0.0133856,-0.59768,-0.124093,0.0444066,0.220555
0.212157,0.17568,2.30314,0.0664104,0.073269,-0.572518,-0.11254,0.04459,0.239265
0.21661,0.175607,2.29216,0.162179,0.17226,-0.471356,-0.102667,0.0422904,0.251758
0.222123,0.17843,2.28249,0.317879,0.192838,-0.399591,-0.100196,0.0396066,0.260376
0.227149,0.184388,2.27304,0.457404,0.133681,-0.378056,-0.0995423,0.0300397,0.287051
0.230877,0.192209,2.2631,0.507004,0.0452881,-0.397433,-0.100578,0.0219761,0.329441
0.232337,0.199825,2.25254,0.444927,-0.126116,-0.436928,-0.09443,0.0225179,0.342149
0.229552,0.205182,2.24138,0.325433,-0.378109,-0.498886,-0.0748343,0.0229902,0.31374
0.222138,0.208344,2.22965,0.247084,-0.581594,-0.53419,-0.0497948,0.0227423,0.285023
0.211591,0.210444,2.21787,0.201399,-0.712071,-0.5386,-0.0272509,0.0245685,0.254697
0.198768,0.211237,2.20623,0.0898157,-0.792219,-0.554083,0.00413145,0.0117936,0.216165
0.185615,0.209169,2.19523,-0.0965741,-0.724781,-0.535541,0.0283951,-0.0142765,0.192526
0.174594,0.203391,2.1851,-0.283699,-0.567538,-0.545094,0.034737,-0.0340919,0.15775
0.167627,0.194222,2.17479,-0.436651,-0.32216,-0.607374,0.0391439,-0.0641526,0.118537
0.16599,0.182227,2.16363,-0.553122,-0.0439186,-0.65576,0.0448432,-0.0858846,0.0821537
0.169243,0.168647,2.15266,-0.590932,0.158412,-0.612849,0.0554805,-0.106535,0.0390956
0.174582,0.155049,2.1436,-0.588255,0.195305,-0.487314,0.067828,-0.130621,-0.0055148
0.178333,0.141811,2.13715,-0.599241,0.0733099,-0.377845,0.071233,-0.147726,-0.063687
0.178791,0.1287,2.13298,-0.603194,-0.085619,-0.245125,0.0811682,-0.158383,-0.121324
0.175658,0.116874,2.13205,-0.524908,-0.229694,-0.0455308,0.0772296,-0.168579,-0.170543
0.169972,0.10799,2.1348,-0.383903,-0.294585,0.159938,0.0635509,-0.165794,-0.225169
0.163896,0.103414,2.14084,-0.152424,-0.227991,0.349342,0.0486609,-0.16061,-0.288264
0.159561,0.104246,2.14925,0.0920506,-0.110707,0.4741,0.0465676,-0.175392,-0.333843
0.157837,0.108777,2.15915,0.166555,0.027146,0.558185,0.0392265,-0.170292,-0.334292
0.157365,0.113037,2.17027,0.0499721,0.00879532,0.584143,0.0465387,-0.162228,-0.355223
0.1536,0.113044,2.18111,-0.21494,-0.294334,0.439178,0.0442075,-0.138509,-0.450149
0.143476,0.108757,2.18816,-0.254119,-0.606409,0.205803,0.0573689,-0.101281,-0.530771
0.130045,0.106726,2.19242,0.0293673,-0.645805,0.230822,0.0610765,-0.0398843,-0.508577
0.117848,0.112603,2.19866,0.492994,-0.461016,0.47,0.0569359,0.0489502,-0.41621
0.110862,0.128638,2.20933,0.95105,-0.10039,0.746642,0.0396775,0.100253,-0.256782
0.110376,0.152348,2.22372,1.19878,0.232521,0.897667,0.0143537,0.123882,-0.0772287
0.11357,0.178928,2.23889,1.23741,0.277942,0.84131,-0.0148522,0.125377,0.0531506
0.114904,0.204582,2.25099,1.14054,0.0614709,0.607537,-0.022173,0.111331,0.130831
0.112269,0.226114,2.25816,0.885564,-0.151815,0.327959,-0.0209091,0.0880224,0.20489
0.10816,0.240743,2.26074,0.519189,-0.171402,0.0887692,-0.0189901,0.0728968,0.28412
0.105526,0.246951,2.25991,0.102237,-0.106368,-0.0985898,-0.0105211,0.0607025,0.322377
0.104835,0.245257,2.25626,-0.216097,-0.0642203,-0.269839,-0.00612883,0.054482,0.333646
0.104943,0.238311,2.24956,-0.398718,-0.110088,-0.44227,-0.00572063,0.0517207,0.337837
0.103718,0.227428,2.23967,-0.591734,-0.242321,-0.620485,-0.00333157,0.0431302,0.356084
0.100865,0.211668,2.2268,-0.842279,-0.308497,-0.770943,0.000658847,0.0445791,0.377589
0.100865,0.211668,2.2268,-0.842279,-0.308497,-0.770943,0.000658847,0.0445791,0.377589
0.0972255,0.191954,2.2124,-0.935801,-0.333058,-0.788392,0.0336014,0.0526247,0.338829
0.0930904,0.173203,2.19963,-0.761379,-0.311005,-0.60181,0.0718106,0.0542205,0.28926
0.0880782,0.160307,2.19139,-0.437372,-0.337141,-0.308633,0.0919201,0.0570055,0.259459
0.0807042,0.15457,2.18905,-0.122706,-0.438812,0.039064,0.123073,0.047052,0.255675
0.0699409,0.154506,2.1934,0.0546056,-0.571486,0.37747,0.117014,0.0384441,0.286743
0.05604,0.156538,2.2035,0.0553254,-0.624621,0.609318,0.108187,0.0238653,0.301026
0.041964,0.156707,2.21737,-0.138103,-0.566691,0.738029,0.101156,0.00732374,0.2966
0.0282951,0.151416,2.23289,-0.443656,-0.562152,0.750954,0.108614,-0.0145216,0.229221
0.0145903,0.14006,2.24795,-0.691284,-0.583948,0.708222,0.117694,-0.0234833,0.134389
0.0010395,0.125945,2.26228,-0.684242,-0.55855,0.701399,0.113455,-0.00849715,0.0254651
-0.0110721,0.113582,2.27697,-0.535556,-0.4644,0.759633,0.114135,-0.0113264,-0.0469097
-0.0200341,0.103643,2.29298,-0.437337,-0.238614,0.843296,0.111646,-0.016461,-0.0872613
-0.0238838,0.0947761,2.31076,-0.415058,0.0289359,0.934758,0.108384,-0.0423438,-0.0886494
-0.0220924,0.086056,2.32982,-0.398015,0.319038,0.961278,0.0799159,-0.0603057,-0.085334
-0.0152675,0.0783721,2.34892,-0.333113,0.480682,0.941011,0.0754922,-0.0949868,-0.0712399
-0.0066507,0.0715098,2.36711,-0.343112,0.520048,0.86353,0.0689505,-0.107628,-0.0640554
0.00338204,0.0641148,2.38388,-0.395975,0.579788,0.811331,0.0432404,-0.111192,-0.066071
0.0138299,0.0553155,2.39989,-0.50827,0.537142,0.765989,0.033387,-0.129664,-0.0929489
0.0229849,0.0439385,2.41467,-0.626862,0.43915,0.687525,0.0178412,-0.0993251,-0.162133
0.0297419,0.0321357,2.42828,-0.559604,0.286349,0.627191,0.000825882,-0.0465899,-0.281247
0.0345025,0.0216602,2.44017,-0.564849,0.241409,0.511309,-0.0153684,0.0115268,-0.329321
0.0396151,0.00740977,2.44917,-0.940557,0.293913,0.312889,-0.0229869,0.0398805,-0.320499
0.045616,-0.0170748,2.45378,-1.52686,0.248265,0.0317217,-0.0356907,0.0619666,-0.313838
0.0460266,-0.0534128,2.45321,-2.04102,-0.278391,-0.24625,-0.0196844,0.0959352,-0.396389
0.0329713,-0.0964031,2.44794,-2.11418,-0.941258,-0.424347,-0.0086119,0.153838,-0.502285
0.00959148,-0.134011,2.44034,-1.52518,-1.22211,-0.380216,-0.0279228,0.217998,-0.536462
-0.0157412,-0.154347,2.43499,-0.478537,-1.1778,-0.100789,-0.0516006,0.224988,-0.461931
-0.0356647,-0.154618,2.43726,0.399587,-0.824864,0.308585,-0.106568,0.217945,-0.310181
-0.0476447,-0.142688,2.44686,0.738447,-0.490579,0.530435,-0.136894,0.193535,-0.18133
-0.0525055,-0.128585,2.45764,0.674755,-0.1783,0.407117,-0.162368,0.154576,-0.0609987
-0.0543513,-0.116899,2.46292,0.517738,-0.0877514,0.0296024,-0.193117,0.121587,0.000573874
-0.0561384,-0.107442,2.4596,0.419225,-0.0561454,-0.408489,-0.206498,0.0852088,0.0647652
-0.0581002,-0.0987329,2.44801,0.396662,-0.0162698,-0.76191,-0.196396,0.0632774,0.119198
-0.0590563,-0.0893065,2.43084,0.442627,0.0997877,-0.963517,-0.161794,0.0325774,0.178208
-0.0569084,-0.07857,2.41104,0.512967,0.268361,-1.0448,-0.128768,0.0213186,0.232682
-0.0525381,-0.0662129,2.39035,0.598734,0.284319,-1.07294,-0.100769,0.00848152,0.263812
-0.049188,-0.0523513,2.36907,0.679113,0.160845,-1.11446,-0.0802176,0.0050304,0.269639
-0.0486539,-0.0365422,2.34707,0.77873,-0.0150416,-1.13724,-0.059308,-0.00294946,0.283321
-0.0512556,-0.0190653,2.32528,0.837384,-0.171848,-1.11299,-0.0496216,-5.16754e-05,0.298905
-0.0558672,-0.000840794,2.30412,0.85204,-0.258747,-1.08087,-0.0371948,0.009581,0.306957
-0.061428,0.017432,2.28389,0.842316,-0.317153,-1.03828,-0.0253357,0.014059,0.301673
-0.06786,0.0354398,2.26412,0.81398,-0.368207,-1.04447,-0.0227194,0.0329147,0.287416
-0.0749644,0.0527517,2.24403,0.750593,-0.428093,-1.07034,-0.0132533,0.053536,0.267792
-0.0821476,0.0684178,2.22318,0.626856,-0.39635,-1.12042,4.55305e-05,0.0528615,0.269076
-0.087638,0.080956,2.20097,0.414697,-0.312575,-1.18215,0.0187119,0.0374564,0.267009
-0.0907401,0.0889064,2.17719,0.166299,-0.190368,-1.22848,0.0543537,0.00659026,0.246042
-0.0906474,0.0922941,2.15259,-0.0471727,-0.0220152,-1.22214,0.0769849,-0.0296325,0.226504
-0.0874892,0.0915443,2.12807,-0.242744,0.087932,-1.19058,0.102927,-0.0670003,0.202316
-0.0874892,0.0915443,2.12807,-0.242744,0.087932,-1.19058,0.102927,-0.0670003,0.202316
-0.0834498,0.0868422,2.10407,-0.417205,0.0904453,-1.13635,0.130814,-0.111463,0.158948
-0.0802169,0.0790286,2.08124,-0.529701,0.0385877,-1.0542,0.146638,-0.141238,0.11669
-0.0786068,0.0693501,2.06024,-0.582129,-0.0415898,-0.937132,0.158385,-0.159435,0.0655912
-0.0789576,0.0593895,2.04207,-0.544958,-0.0949349,-0.778407,0.157273,-0.167818,0.0190833
-0.0796557,0.0500819,2.02747,-0.485236,-0.0337032,-0.587123,0.15221,-0.174426,-0.0119738
-0.0782687,0.0418987,2.01708,-0.408148,0.123982,-0.379078,0.148829,-0.189269,-0.0232845
-0.07394,0.0346706,2.01076,-0.367086,0.279793,-0.194164,0.142447,-0.200703,-0.0313773
-0.0670374,0.027375,2.00794,-0.381462,0.38778,-0.0408596,0.128104,-0.208484,-0.0383408
-0.0593633,0.0195358,2.00794,-0.389792,0.344289,0.0883579,0.120795,-0.214825,-0.0658252
-0.0538262,0.0116787,2.01062,-0.369042,0.200101,0.225544,0.121103,-0.226801,-0.124166
-0.0516348,0.00474379,2.01632,-0.271102,0.0331568,0.385674,0.126196,-0.222933,-0.203111
-0.0514775,0.000371854,2.02608,-0.128594,-0.00396919,0.60201,0.135271,-0.237497,-0.255826
-0.0516176,-0.00284212,2.03985,-0.173227,-0.0442554,0.77895,0.140202,-0.23209,-0.299569
-0.0574084,-0.0110624,2.05554,-0.59638,-0.61158,0.746851,0.117356,-0.224823,-0.515365
-0.0742662,-0.0267819,2.06648,-0.812788,-0.994544,0.470647,0.0784895,-0.0688472,-0.706163
-0.09238,-0.0419992,2.07499,-0.594028,-0.74579,0.56718,0.0606273,0.0408379,-0.720215
-0.100369,-0.0517154,2.08928,-0.200704,-0.0806002,0.97006,0.00387552,0.193761,-0.616715
-0.0921514,-0.0518611,2.11369,0.47491,0.756476,1.44879,-0.0318058,0.235043,-0.412198
-0.0692605,-0.0377097,2.14817,1.13995,1.29414,1.8116,-0.0118683,0.170368,-0.172556
-0.040777,-0.0144147,2.18656,1.29751,1.35797,1.82393,0.0348563,0.140752,0.00394773
-0.0165081,0.0085328,2.22212,1.03968,0.999979,1.63214,0.0665402,0.117587,0.0948285
-0.00247154,0.025494,2.25297,0.687217,0.429148,1.43014,0.0877215,0.099237,0.130974
-0.000628017,0.0374374,2.28029,0.553862,-0.146991,1.30713,0.107576,0.0984028,0.12169
-0.00880734,0.0496209,2.30644,0.690003,-0.50288,1.3002,0.121605,0.10589,0.106747
-0.0206318,0.0645974,2.33364,0.818897,-0.45896,1.39645,0.136478,0.0919268,0.135992
-0.029114,0.080568,2.36388,0.831066,-0.155511,1.57033,0.143044,0.0801452,0.174511
-0.0322368,0.0955872,2.3979,0.74491,0.12904,1.74345,0.161143,0.0407237,0.192901
-0.031628,0.108235,2.43435,0.631729,0.272738,1.80262,0.180058,0.0154188,0.180556
-0.0299994,0.119653,2.47106,0.615075,0.275036,1.77923,0.193187,-0.0196552,0.170275
-0.0296282,0.131259,2.50683,0.642244,0.204242,1.71631,0.213482,-0.0432658,0.163082
-0.0312639,0.143478,2.54184,0.670323,0.101031,1.71001,0.251244,-0.0634497,0.156172
-0.0355607,0.155859,2.5773,0.677284,-0.00511716,1.72884,0.274868,-0.0762166,0.149623
-0.0423384,0.168381,2.61282,0.707618,-0.0967804,1.70356,0.285166,-0.0706952,0.135075
-0.0507087,0.181494,2.64809,0.750731,-0.101109,1.70002,0.298588,-0.0624209,0.128841
-0.0590581,0.194626,2.68436,0.74367,-0.056509,1.76941,0.30118,-0.0523283,0.131998
-0.067633,0.207007,2.7222,0.726602,-0.0431559,1.83183,0.300117,-0.0308118,0.127612
-0.076422,0.219202,2.76113,0.759946,-0.0220012,1.85728,0.287427,-0.00931007,0.134676
-0.0852158,0.231545,2.80057,0.76014,0.0440748,1.84776,0.273744,0.00394122,0.152673
-0.0921937,0.242866,2.83963,0.68407,0.180165,1.81912,0.261419,0.0192633,0.187661
-0.0964652,0.251799,2.87823,0.54178,0.341405,1.803,0.246995,0.0274056,0.223622
-0.0971283,0.257015,2.91619,0.316887,0.538174,1.78101,0.227625,0.0396254,0.264353
-0.0939743,0.257505,2.95286,0.0740119,0.69804,1.71824,0.217024,0.0415947,0.270287
-0.0875311,0.254433,2.98776,-0.0507207,0.817801,1.66481,0.199031,0.0545376,0.249456
-0.0785144,0.249965,3.02243,-0.121038,0.935214,1.71219,0.180443,0.0577792,0.230432
-0.0675209,0.243772,3.05836,-0.251714,1.02594,1.78529,0.162872,0.0514084,0.20623
-0.0551425,0.234898,3.09528,-0.403234,1.07049,1.82315,0.13226,0.0390336,0.155844
-0.0423571,0.224007,3.13197,-0.496409,1.00635,1.76017,0.081768,0.0389416,0.0842633
-0.0423571,0.224007,3.13197,-0.496409,1.00635,1.76017,0.081768,0.0389416,0.0842633
-0.0315967,0.212687,-3.11693,-0.485316,0.785508,1.59677,0.042873,0.0415314,-0.0207776
-0.0248081,0.203041,-3.08628,-0.394447,0.521058,1.41986,0.00867095,0.0477637,-0.110184
-0.0223956,0.194698,-3.05874,-0.385794,0.263614,1.29462,-0.00563258,0.0526017,-0.18691
-0.0236273,0.185782,-3.03284,-0.453141,0.120901,1.28714,-0.0205742,0.0671917,-0.25764
-0.0260826,0.174943,-3.00546,-0.563859,0.131022,1.41177,-0.0504598,0.0327404,-0.323506
-0.0281101,0.161976,-2.97731,-0.619904,0.160581,1.35244,-0.109835,0.0930768,-0.386419
-0.0271311,0.149948,-2.95275,-0.499214,0.327413,1.05457,-0.151872,0.088993,-0.391682
-0.0199397,0.140696,-2.93606,-0.386653,0.663351,0.626042,-0.164875,0.122059,-0.349342
-0.00305912,0.133849,-2.92542,-0.280045,1.16125,0.482626,-0.16303,0.13438,-0.242622
0.0226148,0.129336,-2.91519,-0.186509,1.45715,0.535577,-0.137811,0.122979,-0.159409
0.0493113,0.126911,-2.90365,-0.0827798,1.27168,0.589843,-0.132666,0.133772,-0.133241
0.0680066,0.127797,-2.8915,0.100781,0.697559,0.60251,-0.1346,0.134194,-0.10493
0.0737937,0.132258,-2.88001,0.245049,0.0383584,0.557487,-0.132424,0.131629,-0.0644554
0.0679066,0.138846,-2.86965,0.319356,-0.44735,0.513622,-0.12813,0.128772,0.013988
0.0552879,0.145653,-2.85998,0.295254,-0.625822,0.476331,-0.117663,0.101468,0.105392
0.0417405,0.151704,-2.85138,0.255443,-0.572429,0.38868,-0.103276,0.0684504,0.179716
0.0305113,0.156268,-2.84505,0.161396,-0.452951,0.241159,-0.0885455,0.0442435,0.228154
0.0217443,0.158105,-2.84221,0.00793984,-0.38181,0.0369002,-0.0655998,0.0264358,0.255696
0.0146584,0.156823,-2.84344,-0.126197,-0.342833,-0.144361,-0.0286535,0.0111002,0.262006
0.00866701,0.153255,-2.8472,-0.223249,-0.307908,-0.215999,0.0163675,-0.0146261,0.258445
0.00392513,0.147898,-2.85155,-0.310346,-0.218418,-0.20356,0.0538112,-0.0323281,0.252961
0.00144537,0.140639,-2.85512,-0.409511,-0.0749141,-0.142924,0.0749239,-0.0412818,0.238432
0.00154719,0.131346,-2.85708,-0.512878,0.0464118,-0.0485372,0.0845257,-0.0459263,0.21482
0.00264706,0.120435,-2.85702,-0.561361,0.042686,0.0564535,0.100399,-0.0487856,0.166306
0.00209332,0.109126,-2.85464,-0.560212,-0.0850432,0.173854,0.103769,-0.0502247,0.10965
-0.00186602,0.0984,-2.85012,-0.50091,-0.258152,0.266281,0.0974686,-0.0263467,0.0429667
-0.00891878,0.0891742,-2.84368,-0.410633,-0.366529,0.387094,0.0975215,-0.00710472,-0.00415033
-0.0172698,0.0818531,-2.83371,-0.304286,-0.383444,0.636745,0.0948478,0.00583404,-0.0320154
-0.0269291,0.0765253,-2.81751,-0.187268,-0.455726,0.982337,0.0856391,-0.00321537,-0.0763167
-0.0385136,0.0734804,-2.79498,-0.0393546,-0.533491,1.24062,0.0479521,-0.0138811,-0.113973
-0.052376,0.0727921,-2.76871,0.0797741,-0.662654,1.33693,0.0179269,-0.0314743,-0.159442
-0.0687087,0.0732235,-2.74222,0.107976,-0.756402,1.26456,-0.00329141,-0.0575944,-0.201719
-0.0850354,0.0733473,-2.71836,0.0838403,-0.645808,1.09579,-0.0351074,-0.0589968,-0.24021
-0.0958803,0.072861,-2.69751,0.0542775,-0.238715,0.979557,-0.0591989,-0.0587188,-0.254365
-0.0963164,0.0716889,-2.67857,-0.00169344,0.335494,0.924559,-0.0644341,-0.0607119,-0.253865
-0.0864645,0.0680676,-2.66065,-0.222563,0.70594,0.846779,-0.0484409,-0.115029,-0.292054
-0.0724137,0.0592083,-2.64712,-0.551088,0.755311,0.521842,-0.0528984,-0.0665129,-0.365742
-0.0569824,0.0457099,-2.64155,-0.696608,0.848501,0.142006,-0.0362323,-0.00986314,-0.38673
-0.0368858,0.033516,-2.64104,-0.465199,1.18148,0.0164737,0.0246498,0.0287491,-0.314413
-0.00814953,0.0280379,-2.63908,-0.0883781,1.70225,0.249431,0.0964794,0.0481607,-0.168837
0.029923,0.0288709,-2.62995,0.114732,2.04154,0.65527,0.143495,0.0268681,-0.0276739
0.0690067,0.0321611,-2.61454,0.116791,1.79027,0.840302,0.167687,0.0129448,0.0241122
0.0968335,0.0362694,-2.59839,0.167293,0.964436,0.769402,0.167984,0.0186529,0.00309885
0.105449,0.0426743,-2.58477,0.333493,-0.0408893,0.655028,0.173178,0.0411966,-0.0192468
0.0959168,0.0524595,-2.57267,0.495871,-0.787013,0.661547,0.181034,0.0682589,-0.00915492
0.0746457,0.0645154,-2.55951,0.571226,-1.19619,0.746756,0.193142,0.0710168,-0.01316
0.0483275,0.0773785,-2.54436,0.61545,-1.26591,0.821288,0.183144,0.0684513,-0.0280821
0.023361,0.0911026,-2.52828,0.693501,-1.04425,0.801525,0.157448,0.0573311,-0.039285
0.023361,0.0911026,-2.52828,0.693501,-1.04425,0.801525,0.157448,0.0573311,-0.039285
0.00468331,0.106286,-2.51339,0.785534,-0.647882,0.679529,0.122922,0.0562359,-0.027352
-0.00506603,0.122663,-2.50112,0.823456,-0.176419,0.534157,0.0916674,0.0548963,0.0217705
-0.00504816,0.138882,-2.4914,0.786898,0.290978,0.431892,0.0728249,0.0637137,0.0879693
0.00334648,0.154364,-2.48304,0.749869,0.635824,0.391539,0.0661361,0.0637557,0.147406
0.0163476,0.168994,-2.47569,0.702406,0.742272,0.335971,0.0591118,0.0762723,0.184582
0.0299329,0.183201,-2.46968,0.696535,0.693741,0.288223,0.0516119,0.079975,0.222388
0.041842,0.197044,-2.46467,0.6547,0.579885,0.24936,0.0445509,0.0812846,0.2577
0.0513599,0.209348,-2.46064,0.538474,0.443931,0.200114,0.0348514,0.0804569,0.283151
0.0583155,0.218654,-2.45774,0.364817,0.300815,0.120396,0.0223442,0.0832488,0.287199
0.0624421,0.224282,-2.45673,0.191144,0.136241,0.00445887,0.00965705,0.0837655,0.261827
0.0649163,0.226557,-2.45762,0.0452209,0.108498,-0.0610792,-0.00239141,0.102844,0.23579
0.0676091,0.226659,-2.45862,-0.0143534,0.15053,-0.0271761,-0.0179475,0.129523,0.195158
0.071787,0.226452,-2.4583,6.81286e-05,0.291783,0.0633493,-0.0218137,0.137867,0.173543
0.0792295,0.226921,-2.4555,0.0191327,0.524132,0.213426,-0.0255582,0.139529,0.178308
0.090652,0.227125,-2.44992,-0.0620847,0.725363,0.311608,-0.0416178,0.12215,0.201412
0.104963,0.225132,-2.44313,-0.21055,0.830976,0.313018,-0.0524742,0.0849141,0.214304
0.120346,0.219631,-2.43624,-0.414816,0.846949,0.285215,-0.0632318,0.0440261,0.192796
0.136727,0.209346,-2.4294,-0.706214,0.946831,0.241666,-0.079065,-0.00650446,0.144896
0.156639,0.191751,-2.42277,-1.13264,1.18266,0.128512,-0.088473,-0.0641674,0.0430332
0.181263,0.165874,-2.41789,-1.42188,1.29208,-0.11575,-0.106813,-0.0901951,-0.14022
0.203663,0.138109,-2.41855,-1.20443,0.836705,-0.479519,-0.101974,-0.0667207,-0.392465
0.213903,0.115411,-2.42674,-0.882406,0.0480261,-0.765725,-0.0870842,-0.0621214,-0.519342
0.207213,0.0935005,-2.44027,-1.04947,-0.867825,-1.00474,-0.0776218,-0.0155223,-0.542512
0.179035,0.0641927,-2.45836,-1.45894,-2.14346,-1.33868,-0.0494634,0.0331582,-0.584112
0.125827,0.0280325,-2.48352,-1.67953,-3.14367,-1.64142,0.00678666,0.0745225,-0.587321
0.0611373,-0.0074247,-2.51355,-1.4766,-3.12698,-1.58803,0.0498796,0.11077,-0.525974
0.00619498,-0.0331506,-2.54047,-0.987887,-2.21328,-1.13764,0.0552862,0.103544,-0.347477
-0.0281278,-0.0475226,-2.55846,-0.458908,-1.13701,-0.65349,0.0908975,0.0676535,-0.247282
-0.0428492,-0.050839,-2.56828,0.0738687,-0.356585,-0.33054,0.131617,0.0354409,-0.1768
-0.0465888,-0.045223,-2.57271,0.427762,-0.0578687,-0.152563,0.127289,0.048451,-0.109788
-0.0475941,-0.0344327,-2.57418,0.616977,-0.0688593,-0.0587446,0.103685,0.0772228,-0.0392305
-0.0500936,-0.0210611,-2.57437,0.694123,-0.17465,-0.0353148,0.0880864,0.091581,0.0260967
-0.0532141,-0.00761984,-2.57473,0.615464,-0.0901166,-0.0898024,0.0651198,0.099909,0.0985158
-0.0524975,0.00283191,-2.57768,0.387053,0.164162,-0.272358,0.0515729,0.108026,0.160087
-0.0472473,0.00855072,-2.58507,0.146557,0.339026,-0.48342,0.0576498,0.0989285,0.169136
-0.0397456,0.0105979,-2.59581,0.0302657,0.37465,-0.558675,0.0677481,0.0838095,0.160424
-0.0329473,0.0115923,-2.60624,0.0416471,0.273823,-0.459059,0.066005,0.0636398,0.143982
-0.029217,0.0134572,-2.61381,0.132699,0.0826904,-0.298726,0.049245,0.042357,0.117983
-0.0296218,0.0179178,-2.61838,0.297929,-0.131338,-0.17641,0.0243637,0.0094178,0.10432
-0.0334877,0.025401,-2.62105,0.42345,-0.229821,-0.124802,-0.0100474,-0.00737753,0.11223
-0.0377001,0.034541,-2.62321,0.46168,-0.18715,-0.132715,-0.0489249,-0.0153925,0.147192
-0.0403896,0.043609,-2.62614,0.427027,-0.088304,-0.203511,-0.0682871,-0.0233756,0.169728
-0.0411329,0.0520703,-2.63061,0.39419,-0.0201556,-0.273347,-0.0753438,-0.0330209,0.187131
-0.0409622,0.0601607,-2.63658,0.394462,-0.00696612,-0.351925,-0.077501,-0.0278577,0.196755
-0.0410544,0.068663,-2.64402,0.420631,-0.05628,-0.419055,-0.0611656,-0.0343724,0.209388
-0.0424151,0.0773611,-2.65261,0.398369,-0.136263,-0.465728,-0.0391758,-0.0321215,0.226474
-0.0448497,0.0852173,-2.66178,0.340437,-0.163872,-0.47004,-0.0147,-0.03424,0.240425
-0.0470638,0.0916228,-2.67082,0.245626,-0.127634,-0.456682,-0.000987221,-0.0383575,0.261655
-0.0470638,0.0916228,-2.67082,0.245626,-0.127634,-0.456682,-0.000987221,-0.0383575,0.261655
-0.0482564,0.0955925,-2.67974,0.108751,-0.07911,-0.444278,0.0204753,-0.0414242,0.262266
-0.0488611,0.0966679,-2.68844,-0.049534,-0.0717729,-0.419424,0.0473624,-0.0521488,0.243014
-0.0496816,0.0941934,-2.69683,-0.238694,-0.0939544,-0.401747,0.062289,-0.06009,0.219864
-0.0513091,0.0879728,-2.70512,-0.415001,-0.15427,-0.380888,0.0806293,-0.0637213,0.172465
-0.0549953,0.07864,-2.71267,-0.542227,-0.277688,-0.317366,0.0939212,-0.0685509,0.101039
-0.0610907,0.0676624,-2.71905,-0.55437,-0.347543,-0.233346,0.0998993,-0.0606088,0.0241709
-0.0678131,0.0581649,-2.7228,-0.387815,-0.336282,-0.0617571,0.0975996,-0.0612373,-0.0395844
-0.0735055,0.0525479,-2.7225,-0.182682,-0.209977,0.126037,0.0934948,-0.0788849,-0.0690946
-0.0759743,0.04956,-2.71873,-0.104387,-0.0078138,0.262244,0.0706048,-0.105795,-0.0619398
-0.0745418,0.0469889,-2.71256,-0.0982132,0.166732,0.359242,0.0527994,-0.138712,-0.0611591
-0.070586,0.0449902,-2.70496,-0.0381343,0.242676,0.395603,0.025351,-0.163963,-0.0698295
-0.0665424,0.0443562,-2.69726,0.0284136,0.184235,0.362798,-0.00750093,-0.167099,-0.0926873
-0.0641564,0.0452283,-2.69025,0.0960567,0.0871279,0.327227,-0.036066,-0.164672,-0.119869
-0.0636493,0.0472193,-2.68393,0.137779,-0.0151694,0.290633,-0.0571005,-0.148629,-0.165125
-0.0657556,0.0503,-2.6781,0.216143,-0.169718,0.276496,-0.0673095,-0.12538,-0.233388
-0.070958,0.0551592,-2.67211,0.293058,-0.334012,0.284295,-0.0711009,-0.107512,-0.278325
-0.0809627,0.0601823,-2.66629,0.213097,-0.659575,0.226115,-0.0710361,-0.0946849,-0.346526
-0.0986648,0.061642,-2.66394,-0.0654647,-1.06349,-0.0337965,-0.0956367,-0.0196958,-0.449884
-0.120683,0.0582363,-2.66786,-0.287203,-1.06646,-0.289062,-0.10749,0.0431278,-0.490951
-0.136679,0.0531444,-2.67516,-0.26575,-0.467171,-0.330212,-0.104325,0.0906103,-0.462232
-0.135811,0.0512519,-2.68039,0.0333101,0.548463,-0.116233,-0.0580672,0.0835324,-0.34695
-0.115615,0.0554973,-2.67886,0.371032,1.38291,0.213762,-0.00766861,0.0585665,-0.20277
-0.0850256,0.0635113,-2.67114,0.456862,1.61225,0.443784,0.0354051,0.0232008,-0.0929016
-0.0558948,0.0715206,-2.66098,0.402536,1.28104,0.476712,0.0469185,0.0031919,-0.0404759
-0.0372291,0.0789897,-2.65196,0.391621,0.619403,0.373878,0.0594586,-0.00757916,-0.0251864
-0.0316837,0.0871798,-2.64517,0.441359,0.0200123,0.281496,0.0715666,-0.00901504,0.000508785
-0.0352933,0.0962771,-2.6395,0.470927,-0.271189,0.263754,0.0855071,-0.00143619,0.0444164
-0.040977,0.105531,-2.6334,0.470873,-0.179058,0.312727,0.101239,0.00658036,0.0875199
-0.0424152,0.114941,-2.62579,0.501985,0.138629,0.40212,0.105615,0.0133694,0.124314
-0.0371922,0.125421,-2.61641,0.583025,0.485765,0.480764,0.10754,0.0195022,0.155537
-0.0261244,0.137862,-2.60553,0.684167,0.724361,0.557079,0.110667,0.0237479,0.185441
-0.0125577,0.152316,-2.59318,0.760571,0.780959,0.627117,0.114722,0.01951,0.211184
0.000316003,0.168026,-2.57976,0.80277,0.69155,0.676528,0.108209,0.021027,0.241959
0.0101444,0.184604,-2.56585,0.828775,0.527424,0.687277,0.0988386,0.0243018,0.265338
0.0166162,0.201204,-2.55214,0.793481,0.390069,0.670349,0.0840463,0.026418,0.291306
0.0211816,0.216523,-2.53912,0.695893,0.344521,0.614621,0.0682732,0.0187294,0.31568
0.0255394,0.22946,-2.52771,0.559786,0.341521,0.512561,0.0594986,0.00871684,0.315238
0.0305478,0.23927,-2.51881,0.390208,0.376008,0.372002,0.0529229,0.0129797,0.299091
0.0374053,0.245566,-2.51259,0.222793,0.445655,0.253238,0.0548966,0.0133543,0.274711
0.0456816,0.248847,-2.50847,0.0896598,0.478546,0.165966,0.0667639,0.0176181,0.236985
0.054873,0.249557,-2.50533,-0.037685,0.506682,0.150405,0.0821533,0.0241351,0.208515
0.064088,0.247611,-2.50157,-0.177089,0.515267,0.206228,0.098157,0.0395525,0.168667
0.0739296,0.243141,-2.49636,-0.302692,0.591889,0.255999,0.0939445,0.0428306,0.155695
0.0853851,0.236352,-2.49044,-0.413138,0.688354,0.257629,0.0876523,0.03468,0.141615
0.0987591,0.227552,-2.48422,-0.512386,0.777894,0.266614,0.0810061,0.0254438,0.131294
0.113394,0.216979,-2.4772,-0.601003,0.831496,0.298235,0.0729434,0.010904,0.119939
0.128922,0.205189,-2.46918,-0.65303,0.881888,0.343827,0.0639053,0.00363368,0.109585
0.128922,0.205189,-2.46918,-0.65303,0.881888,0.343827,0.0639053,0.00363368,0.109585
0.144966,0.193332,-2.45946,-0.630136,0.897122,0.438814,0.0555443,0.000541002,0.0817935
0.160828,0.183499,-2.44747,-0.514077,0.90829,0.571234,0.0462422,-0.0166414,0.0478392
0.176763,0.176175,-2.43281,-0.461564,0.930263,0.726208,0.0481606,-0.0557834,0.0161623
0.191699,0.169949,-2.41526,-0.463452,0.820517,0.830094,0.0458455,-0.102794,-0.0467735
0.201787,0.164287,-2.39658,-0.460493,0.467329,0.852633,0.0645006,-0.165369,-0.14394
0.204278,0.156736,-2.37754,-0.741388,0.0823289,0.805388,0.0564171,-0.199007,-0.244969
0.197072,0.137617,-2.359,-1.50522,-0.63423,0.558602,-0.000161335,-0.139856,-0.438478
0.170163,0.106069,-2.34559,-1.65032,-1.97225,0.169103,-0.101969,-0.00556501,-0.718422
0.114027,0.0801888,-2.34105,-0.885058,-3.52205,-0.0650361,-0.179805,0.110148,-0.886197
0.0342256,0.0708264,-2.34135,-0.1094,-4.21052,0.00302053,-0.209136,0.196073,-0.774026
-0.045821,0.0721029,-2.33797,0.157044,-3.51391,0.341184,-0.225188,0.179661,-0.533049
-0.100769,0.073485,-2.32898,0.00882293,-1.82122,0.500144,-0.237136,0.154077,-0.330802
-0.11999,0.0707424,-2.3198,-0.149581,-0.106287,0.395586,-0.275022,0.128255,-0.199279
-0.113421,0.0678651,-2.31505,-0.0347228,0.616155,0.0757098,-0.256605,0.108966,-0.161346
-0.101391,0.070247,-2.31756,0.244741,0.464642,-0.350422,-0.193146,0.0800007,-0.133459
-0.0964374,0.0783937,-2.32775,0.429775,-0.0718373,-0.715461,-0.124497,0.0723779,-0.0700814
-0.101304,0.0885494,-2.34387,0.388674,-0.504542,-0.956911,-0.0690806,0.0819793,0.0126275
-0.110826,0.0974301,-2.36409,0.280602,-0.579194,-1.11587,-0.033205,0.101472,0.0903021
-0.118547,0.10545,-2.38698,0.275488,-0.390688,-1.21768,-0.00131484,0.109924,0.132409
-0.120738,0.114826,-2.41123,0.377509,-0.0824552,-1.26758,0.024589,0.119976,0.164863
-0.116083,0.126739,-2.43583,0.508233,0.242689,-1.28259,0.0433606,0.132031,0.209028
-0.10509,0.141107,-2.46024,0.642763,0.515924,-1.26006,0.0603056,0.142714,0.257319
-0.0894522,0.157727,-2.48358,0.778945,0.679277,-1.17736,0.0734536,0.151748,0.307231
-0.0718215,0.17661,-2.50478,0.919398,0.698315,-1.03823,0.0822098,0.15488,0.350331
-0.0553283,0.197118,-2.52323,0.981745,0.588007,-0.898066,0.0802912,0.154248,0.389031
-0.0416786,0.217229,-2.53971,0.914081,0.422523,-0.813121,0.0728529,0.15156,0.420307
-0.0317307,0.23433,-2.55571,0.712962,0.194065,-0.813872,0.0659536,0.132826,0.4223
-0.0269185,0.246686,-2.5729,0.469448,-0.13745,-0.890458,0.0665515,0.103094,0.392304
-0.0283031,0.254158,-2.59196,0.227855,-0.454735,-0.957009,0.0746772,0.0769766,0.344426
-0.0352612,0.257091,-2.61177,0.00941212,-0.73571,-0.946782,0.0778117,0.0717272,0.289088
-0.0474861,0.25583,-2.63099,-0.212547,-0.942588,-0.890697,0.0853826,0.0564541,0.221536
-0.0620958,0.249969,-2.64904,-0.47122,-0.929014,-0.809625,0.0760879,0.0475298,0.171765
-0.0747261,0.238937,-2.66559,-0.726757,-0.698539,-0.705169,0.0577498,0.0444098,0.113074
-0.0816812,0.223622,-2.68037,-0.885129,-0.318267,-0.604802,0.0314937,0.0502541,0.0577566
-0.0808768,0.206566,-2.69356,-0.882292,0.131652,-0.533535,0.00151078,0.0534589,0.00464016
-0.0717025,0.191158,-2.70492,-0.709262,0.523507,-0.444423,-0.0147774,0.0385984,-0.0165569
-0.0577884,0.17997,-2.71324,-0.457161,0.678594,-0.279893,-0.0142215,0.012374,-0.0157028
-0.0430895,0.17242,-2.7172,-0.347473,0.692715,-0.0800994,-0.0213595,-0.0340606,0.0421041
-0.0297471,0.165277,-2.71805,-0.380451,0.610298,0.00568321,-0.0260978,-0.0813701,0.0979055
-0.0189473,0.156812,-2.71834,-0.461941,0.456133,-0.0333551,-0.0322659,-0.133991,0.110615
-0.0114317,0.146894,-2.72002,-0.5291,0.269195,-0.115133,-0.0303634,-0.172298,0.0978084
-0.00745439,0.135436,-2.72341,-0.61203,0.076854,-0.213063,-0.0225059,-0.192599,0.0618294
-0.00672784,0.123038,-2.72851,-0.606056,-0.0560259,-0.258395,0.0103085,-0.211317,-0.012648
-0.00792036,0.111468,-2.73307,-0.550368,-0.109929,-0.161407,0.0455451,-0.228958,-0.079037
-0.010544,0.101249,-2.73447,-0.451411,-0.148487,0.0425641,0.07801,-0.232573,-0.169132
-0.0140395,0.0933774,-2.73101,-0.337751,-0.170667,0.322601,0.0930642,-0.233891,-0.240523
-0.0181704,0.0865247,-2.72174,-0.347188,-0.15196,0.59709,0.095143,-0.249582,-0.304076
-0.0224137,0.0781349,-2.70818,-0.47086,-0.168736,0.731807,0.0829513,-0.253793,-0.374014
-0.0224137,0.0781349,-2.70818,-0.47086,-0.168736,0.731807,0.0829513,-0.253793,-0.374014
-0.0272678,0.0674378,-2.69424,-0.524432,-0.21187,0.643195,0.0435599,-0.215221,-0.459523
-0.0323933,0.057788,-2.68367,-0.383216,-0.20733,0.422014,0.0260164,-0.19348,-0.511638
-0.0349426,0.0515156,-2.67709,-0.228692,0.0348307,0.282345,0.0188827,-0.13767,-0.477614
-0.0298455,0.0479246,-2.67147,-0.0982256,0.53019,0.315554,0.0233066,-0.0748201,-0.382208
-0.0142585,0.0480781,-2.66349,0.149477,1.02586,0.492888,0.0358937,-0.0318048,-0.25939
0.00776029,0.0542329,-2.65149,0.45178,1.16467,0.69096,0.0556057,-0.0120473,-0.153005
0.0291775,0.0661601,-2.63652,0.680236,1.01788,0.801306,0.058125,0.0105242,-0.0544924
0.045039,0.0818596,-2.6207,0.801625,0.650322,0.812537,0.0484345,0.0307124,0.0180711
0.0525632,0.0991473,-2.60564,0.819003,0.229346,0.751644,0.0358233,0.0488294,0.0623181
0.051954,0.115638,-2.59217,0.725598,-0.127874,0.661885,0.0353151,0.0665982,0.0698314
0.0458116,0.129781,-2.58015,0.610062,-0.3158,0.598249,0.0369717,0.0852737,0.0618389
0.037152,0.141648,-2.56908,0.530464,-0.369038,0.545355,0.0374321,0.11464,0.0234964
0.0293242,0.152625,-2.55868,0.536497,-0.242018,0.516767,0.0384037,0.132944,-0.000254393
0.0252383,0.164795,-2.54848,0.654857,0.0167373,0.526084,0.0407343,0.152042,-0.00949818
0.0269241,0.179482,-2.53752,0.763279,0.331029,0.589262,0.042817,0.160743,0.0284863
0.0337784,0.195399,-2.5252,0.767183,0.572846,0.662525,0.0491461,0.164297,0.0859252
0.0450141,0.210783,-2.51133,0.699802,0.8265,0.749357,0.0466496,0.156095,0.166193
0.0604494,0.22453,-2.49614,0.577054,1.02672,0.787782,0.0376309,0.151084,0.230168
0.0793433,0.235649,-2.48047,0.41114,1.20291,0.800378,0.0267513,0.140685,0.291524
0.100897,0.243459,-2.46464,0.225468,1.30533,0.790173,0.0155866,0.131564,0.33267
0.123607,0.248015,-2.4488,0.054964,1.31753,0.778958,0.00547977,0.117627,0.364883
0.145124,0.249736,-2.43283,-0.0882335,1.1934,0.769514,0.00316662,0.0970936,0.378805
0.163091,0.248864,-2.41662,-0.244674,0.988834,0.757559,-0.000201136,0.0790208,0.379672
0.17671,0.244715,-2.40035,-0.429772,0.756833,0.712501,-0.00012885,0.0512249,0.372929
0.185511,0.237073,-2.38482,-0.571352,0.486992,0.626913,0.0104534,0.0278886,0.325362
0.189226,0.22763,-2.37051,-0.605963,0.205593,0.557485,0.0179103,0.0018234,0.267422
0.187678,0.217404,-2.35761,-0.632393,-0.0580394,0.484309,0.0354808,-0.0142387,0.20228
0.183158,0.205641,-2.34552,-0.756747,-0.0981704,0.463078,0.0504616,-0.0442942,0.165498
0.179641,0.190563,-2.33306,-0.926713,-0.00549189,0.45976,0.0599096,-0.0593676,0.105166
0.178466,0.172773,-2.32054,-1.02475,0.123416,0.424722,0.0659374,-0.0802668,0.01071
0.180622,0.153577,-2.30891,-1.03842,0.272997,0.356898,0.0600069,-0.0822098,-0.090636
0.185685,0.135585,-2.29881,-0.87515,0.354801,0.308788,0.0634885,-0.0844645,-0.191295
0.191473,0.122069,-2.28937,-0.62032,0.328154,0.376571,0.0925594,-0.105361,-0.282889
0.19511,0.114009,-2.27857,-0.378276,0.124927,0.522668,0.113689,-0.111838,-0.357633
0.194062,0.10972,-2.26586,-0.344033,-0.0449716,0.611403,0.105554,-0.110013,-0.415861
0.191608,0.102608,-2.25227,-0.633871,-0.0499256,0.540809,0.063204,-0.0836222,-0.44923
0.189906,0.0891727,-2.24085,-0.850454,0.0118231,0.304065,0.0314355,-0.0501665,-0.524794
0.191218,0.0729936,-2.23413,-0.839788,0.178862,0.0450264,-0.0200083,-0.0208516,-0.574521
0.196025,0.0567518,-2.23255,-0.780251,0.303796,-0.198511,-0.0464333,0.018193,-0.596353
0.202916,0.0412119,-2.23589,-0.651603,0.354869,-0.422667,-0.0571598,0.0516984,-0.592546
0.210849,0.0292588,-2.24361,-0.32195,0.410138,-0.554516,-0.0659973,0.0923956,-0.557996
0.219694,0.0253952,-2.2544,0.196922,0.424833,-0.542224,-0.0621291,0.140368,-0.467649
0.227728,0.0323764,-2.2656,0.703036,0.324846,-0.37851,-0.0742946,0.170203,-0.333198
0.231941,0.0482277,-2.27573,1.02811,0.0251368,-0.25991,-0.087678,0.187934,-0.189897
0.229358,0.0687444,-2.28604,1.17204,-0.338462,-0.286114,-0.106454,0.192805,-0.0524896
0.219417,0.0909161,-2.29759,1.23019,-0.74536,-0.330409,-0.116343,0.192109,0.0566799
0.201765,0.113695,-2.30941,1.21241,-1.11621,-0.344391,-0.118432,0.17122,0.143769
0.178166,0.135163,-2.32141,1.0925,-1.3509,-0.425168,-0.112269,0.167818,0.208516
0.178166,0.135163,-2.32141,1.0925,-1.3509,-0.425168,-0.112269,0.167818,0.208516
0.152361,0.15352,-2.33436,0.913386,-1.3595,-0.535867,-0.112771,0.159158,0.268768
0.128836,0.168213,-2.34856,0.732388,-1.19209,-0.635427,-0.103549,0.146943,0.318703
0.110049,0.179787,-2.36367,0.595804,-0.929566,-0.690247,-0.0915311,0.136782,0.354288
0.096906,0.189134,-2.37883,0.477163,-0.65297,-0.677319,-0.0726138,0.124883,0.382192
0.0890531,0.19661,-2.39295,0.404613,-0.412412,-0.61262,-0.0514096,0.114108,0.397945
0.0843021,0.203934,-2.40518,0.440131,-0.323708,-0.514226,-0.0417469,0.105981,0.391998
0.0799709,0.212738,-2.4159,0.522029,-0.347464,-0.459984,-0.0347803,0.0957197,0.386701
0.0739496,0.223416,-2.42567,0.607496,-0.470976,-0.398294,-0.0159088,0.0692181,0.379632
0.0649651,0.235345,-2.43417,0.613184,-0.607516,-0.34552,-0.00755731,0.0433439,0.382431
0.0534667,0.246235,-2.44186,0.487729,-0.708856,-0.339141,-0.000162959,0.0178789,0.381155
0.0408224,0.253035,-2.44956,0.194017,-0.704554,-0.383161,0.00968283,-0.0221782,0.367207
0.0305186,0.252749,-2.45845,-0.193908,-0.528379,-0.481446,0.00678683,-0.0396824,0.335057
0.0249086,0.244947,-2.46948,-0.541482,-0.293345,-0.603073,0.0195386,-0.062915,0.260529
0.0245559,0.231066,-2.48255,-0.788253,-0.0498784,-0.683162,0.0182897,-0.0666696,0.175278
0.0286579,0.21308,-2.49684,-0.949323,0.138471,-0.754599,0.0170991,-0.0630345,0.0848321
0.0363514,0.192739,-2.51241,-1.00429,0.309333,-0.825596,0.0195664,-0.0672566,0.00828546
0.0472525,0.172275,-2.52881,-0.951869,0.474887,-0.848228,0.016422,-0.0698933,-0.0438412
0.0609811,0.153373,-2.54442,-0.835704,0.63742,-0.764012,0.0180649,-0.0854779,-0.0688735
0.0768339,0.13741,-2.55717,-0.656798,0.744202,-0.587628,0.00929234,-0.10411,-0.0749705
0.0928658,0.12549,-2.56624,-0.448406,0.705173,-0.413245,-0.00664546,-0.12577,-0.0725176
0.106218,0.117935,-2.57275,-0.242486,0.53321,-0.30829,-0.0232046,-0.152708,-0.0615084
0.11549,0.113973,-2.57818,-0.102422,0.326821,-0.280453,-0.047683,-0.182996,-0.0364827
0.121107,0.111901,-2.58401,-0.047715,0.177916,-0.316979,-0.0471797,-0.21133,-0.0177598
0.12464,0.110154,-2.59042,-0.0484719,0.113295,-0.327836,-0.0337208,-0.22825,-0.0134967
0.127079,0.108618,-2.59628,-0.0258343,0.0490559,-0.2542,-0.00463717,-0.242837,-0.0399713
0.126315,0.107271,-2.60025,-0.0704535,-0.196458,-0.164484,0.0297889,-0.258489,-0.113172
0.119308,0.104801,-2.60261,-0.139529,-0.531012,-0.0990829,0.0563568,-0.256428,-0.230696
0.106492,0.101703,-2.60376,-0.139122,-0.723514,-0.0687403,0.0888996,-0.246937,-0.355835
0.092272,0.0994343,-2.60592,-0.0568161,-0.678174,-0.18186,0.109303,-0.170627,-0.468187
0.081429,0.0985561,-2.61102,0.00428984,-0.435546,-0.319115,0.103504,-0.0789714,-0.545092
0.0765951,0.0979207,-2.61823,-0.0243028,-0.123459,-0.370658,0.114139,-0.00849779,-0.582583
0.0774605,0.0963884,-2.62487,-0.0664351,0.131441,-0.282318,0.13663,0.0236075,-0.577145
0.0822889,0.095202,-2.62912,-0.0195345,0.285048,-0.145264,0.126489,0.083599,-0.500435
0.0884409,0.0949976,-2.63087,0.0117469,0.296611,-0.0318074,0.0991606,0.161414,-0.385734
0.0949881,0.0960362,-2.63011,0.0927374,0.40153,0.131055,0.104414,0.1832,-0.237611
0.105608,0.0996735,-2.62526,0.209121,0.724362,0.399092,0.103409,0.166159,-0.0591672
0.121623,0.105368,-2.61431,0.217639,0.926839,0.747208,0.0824439,0.133341,0.0722672
0.137971,0.111972,-2.59659,0.205333,0.848961,1.06738,0.067429,0.107664,0.157863
0.149521,0.119194,-2.57319,0.158087,0.551924,1.3005,0.056942,0.0877687,0.206344
0.154059,0.125323,-2.54687,0.0473907,0.223977,1.3235,0.0581104,0.0617633,0.234114
0.152391,0.129041,-2.5219,-0.050689,-0.0548658,1.15298,0.0534858,0.0535948,0.234511
0.147412,0.130935,-2.50052,-0.0784409,-0.148577,0.971715,0.0122767,0.0755379,0.25823
0.141498,0.131987,-2.48253,-0.0724037,-0.177393,0.799607,-0.00517137,0.0862699,0.259075
0.136258,0.13289,-2.46779,-0.0495278,-0.174458,0.663351,0.00142348,0.0663524,0.294511
0.129178,0.132437,-2.45555,-0.223254,-0.403973,0.517834,0.0244087,0.0666966,0.272993
0.121293,0.128391,-2.44542,-0.266267,-0.265081,0.426835,0.0369215,0.0298786,0.407151
0.113421,0.124931,-2.43749,-0.145409,-0.425457,0.305243,0.0848324,0.020328,0.330497
0.113421,0.124931,-2.43749,-0.145409,-0.425457,0.305243,0.0848324,0.020328,0.330497
0.104305,0.124808,-2.43233,0.0871799,-0.395733,0.2184,0.0864366,0.0270574,0.34216
0.0971817,0.1295,-2.4283,0.327813,-0.236287,0.23383,0.0675868,0.0223722,0.276804
0.0938155,0.137857,-2.42413,0.435831,-0.0821652,0.249759,0.06076,0.0298007,0.220837
0.0919975,0.147084,-2.41988,0.419921,-0.024872,0.251745,0.0842188,0.0235227,0.16576
0.090988,0.154884,-2.41543,0.303135,-0.0425767,0.255343,0.0845569,0.00504969,0.145167
0.0886778,0.159902,-2.41046,0.148032,-0.10648,0.285405,0.0648967,0.00405498,0.109859
0.0855304,0.162169,-2.40423,0.0249591,-0.106483,0.339491,0.0213313,-0.00843212,0.0782578
0.0848912,0.163402,-2.39696,0.0869156,0.209463,0.385459,0.000843391,-0.0111671,0.0807216
0.0904391,0.168501,-2.38969,0.413255,0.346446,0.356358,0.0306228,-0.0184978,0.0971037
0.0901762,0.176625,-2.38343,0.28348,-0.132256,0.369466,0.0972754,-0.0564844,-0.066219
0.0862154,0.179322,-2.37453,-0.151483,-0.0620115,0.522599,0.0252422,-0.0509922,0.0840241
0.0847335,0.172934,-2.36116,-0.543487,0.164852,0.748786,0.0183606,-0.0720523,0.118925
0.0867904,0.163022,-2.34218,-0.550621,0.340634,0.965204,0.0305262,-0.120841,0.0708722
0.0899533,0.153506,-2.3234,-0.555759,0.125299,0.80476,0.0742798,-0.0103953,0.0201037
