attitude_roll,attitude_pitch,attitude_yaw,rotationRate_x,rotationRate_y,rotationRate_z,acceleration_x,acceleration_y,acceleration_z
0.211045,0.460838,-0.0496825,-0.539644,0.0298697,0.176798,0.0186546,0.126889,0.103667
0.204061,0.449016,-0.0432895,-0.684474,-0.367391,0.129315,0.00992946,0.108472,0.041317
0.19692,0.436396,-0.0388958,-0.613734,-0.0852705,-0.0083023,0.000253007,0.0769729,0.0973231
0.199179,0.424793,-0.0388868,-0.520668,0.28864,-0.223507,0.0109137,0.072014,0.06967
0.20871,0.413913,-0.043345,-0.462364,0.429737,-0.359816,0.0777705,0.0641368,0.0583138
0.218057,0.403737,-0.0483275,-0.431551,0.272672,-0.268335,0.107899,0.00764972,0.0269883
0.222044,0.393909,-0.0504146,-0.498677,0.0543399,-0.147406,0.112377,-0.00806019,0.0190011
0.222736,0.382423,-0.0501364,-0.613356,0.0592294,-0.0858385,0.1062,-0.0160055,0.0310955
0.223506,0.369634,-0.0482306,-0.653824,0.0621764,-0.024279,0.0924081,-0.0282678,-0.00693262
0.222858,0.357295,-0.0451132,-0.58522,-0.0151299,0.0322875,0.0591755,-0.0173702,-0.0511047
0.220922,0.34775,-0.0415643,-0.401498,-0.0611381,0.0770646,0.0171473,0.00141269,-0.0678607
0.217646,0.342428,-0.0386835,-0.177765,-0.176486,0.0630775,-0.00997491,0.0159051,-0.0695222
0.213094,0.34125,-0.037411,0.0363655,-0.21315,0.0353107,-0.0240577,0.0166417,-0.0265634
0.209155,0.343711,-0.0372116,0.180841,-0.175466,0.046779,-0.0331199,0.0156941,0.0291923
0.205697,0.348114,-0.0361247,0.210675,-0.11971,0.158915,-0.0465968,0.00183076,0.101094
0.203296,0.352779,-0.0319983,0.154662,0.0330339,0.319589,-0.0500144,-0.0205517,0.177895
0.203181,0.356369,-0.0237831,0.0228234,0.238094,0.504208,-0.0495809,-0.0447722,0.235244
0.205333,0.356935,-0.0109875,-0.222734,0.409759,0.665508,-0.0393546,-0.0678017,0.252479
0.208697,0.352516,0.00556802,-0.526333,0.479519,0.740099,-0.0169548,-0.094208,0.23458
0.212009,0.342453,0.0238309,-0.797006,0.451559,0.704372,0.0321564,-0.132845,0.198646
0.213502,0.327677,0.0410737,-0.964562,0.232957,0.549962,0.0917791,-0.160669,0.120013
0.211588,0.310352,0.054606,-0.967662,0.02676,0.324642,0.13901,-0.176387,0.0791227
0.208164,0.293243,0.062883,-0.840206,-0.102363,0.100681,0.162815,-0.189305,0.0349727
0.204992,0.278669,0.0662995,-0.658868,-0.103326,-0.0732045,0.153323,-0.186258,0.0194636
0.202867,0.265885,0.0661596,-0.570277,-0.0990961,-0.16779,0.124526,-0.144692,-0.00103205
0.201231,0.254889,0.0649341,-0.493801,-0.124395,-0.155771,0.110827,-0.109404,-0.0289778
0.198567,0.245177,0.0644089,-0.447643,-0.12655,-0.0681648,0.0998942,-0.0780119,-0.0524161
0.196511,0.236795,0.0668622,-0.421823,-0.00857574,0.162779,0.0828285,-0.0537414,-0.0892322
0.196887,0.229852,0.0750042,-0.410908,0.272607,0.486528,0.0499599,-0.0172529,-0.115622
0.203152,0.223959,0.0901201,-0.465097,0.694326,0.831601,0.0317666,0.0587312,-0.147076
0.217418,0.218578,0.112752,-0.556972,1.19794,1.20485,0.0242253,0.179656,-0.169639
0.236966,0.211883,0.143054,-0.793169,1.31757,1.46464,0.017535,0.311375,-0.265473
0.254415,0.199631,0.175297,-1.15168,1.03624,1.18248,0.0463639,0.323094,-0.351276
0.267911,0.179106,0.198669,-1.3447,0.790811,0.47171,-0.000579774,0.319767,-0.323042
0.281969,0.153816,0.208218,-1.32326,0.796572,-0.21652,-0.0210102,0.281766,-0.231083
0.299339,0.126459,0.207992,-1.28402,0.936196,-0.503307,0.0205311,0.165093,-0.125646
0.318476,0.0990901,0.207194,-1.28939,0.896818,-0.346025,0.0541236,0.00806193,-0.0857831
0.332737,0.0716563,0.212196,-1.41485,0.563977,-0.0552448,0.0315373,-0.0781091,-0.155586
0.33919,0.0444628,0.223121,-1.46513,0.11509,0.153636,-0.0335668,-0.136567,-0.190033
0.334805,0.019494,0.235398,-1.23244,-0.564933,0.157445,-0.0681771,-0.187096,-0.265132
0.316612,0.000798607,0.243842,-0.778183,-1.14022,0.029508,-0.0892878,-0.182246,-0.326469
0.291951,-0.00843976,0.246677,-0.147777,-1.29823,-0.00455929,-0.0870358,-0.164003,-0.305366
0.264007,-0.00379822,0.245964,0.583034,-1.47773,0.048405,-0.062417,-0.202391,-0.274554
0.233177,0.0127514,0.242275,1.02843,-1.56208,-0.0261593,-0.0633722,-0.178976,-0.180157
0.203222,0.0335045,0.235159,1.09157,-1.4003,-0.232437,-0.0729442,-0.161662,-0.0524851
0.177549,0.0541696,0.223954,1.10641,-1.20209,-0.472886,-0.0826544,-0.137217,0.0322132
0.158236,0.0728642,0.208727,0.952887,-0.794147,-0.701082,-0.0556262,-0.089859,0.103127
0.148215,0.0874404,0.190541,0.736591,-0.329455,-0.834166,-0.0383135,-0.0448731,0.0974556
0.148425,0.0990054,0.171895,0.794866,0.0642996,-0.768528,-0.021821,0.000195608,0.129014
0.14858,0.119026,0.155995,1.33029,-0.189601,-0.523622,0.00685298,0.0317246,0.0352992
0.148952,0.145391,0.141536,1.40043,0.0723541,-0.50809,0.0796199,0.0433477,0.105324
0.15355,0.169747,0.128091,1.15781,0.181103,-0.41733,0.0190811,0.0875886,0.125017
0.160468,0.18856,0.117693,0.850662,0.32971,-0.307734,0.024006,0.0740261,0.164327
0.160468,0.18856,0.117693,0.850662,0.32971,-0.307734,0.024006,0.0740261,0.164327
0.170917,0.201774,0.109687,0.582032,0.564802,-0.248156,0.0361539,0.0680835,0.189589
0.184851,0.210443,0.104049,0.379499,0.671182,-0.126948,0.0260961,0.0827941,0.161489
0.198973,0.216933,0.102046,0.309063,0.684523,0.0653805,0.0268647,0.0816452,0.134022
0.211051,0.223707,0.104157,0.312716,0.54315,0.267268,0.0354937,0.0706155,0.0737769
0.218634,0.231333,0.110058,0.293173,0.353054,0.458563,0.0551012,0.0490385,0.033244
0.222304,0.239026,0.120745,0.220141,0.276874,0.72898,0.0547422,0.0088969,0.0196364
0.223222,0.245816,0.137576,0.0523049,0.198989,0.989979,0.0585211,-0.0441427,-0.00871575
0.219591,0.248582,0.159282,-0.269173,-0.0765228,1.07777,0.0610815,-0.076739,-0.0718049
0.206748,0.243761,0.182185,-0.672894,-0.71121,0.94289,0.0650881,-0.0937899,-0.196607
0.179856,0.230088,0.201221,-0.979598,-1.46771,0.583858,0.0996912,-0.0721073,-0.354346
0.145336,0.211723,0.213546,-0.96365,-1.55912,0.357432,0.119945,-0.0177906,-0.389388
0.117366,0.197201,0.224026,-0.543097,-0.931381,0.516519,0.103175,0.0844298,-0.344151
0.104418,0.194491,0.239152,0.113256,-0.0715445,0.9491,0.100587,0.117049,-0.23071
0.105454,0.204199,0.262743,0.541881,0.587635,1.41472,0.0931871,0.0732815,-0.122484
0.113745,0.218838,0.292864,0.528881,0.79867,1.5996,0.0830397,0.0359127,-0.0510925
0.12249,0.230765,0.323618,0.281455,0.707923,1.4692,0.0901917,-0.029762,0.0205039
0.127519,0.237061,0.350787,0.0267319,0.414937,1.2142,0.0760138,-0.0568555,0.0613842
0.127739,0.238842,0.373453,-0.115188,0.139492,0.993824,0.0694312,-0.0610754,0.115475
0.124347,0.238284,0.392631,-0.157582,0.0145177,0.852763,0.0802068,-0.055011,0.17231
0.120904,0.237468,0.409927,-0.116592,0.062045,0.811811,0.0823145,-0.0363485,0.226957
0.118575,0.237939,0.426964,-0.0310411,0.090406,0.830255,0.0842701,-0.0232266,0.257894
0.115995,0.240064,0.443902,0.0414779,0.0447503,0.814255,0.088573,-0.0193307,0.275419
0.112038,0.242911,0.45989,0.0375892,-0.0675059,0.743093,0.101882,-0.0299938,0.280581
0.10576,0.244075,0.474093,-0.0966317,-0.198725,0.629517,0.139219,-0.0355018,0.242161
0.10034,0.241075,0.486425,-0.263414,-0.133538,0.543745,0.175461,0.00692005,0.185466
0.094377,0.238727,0.498409,-0.0469615,-0.161664,0.601399,0.202823,0.015152,0.159378
0.0874243,0.242569,0.511946,0.30978,-0.199476,0.747397,0.230337,0.0244531,0.125373
0.0794767,0.253181,0.528266,0.585555,-0.176227,0.899974,0.23576,0.0331994,0.102577
0.0721048,0.26732,0.546681,0.644266,-0.087624,0.947314,0.223088,0.0497767,0.0859691
0.0665776,0.280242,0.564803,0.49108,0.0362496,0.851719,0.202241,0.0477674,0.0684634
0.0646377,0.288368,0.580179,0.210767,0.209783,0.646045,0.154337,0.0597477,0.0518764
0.0685553,0.290539,0.590682,-0.0522178,0.493438,0.359999,0.109494,0.0809937,0.0404796
0.080463,0.288112,0.59575,-0.20651,0.828759,0.122233,0.0588772,0.108208,0.0236275
0.0991215,0.283505,0.597093,-0.244975,1.04297,-0.0222842,0.012123,0.131132,-0.00953633
0.121595,0.278831,0.596086,-0.193115,1.15435,-0.118279,-0.0195345,0.151575,-0.03713
0.145814,0.275323,0.593382,-0.128862,1.15967,-0.181552,-0.0381258,0.141044,-0.0527118
0.168911,0.272133,0.589846,-0.138555,1.01756,-0.194877,-0.0124168,0.0874052,-0.0781722
0.187384,0.26867,0.587205,-0.142139,0.71976,-0.0991198,0.00682618,0.0239792,-0.121997
0.197423,0.266693,0.58736,-0.0293576,0.246393,0.0830136,-0.00118977,-0.00115141,-0.16731
0.19538,0.269277,0.590602,0.248612,-0.365707,0.251463,-0.0259337,-0.00493097,-0.207957
0.182297,0.278747,0.594537,0.589812,-0.800531,0.275063,-0.0327354,-0.0036878,-0.168146
0.162661,0.292544,0.597149,0.646933,-1.05096,0.186481,-0.0298657,-0.0402702,-0.139751
0.140458,0.301421,0.597327,0.117117,-1.13242,-0.0710748,-0.0412167,-0.0629863,-0.142867
0.119615,0.293168,0.591946,-0.887261,-1.06142,-0.568141,-0.0638542,-0.0454556,-0.239693
0.105452,0.265482,0.577368,-1.5825,-0.744831,-1.10116,-0.113075,0.0438833,-0.360356
0.0993822,0.232767,0.554558,-1.25024,-0.359346,-1.35782,-0.134827,0.137257,-0.485963
0.103109,0.215417,0.528852,-0.187965,0.148999,-1.23992,-0.149024,0.22619,-0.426143
0.114329,0.218317,0.506846,0.610605,0.447869,-0.822627,-0.149001,0.229694,-0.317479
0.126392,0.231642,0.492981,0.784695,0.410661,-0.381899,-0.139794,0.164756,-0.218677
0.13457,0.245073,0.485493,0.613054,0.210939,-0.216607,-0.132002,0.099072,-0.117829
0.138542,0.254407,0.478589,0.404188,0.0263174,-0.345776,-0.140063,0.0556881,-0.0320154
0.14036,0.26001,0.468321,0.31173,-0.0895113,-0.556676,-0.159276,0.0479382,0.03922
0.14036,0.26001,0.468321,0.31173,-0.0895113,-0.556676,-0.159276,0.0479382,0.03922
0.141747,0.264816,0.45444,0.368397,-0.116066,-0.67088,-0.151989,0.048597,0.122621
0.143522,0.271458,0.439756,0.488212,-0.0987266,-0.606748,-0.125646,0.0330596,0.202881
0.144416,0.280817,0.427247,0.599277,-0.173491,-0.440775,-0.102312,0.03181,0.265784
0.141641,0.292266,0.417821,0.638532,-0.384724,-0.297399,-0.0770608,0.0260374,0.313284
0.133485,0.303752,0.410613,0.5748,-0.641463,-0.235962,-0.051725,0.0233149,0.363243
0.119795,0.31328,0.404358,0.422594,-0.90519,-0.238256,-0.027312,0.0210104,0.415472
0.101046,0.318712,0.398361,0.156732,-1.1295,-0.278931,-0.010192,0.019902,0.445742
0.0800285,0.318107,0.39129,-0.158946,-1.13304,-0.404288,0.0220138,0.0272157,0.46037
0.0619537,0.311813,0.38162,-0.370125,-0.949607,-0.542833,0.0532236,0.0408236,0.429659
0.0486439,0.303504,0.369901,-0.362615,-0.722318,-0.599264,0.0675045,0.0519936,0.372051
0.0404452,0.296998,0.357522,-0.234308,-0.464869,-0.59746,0.104021,0.0403622,0.32206
0.0361159,0.29232,0.345382,-0.220288,-0.337761,-0.57482,0.138138,0.0245638,0.249358
0.0330947,0.285739,0.333594,-0.411957,-0.295741,-0.57202,0.149939,0.0360784,0.167974
0.0310504,0.274714,0.322258,-0.643792,-0.226775,-0.539577,0.142039,0.0383465,0.107058
0.0291095,0.260176,0.312283,-0.743257,-0.229337,-0.450732,0.1385,0.0225098,0.0235983
0.0268174,0.24572,0.304738,-0.644247,-0.163477,-0.306091,0.120735,0.00688085,-0.0232757
0.0260468,0.234675,0.300724,-0.449735,0.002383,-0.0975336,0.110275,-0.0351433,-0.034179
0.0280078,0.226518,0.301285,-0.389827,0.218178,0.120905,0.0835663,-0.0872425,-0.0440859
0.03372,0.217995,0.305331,-0.492673,0.413657,0.2214,0.0509313,-0.124914,-0.0564485
0.041369,0.206616,0.310289,-0.649608,0.422822,0.203121,0.0176584,-0.165059,-0.120968
0.0476501,0.193268,0.314311,-0.664914,0.256952,0.135573,-0.0212326,-0.175029,-0.202365
0.0494478,0.181717,0.317619,-0.465477,-0.0105602,0.157969,-0.0430596,-0.200019,-0.289259
0.0463736,0.175669,0.322587,-0.170149,-0.192228,0.307792,-0.066426,-0.22953,-0.323364
0.0409436,0.173741,0.329772,-0.10661,-0.163328,0.350853,-0.082598,-0.216292,-0.319683
0.0403557,0.169295,0.335613,-0.415594,0.248436,0.175275,-0.0967748,-0.177902,-0.276299
0.0500681,0.155716,0.337107,-0.94135,0.714125,-0.0926712,-0.105991,-0.105915,-0.283494
0.0672326,0.13321,0.334516,-1.20403,0.917655,-0.261552,-0.0978368,-0.000743479,-0.322531
0.0866163,0.110618,0.331304,-0.933139,0.9591,-0.181232,-0.0736349,0.0652721,-0.302761
0.105621,0.0982365,0.332036,-0.286729,0.90094,0.172439,-0.0252501,0.0537517,-0.223517
0.120145,0.0992706,0.340017,0.253059,0.60696,0.616881,0.011105,0.0094164,-0.172115
0.128309,0.10853,0.354346,0.416539,0.382881,0.859196,0.0219349,-0.0211234,-0.0897086
0.13303,0.117412,0.370257,0.210548,0.278116,0.760347,0.0232591,-0.0232081,-0.05933
0.136621,0.120316,0.382032,-0.0572325,0.223843,0.411114,0.0312466,0.00309777,-0.0638585
0.140069,0.119042,0.386848,-0.0916881,0.18108,0.0668169,0.0614191,0.027162,-0.0591446
0.143344,0.118682,0.386546,0.0756884,0.138864,-0.0669628,0.106015,0.0210375,-0.0142124
0.146042,0.121876,0.384944,0.252653,0.113632,-0.0195617,0.128216,0.0366746,0.0451112
0.148423,0.128248,0.385256,0.362799,0.137184,0.155403,0.132663,0.0449656,0.101443
0.151335,0.1368,0.389285,0.415191,0.204068,0.362401,0.125018,0.057074,0.140025
0.154975,0.146961,0.396753,0.489021,0.259737,0.51037,0.118503,0.0669041,0.14689
0.159201,0.160022,0.406029,0.662443,0.288311,0.584523,0.111776,0.0754621,0.157769
0.162988,0.177335,0.415622,0.890615,0.246914,0.618864,0.103248,0.0837405,0.156895
0.165853,0.199331,0.424918,1.11265,0.225185,0.630792,0.0897474,0.087326,0.1732
0.169662,0.225374,0.433528,1.28423,0.352784,0.61904,0.0711843,0.0913603,0.202995
0.178014,0.252734,0.441343,1.20947,0.67494,0.595293,0.0716831,0.0851502,0.253087
0.193226,0.275111,0.449519,0.783857,1.05739,0.583244,0.0541322,0.0700239,0.29591
0.215115,0.28644,0.458772,0.119967,1.3387,0.493226,0.0285442,0.0688852,0.314558
0.240826,0.283172,0.467879,-0.542872,1.37408,0.277212,0.0212992,0.0708001,0.287476
0.263275,0.270772,0.47518,-0.75447,1.05898,0.098091,-0.00828457,0.069996,0.19994
0.281882,0.258206,0.479804,-0.52261,0.934017,0.00899487,-0.0340641,0.0730188,0.202526
0.299147,0.251297,0.481781,-0.211427,0.838588,-0.0146636,-0.0466945,0.0778537,0.174811
0.315467,0.248858,0.482589,-0.0810426,0.821198,0.0240804,-0.0586524,0.0592854,0.178156
0.315467,0.248858,0.482589,-0.0810426,0.821198,0.0240804,-0.0586524,0.0592854,0.178156
0.331911,0.246872,0.484586,-0.213444,0.849001,0.0909357,-0.0755531,0.0453669,0.19256
0.346961,0.240709,0.489248,-0.51496,0.749115,0.129023,-0.0839611,0.0173978,0.153547
0.359386,0.229912,0.49655,-0.713974,0.649011,0.158658,-0.108162,-0.00448409,0.135846
0.368833,0.216817,0.505277,-0.78371,0.469345,0.155571,-0.131078,-0.0148278,0.0857457
0.374557,0.203765,0.513417,-0.68982,0.279029,0.103362,-0.136657,-0.0360455,0.0235222
0.377328,0.192728,0.519371,-0.563764,0.111818,0.0381006,-0.136625,-0.030661,-0.0382128
0.377657,0.18172,0.524382,-0.685195,0.073797,0.0167516,-0.157044,0.00370476,-0.113103
0.381995,0.165153,0.531012,-1.12422,0.52942,-0.038054,-0.196085,0.059209,-0.157167
0.397798,0.138976,0.53911,-1.54013,1.17125,-0.246698,-0.233554,0.148661,-0.226407
0.426507,0.106482,0.543646,-1.53202,1.69085,-0.667286,-0.226963,0.245289,-0.237562
0.461751,0.0725012,0.538941,-1.32534,1.67269,-1.20653,-0.14918,0.229618,-0.247688
0.489737,0.0361156,0.524987,-1.29031,0.945422,-1.66236,-0.0152222,0.106619,-0.32016
0.497799,-0.00546856,0.505469,-1.4535,-0.226154,-2.01069,0.0915911,0.0381716,-0.41932
0.479669,-0.0534307,0.481751,-1.60843,-1.46682,-2.27813,0.203052,0.0416875,-0.528028
0.438575,-0.101194,0.45551,-1.4231,-2.36129,-2.08571,0.263649,-0.00188513,-0.555146
0.3832,-0.136751,0.431391,-0.789634,-2.76785,-1.46173,0.232384,0.0228854,-0.522226
0.325919,-0.150376,0.414206,0.110616,-2.60802,-0.59795,0.167992,0.0314947,-0.441508
0.277401,-0.143283,0.406931,0.697313,-2.0799,0.0627252,0.147269,-0.0180984,-0.368382
0.24242,-0.127025,0.407112,0.800396,-1.388,0.300669,0.121104,-0.0796562,-0.282438
0.221197,-0.11159,0.408722,0.648648,-0.770929,0.156544,0.0790857,-0.10553,-0.215003
0.209805,-0.100247,0.405593,0.542673,-0.367263,-0.250923,0.0653594,-0.106167,-0.18347
0.204163,-0.0910754,0.393567,0.625461,-0.0875068,-0.71071,0.0742619,-0.0759044,-0.143724
0.203562,-0.080131,0.373897,0.848782,0.204556,-0.927758,0.075162,-0.0385872,-0.070207
0.209397,-0.064728,0.352055,1.09115,0.528691,-0.833376,0.0691462,0.00149449,0.0278507
0.221454,-0.0442813,0.333294,1.28569,0.747997,-0.532367,0.0536836,0.0159139,0.121046
0.23693,-0.0191694,0.319982,1.44055,0.807687,-0.198529,0.0268902,0.0219542,0.207465
0.252158,0.0096321,0.311295,1.54037,0.69742,0.0334146,-0.0161908,0.0405767,0.27366
0.264473,0.0403439,0.305229,1.55308,0.503396,0.145042,-0.0586885,0.0557595,0.326673
0.272877,0.0706183,0.300347,1.4608,0.307518,0.179702,-0.0947892,0.0657683,0.368543
0.277498,0.09799,0.296083,1.2678,0.122479,0.146041,-0.124305,0.0867706,0.378349
0.27897,0.121265,0.291726,1.07551,-0.0138047,0.0746776,-0.144528,0.102581,0.390391
0.278543,0.140342,0.286733,0.882502,-0.0858838,-0.0279697,-0.154042,0.12029,0.393914
0.277377,0.155211,0.280692,0.703742,-0.119573,-0.134515,-0.152119,0.120363,0.400624
0.275445,0.165693,0.273643,0.478445,-0.190208,-0.249005,-0.12819,0.10294,0.38809
0.272136,0.170443,0.265886,0.173756,-0.275969,-0.350778,-0.0946679,0.0834675,0.37516
0.267032,0.168251,0.25845,-0.20031,-0.348703,-0.405697,-0.0696682,0.0573205,0.353877
0.260199,0.15792,0.252113,-0.622546,-0.43957,-0.453943,-0.0254336,0.0428386,0.288238
0.251529,0.140774,0.247519,-0.873373,-0.47815,-0.399049,-0.0127652,0.0401047,0.228209
0.241822,0.121706,0.245365,-0.879627,-0.533573,-0.263738,0.0167245,0.0286324,0.148795
0.22941,0.105158,0.245629,-0.704814,-0.703265,-0.0923606,0.0362887,0.00253175,0.0624918
0.213875,0.0937621,0.248057,-0.447966,-0.809874,0.0679763,0.032214,-0.0111422,0.0271683
0.196212,0.087519,0.251822,-0.255728,-0.924771,0.162288,0.0387922,-0.0377759,7.39098e-06
0.176423,0.0839691,0.256377,-0.181752,-0.984945,0.212229,0.0362601,-0.0673899,-0.00190103
0.155862,0.0816238,0.261608,-0.13051,-1.0205,0.264518,0.0463655,-0.0777228,-0.00329542
0.134548,0.0807202,0.267987,-0.0460678,-1.04613,0.349663,0.0465773,-0.0975291,-0.00608474
0.113293,0.0818633,0.275681,0.0532389,-0.991279,0.407349,0.0328201,-0.115189,0.0020873
0.0930983,0.0835882,0.283493,0.0070345,-0.965982,0.366105,0.0264709,-0.133108,0.0202083
0.0728668,0.0829524,0.290248,-0.126162,-0.973929,0.296979,0.0336797,-0.156706,-0.0123239
0.05324,0.0796606,0.295906,-0.237243,-0.953939,0.2371,0.0237972,-0.158888,-0.0578673
0.0342016,0.0741443,0.299149,-0.311253,-0.839811,0.0335346,-0.0158057,-0.131856,-0.194966
0.0230125,0.0671476,0.298115,-0.3897,-0.269466,-0.113432,0.0393278,-0.15765,-0.261261
0.0234676,0.0592213,0.297723,-0.361615,0.303484,0.116782,0.129423,-0.202593,-0.358
0.0234676,0.0592213,0.297723,-0.361615,0.303484,0.116782,0.129423,-0.202593,-0.358
0.0351943,0.0538291,0.304619,-0.193103,0.926767,0.572702,0.153722,-0.209381,-0.371528
0.0586271,0.0506998,0.320897,-0.24705,1.39178,0.988167,0.118819,-0.211697,-0.294581
0.0851458,0.0449661,0.342559,-0.474335,1.28639,1.06206,0.113392,-0.185701,-0.300544
0.106462,0.035557,0.363617,-0.641493,0.889744,0.906212,0.138222,-0.165561,-0.27985
0.119588,0.0242952,0.380984,-0.629696,0.503754,0.692053,0.130305,-0.110397,-0.277119
0.128037,0.0150934,0.39492,-0.428935,0.396031,0.583435,0.0915652,-0.0306073,-0.224577
0.135457,0.0108527,0.406843,-0.133965,0.359886,0.550083,0.0614218,0.0585972,-0.194476
0.143771,0.0125975,0.418184,0.105517,0.502024,0.591102,0.0289306,0.127038,-0.185521
0.155573,0.0159829,0.429072,0.00203781,0.685863,0.489312,-0.0242199,0.170844,-0.163769
0.17158,0.0143661,0.43594,-0.274618,0.932512,0.130811,-0.0233374,0.189338,-0.163498
0.193226,0.00691822,0.435845,-0.417393,1.22129,-0.252394,0.0040697,0.177771,-0.134951
0.220543,-0.00223406,0.431043,-0.342893,1.48598,-0.347061,0.0266175,0.153863,-0.100136
0.251821,-0.00811075,0.426867,-0.11844,1.59481,-0.157622,0.0386511,0.124595,-0.0448773
0.28343,-0.008109,0.426768,0.111458,1.52391,0.160323,0.0590277,0.0870296,0.0206478
0.311898,-0.00240946,0.431958,0.262457,1.27316,0.49514,0.0657088,0.0531478,0.0917342
0.333323,0.0077097,0.442277,0.355381,0.830772,0.786937,0.060413,0.0288888,0.14557
0.34429,0.0216019,0.456703,0.474416,0.278849,1.02672,0.0578144,0.0175413,0.184168
0.344049,0.0399823,0.474609,0.647414,-0.223305,1.2672,0.0537609,0.00400661,0.227357
0.334959,0.0630431,0.49596,0.793836,-0.549318,1.49182,0.041506,-0.00143657,0.277554
0.319949,0.0889268,0.520956,0.818501,-0.729667,1.67761,0.0352051,-0.00329244,0.316457
0.301855,0.114316,0.549878,0.689258,-0.750977,1.81169,0.0454227,-0.0188063,0.335869
0.283257,0.136379,0.582197,0.489368,-0.69852,1.85982,0.0535855,-0.0256338,0.333315
0.264574,0.153973,0.615838,0.308739,-0.685702,1.77877,0.0617248,-0.0268716,0.299381
0.245562,0.167321,0.648071,0.188889,-0.668985,1.61941,0.0846801,-0.0304344,0.267901
0.228532,0.177105,0.678477,0.0534559,-0.498758,1.52034,0.0975367,-0.0328187,0.261926
0.214088,0.182843,0.708296,-0.137726,-0.427389,1.44739,0.12101,-0.0347268,0.254705
0.201234,0.184513,0.736742,-0.262753,-0.316728,1.29991,0.120745,-0.0127147,0.214745
0.191346,0.183346,0.762148,-0.329213,-0.205359,1.11767,0.124668,0.00791249,0.201989
0.184478,0.180768,0.784567,-0.322771,-0.0618767,1.01077,0.131079,0.0234438,0.177036
0.181283,0.178494,0.806209,-0.294884,0.126705,1.04823,0.135225,0.0246085,0.157546
0.180885,0.175893,0.829048,-0.380425,0.220614,1.10248,0.135391,0.0200492,0.133272
0.181642,0.171803,0.852952,-0.418242,0.276662,1.12583,0.139001,0.0253601,0.0736219
0.183666,0.168258,0.87721,-0.358809,0.315315,1.14721,0.126569,0.0181576,0.0412415
0.186206,0.166027,0.901414,-0.295942,0.34094,1.14685,0.101701,0.0139284,0.00434166
0.189193,0.165053,0.925654,-0.250542,0.331273,1.17926,0.0822351,-0.00454906,0.00953412
0.190786,0.164782,0.950739,-0.246732,0.222723,1.22795,0.0626331,-0.0297795,0.00687021
0.189739,0.164537,0.976163,-0.247517,0.0970662,1.20859,0.0334122,-0.032768,-0.0098322
0.187246,0.164011,1.00085,-0.270471,0.0723275,1.16534,0.0218498,-0.0388408,-0.0331822
0.184499,0.162376,1.02479,-0.328376,0.0155979,1.0939,0.0298963,-0.0777775,-0.0712997
0.177973,0.158444,1.04623,-0.468673,-0.399866,0.879161,0.0733975,-0.0989472,-0.129778
0.160624,0.14853,1.06238,-0.802115,-1.05957,0.502905,0.154494,-0.120112,-0.251845
0.13412,0.129586,1.07185,-1.16615,-1.36644,0.185086,0.194292,-0.061069,-0.312486
0.107558,0.107146,1.07871,-1.02101,-1.10295,0.313094,0.184616,0.0529099,-0.338552
0.0899564,0.0941883,1.0922,-0.358125,-0.535022,0.945179,0.143,0.143839,-0.265492
0.0792909,0.0959117,1.11913,0.261772,-0.35685,1.72257,0.135695,0.186921,-0.199206
0.0668285,0.107916,1.15952,0.595103,-0.492883,2.30363,0.12764,0.19459,-0.148463
0.0501798,0.124799,1.20828,0.790243,-0.577432,2.56171,0.0780084,0.216089,-0.0927818
0.032194,0.144564,1.26027,0.947308,-0.486781,2.61238,0.0102005,0.216922,-0.0267063
0.0168136,0.165209,1.31195,0.959944,-0.235999,2.48517,-0.0659003,0.198684,0.0424427
0.00695205,0.184045,1.35952,0.842507,0.0714317,2.17407,-0.103743,0.163003,0.105265
0.00390094,0.19948,1.3997,0.667373,0.382537,1.74912,-0.115793,0.116205,0.153594
0.00390094,0.19948,1.3997,0.667373,0.382537,1.74912,-0.115793,0.116205,0.153594
0.00777466,0.21095,1.43085,0.447918,0.608025,1.29112,-0.114566,0.0624929,0.201665
0.0163838,0.217477,1.45261,0.180483,0.681662,0.834122,-0.104925,0.0335619,0.219295
0.0269853,0.218996,1.46564,-0.0479076,0.658215,0.453911,-0.076005,0.0169173,0.219611
0.0388194,0.216049,1.47266,-0.273747,0.682077,0.246826,-0.0448197,0.00435022,0.24393
0.0520467,0.207901,1.47727,-0.558778,0.725542,0.178252,-0.0342709,0.0142984,0.265059
0.0657591,0.194243,1.48192,-0.809773,0.72445,0.212071,-0.0163955,0.0198361,0.246713
0.0787939,0.17661,1.4886,-0.974379,0.682623,0.32694,-0.0108377,0.00400098,0.227591
0.0893934,0.157032,1.49821,-1.018,0.489468,0.450551,-0.0163376,0.00769036,0.173815
0.0938691,0.139263,1.51063,-0.821823,0.139472,0.619574,0.0157881,-0.0004839,0.0655791
0.0917735,0.126887,1.52657,-0.567769,-0.126758,0.821796,-0.000179224,-0.0121862,0.0157556
0.0849359,0.118538,1.54515,-0.437842,-0.314141,0.911196,-0.0285897,0.0031942,-0.0322645
0.075006,0.111795,1.56396,-0.381249,-0.446965,0.869554,-0.0287373,-0.0284219,-0.069141
0.0638966,0.106485,1.58095,-0.234918,-0.44511,0.772001,-0.0233151,-0.0447479,-0.110019
0.055395,0.105096,1.59617,0.00276911,-0.213231,0.731899,-0.0509108,-0.0310986,-0.0896845
0.0524199,0.107559,1.61084,0.143189,0.0586569,0.733339,-0.0649411,-0.0369962,-0.0307499
0.0534664,0.111382,1.62533,0.13592,0.165066,0.708008,-0.0471894,-0.070657,0.0215124
0.0547855,0.114316,1.63845,0.0941372,0.095171,0.596601,-0.0364717,-0.083809,0.0359889
0.0543853,0.117194,1.64924,0.140211,-0.0146597,0.487116,-0.0323793,-0.0763727,0.0469244
0.0517962,0.120808,1.65807,0.168029,-0.145009,0.40587,-0.0138592,-0.08171,0.0328841
0.0466605,0.124804,1.66589,0.18333,-0.260243,0.40528,0.0287924,-0.086183,-0.0202866
0.039104,0.127939,1.67464,0.0689163,-0.392321,0.472477,0.0521525,-0.0922275,-0.0666705
0.0277712,0.127827,1.68422,-0.0908485,-0.643335,0.453146,0.0681162,-0.0765457,-0.152584
0.0098999,0.126016,1.69294,-0.0790173,-1.03327,0.416441,0.11202,-0.0415228,-0.251478
-0.0157979,0.12564,1.70218,0.0531398,-1.37723,0.527135,0.152224,0.0123799,-0.32719
-0.0466927,0.127463,1.71606,0.148333,-1.5021,0.862215,0.165697,0.0632901,-0.363472
-0.0800796,0.128352,1.73723,0.0523695,-1.55296,1.20238,0.143865,0.0906002,-0.392462
-0.115771,0.12623,1.76416,0.0401796,-1.67403,1.45554,0.157837,0.121027,-0.390208
-0.154809,0.124987,1.79637,0.303513,-1.76216,1.70812,0.151661,0.141798,-0.344648
-0.191556,0.127969,1.8338,0.605687,-1.3364,1.85018,0.100893,0.150187,-0.245648
-0.215314,0.133698,1.87284,0.690833,-0.463402,1.76744,0.0392621,0.157958,-0.1233
-0.21849,0.138905,1.90803,0.515936,0.61508,1.48912,0.0150368,0.144257,-0.0119671
-0.201429,0.139879,1.93575,0.124253,1.38762,1.16109,0.0111955,0.113926,0.0514804
-0.172906,0.134469,1.95529,-0.274537,1.62177,0.819157,0.00968033,0.0843815,0.044754
-0.14415,0.12516,1.9665,-0.408638,1.32809,0.420721,0.0357164,0.0748154,-0.00409001
-0.12227,0.117698,1.97142,-0.233635,0.926178,0.214281,0.0997289,0.0672858,-0.0371748
-0.106805,0.115016,1.97624,0.0131977,0.704708,0.325022,0.102083,0.0686808,-0.0030818
-0.0937405,0.116053,1.98542,0.155391,0.729235,0.578337,0.0999621,0.0798432,0.0653285
-0.0797206,0.118231,2.00008,0.167733,0.843731,0.829725,0.0947358,0.0581714,0.1367
-0.063723,0.119974,2.01848,0.130273,0.94759,0.946246,0.0811054,0.0227627,0.197126
-0.0472124,0.12139,2.03731,0.116673,0.87996,0.879493,0.054599,-0.00230576,0.229893
-0.0341118,0.123023,2.05338,0.0967112,0.585187,0.687039,0.0310856,-0.0140211,0.231184
-0.0279305,0.12339,2.06477,-0.0443274,0.178028,0.428686,0.0207107,-0.017517,0.211599
-0.027352,0.120474,2.07129,-0.221119,0.0180622,0.252557,0.0415394,-0.00470994,0.199381
-0.0261772,0.114872,2.07619,-0.306045,0.192496,0.265522,0.0385444,-0.000310093,0.220227
-0.0201351,0.10862,2.0823,-0.284298,0.480492,0.361432,0.040828,0.00905664,0.211511
-0.00860776,0.103478,2.09059,-0.229998,0.738795,0.460035,0.0431838,-0.000969477,0.194245
0.00664258,0.0984587,2.10012,-0.279801,0.835801,0.470088,0.0416074,-0.0147374,0.17293
0.0213718,0.0920373,2.10938,-0.37022,0.686898,0.434792,0.0438295,-0.0233422,0.136165
0.0317866,0.0844904,2.11799,-0.384555,0.426541,0.407331,0.0455568,-0.0340488,0.0837743
0.037104,0.0778133,2.12697,-0.301829,0.177812,0.473252,0.0598032,-0.0512019,0.0491901
0.0377374,0.0729894,2.13768,-0.22874,-0.0261237,0.564174,0.0594331,-0.068326,0.0169063
0.0342385,0.0695414,2.14946,-0.139975,-0.228538,0.576867,0.0529023,-0.0704225,-0.0174212
0.0342385,0.0695414,2.14946,-0.139975,-0.228538,0.576867,0.0529023,-0.0704225,-0.0174212
0.0276756,0.068443,2.16072,0.00122382,-0.332458,0.530216,0.0592,-0.0785678,-0.0571209
0.020738,0.0699705,2.171,0.102771,-0.253136,0.494252,0.0537618,-0.0815606,-0.0873935
0.0158563,0.0717909,2.18068,0.0331217,-0.173788,0.468724,0.0532007,-0.0645927,-0.0880284
0.0123435,0.0713333,2.19021,-0.0811767,-0.105894,0.491114,0.0469381,-0.0258799,-0.116083
0.0104354,0.06983,2.20104,-0.0633632,-7.60285e-05,0.5885,0.0343595,0.0096842,-0.141682
0.0106918,0.0687917,2.21404,-0.080668,0.109441,0.686051,0.0277859,0.0291561,-0.146709
0.0137538,0.0653245,2.22803,-0.319617,0.324667,0.678405,0.0128262,0.0294352,-0.136901
0.0238775,0.0545268,2.24049,-0.816794,0.777614,0.51043,-0.00455267,-0.0190781,-0.111634
0.0417916,0.0319446,2.24767,-1.44064,0.944609,0.0700213,-0.0273386,-0.0723394,-0.172098
0.0593364,-0.000417268,2.24325,-1.64266,0.78644,-0.703762,-0.026663,-0.0688224,-0.384618
0.0725779,-0.031125,2.22438,-1.20333,0.554626,-1.29041,0.0369722,-0.0472791,-0.499377
0.0826683,-0.0499045,2.1992,-0.450769,0.626591,-1.25058,0.045733,0.0264255,-0.53647
0.0969888,-0.0540873,2.1787,0.157605,0.916135,-0.777079,0.0193173,0.0954599,-0.421499
0.117105,-0.0488881,2.16823,0.415573,1.09811,-0.217171,-0.000181869,0.11466,-0.325876
0.139362,-0.039753,2.16602,0.516436,1.10068,0.0566531,-0.0224995,0.0770788,-0.258128
0.159665,-0.0279363,2.16529,0.659055,0.892222,0.0100872,-0.037267,0.0519013,-0.169919
0.174736,-0.0139122,2.16113,0.772055,0.621548,-0.198935,-0.0607026,0.0374952,-0.0999023
0.185033,0.000448064,2.15218,0.768205,0.427641,-0.40984,-0.0710029,0.0373133,-0.00963891
0.193156,0.0129134,2.14015,0.670444,0.394098,-0.510816,-0.0689862,0.0366405,0.0708753
0.201407,0.023025,2.12756,0.565476,0.390023,-0.505804,-0.0689527,0.0447058,0.152317
0.208548,0.0314022,2.11598,0.501757,0.286154,-0.44107,-0.0657631,0.0459692,0.188361
0.213475,0.0394327,2.10589,0.491913,0.151995,-0.372562,-0.0680921,0.0375151,0.225335
0.215109,0.0479487,2.09703,0.530848,-0.0303955,-0.305882,-0.0731942,0.0399195,0.238342
0.213369,0.0578974,2.08933,0.59739,-0.185554,-0.231811,-0.0795325,0.0441016,0.258767
0.208534,0.0696974,2.08291,0.676385,-0.333291,-0.144399,-0.0770682,0.0523375,0.263146
0.200797,0.082931,2.07824,0.683151,-0.481173,-0.0400722,-0.0776406,0.0655783,0.276757
0.189008,0.0957968,2.0759,0.608426,-0.7356,0.0490622,-0.0839346,0.0815055,0.266979
0.171975,0.107201,2.07504,0.528535,-0.932727,0.0588003,-0.081294,0.0984962,0.227823
0.152856,0.117542,2.07421,0.508279,-0.950701,0.0244393,-0.0670129,0.110023,0.231673
0.13558,0.127788,2.07293,0.515817,-0.757081,-0.00214564,-0.0652309,0.117935,0.227922
0.122819,0.137543,2.07132,0.449022,-0.545468,-0.0356207,-0.0676421,0.119425,0.247392
0.114512,0.14485,2.06912,0.287926,-0.303114,-0.0995613,-0.0746739,0.114345,0.23204
0.11059,0.14828,2.06581,0.0889408,-0.159513,-0.187473,-0.0548168,0.0889914,0.242079
0.1086,0.147462,2.06129,-0.121064,-0.111294,-0.26377,-0.0416133,0.0602275,0.22656
0.107697,0.142552,2.0557,-0.292506,-0.0509375,-0.332198,-0.0347432,0.034968,0.191931
0.10848,0.134457,2.0495,-0.44567,0.0272837,-0.361959,-0.0198416,-0.0137288,0.178936
0.109625,0.123048,2.04252,-0.593149,-0.0195913,-0.463927,-0.00718401,-0.0565679,0.0826273
0.109462,0.109514,2.0333,-0.629202,-0.102282,-0.576424,0.0522232,-0.0904877,-0.0458754
0.107391,0.0959312,2.02253,-0.578347,-0.227974,-0.616959,0.0795876,-0.134517,-0.157335
0.102005,0.0849299,2.01171,-0.377764,-0.402258,-0.535296,0.113673,-0.129146,-0.272196
0.0936301,0.0788635,2.00368,-0.154515,-0.464664,-0.298943,0.115721,-0.115188,-0.322599
0.0849539,0.076547,2.00071,-0.0770699,-0.442502,-0.0251028,0.0931769,-0.11559,-0.314263
0.0750026,0.0741829,2.00223,-0.210979,-0.548451,0.132224,0.0938529,-0.157254,-0.313324
0.0614188,0.0675582,2.00578,-0.477553,-0.795496,0.144772,0.0824823,-0.184019,-0.31918
0.043955,0.0552351,2.00736,-0.7219,-0.895304,-0.0701725,0.0665692,-0.177734,-0.369189
0.027249,0.0407612,2.004,-0.649184,-0.734699,-0.296449,0.0558306,-0.153052,-0.38023
0.0163094,0.0308566,1.99733,-0.29436,-0.359093,-0.350135,0.0617477,-0.138597,-0.334548
0.0134489,0.0290707,1.99186,0.104185,0.0384761,-0.158934,0.0746919,-0.111406,-0.254984
0.0165499,0.0336836,1.99156,0.327757,0.223013,0.132483,0.0761268,-0.100692,-0.172472
0.0165499,0.0336836,1.99156,0.327757,0.223013,0.132483,0.0761268,-0.100692,-0.172472
0.0209321,0.0410803,1.99623,0.370143,0.220668,0.326737,0.0818244,-0.0955432,-0.112238
0.0246522,0.0480558,2.0036,0.29922,0.177109,0.40531,0.0737216,-0.0844243,-0.0501182
0.0273809,0.053623,2.01146,0.246249,0.149279,0.385938,0.0658168,-0.0760567,-0.0101887
0.0310021,0.0587115,2.01901,0.241811,0.27669,0.388709,0.0605785,-0.0623092,0.029322
0.038213,0.0639889,2.02713,0.260405,0.49177,0.437652,0.0358948,-0.0488172,0.0776692
0.0494725,0.0698874,2.03622,0.281037,0.676073,0.484646,0.0109558,-0.0279478,0.129395
0.062787,0.0764168,2.04593,0.320075,0.698003,0.514785,0.0178206,-0.0210391,0.166412
0.0754719,0.0843187,2.05631,0.394526,0.620745,0.572846,0.0383319,-0.0210516,0.19196
0.0848626,0.0944225,2.06798,0.517017,0.406537,0.663346,0.0433176,-0.00227533,0.198567
0.089347,0.107868,2.08141,0.697948,0.163488,0.779917,0.0532124,0.0186849,0.212177
0.0878842,0.125292,2.0967,0.892249,-0.130794,0.874403,0.0727221,0.0283149,0.211065
0.0796654,0.146704,2.1133,1.08343,-0.488871,0.927096,0.0970244,0.0484463,0.190985
0.0624376,0.171013,2.13005,1.1995,-0.981235,0.865605,0.127035,0.0638118,0.136813
0.0351612,0.197141,2.14495,1.33785,-1.41269,0.723612,0.183972,0.0882615,0.0709974
0.00301941,0.225809,2.15851,1.46544,-1.42479,0.66607,0.22098,0.104938,0.0754237
-0.0249638,0.254415,2.17271,1.35141,-0.963206,0.677239,0.203906,0.119858,0.11999
-0.0409741,0.277737,2.18778,0.989886,-0.200327,0.68966,0.161234,0.133921,0.166346
-0.040908,0.292839,2.2027,0.577759,0.597849,0.659083,0.120119,0.126104,0.207421
-0.0270612,0.300883,2.2159,0.284697,1.09819,0.561681,0.0989624,0.113044,0.225401
-0.00639538,0.304394,2.22658,0.0999248,1.23755,0.447323,0.0791451,0.102007,0.209091
0.0154759,0.304936,2.23486,-0.0607191,1.14828,0.334704,0.0574432,0.0892333,0.206239
0.0347734,0.301635,2.24058,-0.289978,0.930404,0.199978,0.0469729,0.0721821,0.170492
0.0503267,0.29381,2.24442,-0.491938,0.749725,0.158976,0.0410531,0.0607494,0.107715
0.0617653,0.282397,2.24944,-0.672124,0.487284,0.268993,0.0203087,0.0468924,0.0227222
0.065019,0.267793,2.25737,-0.802233,0.0258375,0.389964,0.00388617,0.0406356,-0.132819
0.0581369,0.253376,2.2676,-0.629897,-0.431732,0.513066,0.0365702,0.0139179,-0.268381
0.0435348,0.245321,2.28099,-0.242452,-0.649452,0.753471,0.0644562,-0.0264191,-0.313666
0.0256856,0.242032,2.29939,-0.254902,-0.667786,0.992354,0.0528856,-0.0661403,-0.250506
0.00650993,0.231418,2.3208,-0.914169,-0.779467,1.00803,0.0604056,-0.11128,-0.234381
-0.0148461,0.205524,2.33825,-1.58192,-0.925215,0.644795,0.0441962,-0.111792,-0.348897
-0.0342044,0.172489,2.34549,-1.55933,-0.808367,0.156496,-0.0323803,0.0254707,-0.440449
-0.044976,0.147607,2.3442,-0.858663,-0.226625,-0.132246,-0.0952834,0.135246,-0.463046
-0.0420222,0.138368,2.34144,-0.122132,0.457613,-0.0282619,-0.10129,0.169101,-0.340205
-0.0288974,0.139471,2.34463,0.156265,0.792034,0.365642,-0.0943578,0.150845,-0.18029
-0.0166758,0.141261,2.35612,0.00679291,0.484784,0.725975,-0.0838939,0.113951,-0.108853
-0.0163956,0.139141,2.37128,-0.164889,-0.258921,0.694804,-0.0733632,0.0769247,-0.140047
-0.0289383,0.13581,2.38152,-0.122509,-0.790596,0.290753,-0.0582158,0.0531482,-0.158869
-0.0459485,0.134074,2.38304,-0.0578544,-0.797065,-0.114837,-0.0822418,0.0301876,-0.107799
-0.0573976,0.132865,2.37786,-0.109383,-0.357155,-0.361923,-0.120874,0.0237096,0.00951266
-0.0573739,0.130195,2.36885,-0.203097,0.238972,-0.497456,-0.140424,0.0217803,0.123236
-0.0466745,0.126572,2.35776,-0.19881,0.62437,-0.566685,-0.130611,0.0103135,0.206252
-0.0320259,0.123856,2.34577,-0.107387,0.62627,-0.59863,-0.109552,-0.00942572,0.254969
-0.0204133,0.123216,2.33357,0.00772412,0.344784,-0.601006,-0.0933141,-0.0251825,0.30253
-0.0161454,0.124559,2.32134,0.0926864,-0.082176,-0.609659,-0.0823386,-0.0326536,0.337292
-0.0200649,0.127327,2.30873,0.158318,-0.435835,-0.638935,-0.0673944,-0.0287175,0.354391
-0.0289793,0.131478,2.29567,0.220952,-0.59176,-0.650176,-0.0520855,-0.00925073,0.371309
-0.039627,0.136833,2.28266,0.263003,-0.623048,-0.65265,-0.0536645,0.0078207,0.376213
-0.0490595,0.142848,2.26922,0.276832,-0.490209,-0.701454,-0.0436991,0.0271896,0.367438
-0.0490595,0.142848,2.26922,0.276832,-0.490209,-0.701454,-0.0436991,0.0271896,0.367438
-0.0549314,0.148701,2.25496,0.209042,-0.294214,-0.723414,-0.0229116,0.0399227,0.354996
-0.0575843,0.151289,2.24032,-0.069992,-0.204996,-0.737668,-0.00896189,0.0253923,0.334687
-0.0587849,0.146563,2.22429,-0.485462,-0.148304,-0.807584,0.0085453,0.034589,0.257178
-0.0579639,0.134657,2.20685,-0.773011,-0.0212248,-0.828329,0.0175052,0.033909,0.18101
-0.0558947,0.118548,2.18908,-0.89223,-0.000366101,-0.832815,0.0360491,0.0102844,0.0927643
-0.0529216,0.102165,2.17166,-0.80212,0.121346,-0.773958,0.0543606,0.0158206,0.0322114
-0.0473336,0.089053,2.15756,-0.552598,0.313785,-0.527753,0.0384919,0.0279155,0.00512993
-0.0388154,0.0806915,2.14999,-0.327753,0.441611,-0.196404,0.0279067,-0.00667629,0.00791258
-0.029304,0.074993,2.14797,-0.274679,0.487635,-0.0153158,0.0241515,-0.0517405,0.000636935
-0.0197011,0.0684996,2.14784,-0.390127,0.449407,-0.0046414,0.00466944,-0.10172,0.00902742
-0.0109949,0.0592866,2.14663,-0.516818,0.410757,-0.112847,-0.021648,-0.124281,-0.010118
-0.00304971,0.0486297,2.14282,-0.519312,0.347711,-0.253844,-0.0346431,-0.142796,-0.0465512
0.00304583,0.039565,2.13689,-0.357005,0.220444,-0.318476,-0.0362008,-0.159542,-0.099771
0.00571971,0.0349155,2.13044,-0.103344,-0.00176404,-0.319215,-0.0274905,-0.166691,-0.164078
0.000924953,0.0344548,2.12414,0.0409165,-0.566477,-0.320028,-0.00672278,-0.166281,-0.28842
-0.0190774,0.0360192,2.11711,0.105708,-1.47509,-0.38476,0.0420131,-0.163253,-0.430564
-0.0556772,0.0396949,2.10919,0.251491,-2.11709,-0.385491,0.0673386,-0.17432,-0.486604
-0.0994324,0.0472375,2.10348,0.44563,-2.14071,-0.228924,0.0376497,-0.174658,-0.501594
-0.136602,0.0570997,2.10197,0.476658,-1.49412,-0.0342852,-0.0295259,-0.113296,-0.466466
-0.157683,0.0653125,2.10455,0.36094,-0.587511,0.162985,-0.0933042,-0.0484882,-0.411378
-0.162155,0.0707274,2.11023,0.270147,0.119324,0.281866,-0.103072,-0.00329085,-0.360099
-0.155608,0.0758808,2.11684,0.363298,0.548862,0.270336,-0.0513066,0.00145192,-0.272646
-0.141766,0.084189,2.12315,0.540992,0.871494,0.232114,-0.00372498,-0.0105912,-0.151478
-0.122507,0.0957265,2.12956,0.667975,1.06609,0.253784,0.0182626,-0.00926274,-0.0231164
-0.102282,0.108604,2.13656,0.647983,0.992281,0.287323,0.0246133,-0.00327365,0.0669159
-0.0829499,0.117427,2.14245,0.239096,1.00493,0.175585,0.0544979,-0.0120231,0.144163
-0.0638307,0.118079,2.14411,-0.166787,0.907096,-0.0180383,0.0665932,-0.0387499,0.173403
-0.0453093,0.111501,2.14151,-0.478229,0.933191,-0.198711,0.0694113,-0.0384343,0.222873
-0.0249032,0.100311,2.13563,-0.633285,1.01983,-0.343157,0.0715131,-0.0162661,0.254384
-0.00385575,0.0878679,2.12751,-0.587479,0.978549,-0.422751,0.103038,-0.00382835,0.258296
0.0143024,0.0778583,2.11931,-0.395717,0.716259,-0.378602,0.133767,0.000692271,0.247479
0.0246035,0.0723157,2.1131,-0.137257,0.249851,-0.22804,0.163772,0.00262687,0.230574
0.0244848,0.0720895,2.11083,0.119144,-0.276043,0.0118557,0.195537,-0.00472458,0.213382
0.0140456,0.0767064,2.11383,0.327999,-0.709436,0.298602,0.214756,-0.00564422,0.194807
-0.00354106,0.08455,2.12277,0.428764,-0.914984,0.586932,0.196949,0.0174175,0.158348
-0.0222285,0.0927087,2.13671,0.381065,-0.769047,0.753435,0.151587,0.0369729,0.136222
-0.0353737,0.0987196,2.15209,0.261722,-0.377938,0.727681,0.140098,0.025012,0.109743
-0.0394635,0.10279,2.16589,0.209044,0.109566,0.612446,0.124298,0.0143216,0.087621
-0.0342809,0.106812,2.1772,0.240775,0.495487,0.488,0.109747,0.0247914,0.0576817
-0.0227484,0.111885,2.18614,0.280568,0.718569,0.390129,0.1164,0.0366086,0.0607053
-0.00832173,0.116871,2.19378,0.209558,0.791026,0.374675,0.133066,0.0295689,0.0724897
0.00725189,0.119897,2.2021,0.0945572,0.861839,0.456899,0.119448,0.0311245,0.108197
0.0243269,0.12096,2.21252,0.000925297,0.965676,0.573118,0.111626,0.0284867,0.136687
0.0432608,0.120753,2.2254,-0.0642544,1.07366,0.694031,0.0993711,0.0111759,0.154647
0.0631701,0.119385,2.2403,-0.15044,1.05702,0.756127,0.083592,0.0115273,0.13908
0.0817284,0.116838,2.25601,-0.214995,0.972262,0.767404,0.0613447,0.0163072,0.129729
0.0992046,0.113551,2.27198,-0.242893,0.965338,0.77964,0.0449369,0.0186875,0.112241
0.117742,0.110699,2.28878,-0.221852,1.07969,0.850119,0.0327239,0.00222766,0.0969222
0.117742,0.110699,2.28878,-0.221852,1.07969,0.850119,0.0327239,0.00222766,0.0969222
0.138335,0.107854,2.30742,-0.326869,1.14689,0.93163,0.0431135,-0.038641,0.061169
0.158143,0.101858,2.3275,-0.555527,1.00737,0.924628,0.0614708,-0.0701471,-0.0269812
0.174005,0.0925567,2.34702,-0.636424,0.762195,0.822477,0.0777808,-0.0638407,-0.126387
0.185863,0.083788,2.36447,-0.527436,0.596866,0.72812,0.0670747,-0.0293776,-0.166926
0.195739,0.0757837,2.38023,-0.599093,0.536173,0.67448,0.0795348,-0.013507,-0.185592
0.206761,0.0628941,2.39725,-1.06996,0.69851,0.732522,0.109675,-0.055998,-0.189707
0.219748,0.0366473,2.41781,-1.94752,0.61868,0.651607,0.106549,-0.0773441,-0.341506
0.227625,-0.00618678,2.43561,-2.4577,0.205069,0.0672999,0.107164,0.0169456,-0.535198
0.228547,-0.0526695,2.44221,-2.07137,-0.0958124,-0.394313,0.0109649,0.175397,-0.610163
0.22565,-0.0864363,2.44137,-1.1355,-0.152576,-0.389356,-0.0827218,0.280889,-0.58415
0.224633,-0.0997494,2.43923,-0.15065,0.110896,-0.0576928,-0.0751116,0.23794,-0.433565
0.230111,-0.0962222,2.44298,0.292858,0.394614,0.485732,-0.0845894,0.118282,-0.277536
0.2407,-0.0883379,2.45418,0.154995,0.489804,0.709402,-0.0958518,0.0827365,-0.167808
0.249905,-0.0839909,2.46696,-0.0122309,0.287397,0.587929,-0.10525,0.023728,-0.124018
0.252775,-0.0814076,2.4756,0.0920874,-0.084969,0.28651,-0.110592,-0.0137975,-0.0925711
0.24754,-0.0762752,2.47683,0.385046,-0.426619,-0.031236,-0.0979603,-0.0232838,-0.0311951
0.236673,-0.0667707,2.47172,0.640111,-0.572916,-0.197565,-0.0706627,-0.0385533,0.0498065
0.225047,-0.0535145,2.46449,0.787893,-0.524289,-0.179113,-0.0531855,-0.0365517,0.13771
0.215817,-0.0378977,2.45837,0.860865,-0.341709,-0.0575639,-0.0443595,-0.0276957,0.214885
0.21148,-0.0198832,2.4552,0.96075,-0.0905527,0.134522,-0.0446584,-0.0277097,0.29633
0.21088,0.00061324,2.45562,1.01169,0.000730003,0.320528,-0.040772,-0.0322999,0.326266
0.210746,0.0225026,2.45868,1.05325,-0.0272939,0.425129,-0.0290524,-0.0284483,0.3672
0.208874,0.0456931,2.46331,1.09493,-0.165161,0.504891,-0.0235486,-0.0415726,0.406138
0.202561,0.0684456,2.46894,0.973376,-0.450694,0.47872,-0.019143,-0.025373,0.383221
0.19008,0.0875147,2.47354,0.809489,-0.724521,0.335572,0.00563301,-0.0131218,0.357992
0.174319,0.10338,2.47616,0.684763,-0.809049,0.218304,0.0354352,-0.0270069,0.343799
0.157198,0.115281,2.47773,0.439377,-0.867724,0.134239,0.0526326,0.00806165,0.256596
0.140218,0.121938,2.47896,0.207813,-0.775594,0.0913193,0.0549733,0.0425348,0.199264
0.127095,0.124575,2.48057,0.0420036,-0.487243,0.113307,0.0624162,0.0460971,0.166804
0.120142,0.124353,2.48364,-0.102129,-0.177753,0.185258,0.0573266,0.0517365,0.136981
0.118114,0.121504,2.48853,-0.240938,0.00986448,0.259737,0.0530581,0.0554857,0.120782
0.117567,0.115776,2.49528,-0.411981,-0.0247398,0.336178,0.0563255,0.0454647,0.0995315
0.113749,0.106885,2.50427,-0.555676,-0.274403,0.451319,0.0522131,0.0246961,0.0967849
0.103632,0.0962348,2.51633,-0.627152,-0.625006,0.620189,0.0279529,-0.00593396,0.124463
0.0859452,0.0841288,2.53159,-0.725185,-0.974251,0.760081,-0.0165357,-0.0249029,0.152499
0.0637446,0.0695153,2.54878,-0.847518,-1.03445,0.814794,-0.0593972,-0.0602861,0.165343
0.0455681,0.0531692,2.56557,-0.835715,-0.602214,0.743819,-0.0895096,-0.0866111,0.18
0.0392394,0.0385765,2.57991,-0.666721,0.033823,0.624911,-0.0925297,-0.114387,0.18411
0.0444942,0.0270305,2.59236,-0.550535,0.480733,0.575282,-0.0732261,-0.158901,0.134479
0.055772,0.0169952,2.60408,-0.515114,0.607252,0.531989,-0.0317788,-0.193729,0.0524544
0.0658338,0.00769624,2.61484,-0.464721,0.341978,0.484062,0.029339,-0.211176,-0.0679917
0.0682145,3.41908e-05,2.62535,-0.360238,-0.105642,0.52078,0.0635827,-0.211605,-0.176749
0.0627448,-0.00475409,2.63743,-0.172935,-0.382489,0.650885,0.0522415,-0.192468,-0.251872
0.0555969,-0.00453763,2.65264,0.1063,-0.285096,0.872303,0.0647631,-0.222189,-0.268722
0.0526934,-1.39791e-05,2.67248,0.183545,-0.00127029,1.11495,0.0764661,-0.24623,-0.274612
0.0546406,0.00246768,2.69641,-0.13344,0.128265,1.24497,0.0394267,-0.194905,-0.30748
0.0544428,-0.00393991,2.72085,-0.590447,-0.170744,1.10485,-0.000155222,-0.0817292,-0.434976
0.0544428,-0.00393991,2.72085,-0.590447,-0.170744,1.10485,-0.000155222,-0.0817292,-0.434976
0.0492426,-0.0140562,2.74125,-0.403771,-0.330628,0.894545,0.0385202,-0.0291314,-0.432799
0.0443226,-0.0138126,2.75943,0.397839,-0.0896194,0.967632,0.0504074,0.010373,-0.308832
0.0478603,0.0026585,2.7818,1.04584,0.388164,1.36455,0.0630743,0.00908248,-0.10056
0.0583215,0.0266157,2.81292,1.08504,0.677359,1.84027,0.108785,-0.0627276,0.0517182
0.0716095,0.0476223,2.85186,0.704152,0.74,2.11307,0.119634,-0.104388,0.139541
0.0822723,0.0599402,2.89375,0.203962,0.504036,2.07479,0.116393,-0.105013,0.147553
0.0859128,0.0639214,2.93266,-0.092922,0.0860599,1.78524,0.1176,-0.0998336,0.132369
0.0812204,0.0643509,2.96483,-0.0894245,-0.343374,1.4008,0.126221,-0.0890137,0.108746
0.0697651,0.066587,2.98941,0.143413,-0.602422,1.07233,0.149989,-0.0595303,0.113399
0.0549569,0.0729389,3.00897,0.339729,-0.712633,0.94007,0.191097,-0.0506151,0.126313
0.0398939,0.081084,3.02785,0.351386,-0.613732,0.989686,0.232571,-0.0506576,0.153468
0.0275789,0.0875318,3.04869,0.196819,-0.445853,1.10144,0.262462,-0.0499853,0.153584
0.016705,0.089812,3.07157,-0.0058453,-0.450466,1.15662,0.27888,-0.0192106,0.0690881
0.00528844,0.089647,3.09452,0.00373695,-0.497683,1.09993,0.276242,0.034397,-0.00381589
-0.00736032,0.0916115,3.11564,0.217157,-0.551427,0.993488,0.276739,0.0633157,-0.0593809
-0.0192628,0.0988324,3.13515,0.531152,-0.417444,0.944681,0.272601,0.0740287,-0.0607744
-0.0262353,0.111822,-3.12833,0.775523,-0.0360814,0.987988,0.256827,0.0809341,-0.0160174
-0.0252735,0.127229,-3.10703,0.768393,0.370359,1.07458,0.234616,0.0734953,0.0332876
-0.0180294,0.140535,-3.08435,0.594889,0.63074,1.11565,0.201734,0.0650145,0.0608422
-0.00710481,0.150738,-3.06204,0.466491,0.772838,1.04596,0.16512,0.0664731,0.0665317
0.00657619,0.159858,-3.04226,0.443879,0.876083,0.904398,0.141915,0.0547623,0.0807191
0.0215555,0.168606,-3.02537,0.39201,0.888252,0.768408,0.121559,0.0431743,0.0675151
0.0370721,0.175631,-3.0111,0.24365,0.89894,0.651587,0.103262,0.0287177,0.0567855
0.0528556,0.178282,-2.99919,-0.0414432,0.876545,0.51651,0.0637138,0.0308698,-0.00970197
0.0692257,0.175305,-2.99064,-0.273433,0.900584,0.277731,-0.0374859,0.0848542,-0.0988007
0.0864364,0.170293,-2.98836,-0.17818,0.831047,-0.128245,-0.184506,0.166831,-0.200288
0.103596,0.169314,-2.99687,0.172092,0.755492,-0.725211,-0.225574,0.207477,-0.232475
0.122838,0.173429,-3.0165,0.40055,0.858687,-1.05796,-0.185435,0.152542,-0.16253
0.14635,0.177462,-3.03828,0.208393,1.13371,-0.967957,-0.165816,0.10683,-0.051328
0.175445,0.173313,-3.05643,-0.39128,1.40453,-0.887418,-0.116145,0.0547248,-0.0107691
0.206116,0.154254,-3.07286,-1.15726,1.29091,-1.11233,-0.0572098,0.0175349,-0.1024
0.229342,0.120701,-3.09286,-1.57163,0.710285,-1.53853,-0.0361377,0.0689557,-0.23438
0.238612,0.0833916,-3.11857,-1.3596,-0.0513416,-1.74289,-0.0169198,0.12811,-0.308687
0.232354,0.0549509,3.13705,-0.709631,-0.700622,-1.50555,0.0248091,0.131583,-0.289862
0.217139,0.0412469,3.11503,-0.201094,-0.838162,-0.900494,0.0418719,0.104483,-0.200872
0.202972,0.035542,3.10447,-0.203741,-0.559623,-0.256828,0.0402455,0.0842406,-0.124113
0.19485,0.0287708,3.10572,-0.495852,-0.284034,0.199019,0.0139345,0.0547831,-0.110958
0.190022,0.0178676,3.11346,-0.661414,-0.208403,0.290768,0.00130443,0.0249163,-0.13333
0.185279,0.0070424,3.11966,-0.466672,-0.272618,0.0836715,-0.00269808,0.00574538,-0.147816
0.178823,0.000991838,3.11993,-0.146418,-0.367081,-0.146267,-0.00862069,0.00410467,-0.109895
0.171461,0.000111726,3.11654,0.0953422,-0.32178,-0.171597,-0.0203689,-0.0190075,-0.0256345
0.166996,0.00365466,3.11352,0.279999,-0.12813,-0.0595437,-0.0129605,-0.040077,0.0705851
0.16618,0.0105235,3.11251,0.393235,0.0385611,0.0674218,-0.00564769,-0.0555167,0.131235
0.167686,0.0192442,3.11321,0.435709,0.0827346,0.12301,-0.0153053,-0.0564253,0.163998
0.168352,0.0284161,3.11364,0.4623,-0.0299816,0.0625667,-0.0121558,-0.0434108,0.167074
0.165983,0.0385009,3.11239,0.551522,-0.227083,-0.0191107,-0.00869671,-0.0311345,0.170309
0.159318,0.0505143,3.10951,0.685074,-0.421706,-0.0626149,-0.00321436,0.0119491,0.162361
0.150388,0.0656322,3.10608,0.843231,-0.47872,-0.0330929,-0.00641777,0.0350676,0.196454
0.150388,0.0656322,3.10608,0.843231,-0.47872,-0.0330929,-0.00641777,0.0350676,0.196454
0.140909,0.0825971,3.10325,0.827489,-0.471425,-0.00950345,-0.00628193,0.0554952,0.21384
0.132604,0.0970913,3.101,0.615057,-0.353103,-0.0086787,0.00616342,0.0572203,0.227901
0.127726,0.106812,3.09983,0.346849,-0.146666,0.0160269,0.00489257,0.0437738,0.243282
0.126613,0.110633,3.09927,0.0530665,0.0229523,-0.0297516,0.00306742,0.0551549,0.216964
0.128488,0.109862,3.09848,-0.0881336,0.141619,-0.0490311,0.0100736,0.0354986,0.203246
0.132393,0.108166,3.09801,-0.0488174,0.254463,-0.0121242,-0.00309189,0.0323481,0.195493
0.138604,0.108169,3.09856,0.0391407,0.343776,0.0699561,-0.0188233,0.0210444,0.186953
0.14479,0.109528,3.1004,0.0474324,0.254952,0.122402,-2.96533e-06,-0.0190785,0.15864
0.147337,0.10986,3.10304,-0.0660573,0.0211356,0.138196,0.0239722,-0.0467028,0.102587
0.144818,0.107484,3.10641,-0.210773,-0.226506,0.164081,0.0181878,-0.0494767,0.0413322
0.137552,0.103325,3.11091,-0.237913,-0.430962,0.225468,0.0218921,-0.0615313,-0.0351903
0.126823,0.100584,3.11673,-0.0745295,-0.55474,0.309547,0.0172835,-0.0650368,-0.107573
0.114931,0.102851,3.12362,0.21669,-0.565616,0.395978,0.0294522,-0.0654206,-0.147314
0.102275,0.110546,3.13202,0.435557,-0.598049,0.521225,0.0687079,-0.106949,-0.188834
0.0896185,0.121333,-3.14019,0.498993,-0.498836,0.661161,0.0938986,-0.128644,-0.176756
0.0803292,0.130369,-3.12608,0.208595,-0.253666,0.795561,0.106046,-0.157903,-0.169474
0.073958,0.129394,-3.1102,-0.448483,-0.211474,0.709242,0.0953977,-0.118785,-0.298821
0.0675258,0.116447,-3.09781,-0.815645,-0.278303,0.412974,0.104201,-0.0643582,-0.416537
0.0612312,0.103068,-3.09044,-0.46553,-0.250845,0.274784,0.104568,-0.00474966,-0.45642
0.0563202,0.100816,-3.08345,0.207629,-0.157059,0.453544,0.103663,0.0505813,-0.405825
0.0533366,0.111108,-3.07082,0.680661,0.00300908,0.87072,0.116848,0.0309392,-0.29385
0.0528612,0.127025,-3.04976,0.726558,0.196844,1.26637,0.112888,0.00414045,-0.191129
0.0548211,0.141517,-3.02233,0.546405,0.344509,1.47667,0.0846549,-0.0056985,-0.119257
0.0581106,0.152127,-2.99253,0.359254,0.416213,1.48373,0.0548823,-0.0102628,-0.0668674
0.0625934,0.159899,-2.96387,0.255877,0.464607,1.36723,0.0316902,-0.00963512,-0.00445133
0.0680062,0.166141,-2.93776,0.199021,0.498236,1.23838,0.0194992,-0.010693,0.0560331
0.074896,0.171224,-2.91383,0.134058,0.592841,1.1457,0.0190263,-0.0119842,0.118372
0.0836969,0.174706,-2.89108,0.022924,0.661515,1.1065,0.0229132,-0.00852379,0.153312
0.0931854,0.176061,-2.86865,-0.082405,0.650768,1.10259,0.033693,-0.000674054,0.174117
0.101073,0.176113,-2.84565,-0.128,0.512139,1.14566,0.0385529,0.00847083,0.177445
0.10494,0.176665,-2.82163,-0.0493747,0.28527,1.19404,0.0401938,0.0190394,0.183869
0.103617,0.179546,-2.79723,0.0943204,0.0153839,1.20299,0.0351788,0.0322056,0.177485
0.0976671,0.185883,-2.77354,0.29692,-0.162024,1.16176,0.0408867,0.0445713,0.187181
0.0893913,0.195577,-2.75106,0.438585,-0.219744,1.11252,0.0397948,0.0489313,0.20204
0.0817096,0.206627,-2.72991,0.465383,-0.0947174,1.0293,0.0378847,0.0424097,0.231795
0.0778616,0.216591,-2.71083,0.351619,0.111872,0.890769,0.0407184,0.0417602,0.240629
0.0788288,0.223083,-2.69472,0.17086,0.327576,0.720001,0.045366,0.034088,0.235635
0.0844418,0.225881,-2.682,0.0108265,0.493441,0.535797,0.0519563,0.0353507,0.216761
0.0929464,0.225469,-2.67284,-0.123954,0.544553,0.346568,0.0596067,0.0467902,0.17437
0.10174,0.223059,-2.66686,-0.145091,0.461089,0.221764,0.0729334,0.0559768,0.0962657
0.10974,0.221411,-2.66271,-0.0602018,0.407592,0.165967,0.0497848,0.0916771,0.0431452
0.116127,0.221536,-2.6597,0.0495571,0.329165,0.129951,0.0286283,0.118318,-0.0340917
0.122807,0.223266,-2.65739,0.0595565,0.375097,0.11635,0.00372601,0.129725,-0.0435631
0.13022,0.223543,-2.6551,-0.0673068,0.436054,0.103102,-0.0298199,0.137519,-0.0442159
0.139187,0.221438,-2.65275,-0.163865,0.499304,0.100901,-0.0548147,0.141554,-0.0318381
0.148153,0.217464,-2.65019,-0.262444,0.423756,0.0747788,-0.0768131,0.151774,-0.0549244
0.155774,0.211746,-2.64857,-0.322081,0.395514,-0.0133945,-0.087455,0.154899,-0.0666276
0.163811,0.204874,-2.64844,-0.348049,0.407202,-0.0702696,-0.0842446,0.14131,-0.0646753
0.163811,0.204874,-2.64844,-0.348049,0.407202,-0.0702696,-0.0842446,0.14131,-0.0646753
0.171568,0.197995,-2.64848,-0.32134,0.35292,-0.0409775,-0.0567504,0.0824922,-0.0477564
0.177337,0.191721,-2.64736,-0.341568,0.220625,0.0428338,-0.00485681,-0.00145227,-0.019039
0.176874,0.18151,-2.64398,-0.818335,-0.307913,0.076276,0.0370504,-0.0904506,0.00370365
0.162737,0.157556,-2.63968,-1.58117,-0.958217,-0.098318,0.0907344,-0.191407,-0.182509
0.141782,0.121384,-2.63929,-1.87475,-1.02356,-0.414392,0.106085,-0.223549,-0.280883
0.124877,0.0864854,-2.64542,-1.3773,-0.66059,-0.610933,0.0714844,-0.125613,-0.385305
0.119311,0.0668859,-2.65487,-0.430326,0.0696673,-0.510913,0.0211759,-0.0111516,-0.41474
0.128271,0.0654611,-2.66163,0.2986,0.734507,-0.135565,0.0149935,0.0254821,-0.342264
0.147578,0.0750185,-2.66028,0.552952,1.1617,0.413511,0.0173564,-0.0108825,-0.25114
0.171232,0.0876704,-2.64869,0.461208,1.20578,0.882342,-0.00670226,-0.0828062,-0.131812
0.189927,0.0986789,-2.63076,0.294705,0.747363,0.999762,-0.0218379,-0.117927,-0.0890282
0.195455,0.107694,-2.61377,0.301271,-0.041374,0.786031,-0.0462677,-0.107526,-0.0921675
0.185954,0.118472,-2.60346,0.588166,-0.76125,0.408554,-0.0907232,-0.079238,-0.0820203
0.165495,0.134613,-2.60161,0.95111,-1.16853,0.0756972,-0.11488,-0.0347389,-0.0198547
0.14324,0.156017,-2.60507,1.15759,-1.02469,-0.0530804,-0.125468,0.00117993,0.101303
0.127135,0.17871,-2.60923,1.09202,-0.621983,-0.0333843,-0.130389,0.0177723,0.221203
0.119409,0.198339,-2.61172,0.848942,-0.22318,0.0240266,-0.121093,0.0163465,0.312586
0.116696,0.212424,-2.61298,0.554563,-0.13892,0.00137182,-0.0879661,-0.0131231,0.341983
0.113231,0.221271,-2.61547,0.375865,-0.253886,-0.165018,-0.0631912,-0.0187659,0.303204
0.108577,0.227275,-2.6221,0.300268,-0.348306,-0.407589,-0.0485092,-0.00844094,0.257182
0.103565,0.232282,-2.63314,0.333413,-0.38642,-0.580866,-0.0386528,0.0139971,0.204242
0.099645,0.238495,-2.64656,0.398834,-0.306391,-0.632678,-0.0307006,0.0273321,0.17383
0.0986022,0.244675,-2.6604,0.318889,-0.101435,-0.629401,-0.0183467,0.034966,0.136585
0.102519,0.247775,-2.67376,0.108336,0.161705,-0.623836,-0.0180066,0.0385058,0.0974576
0.11098,0.246631,-2.68689,-0.0696708,0.332807,-0.64453,-0.0176797,0.0454386,0.0376118
0.120748,0.243924,-2.69978,-0.0195036,0.311776,-0.60942,-0.0171119,0.0317494,-0.0250558
0.129563,0.244002,-2.71129,0.157795,0.297734,-0.480763,-0.02018,0.010036,-0.0386394
0.137596,0.246584,-2.72009,0.167315,0.275203,-0.340262,-0.0196555,-0.0099204,-0.0704194
0.143552,0.247959,-2.72657,0.0581031,0.145955,-0.266546,0.0110196,-0.0330469,-0.128431
0.146183,0.248039,-2.73098,0.02228,0.00632439,-0.134232,0.043869,-0.0728868,-0.161778
0.143905,0.24863,-2.7314,0.0555335,-0.281412,0.109084,0.070123,-0.0966667,-0.241146
0.133169,0.251311,-2.72684,0.142023,-0.691532,0.362337,0.100323,-0.113844,-0.304271
0.111707,0.25437,-2.71803,0.0152986,-1.18627,0.480042,0.0848455,-0.0817993,-0.413012
0.0863899,0.25363,-2.70843,-0.154314,-0.933748,0.424769,0.0497024,-0.0218925,-0.35535
0.0746768,0.251561,-2.69949,-0.0822846,0.0433775,0.445267,0.00310405,0.00689614,-0.222712
0.0829046,0.252862,-2.6887,0.10928,0.97469,0.612973,-0.00229552,0.000725657,-0.0949243
0.103374,0.256953,-2.67434,0.123423,1.32226,0.789399,0.0347497,-0.0373078,-0.0234832
0.124169,0.260387,-2.65732,0.0248752,1.09673,0.860687,0.0470119,-0.0578072,0.0208015
0.136078,0.262945,-2.6395,0.0180149,0.524379,0.860361,0.037843,-0.0690693,0.041419
0.136495,0.26661,-2.62224,0.107239,-0.0101775,0.823603,0.0109176,-0.050197,0.0769284
0.128614,0.2716,-2.60627,0.156121,-0.289319,0.758425,-0.000831433,-0.0202857,0.109058
0.119359,0.276243,-2.59136,0.102556,-0.177286,0.722122,-5.91129e-05,-0.00383818,0.153469
0.114631,0.279024,-2.57643,0.00279566,0.126549,0.729228,0.00153954,0.0135771,0.17317
0.116301,0.280186,-2.56123,-0.0461753,0.450995,0.719616,0.00552096,0.023773,0.181334
0.123608,0.280931,-2.5468,-0.0453558,0.63699,0.644796,0.0135438,0.0303327,0.193778
0.132756,0.281587,-2.53473,-0.0371269,0.568899,0.499079,0.0277086,0.0343199,0.18692
0.139588,0.28229,-2.52589,-0.0082893,0.342759,0.349493,0.0437701,0.0317144,0.189482
0.139588,0.28229,-2.52589,-0.0082893,0.342759,0.349493,0.0437701,0.0317144,0.189482
0.142441,0.28317,-2.51975,0.00245068,0.114954,0.254394,0.049851,0.0332918,0.208675
0.141986,0.28347,-2.5148,-0.0471527,-0.00208033,0.226342,0.0567045,0.0340829,0.225805
0.140327,0.28232,-2.50971,-0.140713,-0.0176503,0.241707,0.0637594,0.0242816,0.229642
0.138994,0.279518,-2.5041,-0.202099,0.0560651,0.240914,0.062494,0.020292,0.215179
0.139943,0.27613,-2.49918,-0.186151,0.167373,0.173713,0.058073,0.0227721,0.183608
0.143364,0.273501,-2.49612,-0.113163,0.250923,0.0796668,0.0563613,0.0147172,0.158215
0.148809,0.271715,-2.49509,-0.0906018,0.319161,-0.00365337,0.0615401,0.0124024,0.134535
0.155684,0.26954,-2.49507,-0.13165,0.354601,-0.00758799,0.0809958,0.00791073,0.103985
0.162149,0.26626,-2.49378,-0.209796,0.30842,0.0827518,0.0850634,0.00978309,0.0595743
0.166618,0.262017,-2.4904,-0.241409,0.235653,0.163462,0.0888819,0.0117761,0.00942397
0.169909,0.258734,-2.4855,-0.144521,0.229182,0.255285,0.0884427,-0.0041678,-0.015895
0.173486,0.258288,-2.47861,-0.022452,0.305825,0.386565,0.0780738,-0.0399999,-0.0182653
0.177527,0.25952,-2.47,-0.0307829,0.292374,0.423421,0.0827967,-0.0944265,-0.0339066
0.179556,0.258846,-2.46172,-0.205088,0.0920147,0.339607,0.0781201,-0.102998,-0.0598263
0.176828,0.25355,-2.45361,-0.436577,-0.132995,0.381975,0.0388689,-0.0697905,-0.101846
0.169946,0.245538,-2.44049,-0.557466,-0.256381,0.774129,-0.0232938,-0.0647528,-0.13201
0.157384,0.236759,-2.41929,-0.614655,-0.469281,1.00846,-0.106128,-0.0777792,-0.244959
0.142801,0.227102,-2.40154,-0.606839,-0.621471,0.422163,-0.0983327,-0.0895269,-0.303905
0.125576,0.214727,-2.39984,-0.627717,-1.05056,-0.361111,-0.0460453,-0.1401,-0.354435
0.105043,0.20078,-2.4085,-0.670567,-1.02937,-0.553958,-0.0406407,-0.0908951,-0.243584
0.0925441,0.185221,-2.41736,-0.776485,-0.325451,-0.44659,-0.0162922,-0.0145365,-0.168771
0.0958745,0.16915,-2.42383,-0.711543,0.534138,-0.333518,0.00485122,0.0422002,-0.159607
0.113816,0.15774,-2.42798,-0.347021,1.09961,-0.175748,0.0240095,0.0631074,-0.161368
0.136307,0.154725,-2.42901,0.0303812,1.01989,0.0360743,0.0568387,0.0322818,-0.170204
0.151756,0.157265,-2.42684,0.133189,0.52235,0.200422,0.0842579,-0.0121597,-0.140879
0.155966,0.159753,-2.42207,0.013797,-0.0151181,0.283799,0.0815677,-0.0376419,-0.092588
0.150347,0.159943,-2.41625,-0.0697262,-0.41823,0.275616,0.0684542,-0.0500279,-0.0562796
0.139004,0.159578,-2.41078,-0.0299212,-0.601063,0.243186,0.053588,-0.0543862,-0.0132257
0.125621,0.160619,-2.40648,0.0801903,-0.640677,0.1862,0.0301153,-0.0523358,0.0360211
0.112091,0.163493,-2.40389,0.163684,-0.692387,0.0917248,0.00595326,-0.0641781,0.0925182
0.0958564,0.167262,-2.40396,0.193304,-0.966603,-0.0720877,-0.00964191,-0.0796565,0.12875
0.0731292,0.170408,-2.40827,0.156714,-1.33512,-0.349687,-0.00926166,-0.0712908,0.0805532
0.0487312,0.174355,-2.41892,0.324684,-1.18,-0.630243,0.00370816,-0.0164833,0.0872003
0.0322656,0.183006,-2.43179,0.580768,-0.666782,-0.535172,-0.016554,0.0192053,0.0774243
0.0259075,0.196947,-2.43937,0.80101,-0.122899,-0.142299,-0.0413493,0.0321936,0.0896839
0.0279952,0.213717,-2.43891,0.832581,0.316886,0.204451,-0.0458483,0.0299649,0.122649
0.0354465,0.229113,-2.43346,0.649581,0.4897,0.333982,-0.0402808,0.00253524,0.0954335
0.0433677,0.240178,-2.42799,0.43848,0.395801,0.206534,-0.0300857,-0.003122,0.0162809
0.0486911,0.248008,-2.42589,0.348567,0.153873,0.0370468,-0.0637689,0.02857,-0.0410688
0.0485139,0.25552,-2.42671,0.43998,-0.175287,-0.0744528,-0.0863185,0.0615866,-0.0907811
0.0450837,0.267064,-2.42921,0.724257,-0.167155,-0.0919055,-0.0863479,0.0269617,-0.0408704
0.0448782,0.283253,-2.43135,0.846924,0.125086,-0.037443,-0.0793302,-0.0209041,-0.00297356
0.0523762,0.299226,-2.43293,0.722937,0.584496,-0.0533427,-0.0701829,-0.0524784,0.0125735
0.0680476,0.311666,-2.43567,0.534519,0.833069,-0.135717,-0.0420295,-0.0465965,-0.0375919
0.0856407,0.321035,-2.43962,0.445189,0.755692,-0.148313,-0.0254103,-0.0139193,-0.0779752
0.0995057,0.329356,-2.44268,0.403315,0.515886,-0.043689,0.0122907,0.00437239,-0.0808145
0.107877,0.337299,-2.44252,0.377326,0.36135,0.143674,0.0481793,-0.00847709,-0.0624744
0.114571,0.344775,-2.43881,0.300614,0.435501,0.261844,0.0546993,0.00657907,-0.0157785
0.114571,0.344775,-2.43881,0.300614,0.435501,0.261844,0.0546993,0.00657907,-0.0157785
0.121305,0.349261,-2.43414,0.0661208,0.36664,0.197561,0.0787267,0.00373268,-0.0361356
0.125978,0.348002,-2.43139,-0.232798,0.180507,0.043586,0.10143,0.00343513,-0.0328633
0.126959,0.340152,-2.43087,-0.555851,-0.0928129,-0.0925811,0.115713,0.0100369,-0.0318937
0.122223,0.326432,-2.43215,-0.760449,-0.404232,-0.190616,0.138639,0.0239432,-0.0477276
0.112522,0.310655,-2.4349,-0.739563,-0.618071,-0.250478,0.135324,0.0610385,-0.0529416
0.100875,0.297505,-2.43893,-0.492403,-0.650901,-0.264293,0.118975,0.0930625,-0.0269541
0.0889823,0.290669,-2.44413,-0.142104,-0.665997,-0.297218,0.100669,0.0926999,-0.00151801
0.07874,0.290158,-2.45083,0.0957776,-0.513542,-0.338193,0.0907365,0.0941937,0.0651237
0.0709692,0.290083,-2.45803,-0.207563,-0.579524,-0.355523,0.0492405,0.111731,0.00709289
0.0682798,0.281881,-2.46275,-0.555044,0.329279,-0.106177,0.0120111,0.0341595,0.341749
0.0837406,0.268421,-2.45994,-0.789553,1.15956,0.2664,0.0528973,0.00083518,0.314679
0.106441,0.251368,-2.44957,-0.976866,1.27972,0.544524,0.0729411,0.0244558,0.236941
0.12641,0.233253,-2.43461,-0.929957,1.03026,0.654939,0.0787107,0.0280185,0.218163
0.140016,0.219589,-2.4198,-0.571021,0.634747,0.563028,0.0844041,0.0421234,0.201421
0.146057,0.214426,-2.40907,-0.0950001,0.195282,0.395382,0.0553349,0.0431551,0.208242
0.145439,0.216977,-2.4031,0.22552,-0.0675959,0.217605,0.0269432,0.0239944,0.221034
0.14366,0.222967,-2.40105,0.31332,0.00959155,0.0720668,0.0208695,0.0162899,0.228108
0.147312,0.229513,-2.4016,0.335186,0.303597,-0.0408867,0.00994673,-0.0369923,0.243519
0.154062,0.235425,-2.40487,0.285953,0.216257,-0.200475,0.00315426,-0.0325363,0.212607
0.151165,0.23832,-2.40999,0.031551,-0.833823,-0.159211,0.0432259,0.163606,0.0402597
0.12825,0.235748,-2.40767,-0.281498,-1.04637,0.442063,0.00904692,-0.0155596,0.1734
0.110235,0.231224,-2.38627,-0.373159,-0.0928508,1.51006,-0.166944,-0.193469,0.185053
0.112607,0.228259,-2.35042,-0.328473,0.913035,1.59622,0.00475752,-0.00447664,0.128629
0.127039,0.223522,-2.32982,-0.39621,0.931057,0.305277,0.19077,-0.031234,-0.0714926
0.140452,0.215428,-2.33065,-0.333998,0.299188,-0.380747,-0.0216886,-0.21786,-0.136281
0.1416,0.210348,-2.3417,0.030612,-0.379511,-0.722653,-0.000656679,-0.109056,-0.146148
0.133752,0.215021,-2.35839,0.679411,-0.642487,-0.766379,0.084042,-0.10081,-0.154007
0.125241,0.234255,-2.37541,1.37341,-0.75211,-0.656392,0.051258,-0.116881,-0.133716
0.109408,0.263733,-2.39291,1.6658,-1.21565,-0.668731,-0.0017311,-0.0648296,-0.114812
0.090453,0.290084,-2.40685,0.905132,-0.879078,-0.322511,-0.0631334,-0.12188,-0.0618414
0.0777464,0.30071,-2.40851,0.190933,-0.322675,0.205742,-0.0838416,-0.0804492,0.0201428
0.0740426,0.300149,-2.4018,-0.290595,0.0932113,0.350648,0.0125385,-0.0877913,-0.081535
0.0773708,0.29101,-2.39469,-0.638829,0.458929,0.249304,0.0212626,-0.0774293,-0.125646
0.088231,0.276709,-2.38877,-0.80375,0.752372,0.211345,0.0157145,-0.0786764,-0.143619
0.100973,0.260191,-2.38288,-0.863662,0.582396,0.180678,0.0357698,-0.0668923,-0.206382
0.106925,0.244152,-2.37917,-0.729212,0.0789677,-0.0209674,0.0883838,-0.0300408,-0.233975
0.103006,0.231291,-2.38094,-0.532918,-0.488824,-0.273322,0.0674858,0.00203103,-0.267964
0.0911833,0.221266,-2.38737,-0.41385,-0.752916,-0.432758,0.0196682,0.0224735,-0.252599
0.0806951,0.213049,-2.39647,-0.334244,-0.416052,-0.49783,0.0050315,0.0605012,-0.158846
0.0790658,0.205717,-2.40567,-0.344847,0.021774,-0.429258,0.0198499,0.0886834,-0.109455
0.0832134,0.197303,-2.41204,-0.464778,0.216374,-0.260054,0.027504,0.0869559,-0.0996376
0.086423,0.185124,-2.41582,-0.725831,-0.0351127,-0.248932,0.0155165,0.140215,-0.172671
0.0835885,0.169342,-2.42071,-0.720966,-0.281407,-0.356156,0.0186094,0.176407,-0.211456
0.0797919,0.158374,-2.42724,-0.261218,-0.150273,-0.336919,-0.00142395,0.18942,-0.150453
0.0797922,0.159202,-2.43196,0.374027,0.0363778,-0.0872168,-0.0235695,0.155937,-0.0434516
0.0807118,0.172087,-2.43155,0.852658,0.0247893,0.220429,-0.0243338,0.100011,0.0739411
0.0780657,0.191662,-2.42635,0.989214,-0.211295,0.422832,-0.0156911,0.0888825,0.17392
0.069805,0.210948,-2.41763,0.823644,-0.419939,0.570175,-0.0104171,0.0994021,0.255679
0.069805,0.210948,-2.41763,0.823644,-0.419939,0.570175,-0.0104171,0.0994021,0.255679
0.0578411,0.225483,-2.40492,0.548874,-0.471423,0.75743,-0.0189462,0.121969,0.290836
0.0451713,0.235781,-2.38813,0.420295,-0.38673,0.908068,-0.052421,0.133657,0.310406
0.0347311,0.245722,-2.36888,0.525849,-0.197447,0.970068,-0.06281,0.124559,0.337297
0.0266346,0.258901,-2.34943,0.729872,-0.164609,0.937974,-0.0366387,0.0959841,0.345647
0.0174264,0.275238,-2.3308,0.817872,-0.248014,0.870449,-0.0151827,0.0276962,0.351176
0.0073533,0.290488,-2.3145,0.63966,-0.289204,0.691897,0.000477433,-0.0238216,0.348657
-0.0013589,0.299989,-2.3027,0.290167,-0.202334,0.425441,-0.0160663,-0.0735237,0.312105
-0.00554125,0.301817,-2.29685,-0.102573,-0.0625372,0.141677,-0.0157664,-0.100144,0.25709
-0.00701546,0.297125,-2.29612,-0.314003,-0.082418,-0.0521949,0.0234927,-0.13864,0.129117
-0.00869524,0.291222,-2.29796,-0.24443,-0.140253,-0.092137,0.034742,-0.14261,0.0515311
-0.0116813,0.287971,-2.29927,-0.0792149,-0.185999,-0.0179744,0.0242158,-0.144841,0.00639457
-0.0154334,0.287606,-2.29881,0.0269644,-0.170372,0.0539923,0.00514013,-0.144855,0.0039624
-0.0192067,0.287965,-2.29738,-0.0147747,-0.18006,0.0732017,-0.0121028,-0.140834,-0.00761575
-0.0236769,0.286205,-2.29585,-0.151618,-0.181586,0.086161,-0.0251399,-0.146092,-0.00727051
-0.0274963,0.282003,-2.29351,-0.242122,-0.139072,0.153061,-0.0515503,-0.141001,-0.0363842
-0.0291651,0.27801,-2.28927,-0.115704,0.115683,0.260376,-0.077992,-0.142931,-0.016558
-0.0257542,0.278282,-2.28308,0.160564,0.392765,0.320296,-0.0854688,-0.124237,-0.017855
-0.0178768,0.283765,-2.27637,0.369722,0.539953,0.290358,-0.0515035,-0.123867,0.00457829
-0.00854065,0.291545,-2.27157,0.370812,0.514126,0.146673,-0.00108191,-0.126325,0.0296043
0.00114051,0.29741,-2.27036,0.1943,0.496941,-0.0323881,0.036553,-0.132767,0.0504737
0.0119137,0.298854,-2.27257,-0.0465182,0.504594,-0.154855,0.068937,-0.121743,0.0443977
0.0227125,0.296403,-2.27543,-0.163537,0.480412,-0.0930878,0.0818717,-0.109652,0.0100255
0.0324745,0.294213,-2.27525,-0.00858599,0.531398,0.130087,0.0857477,-0.104392,-0.00758511
0.0431694,0.297338,-2.26933,0.271618,0.674485,0.438496,0.0755895,-0.1148,0.0241684
0.0524786,0.302933,-2.25868,0.178422,0.540788,0.564271,0.071516,-0.0943491,-0.0113563
0.0589476,0.304527,-2.24709,-0.0917344,0.474096,0.51737,0.0917007,-0.133919,-0.0159604
0.0653068,0.300582,-2.23738,-0.330258,0.445017,0.382084,0.0986153,-0.0996452,-0.0580413
0.0721646,0.294487,-2.2292,-0.273254,0.514503,0.377499,0.0675986,-0.0551796,-0.0785137
0.0816442,0.292518,-2.22,0.0278017,0.686518,0.500492,0.0526329,-0.0107234,-0.0569144
0.0933369,0.297635,-2.20814,0.37084,0.823413,0.667295,0.079918,-0.00604075,-0.0179163
0.106506,0.308677,-2.19403,0.552563,0.869791,0.761957,0.102974,0.00562689,0.0396532
0.118543,0.32119,-2.17926,0.494042,0.767555,0.751675,0.12791,0.00920817,0.0764176
0.128034,0.330753,-2.1654,0.26972,0.627026,0.644091,0.14805,0.0218841,0.0965495
0.135716,0.335161,-2.1544,0.0484265,0.480216,0.442557,0.17623,0.0414147,0.100942
0.141104,0.336305,-2.14614,-0.026779,0.311199,0.376645,0.168206,0.0277096,0.0976081
0.141851,0.33615,-2.13727,-0.113068,0.062293,0.454717,0.145788,0.0309965,0.0844674
0.137916,0.333919,-2.1263,-0.261197,-0.0705874,0.520326,0.11186,0.0515333,0.0917087
0.133184,0.328371,-2.1144,-0.437194,0.0344489,0.49965,0.0571045,0.0799779,0.0956876
0.133293,0.319639,-2.10314,-0.537617,0.351165,0.437665,0.0195997,0.0948335,0.0816137
0.13986,0.310433,-2.09236,-0.495953,0.595516,0.463669,0.00838715,0.090536,0.0607777
0.148638,0.303117,-2.08061,-0.372673,0.598127,0.548785,0.017901,0.0857436,0.0361111
0.155293,0.299148,-2.06686,-0.219196,0.454342,0.682924,0.00242218,0.0651068,0.0384796
0.157796,0.298493,-2.05122,-0.0841402,0.26401,0.757546,-0.0101786,0.0359468,0.0465064
0.157916,0.300282,-2.03572,0.0242558,0.220587,0.708607,-0.0322884,0.0162333,0.0774155
0.158557,0.303522,-2.02238,0.0802273,0.25232,0.593805,-0.0368153,-0.00195965,0.0866065
0.160557,0.306757,-2.01134,0.0766143,0.26755,0.496072,-0.0303808,-0.0296048,0.0743727
0.162279,0.309768,-2.00222,0.080161,0.168179,0.410004,-0.0273056,-0.0297724,0.0489765
0.162705,0.312708,-1.99459,0.0980516,0.133002,0.354307,-0.0326263,-0.0350607,0.0387602
0.162705,0.312708,-1.99459,0.0980516,0.133002,0.354307,-0.0326263,-0.0350607,0.0387602
0.163898,0.316469,-1.98862,0.176069,0.12661,0.248547,-0.0288108,-0.0240223,0.0285316
0.163484,0.320513,-1.98538,0.137602,-0.0594193,0.11632,-0.0286292,-0.0311686,-0.0301335
0.162267,0.321797,-1.98442,-0.0234807,0.0303197,-0.0069969,-0.0479006,-0.035046,-0.0259823
0.165481,0.318852,-1.98559,-0.26037,0.285126,-0.159017,-0.0596829,-0.0127253,-0.0604925
0.175949,0.31114,-1.98872,-0.405744,0.6333,-0.231077,-0.0399592,-0.00432611,-0.0703879
0.189569,0.302677,-1.99082,-0.362906,0.593172,-0.0947045,-0.000212282,-0.0471534,-0.124555
