attitude_roll,attitude_pitch,attitude_yaw,rotationRate_x,rotationRate_y,rotationRate_z,acceleration_x,acceleration_y,acceleration_z
0.10605,0.309529,-0.0165602,-0.235898,0.0384866,0.67017,0.0571379,-0.00764579,-0.0827354
0.0996363,0.307748,-0.00242284,-0.0670938,-0.202171,0.660824,0.0741013,-0.00278133,-0.0746576
0.0921432,0.310014,0.0107114,0.161415,-0.131807,0.599638,0.0263719,-0.005124,-0.111144
0.0875112,0.315168,0.0218112,0.223177,0.0170109,0.504444,0.00941944,-0.0141659,-0.0737222
0.0868054,0.319399,0.0310995,0.109014,0.190796,0.417209,0.00853909,-0.0232686,-0.0155459
0.0890507,0.320729,0.039008,-0.0380259,0.275459,0.35028,0.0245498,-0.0175355,0.0290162
0.0927659,0.319409,0.0462623,-0.152358,0.29997,0.331012,0.0423319,-0.0151114,0.042919
0.0955218,0.316152,0.0537108,-0.230138,0.206619,0.35331,0.0502042,-0.0035719,0.0507508
0.0960301,0.312081,0.0619596,-0.239947,0.0935609,0.387395,0.0616115,-0.0172703,0.0304264
0.0942415,0.308474,0.0705204,-0.196004,-0.00294771,0.390105,0.0482182,-0.0228722,0.00830823
0.0912134,0.305622,0.0792725,-0.17123,-0.0362507,0.415715,0.0504173,-0.0244461,-0.00359732
0.0876939,0.30326,0.0881951,-0.13562,-0.0420843,0.408962,0.0457179,-0.0331846,-0.0264111
0.0847334,0.301802,0.0966995,-0.0854113,-0.00246145,0.397107,0.0425604,-0.0274502,-0.0475094
0.0825303,0.300769,0.105485,-0.097841,0.0341861,0.445856,0.0534356,-0.0142007,-0.0345616
0.0804173,0.299706,0.115522,-0.0730477,0.0562676,0.4946,0.0463428,-0.0205413,-0.0369374
0.0784893,0.299988,0.125942,0.0302566,0.0427313,0.501465,0.0395949,-0.0317616,-0.0335479
0.0765493,0.302506,0.136019,0.136673,0.0621175,0.480991,0.032131,-0.0380545,-0.0112001
0.0745376,0.306194,0.145753,0.148038,0.00682377,0.4761,0.0445651,-0.0387174,0.0440868
0.0710578,0.309381,0.155485,0.0961826,-0.0701832,0.471934,0.0506284,-0.0459642,0.0816187
0.0655282,0.31117,0.165104,0.0155504,-0.19475,0.457074,0.0396379,-0.0440772,0.0951812
0.0578371,0.311337,0.174402,-0.049461,-0.284119,0.431552,0.031522,-0.0522039,0.0806279
0.0494165,0.310721,0.183017,-0.0450732,-0.281912,0.385077,0.01199,-0.0558881,0.0409322
0.0415935,0.310545,0.190606,-0.00589637,-0.289126,0.349015,0.0114786,-0.0492502,0.0273324
0.0332414,0.311182,0.197837,0.0442009,-0.332611,0.350768,0.0260392,-0.046324,0.0333707
0.0239582,0.312681,0.205,0.0843491,-0.381718,0.330173,0.0113701,-0.0431281,0.0298526
0.0138585,0.314657,0.211393,0.0981601,-0.440287,0.2815,0.0125486,-0.0448495,0.0359249
0.00295122,0.316499,0.216766,0.0822743,-0.478812,0.232687,0.0249053,-0.0395119,0.0450532
-0.00787393,0.317936,0.221226,0.0583233,-0.456909,0.194592,0.0363946,-0.0266728,0.0496
-0.0174734,0.318459,0.224837,-0.00886842,-0.381823,0.149478,0.0361862,-0.0109017,0.0590711
-0.0244324,0.317221,0.227464,-0.118207,-0.23417,0.107615,0.0320459,-0.00211391,0.0621882
-0.0287333,0.313561,0.229359,-0.245713,-0.152056,0.0929165,0.0411377,0.000678122,0.0721408
-0.0323675,0.307407,0.231122,-0.366434,-0.173914,0.0953515,0.0573645,-0.00928652,0.0728158
-0.0366653,0.298488,0.232341,-0.535991,-0.222237,0.046529,0.0534535,-0.0320052,0.0527504
-0.0415639,0.285822,0.2319,-0.731775,-0.293946,-0.0419305,0.0202891,-0.0514427,0.00877237
-0.0480374,0.269691,0.229135,-0.883553,-0.446369,-0.153852,-0.0237241,-0.0467991,-0.059338
-0.0568538,0.251765,0.223599,-0.921714,-0.557335,-0.289085,-0.0462561,-0.0537272,-0.154032
-0.0655469,0.234459,0.215307,-0.841895,-0.492343,-0.395151,-0.0408148,-0.0522901,-0.249267
-0.0712958,0.22004,0.206083,-0.651495,-0.273778,-0.384858,-0.0193494,-0.0232172,-0.303721
-0.0724208,0.210117,0.198359,-0.390853,-0.0157377,-0.287399,-0.0201457,0.0111863,-0.290151
-0.069747,0.20546,0.193115,-0.11818,0.160726,-0.200014,-0.0390752,0.028068,-0.219504
-0.064645,0.205623,0.189672,0.10337,0.270321,-0.143872,-0.0650721,0.0334619,-0.112039
-0.0585547,0.209436,0.187315,0.24872,0.261596,-0.112965,-0.09414,0.0403668,-0.00147909
-0.0543684,0.215073,0.18558,0.293403,0.0911861,-0.0905136,-0.119853,0.0543158,0.0824507
-0.055476,0.22069,0.184021,0.250269,-0.240483,-0.10109,-0.16068,0.0683295,0.120486
-0.0621793,0.224979,0.181565,0.158291,-0.449948,-0.177347,-0.206074,0.0666835,0.110519
-0.0704143,0.227258,0.1764,0.0328931,-0.472796,-0.354622,-0.268382,0.0816608,0.0879471
-0.0768352,0.227443,0.167124,-0.0813197,-0.353232,-0.548297,-0.275208,0.0982591,0.0699894
-0.0786811,0.225704,0.15395,-0.197312,-0.131462,-0.710916,-0.240212,0.111305,0.0828276
-0.0760663,0.221839,0.138271,-0.300665,0.0291378,-0.770783,-0.164868,0.123634,0.127642
-0.0714607,0.216393,0.122567,-0.351048,0.0668573,-0.706469,-0.0875834,0.128801,0.173465
-0.067865,0.209915,0.109012,-0.390961,-0.00177267,-0.568391,-0.038824,0.122669,0.214506
-0.067865,0.209915,0.109012,-0.390961,-0.00177267,-0.568391,-0.038824,0.122669,0.214506
-0.067007,0.202311,0.0982258,-0.444463,-0.141732,-0.447149,-0.0204073,0.0878506,0.239278
-0.0691001,0.193937,0.0889819,-0.446637,-0.227092,-0.414818,-0.0278303,0.0447134,0.210662
-0.0724066,0.18557,0.0799943,-0.459269,-0.289609,-0.411415,-0.019597,0.0137455,0.197694
-0.0767457,0.176834,0.0710337,-0.487252,-0.297944,-0.40321,0.000935525,-0.0121663,0.181413
-0.0812955,0.166924,0.0622333,-0.585298,-0.308848,-0.386242,0.0285788,-0.0332821,0.173365
-0.0852977,0.154331,0.0531208,-0.760659,-0.219966,-0.419651,0.0535573,-0.0712714,0.141581
-0.0870926,0.138039,0.042689,-0.959899,-0.110161,-0.470392,0.0944101,-0.115542,0.0909665
-0.0866785,0.118079,0.0315273,-1.11068,-0.00248959,-0.44596,0.162902,-0.131722,0.0180563
-0.0845897,0.0964635,0.0219452,-1.10418,0.110123,-0.307006,0.226247,-0.125213,-0.0877672
-0.0805017,0.0761281,0.0155775,-0.968723,0.23964,-0.157817,0.256558,-0.124858,-0.180686
-0.0749062,0.0587295,0.0125878,-0.798507,0.287001,-0.00758993,0.280396,-0.151067,-0.237067
-0.069018,0.0445237,0.0128419,-0.618566,0.305235,0.133359,0.303819,-0.176377,-0.276487
-0.0625916,0.0338125,0.0162211,-0.434363,0.353811,0.276342,0.323288,-0.191261,-0.304729
-0.0553278,0.0262285,0.0230687,-0.29398,0.398317,0.447655,0.328092,-0.19965,-0.316296
-0.0474104,0.0203972,0.0329151,-0.26542,0.399498,0.557019,0.291325,-0.213735,-0.314564
-0.0406981,0.0135241,0.04414,-0.39101,0.271705,0.587204,0.253787,-0.250255,-0.318882
-0.0374315,0.00397044,0.0553963,-0.507896,0.0618185,0.573632,0.24215,-0.272412,-0.376929
-0.0373284,-0.00636995,0.0664875,-0.466054,-0.0101712,0.582831,0.20483,-0.229301,-0.499237
-0.0362217,-0.0149562,0.0779214,-0.35211,0.135032,0.599331,0.145035,-0.151995,-0.595845
-0.0302319,-0.0206,0.0908685,-0.136413,0.466849,0.762535,0.179589,-0.0940543,-0.644178
-0.0166367,-0.0189974,0.109866,0.391482,0.847359,1.17611,0.238007,-0.00544636,-0.657881
0.00321102,-0.0042983,0.138942,1.10177,1.04982,1.74929,0.226159,0.109609,-0.549117
0.0223085,0.0242671,0.179144,1.67146,0.843268,2.2905,0.127831,0.178379,-0.346811
0.0326773,0.0624133,0.226429,1.97412,0.37518,2.48406,-0.0290221,0.153239,-0.180016
0.0315877,0.104207,0.272991,2.02993,-0.0621505,2.25773,-0.148736,0.0873557,-0.0942844
0.0238296,0.144655,0.313067,1.89577,-0.164884,1.83162,-0.209766,0.06682,-0.0603774
0.0167964,0.180949,0.34526,1.68361,0.0222764,1.45605,-0.20454,0.119997,-0.0400403
0.0152833,0.213242,0.371969,1.53295,0.338841,1.24846,-0.129194,0.174902,-0.00871092
0.0183389,0.243377,0.396131,1.46512,0.476757,1.18008,-0.0538234,0.224105,0.0650015
0.0214759,0.272901,0.419883,1.45704,0.434904,1.18884,-0.00967798,0.26266,0.15259
0.0224494,0.302442,0.444136,1.45463,0.351308,1.20524,0.0112862,0.280884,0.237498
0.0210014,0.331949,0.468588,1.45057,0.265707,1.18487,0.0181256,0.287816,0.315501
0.0173628,0.36097,0.492496,1.41113,0.199853,1.11643,0.0332412,0.284594,0.374577
0.0135046,0.388574,0.514646,1.31417,0.230954,0.994286,0.0455928,0.282006,0.413159
0.0106022,0.413407,0.534419,1.14882,0.266497,0.865948,0.0560413,0.303618,0.44163
0.0101888,0.434513,0.551958,0.935979,0.422995,0.771817,0.0624897,0.351663,0.450622
0.0127778,0.450606,0.568526,0.653623,0.544345,0.752791,0.0942414,0.373011,0.460062
0.0172964,0.46072,0.584937,0.344488,0.621022,0.741778,0.0989335,0.382413,0.435104
0.0223173,0.465199,0.601281,0.086377,0.598088,0.733284,0.0857842,0.369896,0.365952
0.0266168,0.465153,0.617062,-0.124352,0.531164,0.668658,0.0693231,0.325116,0.268543
0.0294982,0.460728,0.631042,-0.362388,0.368677,0.573511,0.0570318,0.282812,0.167541
0.02896,0.45106,0.643191,-0.656041,0.0815568,0.493902,0.0480215,0.241767,0.0798146
0.021291,0.433637,0.653202,-1.14986,-0.460545,0.353081,-0.0293286,0.214363,-0.00691611
0.00377993,0.40502,0.658693,-1.7043,-1.04449,0.089034,-0.117457,0.114253,-0.182643
-0.0193224,0.368155,0.656265,-1.93038,-1.28307,-0.297448,-0.166483,0.01352,-0.477917
-0.038111,0.33108,0.645668,-1.76601,-0.847392,-0.54141,-0.225488,0.0448671,-0.762423
-0.0421466,0.299339,0.63343,-1.47187,0.0616061,-0.463625,-0.246513,0.0690585,-0.84828
-0.0310835,0.272305,0.623779,-1.29671,0.684507,-0.392846,-0.301671,0.0206304,-0.71732
-0.0139021,0.247504,0.613859,-1.22507,0.69872,-0.551258,-0.319698,-0.138331,-0.528812
0.000926256,0.223505,0.598665,-1.19087,0.418543,-0.946943,-0.372836,-0.227234,-0.409579
0.0119013,0.200584,0.574929,-1.05836,0.236459,-1.37099,-0.36234,-0.249748,-0.379509
0.0119013,0.200584,0.574929,-1.05836,0.236459,-1.37099,-0.36234,-0.249748,-0.379509
0.0231759,0.182204,0.545257,-0.704602,0.349225,-1.535,-0.296533,-0.169892,-0.377291
0.0367486,0.171908,0.515622,-0.238913,0.47274,-1.37607,-0.236455,-0.0429271,-0.294366
0.0504888,0.170569,0.491232,0.1999,0.455606,-1.02932,-0.216681,0.0445751,-0.168187
0.0606012,0.17742,0.473048,0.569422,0.2065,-0.75883,-0.268277,0.0594257,-0.0441923
0.0634409,0.19064,0.457327,0.828776,-0.222819,-0.744867,-0.352289,0.0275459,0.0590247
0.0587623,0.207067,0.439169,0.889834,-0.56596,-0.958136,-0.417307,0.00585273,0.151418
0.0515094,0.222515,0.415845,0.763255,-0.622131,-1.23867,-0.438004,0.0367238,0.230201
0.0467445,0.234519,0.387408,0.578514,-0.486104,-1.47039,-0.401878,0.0917041,0.291495
0.0467039,0.242962,0.355085,0.417715,-0.289068,-1.6244,-0.336835,0.137674,0.356336
0.0505051,0.248535,0.320636,0.314312,-0.195648,-1.68324,-0.268705,0.173109,0.420614
0.0548593,0.252669,0.285825,0.286536,-0.257722,-1.66533,-0.208319,0.197255,0.478526
0.0562588,0.25661,0.251714,0.296882,-0.483352,-1.6127,-0.15328,0.213428,0.524213
0.0519926,0.261107,0.218995,0.329585,-0.77764,-1.52683,-0.104575,0.226031,0.545045
0.0419526,0.266642,0.188092,0.360097,-1.01616,-1.43875,-0.0702281,0.243429,0.541876
0.0278743,0.27255,0.158944,0.312028,-1.1547,-1.36163,-0.0443132,0.256493,0.537039
0.0115468,0.276818,0.131095,0.152904,-1.24022,-1.31797,0.000733852,0.247325,0.520154
-0.00605895,0.277705,0.103846,-0.0698836,-1.26441,-1.32059,0.0162638,0.230708,0.456283
-0.0240406,0.274084,0.0761371,-0.343357,-1.30994,-1.34257,0.069543,0.192983,0.358666
-0.043002,0.264828,0.0482411,-0.693734,-1.31833,-1.3243,0.135408,0.139184,0.228696
-0.0610569,0.248215,0.0199704,-1.12191,-1.18813,-1.32973,0.174856,0.0733413,0.0682237
-0.0755545,0.223361,-0.00926441,-1.55551,-0.949811,-1.34972,0.163955,0.025204,-0.118307
-0.086811,0.191243,-0.0399983,-1.87196,-0.863471,-1.39167,0.179527,-0.0490568,-0.312684
-0.0995327,0.155845,-0.0715227,-1.89692,-0.953087,-1.36202,0.257771,-0.114133,-0.534068
-0.113554,0.123934,-0.100877,-1.54606,-0.787392,-1.17237,0.339003,-0.133478,-0.7631
-0.121684,0.100419,-0.123966,-1.07208,-0.251256,-0.811108,0.414916,-0.146011,-0.882665
-0.119089,0.0845661,-0.137691,-0.699184,0.374474,-0.352852,0.46137,-0.17855,-0.859615
-0.107699,0.0732775,-0.141809,-0.504496,0.656108,0.0548337,0.448725,-0.219528,-0.726769
-0.0948505,0.0640435,-0.138535,-0.377769,0.636906,0.342815,0.402101,-0.283382,-0.620626
-0.0830682,0.0576289,-0.130669,-0.179861,0.596376,0.487907,0.325221,-0.308934,-0.589423
-0.0714426,0.0560829,-0.119471,0.131433,0.665551,0.65562,0.301159,-0.269676,-0.559249
-0.0565803,0.0618553,-0.10351,0.558696,0.946891,0.919629,0.294006,-0.18527,-0.491943
-0.0357585,0.0762193,-0.0808333,0.97069,1.30123,1.29598,0.28258,-0.0774646,-0.325394
-0.0101682,0.0978461,-0.0504218,1.24042,1.47219,1.6852,0.254138,-0.0190854,-0.106733
0.0128478,0.123623,-0.013576,1.31514,1.16415,1.97525,0.205116,-0.00477344,0.0899274
0.024169,0.150673,0.0275571,1.32447,0.521331,2.14726,0.154421,0.00314644,0.168313
0.0219616,0.178898,0.0708441,1.41153,0.026459,2.18386,0.0637636,0.0326211,0.107353
0.0123101,0.208575,0.114231,1.47209,-0.113953,2.13061,-0.0231056,0.0944101,0.0349545
0.00102918,0.238092,0.156507,1.46276,-0.0563068,2.01067,-0.0708702,0.130533,-0.00637549
-0.00842423,0.266869,0.195844,1.43224,0.100101,1.7916,-0.0864023,0.156245,-0.0146201
-0.0151048,0.294315,0.231477,1.35552,0.206069,1.62964,-0.0563003,0.204986,0.024885
-0.0204704,0.31992,0.265445,1.27256,0.280315,1.58512,-0.00751662,0.265587,0.0788986
-0.025241,0.343795,0.299141,1.19088,0.342429,1.54472,0.0239445,0.288433,0.137273
-0.0291983,0.365176,0.331391,1.02207,0.384465,1.41793,0.0318925,0.275189,0.215905
-0.0315691,0.38245,0.360432,0.779972,0.44198,1.23164,0.0557269,0.242503,0.285506
-0.0318584,0.394543,0.38507,0.507987,0.454593,1.02063,0.0887473,0.22655,0.338704
-0.0310261,0.401667,0.405748,0.27802,0.427213,0.881438,0.142017,0.23368,0.367813
-0.0302781,0.405155,0.424491,0.141532,0.373798,0.844705,0.189581,0.253262,0.364955
-0.0311826,0.40686,0.443263,0.0940275,0.279743,0.894476,0.230811,0.273642,0.348769
-0.0343175,0.407964,0.4639,0.0749968,0.238498,1.00398,0.264436,0.281949,0.330919
-0.0385526,0.408428,0.486754,0.0496492,0.242471,1.08791,0.2699,0.260967,0.289791
-0.0385526,0.408428,0.486754,0.0496492,0.242471,1.08791,0.2699,0.260967,0.289791
-0.0424132,0.408597,0.510377,0.0505227,0.331044,1.07243,0.247147,0.22621,0.216521
-0.0436122,0.408239,0.532698,-0.0106118,0.426043,0.985726,0.243934,0.194006,0.165026
-0.0421475,0.406252,0.553473,-0.112173,0.572367,0.941795,0.277612,0.16322,0.103691
-0.0364701,0.40171,0.573557,-0.286603,0.788951,0.926849,0.270467,0.163805,0.0534791
-0.0274103,0.393045,0.593365,-0.523227,0.859958,0.929183,0.248309,0.129219,0.0119622
-0.0186929,0.379944,0.612273,-0.751419,0.682002,0.828258,0.193018,0.0533328,-0.0587204
-0.0147396,0.362176,0.627457,-1.00585,0.255744,0.610788,0.142292,-0.0124655,-0.16176
-0.0172705,0.339889,0.637828,-1.19359,-0.13696,0.411257,0.10637,-0.0463627,-0.333564
-0.0238182,0.316066,0.644329,-1.13727,-0.226358,0.269981,0.0670241,-0.0465465,-0.574706
-0.0260362,0.295898,0.648853,-0.858691,0.203655,0.240063,-0.0175633,-0.0105556,-0.76467
-0.0171999,0.281309,0.653909,-0.621729,0.809553,0.277054,-0.0997184,0.00646472,-0.777807
0.00102543,0.269416,0.658791,-0.601456,1.06421,0.171191,-0.188122,-0.0433103,-0.619723
0.0208851,0.256237,0.659951,-0.724902,0.92423,-0.08845,-0.241683,-0.12522,-0.472695
0.0387776,0.24115,0.65558,-0.746931,0.802196,-0.370514,-0.297595,-0.128368,-0.435199
0.0571153,0.227286,0.647076,-0.573527,0.866517,-0.490041,-0.311033,-0.0576857,-0.41778
0.0780667,0.218466,0.638233,-0.228838,1.04882,-0.401472,-0.29052,0.0437285,-0.343423
0.10173,0.217345,0.632351,0.162793,1.16612,-0.164448,-0.285979,0.130784,-0.195659
0.12397,0.223703,0.631079,0.461752,0.991473,0.103793,-0.315076,0.158503,-0.0127472
0.138846,0.23498,0.633471,0.600615,0.513666,0.256677,-0.372985,0.136236,0.153589
0.141487,0.24752,0.637248,0.572168,-0.170269,0.258046,-0.429916,0.107427,0.253979
0.131295,0.25836,0.639522,0.468158,-0.750753,0.0867217,-0.476777,0.084185,0.271981
0.113883,0.266451,0.637455,0.362736,-0.99442,-0.202911,-0.510766,0.0893746,0.237942
0.0969676,0.272039,0.628885,0.284788,-0.875219,-0.566799,-0.503961,0.105015,0.219793
0.0871351,0.275778,0.613133,0.227967,-0.516559,-0.90384,-0.454708,0.124957,0.234778
0.086691,0.278147,0.591505,0.194434,-0.141962,-1.13094,-0.375537,0.160378,0.296379
0.0925664,0.279671,0.566571,0.176693,-0.011635,-1.23384,-0.2862,0.182732,0.391327
0.0981192,0.280733,0.540665,0.1707,-0.183734,-1.2279,-0.205424,0.190223,0.467934
0.0980323,0.281855,0.515546,0.180457,-0.534674,-1.16602,-0.134083,0.178529,0.494351
0.0905147,0.283441,0.492049,0.19372,-0.859623,-1.07416,-0.0928879,0.171812,0.475181
0.0766569,0.285456,0.470356,0.183367,-1.14384,-0.993886,-0.062878,0.161707,0.414739
0.0567751,0.287593,0.450106,0.151297,-1.40584,-0.944889,-0.0262768,0.13864,0.329607
0.0327371,0.288646,0.430225,0.0254413,-1.567,-0.971717,-0.00569662,0.109591,0.233126
0.00673184,0.286426,0.409138,-0.234028,-1.6103,-1.07449,0.00587156,0.0832613,0.12887
-0.0177714,0.278311,0.385095,-0.603678,-1.49875,-1.24622,-0.021457,0.0634587,0.00716066
-0.0376131,0.263615,0.356684,-0.920979,-1.23216,-1.46187,-0.0134385,0.0254349,-0.122295
-0.0491772,0.245326,0.323628,-1.01405,-0.723991,-1.64875,0.00923339,0.0218644,-0.262148
-0.0488807,0.227864,0.288329,-0.874853,-0.072707,-1.66336,0.0566009,0.060904,-0.322453
-0.0376351,0.214497,0.255393,-0.600591,0.431764,-1.47412,0.134649,0.0908468,-0.263354
-0.0210452,0.205751,0.22793,-0.374131,0.601951,-1.18293,0.194458,0.076266,-0.101524
-0.00490109,0.200073,0.206847,-0.232946,0.575101,-0.885552,0.207196,0.0219219,0.034209
0.00805377,0.196339,0.191463,-0.142238,0.386344,-0.63795,0.178792,-0.0222358,0.126508
0.0152451,0.194053,0.18031,-0.0832046,0.122339,-0.471897,0.141048,-0.0722837,0.154456
0.0167549,0.191967,0.171714,-0.126834,-0.122134,-0.390795,0.122943,-0.137808,0.150713
0.0143215,0.188127,0.163724,-0.26066,-0.255823,-0.422296,0.0950167,-0.205162,0.0993361
0.0105277,0.180628,0.154046,-0.485279,-0.289961,-0.554017,0.0745742,-0.263834,0.0206792
0.00732377,0.168669,0.141328,-0.693618,-0.247013,-0.708735,0.075727,-0.30091,-0.106045
0.00510435,0.15291,0.125771,-0.873884,-0.258779,-0.834055,0.0797025,-0.304579,-0.236794
0.000390719,0.134578,0.10858,-0.91303,-0.465898,-0.857587,0.140467,-0.313185,-0.398126
-0.00743599,0.119184,0.0924447,-0.584183,-0.489947,-0.708989,0.203703,-0.277323,-0.619914
-0.0147308,0.112632,0.0815946,-0.0822189,-0.341665,-0.337329,0.235126,-0.195544,-0.734594
-0.0190886,0.115189,0.0792457,0.299582,-0.121566,0.0888888,0.230646,-0.171839,-0.713153
-0.0190886,0.115189,0.0792457,0.299582,-0.121566,0.0888888,0.230646,-0.171839,-0.713153
-0.020183,0.122748,0.084017,0.423953,0.0590887,0.330135,0.152278,-0.192883,-0.618917
-0.0182411,0.130622,0.091393,0.367502,0.23342,0.356529,0.062152,-0.221907,-0.5161
-0.0115987,0.137346,0.0978131,0.331717,0.545739,0.26847,0.000869121,-0.203311,-0.447442
0.00287056,0.144516,0.102821,0.411881,0.979029,0.25279,0.0138372,-0.129165,-0.348624
0.0252937,0.154547,0.109162,0.600206,1.34097,0.42806,0.0692487,-0.0285172,-0.191724
0.0521618,0.169274,0.120871,0.835329,1.49962,0.818102,0.118376,0.0713299,-0.00905687
0.0771962,0.189606,0.141036,1.06574,1.32329,1.30235,0.116447,0.129635,0.155927
0.0931174,0.215203,0.169742,1.23185,0.802995,1.70435,0.0821508,0.140441,0.287077
0.0935346,0.243502,0.204834,1.24708,0.0155708,1.94802,0.033823,0.125212,0.369532
0.0761798,0.270674,0.243165,1.13599,-0.739901,1.951,-0.0152298,0.0769053,0.37083
0.0467838,0.293648,0.280107,0.932019,-1.11052,1.71195,-0.0878557,0.0421009,0.300477
0.0154083,0.310787,0.311321,0.697021,-1.04268,1.31987,-0.126196,0.0322025,0.194275
-0.00898785,0.323145,0.334686,0.553946,-0.617645,0.920469,-0.0954203,0.0405423,0.0948249
-0.0202793,0.333396,0.351064,0.504857,0.00642701,0.653251,-0.0174445,0.0908648,0.0664768
-0.0203054,0.342878,0.364473,0.474185,0.39312,0.626715,0.0888242,0.156878,0.132774
-0.0157372,0.352012,0.378841,0.461255,0.530308,0.712661,0.159669,0.187851,0.212933
-0.0109315,0.360861,0.394937,0.450263,0.490505,0.789944,0.181873,0.194389,0.274649
-0.00899457,0.369747,0.412377,0.462843,0.312057,0.82187,0.18812,0.185064,0.314171
-0.0112835,0.378742,0.429988,0.443092,0.106316,0.812783,0.193437,0.184724,0.338083
-0.0175276,0.386585,0.447552,0.352484,-0.0662389,0.817491,0.216551,0.190169,0.347614
-0.0265056,0.39198,0.465218,0.215583,-0.14034,0.806014,0.228426,0.196732,0.319414
-0.0353672,0.394089,0.482345,0.0353652,-0.0808823,0.777948,0.232128,0.200664,0.267572
-0.0423097,0.392048,0.499003,-0.172431,0.0354894,0.775314,0.248347,0.20096,0.209282
-0.0465533,0.386254,0.515169,-0.336445,0.128393,0.745653,0.25609,0.183896,0.142715
-0.0496212,0.377483,0.53033,-0.469073,0.125809,0.710134,0.27557,0.158392,0.0773309
-0.0524988,0.366449,0.544662,-0.561067,0.111648,0.689285,0.300776,0.147991,-0.00853783
-0.0545903,0.354099,0.558875,-0.590985,0.214094,0.718865,0.325272,0.143788,-0.116401
-0.0533311,0.341587,0.574255,-0.578234,0.453832,0.80709,0.336817,0.148047,-0.196231
-0.0471853,0.329615,0.592151,-0.525779,0.75403,0.958318,0.341916,0.137354,-0.244232
-0.0368027,0.319154,0.613728,-0.422912,0.960639,1.13686,0.318139,0.121411,-0.262216
-0.0242364,0.311457,0.638955,-0.276174,1.06906,1.29269,0.261334,0.100544,-0.254858
-0.011041,0.306709,0.667492,-0.158417,1.12391,1.44166,0.192426,0.0764283,-0.225986
0.00247282,0.304479,0.698838,-0.057627,1.1698,1.54513,0.105063,0.039481,-0.189463
0.0159508,0.304265,0.731571,-0.000763157,1.14218,1.58427,0.0180314,0.0110788,-0.148913
0.0275961,0.305195,0.764998,0.0167314,1.00715,1.60744,-0.0460776,-0.0216642,-0.124822
0.0358173,0.306298,0.798047,-0.023475,0.795421,1.54597,-0.106302,-0.0549297,-0.115011
0.039492,0.305798,0.828979,-0.15008,0.473538,1.40601,-0.154181,-0.0932326,-0.113558
0.0367019,0.302421,0.856753,-0.287761,0.0617086,1.2342,-0.155161,-0.139133,-0.134663
0.0270401,0.296362,0.881012,-0.392485,-0.282469,1.07802,-0.147745,-0.140559,-0.194899
0.013587,0.287853,0.902728,-0.510966,-0.403747,0.994194,-0.147,-0.118266,-0.259281
0.000917642,0.276284,0.922383,-0.668477,-0.289061,0.884506,-0.170026,-0.121336,-0.315757
-0.00699516,0.261149,0.938902,-0.844724,-0.0485468,0.712075,-0.183489,-0.155811,-0.346262
-0.00852047,0.242635,0.95151,-0.987191,0.186068,0.532433,-0.186614,-0.180713,-0.362549
-0.00650177,0.223032,0.961101,-0.930345,0.209827,0.431883,-0.158668,-0.183781,-0.389429
-0.00483143,0.207403,0.969296,-0.592015,0.141205,0.393987,-0.120837,-0.150709,-0.426395
-0.00300786,0.200784,0.977711,-0.0492679,0.255782,0.461346,-0.0953344,-0.076334,-0.41638
0.00231998,0.205446,0.988975,0.502208,0.497385,0.661987,-0.0813117,0.0165806,-0.303747
0.0103199,0.219645,1.0048,0.884851,0.606283,0.893648,-0.0933695,0.081164,-0.120482
0.0168709,0.239904,1.02437,1.09263,0.454902,1.02057,-0.142165,0.102966,0.0628516
0.0171174,0.262727,1.04482,1.13614,0.0441593,0.985139,-0.201817,0.0983682,0.193205
0.0171174,0.262727,1.04482,1.13614,0.0441593,0.985139,-0.201817,0.0983682,0.193205
0.00806402,0.284906,1.06314,1.04816,-0.439791,0.789442,-0.251361,0.0857853,0.257325
-0.00718711,0.304246,1.07601,0.885578,-0.659544,0.430501,-0.293482,0.0756052,0.257103
-0.0208775,0.320234,1.08096,0.730695,-0.517235,0.0220856,-0.299491,0.103866,0.229259
-0.0272613,0.333651,1.07817,0.612357,-0.191981,-0.300479,-0.24666,0.158382,0.225203
-0.025037,0.345156,1.07021,0.524261,0.135454,-0.45443,-0.150041,0.215708,0.272683
-0.016808,0.355189,1.06047,0.468154,0.333687,-0.469889,-0.0738567,0.264882,0.338983
-0.00588484,0.364229,1.05114,0.430445,0.406268,-0.405197,-0.0177251,0.289594,0.405742
0.00422682,0.371949,1.0434,0.331182,0.301483,-0.317658,0.0287771,0.280439,0.464281
0.0107279,0.376998,1.0373,0.182773,0.128184,-0.247392,0.0450642,0.257855,0.497027
0.0131597,0.379133,1.03265,0.0222212,-0.0840901,-0.190466,0.0409063,0.231428,0.503826
0.00936017,0.37745,1.02906,-0.183207,-0.418586,-0.139004,0.070553,0.194967,0.482515
-1.92677e-05,0.37185,1.02694,-0.385697,-0.575276,-0.0640386,0.0788754,0.167738,0.400758
-0.0115842,0.361566,1.02565,-0.649362,-0.614176,-0.0603244,0.0631116,0.131465,0.319757
-0.0218737,0.346491,1.02332,-0.860427,-0.473099,-0.151008,0.0524936,0.0616611,0.201469
-0.0277701,0.327712,1.018,-1.02956,-0.300397,-0.299248,0.0310343,0.0251396,0.093679
-0.0292371,0.306569,1.01018,-1.09888,-0.0806914,-0.369783,0.0535811,-0.00807086,-0.0109458
-0.0273321,0.284715,1.00198,-1.0989,0.00609453,-0.338117,0.0975786,-0.0265192,-0.0776041
-0.0245501,0.264025,0.995795,-0.967697,0.11249,-0.185489,0.138809,-0.0424374,-0.146012
-0.0212883,0.247112,0.993817,-0.7248,0.150798,0.0293683,0.153331,-0.0538567,-0.172076
-0.0180727,0.235223,0.996308,-0.471849,0.252017,0.231355,0.144359,-0.0845365,-0.162386
-0.0130384,0.227482,1.00248,-0.320924,0.384554,0.371436,0.10134,-0.119079,-0.0820588
-0.00642343,0.221406,1.01063,-0.289242,0.461043,0.418619,0.0497084,-0.15755,0.00588882
0.00140775,0.215691,1.01919,-0.28897,0.497343,0.41608,0.0199414,-0.187787,0.0775357
0.00916048,0.209807,1.02765,-0.307144,0.454008,0.415235,0.0132879,-0.19775,0.133761
0.0155412,0.203702,1.03648,-0.310378,0.35414,0.44577,0.0222259,-0.203389,0.156437
0.0193463,0.198118,1.04607,-0.265015,0.226658,0.490809,0.0304414,-0.204451,0.134445
0.020243,0.193273,1.0567,-0.25539,0.0648477,0.552453,0.048632,-0.201436,0.102823
0.0183655,0.188199,1.06879,-0.277409,-0.00518795,0.629243,0.0664325,-0.199965,0.0180964
0.0163769,0.183076,1.08204,-0.251752,0.088752,0.657274,0.0674852,-0.215177,-0.103117
0.0169459,0.178329,1.09531,-0.269163,0.169002,0.632264,0.0721298,-0.234526,-0.184564
0.0155697,0.171438,1.10772,-0.459404,-0.161634,0.583411,0.0933475,-0.253213,-0.239404
0.00526244,0.161123,1.11964,-0.536026,-0.658669,0.588577,0.130517,-0.242024,-0.377636
-0.0110217,0.152817,1.13162,-0.248832,-0.675561,0.604708,0.103239,-0.157287,-0.582606
-0.0205207,0.151752,1.14435,0.148269,0.00380701,0.673348,0.0687149,-0.0593403,-0.647305
-0.0126828,0.157566,1.15943,0.441998,1.03034,0.825814,0.0607127,0.00866076,-0.520524
0.0136169,0.168342,1.17799,0.62027,1.84498,1.00777,0.0734901,0.0516268,-0.24404
0.0511799,0.182468,1.20002,0.706812,2.2431,1.22288,0.0979767,0.0797113,0.0630438
0.0914861,0.198205,1.22586,0.663595,2.21538,1.42422,0.100738,0.079463,0.307498
0.12457,0.213243,1.25517,0.512633,1.61403,1.59455,0.138591,0.0351016,0.468327
0.140157,0.226029,1.28753,0.32855,0.605396,1.71012,0.170465,-0.00898369,0.518428
0.131823,0.235187,1.32235,0.0999446,-0.670476,1.77107,0.193649,-0.0264048,0.474242
0.0980271,0.238731,1.35807,-0.151697,-1.80588,1.71582,0.185469,-0.0232803,0.309488
0.0483742,0.23653,1.39209,-0.273871,-2.2476,1.57008,0.177967,-0.0115039,0.0289574
-0.00104136,0.233425,1.42299,-0.0522071,-1.84645,1.45358,0.204504,0.0262635,-0.291876
-0.0350591,0.235912,1.4531,0.355825,-0.823602,1.51777,0.24894,0.111065,-0.459937
-0.0492103,0.244459,1.48698,0.593554,0.139307,1.76472,0.313536,0.164151,-0.393089
-0.051972,0.254983,1.52655,0.643772,0.472087,2.00687,0.342689,0.144212,-0.204202
-0.0535765,0.26623,1.56983,0.7066,0.463646,2.09249,0.312056,0.0901532,-0.0775235
-0.0562439,0.278763,1.61316,0.765942,0.444784,2.00441,0.262113,0.0518087,-0.00124431
-0.0585667,0.291561,1.65412,0.718571,0.483388,1.85696,0.248171,0.0253629,0.0681841
-0.0598828,0.302218,1.6918,0.542428,0.472339,1.68246,0.261084,-0.00350863,0.115855
-0.0612077,0.309068,1.72529,0.335638,0.403646,1.47004,0.272428,-0.0219243,0.108869
-0.0622009,0.312498,1.75423,0.188128,0.396488,1.28133,0.283607,-0.0126774,0.0472015
-0.0609844,0.31443,1.78009,0.159801,0.532371,1.19731,0.277914,0.0494322,-0.0389846
-0.0561808,0.316819,1.8054,0.216499,0.724689,1.21519,0.26611,0.107612,-0.0936568
-0.0487515,0.32037,1.83129,0.246351,0.802292,1.22537,0.232654,0.126288,-0.0966558
-0.0411903,0.323858,1.85696,0.190099,0.748293,1.20101,0.196906,0.116383,-0.0843292
-0.0349895,0.325353,1.88164,0.0264018,0.656498,1.12887,0.127431,0.126802,-0.0917382
-0.0296668,0.322932,1.90383,-0.209238,0.587033,0.981086,0.0550458,0.114635,-0.130111
-0.0250113,0.316243,1.92244,-0.403979,0.441577,0.814248,-0.00348358,0.11326,-0.182699
-0.0229884,0.306162,1.93763,-0.579681,0.212724,0.666854,-0.0473726,0.125407,-0.229891
-0.024327,0.292434,1.94991,-0.764704,0.0628343,0.542059,-0.0796591,0.109955,-0.27777
-0.0258616,0.275692,1.95918,-0.866618,0.0619165,0.394984,-0.152455,0.0949665,-0.347624
-0.0248313,0.258666,1.96503,-0.813362,0.224289,0.210517,-0.229736,0.0942923,-0.40202
-0.0181704,0.243194,1.96705,-0.736955,0.491624,0.0277294,-0.27129,0.0880636,-0.392028
-0.00696789,0.229006,1.96585,-0.69495,0.541253,-0.120576,-0.270619,0.0726818,-0.325936
0.00307342,0.215589,1.96221,-0.633473,0.387813,-0.222814,-0.256512,0.0749003,-0.276526
0.0114226,0.204831,1.95738,-0.419788,0.376713,-0.248922,-0.266585,0.119585,-0.28017
0.0208005,0.199052,1.95273,-0.161532,0.462141,-0.21208,-0.271533,0.17151,-0.233413
0.0302271,0.197396,1.94912,-0.0172432,0.385072,-0.148249,-0.259799,0.196666,-0.122361
0.0361273,0.197235,1.94664,-0.00511305,0.134625,-0.099984,-0.25391,0.191671,-0.0161062
0.0363867,0.196875,1.94464,-0.0169302,-0.134469,-0.105104,-0.26117,0.174274,0.0387494
0.0326892,0.196995,1.94212,0.0555407,-0.267018,-0.148225,-0.267067,0.150328,0.0609458
0.0277906,0.199252,1.93834,0.181544,-0.284558,-0.221723,-0.261597,0.138397,0.101189
0.0237728,0.203834,1.93289,0.285574,-0.219519,-0.295412,-0.227533,0.134783,0.177339
0.0215553,0.210042,1.92628,0.343626,-0.13422,-0.336529,-0.187477,0.139058,0.269238
0.0215553,0.210042,1.92628,0.343626,-0.13422,-0.336529,-0.187477,0.139058,0.269238
0.0208706,0.216821,1.91909,0.340445,-0.103425,-0.357288,-0.158564,0.139488,0.365396
0.0199595,0.222886,1.91124,0.280421,-0.16629,-0.403367,-0.136423,0.1258,0.434344
0.017573,0.227537,1.90223,0.203499,-0.291264,-0.472188,-0.110854,0.109154,0.470336
0.0122088,0.230935,1.89168,0.161516,-0.492456,-0.552608,-0.0761086,0.107519,0.468253
0.00317006,0.23426,1.87978,0.188242,-0.683257,-0.601471,-0.0361797,0.124244,0.429346
-0.00857379,0.238351,1.86754,0.216616,-0.751066,-0.581262,0.0180054,0.145509,0.380567
-0.0204813,0.242501,1.85649,0.171898,-0.703672,-0.502807,0.0559219,0.158802,0.335771
-0.0313614,0.245005,1.84672,0.0463837,-0.615449,-0.46112,0.0685974,0.145668,0.303765
-0.0401294,0.244589,1.837,-0.12936,-0.497944,-0.492441,0.0657191,0.114411,0.265263
-0.046132,0.240267,1.82586,-0.356193,-0.377816,-0.585738,0.0594394,0.0609753,0.212062
-0.0494557,0.231409,1.81172,-0.589166,-0.297558,-0.758459,0.0510934,0.000940531,0.147844
-0.0507559,0.218582,1.79325,-0.783032,-0.249624,-0.987654,0.0254639,-0.0443388,0.0589636
-0.0507202,0.202047,1.76966,-0.987356,-0.253625,-1.23573,0.0321349,-0.0986564,-0.0252793
-0.0503179,0.182135,1.74146,-1.14623,-0.238397,-1.42331,0.0829273,-0.147209,-0.134256
-0.0496692,0.158966,1.71054,-1.34573,-0.232185,-1.49504,0.130993,-0.15321,-0.246782
-0.049963,0.131596,1.67926,-1.5223,-0.242754,-1.45578,0.192195,-0.178507,-0.384242
-0.0505902,0.103517,1.65006,-1.37398,-0.106117,-1.27906,0.27387,-0.184784,-0.592105
-0.0459609,0.0815258,1.62709,-0.915306,0.400836,-0.869102,0.330903,-0.14705,-0.741434
-0.0313787,0.0685575,1.61515,-0.450594,0.935328,-0.240117,0.378605,-0.127648,-0.688936
-0.0106015,0.06266,1.61724,-0.165833,1.08724,0.451298,0.380377,-0.175342,-0.514531
0.00850534,0.0614252,1.63179,0.0335243,0.881171,0.956767,0.300837,-0.26155,-0.377746
0.0212238,0.0645049,1.65318,0.258726,0.535586,1.15252,0.175874,-0.298287,-0.337265
0.0284175,0.0735106,1.67691,0.59965,0.400436,1.24506,0.0942218,-0.257046,-0.330435
0.0359906,0.0900331,1.70238,0.964457,0.612085,1.36014,0.0652525,-0.182336,-0.272792
0.0493021,0.113061,1.72969,1.19864,0.995136,1.45836,0.0632305,-0.127903,-0.147362
0.0669379,0.139053,1.75894,1.19618,1.0521,1.61908,0.102871,-0.0815489,0.0372937
0.0787826,0.164033,1.79197,1.05639,0.588167,1.81786,0.139503,-0.0592664,0.151943
0.0781565,0.186919,1.82782,0.965234,-0.0305838,1.87027,0.100056,-0.0513956,0.145781
0.0647593,0.208843,1.8636,0.988133,-0.578013,1.7804,0.0558023,-0.0526815,0.0659425
0.0430727,0.231048,1.8968,1.05576,-0.807784,1.57245,0.0563973,-0.0468051,-0.0323738
0.0210124,0.253334,1.92603,1.08786,-0.646174,1.35781,0.0802763,-0.000953645,-0.0840877
0.00545344,0.275897,1.95279,1.15182,-0.194408,1.28997,0.128984,0.0679421,-0.0988224
-0.00206577,0.299811,1.98017,1.24687,0.182448,1.35548,0.17449,0.14176,-0.046578
-0.00579313,0.325402,2.0094,1.32278,0.304323,1.41408,0.183895,0.178485,0.0621151
-0.0106339,0.351848,2.03961,1.34512,0.185155,1.41437,0.178119,0.18643,0.159387
-0.0192123,0.37808,2.06982,1.32115,0.0672163,1.38351,0.168596,0.226543,0.211598
-0.0285295,0.403389,2.09993,1.2759,0.179369,1.34766,0.146414,0.28327,0.2291
-0.0347848,0.42721,2.12915,1.18985,0.381264,1.24641,0.116552,0.315258,0.264067
-0.0363504,0.448743,2.15585,1.04364,0.582755,1.09969,0.0948781,0.331249,0.307182
-0.0341495,0.466724,2.17953,0.825472,0.673324,0.974236,0.106221,0.353192,0.352259
-0.0301472,0.480058,2.20106,0.566045,0.699647,0.911358,0.131136,0.368783,0.366652
-0.0255955,0.488097,2.22128,0.278847,0.681506,0.86416,0.142416,0.363264,0.344943
-0.0222549,0.490065,2.24028,-0.0484709,0.52501,0.804235,0.127575,0.349895,0.300937
-0.0214804,0.485852,2.25698,-0.327208,0.339809,0.676389,0.0873832,0.336804,0.212122
-0.022546,0.476712,2.27011,-0.570233,0.168717,0.498284,0.0674702,0.325239,0.116417
-0.0242467,0.462116,2.27892,-0.89411,0.0792598,0.331006,0.0462376,0.347714,0.0447809
-0.0254998,0.440088,2.28467,-1.30872,0.0460926,0.258001,0.0304376,0.379891,-0.0406023
-0.0273057,0.409944,2.2893,-1.67854,-0.0439203,0.247754,0.0133367,0.385801,-0.166328
-0.030439,0.37444,2.29381,-1.83397,-0.0788933,0.27346,-0.0280251,0.366301,-0.341691
-0.0328195,0.337969,2.29816,-1.79049,0.00337331,0.234337,-0.0970333,0.29872,-0.501567
-0.0321976,0.30335,2.30048,-1.66756,0.149287,0.0949986,-0.153329,0.190808,-0.587413
-0.0268643,0.270996,2.3,-1.58984,0.366743,-0.0405786,-0.170622,0.10842,-0.571404
-0.0164839,0.239526,2.29734,-1.57553,0.586164,-0.145556,-0.185297,0.0485675,-0.489054
-0.00323804,0.208148,2.29278,-1.57097,0.587486,-0.27366,-0.199133,-0.0413829,-0.389418
-0.00323804,0.208148,2.29278,-1.57097,0.587486,-0.27366,-0.199133,-0.0413829,-0.389418
0.00774086,0.177495,2.28559,-1.48447,0.350941,-0.449199,-0.209325,-0.142893,-0.335992
0.0139009,0.149592,2.27498,-1.28518,0.121968,-0.623066,-0.213147,-0.210813,-0.327181
0.0180389,0.126562,2.26169,-0.98731,0.157475,-0.721325,-0.213633,-0.222042,-0.348461
0.0248671,0.109982,2.24724,-0.640142,0.360943,-0.743692,-0.203944,-0.205379,-0.324785
0.0349925,0.0997912,2.23279,-0.34642,0.473619,-0.718585,-0.199087,-0.192763,-0.228149
0.0450922,0.0946952,2.21915,-0.115183,0.372403,-0.655967,-0.196318,-0.1695,-0.119735
0.0516093,0.0938113,2.20668,0.0841518,0.155302,-0.597139,-0.204649,-0.147934,-0.0398566
0.0535852,0.096684,2.19475,0.261454,-0.0546629,-0.583528,-0.215022,-0.132287,0.0115098
0.0524434,0.102644,2.18253,0.389008,-0.160773,-0.611047,-0.214222,-0.113143,0.0547857
0.0503953,0.110567,2.1692,0.461352,-0.188697,-0.67936,-0.203448,-0.0884195,0.100176
0.0478584,0.119358,2.15454,0.492649,-0.234216,-0.730882,-0.167861,-0.0674793,0.13245
0.0449083,0.128999,2.13924,0.549152,-0.252333,-0.739949,-0.126734,-0.0380609,0.14418
0.0416696,0.140145,2.12404,0.644762,-0.271773,-0.716856,-0.0900619,-0.0103529,0.152086
0.0385329,0.153772,2.10938,0.782371,-0.252735,-0.682807,-0.0692424,0.0169823,0.17573
0.036079,0.170213,2.0951,0.909786,-0.231251,-0.672158,-0.0781219,0.0558979,0.229139
0.0341104,0.188695,2.0807,0.98251,-0.234956,-0.686798,-0.0914817,0.0846259,0.289219
0.0315986,0.207922,2.06558,0.983754,-0.328903,-0.750138,-0.111861,0.103262,0.339744
0.0275801,0.226624,2.04841,0.938632,-0.429939,-0.88213,-0.138367,0.119206,0.366836
0.0231472,0.243788,2.02837,0.822636,-0.478264,-1.02632,-0.124328,0.142183,0.380022
0.0191871,0.257978,2.00581,0.636795,-0.459099,-1.12979,-0.0999871,0.164596,0.367517
0.0174181,0.268335,1.98158,0.446121,-0.353362,-1.19328,-0.0627381,0.167837,0.325457
0.0184961,0.275213,1.95649,0.291849,-0.188673,-1.22041,-0.0294109,0.141854,0.269393
0.023608,0.278535,1.93054,0.0658404,-0.0424234,-1.28527,-0.0131897,0.108246,0.252405
0.0298495,0.275441,1.90299,-0.322426,-0.128733,-1.3802,0.0196503,0.0423572,0.25451
0.0319828,0.264393,1.87384,-0.671508,-0.443636,-1.46491,0.0734125,-0.0359025,0.15856
0.0281176,0.24806,1.84352,-0.860649,-0.703236,-1.5131,0.104567,-0.0719655,-0.0180074
0.0197843,0.229451,1.81377,-0.910904,-0.810462,-1.40281,0.178871,-0.0874682,-0.201082
0.00924839,0.211558,1.78731,-0.83048,-0.816315,-1.2141,0.21041,-0.115609,-0.378614
-0.00205838,0.196126,1.76418,-0.706185,-0.783444,-1.08018,0.180394,-0.162124,-0.524041
-0.0132654,0.183484,1.74286,-0.58431,-0.7312,-1.01897,0.124874,-0.210488,-0.617733
-0.0221501,0.173505,1.72278,-0.439528,-0.462776,-0.932232,0.0916248,-0.212207,-0.68089
-0.0234661,0.167158,1.70526,-0.230472,0.0458577,-0.772717,0.0477647,-0.184602,-0.718906
-0.0146255,0.165492,1.69119,0.039769,0.596843,-0.621687,-0.00153545,-0.145352,-0.694844
0.0035565,0.168929,1.67993,0.291591,0.997171,-0.496863,-0.0206567,-0.0965061,-0.5546
0.0270475,0.176404,1.67112,0.461591,1.18338,-0.355096,-0.0213449,-0.0395822,-0.319758
0.0528244,0.186794,1.66555,0.599843,1.30287,-0.139146,-0.00660848,0.0252175,-0.0784582
0.0800919,0.199998,1.6645,0.715543,1.39319,0.130824,0.0267521,0.0651224,0.146954
0.106588,0.214816,1.66835,0.700226,1.31126,0.378361,0.0597403,0.0618922,0.355703
0.127662,0.228251,1.67688,0.518743,0.941179,0.608904,0.132456,0.0177023,0.511867
0.138133,0.237946,1.69027,0.262059,0.405967,0.803113,0.206731,-0.0304063,0.556485
0.135901,0.243012,1.70756,0.0232201,-0.201644,0.936447,0.261931,-0.042622,0.506087
0.121771,0.244097,1.72827,-0.182643,-0.715486,1.08134,0.304265,-0.00409323,0.396078
0.0967837,0.240486,1.75274,-0.442187,-1.18584,1.25226,0.331441,0.0577395,0.257067
0.0629361,0.231509,1.78094,-0.661292,-1.52988,1.41981,0.354296,0.0917207,0.0778396
0.023903,0.218896,1.81245,-0.688503,-1.58472,1.60953,0.375763,0.125248,-0.151827
-0.0100517,0.207817,1.84756,-0.41018,-0.998633,1.83536,0.346353,0.175044,-0.35407
-0.0296966,0.202364,1.88755,-0.0538283,-0.15835,2.10777,0.308185,0.205671,-0.371714
-0.0346228,0.203009,1.9331,0.245204,0.52196,2.34159,0.267181,0.186099,-0.222218
-0.0306334,0.207633,1.98215,0.343,0.827757,2.44498,0.217532,0.127607,0.0260667
-0.0236052,0.212868,2.03245,0.305747,0.910599,2.46029,0.165923,0.0851808,0.233123
-0.0161692,0.217021,2.08215,0.201992,0.884904,2.38896,0.109448,0.0468343,0.376821
-0.0097108,0.219407,2.12976,0.0976791,0.777072,2.26953,0.0932792,-0.000259474,0.462263
-0.00589732,0.220306,2.1745,0.0427582,0.564742,2.10479,0.0899223,-0.0517656,0.484984
-0.00572395,0.221469,2.21553,0.109187,0.36165,1.91442,0.100524,-0.0678888,0.451344
-0.00572395,0.221469,2.21553,0.109187,0.36165,1.91442,0.100524,-0.0678888,0.451344
-0.0083187,0.224152,2.25331,0.170143,0.226661,1.80637,0.10418,-0.0074565,0.422215
-0.0122294,0.22706,2.29043,0.135615,0.222677,1.83104,0.124815,0.0471355,0.379106
-0.0160385,0.227944,2.32813,0.00462885,0.246965,1.84285,0.139692,0.0561599,0.290704
-0.0193868,0.226046,2.36484,-0.15409,0.21133,1.71197,0.0792868,0.0816548,0.158596
-0.025432,0.218805,2.39662,-0.536387,-0.172548,1.394,0.0480622,0.0665659,0.049847
-0.0392981,0.2034,2.42047,-0.886677,-0.661447,0.988773,0.080455,-0.0198011,-0.164208
-0.0563672,0.184235,2.43569,-0.91696,-0.672167,0.614029,0.0406745,0.0261817,-0.486334
-0.0663778,0.167393,2.44469,-0.691287,-0.097924,0.398065,-0.0247469,0.116914,-0.715871
-0.0621278,0.155606,2.45045,-0.47523,0.592162,0.247595,-0.0805843,0.13975,-0.719463
-0.0462219,0.146632,2.45221,-0.45441,0.945437,-0.0451826,-0.134237,0.0600936,-0.543374
-0.0269152,0.136485,2.44726,-0.597722,0.8601,-0.400276,-0.155498,-0.0244606,-0.360183
-0.0111278,0.123188,2.43602,-0.743566,0.590422,-0.680414,-0.138584,-0.0640744,-0.270182
0.00163882,0.108032,2.41992,-0.769191,0.527754,-0.914814,-0.141323,-0.0602227,-0.267611
0.0141321,0.0928095,2.39946,-0.741409,0.537009,-1.13553,-0.140887,-0.0505122,-0.26455
0.0279357,0.0780556,2.37558,-0.680466,0.63723,-1.2544,-0.120056,-0.032955,-0.27884
0.0423305,0.0648096,2.35128,-0.542413,0.607085,-1.19134,-0.0898364,0.0200101,-0.292529
0.0548663,0.055799,2.33023,-0.233639,0.52146,-0.929387,-0.0996142,0.108596,-0.299049
0.0654675,0.0543206,2.3155,0.177726,0.45014,-0.539419,-0.140336,0.183215,-0.248685
0.0725019,0.0610621,2.30832,0.519666,0.156708,-0.14788,-0.16706,0.198796,-0.124542
0.0703934,0.0732667,2.30713,0.677204,-0.393847,0.0915134,-0.188951,0.165975,0.00655079
0.0567065,0.086771,2.30923,0.631982,-0.952623,0.188071,-0.230581,0.123146,0.0823439
0.0335515,0.0982043,2.31204,0.496597,-1.29593,0.11535,-0.308545,0.0837032,0.090096
0.00656413,0.106669,2.31216,0.351867,-1.36418,-0.101511,-0.369304,0.0744848,0.0912644
-0.0184876,0.112138,2.30752,0.194398,-1.16326,-0.360729,-0.360337,0.0643258,0.105824
-0.0367782,0.114787,2.29797,0.045372,-0.761853,-0.59385,-0.317155,0.059176,0.153194
-0.0466703,0.114862,2.28411,-0.0915668,-0.419464,-0.782762,-0.249827,0.0523387,0.230854
-0.0515641,0.112833,2.26693,-0.184465,-0.322952,-0.914036,-0.162989,0.0271601,0.307201
-0.0574016,0.110476,2.24747,-0.125173,-0.48969,-0.99801,-0.0485094,-0.00736299,0.327807
-0.0663471,0.111237,2.22723,0.085926,-0.615849,-1.00766,0.0378736,-0.00213656,0.334467
-0.0764881,0.116331,2.20783,0.268497,-0.609126,-0.94954,0.0834197,0.0356549,0.379909
-0.0859778,0.123689,2.19015,0.301753,-0.550795,-0.868022,0.117351,0.0546633,0.450349
-0.0941468,0.130363,2.17386,0.208033,-0.474547,-0.810603,0.154337,0.0345657,0.507174
-0.101254,0.134598,2.15811,0.0573172,-0.454947,-0.789681,0.183831,0.0233516,0.528147
-0.108275,0.135991,2.14247,-0.078284,-0.472161,-0.779247,0.19984,0.0246406,0.502452
-0.115786,0.135127,2.12654,-0.184354,-0.495356,-0.780262,0.217517,0.0276151,0.439846
-0.123199,0.13225,2.11091,-0.287238,-0.433197,-0.705587,0.273426,0.0439133,0.371785
-0.128174,0.126673,2.09745,-0.440519,-0.224944,-0.550435,0.291792,0.068092,0.304209
-0.129004,0.117461,2.08658,-0.609462,-0.022275,-0.407981,0.274901,0.0482972,0.208948
-0.12862,0.105169,2.07821,-0.704616,-0.0737782,-0.258091,0.270898,0.0199842,0.120385
-0.131571,0.091366,2.0731,-0.724824,-0.281314,-0.0523129,0.279067,-0.00902662,0.0569243
-0.139243,0.0772058,2.07279,-0.66716,-0.472646,0.208888,0.272566,-0.0573008,-0.00982118
-0.149359,0.0642128,2.07696,-0.576104,-0.49227,0.370764,0.187942,-0.0853064,-0.0987426
-0.159594,0.0515734,2.08413,-0.571859,-0.509439,0.547386,0.149276,-0.110971,-0.165159
-0.171022,0.0384129,2.09529,-0.532356,-0.595217,0.768577,0.138142,-0.153735,-0.279094
-0.184397,0.0260812,2.11032,-0.412415,-0.704803,0.914181,0.0698117,-0.181151,-0.446807
-0.200183,0.01544,2.12752,-0.31461,-0.84367,0.962272,-0.0258299,-0.210971,-0.601645
-0.218033,0.00634797,2.14411,-0.224342,-0.888295,0.82323,-0.177219,-0.225235,-0.746763
-0.233369,0.000197354,2.15642,-0.0973651,-0.586679,0.496018,-0.335043,-0.221589,-0.853203
-0.23876,-0.00172067,2.16137,0.0162987,0.0964446,0.0262664,-0.420607,-0.219494,-0.847049
-0.227891,0.000400174,2.15771,0.0978902,1.0047,-0.40286,-0.342848,-0.212475,-0.700019
-0.200199,0.00446723,2.14762,0.0565821,1.70465,-0.634622,-0.175634,-0.149891,-0.4013
-0.163016,0.00631587,2.13547,-0.0949976,1.94542,-0.547573,-0.0187842,-0.0874189,-0.0918144
-0.125215,0.00497514,2.12723,-0.135383,1.79156,-0.231197,0.113808,-0.0670616,0.115129
-0.125215,0.00497514,2.12723,-0.135383,1.79156,-0.231197,0.113808,-0.0670616,0.115129
-0.0934512,0.00342559,2.12633,-0.000720926,1.36036,0.168693,0.189659,-0.0546494,0.235301
-0.0721549,0.00542781,2.13406,0.27976,0.775475,0.589871,0.244836,-0.0521436,0.298348
-0.0622751,0.0130885,2.15032,0.583836,0.26061,0.97891,0.259404,-0.0334817,0.334554
-0.0614843,0.0252705,2.174,0.758574,-0.109331,1.30736,0.272119,-0.0304726,0.33585
-0.0667318,0.0390267,2.20398,0.785738,-0.310896,1.59406,0.303158,-0.0481872,0.319509
-0.0765997,0.0508232,2.23907,0.615722,-0.51709,1.81679,0.290141,-0.028819,0.29412
-0.0908918,0.05711,2.27741,0.320859,-0.72848,1.94361,0.233243,-0.00206417,0.206559
-0.11036,0.0570942,2.31654,0.09938,-1.00175,1.93044,0.185961,-0.0121202,0.0178555
-0.133769,0.0551378,2.35393,0.218837,-1.06855,1.80379,0.174931,-0.010915,-0.248111
-0.153573,0.0583051,2.38966,0.622843,-0.657592,1.70976,0.176865,0.0584551,-0.4345
-0.163146,0.0686148,2.42614,0.938325,-0.08925,1.76524,0.20176,0.165698,-0.416327
-0.163616,0.0823424,2.46623,1.04736,0.305001,1.98023,0.234906,0.227452,-0.268789
-0.159914,0.0965465,2.51051,1.07044,0.423148,2.13813,0.208846,0.242927,-0.0960309
-0.156246,0.111088,2.55682,1.09191,0.412509,2.18034,0.164509,0.232152,0.0345097
-0.15423,0.125476,2.60319,1.039,0.338467,2.15772,0.14408,0.216486,0.146148
-0.154206,0.138355,2.64871,0.914284,0.258737,2.11465,0.145948,0.202474,0.227242
-0.155962,0.148175,2.69287,0.73224,0.213846,2.06689,0.153018,0.199803,0.277849
-0.158179,0.154067,2.73567,0.512194,0.2027,2.03515,0.181625,0.169602,0.304417
-0.160917,0.155599,2.77684,0.283466,0.145176,1.96247,0.193932,0.129536,0.306287
-0.165025,0.153532,2.81576,0.157492,0.0439384,1.88558,0.232596,0.0854708,0.252689
-0.170236,0.150713,2.85343,0.198637,0.0200238,1.85042,0.25508,0.0825161,0.165871
-0.174884,0.148875,2.89087,0.250156,0.0810407,1.84501,0.259609,0.0962165,0.105721
-0.177446,0.147363,2.9282,0.246926,0.223291,1.82918,0.253278,0.0802561,0.0697446
-0.177171,0.145742,2.96489,0.232914,0.316651,1.77597,0.232421,0.0619596,0.0445893
-0.175937,0.144396,3.00022,0.250408,0.312382,1.70261,0.204276,0.0629166,0.0143557
-0.174367,0.14389,3.0341,0.295847,0.352302,1.61026,0.170838,0.0578685,-0.0234185
-0.170324,0.145306,3.06591,0.389865,0.526683,1.46966,0.147756,0.0296528,-0.0553125
-0.162302,0.149283,3.09499,0.476849,0.692689,1.3179,0.153171,-0.00146271,-0.0409637
-0.151472,0.155433,3.12157,0.532637,0.794492,1.18607,0.176143,-0.0300371,-0.0110993
-0.139095,0.162577,-3.13762,0.503106,0.801172,1.07189,0.184106,-0.0269504,0.0137817
-0.127308,0.16905,-3.11536,0.437421,0.76285,1.03976,0.172533,-0.00163057,0.000549078
-0.116138,0.17505,-3.09319,0.448827,0.735168,1.06652,0.130006,0.00402224,-0.0597422
-0.105432,0.182963,-3.07074,0.596361,0.756681,1.0296,0.0604352,-0.0197464,-0.136989
-0.0930949,0.194431,-3.05025,0.728984,0.870398,0.842224,-0.033318,-0.0758956,-0.187428
-0.0775068,0.207565,-3.03461,0.680309,0.991063,0.564289,-0.0951922,-0.114418,-0.170108
-0.0597839,0.218793,-3.02517,0.501522,0.976504,0.305905,-0.0824994,-0.141438,-0.149485
-0.041883,0.22711,-3.01879,0.379442,0.96139,0.316665,-0.0305392,-0.126247,-0.169722
-0.0246179,0.234019,-3.0103,0.339412,0.954575,0.505506,-0.0266689,-0.0891408,-0.193827
-0.00855009,0.240964,-2.99759,0.361125,0.945369,0.709863,-0.0475137,-0.118005,-0.201947
0.00674114,0.248054,-2.98239,0.327416,0.936918,0.742773,-0.110951,-0.150524,-0.18247
0.0202947,0.253382,-2.96766,0.17956,0.769542,0.700115,-0.17025,-0.137138,-0.140162
0.0298718,0.255859,-2.95344,0.0276427,0.539012,0.686792,-0.185618,-0.0889641,-0.134533
0.0339217,0.255221,-2.93959,-0.147903,0.202908,0.652874,-0.201014,-0.0298128,-0.140981
0.031452,0.250285,-2.92619,-0.405103,-0.0819387,0.629019,-0.240809,0.0506739,-0.166205
0.0254435,0.239834,-2.91361,-0.671886,-0.186505,0.554266,-0.281838,0.10595,-0.22338
0.0195781,0.225238,-2.903,-0.772387,-0.126161,0.45329,-0.301599,0.140758,-0.31489
0.017249,0.21137,-2.89409,-0.598538,0.111746,0.401171,-0.290607,0.174079,-0.385713
0.0205999,0.202623,-2.88573,-0.292032,0.382167,0.416662,-0.254262,0.216437,-0.334173
0.0282237,0.199813,-2.87633,-0.0187707,0.540051,0.49905,-0.217646,0.230072,-0.183891
0.0363334,0.201989,-2.86574,0.192108,0.433975,0.53904,-0.205127,0.205791,-0.0307274
0.0393275,0.207499,-2.85502,0.303962,0.046915,0.526353,-0.228293,0.185994,0.0834749
0.0329154,0.21431,-2.84535,0.333117,-0.496257,0.42877,-0.252539,0.168895,0.136186
0.015949,0.220591,-2.83891,0.268052,-1.04706,0.189014,-0.259428,0.142665,0.144529
-0.00780753,0.224823,-2.8385,0.151632,-1.25184,-0.153468,-0.261524,0.138751,0.082424
-0.00780753,0.224823,-2.8385,0.151632,-1.25184,-0.153468,-0.261524,0.138751,0.082424
-0.0293194,0.226625,-2.84529,0.0127594,-1.01262,-0.500607,-0.243773,0.175129,0.0170719
-0.0426649,0.226219,-2.85828,-0.0883759,-0.602262,-0.743529,-0.173416,0.205099,-0.0206739
-0.0475835,0.225063,-2.87472,-0.0828161,-0.305603,-0.837148,-0.0792139,0.227013,-0.020586
-0.0487242,0.22491,-2.89193,-0.0108494,-0.201383,-0.83075,0.00936176,0.216137,0.0161072
-0.048818,0.226033,-2.90848,0.0373739,-0.194211,-0.787591,0.0522418,0.193398,0.0693645
-0.0493618,0.228174,-2.92406,0.103824,-0.207485,-0.752313,0.0651833,0.159716,0.108027
-0.0500293,0.231711,-2.93922,0.174264,-0.198568,-0.750568,0.0720332,0.124648,0.131618
-0.050196,0.23628,-2.95425,0.201204,-0.170774,-0.731902,0.0892319,0.101245,0.16876
-0.0499467,0.240782,-2.96869,0.16776,-0.145181,-0.699018,0.101037,0.0752849,0.210877
-0.049328,0.244237,-2.98275,0.114457,-0.136502,-0.690018,0.111611,0.0347543,0.229121
-0.0486118,0.246985,-2.99697,0.0974263,-0.137503,-0.704702,0.119063,-0.000559539,0.219516
-0.0476014,0.249433,-3.01121,0.0670897,-0.104477,-0.679462,0.124511,-0.00422922,0.212447
-0.0461189,0.250805,-3.02452,0.00204777,-0.0804784,-0.614639,0.129636,-0.0210725,0.195191
-0.0441223,0.250924,-3.03655,-0.0424422,-0.0181737,-0.550586,0.132174,-0.0489424,0.157591
-0.0418526,0.249923,-3.04692,-0.101973,-0.0217282,-0.440272,0.139021,-0.0585486,0.131856
-0.0405186,0.247863,-3.05467,-0.120505,-0.0345502,-0.308143,0.132074,-0.0803353,0.08255
-0.0395965,0.245994,-3.06003,-0.0843673,0.00802561,-0.212479,0.0978274,-0.0872142,0.0280651
-0.0373949,0.244889,-3.06375,-0.0467137,0.13736,-0.145024,0.0774237,-0.0916426,-0.00632882
-0.0321551,0.244277,-3.06619,-0.0253092,0.334674,-0.0949724,0.0640015,-0.110608,-0.0224987
-0.0233112,0.24366,-3.06785,-0.0601304,0.49741,-0.0598197,0.0606912,-0.126069,0.00803977
-0.0124557,0.241257,-3.06833,-0.202558,0.566176,0.0200888,0.0594122,-0.133925,0.0587622
-0.001531,0.235417,-3.06739,-0.366151,0.536673,0.0576221,0.018365,-0.161222,0.0694162
0.00908145,0.227508,-3.0669,-0.419486,0.551424,-0.044617,-0.0745974,-0.190816,0.0254914
0.0205693,0.218684,-3.07015,-0.472516,0.484927,-0.299838,-0.114209,-0.227361,-0.0138908
0.0294647,0.208484,-3.0782,-0.527061,0.248515,-0.486211,-0.00147877,-0.244195,-0.0834954
0.0346592,0.197086,-3.08778,-0.588871,0.125515,-0.45557,0.0890807,-0.150883,-0.183583
0.0402297,0.184499,-3.09442,-0.655982,0.353741,-0.219249,0.171508,-0.0585653,-0.31037
0.0512764,0.171344,-3.09492,-0.643895,0.720125,0.117072,0.215763,0.0125784,-0.416695
0.0648627,0.160487,-3.08831,-0.451826,0.661564,0.464281,0.225917,0.0406278,-0.464099
0.0726364,0.15596,-3.07559,-0.0671403,0.332179,0.749045,0.246515,0.0205932,-0.471285
0.075002,0.160155,-3.05855,0.348457,0.220434,0.963847,0.260363,0.0452747,-0.443612
0.0775227,0.171691,-3.03763,0.617947,0.420716,1.18979,0.246539,0.111141,-0.345665
0.0838917,0.187279,-3.01259,0.719736,0.635414,1.38588,0.203988,0.157423,-0.191458
0.0914927,0.204291,-2.98458,0.728787,0.632275,1.48992,0.147656,0.167915,-0.0482212
0.0960077,0.221166,-2.95576,0.684619,0.405589,1.45949,0.0921894,0.149803,0.0548132
0.095011,0.236558,-2.92885,0.596132,0.114218,1.29041,0.0563182,0.116438,0.109764
0.0897424,0.249203,-2.90588,0.452561,-0.0595208,1.05031,0.0394893,0.100559,0.124404
0.0838625,0.258435,-2.88733,0.325886,-0.0288886,0.832847,0.0343434,0.115584,0.0911857
0.0808911,0.265821,-2.87237,0.311636,0.123083,0.676133,0.0382156,0.14411,0.070853
0.0821912,0.27343,-2.86056,0.362125,0.328228,0.528115,0.0510629,0.156724,0.089498
0.0882244,0.281906,-2.8514,0.396955,0.521827,0.43275,0.078103,0.165547,0.162937
0.0979444,0.290245,-2.84367,0.361138,0.66987,0.396079,0.0887821,0.182793,0.259749
0.11042,0.297641,-2.8362,0.298217,0.792423,0.395636,0.0847278,0.19126,0.337004
0.124828,0.303767,-2.82844,0.226196,0.879925,0.416862,0.0818185,0.182356,0.391204
0.140365,0.308763,-2.81997,0.168047,0.925864,0.45132,0.0860261,0.1626,0.429134
0.156073,0.312948,-2.81117,0.102042,0.894678,0.431953,0.0814649,0.136264,0.457078
0.169962,0.314516,-2.80268,-0.103452,0.740129,0.393124,0.0957744,0.102355,0.48769
0.178822,0.310907,-2.79399,-0.408994,0.369147,0.365214,0.115142,0.0617358,0.472641
0.176847,0.301352,-2.78413,-0.677444,-0.289377,0.404961,0.145386,0.0282259,0.384714
0.16186,0.288563,-2.77265,-0.740643,-0.847112,0.453218,0.136662,0.0147844,0.184267
0.13853,0.276857,-2.76136,-0.538822,-1.12168,0.437327,0.0833886,0.0376158,-0.0475704
0.113796,0.270279,-2.75176,-0.251612,-1.05588,0.39468,0.0389177,0.0589165,-0.210948
0.0929787,0.267349,-2.74353,-0.157354,-0.788657,0.368068,0.0372083,0.06662,-0.261371
0.0790798,0.264738,-2.73575,-0.166596,-0.383722,0.371165,0.0348387,0.069243,-0.279249
0.0790798,0.264738,-2.73575,-0.166596,-0.383722,0.371165,0.0348387,0.069243,-0.279249
0.0734586,0.262588,-2.72729,-0.0889732,0.0284986,0.431273,0.00437958,0.06938,-0.288836
0.0742531,0.263291,-2.71775,0.10126,0.267331,0.489637,-0.0200995,0.0453703,-0.242368
0.0777711,0.268231,-2.70788,0.306165,0.323111,0.486884,-0.0600372,0.0112721,-0.140663
0.0821977,0.276049,-2.69945,0.379406,0.357241,0.369797,-0.117815,0.00308609,-0.0305496
0.0888561,0.283376,-2.69415,0.28816,0.461806,0.206573,-0.115275,-0.00261295,0.0715332
0.0982405,0.287763,-2.69169,0.128361,0.537041,0.0808021,-0.0878087,0.0017491,0.131931
0.108624,0.289236,-2.69074,0.0155049,0.502639,0.0414652,-0.061259,0.0186035,0.148538
0.116013,0.288805,-2.68962,-0.0643628,0.242118,0.0634777,-0.0225805,0.0294815,0.149499
0.116535,0.287069,-2.68772,-0.129476,-0.155669,0.093066,0.0123726,0.022232,0.125486
0.108277,0.283891,-2.68513,-0.22101,-0.577838,0.121767,0.0409137,0.012622,0.0521141
0.0934386,0.278931,-2.68158,-0.306347,-0.776919,0.174995,0.066294,0.0156544,-0.0892301
0.0761414,0.272633,-2.67622,-0.363257,-0.777282,0.301322,0.0989371,0.0476796,-0.214987
0.0595219,0.265264,-2.6678,-0.439965,-0.660685,0.448224,0.0982793,0.0658905,-0.316196
0.0447508,0.255982,-2.65733,-0.539989,-0.576859,0.517089,0.0447345,0.0737217,-0.397231
0.0298149,0.24568,-2.6451,-0.508297,-0.64081,0.653136,0.00306702,0.108603,-0.471621
0.0118346,0.237881,-2.62924,-0.290544,-0.800321,0.889101,-0.0329245,0.168917,-0.503952
-0.011031,0.23437,-2.60828,-0.0835894,-0.997039,1.14986,-0.046476,0.176276,-0.459405
-0.0375257,0.232252,-2.58296,-0.111057,-1.043,1.29656,-0.0951586,0.105353,-0.375572
-0.062996,0.226971,-2.55735,-0.301875,-0.90459,1.18173,-0.178727,-0.00306097,-0.319984
-0.0835529,0.21768,-2.53732,-0.467172,-0.704315,0.815619,-0.254833,-0.0910115,-0.31004
-0.0969152,0.207197,-2.52627,-0.446243,-0.379174,0.356113,-0.269167,-0.141053,-0.3343
-0.100873,0.200202,-2.52389,-0.2087,0.0297472,-0.0336153,-0.221347,-0.129364,-0.318855
-0.0959999,0.199163,-2.52723,0.0690857,0.371431,-0.250358,-0.14527,-0.0700804,-0.204274
-0.0855689,0.203521,-2.53262,0.310684,0.535287,-0.303133,-0.105615,-0.000776917,-0.0494604
-0.0738351,0.212163,-2.53842,0.497166,0.492223,-0.332421,-0.0953207,0.0439338,0.101364
-0.0647901,0.223423,-2.54481,0.562737,0.250378,-0.380187,-0.109136,0.0671958,0.224274
-0.061094,0.234947,-2.55287,0.528636,-0.0664575,-0.489665,-0.133264,0.0787084,0.299951
-0.0626066,0.245257,-2.56428,0.420445,-0.338814,-0.693503,-0.159262,0.0807875,0.333653
-0.0665999,0.252884,-2.58043,0.22818,-0.434596,-0.92428,-0.156696,0.092757,0.343993
-0.0693494,0.256798,-2.60133,0.0322847,-0.348684,-1.1083,-0.110667,0.112627,0.316537
-0.0682397,0.257899,-2.62504,-0.0711132,-0.112026,-1.1804,-0.0549943,0.143508,0.274126
-0.0608955,0.25756,-2.64946,-0.110546,0.230334,-1.16645,-0.0215634,0.169623,0.260861
-0.0477566,0.256505,-2.67257,-0.121186,0.448011,-1.0527,0.00764811,0.181253,0.280389
-0.0344004,0.255361,-2.69262,-0.0569666,0.344787,-0.877273,0.0388936,0.163773,0.295918
-0.0264002,0.256251,-2.70833,0.116981,0.028554,-0.63951,0.0585857,0.168876,0.288711
-0.0275435,0.261174,-2.71854,0.350616,-0.424445,-0.365088,0.0688729,0.184195,0.281944
-0.0385842,0.270127,-2.72366,0.493497,-0.773967,-0.190358,0.0408684,0.177041,0.274528
-0.0541682,0.279268,-2.72711,0.365166,-0.843422,-0.20633,-0.00722099,0.136416,0.282006
-0.0683065,0.283802,-2.7323,0.0358948,-0.692739,-0.333328,-0.0368328,0.10473,0.273616
-0.0773358,0.281342,-2.74127,-0.337248,-0.464255,-0.510198,-0.0613378,0.0838889,0.241794
-0.0814634,0.272751,-2.75452,-0.600251,-0.335756,-0.693277,-0.0509225,0.0507231,0.184632
-0.083777,0.260843,-2.7714,-0.700501,-0.357735,-0.820424,-0.011452,0.0240698,0.11699
-0.086218,0.248534,-2.78985,-0.6669,-0.335947,-0.843238,0.0387724,0.0126152,0.0393585
-0.0875435,0.237231,-2.80757,-0.614479,-0.217667,-0.768001,0.0869818,-0.00203313,0.00557798
-0.0866125,0.226554,-2.82321,-0.593029,-0.0569507,-0.660247,0.110981,-0.0338627,0.00491208
-0.0841761,0.215555,-2.83663,-0.627898,-0.00638441,-0.554233,0.124032,-0.0828329,0.0182142
-0.0825851,0.203407,-2.84776,-0.668723,-0.0841579,-0.435717,0.124736,-0.136509,-0.00282043
-0.0838673,0.190835,-2.85673,-0.660056,-0.235811,-0.35079,0.11182,-0.184619,-0.0702956
-0.0884967,0.178478,-2.86481,-0.643046,-0.346142,-0.350261,0.0867027,-0.238652,-0.158621
-0.093595,0.166512,-2.87359,-0.627184,-0.302646,-0.41031,0.0839565,-0.293774,-0.272084
-0.0964767,0.155524,-2.88363,-0.556039,-0.140274,-0.466121,0.0912888,-0.312251,-0.40178
-0.096202,0.146364,-2.89394,-0.455528,0.00165886,-0.450967,0.104869,-0.299181,-0.502907
-0.0938661,0.139423,-2.9033,-0.318718,0.107216,-0.401103,0.131683,-0.278585,-0.562449
-0.0888718,0.135463,-2.91127,-0.155021,0.287749,-0.349062,0.165762,-0.261008,-0.587519
-0.0888718,0.135463,-2.91127,-0.155021,0.287749,-0.349062,0.165762,-0.261008,-0.587519
-0.0800586,0.134357,-2.91774,-0.0188239,0.506201,-0.274544,0.20677,-0.244435,-0.555353
-0.067411,0.135236,-2.92194,0.0732447,0.691946,-0.138189,0.242816,-0.226427,-0.493009
-0.0528201,0.13781,-2.92248,0.20012,0.730419,0.0855423,0.261981,-0.20401,-0.424543
-0.0402053,0.144262,-2.91793,0.49619,0.582992,0.334387,0.254239,-0.186881,-0.37778
-0.0315211,0.157891,-2.90859,0.911224,0.455341,0.536653,0.219021,-0.151419,-0.318273
-0.0244935,0.179495,-2.89547,1.25967,0.489193,0.689303,0.182865,-0.109569,-0.203602
-0.0167746,0.205714,-2.88006,1.36064,0.594837,0.762232,0.145189,-0.0705449,-0.0454837
-0.00723003,0.231806,-2.86388,1.25293,0.688684,0.78797,0.116763,-0.0575722,0.0909798
0.00169224,0.254663,-2.84775,1.03748,0.562221,0.765509,0.0816753,-0.0531349,0.179112
0.00654361,0.273745,-2.83261,0.885592,0.312047,0.710213,0.0442677,-0.0421761,0.187827
0.00655705,0.291219,-2.81862,0.887812,0.103094,0.647422,0.00380516,-0.0034374,0.13776
0.00422429,0.310302,-2.80597,1.03141,0.0584106,0.576387,-0.0260867,0.0451684,0.109353
0.00226819,0.332361,-2.79483,1.16557,0.100558,0.474089,-0.0578081,0.0892766,0.137731
0.00226425,0.355734,-2.78697,1.14953,0.171189,0.262774,-0.112047,0.124722,0.208736
0.0061206,0.376887,-2.78403,0.943163,0.337437,0.0197927,-0.119506,0.145234,0.257831
0.016821,0.39261,-2.7864,0.630186,0.675699,-0.210678,-0.0870736,0.181033,0.259461
0.0372108,0.40225,-2.79231,0.369202,1.15947,-0.288385,-0.0299146,0.23234,0.222524
0.0680101,0.407393,-2.79853,0.187801,1.6372,-0.238479,0.0194371,0.255623,0.199604
0.103303,0.410208,-2.80199,0.155196,1.69645,-0.0426775,0.0444283,0.271923,0.1952
0.134846,0.41517,-2.80109,0.355234,1.46132,0.183614,0.0572202,0.239924,0.157122
0.157671,0.425653,-2.79619,0.606396,0.993523,0.414351,0.0542728,0.22247,0.166455
0.167697,0.441044,-2.78716,0.758084,0.379418,0.650098,0.0461124,0.216557,0.201374
0.164334,0.458806,-2.77374,0.760194,-0.0954131,0.821145,0.0283723,0.192573,0.209973
0.152836,0.474782,-2.75779,0.574477,-0.308205,0.82261,-0.0168875,0.144004,0.178723
0.138998,0.485929,-2.74201,0.320072,-0.338187,0.723305,-0.0601189,0.101856,0.120113
0.125412,0.491501,-2.72805,0.087455,-0.368329,0.571401,-0.0984818,0.0700179,0.0450352
0.113058,0.492944,-2.71726,-0.0601137,-0.372794,0.390293,-0.111592,0.035569,-0.0474407
0.101254,0.490808,-2.71027,-0.225095,-0.489354,0.208968,-0.108298,0.0245155,-0.108923
0.0892475,0.485466,-2.70617,-0.328846,-0.503287,0.119362,-0.091572,0.0221931,-0.195601
0.0780012,0.478902,-2.70289,-0.340973,-0.464981,0.126655,-0.056125,0.0354965,-0.262078
0.0681353,0.472681,-2.69911,-0.313029,-0.355932,0.165178,-0.049387,0.0446762,-0.29154
0.0593083,0.466555,-2.69486,-0.344623,-0.350928,0.163929,-0.0449735,0.00791749,-0.282672
0.0504473,0.458924,-2.69156,-0.44544,-0.397963,0.0913047,-0.0420193,-0.0436191,-0.279324
0.0414035,0.449165,-2.68979,-0.531978,-0.430207,0.0320706,-0.0351498,-0.0604461,-0.297487
0.0321169,0.43854,-2.68884,-0.517099,-0.468408,0.0192208,-0.0257769,-0.0514255,-0.316072
0.022087,0.42933,-2.68818,-0.402809,-0.50703,0.010843,-0.0373539,-0.0295998,-0.317494
0.0115535,0.422423,-2.68797,-0.299688,-0.544275,-0.00734757,-0.0465637,-0.0345017,-0.280513
0.000639087,0.416861,-2.68867,-0.265925,-0.569136,-0.0719797,-0.0625045,-0.0467375,-0.235446
-0.00890066,0.411923,-2.69131,-0.224653,-0.470635,-0.173982,-0.0805433,-0.046832,-0.214055
-0.0139798,0.408425,-2.69652,-0.121981,-0.230495,-0.289808,-0.0823854,-0.0365512,-0.198752
-0.01372,0.407452,-2.70329,0.0141412,-0.0372362,-0.315637,-0.065025,-0.000991315,-0.136381
-0.0117196,0.408905,-2.70959,0.118978,-0.0412061,-0.25322,-0.0422101,0.039679,-0.0356463
-0.012578,0.411976,-2.71406,0.179077,-0.247897,-0.164018,-0.0395764,0.0723264,0.0556021
-0.0187979,0.415848,-2.71707,0.194476,-0.479785,-0.133051,-0.0675067,0.0922286,0.110886
-0.027533,0.419454,-2.72046,0.155069,-0.494332,-0.194114,-0.105976,0.0949139,0.131197
-0.0337016,0.422442,-2.72549,0.136738,-0.310941,-0.275413,-0.114821,0.11612,0.143155
-0.0351199,0.425512,-2.73205,0.153158,-0.125831,-0.330102,-0.102204,0.142493,0.183017
-0.034534,0.42891,-2.73902,0.171065,-0.141093,-0.299598,-0.0645629,0.159227,0.239734
-0.0363126,0.433689,-2.74462,0.30794,-0.263005,-0.231722,-0.030533,0.158029,0.24415
-0.0401997,0.441705,-2.74914,0.468366,-0.306748,-0.218337,-0.0349116,0.161993,0.266468
-0.0440175,0.45146,-2.75376,0.457263,-0.268513,-0.242827,-0.0180836,0.158997,0.325041
-0.0461691,0.459179,-2.75937,0.27015,-0.190876,-0.299696,0.0106103,0.155905,0.380142
-0.0459755,0.462221,-2.76634,0.00311413,-0.112477,-0.332724,0.0419147,0.15576,0.40245
-0.0447249,0.45996,-2.77383,-0.251801,-0.109406,-0.324753,0.0579923,0.159702,0.393999
-0.0447249,0.45996,-2.77383,-0.251801,-0.109406,-0.324753,0.0579923,0.159702,0.393999
-0.0448386,0.453374,-2.78097,-0.420041,-0.237187,-0.280899,0.0836455,0.152265,0.346176
-0.0489777,0.444503,-2.78679,-0.479125,-0.430002,-0.198133,0.0921742,0.135164,0.270684
-0.056723,0.434828,-2.79099,-0.511016,-0.500137,-0.130335,0.0602365,0.107686,0.183499
-0.0653422,0.424429,-2.79402,-0.556206,-0.478794,-0.0916337,0.0267722,0.0661586,0.10365
-0.0732561,0.412495,-2.79729,-0.667409,-0.463856,-0.133723,-0.016002,0.00966123,0.05893
-0.0805432,0.398423,-2.80191,-0.757268,-0.428313,-0.170376,-0.0260654,-0.0339711,-0.00152558
-0.0857965,0.383599,-2.80689,-0.736158,-0.267507,-0.15282,-0.0223126,-0.0530159,-0.0618204
-0.0870781,0.370952,-2.81048,-0.540618,0.00797274,-0.0604443,-0.0301533,-0.0520785,-0.117157
-0.0847833,0.362515,-2.81114,-0.308949,0.167206,0.0649188,-0.0221707,-0.0788144,-0.0986698
-0.0814778,0.357881,-2.80959,-0.1655,0.203708,0.103552,-0.0445423,-0.133047,-0.0224749
-0.0787189,0.354687,-2.80782,-0.148201,0.110973,0.0829622,-0.0741148,-0.169976,0.0342928
-0.0791702,0.352049,-2.80696,-0.0986824,-0.141011,0.00560305,-0.075528,-0.207714,0.021574
-0.084165,0.35113,-2.80828,-0.0089882,-0.40514,-0.11574,-0.0645116,-0.216923,-0.0304648
-0.09272,0.351498,-2.81127,0.0115969,-0.509241,-0.157537,-0.0123474,-0.199,-0.0933425
-0.100291,0.351715,-2.81462,-0.027451,-0.308422,-0.1551,-0.000549234,-0.169835,-0.165742
-0.10214,0.351247,-2.8174,-0.0383806,0.0341245,-0.0918635,-0.0174987,-0.128587,-0.238175
-0.0971651,0.350864,-2.81917,-0.00351892,0.379683,-0.0955515,-0.0468833,-0.137095,-0.27771
-0.0870908,0.35167,-2.82221,0.0354082,0.499892,-0.210784,-0.0472335,-0.153047,-0.23813
-0.0740059,0.352164,-2.82779,-0.0347392,0.615605,-0.294179,0.00662598,-0.165064,-0.177054
-0.0584583,0.351001,-2.83428,-0.131552,0.72397,-0.308337,0.0569532,-0.144581,-0.144652
-0.0404806,0.347186,-2.84139,-0.299986,0.842455,-0.353789,0.109893,-0.148623,-0.108914
-0.0196068,0.339084,-2.85006,-0.539847,0.941517,-0.440533,0.154247,-0.163806,-0.100945
0.00229826,0.325769,-2.86022,-0.797716,0.902271,-0.497028,0.200063,-0.153931,-0.124116
0.0218895,0.308419,-2.86966,-0.87893,0.755375,-0.391841,0.255787,-0.119925,-0.212605
0.0371563,0.293561,-2.87464,-0.533579,0.666522,-0.108691,0.315668,-0.0802202,-0.342468
0.0504415,0.289483,-2.87325,0.147501,0.719861,0.22255,0.332919,-0.0515188,-0.401302
0.0640018,0.298531,-2.86647,0.642281,0.835723,0.462014,0.283826,-0.0269129,-0.305053
0.077805,0.31203,-2.85684,0.5689,0.819213,0.519649,0.213136,-0.0557099,-0.115406
0.0904286,0.32119,-2.8477,0.286876,0.726526,0.409422,0.138266,-0.069375,-0.0551233
0.101848,0.327005,-2.84095,0.289282,0.630143,0.298554,0.102889,-0.0222366,-0.132819
0.111663,0.335585,-2.8357,0.516074,0.528493,0.308143,0.105417,0.0742557,-0.151415
0.119533,0.348177,-2.82961,0.649781,0.479283,0.422015,0.0953505,0.142683,-0.0694273
0.126161,0.362561,-2.82095,0.670259,0.496103,0.551539,0.0497578,0.180277,0.0343873
0.13264,0.377142,-2.81044,0.651949,0.530141,0.597322,-0.0204939,0.196954,0.134247
0.139871,0.390878,-2.79934,0.563167,0.614227,0.56883,-0.0844511,0.193256,0.248767
0.150361,0.403115,-2.78957,0.515797,0.765703,0.539682,-0.125322,0.214261,0.344463
0.161161,0.414157,-2.77952,0.433049,0.746247,0.546375,-0.141329,0.22563,0.427809
0.170536,0.42384,-2.76875,0.36427,0.57469,0.586085,-0.101776,0.21615,0.484537
0.17462,0.432177,-2.75655,0.257289,0.363865,0.649572,-0.0924677,0.214793,0.521002
0.174668,0.439114,-2.74297,0.225294,0.16779,0.707311,-0.0434487,0.201139,0.495376
0.167657,0.446093,-2.72732,0.223884,-0.162926,0.8104,-0.00979534,0.196383,0.427591
0.155915,0.45271,-2.70958,0.149461,-0.218213,0.866346,0.0107493,0.173336,0.34844
0.143096,0.456403,-2.69091,-0.0424092,-0.256421,0.836555,-0.00284332,0.110415,0.270076
0.129266,0.455657,-2.67303,-0.240655,-0.341178,0.744711,0.00820793,0.0454757,0.155678
0.116481,0.449719,-2.65676,-0.534868,-0.172478,0.644697,0.0370001,0.0092667,0.0230833
0.107821,0.439494,-2.64085,-0.623853,-0.114016,0.666654,0.0701256,0.00269121,-0.146324
0.0977933,0.428872,-2.62536,-0.58193,-0.224783,0.603003,0.029659,-0.0354941,-0.24231
0.0876429,0.418706,-2.61296,-0.54442,-0.253099,0.410981,-0.0120984,-0.0856696,-0.342851
0.0813063,0.408327,-2.60594,-0.555072,-0.0767288,0.152235,-0.033463,-0.113485,-0.40156
0.0810837,0.397166,-2.60313,-0.585935,0.173842,0.0443145,0.0121475,-0.0753058,-0.396863
0.0853774,0.385227,-2.60053,-0.630994,0.308362,0.115765,0.0621195,-0.0420463,-0.332461
0.0885922,0.372823,-2.5955,-0.646412,0.142148,0.251166,0.0901938,-0.044171,-0.27079
0.0849802,0.360934,-2.58774,-0.59843,-0.223712,0.356989,0.0728126,-0.0642253,-0.26332
0.0849802,0.360934,-2.58774,-0.59843,-0.223712,0.356989,0.0728126,-0.0642253,-0.26332
0.0748306,0.350415,-2.57921,-0.517508,-0.468917,0.342017,0.0214877,-0.0800213,-0.302793
0.0625566,0.341097,-2.57176,-0.470526,-0.471136,0.294431,-0.00424193,-0.0676396,-0.340308
0.0527558,0.332369,-2.56527,-0.431066,-0.282727,0.275013,-0.0115459,-0.0368608,-0.348264
0.0468322,0.325186,-2.55873,-0.292876,-0.124621,0.31966,-0.0109601,-0.000445873,-0.318737
0.0424477,0.32228,-2.5515,-0.0158064,-0.0901722,0.346533,-0.00124878,0.0295898,-0.255738
0.0390111,0.32478,-2.54422,0.21328,-0.0192663,0.362967,0.0103858,0.0502101,-0.137168
0.0367731,0.330195,-2.53628,0.278657,0.0579521,0.413195,0.032009,0.0766846,0.00858718
0.0362559,0.335497,-2.52727,0.195982,0.182895,0.454914,0.0199569,0.097625,0.126686
0.0368038,0.337887,-2.51733,0.00122609,0.176141,0.487983,-0.0142835,0.105603,0.220345
0.035851,0.336195,-2.50737,-0.206259,0.0475594,0.428979,-0.0818256,0.0968808,0.253911
0.03239,0.330614,-2.49945,-0.357376,-0.135187,0.304507,-0.129721,0.0906756,0.233357
0.0265584,0.323867,-2.49393,-0.292085,-0.255132,0.206824,-0.143598,0.089841,0.15657
0.0203878,0.320506,-2.49,-0.0440561,-0.208008,0.167737,-0.139496,0.112181,0.0938832
0.0170779,0.322216,-2.48637,0.191142,-0.00677739,0.186067,-0.117517,0.125782,0.105319
0.0173271,0.327855,-2.48195,0.36218,0.178399,0.246808,-0.0798341,0.123038,0.1669
0.0205908,0.336303,-2.47672,0.453241,0.286889,0.259162,-0.10252,0.132367,0.258997
0.0255328,0.344933,-2.47206,0.371199,0.381316,0.18145,-0.118844,0.105132,0.348216
0.0328509,0.350248,-2.46966,0.148882,0.399788,0.0774531,-0.0919471,0.0788025,0.399368
0.0387814,0.351846,-2.46794,0.0463076,0.236507,0.119666,-0.0188031,0.0685079,0.349745
0.0396584,0.353826,-2.46398,0.142713,-0.0143691,0.266356,0.0404295,0.0966417,0.275604
0.0347804,0.357788,-2.4567,0.21025,-0.203579,0.424481,0.0524049,0.0908802,0.255703
0.0263652,0.361839,-2.44739,0.151539,-0.293592,0.432894,-0.00410153,0.041266,0.247773
0.0175034,0.363573,-2.43937,-0.0126545,-0.303356,0.312246,-0.0337382,-0.00751281,0.246241
0.00994639,0.360863,-2.43399,-0.273027,-0.248948,0.196602,-0.0371834,-0.0241457,0.23384
0.00491317,0.35287,-2.4305,-0.522004,-0.136615,0.134239,-0.0348991,-0.027439,0.198856
0.00202093,0.340726,-2.4279,-0.67891,-0.0698667,0.111917,-0.0115331,-0.0444909,0.15801
0.000417074,0.326547,-2.42571,-0.728524,-0.0193438,0.095059,-0.0177748,-0.0583301,0.123135
0.000128234,0.3125,-2.42395,-0.661031,0.0537874,0.0651846,-0.0326233,-0.0872297,0.0852959
0.00129693,0.300646,-2.42306,-0.530636,0.0741352,0.0209549,-0.038928,-0.110479,0.0801598
0.00221831,0.29106,-2.42287,-0.437157,-0.000519075,0.00118868,-0.0630229,-0.107259,0.110801
0.000280036,0.283267,-2.42276,-0.336787,-0.204343,0.00998513,-0.0691471,-0.113313,0.131504
-0.00619723,0.277947,-2.42251,-0.194925,-0.431323,0.0173933,-0.0612099,-0.118516,0.124963
-0.0155976,0.275354,-2.42185,-0.0823942,-0.439634,0.04927,-0.032888,-0.121805,0.097588
-0.0221578,0.273454,-2.42091,-0.144019,-0.163146,0.0314847,-0.0202933,-0.139929,0.104819
-0.0220546,0.268191,-2.4212,-0.412813,0.146505,-0.0483759,0.00347273,-0.182294,0.132948
-0.0181767,0.256862,-2.42286,-0.701302,0.146062,-0.0699042,0.0565045,-0.214566,0.113318
-0.0170063,0.242269,-2.42381,-0.714207,-0.0713825,0.0151442,0.121001,-0.2109,-0.032869
-0.0212562,0.229494,-2.42246,-0.563204,-0.3068,0.149428,0.172827,-0.19645,-0.190669
-0.0293284,0.218902,-2.41811,-0.520987,-0.399765,0.2924,0.177932,-0.188345,-0.290854
-0.0395978,0.207139,-2.41182,-0.643954,-0.506022,0.352411,0.145721,-0.198758,-0.375644
-0.0518737,0.193762,-2.4055,-0.621961,-0.563449,0.315664,0.13813,-0.221587,-0.535628
-0.0623238,0.183703,-2.40004,-0.31765,-0.336159,0.303239,0.121233,-0.16973,-0.685239
-0.0655137,0.181022,-2.3927,0.0913413,0.180736,0.456478,0.130468,-0.0870697,-0.680834
-0.0589459,0.185087,-2.38137,0.338479,0.641535,0.616797,0.14247,-0.0571336,-0.49187
-0.0458001,0.19158,-2.3679,0.347006,0.900316,0.661954,0.136133,-0.0842019,-0.223381
-0.0295541,0.196666,-2.35402,0.204723,0.955812,0.687815,0.117512,-0.076282,-0.00363725
-0.0146953,0.199416,-2.33949,0.124215,0.805337,0.742922,0.126769,-0.0574878,0.113942
-0.00311975,0.202148,-2.32337,0.173276,0.704775,0.848981,0.142522,-0.0186167,0.135944
0.00891769,0.206332,-2.30467,0.237882,0.933957,0.988833,0.151748,0.00951317,0.131124
0.0271614,0.213712,-2.28304,0.739718,1.20534,1.13158,0.135752,0.0435712,0.154884
0.0348275,0.234551,-2.25991,1.11581,-0.00863335,1.28563,0.285652,0.0289305,0.306547
0.0226324,0.254401,-2.22993,0.715018,-0.391021,1.69036,0.315256,0.0438106,0.455939
0.00494389,0.263719,-2.19233,0.180877,-0.303817,1.9287,0.269275,0.0598208,0.36779
-0.00815703,0.262459,-2.15186,-0.289918,0.0279911,1.9794,0.242344,-0.000324458,0.216989
-0.00815703,0.262459,-2.15186,-0.289918,0.0279911,1.9794,0.242344,-0.000324458,0.216989
-0.015883,0.25313,-2.11105,-0.519654,0.203488,1.98135,0.249446,-0.00418776,0.0565426
-0.0224231,0.245177,-2.07001,-0.147176,0.127902,2.02449,0.299979,0.0165619,-0.106657
