attitude_roll,attitude_pitch,attitude_yaw,rotationRate_x,rotationRate_y,rotationRate_z,acceleration_x,acceleration_y,acceleration_z
0.0981667,0.16697,-0.00822109,-0.4315,-0.510127,-0.0519838,-0.0528076,0.26257,-0.0910423
0.087397,0.162023,-0.00894977,-0.0465383,-0.58966,-0.026501,-0.0678474,0.258223,-0.140643
0.0756819,0.164728,-0.00714559,0.280279,-0.452363,0.253711,-0.0626995,0.199614,-0.0790592
0.0706697,0.171979,0.000803598,0.325998,0.0989074,0.561511,-0.0845534,0.158376,0.0106056
0.0742849,0.177731,0.0136787,0.139422,0.430092,0.707614,-0.08646,0.152703,0.0274162
0.081593,0.179988,0.0278297,0.00229659,0.517204,0.663515,-0.0673838,0.156801,0.104093
0.088773,0.180857,0.039866,0.00447846,0.387427,0.502969,-0.0197819,0.170122,0.13895
0.0937199,0.182731,0.0481437,0.120202,0.274743,0.325184,0.0148936,0.167571,0.161775
0.0978281,0.187322,0.0532286,0.284858,0.22265,0.230874,0.00770465,0.161814,0.159663
0.100896,0.194887,0.0573585,0.408955,0.155096,0.264236,0.000165574,0.146002,0.151114
0.102092,0.204214,0.062954,0.442774,0.0690568,0.37697,0.00495479,0.117486,0.157273
0.100932,0.213756,0.0708766,0.421092,-0.0050428,0.473236,0.000348285,0.103993,0.164727
0.0985991,0.222926,0.0801186,0.394564,-0.0244395,0.499551,0.00191216,0.103164,0.186369
0.0957333,0.231438,0.0891442,0.357276,-0.056977,0.443378,0.00405309,0.0922466,0.171502
0.0932289,0.238825,0.0967794,0.301577,-0.00526577,0.360902,0.00148263,0.0718582,0.174291
0.0920274,0.244597,0.102942,0.21354,0.0232116,0.292174,0.000589982,0.057488,0.153858
0.0910431,0.248461,0.108227,0.121549,-0.015986,0.254681,0.00829475,0.043261,0.133979
0.0880946,0.250337,0.113083,0.0253469,-0.157733,0.231829,0.019086,0.033848,0.10115
0.0824473,0.250585,0.117702,-0.0373681,-0.279586,0.207444,0.0194003,0.0294343,0.0879438
0.074966,0.249576,0.121566,-0.0928177,-0.367937,0.152284,0.0163987,0.032439,0.0671563
0.0664782,0.247747,0.12442,-0.099178,-0.381189,0.116549,0.0093752,0.0306664,0.0470226
0.0583275,0.246228,0.12681,-0.0599689,-0.388334,0.108218,0.0105109,0.0320316,0.0134013
0.0496768,0.245886,0.129125,0.0160301,-0.410154,0.120358,0.0202424,0.0410845,-0.0194337
0.0406862,0.247013,0.131937,0.0788476,-0.395237,0.157734,0.032459,0.0340447,-0.0525483
0.0326073,0.248816,0.135521,0.0758937,-0.343177,0.189418,0.0314518,0.0345563,-0.073318
0.0238152,0.250159,0.139547,0.0484075,-0.451198,0.199686,0.0367275,0.0592341,-0.115188
0.0122915,0.251305,0.143978,0.0640026,-0.596573,0.230872,0.00497112,0.0945541,-0.136602
-0.00226495,0.252909,0.149155,0.0908517,-0.705592,0.261192,-0.0136152,0.109612,-0.17073
-0.0190212,0.25442,0.154217,0.0458759,-0.844478,0.204168,-0.0459386,0.129125,-0.244707
-0.0371035,0.253829,0.156589,-0.119473,-0.856474,0.0148318,-0.0429205,0.137633,-0.257547
-0.051995,0.249208,0.154615,-0.357074,-0.644258,-0.167723,0.00176676,0.10241,-0.226492
-0.0613955,0.239732,0.149789,-0.615371,-0.445126,-0.225293,0.0200209,0.0553596,-0.217501
-0.0696639,0.224836,0.144071,-0.897492,-0.538422,-0.235302,-0.0016177,0.0383613,-0.270225
-0.0799609,0.205159,0.13712,-1.07857,-0.597972,-0.303601,-0.0698402,0.028048,-0.308539
-0.0883347,0.18421,0.127882,-1.03584,-0.363984,-0.420568,-0.101734,0.0119971,-0.291153
-0.0894125,0.166577,0.11664,-0.779714,0.0829776,-0.509113,-0.0869456,0.0108392,-0.207448
-0.0812379,0.155055,0.105238,-0.466404,0.510941,-0.490554,-0.0621285,0.00964414,-0.0761838
-0.0683379,0.148729,0.0956966,-0.253671,0.549952,-0.385649,-0.031163,0.000125185,0.00299406
-0.0601756,0.145162,0.0889901,-0.148265,0.109123,-0.252821,-0.0078456,-0.0191047,0.00806201
-0.0626338,0.143619,0.0850182,-0.00845633,-0.356402,-0.12916,-0.00853193,-0.0229965,0.0246291
-0.0712603,0.145668,0.0837627,0.209464,-0.463411,-0.0066873,-0.0511514,-0.0161017,0.0745142
-0.0796326,0.15207,0.0855417,0.430702,-0.310217,0.131392,-0.0731335,-0.0280506,0.123236
-0.084162,0.162032,0.090116,0.573771,-0.0748755,0.220702,-0.0795446,-0.0389933,0.185114
-0.0854144,0.17342,0.0956704,0.57904,0.010137,0.209324,-0.0678551,-0.0329077,0.211939
-0.0866524,0.183708,0.0999981,0.460298,-0.0635263,0.11615,-0.0418197,-0.0306262,0.233345
-0.0894958,0.19112,0.102015,0.289012,-0.178677,0.019729,-0.0145764,-0.0367264,0.253925
-0.093713,0.195363,0.102116,0.139525,-0.219554,-0.0413258,-0.0104839,-0.0363158,0.270771
-0.0970869,0.197492,0.101262,0.0734052,-0.103669,-0.0547379,-0.0106628,-0.0415362,0.288856
-0.0973192,0.199033,0.100449,0.076353,0.0508366,-0.0372762,-0.0109843,-0.0381035,0.285206
-0.0956735,0.20077,0.100288,0.0958821,0.0990672,0.00562406,0.0118216,-0.0425038,0.270644
-0.0944122,0.202955,0.101029,0.124862,0.0152832,0.0416485,0.0212921,-0.0463758,0.231003
-0.0944122,0.202955,0.101029,0.124862,0.0152832,0.0416485,0.0212921,-0.0463758,0.231003
-0.0957024,0.205592,0.102179,0.150577,-0.108323,0.0432122,0.0227279,-0.0464943,0.201267
-0.0988791,0.208888,0.103282,0.185757,-0.177176,0.0282779,0.0131523,-0.0377301,0.178943
-0.102519,0.212667,0.104153,0.187526,-0.162865,0.0211447,0.0130126,-0.0407637,0.160709
-0.106228,0.215547,0.104871,0.0914065,-0.203505,0.0286585,0.0251446,-0.0560155,0.109521
-0.111745,0.215878,0.105813,-0.0521763,-0.342892,0.063372,0.0243291,-0.076063,0.0380489
-0.120878,0.213351,0.107361,-0.166349,-0.525157,0.113458,0.0174169,-0.0835064,-0.0413554
-0.132482,0.209216,0.10924,-0.20889,-0.548289,0.111784,-0.0133637,-0.076868,-0.104536
-0.142198,0.205026,0.110354,-0.182938,-0.374224,0.0376902,-0.0503209,-0.0597281,-0.166675
-0.146647,0.202252,0.109397,-0.100043,-0.0816612,-0.0939535,-0.0720514,-0.0416317,-0.210601
-0.14491,0.201536,0.106058,-0.0201239,0.182473,-0.208271,-0.0594321,-0.0217493,-0.243033
-0.138327,0.202494,0.101335,0.0471945,0.377715,-0.239472,-0.0513779,-0.0083143,-0.23917
-0.127893,0.204604,0.0975461,0.104725,0.572241,-0.136101,-0.0381102,-0.0110239,-0.190141
-0.115766,0.206811,0.0968449,0.0959774,0.580737,0.0485947,-0.0214602,-0.0116706,-0.190931
-0.106536,0.207721,0.0996643,0.00797093,0.357163,0.196288,-0.0317542,-0.00138032,-0.217962
-0.103556,0.205834,0.103765,-0.155953,0.0544845,0.202701,-0.0685496,0.0326003,-0.28972
-0.10263,0.201509,0.106513,-0.219663,0.163525,0.104563,-0.0850173,0.0408463,-0.259368
-0.0963352,0.197524,0.107417,-0.153341,0.475007,0.03162,-0.0554796,0.0580432,-0.176945
-0.0843159,0.195418,0.107937,-0.0498931,0.717287,0.060087,-0.0141277,0.0770652,-0.0655022
-0.0685591,0.195105,0.110397,0.0294384,0.871539,0.19122,0.0104277,0.0652686,0.0494776
-0.0525057,0.195741,0.115915,0.0568436,0.791145,0.342612,0.0376701,0.0492907,0.0986164
-0.0405224,0.19651,0.124404,0.0587509,0.559594,0.471952,0.0594612,0.0293088,0.122359
-0.0335635,0.197247,0.13501,0.0543717,0.350528,0.544692,0.0691003,0.0113543,0.126496
-0.0303978,0.198053,0.146259,0.0625712,0.198859,0.534039,0.0506729,0.0113204,0.10686
-0.0291361,0.199273,0.156531,0.0898424,0.140978,0.459951,0.0413575,0.00914504,0.103742
-0.0287194,0.200998,0.165274,0.108276,0.0771881,0.394512,0.0510103,0.00790511,0.106859
-0.0292559,0.203059,0.173179,0.118372,0.0422898,0.378479,0.051722,0.00736076,0.12793
-0.0297931,0.205226,0.181195,0.120105,0.0722638,0.396213,0.0477335,0.0122905,0.156086
-0.0291372,0.207256,0.189455,0.103984,0.171662,0.393704,0.0397705,0.0263774,0.193318
-0.0260167,0.208952,0.197532,0.0848838,0.289724,0.388864,0.0336724,0.0400766,0.245694
-0.0217152,0.210222,0.205847,0.0592583,0.287454,0.419781,0.0312757,0.0354595,0.263978
-0.0184896,0.210986,0.214937,0.0389216,0.221067,0.455407,0.0173461,0.0309882,0.264767
-0.016594,0.211691,0.224312,0.0502009,0.170608,0.448323,0.00174216,0.0349736,0.257831
-0.0148795,0.212897,0.233307,0.0810613,0.196057,0.420772,0.00262592,0.0331914,0.242391
-0.0124329,0.214238,0.241511,0.0510303,0.214702,0.376306,0.0166649,0.0352193,0.191312
-0.00943442,0.214416,0.248986,-0.0289396,0.234546,0.354545,0.0331745,0.0309379,0.147452
-0.00662196,0.21272,0.256046,-0.137172,0.170994,0.336151,0.0176268,0.0497119,0.0734777
-0.00605965,0.208744,0.263157,-0.255054,0.0296987,0.366384,-0.000389091,0.0646685,-0.0095647
-0.00819458,0.202593,0.271451,-0.344363,-0.0671293,0.454469,-0.0270073,0.0655598,-0.0932082
-0.0126064,0.195241,0.28163,-0.366391,-0.182672,0.534353,-0.0477378,0.058825,-0.180973
-0.0204799,0.187987,0.292286,-0.337819,-0.407353,0.493549,-0.0806819,0.0823136,-0.264986
-0.0327492,0.180983,0.300436,-0.347505,-0.652631,0.298955,-0.0984372,0.103169,-0.333495
-0.0472282,0.17351,0.303394,-0.389528,-0.682671,0.0180263,-0.0903238,0.111225,-0.339936
-0.0581808,0.16547,0.300899,-0.420433,-0.417149,-0.194964,-0.0745127,0.115903,-0.298668
-0.0624302,0.157118,0.29587,-0.444774,-0.0786902,-0.211935,-0.0544677,0.109552,-0.255529
-0.0603392,0.147892,0.292555,-0.496907,0.208834,-0.0335473,-0.0346702,0.0682669,-0.227194
-0.0552441,0.137117,0.293417,-0.575316,0.273745,0.165188,-0.0032399,0.0309447,-0.223162
-0.0515261,0.124271,0.296814,-0.687486,0.101827,0.205882,0.00383435,0.0275007,-0.236354
-0.0525048,0.109223,0.298994,-0.787744,-0.165315,0.0644787,-0.0258808,0.032239,-0.267171
-0.0571866,0.0932483,0.297295,-0.782439,-0.278238,-0.148822,-0.069634,0.0278057,-0.282644
-0.0606958,0.0793631,0.29167,-0.596921,-0.058539,-0.312789,-0.0955993,0.0366774,-0.223642
-0.0606958,0.0793631,0.29167,-0.596921,-0.058539,-0.312789,-0.0955993,0.0366774,-0.223642
-0.0568954,0.0707618,0.284151,-0.296107,0.392718,-0.356943,-0.0934699,0.050958,-0.105542
-0.0443181,0.0681177,0.277583,-0.0144593,0.778662,-0.261991,-0.0850564,0.0548052,0.0359622
-0.0266961,0.0697941,0.273954,0.145975,0.91112,-0.100968,-0.0951067,0.0540667,0.147555
-0.00894372,0.0733536,0.273605,0.189316,0.816076,0.0499964,-0.107932,0.0406341,0.225481
0.00489257,0.0769488,0.275415,0.164199,0.560408,0.110593,-0.111827,0.0352165,0.263508
0.0125715,0.079649,0.277054,0.108609,0.205134,0.0337558,-0.127552,0.0480249,0.249986
0.0135392,0.0814947,0.276253,0.0857234,-0.0841581,-0.121626,-0.147527,0.0348196,0.214256
0.0105818,0.0832991,0.271972,0.100252,-0.237114,-0.30085,-0.127793,0.00658845,0.208299
0.00573224,0.085605,0.264094,0.132453,-0.295976,-0.47135,-0.0976454,-0.00292417,0.203963
0.00120889,0.0883262,0.253195,0.124823,-0.232009,-0.599606,-0.0648028,-0.0208889,0.210258
-0.000597427,0.0900234,0.240353,0.0382748,-0.0456031,-0.656081,-0.0535127,-0.0306578,0.22883
0.00178694,0.0896314,0.227515,-0.0764273,0.154832,-0.601057,-0.049494,-0.0364956,0.249951
0.00665792,0.0873317,0.216606,-0.132763,0.215883,-0.473524,-0.0352733,-0.0564407,0.250714
0.0114273,0.0847338,0.2086,-0.107059,0.180502,-0.324232,-0.0265686,-0.0692676,0.239298
0.0149623,0.083228,0.203392,-0.0305342,0.132455,-0.195284,-0.0165274,-0.0847604,0.231656
0.0173906,0.0833551,0.200457,0.0461818,0.073806,-0.100424,0.00601656,-0.105371,0.223672
0.0177034,0.08485,0.19905,0.101692,-0.0747549,-0.0474379,0.0217136,-0.123015,0.194931
0.0140131,0.0870086,0.198087,0.105731,-0.302749,-0.049863,0.034487,-0.132767,0.138636
0.00634744,0.088458,0.196837,0.0266662,-0.435735,-0.0736708,0.0410559,-0.1453,0.0879585
-0.00216658,0.0875436,0.195208,-0.133225,-0.418697,-0.0921107,0.0400153,-0.174165,0.0541974
-0.00988775,0.0828923,0.19265,-0.329321,-0.377421,-0.169005,0.0569575,-0.177365,0.00330788
-0.0166922,0.0749333,0.188281,-0.448155,-0.323248,-0.246314,0.046033,-0.14999,-0.10228
-0.0225168,0.0655273,0.182923,-0.503802,-0.309174,-0.25715,0.0527095,-0.136363,-0.211551
-0.0293102,0.0547903,0.177684,-0.579731,-0.415538,-0.237771,0.0644488,-0.138657,-0.321052
-0.0379117,0.0432749,0.172281,-0.551419,-0.42638,-0.272312,0.0608163,-0.130826,-0.40206
-0.0433329,0.0348928,0.165543,-0.263561,-0.073697,-0.356767,0.0578956,-0.0781361,-0.417028
-0.0387414,0.034375,0.158593,0.182445,0.512485,-0.292532,0.0544101,-0.0139258,-0.381696
-0.024052,0.0410342,0.155499,0.418211,0.869499,-0.00308588,0.0880095,-0.00356343,-0.30063
-0.00688266,0.0494298,0.159355,0.392218,0.784243,0.367095,0.101112,-0.0264265,-0.265649
0.0042768,0.0563539,0.169264,0.293417,0.34737,0.578472,0.0822626,-0.0289572,-0.278971
0.00647296,0.0618728,0.180875,0.271904,-0.00881985,0.546683,0.0396057,-0.0101728,-0.281689
0.00433563,0.0686083,0.190775,0.419015,-0.112149,0.443745,-0.00534778,0.0230223,-0.235226
0.00189609,0.0793529,0.199066,0.647589,-0.0562827,0.390823,-0.0333385,0.0553897,-0.145452
0.0007472,0.0938813,0.206944,0.768531,0.00173131,0.405565,0.00116341,0.0662471,-0.0167482
0.000343824,0.109079,0.216144,0.710593,0.0509975,0.518985,0.0398804,0.0460122,0.0947189
0.000562059,0.121618,0.228086,0.523419,0.117197,0.655096,0.0555029,0.0232194,0.156066
0.00255894,0.130168,0.242206,0.343408,0.275858,0.723231,0.0434222,0.00472403,0.174688
0.00817179,0.136422,0.25684,0.28908,0.467409,0.714447,0.0038671,0.0180484,0.175612
0.0168345,0.142294,0.271035,0.277184,0.566217,0.698386,0.00436304,0.0159909,0.200599
0.025786,0.147875,0.28544,0.246494,0.506613,0.738202,0.0228838,0.00134018,0.234592
0.0314795,0.152908,0.300828,0.210356,0.272089,0.781085,0.0474757,-0.0102385,0.245274
0.0318629,0.157415,0.31674,0.197061,0.0266337,0.789763,0.065155,-0.0202211,0.249509
0.0286062,0.162255,0.332509,0.243326,-0.0805925,0.765765,0.0660269,-0.020905,0.250652
0.0246382,0.167909,0.347534,0.270821,-0.0618007,0.71899,0.0678281,-0.00354809,0.260585
0.0215349,0.173174,0.361885,0.20883,-0.00498215,0.703465,0.0736985,0.00646181,0.273419
0.0191598,0.176631,0.376133,0.11034,0.00852768,0.700577,0.0672753,0.00719604,0.260551
0.0166981,0.178637,0.390253,0.0782472,-0.00995748,0.68139,0.0895712,-0.00187659,0.232729
0.0141553,0.1807,0.403729,0.108695,-0.00588278,0.643661,0.115989,-0.0013576,0.214516
0.0114638,0.183097,0.416744,0.105262,-0.0182739,0.64722,0.134175,0.00897962,0.184056
0.0092391,0.185075,0.430517,0.0795761,0.0632738,0.705128,0.142011,0.00265449,0.155702
0.0092391,0.185075,0.430517,0.0795761,0.0632738,0.705128,0.142011,0.00265449,0.155702
0.0088028,0.187018,0.445479,0.109436,0.148606,0.748671,0.13399,0.0192273,0.106213
0.00832027,0.189572,0.460755,0.123754,0.063452,0.743466,0.119072,0.04522,0.033412
0.00516299,0.19181,0.475802,0.0721412,-0.0966288,0.725603,0.109083,0.0547869,-0.0130727
-0.000926066,0.192136,0.490238,-0.0584845,-0.217912,0.674762,0.089822,0.0735704,-0.0663755
-0.0080564,0.188826,0.503004,-0.269666,-0.222129,0.558298,0.064218,0.0873486,-0.135314
-0.0128497,0.181112,0.512832,-0.48217,-0.0628589,0.403488,0.0404864,0.0821465,-0.192951
-0.0136092,0.169706,0.519339,-0.631,0.0832407,0.258378,0.0440224,0.0838247,-0.248878
-0.0123614,0.156202,0.523569,-0.685358,0.100264,0.187084,0.0676763,0.072209,-0.307218
-0.0106134,0.142764,0.527157,-0.62491,0.141882,0.198782,0.0902477,0.0621401,-0.310095
-0.00730456,0.131647,0.532147,-0.471765,0.241089,0.321641,0.11239,0.0360067,-0.253308
-0.00367921,0.12297,0.540626,-0.416446,0.211509,0.523481,0.128468,-0.0110676,-0.185247
-0.00243389,0.113585,0.552714,-0.54924,0.0171486,0.646542,0.100776,-0.0431535,-0.163338
-0.00651591,0.100569,0.565345,-0.716745,-0.251339,0.570327,0.0214976,-0.0659055,-0.211602
-0.0128481,0.0862642,0.574069,-0.657055,-0.276365,0.288441,0.00547576,-0.0809417,-0.215532
-0.0188728,0.0752037,0.577222,-0.427336,-0.311122,0.078152,0.0196729,-0.0359663,-0.222242
-0.0255677,0.0684317,0.578643,-0.264669,-0.30674,0.11473,0.0282516,0.000644624,-0.217114
-0.0290946,0.0635678,0.582229,-0.219996,0.0354167,0.256743,0.00805088,0.0224332,-0.182328
-0.0234803,0.0593789,0.588505,-0.163503,0.553893,0.362324,-0.0167854,0.0373409,-0.151848
-0.00920163,0.0577058,0.59658,0.0357785,0.868545,0.45262,0.0197605,0.0245165,-0.123762
0.00784328,0.0614321,0.607515,0.340389,0.826153,0.65025,0.0179895,0.0368726,-0.0722143
0.0206788,0.0715023,0.622968,0.631472,0.533734,0.896151,-0.0447639,0.0648344,-0.00565237
0.0257004,0.0868413,0.642684,0.833267,0.106385,1.07773,-0.0992396,0.0767531,0.0510479
0.022055,0.105407,0.664626,0.936654,-0.233343,1.10827,-0.124729,0.0853145,0.119666
0.0131,0.124186,0.685639,0.867457,-0.381984,0.983443,-0.131483,0.0912747,0.17332
0.00405558,0.140056,0.70353,0.681209,-0.244914,0.793483,-0.127261,0.0745196,0.235073
0.00026184,0.151326,0.717655,0.441125,0.0965749,0.601696,-0.119384,0.0752789,0.28737
0.00448166,0.158232,0.728402,0.256705,0.458962,0.46798,-0.111481,0.0829117,0.319468
0.0138717,0.162266,0.737427,0.148482,0.574861,0.442267,-0.0773639,0.0661267,0.314543
0.0228874,0.165057,0.747109,0.123985,0.443618,0.525118,-0.0573491,0.0537737,0.300421
0.0276807,0.168116,0.758882,0.158588,0.229757,0.638668,-0.0618938,0.0545632,0.280476
0.0279769,0.17252,0.772826,0.239966,0.035618,0.737947,-0.0820318,0.0579111,0.258116
0.0237626,0.178314,0.788369,0.283878,-0.192288,0.78408,-0.10218,0.0560475,0.227214
0.0150242,0.184046,0.804141,0.248311,-0.381683,0.753759,-0.111877,0.0354718,0.200316
0.00369992,0.188442,0.81839,0.172131,-0.461658,0.633624,-0.124957,0.0197419,0.166662
-0.00734948,0.191055,0.82953,0.0838085,-0.414155,0.444285,-0.123445,0.00752193,0.142987
-0.0160064,0.191772,0.836571,0.000596536,-0.293555,0.247107,-0.0966686,-0.0074451,0.124532
-0.0205252,0.191103,0.840287,-0.0596418,-0.0743203,0.131443,-0.0554877,-0.0294485,0.137945
-0.0201276,0.189063,0.842407,-0.142854,0.149224,0.0861175,-0.0212785,-0.0441321,0.138751
-0.0157704,0.185122,0.844049,-0.24398,0.289189,0.0934395,0.0203831,-0.0702977,0.126117
-0.0105142,0.179576,0.846613,-0.293084,0.265574,0.173266,0.0588527,-0.104179,0.0818266
-0.00632381,0.174208,0.851067,-0.219538,0.238957,0.26664,0.0846735,-0.124432,0.0592311
-0.0026368,0.170992,0.857442,-0.0923995,0.234108,0.361274,0.102482,-0.131354,0.0362096
0.000584924,0.17054,0.865939,0.0552662,0.244295,0.472732,0.0990025,-0.122521,0.000644982
0.00405723,0.173506,0.876799,0.24358,0.290738,0.596263,0.08806,-0.0993813,-0.0328601
0.00851162,0.180481,0.890579,0.430909,0.396123,0.765236,0.094532,-0.0784322,-0.00991517
0.0135912,0.190045,0.907806,0.471959,0.408343,0.918459,0.102514,-0.0685128,0.0121328
0.016624,0.198199,0.927018,0.262666,0.221843,0.941873,0.0502459,-0.0302236,-0.00599492
0.0149212,0.199665,0.94507,-0.161872,0.00135768,0.794604,0.00824871,-0.0337908,-0.0722374
0.012384,0.192899,0.958705,-0.485491,0.0553597,0.516503,0.0186535,-0.0636507,-0.117072
0.0139882,0.182238,0.96669,-0.558688,0.238826,0.26681,0.0551832,-0.0314463,-0.13546
0.0139882,0.182238,0.96669,-0.558688,0.238826,0.26681,0.0551832,-0.0314463,-0.13546
0.0184525,0.171444,0.971586,-0.505748,0.272179,0.245573,0.111092,0.00870976,-0.153348
0.0234982,0.162914,0.979125,-0.337151,0.373398,0.517079,0.16845,0.0262842,-0.10029
0.0299425,0.158952,0.994044,-0.0986849,0.493165,0.947395,0.199779,0.0344436,-0.0370815
0.0368508,0.15978,1.01775,0.0888903,0.547535,1.36254,0.211933,0.0357335,0.01418
0.0420277,0.163644,1.04836,0.153358,0.432933,1.62138,0.201268,0.0160187,0.0297905
0.0428116,0.167548,1.08225,0.075348,0.179909,1.6863,0.168204,0.00897452,0.0216227
0.037938,0.16923,1.11584,-0.032955,-0.0949923,1.59353,0.153333,-0.00807533,0.00978583
0.0285509,0.1688,1.14686,-0.10145,-0.303303,1.43802,0.165355,-0.0149842,-0.00823641
0.01694,0.167081,1.17452,-0.124476,-0.356207,1.27453,0.187093,-0.0201274,-0.018843
0.0068966,0.164884,1.1994,-0.123471,-0.219187,1.17816,0.210131,-0.0121319,-0.0247859
0.000526658,0.16243,1.22342,-0.130663,-0.0230405,1.19769,0.228637,0.000279129,-0.0107673
-0.00221656,0.159743,1.24892,-0.125967,0.149833,1.31354,0.234488,0.000342652,0.0103676
-0.00279784,0.157637,1.2769,-0.062234,0.20606,1.42537,0.218599,-0.00388846,0.0149562
-0.00379564,0.157706,1.30644,0.086524,0.141067,1.4653,0.18458,-0.00842884,0.0196418
-0.00658092,0.160968,1.33613,0.24414,0.0488492,1.43603,0.153499,-0.00780147,0.0378172
-0.0105897,0.16649,1.36437,0.306388,0.0332062,1.32058,0.137061,-0.00821303,0.0564145
-0.0136866,0.171807,1.38976,0.23686,0.0833605,1.1623,0.135937,-0.0151487,0.059877
-0.0153602,0.175116,1.41194,0.126595,0.123934,1.00888,0.140415,-0.0222042,0.0374162
-0.0168468,0.176778,1.43145,0.088489,0.050101,0.903817,0.135404,-0.0072163,-0.0371323
-0.0203979,0.178948,1.44931,0.170607,-0.103172,0.84271,0.1173,0.0211193,-0.121474
-0.0272687,0.18332,1.46598,0.302477,-0.271599,0.77562,0.108718,0.0421278,-0.195588
-0.0367635,0.189881,1.48121,0.382004,-0.381118,0.684675,0.104958,0.0611784,-0.249258
-0.0460135,0.197065,1.49443,0.372632,-0.248987,0.571149,0.0807363,0.0880804,-0.252219
-0.0505345,0.203283,1.50499,0.284768,0.0206565,0.425018,0.0460855,0.130124,-0.231024
-0.0489216,0.207145,1.51222,0.125739,0.261677,0.254995,0.0303702,0.14422,-0.191921
-0.0431751,0.207923,1.51564,-0.0269652,0.36995,0.0763553,0.0155598,0.148582,-0.17902
-0.0349805,0.206324,1.51548,-0.12832,0.441367,-0.0755362,0.00766607,0.149688,-0.161396
-0.0257832,0.202711,1.51332,-0.253662,0.381388,-0.0967473,0.00845261,0.115815,-0.139209
-0.0211164,0.195303,1.51251,-0.49155,0.0292712,0.0565952,-0.00203733,0.0339834,-0.164539
-0.0257768,0.183554,1.51558,-0.634844,-0.435447,0.263279,-0.0590553,-0.0191349,-0.226827
-0.040568,0.17156,1.52193,-0.480919,-0.893007,0.379809,-0.102296,-0.0231436,-0.296741
-0.0616665,0.16581,1.52947,-0.018668,-1.01341,0.370067,-0.120553,0.00257598,-0.288096
-0.0806696,0.17026,1.53677,0.492951,-0.683922,0.312588,-0.124578,0.0618189,-0.18754
-0.0892004,0.182604,1.54389,0.731312,-0.013499,0.282239,-0.132949,0.116329,-0.0415164
-0.0843718,0.196039,1.55088,0.621141,0.58043,0.289991,-0.148254,0.140785,0.0674751
-0.0710701,0.20576,1.55766,0.380248,0.818471,0.285738,-0.152793,0.147381,0.116877
-0.0559344,0.210652,1.56321,0.157486,0.782214,0.21142,-0.145358,0.152914,0.126054
-0.0417476,0.212724,1.5663,0.0850133,0.691317,0.07205,-0.132438,0.151599,0.146286
-0.0290334,0.214763,1.56649,0.128181,0.580808,-0.0492405,-0.118,0.146252,0.170509
-0.0180706,0.217988,1.565,0.18687,0.482862,-0.091389,-0.102857,0.136294,0.200098
-0.00843059,0.222143,1.56312,0.21673,0.452622,-0.091186,-0.0837566,0.124038,0.242391
0.00137214,0.226567,1.56137,0.215561,0.472901,-0.0820724,-0.0579929,0.103128,0.290177
0.010137,0.230459,1.55962,0.166021,0.330614,-0.0881612,-0.0215112,0.0910189,0.30745
0.014726,0.23305,1.55799,0.0886693,0.0896914,-0.0517365,-0.00532459,0.0877732,0.321616
0.0141297,0.23385,1.5581,-0.00668254,-0.128038,0.0746179,-0.00748845,0.0717051,0.311765
0.00995621,0.233174,1.56074,-0.0585494,-0.199002,0.159205,-0.0277835,0.0630219,0.293706
0.00572674,0.231767,1.56372,-0.082431,-0.138291,0.104044,-0.0479319,0.0428083,0.260096
0.0038206,0.229674,1.56449,-0.137952,-0.0482829,-0.0331508,-0.0332765,0.00207399,0.246454
0.00278487,0.225629,1.56282,-0.270388,-0.116084,-0.111236,-0.00637632,-0.0119375,0.215205
-0.000899073,0.2187,1.56089,-0.421131,-0.306845,-0.0610358,0.00234257,-0.00737368,0.173064
-0.000899073,0.2187,1.56089,-0.421131,-0.306845,-0.0610358,0.00234257,-0.00737368,0.173064
-0.00900692,0.208826,1.56066,-0.550587,-0.482398,0.0449897,-0.0110405,-0.00332114,0.0958654
-0.0191732,0.197437,1.56231,-0.551306,-0.467487,0.122889,-0.027587,-0.0255535,0.0193785
-0.0279627,0.187682,1.56481,-0.393351,-0.356765,0.129232,-0.0270057,-0.0439627,-0.0323948
-0.034482,0.181717,1.56694,-0.20172,-0.250534,0.0953333,-0.00106556,-0.0731722,-0.0632382
-0.0386251,0.178402,1.56842,-0.156486,-0.13813,0.0637138,0.0259177,-0.0974606,-0.0858956
-0.0406555,0.174162,1.56928,-0.275339,-0.0489856,0.0410327,0.03829,-0.094005,-0.13052
-0.0407235,0.167349,1.56995,-0.381533,0.0355956,0.0549386,0.046949,-0.100887,-0.185854
-0.0399722,0.159675,1.57115,-0.349999,0.0570608,0.0993549,0.0713746,-0.0992116,-0.260778
-0.0386169,0.154156,1.57364,-0.17293,0.120766,0.174705,0.0659053,-0.07294,-0.316718
-0.035423,0.152794,1.57817,0.0554483,0.28589,0.279431,0.0456842,-0.0380155,-0.339632
-0.0289382,0.155285,1.58496,0.189843,0.452198,0.366815,0.0453555,-0.0249034,-0.336711
-0.0202931,0.158779,1.5929,0.147665,0.498529,0.389166,0.0540484,-0.0263665,-0.31599
-0.0127089,0.159726,1.60039,-0.0593645,0.353077,0.339072,0.0522655,-0.0090428,-0.321006
-0.00786831,0.156237,1.60658,-0.26812,0.256275,0.276269,0.0527249,0.0120928,-0.331348
-0.00287321,0.149715,1.61185,-0.35096,0.340582,0.257751,0.0633117,0.0275439,-0.310324
0.00486342,0.143625,1.61773,-0.217208,0.527466,0.330151,0.0323572,0.041371,-0.297372
0.0168542,0.142363,1.62557,0.0978483,0.759835,0.444571,0.0338238,0.0443176,-0.219928
0.0326464,0.147827,1.63588,0.40898,0.969479,0.589564,0.0734131,0.0422477,-0.0847062
0.0518785,0.158628,1.64949,0.579224,1.13225,0.807117,0.0841871,0.0289504,0.0666981
0.0721897,0.17147,1.66772,0.556459,1.15332,1.05552,0.0828767,0.0176765,0.175182
0.0894054,0.18317,1.69048,0.411733,0.922841,1.24574,0.0676029,0.00786142,0.20638
0.0996151,0.192572,1.71617,0.291538,0.57195,1.32356,0.051329,-0.00736183,0.195399
0.102687,0.200732,1.74212,0.271115,0.240987,1.26163,0.034287,-0.00450107,0.17291
0.0999602,0.208848,1.76612,0.301181,-0.0113655,1.14633,0.0373235,0.00262144,0.164015
0.0934498,0.217311,1.78814,0.324552,-0.154166,1.07382,0.0462405,0.0133038,0.173514
0.0857361,0.225629,1.80926,0.313934,-0.128696,1.04168,0.0472309,0.0368604,0.186207
0.0799241,0.233324,1.82968,0.282328,0.0343302,0.984585,0.0459816,0.0575066,0.194468
0.0781605,0.240298,1.84883,0.263409,0.218772,0.912601,0.0528095,0.0648962,0.206705
0.0788618,0.246771,1.86655,0.245994,0.257997,0.844179,0.067146,0.0680659,0.201235
0.079668,0.253194,1.88317,0.271709,0.231753,0.810434,0.0826674,0.0683227,0.192616
0.0796832,0.26061,1.89949,0.340943,0.174534,0.813496,0.0879602,0.08169,0.184298
0.0786352,0.269311,1.91566,0.391317,0.15948,0.793239,0.0783149,0.0951381,0.177055
0.0783494,0.278214,1.93084,0.361965,0.225069,0.719841,0.0765197,0.103786,0.165858
0.08001,0.28587,1.94457,0.296081,0.312124,0.644901,0.0664159,0.109965,0.141726
0.0831362,0.292721,1.95638,0.308319,0.304569,0.517934,0.0268763,0.110245,0.0630725
0.0856948,0.30048,1.96441,0.392741,0.160371,0.290627,0.0142533,0.105808,-0.0137342
0.0857838,0.308629,1.96687,0.359374,-0.0774818,0.0230579,0.0603985,0.108379,-0.0514848
0.0834119,0.31351,1.96554,0.10539,-0.152137,-0.0659485,0.0735016,0.131031,-0.0742519
0.0824957,0.311704,1.96495,-0.298845,0.0807903,0.00293587,0.0382222,0.170588,-0.102236
0.0865613,0.301322,1.96664,-0.728349,0.352461,0.0636,0.0249097,0.172225,-0.162919
0.0936678,0.284233,1.96984,-0.942608,0.402084,0.0773682,0.0278977,0.131083,-0.248814
0.0998888,0.266101,1.97314,-0.831737,0.304575,0.0650436,0.0253997,0.118593,-0.313764
0.104358,0.252676,1.97637,-0.517794,0.22926,0.115583,-0.0104984,0.142742,-0.309344
0.107578,0.245003,1.98027,-0.326829,0.17674,0.167927,-0.028023,0.141134,-0.246135
0.10885,0.237993,1.98422,-0.460693,0.0230456,0.114171,-0.037107,0.0925639,-0.186007
0.105924,0.225055,1.98642,-0.864014,-0.274761,-0.0500544,-0.0503404,0.0398253,-0.198192
0.0988912,0.204031,1.98573,-1.15658,-0.388866,-0.225838,-0.0689874,0.00733677,-0.241774
0.092805,0.180535,1.98207,-1.07535,-0.248359,-0.336429,-0.0781499,0.0204217,-0.275231
0.0914793,0.162064,1.97699,-0.680104,0.041901,-0.300846,-0.0746822,0.031152,-0.252994
0.0957178,0.152467,1.97331,-0.25643,0.297351,-0.133871,-0.0822101,0.0346587,-0.184734
0.0957178,0.152467,1.97331,-0.25643,0.297351,-0.133871,-0.0822101,0.0346587,-0.184734
0.102845,0.150088,1.9728,0.000993664,0.379449,0.0599281,-0.0880205,0.0143932,-0.106524
0.109364,0.152079,1.97539,0.162905,0.261913,0.209833,-0.0765748,-0.0197254,-0.0372071
0.111059,0.157933,1.98029,0.378115,-0.027128,0.331997,-0.0607602,-0.0306499,0.00986713
0.106386,0.169124,1.98722,0.658318,-0.309421,0.461949,-0.0817364,-0.00444128,0.0519522
0.097218,0.185826,1.99593,0.888946,-0.41739,0.544807,-0.120922,0.0365188,0.131006
0.0876126,0.205603,2.0054,0.959241,-0.328052,0.54773,-0.154215,0.0594735,0.20669
0.0808081,0.225304,2.01459,0.90215,-0.155272,0.496832,-0.170065,0.0573875,0.284869
0.0773011,0.242758,2.02252,0.76049,-0.0257299,0.396574,-0.175683,0.0524535,0.340415
0.0757019,0.256859,2.02816,0.591006,-0.0178601,0.237645,-0.172971,0.0362398,0.357672
0.0744954,0.267112,2.02996,0.412434,-0.0611835,0.00535574,-0.162501,0.0186772,0.372568
0.073183,0.273156,2.02688,0.206882,-0.148876,-0.255329,-0.133334,-0.00581735,0.368489
0.0719805,0.274866,2.01891,0.0257912,-0.183498,-0.488335,-0.108296,-0.0238703,0.354485
0.071268,0.273,2.00702,-0.128581,-0.214361,-0.649399,-0.0981268,-0.00699016,0.321774
0.0702222,0.268107,1.99297,-0.256884,-0.258027,-0.717918,-0.086716,-0.00149703,0.269942
0.0689022,0.261066,1.97828,-0.327781,-0.254496,-0.732519,-0.0534532,-0.0102456,0.213945
0.0676554,0.25375,1.9638,-0.286634,-0.224783,-0.696114,-0.030542,-0.0118431,0.149449
0.0670102,0.248042,1.95069,-0.193249,-0.161808,-0.591282,-0.00160195,-0.0249257,0.0981857
0.0668838,0.244288,1.94014,-0.119229,-0.105419,-0.453067,0.0169834,-0.0492871,0.0407262
0.0677498,0.241453,1.93216,-0.119106,0.00893554,-0.339686,0.0339364,-0.070792,0.0128924
0.0704277,0.238412,1.9264,-0.139329,0.105037,-0.239127,0.0530505,-0.102753,-0.0205169
0.0733347,0.23504,1.92231,-0.164563,0.065718,-0.193314,0.0526775,-0.112867,-0.0967897
0.075118,0.231099,1.91844,-0.199303,0.0267104,-0.218133,0.0355752,-0.108324,-0.149844
0.0766279,0.226467,1.91386,-0.220844,0.0235578,-0.256774,0.0101034,-0.0845464,-0.20979
0.0791379,0.222242,1.90882,-0.136839,0.139479,-0.254373,0.00319606,-0.0646018,-0.253996
0.084767,0.220872,1.90425,0.0483353,0.312602,-0.194305,0.0104089,-0.0448808,-0.264918
0.0928976,0.223123,1.90104,0.184164,0.402499,-0.0884969,0.0160266,-0.0358498,-0.251848
0.100845,0.227075,1.9001,0.196217,0.335987,0.0268508,0.00420485,-0.0425262,-0.23518
0.104993,0.230134,1.90074,0.0784376,0.0639259,0.0452824,-0.00506726,-0.0421097,-0.240649
0.10296,0.229544,1.90099,-0.13879,-0.24872,-0.0316722,-0.0151208,-0.0334981,-0.267349
0.0967795,0.225166,1.89986,-0.257337,-0.351679,-0.123258,-0.0471616,-0.00189066,-0.293247
0.0912923,0.219866,1.8967,-0.221195,-0.239024,-0.232854,-0.0519835,0.0439807,-0.280838
0.0902385,0.215689,1.89163,-0.148413,0.0538849,-0.276902,-0.00949092,0.0467381,-0.203857
0.0958511,0.213088,1.88687,-0.061227,0.386633,-0.183608,0.0369992,0.0438918,-0.0951886
0.10561,0.212827,1.8853,0.0558451,0.517583,0.0514321,0.0818403,0.0400809,-0.0112539
0.115048,0.215646,1.88921,0.173587,0.477264,0.357234,0.0843368,0.0366409,0.0653667
0.120996,0.221348,1.89867,0.281484,0.29699,0.606554,0.0768697,0.022081,0.116907
0.121698,0.229752,1.91177,0.395916,0.0643796,0.730925,0.056582,0.0126942,0.155501
0.117372,0.240461,1.92592,0.492482,-0.166038,0.741448,0.0583396,0.00511789,0.201485
0.10871,0.252293,1.93969,0.512846,-0.343911,0.704274,0.0683092,-0.00631081,0.23733
0.0978027,0.263107,1.95242,0.413649,-0.399682,0.62256,0.081678,-0.00307089,0.27248
0.0869688,0.270866,1.96395,0.248955,-0.374961,0.554336,0.100909,-0.00918245,0.278944
0.0769242,0.275282,1.97443,0.127914,-0.32907,0.478453,0.114156,-0.00200093,0.246627
0.0685545,0.278334,1.98348,0.127899,-0.26382,0.409977,0.12574,0.00574207,0.220013
0.0610786,0.28223,1.99162,0.217951,-0.265336,0.408964,0.143218,0.00358009,0.196958
0.0532061,0.288363,2.00071,0.338664,-0.250534,0.501153,0.162501,-0.00467983,0.20563
0.0458894,0.296579,2.01183,0.41205,-0.142039,0.586865,0.159331,0.00628498,0.217832
0.0411166,0.305348,2.02398,0.391672,0.0238582,0.59017,0.155667,0.00266665,0.226114
0.039206,0.312873,2.03551,0.300495,0.119546,0.522618,0.149414,-0.0131141,0.207222
0.03824,0.317761,2.04537,0.141851,0.0774986,0.433324,0.165878,-0.0222921,0.158807
0.0369745,0.319529,2.05405,0.017527,0.0904934,0.400462,0.160431,-0.0122962,0.109257
0.0369807,0.319521,2.06246,-0.046948,0.158284,0.392161,0.135798,0.0304512,0.0591037
0.0370988,0.318216,2.07079,-0.115462,0.0896969,0.393801,0.115941,0.0576231,-0.00627208
0.0347074,0.315437,2.0792,-0.188433,-0.0637376,0.384595,0.084947,0.075323,-0.0684663
0.0299635,0.311257,2.08692,-0.245016,-0.163709,0.32359,0.0730279,0.0822259,-0.128007
0.0243835,0.306367,2.09299,-0.251241,-0.19882,0.24003,0.0462733,0.106224,-0.171436
0.0194985,0.301486,2.0975,-0.249795,-0.125012,0.180119,0.0112894,0.130054,-0.189465
0.0177638,0.295904,2.10092,-0.326769,0.055221,0.133895,-0.0205461,0.145517,-0.195666
0.0193187,0.287828,2.10341,-0.48838,0.138689,0.0908001,-0.0168138,0.126476,-0.205196
0.0211064,0.276603,2.10517,-0.608762,0.0870396,0.0562162,-0.00426551,0.0908843,-0.228671
0.0221347,0.264028,2.10608,-0.638786,0.0376472,-0.00660117,-0.0100743,0.0718991,-0.226998
0.0225035,0.25066,2.10524,-0.699481,-0.0228835,-0.108981,-0.0174191,0.0463835,-0.206423
0.0220351,0.234918,2.10159,-0.874133,-0.125781,-0.293355,-0.0241441,0.0133719,-0.21035
0.0197841,0.215034,2.09354,-1.07288,-0.268645,-0.524288,-0.0279026,-0.0175307,-0.273359
0.0156824,0.192481,2.08142,-1.10816,-0.358126,-0.683189,-0.0332601,-0.0250291,-0.366961
0.0127124,0.172317,2.06702,-0.81754,-0.158178,-0.731765,-0.0383111,-0.00645164,-0.380551
0.015625,0.161035,2.05311,-0.257331,0.243489,-0.62281,-0.0833848,0.0365453,-0.318097
0.0270769,0.161318,2.04228,0.272071,0.71638,-0.429329,-0.0870553,0.042364,-0.160745
0.04578,0.16963,2.03556,0.531029,0.988668,-0.193379,-0.0813772,0.0380037,-0.00644368
0.0665755,0.180631,2.03319,0.536789,0.998711,0.0108536,-0.0689687,0.0108423,0.123473
0.0846238,0.190074,2.0339,0.378062,0.783826,0.111324,-0.0775989,-0.0107758,0.204749
0.0968963,0.195967,2.03592,0.195941,0.473323,0.136782,-0.101881,-0.0222648,0.245821
0.102929,0.199087,2.03865,0.105028,0.180269,0.165975,-0.11648,-0.0301923,0.26487
0.103189,0.201651,2.04214,0.12671,-0.0686836,0.201457,-0.122311,-0.0216822,0.270317
0.0996594,0.205184,2.04599,0.187267,-0.177153,0.201116,-0.114268,-0.0193061,0.287948
0.0957763,0.209794,2.04926,0.233832,-0.128696,0.153316,-0.10954,-0.0245598,0.316151
0.0934855,0.214599,2.05117,0.216978,-0.0692848,0.0735414,-0.102393,-0.0213581,0.326006
0.0934855,0.214599,2.05117,0.216978,-0.0692848,0.0735414,-0.102393,-0.0213581,0.326006
0.0919743,0.218221,2.0514,0.1274,-0.0990972,-0.0130237,-0.0850888,-0.0275105,0.330922
0.0889951,0.21933,2.05041,-0.0116369,-0.219891,-0.0665034,-0.0334342,-0.0451955,0.327939
0.0838224,0.217723,2.04922,-0.131274,-0.315906,-0.0540465,0.00266406,-0.0453605,0.330187
0.0773553,0.214188,2.04884,-0.202627,-0.315882,-0.00726791,0.0104253,-0.0352179,0.280868
0.0718851,0.210168,2.04975,-0.19331,-0.198694,0.0692298,0.0343562,-0.0360965,0.243231
0.0684782,0.206483,2.05241,-0.20449,-0.0972166,0.165194,0.0532224,-0.0459732,0.213647
0.0657482,0.202105,2.05714,-0.26353,-0.0940247,0.267364,0.0740948,-0.075116,0.187643
0.0615709,0.196743,2.06396,-0.302422,-0.193916,0.358608,0.0878942,-0.0953102,0.149657
0.055029,0.191304,2.07242,-0.281174,-0.276748,0.431335,0.0878937,-0.100983,0.116669
0.0477179,0.186253,2.08217,-0.285533,-0.257586,0.491492,0.0837863,-0.0973994,0.112064
0.0413985,0.17996,2.09304,-0.402875,-0.164812,0.539743,0.0726088,-0.0987807,0.105246
0.0374157,0.170891,2.10473,-0.535773,-0.0285998,0.56546,0.0765108,-0.117583,0.087634
0.0361206,0.159999,2.11665,-0.572931,0.0930816,0.555122,0.0863731,-0.135223,0.0557058
0.0367873,0.149027,2.12815,-0.561883,0.134553,0.538217,0.110189,-0.158607,0.029171
0.0375161,0.138042,2.1397,-0.580706,0.0769769,0.567004,0.127217,-0.176346,0.00967264
0.0355857,0.126611,2.15238,-0.598873,-0.102634,0.642671,0.120499,-0.17016,-0.0633657
0.030522,0.115255,2.16673,-0.564906,-0.215007,0.733213,0.105626,-0.152212,-0.13962
0.0236883,0.105399,2.18282,-0.437947,-0.293426,0.824631,0.0816701,-0.143789,-0.21611
0.0160752,0.0991141,2.19999,-0.208641,-0.259908,0.840744,0.0321764,-0.0939039,-0.264527
0.010656,0.0974166,2.21628,-0.00497264,-0.131214,0.756286,-0.0135654,-0.04646,-0.28411
0.00752829,0.0971998,2.22996,-0.0899336,-0.0483133,0.586651,-0.0233617,-0.0264731,-0.295856
0.00727248,0.0920525,2.23958,-0.437131,0.146427,0.365718,-0.00780612,-0.0364344,-0.343417
0.0123719,0.0804873,2.24515,-0.684205,0.402113,0.182433,-0.0140252,-0.00422481,-0.391848
0.0227603,0.0665045,2.24825,-0.666997,0.653273,0.122191,-0.0049162,0.0354649,-0.402112
0.0365405,0.0552257,2.25204,-0.445977,0.678312,0.24566,0.011787,0.0733861,-0.374246
0.0473306,0.0495388,2.25943,-0.139486,0.420871,0.47327,0.0303514,0.0746193,-0.350307
0.0519815,0.0507957,2.27124,0.210242,0.0774715,0.698129,0.0712627,0.0415881,-0.284118
0.0488127,0.059961,2.28713,0.621276,-0.305597,0.927617,0.112595,0.0256995,-0.190715
0.0381309,0.0769645,2.30737,0.952601,-0.583205,1.14063,0.0842294,0.0670924,-0.0964432
0.023958,0.0981472,2.33112,1.03516,-0.576838,1.25529,0.0485474,0.0885903,-0.0207079
0.0122565,0.118402,2.35618,0.91519,-0.271224,1.23296,0.00826117,0.0859595,0.032536
0.0087623,0.135253,2.37948,0.734068,0.227473,1.06225,-0.00596602,0.0763693,0.0951841
0.0149788,0.1483,2.39868,0.539053,0.622761,0.848446,0.00912727,0.0619874,0.140219
0.0265664,0.157752,2.41445,0.380244,0.714451,0.740964,0.0430569,0.0387823,0.167609
0.0376174,0.164989,2.42931,0.311456,0.611715,0.756499,0.0868495,0.0165517,0.19196
0.0460694,0.172016,2.44508,0.33242,0.488651,0.822274,0.118567,0.0117454,0.20937
0.0519974,0.180037,2.46238,0.382038,0.408803,0.90924,0.136229,0.0110059,0.219843
0.0565212,0.188989,2.48112,0.401618,0.395347,0.961763,0.145687,0.00236514,0.222844
0.0607632,0.197932,2.50031,0.366771,0.390431,0.944648,0.147628,-0.00805475,0.211927
0.0645324,0.205864,2.51854,0.314964,0.337051,0.879668,0.154754,-0.00388524,0.192729
0.0664554,0.213147,2.53594,0.304722,0.195772,0.868948,0.172447,0.00270498,0.16874
0.0648204,0.220543,2.55387,0.318711,0.0381525,0.926086,0.190822,0.0242553,0.143148
0.0607562,0.228452,2.57343,0.354657,0.0316588,1.01545,0.189882,0.045134,0.118065
0.0581583,0.237536,2.59489,0.423943,0.207749,1.11439,0.186366,0.0605801,0.118349
0.0580997,0.248148,2.6182,0.495114,0.326521,1.18589,0.176805,0.0657688,0.110922
0.0590928,0.259892,2.64249,0.527124,0.356002,1.21154,0.164757,0.0633265,0.117853
0.0590543,0.271726,2.66693,0.500256,0.271866,1.19675,0.163269,0.0527729,0.111883
0.0573891,0.282502,2.69109,0.428045,0.234048,1.17407,0.154496,0.0542563,0.123117
0.055167,0.29147,2.71492,0.338158,0.222808,1.13971,0.12486,0.0657871,0.0993709
0.0530703,0.298769,2.73756,0.27142,0.230937,1.04565,0.102427,0.0780806,0.0636987
0.0530703,0.298769,2.73756,0.27142,0.230937,1.04565,0.102427,0.0780806,0.0636987
0.0520733,0.304728,2.758,0.215752,0.29141,0.925049,0.0780185,0.0853272,0.029723
0.0536625,0.309285,2.77611,0.142648,0.400944,0.815045,0.07725,0.0758769,0.0188836
0.0568935,0.312144,2.79234,0.0532848,0.381465,0.738434,0.0842059,0.0710005,-0.00919783
0.0584155,0.313076,2.80748,-0.0412591,0.229533,0.71021,0.0513283,0.120883,-0.0431062
0.0568991,0.312315,2.82298,-0.112536,0.103499,0.756537,0.0182246,0.153835,-0.0505103
0.0531454,0.310358,2.83905,-0.176253,0.00935789,0.71943,-0.0443416,0.153712,-0.0832847
0.049129,0.305888,2.85232,-0.360295,0.0170389,0.4904,-0.0802005,0.147957,-0.0809262
0.0488143,0.295704,2.86008,-0.709125,0.222549,0.196037,-0.0777286,0.0980997,-0.0659045
0.0560863,0.276955,2.86207,-1.19343,0.534711,-0.105227,-0.0587424,0.0393885,-0.0458608
0.068415,0.246574,2.85868,-1.81595,0.551114,-0.404793,-0.017481,-0.0161861,-0.0987069
0.0775293,0.203257,2.85093,-2.37539,0.103654,-0.637875,0.00339698,-0.0377029,-0.294341
0.0766014,0.154455,2.84091,-2.24546,-0.266979,-0.679178,0.00925392,-0.0425543,-0.56746
0.0734912,0.116335,2.83153,-1.39808,-0.104635,-0.488527,0.00846164,0.0229177,-0.662791
0.0752318,0.0977665,2.82742,-0.448471,0.221131,-0.0169861,0.067349,0.036301,-0.574546
0.0820536,0.0960209,2.83336,0.160699,0.491259,0.608936,0.0914813,0.0243096,-0.405279
0.0911919,0.103867,2.85121,0.42935,0.561727,1.18655,0.0285507,0.0335968,-0.272141
0.0986454,0.117167,2.87755,0.641004,0.444197,1.48093,-0.0618147,0.0438099,-0.172802
0.101845,0.135308,2.90645,0.869957,0.239566,1.49759,-0.144487,0.0610586,-0.0797501
0.101389,0.157504,2.93301,1.03256,0.107029,1.29915,-0.199007,0.0770954,0.0299591
0.0995715,0.180555,2.9539,1.01375,0.0761791,0.959302,-0.215452,0.0824994,0.140645
0.0988306,0.200751,2.96774,0.827605,0.111832,0.584872,-0.204675,0.0766029,0.235038
0.100326,0.21546,2.97459,0.558292,0.186456,0.230859,-0.17876,0.0756129,0.299969
0.105067,0.22448,2.97541,0.336729,0.295341,-0.0392042,-0.140008,0.074467,0.35729
0.112034,0.229465,2.97245,0.201094,0.315308,-0.169013,-0.0922218,0.0824066,0.374803
0.118531,0.232404,2.96851,0.141631,0.228501,-0.158494,-0.0599746,0.098268,0.37681
0.122491,0.234775,2.96576,0.128279,0.100882,-0.0689716,-0.0355354,0.100834,0.358911
0.123261,0.237414,2.9653,0.141911,-0.0287092,0.0643336,-0.0141845,0.0951446,0.329871
0.121016,0.24063,2.96775,0.142082,-0.128974,0.211396,0.00853539,0.0809502,0.309987
0.116765,0.243788,2.97314,0.0973153,-0.159913,0.335275,0.0239693,0.0556654,0.300737
0.11187,0.245744,2.98066,0.00777457,-0.138794,0.395321,0.00693598,0.0470342,0.266735
0.107597,0.24577,2.98907,-0.0970084,-0.083569,0.404167,-0.0142273,0.043932,0.236222
0.103909,0.243669,2.99755,-0.195814,-0.0996352,0.388584,-0.0211902,0.02845,0.210937
0.0993637,0.239704,3.00592,-0.284255,-0.149918,0.378045,-0.0147752,0.00134635,0.19649
0.0931327,0.233448,3.01454,-0.425274,-0.27241,0.394946,0.00762327,-0.0251056,0.136536
0.0849013,0.224327,3.0239,-0.545116,-0.319559,0.424156,0.0130438,-0.0615003,0.0754973
0.0764111,0.213204,3.03347,-0.628685,-0.315588,0.407074,0.0190502,-0.0826425,-0.000484765
0.0681272,0.200393,3.04242,-0.704764,-0.322077,0.367235,0.0308372,-0.10278,-0.0961526
0.0610484,0.186688,3.0505,-0.677794,-0.201875,0.335955,0.0343185,-0.111315,-0.20016
0.0569818,0.174707,3.05803,-0.553747,-0.0942022,0.339397,0.0443493,-0.0873347,-0.315008
0.0542071,0.165362,3.06617,-0.406814,-0.028843,0.423878,0.0693308,-0.0868099,-0.39215
0.0534918,0.159984,3.07668,-0.169094,0.141396,0.585547,0.0614133,-0.0649404,-0.403037
0.0570716,0.160203,3.09081,0.114087,0.449285,0.80114,0.0273843,-0.0153474,-0.344353
0.0652729,0.165413,3.10885,0.257066,0.613444,0.982123,0.021464,-0.00944303,-0.282657
0.0735467,0.171322,3.12934,0.143868,0.497936,1.03832,0.0317213,-0.0283823,-0.236176
0.0752123,0.172296,-3.13347,-0.221164,-0.0339557,0.936123,0.0420601,-0.0091279,-0.278166
0.0650539,0.166215,-3.11527,-0.43882,-0.651808,0.808701,-0.00469434,0.0386653,-0.365142
0.0449827,0.160214,-3.09922,-0.174994,-1.04698,0.734585,-0.0249977,0.0744006,-0.390713
0.0200054,0.162229,-3.08474,0.334582,-1.14302,0.704179,0.0257451,0.105687,-0.301261
-0.00194419,0.173455,-3.07029,0.733948,-0.719136,0.725178,0.0683518,0.111582,-0.140175
-0.0119591,0.189705,-3.05525,0.836779,0.0129119,0.724039,0.0919293,0.128266,-0.00525385
-0.0119591,0.189705,-3.05525,0.836779,0.0129119,0.724039,0.0919293,0.128266,-0.00525385
-0.00722531,0.204481,-3.04022,0.602114,0.707954,0.740759,0.0763649,0.154231,0.122863
0.00771653,0.212716,-3.02376,0.217184,1.08218,0.870778,0.0594894,0.124339,0.181656
0.0274925,0.214386,-3.00467,-0.0461385,1.25194,0.961589,0.0365406,0.102121,0.203911
0.0481946,0.213731,-2.98533,-0.0572382,1.18762,0.898766,0.0181516,0.0949502,0.186027
0.0668434,0.214891,-2.96806,0.0813268,1.02368,0.786467,0.0239456,0.075713,0.206675
0.081654,0.218856,-2.95281,0.179843,0.7453,0.73427,0.0372188,0.0583296,0.237543
0.0899202,0.223701,-2.93808,0.160877,0.423639,0.733927,0.0582668,0.040001,0.266432
0.0931298,0.227287,-2.92316,0.0527776,0.263706,0.737836,0.0651582,0.0250177,0.282987
0.0953466,0.228113,-2.90817,-0.110491,0.304944,0.70576,0.0731271,0.0122111,0.289876
0.0991672,0.225847,-2.89379,-0.22416,0.40447,0.666722,0.07128,5.52237e-05,0.250197
0.105011,0.223107,-2.88019,-0.151093,0.458299,0.60901,0.0537855,-0.00995572,0.186334
0.111485,0.223076,-2.86856,0.0291926,0.430671,0.504376,0.0764853,-0.018104,0.141821
0.117196,0.226158,-2.85934,0.150716,0.330778,0.42847,0.104953,-0.0116969,0.129914
0.121055,0.230259,-2.85087,0.139119,0.248378,0.448236,0.128598,-0.00808293,0.130148
0.123434,0.233717,-2.84121,0.0908065,0.219263,0.527406,0.128075,0.0121282,0.108691
0.124849,0.236753,-2.82978,0.0804179,0.182719,0.606326,0.138012,0.0224048,0.0742489
0.124694,0.240145,-2.81689,0.105958,0.108293,0.666683,0.145998,0.019078,0.0241411
0.122926,0.244769,-2.8032,0.197967,0.0404653,0.692493,0.128689,0.0329357,-0.0308715
0.120195,0.251419,-2.78982,0.29532,0.0190343,0.661114,0.0840437,0.0851892,-0.0802367
0.116752,0.258713,-2.7775,0.261952,-0.0604711,0.599445,0.0431666,0.128884,-0.11646
0.111677,0.263731,-2.76646,0.100923,-0.171047,0.503257,0.0175455,0.148822,-0.134798
0.104427,0.264998,-2.75738,-0.0598787,-0.311637,0.372568,-0.001798,0.165289,-0.162555
0.0953286,0.263363,-2.75099,-0.154872,-0.403229,0.216366,-0.0141588,0.172392,-0.199005
0.0868117,0.259917,-2.74809,-0.215973,-0.346768,0.0306084,-0.0415389,0.19128,-0.220669
0.0819443,0.254404,-2.74877,-0.334184,-0.125534,-0.132884,-0.0590459,0.196386,-0.221835
0.0829557,0.245559,-2.75208,-0.528119,0.131209,-0.248802,-0.0530769,0.189433,-0.208947
0.0883013,0.232514,-2.75662,-0.716407,0.258821,-0.283977,-0.0301494,0.152726,-0.179337
0.0934363,0.216506,-2.76085,-0.81713,0.112744,-0.267981,-0.0101438,0.104345,-0.174457
0.093781,0.199303,-2.765,-0.845462,-0.16186,-0.314008,-0.0151298,0.0731077,-0.19436
0.089885,0.181319,-2.77138,-0.884328,-0.313513,-0.488428,-0.0386404,0.0503984,-0.225946
0.0858167,0.162037,-2.78191,-0.92961,-0.225484,-0.69711,-0.0620056,0.0324683,-0.243828
0.0866655,0.142532,-2.79562,-0.859751,0.141715,-0.784881,-0.0621197,0.0197051,-0.224351
0.0961636,0.126109,-2.80969,-0.626405,0.608869,-0.719558,-0.0517807,0.0109377,-0.154508
0.113344,0.11477,-2.82162,-0.383774,0.919332,-0.557718,-0.0487582,-0.00298984,-0.0747054
0.133617,0.107564,-2.83049,-0.233673,0.951919,-0.405622,-0.0620915,-0.0213821,-0.0288778
0.151746,0.102939,-2.83726,-0.122724,0.762621,-0.337014,-0.0990788,-0.0229748,-0.0204624
0.16545,0.101022,-2.84371,0.0542519,0.534048,-0.322911,-0.121468,-0.0271559,0.00695038
0.174476,0.103688,-2.85048,0.326659,0.297332,-0.282296,-0.121909,-0.0129685,0.0695095
0.17881,0.111803,-2.85673,0.560856,0.0762613,-0.173084,-0.120001,0.0200785,0.15052
0.178749,0.123822,-2.8607,0.663324,-0.124025,-0.00157542,-0.124039,0.0228439,0.229829
0.174791,0.136899,-2.86177,0.622916,-0.267335,0.111557,-0.122669,0.0312466,0.276743
0.168872,0.149192,-2.86123,0.578367,-0.286788,0.14535,-0.127126,0.0315889,0.315401
0.163188,0.161038,-2.86018,0.564296,-0.265229,0.148127,-0.130882,0.0302008,0.346094
0.157606,0.172496,-2.85903,0.530246,-0.272229,0.143886,-0.117394,0.0320541,0.374698
0.15199,0.18228,-2.85775,0.396193,-0.265674,0.128374,-0.103365,0.0202312,0.39597
0.146544,0.188664,-2.85622,0.205203,-0.246374,0.111875,-0.0809898,-0.00466876,0.399889
0.141633,0.191268,-2.85473,0.0408317,-0.209032,0.0631121,-0.0706993,-0.0270443,0.368265
0.137083,0.191076,-2.85423,-0.0529185,-0.248666,-0.0130756,-0.0535549,-0.0310627,0.301081
0.131108,0.189541,-2.85463,-0.0862919,-0.365904,-0.0392446,-0.0360756,-0.0446552,0.239531
0.131108,0.189541,-2.85463,-0.0862919,-0.365904,-0.0392446,-0.0360756,-0.0446552,0.239531
0.122585,0.187369,-2.85521,-0.126521,-0.480163,-0.0448236,-0.0207724,-0.0529074,0.197354
0.112906,0.18393,-2.85598,-0.218454,-0.475158,-0.0827336,-0.00865423,-0.0691047,0.152196
0.105196,0.177897,-2.85818,-0.361646,-0.317557,-0.204106,-0.0133337,-0.0688588,0.100436
0.101586,0.168561,-2.86257,-0.514128,-0.111941,-0.306388,0.0077838,-0.0805879,0.0595412
0.102116,0.156503,-2.86784,-0.615985,0.0673338,-0.314352,0.0468139,-0.102695,0.0280887
0.104737,0.143123,-2.87213,-0.661338,0.103893,-0.234763,0.0588764,-0.116429,-0.0369498
0.106587,0.129439,-2.87437,-0.658983,0.0305205,-0.133117,0.067982,-0.150982,-0.140794
0.105585,0.117067,-2.87512,-0.531345,-0.143259,-0.0760413,0.0840531,-0.169424,-0.271348
0.101015,0.108703,-2.87552,-0.283009,-0.29241,-0.049588,0.0690787,-0.141114,-0.381453
0.095851,0.105861,-2.87571,0.00643301,-0.167497,0.0120253,0.0543372,-0.0974158,-0.410996
0.0956169,0.108717,-2.87465,0.238139,0.163128,0.123216,0.0153372,-0.0521264,-0.379295
0.101134,0.11447,-2.87141,0.263675,0.373633,0.248024,0.00727367,-0.0489883,-0.327508
0.106479,0.119155,-2.86619,0.141463,0.170581,0.29171,0.0203457,-0.0734641,-0.31583
0.105702,0.121689,-2.86098,0.0726255,-0.194973,0.230357,0.0232813,-0.0766396,-0.32751
0.0986046,0.123644,-2.85764,0.0982177,-0.419354,0.112803,0.0160763,-0.0416794,-0.346286
0.0911244,0.126657,-2.8569,0.201316,-0.250628,-0.00885024,0.00390787,-0.00461732,-0.316356
0.0904946,0.131597,-2.85819,0.288413,0.190657,-0.0527411,0.00101693,0.0339582,-0.21534
0.0991039,0.137754,-2.85909,0.321697,0.635636,0.0358992,0.00107086,0.0569507,-0.084951
0.114144,0.144358,-2.85754,0.312489,0.823769,0.186262,0.0125477,0.0633059,0.0299575
0.129145,0.151159,-2.85309,0.303978,0.702884,0.330082,0.0361646,0.0386606,0.1095
0.139761,0.158191,-2.846,0.294171,0.447428,0.449046,0.0535644,0.0116728,0.14947
0.14445,0.165513,-2.83685,0.300031,0.173157,0.543878,0.0536977,0.00103183,0.16022
0.144213,0.173081,-2.82606,0.284529,0.00203097,0.603793,0.0383046,0.00934537,0.165202
0.141535,0.180103,-2.81435,0.244559,-0.0516106,0.624906,0.040708,-0.00514978,0.166935
0.137674,0.186862,-2.80226,0.269758,-0.128848,0.631792,0.102592,-0.0728903,0.175443
0.13122,0.194416,-2.79079,0.32471,-0.318002,0.566677,0.166894,-0.109601,0.17225
0.121016,0.202286,-2.78131,0.314798,-0.498685,0.447746,0.18623,-0.098453,0.187137
0.10803,0.208342,-2.7738,0.186704,-0.6333,0.346543,0.173809,-0.0676978,0.187592
0.0938014,0.211463,-2.76801,0.0836559,-0.634791,0.241169,0.154882,-0.0521643,0.17144
0.0816832,0.213894,-2.76489,0.159642,-0.482911,0.0710819,0.128961,-0.0446001,0.105042
0.0741965,0.219129,-2.76614,0.381657,-0.300061,-0.14954,0.109407,-0.0150727,0.0733162
0.0705137,0.228681,-2.77156,0.588916,-0.196484,-0.279355,0.10008,0.0150841,0.0762365
0.0682596,0.241402,-2.77815,0.700445,-0.199453,-0.245548,0.0772343,0.0298354,0.0874407
0.0652521,0.255809,-2.78349,0.770978,-0.215956,-0.197044,0.0518453,0.0555643,0.0935738
0.0617704,0.271376,-2.78892,0.783163,-0.283349,-0.217547,0.0244057,0.0739345,0.0770137
0.0572474,0.285774,-2.79409,0.658045,-0.298492,-0.188596,0.0158136,0.0686432,0.0857712
0.0529821,0.296859,-2.79835,0.454451,-0.23703,-0.157204,-0.0195435,0.101676,0.085808
0.0498606,0.303349,-2.80187,0.206615,-0.178165,-0.144506,-0.0447262,0.130352,0.0644988
0.0476411,0.305411,-2.80483,0.029538,-0.131061,-0.123066,-0.0493407,0.131374,0.0472305
0.0468523,0.305239,-2.80721,-0.0129027,-0.00808925,-0.107209,-0.0501634,0.118423,0.0257266
0.0487665,0.30556,-2.80938,0.0676518,0.128091,-0.092017,-0.0519823,0.11795,-0.00180072
0.0532692,0.308069,-2.81093,0.187559,0.271724,-0.0366897,-0.0695667,0.108914,-0.0128015
0.0591322,0.312274,-2.81144,0.21112,0.234636,0.00971471,-0.0814013,0.102969,-0.0576248
0.0607757,0.315617,-2.81126,0.097866,-0.0918392,0.0230529,-0.0608662,0.0738457,-0.138094
0.0538938,0.315321,-2.81099,-0.128906,-0.598166,-0.00665449,-0.00810576,0.0386063,-0.23211
0.0390108,0.310713,-2.8116,-0.300382,-0.799491,-0.0723869,0.000479549,0.0131044,-0.275949
0.0258751,0.303952,-2.81376,-0.360632,-0.542421,-0.142835,-0.0319189,0.031288,-0.286988
0.019011,0.295837,-2.81644,-0.445215,-0.216226,-0.102084,-0.030742,0.0469574,-0.293614
0.0176301,0.28569,-2.81642,-0.569589,0.0302526,0.10164,-0.00518061,0.0115098,-0.263002
0.0164574,0.272934,-2.81194,-0.70473,-0.0591565,0.283179,-0.00307588,0.00132355,-0.279013
0.0164574,0.272934,-2.81194,-0.70473,-0.0591565,0.283179,-0.00307588,0.00132355,-0.279013
0.0118174,0.257967,-2.80534,-0.777031,-0.225971,0.299686,-0.032407,0.0316044,-0.278671
0.00496194,0.242618,-2.79977,-0.732995,-0.301626,0.223776,-0.064219,0.0640053,-0.247317
-0.00110236,0.229503,-2.79575,-0.554515,-0.177509,0.1695,-0.0870003,0.0676729,-0.181555
-0.0035794,0.220819,-2.79252,-0.298584,-0.00314638,0.149866,-0.0829943,0.0750162,-0.109829
-0.00219483,0.21758,-2.78943,-0.0235885,0.209984,0.160473,-0.0613487,0.0829172,0.0100508
0.00249702,0.219255,-2.7856,0.170837,0.27858,0.215618,-0.0487782,0.0815467,0.106672
0.00480737,0.223573,-2.78069,0.242992,0.0382872,0.256161,-0.0470003,0.0616659,0.128176
0.0016172,0.228435,-2.77565,0.232529,-0.240856,0.216888,-0.0646703,0.0559055,0.129371
-0.00571791,0.232983,-2.77237,0.220515,-0.378023,0.0906204,-0.103583,0.079056,0.144368
-0.012928,0.237393,-2.77199,0.223099,-0.294484,-0.0579108,-0.118264,0.0964975,0.162608
-0.0161158,0.242263,-2.7742,0.263402,-0.0576872,-0.150113,-0.123714,0.0942394,0.203902
-0.014198,0.24776,-2.7774,0.266351,0.135289,-0.152446,-0.103164,0.0744875,0.249152
-0.0111982,0.252445,-2.77986,0.180126,0.067679,-0.0889052,-0.0740111,0.0404673,0.242887
-0.0114852,0.254604,-2.78113,0.0342548,-0.127642,-0.0492697,-0.0571226,0.0147406,0.228472
-0.0144884,0.254258,-2.78235,-0.0540808,-0.171095,-0.0823244,-0.0738533,0.019807,0.230185
-0.0161193,0.253036,-2.78476,-0.0678059,-0.0337122,-0.151554,-0.0879255,0.0278409,0.252089
-0.0141906,0.251671,-2.78843,-0.0736907,0.125424,-0.188769,-0.0755819,0.0217585,0.262788
-0.0101574,0.249919,-2.79219,-0.109397,0.153449,-0.16479,-0.0610507,0.00576387,0.250895
-0.00741025,0.247232,-2.79504,-0.154681,0.0363295,-0.112272,-0.0391561,-0.011322,0.230172
-0.00726969,0.244176,-2.79709,-0.14602,-0.0558296,-0.0922934,-0.0593217,-0.00809062,0.229543
-0.00771229,0.241345,-2.7993,-0.139806,-0.0222317,-0.126948,-0.0728946,-0.0101974,0.238933
-0.00657607,0.238134,-2.80251,-0.188792,0.0635961,-0.179434,-0.0530273,-0.0279197,0.24483
-0.00364194,0.233432,-2.80662,-0.289752,0.116676,-0.210281,-0.0264404,-0.0433409,0.247133
-0.000916597,0.226464,-2.81109,-0.403025,0.0382305,-0.218003,-0.0179514,-0.0506138,0.196634
3.27669e-05,0.217632,-2.81556,-0.46908,-0.035666,-0.211584,-0.015657,-0.0694672,0.139558
-0.000380952,0.207826,-2.81995,-0.503601,-0.0866264,-0.221152,0.000464323,-0.0923882,0.0523496
-0.000380104,0.197585,-2.82484,-0.513349,0.0069917,-0.256663,0.010886,-0.10718,0.0115035
0.00218518,0.187426,-2.83041,-0.492841,0.147931,-0.280911,0.00940401,-0.108881,-0.0347271
0.00731598,0.178024,-2.83593,-0.441383,0.234238,-0.254945,0.00345036,-0.107003,-0.0758588
0.0120703,0.16965,-2.84062,-0.387832,0.143857,-0.217115,-0.00264984,-0.107118,-0.159905
0.0156041,0.162438,-2.84519,-0.319717,0.18117,-0.253498,-0.00915722,-0.0966377,-0.230478
0.0228041,0.156755,-2.85079,-0.228486,0.457215,-0.291139,0.00164743,-0.089583,-0.242742
0.034765,0.153032,-2.85555,-0.13182,0.617542,-0.155836,0.0211902,-0.0967407,-0.249375
0.0466091,0.150833,-2.85609,-0.0973914,0.513451,0.0988154,0.000933848,-0.0886299,-0.29621
0.0537025,0.148887,-2.85188,-0.113871,0.244987,0.276735,-0.0132574,-0.062951,-0.352912
0.0543625,0.147077,-2.84601,-0.0910868,-0.108823,0.254312,0.000282262,-0.0185989,-0.380757
0.0485947,0.145971,-2.84229,-0.0340789,-0.360986,0.091521,0.0247407,0.0303407,-0.372185
0.0417846,0.146096,-2.84213,0.0445572,-0.262032,-0.0578304,0.0178614,0.0621569,-0.293148
0.0401699,0.147378,-2.84367,0.0760256,0.107029,-0.0713753,-0.0134329,0.074183,-0.189556
0.0464224,0.148063,-2.84442,-0.0284921,0.472786,0.00960903,-0.00329547,0.0689852,-0.0960675
0.0568493,0.145614,-2.84275,-0.225373,0.554032,0.155287,0.0490378,0.0511665,-0.045064
0.0667007,0.140194,-2.83741,-0.315026,0.503497,0.335916,0.102826,0.0288948,0.00207102
0.0755006,0.135124,-2.82868,-0.227075,0.490974,0.476012,0.116177,0.0369961,0.0486392
0.0842097,0.132802,-2.81809,-0.089065,0.520704,0.531868,0.080342,0.0566369,0.0802423
0.0931095,0.132716,-2.80752,-0.0281647,0.482071,0.500348,0.042654,0.0642424,0.0879563
0.100141,0.13278,-2.79794,-0.0645169,0.347626,0.445065,0.037213,0.0427753,0.112117
0.10428,0.131835,-2.78926,-0.114399,0.158932,0.398324,0.0581431,0.0239853,0.14234
0.104606,0.130743,-2.78148,-0.053248,0.0062864,0.362611,0.0733405,0.0271148,0.161522
0.104126,0.131927,-2.77452,0.101786,0.0554264,0.332125,0.048317,0.0462484,0.23237
0.10453,0.135872,-2.76838,0.210912,0.0335638,0.313719,0.0226141,0.0610064,0.243966
0.10453,0.135872,-2.76838,0.210912,0.0335638,0.313719,0.0226141,0.0610064,0.243966
0.103048,0.14137,-2.76237,0.262453,-0.0866093,0.336476,0.013639,0.0367585,0.214966
0.101477,0.147286,-2.75589,0.247075,0.0510179,0.34983,0.00939745,0.018092,0.254302
0.103238,0.152219,-2.74971,0.170722,0.197942,0.29623,0.00717603,0.0417985,0.260152
0.107068,0.154959,-2.74476,0.0440492,0.242934,0.219572,0.0065993,0.0561343,0.279479
0.110547,0.154846,-2.74065,-0.0971389,0.148991,0.186112,0.0138619,0.0443036,0.269678
0.111343,0.152346,-2.73643,-0.181466,0.00453294,0.201608,0.0166994,0.0270926,0.248304
0.11047,0.148967,-2.73179,-0.200765,0.0100986,0.211007,-0.00305175,0.0195717,0.23897
0.110348,0.144961,-2.72728,-0.254241,0.0147397,0.179348,-0.00879557,0.0188437,0.213458
0.109376,0.139193,-2.72367,-0.353925,-0.0505769,0.101592,0.00304262,-0.00307111,0.157048
0.107628,0.131274,-2.72184,-0.440323,-0.123202,-0.0100259,0.00313841,-0.00759181,0.10718
0.103575,0.122067,-2.72195,-0.453772,-0.282182,-0.0922355,-0.00375854,-0.0105903,0.0271111
0.0965752,0.113145,-2.72344,-0.41287,-0.421439,-0.139834,0.0129408,-0.0229149,-0.0501781
0.0878224,0.105024,-2.72561,-0.374298,-0.46288,-0.139349,0.0259329,-0.0174983,-0.0987896
0.0783277,0.0976697,-2.7268,-0.341085,-0.512914,-0.0164034,0.0152345,0.00997477,-0.135335
0.0676645,0.0918624,-2.72424,-0.240528,-0.461417,0.23784,-0.0313475,0.0169651,-0.177806
0.0615912,0.0886119,-2.71712,-0.13881,-0.0467157,0.415164,-0.127473,0.00693769,-0.210936
0.0634223,0.0861341,-2.70858,-0.186557,0.234513,0.390265,-0.161869,-0.0214553,-0.270649
0.0658341,0.0809824,-2.70161,-0.381811,-0.0528184,0.248077,-0.0764352,-0.0674674,-0.331578
0.0578331,0.0717481,-2.69842,-0.521277,-0.677584,0.002388,0.00930342,-0.0529625,-0.376295
0.0421962,0.0619628,-2.70068,-0.404878,-0.79056,-0.266337,0.010006,0.007907,-0.331894
0.0291958,0.055465,-2.70738,-0.230961,-0.546556,-0.391282,-0.0131708,0.0566725,-0.279093
0.0187264,0.0509215,-2.71464,-0.235732,-0.596268,-0.316337,0.0326601,0.00732036,-0.297324
0.00462193,0.044596,-2.71968,-0.399898,-0.810471,-0.209622,0.0703949,-0.0390981,-0.315092
-0.0125385,0.0350007,-2.72404,-0.530358,-0.899882,-0.24148,0.0786621,-0.0170085,-0.337971
-0.0297188,0.0250888,-2.72996,-0.424849,-0.773436,-0.318656,0.0641137,0.0259711,-0.350671
-0.0416374,0.0197395,-2.73661,-0.10613,-0.394429,-0.301858,0.0177068,0.063363,-0.313592
-0.0446834,0.0215824,-2.74158,0.256499,0.0564011,-0.192182,-0.00964788,0.0778246,-0.242701
-0.0416765,0.0290649,-2.74401,0.442595,0.200038,-0.0888662,-0.0086461,0.0815357,-0.178231
-0.037708,0.0382172,-2.74494,0.436476,0.147807,-0.0603226,-0.000658575,0.0688627,-0.0961823
-0.0371218,0.0461561,-2.74647,0.352597,-0.10168,-0.125504,0.0124155,0.0870637,-0.0636734
-0.0404915,0.053081,-2.74923,0.339336,-0.202759,-0.160164,-0.0104799,0.104692,-0.00094521
-0.042711,0.0604034,-2.75186,0.376625,0.00228985,-0.124759,-0.0457283,0.101108,0.0813419
-0.0397466,0.06815,-2.75319,0.378989,0.26734,-0.0373065,-0.0999435,0.0907412,0.148533
-0.0322235,0.0750803,-2.75302,0.301108,0.49358,0.0194748,-0.164482,0.043012,0.179191
-0.0210784,0.0801366,-2.75293,0.205752,0.565103,-0.0559435,-0.163805,0.0101045,0.180087
-0.0108004,0.0837582,-2.75651,0.24195,0.397572,-0.335385,-0.110469,0.0637475,0.259894
-0.00766281,0.0978657,-2.76819,0.944069,-0.155837,-0.744481,-0.0066714,0.135521,0.317238
-0.00720029,0.116878,-2.78286,0.799265,0.100041,-0.672247,-0.0874534,0.0354967,0.395297
-0.00177689,0.12668,-2.79509,0.159547,0.30968,-0.574115,-0.114113,0.00759727,0.31892
0.00939537,0.124996,-2.80719,-0.263983,0.598049,-0.636121,-0.126143,0.0568907,0.327161
