attitude_roll,attitude_pitch,attitude_yaw,rotationRate_x,rotationRate_y,rotationRate_z,acceleration_x,acceleration_y,acceleration_z
-0.135429,0.207525,0.0141245,0.470019,0.534352,1.30157,0.349831,0.0227348,0.0628608
-0.129846,0.209571,0.0424479,0.104845,0.635875,1.41593,0.247513,0.00892806,0.125785
-0.121868,0.205731,0.0716138,-0.103871,0.766239,1.46486,0.186721,0.0117017,0.146609
-0.111233,0.200064,0.100953,-0.103471,0.863229,1.46181,0.153406,0.0456098,0.135328
-0.100016,0.196017,0.129836,-0.00149838,0.808812,1.38962,0.121848,0.0596625,0.134793
-0.0898616,0.194345,0.156587,0.0682536,0.742878,1.24059,0.082085,0.0624473,0.171597
-0.0791788,0.193677,0.180326,0.0536258,0.817356,1.09817,0.0385699,0.0425509,0.220325
-0.0650564,0.192836,0.201433,0.0107626,1.01923,0.981708,-0.00319588,0.00725591,0.241565
-0.045992,0.191714,0.220345,-0.0184399,1.2391,0.894853,-0.0355856,-0.0245771,0.225636
-0.0236195,0.190478,0.237989,-0.0557417,1.30995,0.853369,-0.0641664,-0.0465273,0.192883
-0.00212636,0.188181,0.255258,-0.170958,1.13451,0.853972,-0.0845507,-0.0747838,0.156859
0.0142312,0.183153,0.272538,-0.350598,0.814081,0.837944,-0.116471,-0.0990426,0.116491
0.0235788,0.174629,0.288889,-0.533094,0.425655,0.747732,-0.166422,-0.111184,0.0614064
0.0275784,0.163218,0.302789,-0.61943,0.241649,0.598041,-0.201265,-0.127087,-0.0278564
0.0297309,0.152088,0.31383,-0.505914,0.145921,0.469662,-0.199244,-0.142046,-0.155031
0.0306199,0.144334,0.322764,-0.29329,0.0954765,0.387678,-0.163628,-0.131572,-0.26956
0.0318656,0.1405,0.329544,-0.128458,0.147388,0.281229,-0.158988,-0.163643,-0.346874
0.0348937,0.139328,0.335018,-0.0120934,0.195679,0.268652,-0.133319,-0.155144,-0.39216
0.0357244,0.14005,0.340347,0.0628621,-0.0703575,0.244879,-0.114194,-0.122568,-0.377427
0.0299638,0.142704,0.34385,0.193357,-0.483653,0.105636,-0.117042,-0.0714339,-0.315159
0.0158761,0.148614,0.344371,0.40289,-0.910108,-0.0307105,-0.116744,-0.0443764,-0.213067
-0.00484865,0.158702,0.342586,0.594005,-1.15302,-0.148776,-0.139011,-0.0482777,-0.0899556
-0.0269693,0.171255,0.3382,0.625907,-1.0976,-0.306768,-0.16752,-0.0511841,0.0284246
-0.0455379,0.182551,0.331512,0.447524,-0.849323,-0.377217,-0.169407,-0.0833995,0.10271
-0.056056,0.188567,0.324175,0.0978534,-0.295285,-0.375846,-0.166158,-0.101244,0.133166
-0.0534953,0.187436,0.316362,-0.238185,0.391636,-0.389621,-0.167636,-0.0905306,0.0943916
-0.0399119,0.181356,0.308209,-0.377247,0.758701,-0.378075,-0.109984,-0.0483046,-0.020174
-0.0232961,0.174921,0.300658,-0.254739,0.700783,-0.348802,-0.0402787,0.000476941,-0.12835
-0.012421,0.173088,0.293396,0.0754278,0.188583,-0.394066,-0.0136897,0.0573871,-0.176838
-0.0147205,0.178951,0.283363,0.49283,-0.576463,-0.618631,-0.0422778,0.108722,-0.117852
-0.0277851,0.191917,0.268809,0.732615,-0.920709,-0.835029,-0.0449485,0.135657,0.0282128
-0.0431477,0.207479,0.250628,0.731456,-0.946124,-0.996128,-0.0304837,0.130509,0.203076
-0.0556484,0.221216,0.230051,0.522677,-0.695923,-1.07311,-0.00397852,0.107722,0.325836
-0.060146,0.230527,0.208349,0.270347,-0.263357,-1.08713,0.0113089,0.0836234,0.336929
-0.058024,0.234887,0.186714,0.036164,-0.0547001,-1.03526,0.0502039,0.0654208,0.250689
-0.0540866,0.23453,0.167073,-0.190332,-0.0503718,-0.861245,0.0867904,0.0513553,0.0914102
-0.0538301,0.229771,0.15105,-0.331016,-0.329978,-0.673096,0.115043,-0.00462143,-0.140637
-0.0604332,0.224674,0.139201,-0.226503,-0.525776,-0.460186,0.157038,0.0190531,-0.380123
-0.0676945,0.221371,0.131395,-0.221422,-0.302159,-0.281304,0.151151,0.0306176,-0.489467
-0.0658243,0.214201,0.127202,-0.546706,0.441616,-0.0746642,0.094318,-0.0112032,-0.50788
-0.049642,0.201678,0.127019,-0.637974,1.13389,0.133514,0.0322583,-0.078358,-0.640372
-0.0244586,0.191488,0.131041,-0.313118,1.38393,0.290435,0.103202,0.0106474,-0.789827
-0.000847229,0.190347,0.137561,0.206245,1.02625,0.333841,0.182915,0.113272,-0.776591
0.0112392,0.198823,0.144163,0.600534,0.273238,0.323314,0.256393,0.188787,-0.562716
0.00746123,0.211801,0.151695,0.620867,-0.436516,0.460231,0.294418,0.188722,-0.252018
-0.00628126,0.221154,0.163823,0.281271,-0.593475,0.743194,0.266321,0.122005,0.0143068
-0.0198246,0.222453,0.182009,-0.107802,-0.324777,1.02644,0.206499,0.0778005,0.141977
-0.0279405,0.217872,0.20501,-0.242725,0.0101492,1.21728,0.181085,0.0996518,0.136303
-0.0312533,0.213586,0.230522,-0.0726097,0.162037,1.27683,0.186208,0.178442,0.0778282
-0.0339437,0.21399,0.256386,0.191432,0.0921611,1.24204,0.18569,0.245777,0.0775959
-0.0385709,0.218674,0.280873,0.336149,-0.0163547,1.12662,0.157135,0.27501,0.14233
-0.0439419,0.224498,0.302569,0.318841,-0.0417237,0.968136,0.117578,0.266623,0.232632
-0.0439419,0.224498,0.302569,0.318841,-0.0417237,0.968136,0.117578,0.266623,0.232632
-0.0493004,0.229535,0.32072,0.278323,-0.0853496,0.775039,0.0899038,0.248216,0.30105
-0.0545993,0.234547,0.33466,0.307412,-0.119003,0.556172,0.0740587,0.227749,0.355341
-0.0594322,0.241048,0.344338,0.402456,-0.143154,0.353346,0.0752122,0.211881,0.410124
-0.064073,0.249625,0.350488,0.482545,-0.173023,0.20119,0.0802177,0.196412,0.475974
-0.0685463,0.258977,0.354193,0.455136,-0.18045,0.107001,0.0799109,0.18526,0.545315
-0.0725468,0.26632,0.356548,0.268532,-0.162251,0.0830324,0.0774503,0.155563,0.605809
-0.0760003,0.268327,0.359116,-0.0686763,-0.110384,0.168034,0.0776809,0.104779,0.642081
-0.0775597,0.262448,0.363855,-0.495413,0.101581,0.345366,0.0553127,0.0554052,0.626062
-0.0748073,0.247741,0.371792,-0.894542,0.354378,0.537041,0.0320962,0.0173394,0.538092
-0.0697001,0.226522,0.382686,-1.12513,0.390533,0.645994,-0.0112218,0.023631,0.344539
-0.0641933,0.202789,0.393642,-1.13673,0.378699,0.56018,-0.101518,0.0110638,0.0581949
-0.0591537,0.181451,0.402232,-0.931123,0.298626,0.423993,-0.149783,-0.0135738,-0.219813
-0.0548503,0.164453,0.409247,-0.751985,0.266023,0.381271,-0.162378,-0.0859365,-0.416617
-0.049735,0.149766,0.416217,-0.684995,0.369335,0.389189,-0.196493,-0.196039,-0.534786
-0.0428201,0.136699,0.423849,-0.574304,0.418064,0.430601,-0.213574,-0.246462,-0.635328
-0.0360452,0.126267,0.432574,-0.443597,0.337184,0.473425,-0.162248,-0.230087,-0.689575
-0.0331928,0.118256,0.441843,-0.332294,0.0330137,0.469704,-0.112767,-0.22609,-0.679269
-0.0378276,0.112761,0.450993,-0.183688,-0.414952,0.45964,-0.0765574,-0.225627,-0.627637
-0.0514109,0.110319,0.459724,-0.030455,-0.832882,0.414587,-0.0675156,-0.227291,-0.538184
-0.0716487,0.110183,0.467253,0.0510775,-1.0633,0.328894,-0.0754227,-0.243068,-0.414238
-0.0929199,0.111064,0.473329,0.0943726,-0.976367,0.266289,-0.0842687,-0.257161,-0.312069
-0.111763,0.113976,0.477801,0.260659,-0.870994,0.109989,-0.118838,-0.202982,-0.309043
-0.128113,0.121502,0.477506,0.478865,-0.772247,-0.254443,-0.182673,-0.143155,-0.301625
-0.141518,0.133778,0.469484,0.615703,-0.669896,-0.707615,-0.207595,-0.0864543,-0.223814
-0.150974,0.149205,0.453735,0.678011,-0.508773,-1.0401,-0.160657,-0.0151358,-0.182515
-0.156625,0.16619,0.432622,0.680751,-0.389577,-1.27797,-0.137363,0.0378776,-0.0994886
-0.157712,0.183898,0.408378,0.708678,-0.0944201,-1.3441,-0.0959708,0.0961937,-0.0192671
-0.150536,0.201525,0.381755,0.600608,0.248134,-1.43682,-0.0619141,0.200041,0.0294886
-0.137978,0.21706,0.354337,0.589922,0.418688,-1.42483,0.0246631,0.210629,0.126388
-0.121423,0.233405,0.329164,0.723307,0.720717,-1.20699,0.0326815,0.175903,0.202263
-0.0982155,0.251138,0.309855,0.830165,1.13868,-0.844741,0.0590013,0.125597,0.31879
-0.0696363,0.270562,0.297282,1.03473,1.35179,-0.558927,0.0234543,0.103882,0.358487
-0.0406355,0.294592,0.288322,1.31716,1.26336,-0.449123,0.00596091,0.123327,0.395019
-0.0222019,0.322186,0.280173,1.36795,-0.155267,-0.457472,-0.0338129,0.171209,0.466439
-0.0312786,0.350115,0.266535,1.33705,-0.995981,-0.918315,-0.138013,0.15897,0.487061
-0.0538548,0.37379,0.245066,0.900425,-1.94954,-1.17602,-0.0648327,0.105717,0.597523
-0.0857145,0.386566,0.219778,0.187085,-2.12515,-1.18893,-0.0748367,0.0463219,0.644855
-0.11824,0.38428,0.198193,-0.631556,-1.87542,-0.696093,0.0102858,0.0933364,0.699282
-0.14574,0.36607,0.186837,-1.27261,-1.26686,-0.19464,0.0786104,0.152336,0.610976
-0.16069,0.338352,0.177182,-1.54805,-0.568965,-0.365865,-0.176572,0.0871361,0.434324
-0.160446,0.311654,0.160126,-1.26977,-0.00058416,-0.789929,-0.29061,0.0553215,0.143628
-0.150398,0.295792,0.138486,-0.584589,0.334683,-0.964457,-0.18831,0.156046,-0.158719
-0.135784,0.294261,0.118133,0.105811,0.555437,-0.937541,-0.148176,0.207147,-0.394001
-0.115894,0.301543,0.100005,0.310964,0.934111,-0.864832,-0.195552,0.130445,-0.48599
-0.0881857,0.307025,0.0848447,0.0266789,1.3578,-0.595269,-0.199037,0.0589222,-0.517798
-0.0581441,0.303348,0.0770398,-0.468775,1.31324,-0.110915,-0.100151,0.0134382,-0.602981
-0.0381542,0.288836,0.0781504,-0.972262,0.669961,0.241694,-0.0174361,0.0625469,-0.711189
-0.0348383,0.265524,0.083349,-1.31116,-0.197589,0.302384,0.00953212,0.123957,-0.747087
-0.0470085,0.238335,0.0875667,-1.34417,-0.853706,0.207605,0.044381,0.144319,-0.695921
-0.0672002,0.214145,0.0897202,-1.01775,-1.06904,0.164102,0.107333,0.122073,-0.599861
-0.0891248,0.198772,0.0929817,-0.482468,-1.04123,0.293737,0.189122,0.0844892,-0.473303
-0.0891248,0.198772,0.0929817,-0.482468,-1.04123,0.293737,0.189122,0.0844892,-0.473303
-0.110046,0.193423,0.10055,-0.00868019,-0.884213,0.497755,0.259296,0.0691718,-0.307802
-0.126906,0.194251,0.112463,0.195012,-0.556616,0.643363,0.301736,0.0769884,-0.126414
-0.137221,0.196892,0.126977,0.241508,-0.203545,0.728445,0.314995,0.0762379,-0.00621551
-0.141635,0.199767,0.142916,0.274051,0.0613088,0.768322,0.334384,0.0948946,0.060539
-0.142296,0.204017,0.158976,0.382222,0.164391,0.723748,0.354146,0.120466,0.103427
-0.142211,0.210744,0.174216,0.492406,0.156145,0.667738,0.382829,0.141575,0.163286
-0.142431,0.219341,0.188995,0.556332,0.138837,0.660129,0.40448,0.141872,0.229585
-0.143025,0.228598,0.204392,0.56695,0.146956,0.70764,0.409688,0.126774,0.293355
-0.143792,0.237465,0.220894,0.538374,0.154724,0.757741,0.386758,0.118586,0.358925
-0.144619,0.245493,0.238177,0.502466,0.184568,0.789093,0.352289,0.106148,0.416419
-0.144211,0.252676,0.256022,0.458245,0.317472,0.829425,0.308628,0.0947983,0.455511
-0.140366,0.258499,0.275059,0.376728,0.558994,0.924342,0.278187,0.0791615,0.486807
-0.131875,0.262136,0.29638,0.254758,0.839633,1.07999,0.24663,0.0631148,0.505746
-0.118956,0.262389,0.320867,0.0514604,1.06667,1.27386,0.208974,0.049733,0.506327
-0.104032,0.258012,0.348346,-0.187212,1.09552,1.40724,0.165135,0.0524462,0.484499
-0.091126,0.249666,0.377095,-0.356691,0.90187,1.43356,0.110807,0.0705517,0.435525
-0.0824194,0.239526,0.404996,-0.408391,0.647582,1.34574,0.0617414,0.0887438,0.359648
-0.0763405,0.229464,0.430369,-0.395856,0.589477,1.19581,-0.000378802,0.0777666,0.300741
-0.0687464,0.221156,0.452169,-0.255649,0.670786,0.990647,-0.0537847,0.0532506,0.162824
-0.0578163,0.217141,0.470424,-0.0430897,0.835453,0.837767,-0.0870665,0.00645396,0.0139331
-0.0430189,0.216477,0.487124,0.0257051,0.998956,0.822026,-0.103323,-0.074104,-0.0918247
-0.0270257,0.215624,0.504559,-0.0804466,0.946178,0.896359,-0.114717,-0.161821,-0.246551
-0.0123083,0.211139,0.523753,-0.358971,0.980852,0.999418,-0.101857,-0.210348,-0.369922
0.00432431,0.200533,0.545882,-0.685635,1.13804,1.19698,-0.0945545,-0.278393,-0.48506
0.0221423,0.185475,0.573104,-0.804744,1.10833,1.44959,-0.0864734,-0.308995,-0.662671
0.0344979,0.171678,0.603813,-0.640592,0.613153,1.50442,-0.090991,-0.247514,-0.813596
0.0348461,0.162657,0.633117,-0.356649,-0.106047,1.32784,-0.111238,-0.188844,-0.828053
0.021995,0.1596,0.657045,-0.019276,-0.773713,1.02941,-0.132905,-0.163022,-0.733331
-0.0013343,0.16265,0.675065,0.297446,-1.23408,0.77211,-0.131832,-0.145027,-0.552536
-0.0299841,0.170853,0.688972,0.514024,-1.34433,0.599773,-0.124784,-0.146307,-0.341205
-0.0564974,0.181002,0.700066,0.515452,-1.06225,0.456216,-0.149198,-0.157601,-0.163658
-0.0738825,0.189207,0.708874,0.343561,-0.48306,0.365124,-0.176266,-0.1799,-0.0534695
-0.0780014,0.192939,0.716082,0.0818681,0.189042,0.311046,-0.187928,-0.185575,-0.0247282
-0.0710817,0.192911,0.721524,0.00162926,0.526872,0.223019,-0.170118,-0.14207,-0.0903945
-0.0622465,0.194555,0.724724,0.217813,0.350889,0.0590299,-0.150546,-0.056807,-0.15187
-0.0598745,0.202595,0.723386,0.590787,-0.171232,-0.270315,-0.159128,0.0298559,-0.138724
-0.0666357,0.218686,0.714263,0.948348,-0.664354,-0.731638,-0.191378,0.0845163,-0.0543035
-0.0778486,0.241196,0.696742,1.15244,-0.793169,-1.11706,-0.206128,0.0925479,0.0758085
-0.0861812,0.266666,0.673202,1.18082,-0.594998,-1.34873,-0.195258,0.070798,0.196197
-0.0873061,0.292159,0.646379,1.13837,-0.26315,-1.42995,-0.152324,0.0543472,0.25604
-0.0811962,0.3164,0.618712,1.05605,0.0343722,-1.40295,-0.118445,0.0606286,0.290233
-0.0698373,0.338221,0.591609,0.927963,0.205032,-1.32647,-0.107238,0.0647344,0.303291
-0.0566233,0.356848,0.565786,0.78609,0.220441,-1.22665,-0.111416,0.076251,0.297287
-0.0445499,0.372299,0.541264,0.643433,0.0938204,-1.15875,-0.12328,0.10091,0.274533
-0.0351501,0.384604,0.516863,0.498404,-0.046161,-1.1734,-0.156511,0.132715,0.262098
-0.0277348,0.393965,0.491396,0.37438,-0.184254,-1.21419,-0.175458,0.155749,0.250722
-0.0229562,0.401114,0.465101,0.280227,-0.358358,-1.22901,-0.159242,0.172899,0.234853
-0.0211913,0.4061,0.438677,0.158725,-0.487389,-1.21149,-0.130528,0.190852,0.245733
-0.0202637,0.408557,0.412714,0.0486607,-0.415124,-1.18818,-0.119757,0.197609,0.255901
-0.0162147,0.409917,0.387137,0.0671225,-0.189103,-1.16479,-0.123527,0.204563,0.226848
-0.0162147,0.409917,0.387137,0.0671225,-0.189103,-1.16479,-0.123527,0.204563,0.226848
-0.00763309,0.412689,0.361993,0.186975,0.0277262,-1.15433,-0.128781,0.228192,0.177967
0.00433024,0.417863,0.3367,0.309228,0.117219,-1.17379,-0.123419,0.266022,0.134607
0.0165386,0.424339,0.310993,0.340062,0.0276847,-1.16409,-0.0973771,0.278403,0.10949
0.0260857,0.429536,0.286163,0.205974,-0.0970463,-1.07814,-0.0583052,0.275885,0.0887967
0.0321852,0.430916,0.264195,-0.0244801,-0.197894,-0.904734,-0.0247519,0.259607,0.0541549
0.0350497,0.427241,0.24742,-0.299705,-0.209084,-0.625404,0.0224133,0.231027,-0.00812548
0.0343287,0.418274,0.237716,-0.559645,-0.279945,-0.29263,0.079202,0.211574,-0.0971536
0.0284131,0.4048,0.235083,-0.777341,-0.40519,-0.00380368,0.131724,0.21668,-0.199796
0.0185575,0.387468,0.237944,-0.958073,-0.466765,0.218407,0.13704,0.213951,-0.277645
0.00661709,0.366878,0.244876,-1.11588,-0.463191,0.393386,0.142291,0.187668,-0.323557
-0.00508085,0.343334,0.254711,-1.24044,-0.351944,0.526071,0.140175,0.157338,-0.366526
-0.0144166,0.317693,0.266805,-1.31331,-0.195165,0.648115,0.166252,0.117475,-0.407608
-0.0215801,0.291108,0.28125,-1.30824,-0.111585,0.78904,0.207377,0.0665396,-0.448013
-0.0289814,0.265316,0.298803,-1.23082,-0.168632,0.978658,0.233835,0.0121681,-0.454051
-0.0390103,0.240338,0.320467,-1.22942,-0.292446,1.2103,0.237617,-0.0395879,-0.403367
-0.0514988,0.213507,0.346047,-1.35778,-0.379636,1.40512,0.211196,-0.0889232,-0.328323
-0.0655101,0.183826,0.374329,-1.4264,-0.476357,1.53297,0.186781,-0.115089,-0.292013
-0.0811646,0.154377,0.40357,-1.27396,-0.605073,1.54776,0.170611,-0.096098,-0.284326
-0.0976506,0.129551,0.4314,-0.931115,-0.629664,1.39958,0.131514,-0.0634992,-0.240887
-0.11192,0.112908,0.454899,-0.475125,-0.488773,1.08214,0.086805,-0.0374176,-0.16627
-0.1207,0.106213,0.472108,0.00896131,-0.185269,0.699898,0.0717397,-0.0282178,-0.0845402
-0.121834,0.109785,0.48332,0.47931,0.19769,0.385771,0.085004,-0.0458464,-0.00707108
-0.11503,0.122641,0.490492,0.868559,0.545295,0.189643,0.108772,-0.0587882,0.0717455
-0.102407,0.142184,0.495574,1.11554,0.773279,0.111638,0.141113,-0.0674925,0.163144
-0.0865174,0.165404,0.500389,1.23401,0.870549,0.165261,0.172663,-0.0612102,0.250973
-0.0703239,0.189792,0.506994,1.23928,0.857266,0.303567,0.182194,-0.0411885,0.329454
-0.0560141,0.213516,0.51623,1.18632,0.75086,0.451165,0.150462,-0.0195784,0.396856
-0.0451932,0.235441,0.527981,1.05293,0.588501,0.582379,0.104066,0.0101733,0.459059
-0.0387138,0.253635,0.541922,0.813789,0.399147,0.696013,0.0622156,0.0286342,0.513241
-0.0367425,0.266395,0.557712,0.525806,0.21238,0.783113,0.0284346,0.0426439,0.550501
-0.0381821,0.273812,0.574778,0.288567,0.100988,0.835737,-0.00638593,0.0580008,0.552973
-0.0415226,0.276898,0.592747,0.0847764,0.0718329,0.896005,-0.0244322,0.0632286,0.535191
-0.0451105,0.275368,0.61251,-0.156492,0.099336,1.03055,-0.0403593,0.0514575,0.510754
-0.048824,0.268481,0.635338,-0.434072,0.168232,1.20562,-0.0465718,0.0314721,0.472197
-0.0499386,0.25537,0.661713,-0.76072,0.432565,1.41456,-0.0404004,0.022638,0.399668
-0.0450931,0.235646,0.691805,-1.05608,0.765384,1.58497,-0.0639257,0.0195122,0.273621
-0.0361218,0.211969,0.723717,-1.15921,0.778567,1.60559,-0.0907778,0.0281342,0.0678775
-0.0291215,0.188211,0.75479,-1.11427,0.512096,1.51099,-0.105567,0.0612928,-0.0933781
-0.0279155,0.166048,0.783025,-1.02304,0.106184,1.32546,-0.123092,0.0571315,-0.212838
-0.0324806,0.146229,0.806985,-0.894305,-0.144942,1.11912,-0.13755,0.00697514,-0.31077
-0.038399,0.128465,0.827478,-0.835565,-0.13054,0.988293,-0.135251,-0.0576178,-0.370589
-0.0416722,0.110906,0.845549,-0.860632,0.0334353,0.878994,-0.131737,-0.120507,-0.412707
-0.0411179,0.0923337,0.861338,-0.944323,0.172269,0.771427,-0.11953,-0.162116,-0.455312
-0.0382439,0.0720412,0.874919,-1.01898,0.189872,0.668787,-0.083996,-0.193173,-0.508359
-0.0374134,0.051835,0.886632,-0.939638,-0.0644055,0.58573,-0.0408317,-0.233634,-0.576612
-0.0422706,0.0345006,0.897088,-0.746962,-0.374627,0.530365,-0.00586292,-0.262656,-0.599083
-0.0522804,0.0213078,0.906284,-0.536459,-0.570928,0.445194,-0.000672869,-0.281779,-0.550513
-0.0632487,0.0119355,0.913274,-0.369213,-0.473076,0.299258,-0.00393678,-0.291715,-0.465602
-0.0697889,0.00582474,0.917241,-0.212891,-0.156075,0.143341,0.0126937,-0.300755,-0.41395
-0.0693683,0.0041012,0.918809,0.0752953,0.178261,0.044681,0.0589513,-0.299289,-0.428378
-0.064331,0.00943046,0.919601,0.482499,0.296515,0.0040254,0.125395,-0.273407,-0.453056
-0.064331,0.00943046,0.919601,0.482499,0.296515,0.0040254,0.125395,-0.273407,-0.453056
-0.0587695,0.0239263,0.91987,0.989435,0.229806,-0.0780534,0.18584,-0.203508,-0.43704
-0.0559799,0.0498016,0.918232,1.60456,0.0430611,-0.24454,0.234851,-0.122094,-0.375653
-0.0559203,0.0883391,0.913859,2.21758,-0.0507539,-0.379333,0.300195,-0.0368368,-0.265512
-0.0562614,0.137518,0.909646,2.64585,-0.00139209,-0.27057,0.388541,0.0402217,-0.113791
-0.0542838,0.192181,0.91055,2.7794,0.243845,0.088499,0.441152,0.0993711,0.0418202
-0.0483841,0.245542,0.920179,2.56343,0.554404,0.586548,0.431894,0.145563,0.184584
-0.0404752,0.291302,0.939827,2.06897,0.732769,1.09824,0.382753,0.196669,0.281274
-0.0353246,0.325352,0.969002,1.43559,0.620627,1.5426,0.312914,0.251374,0.322924
-0.0387992,0.34637,1.00609,0.809999,0.235814,1.86234,0.254015,0.315377,0.324547
-0.0525769,0.355701,1.04772,0.332358,-0.168906,1.97225,0.165062,0.371426,0.320522
-0.0729394,0.356987,1.08907,0.0735836,-0.397672,1.87505,0.0585451,0.399501,0.317519
-0.0946102,0.354819,1.12657,0.0378719,-0.43933,1.63359,-0.0440297,0.40223,0.30229
-0.113255,0.353934,1.15776,0.200546,-0.330642,1.29016,-0.113581,0.391772,0.292221
-0.126486,0.357486,1.18227,0.432985,-0.131526,0.961651,-0.132268,0.373404,0.291722
-0.133407,0.366121,1.20088,0.637814,0.100336,0.67371,-0.130992,0.353205,0.314663
-0.134426,0.378022,1.21511,0.684408,0.30124,0.512394,-0.123061,0.318424,0.359061
-0.131372,0.388855,1.22699,0.493818,0.428038,0.454999,-0.120362,0.269724,0.405956
-0.126601,0.393809,1.23752,0.102817,0.43236,0.449134,-0.130167,0.226315,0.433352
-0.122082,0.390248,1.24676,-0.355976,0.376733,0.441934,-0.142809,0.182801,0.412133
-0.11807,0.377885,1.25461,-0.777367,0.318106,0.432637,-0.156704,0.133527,0.332965
-0.114779,0.358348,1.26162,-1.06628,0.276623,0.449714,-0.143236,0.0890398,0.219851
-0.111375,0.335299,1.26868,-1.11561,0.318814,0.471737,-0.11909,0.0497849,0.0912781
-0.106319,0.313554,1.27617,-0.948435,0.427965,0.466089,-0.116371,0.0318151,-0.0136159
-0.0996018,0.296479,1.28348,-0.683542,0.434861,0.390286,-0.127054,0.0315343,-0.0674575
-0.0942993,0.284392,1.28913,-0.492111,0.225487,0.260904,-0.137467,0.0258898,-0.0576157
-0.0935166,0.274602,1.29209,-0.491096,-0.0524914,0.124036,-0.138481,0.0121002,0.0206748
-0.0963217,0.263541,1.29256,-0.614147,-0.18324,0.0360819,-0.14607,-0.0322851,0.10791
-0.0994559,0.250309,1.29135,-0.709313,-0.13348,-0.0216553,-0.165277,-0.0814134,0.152662
-0.0998617,0.235877,1.28867,-0.752699,0.0346492,-0.104846,-0.194767,-0.112236,0.154676
-0.0963521,0.221131,1.28361,-0.766024,0.197426,-0.251445,-0.214306,-0.1338,0.119837
-0.089636,0.206455,1.27515,-0.77266,0.275333,-0.440579,-0.229936,-0.160228,0.0519523
-0.0818851,0.192404,1.26276,-0.721427,0.247171,-0.650225,-0.227791,-0.181889,-0.0523047
-0.0741065,0.180651,1.24664,-0.565277,0.246928,-0.829142,-0.179638,-0.196292,-0.17121
-0.0657942,0.17258,1.22795,-0.368111,0.254716,-0.940333,-0.101673,-0.199186,-0.267719
-0.0583353,0.168209,1.20884,-0.199209,0.142988,-0.88686,0.0259852,-0.215731,-0.34268
-0.0546858,0.165446,1.1928,-0.200928,-0.0472226,-0.65598,0.145388,-0.248104,-0.376458
-0.0558125,0.160245,1.18306,-0.407127,-0.212234,-0.248817,0.242889,-0.275544,-0.368887
-0.0609128,0.148662,1.18294,-0.774265,-0.294749,0.331058,0.334099,-0.272997,-0.355424
-0.0699138,0.1283,1.19466,-1.19681,-0.496588,0.949912,0.380516,-0.23222,-0.370841
-0.0867149,0.0998091,1.21571,-1.44635,-0.984746,1.31155,0.35447,-0.148159,-0.401675
-0.113421,0.0692157,1.23992,-1.29471,-1.45715,1.35017,0.293327,-0.0652237,-0.435028
-0.145919,0.0459618,1.26222,-0.669654,-1.61051,1.14298,0.245422,-0.0140672,-0.432082
-0.176638,0.0380272,1.2817,0.214391,-1.32614,0.916073,0.296092,0.0555199,-0.354208
-0.198324,0.0478932,1.30076,1.10147,-0.746973,0.790353,0.381676,0.124154,-0.2161
-0.208265,0.073604,1.32203,1.80174,-0.138811,0.80297,0.451747,0.17124,-0.0714533
-0.207968,0.108541,1.34732,2.08439,0.387454,0.952439,0.501522,0.225775,0.0924913
-0.199833,0.144851,1.37618,2.02366,0.767984,1.12417,0.514084,0.275403,0.21712
-0.186801,0.177315,1.40795,1.75414,1.03492,1.34003,0.513432,0.31242,0.281833
-0.170924,0.202912,1.44283,1.3739,1.20407,1.5766,0.475853,0.328353,0.313554
-0.154149,0.220561,1.48072,0.965047,1.25266,1.797,0.414819,0.314175,0.307405
-0.154149,0.220561,1.48072,0.965047,1.25266,1.797,0.414819,0.314175,0.307405
-0.138535,0.229833,1.52103,0.503283,1.20156,1.96106,0.337494,0.301805,0.308217
-0.124908,0.229694,1.56289,0.022805,1.11807,2.09543,0.262867,0.278324,0.284799
-0.113869,0.220968,1.6063,-0.371009,0.953102,2.21302,0.199666,0.253201,0.230781
-0.106029,0.205861,1.65055,-0.646571,0.780077,2.24757,0.130314,0.239353,0.175628
-0.0997135,0.187126,1.69389,-0.751795,0.724127,2.17123,0.0574967,0.220551,0.125627
-0.092071,0.16887,1.73492,-0.65233,0.785218,2.03609,-0.00358994,0.188256,0.0648367
-0.0815332,0.15463,1.77346,-0.429069,0.894902,1.89664,-0.0388222,0.1567,0.0218346
-0.0680343,0.145563,1.81,-0.224228,0.988103,1.79692,-0.0601328,0.116531,0.00155491
-0.0532542,0.139813,1.84539,-0.157872,0.990778,1.7459,-0.0714664,0.070388,0.00647742
-0.0382882,0.134688,1.88006,-0.220772,0.995138,1.7309,-0.0978406,0.00954045,-0.00416774
-0.0226506,0.127694,1.91496,-0.379127,1.02158,1.76522,-0.132519,-0.043292,-0.0437508
-0.00710324,0.118223,1.95091,-0.506426,0.968651,1.83054,-0.165127,-0.100985,-0.129518
0.00688816,0.10748,1.98814,-0.56041,0.832681,1.87119,-0.187985,-0.12878,-0.235546
0.0175753,0.0966838,2.02548,-0.570662,0.614667,1.82681,-0.214911,-0.121622,-0.311358
0.0244382,0.0857561,2.06101,-0.612711,0.413136,1.68369,-0.254021,-0.116635,-0.335698
0.0282343,0.0737907,2.09313,-0.668618,0.208369,1.48592,-0.267259,-0.115561,-0.357199
0.0279239,0.061141,2.12061,-0.680809,-0.0628561,1.22083,-0.266439,-0.10827,-0.382644
0.0225308,0.04894,2.14248,-0.599245,-0.354507,0.943432,-0.269542,-0.119597,-0.405107
0.0132972,0.0381536,2.15932,-0.532165,-0.44093,0.732741,-0.281109,-0.156848,-0.385734
0.00657353,0.0276725,2.17203,-0.541626,-0.125679,0.531634,-0.306544,-0.189158,-0.364174
0.00925008,0.016904,2.18075,-0.528625,0.409503,0.326745,-0.29883,-0.191639,-0.426287
0.0209064,0.0080417,2.1848,-0.335203,0.699317,0.0583466,-0.26004,-0.157974,-0.570945
0.03343,0.00543119,2.18298,0.125676,0.456442,-0.255272,-0.207282,-0.0977944,-0.663095
0.0359346,0.0138738,2.17414,0.752212,-0.251438,-0.606788,-0.14365,-0.0488707,-0.622812
0.0241577,0.0337058,2.15785,1.2509,-0.911956,-0.963086,-0.104845,-0.0129924,-0.419347
0.00419534,0.061206,2.13561,1.50894,-1.12191,-1.20602,-0.0849218,-0.00665747,-0.153813
-0.0145572,0.092676,2.11036,1.61872,-0.903464,-1.32382,-0.0658586,0.00404254,0.0469947
-0.0252365,0.125982,2.084,1.65874,-0.430947,-1.36453,-0.0639097,0.028237,0.167555
-0.0249505,0.159814,2.05747,1.65842,0.0596171,-1.35596,-0.0631386,0.0614938,0.222652
-0.0165189,0.192658,2.03095,1.56164,0.266359,-1.32505,-0.0516891,0.10019,0.251629
-0.00615603,0.222198,2.00518,1.35743,0.209471,-1.22889,-0.0304944,0.12693,0.267084
0.00144998,0.246747,1.98161,1.09964,-0.0216208,-1.06599,-0.022921,0.136326,0.275634
0.00257697,0.266098,1.96125,0.855544,-0.387991,-0.917757,-0.0389243,0.151198,0.276706
-0.00317248,0.281728,1.94274,0.733372,-0.656132,-0.886352,-0.0995528,0.17061,0.288498
-0.0120042,0.296486,1.9242,0.753466,-0.73389,-0.912643,-0.152079,0.189531,0.301835
-0.0205822,0.312521,1.90494,0.824912,-0.695306,-0.963956,-0.184548,0.211618,0.318471
-0.0268978,0.330077,1.88407,0.883537,-0.588081,-1.06909,-0.20025,0.236302,0.341854
-0.0292105,0.348425,1.86102,0.882515,-0.423739,-1.15213,-0.193816,0.262484,0.355114
-0.0281687,0.366102,1.83639,0.802616,-0.338018,-1.21143,-0.178932,0.283241,0.355433
-0.0244395,0.38131,1.81047,0.636704,-0.233774,-1.24242,-0.159828,0.287969,0.337645
-0.017825,0.392281,1.78418,0.386181,-0.0781742,-1.21541,-0.126154,0.289158,0.311969
-0.00681782,0.3973,1.75853,0.0823305,0.207555,-1.16128,-0.0911712,0.28163,0.243514
0.0096153,0.395987,1.73427,-0.206559,0.489372,-1.07585,-0.0522824,0.27671,0.110043
0.0287665,0.388825,1.713,-0.472484,0.561771,-0.893442,0.0266223,0.285275,-0.0572817
0.0432992,0.376509,1.69672,-0.695817,0.225515,-0.670614,0.106047,0.295411,-0.221781
0.0468505,0.360735,1.68507,-0.81883,-0.275983,-0.499718,0.153996,0.304591,-0.370916
0.0410619,0.343384,1.67697,-0.889046,-0.529884,-0.339436,0.164395,0.280645,-0.453887
0.0317297,0.324322,1.67211,-1.02243,-0.558886,-0.19228,0.152272,0.225145,-0.473859
0.0211613,0.301577,1.6703,-1.27483,-0.552694,-0.0336347,0.162321,0.178786,-0.462749
0.0100568,0.273609,1.67201,-1.51562,-0.50663,0.155401,0.174964,0.118627,-0.465073
-0.00070821,0.242638,1.67665,-1.5534,-0.463047,0.263036,0.164246,0.0694875,-0.481273
-0.0108832,0.213225,1.68186,-1.36813,-0.434976,0.250035,0.146546,0.0337721,-0.483642
-0.0197978,0.188871,1.68607,-1.06107,-0.385679,0.200801,0.146657,-0.000741616,-0.431214
-0.0284985,0.170508,1.68973,-0.789836,-0.431085,0.222514,0.172735,-0.0506231,-0.318124
-0.0382014,0.155885,1.69489,-0.690027,-0.442507,0.34845,0.193811,-0.114094,-0.179396
-0.0471131,0.141316,1.70281,-0.753008,-0.306968,0.49597,0.208583,-0.166039,-0.0586897
-0.0520564,0.125289,1.71282,-0.776378,-0.0598304,0.564787,0.211201,-0.186059,-7.28965e-05
-0.0532051,0.111172,1.7237,-0.537571,0.0486979,0.589634,0.232188,-0.172321,-0.0205953
-0.0534771,0.10405,1.7355,-0.102426,0.0343243,0.625299,0.270615,-0.146428,-0.0404757
-0.0548486,0.105624,1.74842,0.315374,-0.0392815,0.643351,0.272121,-0.113552,0.0187495
-0.0571995,0.113957,1.76153,0.560844,-0.0247085,0.612479,0.233982,-0.0910624,0.132758
-0.0575242,0.125375,1.77405,0.640475,0.153746,0.566884,0.197529,-0.0783829,0.237366
-0.053941,0.137806,1.78603,0.667273,0.366447,0.560361,0.184812,-0.0801435,0.287617
-0.0463382,0.150494,1.79831,0.661102,0.567382,0.600237,0.174521,-0.0723632,0.309444
-0.035686,0.163049,1.81173,0.653053,0.686932,0.683833,0.159305,-0.0609852,0.310053
-0.0248943,0.175733,1.82695,0.670635,0.622192,0.786722,0.139804,-0.0385491,0.297801
-0.0175327,0.189246,1.8441,0.717234,0.416777,0.874664,0.102744,-0.0109169,0.303101
-0.0149552,0.203449,1.86273,0.729954,0.216801,0.928991,0.0519996,0.0156469,0.339755
-0.0162042,0.217492,1.88212,0.698997,0.0652358,0.952546,0.0105269,0.0349192,0.38444
-0.0204587,0.230447,1.90187,0.617806,-0.0471695,0.969184,-0.00822077,0.0468029,0.422808
-0.0262414,0.240945,1.92267,0.471299,-0.0206915,1.04087,-0.0047015,0.0461308,0.445876
-0.0302534,0.247965,1.94518,0.286447,0.198043,1.11736,-0.00676352,0.0406287,0.436454
-0.0274652,0.250887,1.96753,0.0654385,0.663656,1.01141,-0.0555056,0.054553,0.400899
-0.0135499,0.249308,1.98593,-0.186432,1.18881,0.779028,-0.0665204,0.0590197,0.29039
0.0117715,0.243073,2.00061,-0.429425,1.69672,0.690181,0.00537468,0.0250799,0.0746312
0.044139,0.233228,2.0171,-0.591658,1.86138,0.941831,0.140114,-0.042959,-0.227851
0.044139,0.233228,2.0171,-0.591658,1.86138,0.941831,0.140114,-0.042959,-0.227851
0.073721,0.2214,2.04138,-0.748698,1.58809,1.34447,0.220914,-0.084817,-0.505132
0.0919822,0.206766,2.07274,-0.985346,0.83359,1.5499,0.221536,-0.0528068,-0.675721
0.0916281,0.187696,2.10566,-1.2038,-0.235865,1.44818,0.181622,0.00606951,-0.742418
0.0720747,0.165693,2.13383,-1.17891,-1.19318,1.13317,0.103244,0.0115547,-0.705053
0.0389053,0.146369,2.15463,-0.839881,-1.71932,0.823885,0.0242798,-0.0179863,-0.560758
0.0013206,0.133924,2.16872,-0.455462,-1.79058,0.553196,-0.0276302,-0.0509551,-0.339476
-0.032803,0.127017,2.17777,-0.264035,-1.45342,0.38341,-0.053893,-0.109332,-0.133086
-0.0567318,0.12117,2.18466,-0.325582,-0.815542,0.346751,-0.0717815,-0.193533,-2.74181e-06
-0.0653974,0.112311,2.19147,-0.527141,0.0553999,0.39113,-0.107104,-0.2538,0.0422347
-0.0569565,0.0997245,2.19892,-0.66109,0.806106,0.41408,-0.13635,-0.242787,-0.0226799
-0.0378894,0.0866838,2.20565,-0.567243,1.09505,0.3034,-0.14169,-0.165927,-0.176055
-0.0182755,0.0786337,2.20957,-0.188893,0.81735,0.0949702,-0.152574,-0.0898432,-0.321295
-0.00785991,0.0800824,2.20823,0.338094,0.204864,-0.235606,-0.177499,-0.04659,-0.393952
-0.00811926,0.0916339,2.20048,0.783971,-0.234846,-0.529372,-0.18088,-0.0137799,-0.324663
-0.0126385,0.110143,2.18815,1.03629,-0.303536,-0.695458,-0.177273,-0.0155832,-0.153218
-0.0164418,0.132363,2.17409,1.15573,-0.236,-0.718928,-0.147018,-0.0200309,0.00822389
-0.0181871,0.155989,2.16036,1.18344,-0.143059,-0.682155,-0.137659,-0.00307439,0.145578
-0.018768,0.179716,2.14734,1.16251,-0.145249,-0.660873,-0.152922,0.023828,0.259722
-0.0196473,0.202479,2.13414,1.08723,-0.197467,-0.69233,-0.174008,0.0601686,0.364956
-0.021119,0.223497,2.11984,0.994288,-0.250124,-0.751694,-0.189125,0.0835181,0.44685
-0.0228584,0.243111,2.10445,0.946527,-0.285102,-0.786142,-0.18297,0.0889138,0.490116
-0.025075,0.262433,2.08891,0.954245,-0.329508,-0.756918,-0.157061,0.0873878,0.503208
-0.0281465,0.281735,2.07425,0.935584,-0.369136,-0.721377,-0.145986,0.11042,0.532826
-0.0313493,0.299924,2.05953,0.823151,-0.368676,-0.76047,-0.159325,0.144248,0.574854
-0.0335967,0.314528,2.04328,0.550858,-0.334914,-0.847559,-0.173838,0.173992,0.608838
-0.0333071,0.322078,2.02422,0.129504,-0.219542,-0.996078,-0.203031,0.192988,0.60734
-0.0289457,0.321407,2.00138,-0.242607,-0.0665318,-1.17787,-0.224738,0.193297,0.534195
-0.0203001,0.315311,1.9745,-0.397092,0.0785954,-1.36185,-0.209828,0.203057,0.37508
-0.00941004,0.307769,1.94459,-0.393932,0.0841917,-1.46648,-0.193654,0.190262,0.145581
0.00153484,0.299926,1.9136,-0.413619,0.088138,-1.47829,-0.17209,0.167016,-0.0811113
0.0131423,0.29043,1.88385,-0.549226,0.241525,-1.34015,-0.152744,0.118655,-0.295227
0.0264264,0.276099,1.86051,-0.870729,0.395786,-0.894037,-0.0734573,0.0565099,-0.532564
0.03597,0.254615,1.8486,-1.24321,0.185643,-0.336092,-0.0278602,0.0486562,-0.772169
0.0358877,0.226936,1.84686,-1.48002,-0.246317,0.0187174,-0.0204643,0.0834526,-0.955619
0.0253642,0.198095,1.84944,-1.36077,-0.751956,0.114929,-0.0369658,0.15893,-1.05652
0.00569216,0.175026,1.85191,-0.926972,-1.14815,0.0721087,-0.0623221,0.176407,-1.0311
-0.019539,0.161212,1.8519,-0.480361,-1.33787,-0.0798915,-0.0650052,0.165138,-0.835894
-0.0450234,0.155056,1.84785,-0.162228,-1.246,-0.304827,-0.0104024,0.142702,-0.574095
-0.0663958,0.154971,1.84015,0.107854,-1.00522,-0.426856,0.100769,0.101312,-0.358048
-0.082883,0.159665,1.83262,0.28109,-0.773436,-0.317779,0.245233,0.0514739,-0.196498
-0.095665,0.165655,1.82952,0.259028,-0.566496,-0.0221523,0.37244,0.0201998,-0.058452
-0.105943,0.169007,1.8329,0.0956715,-0.421156,0.319013,0.445791,0.00900897,0.0314644
-0.114896,0.168021,1.84199,-0.0836417,-0.33259,0.565012,0.45687,0.0329238,0.0831313
-0.123341,0.163921,1.85419,-0.159933,-0.31996,0.654872,0.443233,0.0663708,0.0978286
-0.131884,0.159753,1.86654,-0.0643968,-0.32965,0.594138,0.423331,0.0898907,0.0990239
-0.140074,0.159783,1.8776,0.244356,-0.312039,0.497389,0.413167,0.0820781,0.0890729
-0.14781,0.166854,1.88831,0.597987,-0.277183,0.460027,0.409936,0.0602307,0.12488
-0.153448,0.179676,1.8999,0.822238,-0.0477237,0.48963,0.390499,0.0307769,0.221624
-0.153248,0.195279,1.91364,0.915655,0.332096,0.622138,0.363935,0.00934751,0.311339
-0.146191,0.21096,1.93078,0.87103,0.708692,0.813776,0.332779,0.00627416,0.385323
-0.134073,0.223917,1.95187,0.682843,0.92362,1.05545,0.290872,-0.00143,0.42794
-0.12156,0.231879,1.97721,0.422401,0.861558,1.29261,0.24474,0.00554867,0.443441
-0.113613,0.2345,2.00605,0.170119,0.581887,1.46553,0.205679,0.0395008,0.446829
-0.112514,0.232335,2.03713,-0.0367449,0.254418,1.56278,0.169486,0.0651959,0.454741
-0.112514,0.232335,2.03713,-0.0367449,0.254418,1.56278,0.169486,0.0651959,0.454741
-0.117006,0.22691,2.06894,-0.133672,0.0345596,1.57697,0.133706,0.0840989,0.466071
-0.123884,0.220637,2.10002,-0.104747,0.00394669,1.50634,0.0968594,0.0988869,0.484973
-0.128468,0.215924,2.12915,-0.00639089,0.199034,1.38849,0.0558346,0.0996872,0.503611
-0.127236,0.212929,2.15636,0.035369,0.515459,1.2996,0.0254862,0.0872544,0.496844
-0.119004,0.209554,2.18148,-0.101542,0.840085,1.18057,-0.0252013,0.0742046,0.459975
-0.103292,0.202512,2.20319,-0.357605,1.15771,1.01611,-0.0898556,0.022527,0.323144
-0.0820492,0.191465,2.2217,-0.573631,1.33358,0.919354,-0.113495,-0.0328319,0.0602109
-0.0574913,0.177276,2.2397,-0.692059,1.42181,0.974315,-0.113424,-0.110653,-0.278331
-0.0349364,0.162859,2.26037,-0.652971,1.12796,1.13596,-0.11748,-0.157348,-0.624308
-0.0211264,0.148995,2.28387,-0.704939,0.603726,1.20238,-0.133971,-0.156914,-0.836343
-0.0176674,0.132939,2.30724,-0.864075,0.0793715,1.14026,-0.175834,-0.170553,-0.903525
-0.0235148,0.114748,2.32921,-0.885608,-0.396861,1.09212,-0.182758,-0.208731,-0.915817
-0.0388388,0.0986755,2.35041,-0.625222,-0.918418,1.05908,-0.169581,-0.236979,-0.882171
-0.0627337,0.0888512,2.36974,-0.272559,-1.24196,0.890237,-0.203271,-0.235225,-0.727584
-0.0888225,0.0847101,2.3844,-0.0562635,-1.20481,0.591997,-0.252738,-0.227906,-0.504065
-0.110898,0.0842022,2.39285,0.0869138,-0.895675,0.25202,-0.263256,-0.239445,-0.324651
-0.124796,0.0878009,2.39519,0.317369,-0.480639,-0.050269,-0.216065,-0.229344,-0.228533
-0.131016,0.0975971,2.39308,0.641535,-0.197506,-0.279485,-0.137192,-0.187134,-0.178022
-0.133201,0.114665,2.38746,0.979304,-0.111002,-0.502726,-0.0757677,-0.14291,-0.110444
-0.134368,0.138035,2.37856,1.20509,-0.116113,-0.673716,-0.029084,-0.103934,-0.0180888
-0.134743,0.164576,2.36785,1.26718,-0.0710345,-0.714645,0.0101751,-0.0926049,0.0754161
-0.132756,0.19093,2.3573,1.19638,0.112581,-0.666383,0.0325489,-0.0730761,0.152648
-0.126062,0.215068,2.3476,1.0821,0.353181,-0.59224,0.0243359,-0.0499677,0.181627
-0.115313,0.236818,2.33883,0.982893,0.505767,-0.525896,0.0116269,-0.00560853,0.168942
-0.103059,0.256838,2.33087,0.942514,0.503732,-0.464811,-0.00947591,0.0377453,0.140914
-0.09269,0.276839,2.32383,1.00311,0.322251,-0.413461,-0.0300465,0.0801856,0.122193
-0.0873029,0.298679,2.31745,1.12701,0.0267442,-0.402193,-0.0519222,0.135369,0.146941
-0.0878643,0.323019,2.31064,1.2413,-0.286564,-0.468938,-0.0764398,0.192767,0.226896
-0.0934903,0.349411,2.30219,1.3102,-0.544634,-0.567899,-0.0872594,0.240995,0.334138
-0.102533,0.376703,2.29192,1.30578,-0.717135,-0.64977,-0.0801165,0.276426,0.437908
-0.113196,0.403043,2.28055,1.19311,-0.762941,-0.685609,-0.0638671,0.298897,0.52664
-0.12257,0.426566,2.26818,1.0013,-0.650191,-0.710838,-0.0638634,0.306356,0.588331
-0.127841,0.44555,2.25565,0.73556,-0.39894,-0.644245,-0.070531,0.298615,0.601873
-0.128522,0.459046,2.24413,0.474759,-0.189005,-0.567195,-0.0686325,0.30671,0.570966
-0.126251,0.467767,2.23319,0.266614,-0.0920253,-0.52203,-0.0722726,0.326215,0.490545
-0.122933,0.472242,2.22228,0.0485936,-0.0864345,-0.510964,-0.0894513,0.346059,0.404063
-0.119597,0.471746,2.2101,-0.245053,-0.128987,-0.574359,-0.128324,0.334631,0.309553
-0.114338,0.464957,2.19501,-0.585751,0.0101348,-0.695139,-0.177289,0.275075,0.183979
-0.102907,0.452871,2.17722,-0.753803,0.391197,-0.725352,-0.134772,0.205783,-0.0326099
-0.0835796,0.43831,2.16302,-0.845306,0.933414,-0.332591,0.00962702,0.0990464,-0.307133
-0.0602888,0.418664,2.16208,-1.16957,1.29374,0.40696,0.0845437,-0.0191035,-0.501281
-0.0412301,0.389783,2.17635,-1.67056,1.08078,0.97452,0.072703,-0.0663927,-0.664601
-0.0337346,0.35147,2.19754,-2.05812,0.389848,1.08189,0.0591473,-0.00198889,-0.786566
-0.0402338,0.308932,2.21662,-2.06948,-0.39235,0.846257,0.0354806,0.030451,-0.834993
-0.0568809,0.270603,2.22961,-1.65908,-0.835498,0.614153,0.043673,-0.0212919,-0.802917
-0.0768192,0.242888,2.23965,-1.04969,-0.847484,0.565447,0.102994,-0.10129,-0.677723
-0.0938835,0.226384,2.25025,-0.549597,-0.589886,0.606744,0.152221,-0.146134,-0.499732
-0.10461,0.216731,2.26201,-0.340221,-0.231104,0.636659,0.173998,-0.14571,-0.309678
-0.109322,0.209011,2.2747,-0.31696,-0.00688066,0.681386,0.187861,-0.119488,-0.181213
-0.111231,0.201359,2.28757,-0.294338,0.0729889,0.64073,0.188013,-0.0688282,-0.11743
-0.111259,0.195395,2.29868,-0.162302,0.145323,0.499645,0.187423,-0.015349,-0.0940182
-0.109193,0.193297,2.30652,0.0462867,0.215724,0.288931,0.207166,0.0258666,-0.0801783
-0.105069,0.196121,2.31087,0.280696,0.280273,0.127778,0.243536,0.0401573,-0.0614901
-0.105069,0.196121,2.31087,0.280696,0.280273,0.127778,0.243536,0.0401573,-0.0614901
-0.0992158,0.203922,2.31414,0.526281,0.387453,0.144295,0.299637,0.0414852,-0.028603
-0.0908599,0.216166,2.31994,0.739382,0.574947,0.321533,0.337235,0.0459682,0.0213736
-0.0801122,0.231782,2.32986,0.898162,0.709609,0.505662,0.327032,0.0667943,0.0877823
-0.0689974,0.250145,2.34315,1.03141,0.700289,0.641928,0.300043,0.107728,0.162052
-0.0599054,0.27096,2.35878,1.15254,0.607416,0.724414,0.268119,0.151553,0.25155
-0.0536474,0.294292,2.37569,1.27122,0.499651,0.769272,0.236848,0.183098,0.342914
-0.0493898,0.319607,2.3937,1.3418,0.491839,0.824352,0.210718,0.212188,0.438558
-0.0451683,0.345643,2.41306,1.33553,0.581371,0.889319,0.183809,0.234965,0.524768
-0.0396202,0.370508,2.43386,1.22131,0.706076,0.962441,0.160152,0.254347,0.595352
-0.0325758,0.391963,2.45637,0.983583,0.832292,1.05852,0.138666,0.266937,0.647669
-0.0245921,0.407369,2.48111,0.595141,0.918032,1.19343,0.116587,0.270539,0.678539
-0.0177808,0.413226,2.50923,0.0188314,0.882583,1.39237,0.106127,0.246628,0.692892
-0.013183,0.406167,2.54231,-0.696001,0.944858,1.67522,0.100306,0.211299,0.666304
-0.00745782,0.38423,2.58229,-1.47011,1.18223,2.07717,0.0860766,0.162382,0.557143
-2.39055e-05,0.347361,2.63203,-2.19074,1.33176,2.60188,0.085136,0.115275,0.371259
0.00747672,0.298291,2.69208,-2.70764,1.28332,3.06635,0.0558876,0.116915,0.0898772
0.0117471,0.243113,2.75853,-2.82184,0.903628,3.24324,-0.0377076,0.169878,-0.210336
0.0108587,0.190189,2.82391,-2.50535,0.370314,3.03464,-0.166699,0.216663,-0.455879
0.00168617,0.146322,2.88038,-1.91333,-0.345889,2.48471,-0.304326,0.193057,-0.548834
-0.0171953,0.114141,2.92367,-1.29629,-0.946246,1.84887,-0.375648,0.118502,-0.498979
-0.0423953,0.0923204,2.95473,-0.837223,-1.20125,1.3387,-0.373234,0.0106312,-0.323299
-0.0677201,0.0769885,2.97716,-0.61096,-1.11252,1.01756,-0.315573,-0.109596,-0.123915
-0.0890336,0.0644134,2.99471,-0.517936,-0.877012,0.852275,-0.221922,-0.2174,0.0297707
-0.103575,0.0534768,3.01009,-0.421131,-0.480151,0.803933,-0.16371,-0.297608,0.10589
-0.10966,0.0445817,3.02568,-0.306277,-0.0522279,0.859076,-0.12509,-0.348789,0.140665
-0.108013,0.0370687,3.04313,-0.264323,0.243589,0.958398,-0.118971,-0.375461,0.145391
-0.103176,0.0295135,3.06192,-0.300269,0.275287,0.985856,-0.123554,-0.366548,0.10843
-0.0990289,0.0208706,3.08078,-0.373357,0.167959,0.976974,-0.131928,-0.35204,0.032802
-0.0975378,0.0109411,3.09896,-0.44213,0.0122347,0.928924,-0.152058,-0.346969,-0.0637115
-0.0987359,-0.000480795,3.1161,-0.526705,-0.129559,0.90139,-0.146328,-0.346458,-0.170215
-0.102041,-0.0132572,3.13305,-0.573138,-0.160036,0.932221,-0.102048,-0.348263,-0.34498
-0.101563,-0.0263914,-3.13205,-0.529756,0.212695,1.01042,-0.0871995,-0.35668,-0.533026
-0.0927135,-0.0366768,-3.11227,-0.265077,0.561544,1.05896,-0.097606,-0.34601,-0.73586
-0.0817268,-0.0390989,-3.09099,0.209513,0.370011,1.08552,-0.0337372,-0.269329,-0.893138
-0.0793874,-0.0314199,-3.06925,0.725184,-0.260744,1.0013,0.0290026,-0.165997,-0.878916
-0.0914302,-0.0138303,-3.04984,1.17536,-0.974449,0.776886,0.0442971,-0.0895591,-0.692367
-0.115806,0.0114809,-3.03412,1.49162,-1.42033,0.540809,0.0605015,-0.0302368,-0.398106
-0.14651,0.0419775,-3.02106,1.69203,-1.59026,0.363622,0.100097,0.00999806,-0.104038
-0.178489,0.07537,-3.00959,1.78579,-1.51039,0.23587,0.140188,0.0407681,0.129268
-0.206738,0.109647,-2.99902,1.77458,-1.19837,0.14691,0.156398,0.0627816,0.295262
-0.227586,0.142592,-2.98925,1.64608,-0.751941,0.0999559,0.135903,0.0616035,0.393602
-0.238831,0.171903,-2.98002,1.41415,-0.214804,0.118084,0.0991237,0.0436929,0.420811
-0.239348,0.195747,-2.97089,1.11249,0.304305,0.193428,0.0727215,0.0463369,0.36395
-0.231602,0.212871,-2.96209,0.751346,0.628096,0.235948,0.0582189,0.0818873,0.267585
-0.21879,0.22263,-2.95478,0.363648,0.786612,0.238526,0.0367956,0.11728,0.154767
-0.203525,0.225893,-2.94935,0.10134,0.845269,0.206828,0.00339961,0.143945,0.0258749
-0.18847,0.227098,-2.94564,0.132539,0.711252,0.112553,-0.0442613,0.171684,-0.110022
-0.177692,0.231935,-2.94402,0.387343,0.375632,-0.065279,-0.0637842,0.222858,-0.178957
-0.174124,0.243074,-2.9462,0.653939,-0.053157,-0.348765,-0.0715632,0.268764,-0.136054
-0.17602,0.258955,-2.95361,0.760238,-0.285365,-0.61652,-0.065101,0.275221,0.00422716
-0.179427,0.276172,-2.96492,0.71882,-0.32697,-0.741792,-0.0343057,0.248062,0.162496
-0.181636,0.291482,-2.97795,0.548635,-0.250472,-0.762454,0.00428778,0.220707,0.291931
-0.181345,0.302856,-2.99176,0.313269,-0.115138,-0.740228,0.0296583,0.201232,0.379389
-0.177787,0.308946,-3.00569,0.0314198,0.0541094,-0.672528,0.0453863,0.186562,0.421845
-0.177787,0.308946,-3.00569,0.0314198,0.0541094,-0.672528,0.0453863,0.186562,0.421845
-0.170989,0.308881,-3.01914,-0.260343,0.214448,-0.590623,0.0531568,0.162178,0.410537
-0.160717,0.303068,-3.03173,-0.510346,0.456515,-0.502893,0.0586164,0.141895,0.3268
-0.144945,0.29256,-3.04363,-0.691543,0.78926,-0.482682,0.0240426,0.132811,0.17873
-0.122587,0.279365,-3.05603,-0.756931,1.07532,-0.51195,0.0140391,0.117054,-0.0446246
-0.0979272,0.266249,-3.06736,-0.652421,1.03176,-0.398939,0.0580252,0.0738139,-0.342211
-0.0779841,0.255024,-3.07449,-0.546117,0.777673,-0.201885,0.0625529,0.0293992,-0.532919
-0.0649646,0.24454,-3.07836,-0.540526,0.421638,-0.119498,0.0345451,0.00831473,-0.608778
-0.0594717,0.233462,-3.0809,-0.598455,0.0955552,-0.0487083,0.0592586,0.00367057,-0.62797
-0.0588355,0.220861,-3.08109,-0.664803,0.0186265,0.121467,0.103531,-0.0397196,-0.604608
-0.0581188,0.207462,-3.07663,-0.637275,0.165748,0.413462,0.160722,-0.0806594,-0.58059
-0.054519,0.195051,-3.06539,-0.541045,0.430092,0.760442,0.19799,-0.0759285,-0.545734
-0.0477275,0.184172,-3.04722,-0.465719,0.556265,1.07517,0.197186,-0.0525703,-0.500148
-0.0415903,0.17414,-3.02342,-0.431938,0.4548,1.29201,0.170832,-0.0201747,-0.439743
-0.0394194,0.165544,-2.99678,-0.293996,0.200645,1.35326,0.150824,0.0275818,-0.366046
-0.0425805,0.161552,-2.97007,0.0257234,-0.0758364,1.28419,0.147391,0.0908577,-0.258255
-0.050086,0.164791,-2.94568,0.40927,-0.26089,1.10617,0.16102,0.13771,-0.104323
-0.0595022,0.174933,-2.92436,0.697739,-0.288321,0.955139,0.194149,0.156251,0.0769286
-0.0672547,0.188777,-2.90481,0.779883,-0.104567,0.900552,0.213853,0.145086,0.242465
-0.0701428,0.202282,-2.88528,0.682507,0.203119,0.932151,0.221519,0.120186,0.364943
-0.0672411,0.212343,-2.86494,0.446369,0.493251,0.988032,0.215218,0.107144,0.445103
-0.0599706,0.216895,-2.84401,0.142921,0.658834,1.03141,0.20059,0.0981789,0.478523
-0.0510934,0.216045,-2.82209,-0.0927265,0.683594,1.13344,0.211032,0.0798623,0.450255
-0.0436444,0.211575,-2.79732,-0.229094,0.575498,1.31663,0.217081,0.0604029,0.402979
-0.0396018,0.20504,-2.76923,-0.310842,0.413792,1.451,0.176152,0.0563893,0.381361
-0.0383954,0.197166,-2.73984,-0.35968,0.316262,1.44307,0.0979756,0.0557696,0.370787
-0.03747,0.189085,-2.71194,-0.34136,0.319477,1.32534,0.0321091,0.0581845,0.358044
-0.034791,0.18213,-2.68679,-0.266345,0.435994,1.18466,-0.00479269,0.0483271,0.342042
-0.0280178,0.176819,-2.6641,-0.200437,0.645721,1.08047,-0.0325727,0.0241504,0.314588
-0.0171902,0.172626,-2.64297,-0.183151,0.80537,1.03011,-0.0236697,-0.00666678,0.263739
-0.0034472,0.168731,-2.62223,-0.183293,0.90809,1.03034,-0.0295759,-0.0444402,0.171096
0.0114098,0.165208,-2.60125,-0.18494,0.928281,1.04331,-0.044854,-0.0962539,0.0363535
0.0270846,0.161144,-2.5802,-0.287924,1.00739,1.02226,-0.0852631,-0.131225,-0.100705
0.0445495,0.154688,-2.55972,-0.413928,1.03909,0.988578,-0.10783,-0.168514,-0.260922
0.0602453,0.147911,-2.53921,-0.341324,0.801292,1.02266,-0.0719262,-0.197461,-0.468524
0.0693071,0.144136,-2.51735,-0.184813,0.40738,1.12072,-0.00444648,-0.178048,-0.611073
0.07031,0.142884,-2.49417,-0.138409,0.0498278,1.15486,-0.000947796,-0.164715,-0.624498
0.0653343,0.140826,-2.47115,-0.227162,-0.232282,1.09578,-0.046636,-0.15833,-0.563175
0.0538215,0.137191,-2.45022,-0.239318,-0.653698,0.948781,-0.0756594,-0.140567,-0.498089
0.0339928,0.133834,-2.43267,-0.177551,-1.05966,0.777358,-0.0810303,-0.12331,-0.40632
0.0101556,0.130981,-2.41879,-0.143492,-1.08801,0.596379,-0.108747,-0.128686,-0.283702
-0.0102107,0.128264,-2.40885,-0.123112,-0.790553,0.385234,-0.147115,-0.135393,-0.18922
-0.0230606,0.126609,-2.4037,-0.0131966,-0.452441,0.126424,-0.175963,-0.119197,-0.169645
-0.0302179,0.128585,-2.40403,0.222368,-0.314578,-0.165529,-0.16338,-0.0623662,-0.186916
-0.036582,0.135884,-2.41013,0.484171,-0.43155,-0.464095,-0.120883,-0.00465502,-0.168908
-0.0451513,0.148305,-2.42172,0.698719,-0.566666,-0.726346,-0.0855321,0.0306503,-0.100349
-0.0532041,0.164273,-2.43736,0.808577,-0.440949,-0.880146,-0.0663112,0.0368261,0.00311643
-0.0557221,0.181656,-2.45493,0.82537,-0.0960045,-0.93951,-0.0465261,0.0387365,0.0929508
-0.0504237,0.198703,-2.473,0.778274,0.265688,-0.91921,-0.0277225,0.0497697,0.138608
-0.0393588,0.214325,-2.49023,0.717217,0.45753,-0.839006,-0.0142859,0.0644185,0.143493
-0.0270281,0.228731,-2.50595,0.676886,0.397291,-0.749215,-0.0100712,0.0915338,0.152905
-0.0178834,0.242117,-2.52039,0.629169,0.163872,-0.700245,-0.0246313,0.130689,0.204473
-0.0139627,0.254172,-2.53489,0.556971,-0.121396,-0.73358,-0.0545404,0.154734,0.278218
-0.0145155,0.264798,-2.55033,0.488651,-0.304359,-0.775552,-0.079512,0.16531,0.358049
-0.0169081,0.274061,-2.56657,0.4197,-0.355837,-0.807152,-0.0921678,0.167875,0.432437
-0.0169081,0.274061,-2.56657,0.4197,-0.355837,-0.807152,-0.0921678,0.167875,0.432437
-0.0193758,0.282109,-2.5835,0.361946,-0.348433,-0.839633,-0.0941689,0.168244,0.496041
-0.0207737,0.289077,-2.60102,0.297743,-0.274365,-0.858956,-0.0917992,0.171084,0.542636
-0.0196107,0.294638,-2.6189,0.213384,-0.110019,-0.868485,-0.0943947,0.173954,0.574262
-0.0147805,0.298035,-2.63678,0.0834844,0.0584441,-0.841682,-0.0928509,0.167055,0.582169
-0.00760104,0.298085,-2.65371,-0.107552,0.153153,-0.775417,-0.0807468,0.164586,0.564317
0.000510337,0.293912,-2.66925,-0.309929,0.205084,-0.719151,-0.0800935,0.155253,0.491618
0.00931529,0.285877,-2.6841,-0.47868,0.24778,-0.733373,-0.0999862,0.148836,0.329414
0.0182732,0.275544,-2.70012,-0.507403,0.184734,-0.832456,-0.153417,0.147971,0.04633
0.027324,0.265312,-2.71814,-0.487895,0.316252,-0.91233,-0.165662,0.119876,-0.244929
0.0406121,0.254807,-2.73537,-0.498522,0.522538,-0.737739,-0.123732,0.0225815,-0.510076
0.0525683,0.245004,-2.74614,-0.41809,0.363947,-0.343882,-0.0187788,-0.040078,-0.747848
0.0571561,0.237799,-2.7497,-0.291433,0.00619919,-0.0831963,0.0129947,-0.0232095,-0.852864
0.0544371,0.232455,-2.75046,-0.269073,-0.267002,-0.0474498,-0.0188891,0.0102282,-0.805224
0.0473196,0.226851,-2.75194,-0.268552,-0.471951,-0.135984,-0.00974351,0.0091355,-0.689828
0.0375034,0.222569,-2.75533,-0.127401,-0.569307,-0.19372,0.0645351,-0.00388904,-0.57772
0.0271957,0.221666,-2.75884,0.0394435,-0.521259,-0.128317,0.155663,-0.0270477,-0.435564
0.0180996,0.223136,-2.75941,0.0755793,-0.388593,0.0990662,0.243169,-0.0477537,-0.269504
0.0108072,0.223484,-2.75431,-0.0693588,-0.237119,0.401471,0.291418,-0.0621549,-0.128823
0.00498021,0.219778,-2.74322,-0.314648,-0.107585,0.664226,0.283744,-0.0610247,-0.038974
0.000374014,0.211726,-2.72808,-0.473823,-0.039143,0.796008,0.258576,-0.0234184,-0.0274116
-0.00365621,0.201953,-2.71175,-0.48245,-0.0430107,0.7882,0.247585,0.0422734,-0.03449
-0.00821051,0.193361,-2.69702,-0.354337,-0.125154,0.649143,0.242448,0.0905044,-0.0282364
-0.0133594,0.188405,-2.68632,-0.118626,-0.172008,0.398416,0.22171,0.117117,-0.00890279
-0.0175086,0.188633,-2.68087,0.145153,-0.123356,0.147043,0.210953,0.12259,0.0259801
-0.0185335,0.193818,-2.67975,0.370675,0.0593792,-0.0291896,0.21539,0.103175,0.0798929
-0.0145943,0.202788,-2.68034,0.503537,0.331521,-0.00417737,0.252225,0.0530244,0.131611
-0.00624463,0.213101,-2.67811,0.518325,0.507722,0.236824,0.284347,0.000112191,0.150823
0.00116182,0.222774,-2.6699,0.434484,0.38327,0.561627,0.288235,-0.0206107,0.170631
0.00332154,0.230016,-2.65574,0.285532,0.152095,0.799738,0.231736,-0.00810587,0.221658
0.00015312,0.234894,-2.63813,0.221461,-0.0504333,0.903976,0.156849,0.0161108,0.270101
-0.00633114,0.239602,-2.6193,0.266992,-0.139678,0.912084,0.101792,0.0483361,0.323906
-0.0132649,0.245849,-2.60118,0.381654,-0.100099,0.837637,0.0537899,0.0699489,0.388684
-0.0176371,0.254152,-2.5848,0.460983,0.0915859,0.739507,0.0269269,0.0793977,0.457747
-0.0162711,0.262932,-2.57035,0.427613,0.420538,0.652578,0.0278268,0.0820106,0.520451
-0.00805334,0.270543,-2.55721,0.349842,0.740389,0.622153,0.043054,0.0728276,0.539278
0.0053984,0.276615,-2.54381,0.254631,0.949479,0.686799,0.0672099,0.0708002,0.498455
0.0205683,0.280287,-2.52823,0.0852789,0.975022,0.81655,0.0610311,0.0671898,0.428317
0.033394,0.280297,-2.51046,-0.131896,0.767904,0.879355,0.0051468,0.0644218,0.315876
0.0408958,0.276183,-2.4922,-0.341008,0.494531,0.856876,-0.0613381,0.0636552,0.171519
0.0433457,0.268002,-2.47463,-0.555757,0.243617,0.81039,-0.120765,0.0195662,0.00981337
0.0427587,0.256413,-2.45806,-0.629345,0.148028,0.733573,-0.201123,-0.0542492,-0.233621
0.0416071,0.245829,-2.44406,-0.495032,0.100374,0.567451,-0.240723,-0.0855429,-0.4735
0.041647,0.23648,-2.43389,-0.509663,0.133349,0.389191,-0.234278,-0.121568,-0.598285
0.0413044,0.225648,-2.42659,-0.607103,-0.0329799,0.291836,-0.214638,-0.20807,-0.668791
0.0357341,0.213216,-2.42046,-0.652929,-0.434698,0.266111,-0.165975,-0.254979,-0.695845
0.0208746,0.200762,-2.41495,-0.596934,-0.935431,0.224285,-0.124656,-0.268723,-0.655156
-0.00136129,0.19006,-2.41166,-0.47862,-1.15933,0.0732009,-0.130041,-0.274919,-0.543628
-0.0228945,0.181981,-2.41237,-0.333492,-0.955412,-0.1362,-0.14518,-0.276221,-0.402024
-0.0369447,0.177184,-2.41733,-0.155976,-0.539552,-0.330987,-0.121891,-0.266628,-0.303681
-0.0431268,0.176673,-2.42539,0.0749531,-0.256884,-0.45282,-0.0661239,-0.226817,-0.247988
-0.0453398,0.181035,-2.4355,0.319284,-0.173055,-0.568144,-0.0306879,-0.168249,-0.168507
-0.0471063,0.190285,-2.44809,0.533638,-0.252134,-0.720876,-0.0218304,-0.114908,-0.0672651
-0.0497225,0.20298,-2.46379,0.644291,-0.303416,-0.881167,-0.014566,-0.0731,0.0504643
-0.0512045,0.2173,-2.48242,0.692033,-0.194563,-1.01688,-0.00837104,-0.0411961,0.153502
-0.0512045,0.2173,-2.48242,0.692033,-0.194563,-1.01688,-0.00837104,-0.0411961,0.153502
-0.0474987,0.232776,-2.5037,0.765147,0.101512,-1.13352,-0.0308108,-0.0233943,0.208535
-0.0368885,0.24997,-2.52717,0.859131,0.386531,-1.21294,-0.040682,0.00385988,0.234771
-0.0214356,0.268288,-2.55181,0.894772,0.49813,-1.21977,-0.0296257,0.0189265,0.252472
-0.00530736,0.286043,-2.57611,0.840234,0.43625,-1.13493,-0.017888,0.0275044,0.264042
0.00856354,0.30181,-2.59816,0.739172,0.310081,-0.972223,-0.0140967,0.0339276,0.279091
0.0191084,0.315248,-2.61694,0.632275,0.180811,-0.811312,-0.0447158,0.0476924,0.295242
0.0267753,0.326277,-2.63328,0.510966,0.0713201,-0.731806,-0.0999293,0.0763785,0.319476
0.0322769,0.334908,-2.64862,0.397533,-0.0118008,-0.707401,-0.140281,0.10888,0.337397
0.0368232,0.341524,-2.66373,0.318328,-0.0284403,-0.702495,-0.173254,0.12751,0.333803
0.0411892,0.347077,-2.67879,0.298202,-0.0562796,-0.696554,-0.194789,0.141359,0.315718
0.0443656,0.352633,-2.69387,0.309704,-0.144857,-0.706842,-0.216335,0.157183,0.296766
0.0459964,0.358294,-2.70964,0.31094,-0.234337,-0.749805,-0.245453,0.173889,0.275853
0.0468093,0.363344,-2.72628,0.256024,-0.260283,-0.790201,-0.270666,0.1766,0.249028
0.0482113,0.366954,-2.744,0.185825,-0.230144,-0.847284,-0.284898,0.183099,0.194623
0.0510466,0.369004,-2.76259,0.117942,-0.149397,-0.876532,-0.289243,0.187256,0.0796654
0.055521,0.370047,-2.78113,0.0792624,-0.0751146,-0.837366,-0.289422,0.171443,-0.0762217
0.0611443,0.369901,-2.79848,-0.00903027,-0.00651553,-0.790837,-0.254757,0.157971,-0.246732
0.0666055,0.367369,-2.81535,-0.14487,-0.0721253,-0.794238,-0.215741,0.14476,-0.411949
0.0689247,0.36258,-2.83105,-0.213748,-0.282498,-0.68019,-0.101487,0.112104,-0.564153
0.0647771,0.357769,-2.84279,-0.195615,-0.525744,-0.437656,0.0379389,0.0813104,-0.650825
0.0554253,0.35304,-2.8486,-0.263569,-0.592553,-0.13413,0.123908,0.0573913,-0.6507
0.043713,0.346385,-2.84775,-0.414833,-0.539941,0.178573,0.17049,0.0268931,-0.617208
0.0306064,0.336955,-2.8408,-0.540738,-0.573847,0.42851,0.208851,0.0117061,-0.582204
0.0133577,0.32592,-2.8297,-0.572231,-0.814083,0.583235,0.254878,0.0330103,-0.525033
-0.0100071,0.314913,-2.81641,-0.53025,-1.09561,0.675694,0.298425,0.049083,-0.409088
-0.037571,0.304278,-2.80144,-0.506343,-1.15703,0.781065,0.32612,0.0453016,-0.242548
-0.063321,0.293277,-2.7846,-0.515734,-0.881976,0.886089,0.31459,0.00173712,-0.0941621
-0.0817943,0.281464,-2.76609,-0.527003,-0.433243,0.968536,0.299359,-0.0442741,-0.00214148
-0.0914017,0.269908,-2.74702,-0.44446,-0.0227266,0.946007,0.285617,-0.0228316,0.0382177
-0.0937738,0.261801,-2.72907,-0.184313,0.214165,0.844254,0.289085,0.0205243,0.0620081
-0.0933751,0.259857,-2.71345,0.130834,0.196315,0.665279,0.298178,0.0550233,0.104642
-0.0929619,0.264177,-2.70168,0.392698,0.168579,0.432439,0.265374,0.0656802,0.177891
-0.0908514,0.273336,-2.69397,0.573606,0.265494,0.229999,0.237062,0.0792255,0.253537
-0.0845379,0.285095,-2.69065,0.60754,0.529473,-0.0270962,0.174291,0.0660995,0.344849
-0.0710625,0.297349,-2.69067,0.619318,0.78705,-0.00457585,0.233094,0.0613887,0.360106
-0.0548495,0.309528,-2.68685,0.61496,0.967317,0.309644,0.300081,0.0642523,0.355708
-0.0370064,0.320915,-2.67675,0.559238,1.11205,0.579867,0.248336,0.0187128,0.343805
-0.018999,0.330212,-2.66196,0.385328,1.16282,0.811578,0.195675,-0.0136468,0.350466
-0.00251498,0.334636,-2.64163,0.056699,1.14828,1.11138,0.170619,0.0104933,0.3666
0.0107551,0.331867,-2.61576,-0.349461,1.00397,1.32032,0.105951,-0.00487939,0.357063
0.0201309,0.321279,-2.58632,-0.762041,0.896333,1.45774,0.0567825,-0.0166629,0.350785
0.028392,0.303991,-2.55424,-1.00511,0.895374,1.5454,0.0143716,-0.0171061,0.286452
0.0367436,0.284078,-2.52154,-1.08772,0.944745,1.5099,-0.0389861,-0.0357063,0.203047
0.0510485,0.261932,-2.49086,-1.31805,1.33711,1.3146,-0.0654602,-0.0431615,0.125186
0.0676231,0.235952,-2.46544,-1.37854,0.868704,1.01467,-0.083613,-0.0798756,0.0940019
0.0763476,0.211178,-2.44341,-1.23962,0.584074,0.999477,-0.0448242,-0.113386,-0.057748
0.0822828,0.190556,-2.41963,-0.988691,0.475668,1.17504,-0.0154556,-0.0933102,-0.171447
0.085804,0.176577,-2.39343,-0.613693,0.358819,1.25683,-0.0344852,-0.0974408,-0.258948
0.0870166,0.171047,-2.36793,-0.144757,0.17924,1.19408,-0.0642457,-0.0896128,-0.326976
0.0845442,0.174705,-2.34443,0.277716,-0.0183295,1.17252,-0.0628333,-0.0793862,-0.358126
0.0785286,0.184193,-2.32095,0.4243,-0.142888,1.21351,-0.0452757,-0.0771765,-0.29999
0.0714415,0.193288,-2.29782,0.277733,-0.162074,1.0664,-0.102812,-0.0790005,-0.23011
0.0645119,0.197377,-2.28005,0.00481337,-0.18023,0.711349,-0.174452,-0.0757065,-0.174913
0.0596825,0.195535,-2.26804,-0.249895,-0.0953786,0.489938,-0.123528,-0.0930318,-0.209478
0.0596825,0.195535,-2.26804,-0.249895,-0.0953786,0.489938,-0.123528,-0.0930318,-0.209478
0.0544213,0.189717,-2.25841,-0.370369,-0.281969,0.448038,-0.0709202,-0.0716115,-0.210177
0.0440168,0.182805,-2.2493,-0.343901,-0.648351,0.389483,-0.0586806,-0.0926867,-0.206519
0.0266835,0.177032,-2.24343,-0.253877,-0.900235,0.163352,-0.0977965,-0.0767451,-0.148655
0.009981,0.172453,-2.24114,-0.229139,-0.636693,0.0967194,-0.0474914,-0.0523234,-0.138051
0.00383862,0.167391,-2.23787,-0.268009,0.0514649,0.234929,-0.0238196,-0.00854522,-0.139244
0.00441299,0.16389,-2.23327,-0.0508373,-0.0387865,0.162785,-0.0752003,0.0141709,-0.212094
0.000885264,0.165194,-2.23345,0.161638,-0.266297,-0.200906,-0.146717,0.0706478,-0.195895
-0.0019623,0.169216,-2.24006,0.224115,-0.118589,-0.405082,-0.111377,0.125654,-0.143633
-0.00258944,0.174183,-2.24859,0.273028,-0.114797,-0.431908,-0.04228,0.096949,-0.0793133
-0.00372082,0.18034,-2.25731,0.346158,-0.159626,-0.419654,-0.0271164,0.0719732,-0.0476114
-0.00644245,0.188419,-2.26534,0.46185,-0.268494,-0.372878,0.00252905,0.0882459,0.0104795
-0.0116977,0.198686,-2.27193,0.550621,-0.374014,-0.278061,0.00493665,0.0973595,0.102208
-0.0182746,0.209885,-2.27667,0.555832,-0.366748,-0.219131,-0.0219222,0.098103,0.208726
-0.0241861,0.220614,-2.28098,0.50055,-0.308713,-0.232539,-0.0605545,0.0985435,0.283385
-0.0283875,0.229661,-2.28575,0.388868,-0.225427,-0.255778,-0.0708569,0.100328,0.345727
-0.0309564,0.23617,-2.29072,0.248074,-0.147476,-0.246458,-0.0575236,0.0875729,0.392308
-0.0318783,0.239734,-2.2955,0.0899622,-0.0645085,-0.232402,-0.0619493,0.0764949,0.418707
-0.0314185,0.240084,-2.30054,-0.076034,-0.00924626,-0.25953,-0.0665487,0.070166,0.433882
-0.0296525,0.237115,-2.3064,-0.242734,0.0420401,-0.305736,-0.0622458,0.0691281,0.431645
-0.0269236,0.231024,-2.31317,-0.392352,0.074236,-0.331424,-0.0604646,0.0494241,0.392864
-0.0240584,0.222312,-2.32012,-0.479673,0.0608708,-0.321706,-0.0412636,0.034053,0.339396
-0.0215522,0.213059,-2.32659,-0.448597,0.0421568,-0.281186,-0.0318542,0.0283146,0.265629
-0.019927,0.205035,-2.33197,-0.363663,0.0062213,-0.236908,-0.0222701,0.0325195,0.195504
-0.0191446,0.198727,-2.33695,-0.279749,-0.0146819,-0.246718,-0.0259109,0.035327,0.120749
-0.0173253,0.19359,-2.34215,-0.26152,0.129286,-0.243941,-0.0375798,0.026856,0.0476551
-0.0111193,0.188179,-2.34694,-0.285555,0.380479,-0.220874,-0.0604272,0.00770316,-0.0371234
-0.00200002,0.182345,-2.35158,-0.308989,0.429994,-0.233924,-0.0652327,0.00241198,-0.162531
0.00726185,0.17506,-2.35646,-0.452567,0.413351,-0.250613,-0.0341435,0.014743,-0.250722
0.0169353,0.163296,-2.36158,-0.737842,0.503318,-0.263204,0.00942918,-8.77976e-05,-0.309068
0.0298116,0.145764,-2.36613,-0.98158,0.710174,-0.218392,0.0583844,-0.0313721,-0.400006
0.0456591,0.126031,-2.36919,-0.936107,0.817634,-0.1602,0.092994,-0.0387004,-0.54374
0.0617866,0.110036,-2.37096,-0.637611,0.74883,-0.110728,0.119122,-0.0298038,-0.644556
0.0739202,0.100855,-2.37243,-0.272815,0.416334,-0.103351,0.139276,-0.0351646,-0.643632
0.0782479,0.0988022,-2.37407,0.0766821,0.00925707,-0.0455564,0.189746,-0.044608,-0.560443
0.0760629,0.102561,-2.37311,0.250538,-0.162536,0.186025,0.240877,-0.0586748,-0.408583
0.0722262,0.107769,-2.36718,0.202222,-0.14799,0.440819,0.251009,-0.0629416,-0.24817
0.068709,0.11117,-2.3563,0.0572242,-0.0883346,0.652037,0.225562,-0.0610409,-0.149646
0.065504,0.112155,-2.34181,-0.0393983,-0.0812839,0.782671,0.193957,-0.0342592,-0.11051
0.0614759,0.112383,-2.32549,-0.0212022,-0.140385,0.834386,0.187547,0.013254,-0.0964422
0.0567979,0.113832,-2.30888,0.0806717,-0.116808,0.8215,0.180325,0.058212,-0.0790731
0.0538354,0.117814,-2.29297,0.237866,0.0125011,0.789452,0.172974,0.0943943,-0.0477995
0.0537268,0.124979,-2.27738,0.391226,0.156248,0.804917,0.189043,0.110753,0.00573748
0.0547329,0.134906,-2.26127,0.505009,0.12265,0.843702,0.196951,0.109121,0.0727584
0.053368,0.146556,-2.24487,0.571361,-0.0254678,0.836869,0.180506,0.111074,0.160555
0.0494993,0.159263,-2.22885,0.616409,-0.108638,0.819228,0.168554,0.115225,0.269888
0.0445279,0.172568,-2.21256,0.636444,-0.101397,0.875069,0.143755,0.100316,0.371805
0.0397819,0.185888,-2.19372,0.613062,-0.039186,1.04426,0.128989,0.0745592,0.454941
0.0350706,0.19835,-2.1715,0.547258,0.00395297,1.1709,0.0797904,0.0758052,0.499627
0.0311509,0.208934,-2.14788,0.428304,0.074665,1.15934,-0.000942698,0.0950968,0.503138
0.0281526,0.216537,-2.12567,0.262438,0.0959355,1.02918,-0.062724,0.10883,0.493488
0.0260887,0.220487,-2.10629,0.0731152,0.110133,0.883371,-0.0925165,0.115159,0.465266
0.0253147,0.220384,-2.0892,-0.127714,0.194614,0.80335,-0.0891986,0.0973579,0.42446
0.0260677,0.21637,-2.07281,-0.308517,0.22533,0.799026,-0.0751701,0.0677285,0.374972
0.0260677,0.21637,-2.07281,-0.308517,0.22533,0.799026,-0.0751701,0.0677285,0.374972
0.0269794,0.209267,-2.05583,-0.437816,0.23956,0.859149,-0.0635274,0.0363413,0.292158
0.0282231,0.2003,-2.0377,-0.503941,0.237926,0.884444,-0.0597443,0.0334968,0.205157
0.0287391,0.190573,-2.02011,-0.51317,0.163259,0.810108,-0.0462049,0.0482475,0.130172
0.0285561,0.180966,-2.00425,-0.493392,0.110071,0.729134,-0.0321447,0.0458547,0.0782858
0.027173,0.172033,-1.98974,-0.440099,-0.0139637,0.687231,-0.0115403,0.00997621,0.0407986
0.0219666,0.164277,-1.97561,-0.367148,-0.281652,0.68709,0.0240768,-0.0353592,0.0271619
0.0113609,0.158152,-1.96192,-0.265202,-0.538346,0.64653,0.0313074,-0.0645376,0.028823
-0.00205938,0.154097,-1.94982,-0.1508,-0.59408,0.552178,0.0192317,-0.0787662,0.0558822
-0.015409,0.151495,-1.93878,-0.116139,-0.579621,0.561102,0.0311775,-0.106088,0.0688431
-0.0286689,0.148536,-1.9273,-0.158297,-0.574711,0.576979,0.0766435,-0.136433,0.0422475
-0.0398952,0.147284,-1.91446,0.101727,-0.234577,0.770186,0.118524,-0.141532,0.0401593
-0.0407629,0.148159,-1.89533,0.0109724,0.349646,1.09746,0.104102,-0.17416,0.0106686
-0.0326959,0.144094,-1.87258,-0.368146,0.808926,1.13753,0.0736112,-0.141118,-0.0012185
-0.0167595,0.131666,-1.85058,-0.796798,1.02448,1.07433,0.0241211,-0.0989388,-0.115682
0.000229729,0.114757,-1.83029,-0.81128,0.89531,0.954184,0.0109718,-0.0632745,-0.311402
