attitude_roll,attitude_pitch,attitude_yaw,rotationRate_x,rotationRate_y,rotationRate_z,acceleration_x,acceleration_y,acceleration_z
0.0315767,0.245767,-0.00390022,-0.314808,0.158733,-0.0466788,0.0586565,0.0152883,-0.0297543
0.0294525,0.240754,-0.00283987,-0.194368,-0.32267,0.114988,0.0985679,0.0131083,0.0180091
0.0217955,0.238852,-0.000380674,0.0181214,-0.288411,0.0943941,0.0128368,-0.035202,-0.0545757
0.0185365,0.241356,0.000448696,0.198999,-0.0530388,-0.00810494,-0.0401539,-0.0386145,-0.0545884
0.0179813,0.245263,-0.000393159,0.160108,-0.0460856,-0.0586469,-0.020616,-0.0341819,0.027885
0.0163497,0.246766,-0.00172138,-0.0119773,-0.150509,-0.066217,0.0143282,-0.0286037,0.081318
0.0130046,0.244913,-0.00305999,-0.151214,-0.213353,-0.064095,0.0200529,-0.0162716,0.0628499
0.00921234,0.241683,-0.0043788,-0.155217,-0.188132,-0.0674044,0.019208,-0.0138671,-0.000387669
0.00623412,0.239243,-0.00557913,-0.0885026,-0.1476,-0.0555175,0.0248731,-0.004473,-0.0319496
0.00458482,0.238434,-0.00681061,-0.00401229,-0.0302085,-0.0614433,0.0240636,-0.0100647,-0.0602685
0.00529876,0.238677,-0.00778707,0.00696641,0.041726,-0.0307339,0.0237821,0.00817594,-0.0202748
0.00535809,0.238703,-0.00809664,-0.00336868,-0.0385922,-0.00606616,0.0303316,-0.00196117,0.0124489
0.00472436,0.238828,-0.00830876,0.0129423,-0.0376163,-0.0205513,0.0228603,-0.013497,0.0228746
0.00376143,0.238756,-0.00888958,-0.026737,-0.0839872,-0.0307952,0.022743,-0.00799772,0.0474318
0.00197051,0.237513,-0.00945159,-0.0916507,-0.110277,-0.0214984,0.02964,-0.0172161,0.0463871
-0.000234925,0.235203,-0.00991566,-0.130033,-0.126193,-0.0279121,0.0215908,-0.0150521,0.028482
-0.00249609,0.232671,-0.0107481,-0.128358,-0.123392,-0.0472143,0.021777,-0.0217875,-0.00155848
-0.00421598,0.230288,-0.0116735,-0.117373,-0.0804264,-0.029878,0.0280305,-0.0136092,-0.0232798
-0.00539769,0.228385,-0.0118362,-0.0891773,-0.0694464,0.0115922,0.0316857,-0.00732972,-0.021983
-0.00644856,0.227346,-0.0115546,-0.0234977,-0.0293034,0.0185072,0.0237844,-0.0192058,-0.0335799
-0.00655969,0.227317,-0.0112083,0.00276106,0.00282022,0.0152363,0.0153631,-0.0265125,-0.0100604
-0.0067303,0.227136,-0.011044,-0.0381725,-0.0293736,0.00361582,0.0157432,-0.0309614,0.0233503
-0.00758762,0.225647,-0.0111146,-0.114094,-0.0738863,-0.00779955,0.0101265,-0.0369596,0.037976
-0.00894623,0.22266,-0.0115234,-0.183692,-0.0771249,-0.0237269,0.00579558,-0.038254,0.0236601
-0.0101743,0.218908,-0.0123632,-0.195525,-0.0726821,-0.0566688,-0.00572418,-0.0417164,-0.00455201
-0.011206,0.215575,-0.0138044,-0.159043,-0.0756774,-0.0729587,-0.00158111,-0.0399212,-0.0238485
-0.0125951,0.213083,-0.015357,-0.129477,-0.103236,-0.0727833,-0.0148965,-0.0242281,-0.0230144
-0.0142104,0.210796,-0.0169778,-0.135637,-0.0949637,-0.0859082,-0.03536,-0.0126089,-0.0121022
-0.0155284,0.208285,-0.0191196,-0.146646,-0.079944,-0.128122,-0.0601252,-0.00859512,0.00240839
-0.0165474,0.205685,-0.0221831,-0.128987,-0.0727281,-0.162196,-0.0728219,0.00358438,0.0156373
-0.0169709,0.203418,-0.0257269,-0.120909,-0.060949,-0.179698,-0.090466,0.0217964,0.047417
-0.0178333,0.201122,-0.0295475,-0.110257,-0.0895843,-0.19427,-0.110411,0.0279392,0.0769774
-0.0185037,0.19939,-0.0336859,-0.0772336,-0.052522,-0.214651,-0.128196,0.0254487,0.0942624
-0.0187212,0.198087,-0.0383524,-0.079341,-0.0673418,-0.244291,-0.142764,0.0247357,0.100894
-0.0195757,0.196155,-0.043717,-0.115838,-0.0897409,-0.272502,-0.144818,0.0239854,0.0874164
-0.0199843,0.193851,-0.0494923,-0.120744,-0.0658204,-0.300844,-0.148223,0.0137147,0.0674995
-0.0197223,0.191792,-0.0560972,-0.0943159,-0.0237399,-0.344786,-0.167515,0.0152036,0.0430272
-0.0191504,0.190177,-0.063479,-0.0984296,-0.0715071,-0.375834,-0.170909,0.00913106,0.0327705
-0.0210717,0.187183,-0.0717669,-0.237,-0.305327,-0.442254,-0.179631,-0.0103649,0.0451347
-0.0273212,0.181052,-0.0820368,-0.400434,-0.463766,-0.559423,-0.205718,-0.0321244,0.00739664
-0.0345366,0.171698,-0.0953118,-0.569972,-0.486549,-0.724343,-0.226293,-0.053815,-0.0433981
-0.0399755,0.160544,-0.111515,-0.569831,-0.28564,-0.813579,-0.183541,-0.0805776,-0.108894
-0.0402863,0.15147,-0.128099,-0.398459,-0.00860805,-0.777322,-0.12434,-0.0710481,-0.0932301
-0.0372753,0.145461,-0.14291,-0.276829,0.043461,-0.65572,-0.0690382,-0.074061,0.0246406
-0.0353024,0.141164,-0.155018,-0.208728,-0.0293658,-0.547024,-0.0337358,-0.123007,0.116801
-0.0359911,0.137834,-0.165951,-0.162652,-0.157135,-0.537306,-0.013125,-0.175285,0.143927
-0.0380391,0.135006,-0.177267,-0.176769,-0.204831,-0.586219,-0.0115562,-0.205034,0.166972
-0.0405739,0.131244,-0.189928,-0.26241,-0.194035,-0.658324,0.00270782,-0.22686,0.171691
-0.0430175,0.12508,-0.204214,-0.419278,-0.264544,-0.732713,0.0465288,-0.2484,0.172834
-0.0481786,0.116009,-0.219615,-0.537498,-0.439154,-0.748227,0.125519,-0.264042,0.124069
-0.0559867,0.106211,-0.234543,-0.501749,-0.474949,-0.678926,0.165902,-0.252769,0.00585324
-0.0628923,0.0981522,-0.247521,-0.37335,-0.328992,-0.559673,0.174777,-0.218671,-0.104376
-0.0628923,0.0981522,-0.247521,-0.37335,-0.328992,-0.559673,0.174777,-0.218671,-0.104376
-0.0667822,0.0927976,-0.257656,-0.237187,-0.160181,-0.410513,0.210412,-0.221941,-0.176047
-0.0686667,0.0891008,-0.264605,-0.196501,-0.101334,-0.255082,0.239041,-0.225073,-0.212338
-0.0698688,0.0855203,-0.268584,-0.189195,-0.0553024,-0.119803,0.236931,-0.229922,-0.285581
-0.0703027,0.0825864,-0.269955,-0.0949091,0.0139353,-0.00241842,0.235807,-0.229565,-0.417018
-0.0679073,0.0824254,-0.269099,0.0841701,0.265558,0.0865489,0.188444,-0.199055,-0.543885
-0.0595867,0.0854714,-0.266276,0.223003,0.584081,0.17894,0.16079,-0.169744,-0.587068
-0.0458412,0.0904329,-0.261694,0.288103,0.801049,0.245973,0.132079,-0.147834,-0.551931
-0.030602,0.0962805,-0.256129,0.317925,0.747124,0.290658,0.12625,-0.123534,-0.485658
-0.0180177,0.102494,-0.249645,0.307892,0.58527,0.339747,0.128732,-0.109691,-0.438027
-0.00812252,0.108136,-0.242434,0.273416,0.503574,0.365366,0.0882142,-0.070023,-0.392318
-9.24286e-05,0.114817,-0.234311,0.447615,0.4178,0.459567,0.082474,-0.017393,-0.355537
0.00755399,0.127175,-0.223669,0.783023,0.480308,0.609831,0.129577,0.0169692,-0.266344
0.0159507,0.144968,-0.209751,0.939771,0.552924,0.804184,0.13235,0.0800225,-0.0931043
0.0253872,0.163565,-0.191886,0.862535,0.664343,0.993772,0.113352,0.0963843,0.0694345
0.0345391,0.180339,-0.170983,0.776725,0.568986,1.11179,0.0906616,0.0899461,0.161511
0.0389945,0.197032,-0.148318,0.828242,0.294169,1.17833,0.0629355,0.0992627,0.177065
0.0371735,0.215177,-0.124664,0.89302,0.0242898,1.20551,0.0348286,0.1357,0.168677
0.0309138,0.234053,-0.100646,0.914895,-0.079272,1.19499,0.0173887,0.154178,0.142878
0.02458,0.252858,-0.0773248,0.906452,0.020731,1.11714,-0.0139083,0.177846,0.121733
0.0207489,0.271337,-0.0555745,0.902447,0.166153,1.04074,-0.0109246,0.20494,0.125148
0.0195798,0.289556,-0.0348048,0.878217,0.283385,1.00701,0.0141344,0.231007,0.16618
0.0199172,0.307066,-0.0142393,0.842322,0.344222,0.996911,0.0223822,0.256182,0.240587
0.0208476,0.323798,0.00606224,0.792474,0.370325,0.964173,0.0234959,0.262017,0.312223
0.0218355,0.339058,0.0252774,0.691315,0.346226,0.890425,0.0227595,0.26247,0.390506
0.0231977,0.351786,0.0429647,0.532256,0.401596,0.804034,0.0152122,0.268296,0.453307
0.025962,0.360341,0.0586881,0.283175,0.409887,0.693641,0.0129701,0.26423,0.526038
0.0295588,0.363793,0.0720571,0.0218867,0.432745,0.561522,0.0112439,0.258227,0.562808
0.0339236,0.361553,0.0823195,-0.287441,0.341762,0.384413,-0.0144666,0.26045,0.586056
0.0363965,0.352628,0.0885317,-0.623771,0.0969,0.173891,-0.0241702,0.245024,0.559841
0.0338136,0.337481,0.0912204,-0.888703,-0.259802,0.0440279,0.0455687,0.226222,0.45677
0.0256372,0.31825,0.0925479,-1.01993,-0.460222,0.038236,0.112646,0.220223,0.260386
0.0160533,0.297551,0.0949326,-1.04728,-0.409584,0.167152,0.188739,0.215848,0.0143297
0.00836541,0.276763,0.100609,-1.05222,-0.167543,0.349827,0.181437,0.224827,-0.213901
0.00591485,0.255057,0.109414,-1.1364,0.161689,0.47108,0.112593,0.178067,-0.404789
0.0101637,0.232296,0.119121,-1.13175,0.482281,0.43091,0.0451021,0.0671267,-0.616403
0.0198996,0.210584,0.126483,-1.0537,0.625847,0.257558,0.000911772,-0.0228571,-0.736014
0.0311313,0.190175,0.131435,-1.00921,0.567414,0.205736,0.0136701,-0.0763048,-0.749065
0.0398166,0.170772,0.136801,-0.944023,0.364374,0.255427,-0.00503213,-0.0934078,-0.741157
0.0425655,0.154145,0.143341,-0.716747,0.037259,0.324001,-0.0433604,-0.135481,-0.753307
0.0414097,0.143588,0.150557,-0.367018,0.0109348,0.317882,-0.115618,-0.194551,-0.773987
0.043228,0.139493,0.155795,-0.0882659,0.264855,0.172186,-0.20022,-0.209302,-0.701053
0.0503123,0.139464,0.157568,0.0645684,0.439379,0.0083217,-0.245863,-0.195033,-0.537574
0.0597396,0.142262,0.155899,0.236403,0.47808,-0.156811,-0.249897,-0.171816,-0.386746
0.0695541,0.148589,0.150558,0.423181,0.381074,-0.331275,-0.240622,-0.140745,-0.242658
0.0761998,0.158115,0.141855,0.595895,0.155571,-0.44414,-0.20245,-0.0910325,-0.114949
0.0790245,0.171055,0.131389,0.772014,-0.0572466,-0.477686,-0.178849,-0.0239618,-0.0179746
0.0778172,0.18752,0.120544,0.962334,-0.239124,-0.457278,-0.182348,0.0515356,0.0544628
0.0737397,0.207594,0.109802,1.10502,-0.380312,-0.453549,-0.20086,0.114859,0.11735
0.0667872,0.229056,0.0987634,1.0988,-0.559146,-0.475323,-0.213661,0.168724,0.184814
0.0574403,0.249369,0.086996,0.995227,-0.637566,-0.559798,-0.223998,0.196652,0.213259
0.0489286,0.26672,0.0726911,0.795953,-0.546629,-0.752543,-0.249572,0.219547,0.22403
0.0489286,0.26672,0.0726911,0.795953,-0.546629,-0.752543,-0.249572,0.219547,0.22403
0.0453563,0.27883,0.0538398,0.494261,-0.330072,-1.00725,-0.274821,0.227334,0.24225
0.0465989,0.284832,0.0305446,0.227786,-0.21653,-1.18401,-0.22955,0.238348,0.264804
0.0491733,0.286738,0.00530566,0.0954216,-0.259645,-1.21313,-0.14111,0.252658,0.293584
0.0498278,0.286908,-0.0192893,0.0459384,-0.384069,-1.13782,-0.072872,0.256697,0.33275
0.0470217,0.286523,-0.0416991,0.0220711,-0.537507,-1.0234,-0.0432266,0.242442,0.381375
0.0406074,0.285542,-0.0623796,-0.0393127,-0.679498,-0.982946,-0.0537077,0.211365,0.4264
0.0319716,0.282937,-0.0832219,-0.159503,-0.764094,-1.0473,-0.0576269,0.16646,0.446779
0.0228478,0.277246,-0.105845,-0.362213,-0.762549,-1.13774,-0.0368507,0.135509,0.451689
0.0139648,0.267683,-0.129321,-0.540902,-0.774101,-1.12449,0.012061,0.128481,0.438307
0.00379145,0.255953,-0.1514,-0.596834,-0.812563,-1.01253,0.0697726,0.125253,0.388756
-0.00762159,0.244211,-0.170646,-0.585289,-0.816024,-0.857573,0.096583,0.116577,0.336405
-0.0203881,0.232678,-0.187211,-0.605627,-0.849709,-0.75076,0.105119,0.0647817,0.275951
-0.0344265,0.22047,-0.202143,-0.666201,-0.907431,-0.677753,0.137392,-0.0165103,0.180783
-0.0495112,0.206822,-0.215896,-0.762826,-0.85862,-0.612183,0.156041,-0.0940575,-0.00154525
-0.0622491,0.191135,-0.228787,-0.875142,-0.671058,-0.564321,0.176402,-0.152068,-0.208696
-0.0717102,0.174154,-0.240617,-0.877497,-0.488046,-0.477451,0.242577,-0.219792,-0.403583
-0.0786055,0.158293,-0.250327,-0.772666,-0.392771,-0.365672,0.254362,-0.251654,-0.549334
-0.0840657,0.144928,-0.258089,-0.613876,-0.242858,-0.296799,0.232684,-0.279575,-0.686723
-0.0845633,0.135434,-0.264434,-0.383376,0.145245,-0.248385,0.218943,-0.306203,-0.777148
-0.0756492,0.130346,-0.26934,-0.172617,0.712801,-0.190143,0.221497,-0.289258,-0.73898
-0.0553798,0.128789,-0.272144,-0.0097854,1.22402,-0.0752832,0.214698,-0.245926,-0.57485
-0.0295358,0.130072,-0.272732,0.134698,1.30313,0.00823176,0.209794,-0.23649,-0.354613
-0.00559213,0.133772,-0.271761,0.213149,1.07528,0.0801059,0.242282,-0.240467,-0.159203
0.0123727,0.13774,-0.269101,0.177529,0.792747,0.197512,0.268903,-0.207742,-0.0237529
0.0260038,0.141262,-0.263324,0.17737,0.674062,0.393126,0.263046,-0.139893,0.0227245
0.0384992,0.145851,-0.253398,0.255002,0.750753,0.607517,0.23882,-0.0608123,0.0361807
0.0520511,0.152262,-0.2391,0.321706,0.777734,0.847816,0.23222,-0.015455,0.0787819
0.062417,0.160111,-0.219805,0.347622,0.524342,1.10589,0.222189,0.0111427,0.123486
0.0654049,0.168817,-0.195725,0.377547,0.187188,1.31106,0.200875,0.0199449,0.107074
0.0631815,0.178644,-0.168659,0.434444,0.100601,1.39953,0.133269,0.0363074,0.0490166
0.0611896,0.189728,-0.140784,0.502002,0.246947,1.41097,0.0618942,0.0742574,0.0149162
0.062999,0.201881,-0.112681,0.531013,0.467575,1.4187,0.0243045,0.11131,0.063212
0.0675152,0.213929,-0.0844819,0.485256,0.541762,1.41935,0.00504255,0.126653,0.172396
0.0714746,0.225018,-0.0564416,0.434527,0.448509,1.39514,-0.00944802,0.126017,0.257763
0.0721889,0.235415,-0.0290547,0.418673,0.240673,1.34229,-0.0236891,0.12526,0.307821
0.0682985,0.245764,-0.00298516,0.451678,-0.00479311,1.26633,-0.0207388,0.127086,0.31672
0.0605673,0.257086,0.0218518,0.521689,-0.119203,1.21814,-0.0106741,0.156027,0.295272
0.0519681,0.268645,0.0457517,0.487037,-0.120701,1.15143,-0.034075,0.197935,0.291138
0.0439535,0.278448,0.0680006,0.397166,-0.0533503,1.03162,-0.0574599,0.187233,0.252943
0.0384042,0.286496,0.0872389,0.332099,-0.00543351,0.847638,-0.048045,0.15918,0.205527
0.0325935,0.292612,0.103061,0.212761,-0.154657,0.713953,-0.022856,0.158266,0.165573
0.0228818,0.295732,0.117488,0.0716797,-0.399961,0.701789,0.0221656,0.17648,0.0860384
0.00968981,0.296759,0.132293,0.00977714,-0.429317,0.713255,0.0303457,0.186084,-0.054513
-0.000123061,0.296235,0.146333,-0.0910994,-0.126369,0.611883,-0.0400282,0.182791,-0.151819
-0.00341543,0.292412,0.157059,-0.301149,0.0538351,0.411338,-0.101908,0.144937,-0.153248
-0.0043751,0.283968,0.163304,-0.55883,0.00963538,0.192993,-0.114376,0.0907136,-0.149952
-0.00695231,0.269725,0.165014,-0.878118,-0.259557,-0.0198523,-0.118055,0.0542933,-0.150818
-0.0145993,0.249694,0.162651,-1.10186,-0.534985,-0.177515,-0.103576,0.0136478,-0.225787
-0.0250066,0.227613,0.157635,-1.08648,-0.585592,-0.261124,-0.0826966,0.0114042,-0.361012
-0.0338328,0.208003,0.151066,-0.870191,-0.396927,-0.325878,-0.100844,0.00498344,-0.461232
-0.0338328,0.208003,0.151066,-0.870191,-0.396927,-0.325878,-0.100844,0.00498344,-0.461232
-0.0361825,0.194121,0.142917,-0.559203,-0.00909799,-0.441934,-0.138058,-0.00312522,-0.449723
-0.0325374,0.184832,0.131621,-0.455829,0.0981779,-0.643909,-0.159658,-0.0242416,-0.278173
-0.0291905,0.175187,0.115984,-0.577985,-0.0619296,-0.874116,-0.144432,-0.0536892,-0.144464
-0.0282595,0.163579,0.0959099,-0.597385,-0.15603,-1.04882,-0.1398,-0.0524209,-0.160182
-0.0277969,0.154996,0.0746865,-0.27193,-0.127717,-0.983264,-0.05657,0.00189468,-0.259196
-0.0262261,0.155113,0.0573588,0.233233,0.051665,-0.723346,-0.0441449,0.095486,-0.282564
-0.0218477,0.163665,0.0452628,0.552817,0.168435,-0.518358,-0.106101,0.154344,-0.169467
-0.0164854,0.175594,0.0357356,0.582458,0.18531,-0.470085,-0.13982,0.122737,-0.0202563
-0.011872,0.185783,0.0254165,0.410172,0.09954,-0.580025,-0.186407,0.0876551,0.0932268
-0.00740398,0.192085,0.0120875,0.214224,0.110311,-0.738555,-0.219249,0.0819432,0.152159
-0.00171942,0.19484,-0.00416817,0.0681829,0.138617,-0.850524,-0.203223,0.0831513,0.191313
0.00429793,0.195353,-0.0218316,-0.00323934,0.121981,-0.868327,-0.155553,0.0865379,0.230345
0.00923627,0.194741,-0.038974,-0.0387981,0.0261544,-0.816247,-0.109846,0.0764161,0.272652
0.0117206,0.193819,-0.0550392,-0.0294231,-0.0799371,-0.774214,-0.0877033,0.0492057,0.298683
0.0125589,0.193289,-0.0706584,-0.00456871,-0.13252,-0.769696,-0.0821641,0.0319615,0.323235
0.0127869,0.193121,-0.08644,0.00518858,-0.132519,-0.784454,-0.0758271,0.0328494,0.352942
0.0134175,0.192843,-0.102513,-0.012292,-0.1273,-0.794335,-0.0440063,0.0339807,0.396704
0.0130763,0.192243,-0.118411,-0.0302323,-0.227175,-0.762768,-0.00531244,0.0457671,0.434406
0.00939951,0.191189,-0.133049,-0.0550667,-0.436347,-0.66904,0.0411412,0.0556116,0.435471
0.000782374,0.189792,-0.14526,-0.075953,-0.643485,-0.531567,0.0861,0.0502882,0.367358
-0.0116055,0.188071,-0.154616,-0.110619,-0.767635,-0.38467,0.113314,0.0458814,0.268983
-0.0268051,0.184981,-0.161324,-0.215286,-0.885031,-0.279371,0.124596,0.0118244,0.153027
-0.0441149,0.180081,-0.166785,-0.281782,-0.907362,-0.255869,0.148658,-0.0516799,-0.0414352
-0.0585879,0.174604,-0.172446,-0.294979,-0.596525,-0.265083,0.169526,-0.0848729,-0.22594
-0.0641061,0.168561,-0.177328,-0.348052,-0.0216662,-0.154982,0.211515,-0.0821291,-0.328957
-0.0595938,0.160627,-0.179136,-0.467417,0.37542,0.0222438,0.22232,-0.100607,-0.338111
-0.0513345,0.149483,-0.178371,-0.652485,0.393723,0.0851897,0.200184,-0.171187,-0.321063
-0.0457862,0.13451,-0.178177,-0.830854,0.178522,-0.00661295,0.181786,-0.259588,-0.352372
-0.0419032,0.117836,-0.179527,-0.804755,0.265315,-0.0209676,0.224523,-0.286962,-0.445703
-0.0330991,0.104216,-0.17869,-0.530655,0.632869,0.188326,0.25409,-0.204413,-0.478688
-0.0184723,0.0968257,-0.171494,-0.209155,0.843898,0.55787,0.289716,-0.155843,-0.358491
-0.0054679,0.0942562,-0.1567,-0.048007,0.490758,0.917724,0.298458,-0.160354,-0.160704
-0.00304742,0.0949949,-0.13546,0.133488,0.0123658,1.16505,0.268903,-0.186398,-0.0637478
-0.00657348,0.099841,-0.111271,0.366117,-0.0774062,1.2479,0.213053,-0.172709,-0.0586972
-0.00891036,0.108856,-0.0848375,0.535396,0.138151,1.39631,0.198448,-0.101931,-0.00794202
-0.00798189,0.119363,-0.0546694,0.515614,0.283866,1.60465,0.222158,-0.0485226,0.0760592
-0.00655454,0.128334,-0.020099,0.424367,0.258458,1.83159,0.228028,-0.0213101,0.11291
-0.00833128,0.137348,0.0190196,0.547945,0.0768268,2.04258,0.236784,-0.0173497,0.056985
-0.0148053,0.150417,0.0615893,0.818391,-0.101722,2.15397,0.21613,0.00155045,-0.00331253
-0.0238438,0.168205,0.106083,1.0219,-0.072487,2.21069,0.176047,0.0359427,-0.0130658
-0.0329442,0.187513,0.151738,1.01712,-0.0332804,2.23048,0.163831,0.0527031,0.0507855
-0.042317,0.204982,0.197509,0.895273,-0.0225042,2.18945,0.159293,0.0465056,0.112267
-0.0526276,0.219462,0.241883,0.764163,-0.0811107,2.07635,0.145275,0.0337601,0.13601
-0.0637561,0.231523,0.283421,0.70123,-0.0755318,1.90245,0.135591,0.0185533,0.119381
-0.0732078,0.24295,0.321517,0.702722,0.0226126,1.73055,0.14088,0.0409817,0.118347
-0.080165,0.254551,0.357114,0.725741,0.171044,1.64307,0.172332,0.0783335,0.138848
-0.0842741,0.266219,0.391844,0.705175,0.297007,1.62049,0.19916,0.11976,0.201934
-0.0871116,0.276719,0.426317,0.619634,0.343371,1.61251,0.217084,0.134056,0.261273
-0.0898893,0.285373,0.460536,0.543491,0.319877,1.592,0.23366,0.128989,0.296472
-0.0940986,0.293244,0.494303,0.556634,0.218639,1.56532,0.24246,0.126614,0.280774
-0.0995207,0.301632,0.527174,0.572411,0.213293,1.4883,0.242927,0.12525,0.240305
-0.0995207,0.301632,0.527174,0.572411,0.213293,1.4883,0.242927,0.12525,0.240305
-0.105159,0.309644,0.558822,0.527013,0.176439,1.45664,0.253706,0.133211,0.195304
-0.109978,0.316403,0.590007,0.457353,0.326996,1.42433,0.270293,0.110863,0.116784
-0.111234,0.321442,0.619946,0.354989,0.505758,1.34799,0.245746,0.0825212,0.0304875
-0.107332,0.324022,0.647832,0.175396,0.755721,1.2572,0.235539,0.0236278,-0.0389836
-0.0998665,0.322709,0.673214,-0.0463032,0.77063,1.15488,0.229991,-0.0236068,-0.0999095
-0.0927586,0.319197,0.696376,-0.0463373,0.648969,1.08235,0.218226,-0.0674669,-0.239607
-0.0884526,0.318931,0.718974,0.231276,0.545026,1.07038,0.212087,-0.0787973,-0.4061
-0.0822254,0.324016,0.742002,0.409225,0.83844,1.07651,0.181085,-0.0680676,-0.481126
-0.0688263,0.329667,0.765404,0.287707,1.25592,1.09845,0.138341,-0.0462217,-0.426161
-0.0486127,0.331781,0.788933,0.0568729,1.47703,1.11468,0.101897,-0.0436426,-0.33144
-0.0271381,0.330437,0.812339,-0.0785951,1.41638,1.10113,0.0662093,-0.0629799,-0.280751
-0.00775609,0.327971,0.835054,-0.135796,1.23562,1.0475,0.0441468,-0.0827387,-0.242524
0.00653817,0.324144,0.856009,-0.251599,0.879106,0.943271,0.00455979,-0.0713645,-0.197192
0.0165005,0.318278,0.874911,-0.354167,0.754024,0.843035,-0.0660098,-0.0316575,-0.196884
0.0267781,0.311336,0.891567,-0.352583,0.824998,0.741326,-0.118658,-0.00204924,-0.210007
0.0403907,0.305425,0.906498,-0.30521,0.997034,0.658156,-0.118528,0.00115302,-0.177842
0.057113,0.299256,0.919294,-0.387315,1.00735,0.539587,-0.121363,-0.00740641,-0.116864
0.0712947,0.291921,0.930386,-0.372662,0.715297,0.482873,-0.0849901,-0.000751644,-0.107698
0.0803589,0.287861,0.940922,-0.076872,0.534746,0.513376,-0.0338025,0.0549436,-0.174749
0.0876933,0.290994,0.95276,0.276443,0.559267,0.665955,-0.0148378,0.153329,-0.169593
0.0941915,0.299895,0.968015,0.435764,0.491525,0.878673,-0.0134385,0.241739,-0.0623865
0.0953579,0.309999,0.987318,0.381098,0.188163,1.03445,-0.0421979,0.254017,0.0343569
0.0896909,0.318895,1.00783,0.336314,-0.11155,0.954807,-0.127062,0.210017,0.021373
0.0805135,0.326959,1.0249,0.327998,-0.223139,0.730231,-0.208002,0.204923,-0.0403736
0.0723577,0.334292,1.03792,0.309596,-0.122231,0.574676,-0.219034,0.222067,-0.0691051
0.0685676,0.341265,1.04859,0.327297,0.0944004,0.49323,-0.207339,0.248559,-0.0573341
0.0697739,0.348657,1.05812,0.328321,0.342359,0.454961,-0.175233,0.257087,0.00968927
0.0741199,0.35491,1.06725,0.227959,0.375859,0.460662,-0.137674,0.247317,0.129012
0.0774116,0.359539,1.0772,0.174832,0.285074,0.510371,-0.119951,0.235403,0.221067
0.0774942,0.363785,1.08824,0.16915,0.107191,0.549836,-0.125039,0.234552,0.290013
0.0737081,0.367671,1.0998,0.121644,-0.0777409,0.556166,-0.136118,0.221671,0.354324
0.0660479,0.369492,1.11117,-0.0218948,-0.270571,0.508076,-0.153877,0.2048,0.404034
0.0557168,0.368172,1.12109,-0.157089,-0.395719,0.404129,-0.144241,0.171221,0.398641
0.0451702,0.364988,1.12882,-0.19336,-0.362891,0.308955,-0.130666,0.159397,0.345773
0.0368046,0.36101,1.13503,-0.239093,-0.249244,0.26193,-0.129075,0.164422,0.31775
0.0307775,0.355182,1.14045,-0.375948,-0.203842,0.217866,-0.111585,0.141096,0.325033
0.0244516,0.346361,1.14442,-0.506162,-0.273488,0.128552,-0.0630058,0.0720209,0.281703
0.0194536,0.335605,1.14638,-0.568105,-0.135359,0.0359761,-0.0313677,0.0255533,0.200228
0.0184342,0.324229,1.14687,-0.569998,0.072648,0.000739506,0.0105423,-0.00039196,0.14874
0.0220559,0.312868,1.14745,-0.583208,0.276309,0.0393886,0.0771,-0.0566521,0.139379
0.0277726,0.300826,1.14943,-0.6334,0.338567,0.128484,0.114225,-0.0921639,0.145657
0.0319314,0.288053,1.15366,-0.642788,0.157401,0.245236,0.13011,-0.131167,0.123532
0.0308908,0.276766,1.16052,-0.477617,-0.0564312,0.385507,0.152067,-0.181863,0.0354142
0.0262571,0.270104,1.17034,-0.230611,-0.101828,0.535313,0.173901,-0.20761,-0.0317978
0.0227707,0.266866,1.18234,-0.159306,0.0922716,0.602229,0.141657,-0.234886,-0.055042
0.0232498,0.262991,1.1946,-0.268438,0.260152,0.558718,0.100156,-0.270121,-0.0538702
0.0262399,0.257257,1.20532,-0.304821,0.283157,0.472275,0.112047,-0.306805,-0.115547
0.0292946,0.252591,1.21462,-0.177592,0.271083,0.42898,0.145894,-0.279414,-0.20831
0.0329124,0.250313,1.22391,-0.0952073,0.313723,0.478058,0.156641,-0.196827,-0.248944
0.0373801,0.248808,1.23442,-0.0992883,0.43747,0.524196,0.144977,-0.121641,-0.296332
0.0373801,0.248808,1.23442,-0.0992883,0.43747,0.524196,0.144977,-0.121641,-0.296332
0.0472192,0.2471,1.24492,-0.120338,0.838861,0.481646,0.121331,-0.0679677,-0.380469
0.0647011,0.244305,1.25476,-0.245245,1.11132,0.464109,0.149346,0.00399765,-0.424089
0.0850587,0.237927,1.2644,-0.48109,1.09685,0.394633,0.174593,0.019471,-0.451668
0.10123,0.226038,1.2714,-0.738534,0.648884,0.169766,0.121758,0.00890797,-0.527406
0.107921,0.212603,1.27518,-0.543648,0.155338,0.104021,0.171859,0.0544191,-0.694736
0.108377,0.208239,1.27955,0.0949401,0.0654228,0.314777,0.215934,0.196743,-0.791275
0.110321,0.21729,1.28874,0.657578,0.341858,0.679654,0.202398,0.301247,-0.649888
0.116014,0.234506,1.30332,0.845524,0.524144,0.890486,0.12153,0.300172,-0.369236
0.12129,0.253174,1.31971,0.799188,0.325437,0.89734,0.0427766,0.239339,-0.114216
0.118783,0.269905,1.33559,0.681314,-0.166658,0.829345,-0.0068073,0.193077,0.0160717
0.107861,0.28452,1.34988,0.630127,-0.495644,0.69331,-0.0233069,0.152447,0.0228986
0.0942853,0.297852,1.36103,0.587825,-0.500403,0.508547,-0.0400736,0.15275,0.00688374
0.0839489,0.309663,1.36906,0.521731,-0.278078,0.376908,-0.0404182,0.179783,0.0189065
0.0786283,0.320359,1.37597,0.500155,-0.0417706,0.387427,-0.0134244,0.217449,0.0479816
0.0760172,0.331092,1.38435,0.506605,0.0128297,0.493676,0.0169257,0.23395,0.119211
0.0714717,0.341941,1.39524,0.503767,-0.138453,0.622259,0.0428918,0.216023,0.211032
0.0616139,0.352913,1.40917,0.509644,-0.381254,0.760556,0.0621998,0.19837,0.286489
0.0459229,0.363935,1.42579,0.504028,-0.587043,0.837696,0.0509263,0.172574,0.320023
0.0272441,0.374179,1.44351,0.454127,-0.614065,0.849379,0.0326122,0.145415,0.309567
0.00967923,0.382173,1.46113,0.300332,-0.48042,0.801814,0.00881091,0.127729,0.304919
-0.00395282,0.385966,1.47758,0.0710831,-0.24751,0.722996,-0.00830092,0.0950365,0.296133
-0.0125913,0.385109,1.49204,-0.136502,-0.0993485,0.621761,-0.0311627,0.0803569,0.285632
-0.0187325,0.38097,1.50411,-0.238942,-0.0791168,0.509732,-0.0317297,0.0570779,0.251506
-0.0239096,0.376255,1.51363,-0.201444,-0.0700759,0.393991,0.00046058,0.0158772,0.181063
-0.026501,0.37287,1.52094,-0.130194,0.119857,0.297391,0.00337577,0.0192736,0.148824
-0.0234129,0.370137,1.52627,-0.156286,0.359327,0.210916,0.0082755,0.025226,0.181122
-0.0172271,0.365783,1.53005,-0.280256,0.35137,0.152135,0.0211525,0.0172263,0.256871
-0.0132648,0.359369,1.53259,-0.339353,0.100489,0.0954857,0.0230829,0.00755167,0.296282
-0.014656,0.352778,1.53388,-0.320932,-0.178527,0.0330053,0.051671,-0.0129077,0.29705
-0.0198694,0.345896,1.53407,-0.389731,-0.315195,0.00212499,0.0780327,-0.0230053,0.295521
-0.027167,0.336624,1.53388,-0.537415,-0.428479,0.00240885,0.0779767,-0.0112047,0.252655
-0.035638,0.325557,1.53371,-0.549612,-0.386087,0.00903019,0.077811,-0.0254245,0.130206
-0.0403667,0.315453,1.53308,-0.45942,-0.0619811,-0.0333954,0.0789374,-0.0548192,0.0115422
-0.03663,0.307263,1.53194,-0.367762,0.380818,-0.0288342,0.106272,-0.0846337,-0.0159804
-0.0264345,0.300905,1.5317,-0.27014,0.588282,0.0207864,0.126608,-0.124133,0.0160297
-0.0146729,0.296656,1.53219,-0.157617,0.583741,0.029215,0.126748,-0.192891,-0.00351554
-0.00451649,0.294505,1.53275,-0.0663802,0.449366,0.0244758,0.139744,-0.256899,-0.0549045
0.00403634,0.293636,1.53344,-0.0325284,0.463434,0.0546934,0.193463,-0.312876,-0.139276
0.0138255,0.292446,1.53549,-0.106599,0.563978,0.14834,0.267142,-0.328205,-0.216577
0.0251555,0.289445,1.54011,-0.198812,0.700307,0.296733,0.319689,-0.339366,-0.309357
0.0376912,0.285135,1.54811,-0.249737,0.759581,0.461069,0.340899,-0.366449,-0.401867
0.0486506,0.28124,1.55937,-0.176939,0.597832,0.606922,0.363649,-0.372294,-0.494771
0.0535701,0.27957,1.57348,-0.0585114,0.306824,0.737315,0.377352,-0.361386,-0.553663
0.0550763,0.280085,1.58972,-0.0048302,0.340845,0.82437,0.350234,-0.319052,-0.603414
0.0597951,0.27979,1.60757,-0.161512,0.649311,0.891556,0.293745,-0.24858,-0.583222
0.069735,0.27438,1.62726,-0.50532,0.835535,0.974634,0.23287,-0.193054,-0.509717
0.0792201,0.263998,1.64888,-0.629299,0.615928,1.02213,0.124135,-0.143935,-0.471404
0.0796529,0.255243,1.67075,-0.362738,-0.0150941,1.01741,0.0323841,-0.066077,-0.435582
0.0706972,0.25387,1.69153,0.0707235,-0.280513,0.974049,-0.0128323,0.0134042,-0.383118
0.0619399,0.260083,1.71056,0.415294,-0.0306247,0.911155,-0.0743297,0.138569,-0.277092
0.0621992,0.271742,1.7283,0.628371,0.502591,0.883485,-0.137606,0.265389,-0.122298
0.0700431,0.286587,1.74606,0.735843,0.709326,0.93029,-0.175118,0.322261,0.0502766
0.0777035,0.303375,1.76445,0.809132,0.542889,0.939396,-0.206725,0.310996,0.159279
0.0792783,0.321329,1.78179,0.847471,0.132149,0.833628,-0.267204,0.330522,0.211996
0.0728227,0.338964,1.79554,0.804322,-0.346808,0.575567,-0.321746,0.346503,0.212527
0.0580628,0.354271,1.80227,0.670852,-0.886727,0.14054,-0.324309,0.311873,0.186304
0.0379313,0.365933,1.79992,0.512347,-1.14332,-0.279303,-0.270107,0.300524,0.0927865
0.0195218,0.374667,1.79046,0.38323,-0.965023,-0.561934,-0.215096,0.349834,-0.0086804
0.0110537,0.380264,1.77612,0.190846,-0.393547,-0.743965,-0.173762,0.377437,-0.0631284
0.014949,0.382139,1.75964,0.0377835,0.137852,-0.75872,-0.114914,0.376079,-0.0691979
0.0262941,0.38258,1.74421,0.0618734,0.369726,-0.669175,-0.0662605,0.349741,-0.0326383
0.0385778,0.384183,1.73081,0.125542,0.315067,-0.571433,-0.0390832,0.299149,0.0553671
0.0468894,0.386061,1.71914,0.102966,0.0842587,-0.508617,-0.0499684,0.246461,0.137921
0.0501743,0.387549,1.70889,0.100617,-0.145639,-0.434852,-0.0513167,0.20693,0.195303
0.0491287,0.389096,1.70001,0.0917907,-0.267577,-0.388382,-0.0522436,0.179202,0.231784
0.047234,0.389985,1.6916,0.0258786,-0.219687,-0.392929,-0.0679785,0.15973,0.271906
0.047304,0.389095,1.68279,-0.0769819,-0.129124,-0.432557,-0.0846455,0.134493,0.326424
0.0484955,0.386373,1.67309,-0.14259,-0.126208,-0.476953,-0.066311,0.121064,0.379432
0.0495448,0.382779,1.66279,-0.162814,-0.169859,-0.490919,-0.0394708,0.118922,0.417947
0.0492593,0.379071,1.6526,-0.164954,-0.244727,-0.471536,-0.00535387,0.125307,0.452494
0.0469704,0.375086,1.64297,-0.201812,-0.350246,-0.439844,0.0300416,0.111318,0.465079
0.0420193,0.369878,1.6345,-0.287023,-0.447446,-0.363624,0.0860627,0.084509,0.436584
0.0348911,0.362809,1.62801,-0.401887,-0.495539,-0.27334,0.113429,0.0547304,0.380731
0.0268757,0.353476,1.62319,-0.522715,-0.439533,-0.22251,0.124706,0.0118866,0.302247
0.020515,0.342172,1.61897,-0.570098,-0.354421,-0.193452,0.136865,-0.0298068,0.19334
0.0151043,0.331859,1.61537,-0.441617,-0.304129,-0.170135,0.134951,-0.0492902,0.082217
0.0151043,0.331859,1.61537,-0.441617,-0.304129,-0.170135,0.134951,-0.0492902,0.082217
0.0113549,0.324463,1.61198,-0.314956,-0.161531,-0.160416,0.142909,-0.0812553,0.00975752
0.011375,0.318023,1.60878,-0.357493,0.0661452,-0.142404,0.149489,-0.0960324,0.0162918
0.015493,0.309308,1.60655,-0.513014,0.265875,-0.0709379,0.15074,-0.0925119,0.0404122
0.0220936,0.298358,1.6062,-0.557354,0.370043,0.0106255,0.129748,-0.104929,0.0339259
0.0294875,0.288182,1.60729,-0.454682,0.39406,0.0619913,0.110679,-0.129212,0.0271014
0.0369712,0.280578,1.60958,-0.322501,0.421783,0.13593,0.0851796,-0.133733,0.0654787
0.0444453,0.275209,1.61372,-0.242341,0.439626,0.24523,0.0679132,-0.123684,0.13343
0.0509304,0.270892,1.6201,-0.235097,0.361547,0.342354,0.0470937,-0.133502,0.205844
0.0538713,0.266088,1.62839,-0.294463,0.132133,0.436146,0.0606443,-0.158153,0.246946
0.0512984,0.260262,1.63885,-0.334054,-0.0852774,0.540872,0.0693474,-0.160879,0.203745
0.0462444,0.254069,1.65093,-0.341676,-0.0981557,0.585479,0.0426737,-0.160262,0.108266
0.0413324,0.247941,1.66342,-0.309811,-0.0694445,0.601772,0.0296604,-0.170531,0.00426686
0.0383493,0.243464,1.67623,-0.181816,0.114698,0.628337,0.00286029,-0.156242,-0.107597
0.0401428,0.241334,1.68995,-0.110898,0.377613,0.715952,0.0397511,-0.170761,-0.152336
0.0458653,0.238097,1.70543,-0.327316,0.521488,0.745943,0.0337676,-0.221208,-0.173658
0.0522866,0.22995,1.72017,-0.504162,0.436581,0.643406,-0.000487398,-0.30326,-0.333424
0.0560567,0.221808,1.73246,-0.345222,0.211942,0.512359,-0.0168588,-0.343483,-0.597183
0.0559583,0.217571,1.74256,-0.155482,0.00737924,0.47314,-0.000762377,-0.321053,-0.749667
0.0532335,0.215411,1.75266,-0.164802,-0.0212721,0.492526,0.035149,-0.315701,-0.785344
0.0526479,0.210658,1.76243,-0.373694,0.188758,0.428033,-0.00223548,-0.321689,-0.768273
0.0574532,0.202038,1.77021,-0.508425,0.43601,0.273901,-0.0619757,-0.32419,-0.722228
0.0656535,0.192317,1.77426,-0.4498,0.407314,0.0643398,-0.0876817,-0.306303,-0.609845
0.0710786,0.185635,1.77412,-0.205119,0.087039,-0.114046,-0.0940906,-0.231552,-0.453851
0.0678305,0.18422,1.77103,0.0880304,-0.472305,-0.176034,-0.0455898,-0.127261,-0.274186
0.0557678,0.188656,1.76783,0.379644,-0.706858,-0.0897775,0.0414567,0.0175709,-0.177442
0.0446966,0.199243,1.76784,0.674258,-0.323628,0.165626,0.0873515,0.166632,-0.123133
0.0423261,0.21493,1.77382,0.844759,0.159251,0.486564,0.118862,0.249809,0.00541317
0.0436195,0.232429,1.78582,0.8202,0.163502,0.752018,0.165834,0.250453,0.181153
0.0388232,0.247497,1.80297,0.608044,-0.26466,0.975689,0.208493,0.224364,0.244112
0.0242461,0.258768,1.82422,0.480951,-0.644052,1.09932,0.173982,0.229461,0.140372
0.00279491,0.268648,1.84653,0.501353,-0.892026,1.05021,0.100592,0.221666,-0.0178983
-0.0201854,0.279469,1.86648,0.598284,-0.821603,0.854409,0.0891183,0.172436,-0.134895
-0.0381431,0.29136,1.88213,0.62392,-0.49212,0.622139,0.122785,0.158273,-0.164715
-0.0453434,0.30252,1.8937,0.517271,0.140631,0.464323,0.158534,0.184325,-0.134924
-0.0395367,0.310161,1.90354,0.279221,0.673254,0.464001,0.173886,0.229269,-0.0270669
-0.0280701,0.313181,1.91409,0.0812854,0.731501,0.535879,0.19969,0.212261,0.0935466
-0.0196413,0.313797,1.92629,0.0356922,0.453412,0.633126,0.246037,0.165667,0.152386
-0.0189362,0.314862,1.94092,0.111538,0.0885434,0.7647,0.246489,0.168664,0.174576
-0.0240498,0.317707,1.95845,0.199164,-0.00990242,0.895858,0.238222,0.170345,0.185565
-0.0296465,0.321221,1.97827,0.189756,0.0951976,0.969336,0.20409,0.173361,0.230416
-0.0326893,0.323752,1.99892,0.119122,0.259393,0.976031,0.161296,0.158961,0.292726
-0.0330607,0.324197,2.01923,-0.019895,0.325827,0.95066,0.134024,0.137914,0.362687
-0.0332988,0.321823,2.039,-0.139051,0.259035,0.94188,0.13577,0.11932,0.415023
-0.0357553,0.318307,2.05866,-0.133537,0.117141,0.943569,0.143953,0.107697,0.410753
-0.0408678,0.31539,2.07859,-0.0907332,-0.000145337,0.976734,0.17083,0.105949,0.389716
-0.0473372,0.312817,2.0994,-0.0931565,0.0221082,1.02071,0.175043,0.0992747,0.359279
-0.0523944,0.309289,2.12085,-0.176964,0.122944,1.04121,0.183995,0.0764155,0.338496
-0.0558324,0.303304,2.14256,-0.309806,0.175356,1.06653,0.202136,0.0512386,0.313555
-0.0578912,0.295383,2.16429,-0.342495,0.258939,1.04847,0.195001,0.00677365,0.228861
-0.0578485,0.288437,2.18517,-0.21835,0.339264,0.992987,0.175438,-0.0153348,0.139489
-0.0566203,0.284713,2.20544,-0.0449175,0.346935,0.981437,0.180212,-0.0342886,0.0903761
-0.0551513,0.284015,2.22587,0.0643226,0.377552,0.989521,0.186063,-0.0468598,0.0764595
-0.0529472,0.284294,2.24657,0.049757,0.446501,0.997989,0.179948,-0.0572585,0.0858495
-0.0529472,0.284294,2.24657,0.049757,0.446501,0.997989,0.179948,-0.0572585,0.0858495
-0.0479124,0.28349,2.26715,-0.0293031,0.653008,0.986511,0.177956,-0.092194,0.081374
-0.0382359,0.281113,2.287,-0.12908,0.844947,0.920541,0.166777,-0.148402,0.0610583
-0.0274311,0.277275,2.30487,-0.175421,0.696607,0.819782,0.183225,-0.207603,0.0166801
-0.0200106,0.274089,2.32126,-0.0861232,0.504202,0.789134,0.207144,-0.238379,-0.0882864
-0.0152336,0.273722,2.33783,0.0729359,0.460871,0.809555,0.22835,-0.264275,-0.201418
-0.00967564,0.275811,2.35446,0.136129,0.580319,0.78542,0.230745,-0.289974,-0.272688
-0.000178671,0.278072,2.37003,0.0838543,0.780972,0.716272,0.199253,-0.303134,-0.316551
0.0120725,0.27943,2.38415,0.0520199,0.792598,0.656488,0.197457,-0.313822,-0.368508
0.0228588,0.281694,2.39811,0.174001,0.640022,0.724499,0.234727,-0.278031,-0.448112
0.0276384,0.287808,2.41507,0.401677,0.322301,0.935088,0.238654,-0.193185,-0.498544
0.0260612,0.297876,2.43581,0.510583,0.160995,1.04548,0.188789,-0.149182,-0.473867
0.0228831,0.307284,2.45646,0.359655,0.150992,0.918059,0.0626022,-0.102665,-0.394427
0.0216225,0.312764,2.47337,0.161144,0.251714,0.715471,0.00343009,-0.0432773,-0.325942
0.0233811,0.315171,2.48719,0.074103,0.354361,0.641729,0.0305527,0.0264859,-0.289461
0.0264237,0.317293,2.50158,0.121413,0.378099,0.751897,0.0309895,0.136062,-0.250703
0.0283954,0.321656,2.51885,0.289314,0.366795,0.897054,-0.0266914,0.224219,-0.219455
0.0296554,0.330127,2.53785,0.501723,0.374512,0.909472,-0.139653,0.29627,-0.158648
0.03143,0.342028,2.55575,0.619318,0.382693,0.815973,-0.197604,0.333414,-0.0506983
0.0326032,0.354543,2.57166,0.557567,0.25833,0.73113,-0.191123,0.358377,0.0802818
0.0309686,0.363865,2.58637,0.304785,0.0845091,0.683407,-0.178366,0.384057,0.172361
0.0248173,0.366997,2.60071,-0.0147386,-0.196559,0.660222,-0.158859,0.385654,0.185823
0.0145995,0.365467,2.61415,-0.12517,-0.312589,0.581173,-0.14393,0.348642,0.085652
0.00464517,0.363618,2.62523,-0.0619244,-0.271103,0.451458,-0.119377,0.3124,0.0107931
-0.00252482,0.362918,2.63415,-0.0222972,-0.12341,0.40622,-0.0438128,0.281426,0.0207843
-0.00643488,0.362105,2.64355,-0.0563888,0.0521005,0.488033,0.0264491,0.266795,0.0724936
-0.00858615,0.361055,2.65546,-0.0206873,0.140882,0.635624,0.065909,0.248602,0.114277
-0.0113094,0.361691,2.67058,0.109023,0.102943,0.775342,0.0754731,0.225331,0.161528
-0.0164793,0.364867,2.68797,0.222672,0.00197779,0.83839,0.0545173,0.20291,0.23333
-0.0233731,0.369232,2.70582,0.227874,-0.0471314,0.806766,0.0215975,0.178144,0.315971
-0.0301071,0.372463,2.72204,0.126039,-0.0200267,0.689465,0.00116778,0.14365,0.368329
-0.0340331,0.372875,2.73546,-0.0570379,0.111921,0.570878,0.0131947,0.1164,0.395207
-0.0350634,0.369219,2.74673,-0.285701,0.162441,0.507199,0.0294741,0.117601,0.420897
-0.0362785,0.361087,2.75691,-0.480498,0.0577729,0.474493,0.0610617,0.10059,0.412193
-0.0401667,0.35049,2.7661,-0.522918,-0.12607,0.429171,0.0926615,0.0682878,0.332933
-0.0465473,0.340103,2.77478,-0.491513,-0.195483,0.451723,0.135845,0.0667386,0.231189
-0.0528497,0.329483,2.78476,-0.539191,-0.0700111,0.554448,0.154049,0.0755833,0.174274
-0.0559699,0.317235,2.79675,-0.62345,0.130944,0.639699,0.130176,0.058645,0.12702
-0.0556572,0.303709,2.80953,-0.648198,0.27211,0.635442,0.0885592,0.000797778,0.0841345
-0.0533544,0.290326,2.8213,-0.628353,0.286997,0.562871,0.0537676,-0.0439202,0.065979
-0.050678,0.277771,2.83192,-0.56984,0.291787,0.534546,0.0517206,-0.0648224,0.0408177
-0.047569,0.266762,2.8427,-0.471608,0.298257,0.573124,0.0475018,-0.0672319,0.0174019
-0.0448409,0.258568,2.85489,-0.282966,0.30912,0.643874,0.0397499,-0.0793104,-0.0179793
-0.0419772,0.254523,2.86849,-0.0746355,0.293337,0.684703,-0.00232537,-0.0923017,-0.0344881
-0.0412083,0.253745,2.88261,0.0329516,0.11253,0.68582,-0.05697,-0.0860355,-0.043173
-0.0440262,0.253948,2.89628,0.0286076,0.00696241,0.626914,-0.0730307,-0.131829,-0.125814
-0.0454634,0.252922,2.90813,-0.112792,0.168929,0.532078,-0.0348403,-0.17422,-0.224496
-0.0429848,0.246819,2.91854,-0.498095,0.300432,0.527643,0.0277228,-0.186557,-0.261517
-0.0402164,0.231184,2.92946,-1.02891,0.217765,0.601866,0.0766878,-0.205486,-0.327043
-0.0393207,0.206603,2.94099,-1.31776,0.169147,0.618269,0.0846019,-0.257769,-0.528676
-0.0360144,0.181477,2.953,-1.10767,0.417128,0.682154,0.106247,-0.28369,-0.809738
-0.0279126,0.163052,2.96819,-0.681747,0.625822,0.889343,0.103055,-0.226387,-0.900336
-0.0190827,0.153202,2.98754,-0.274545,0.499674,1.0254,0.0566541,-0.205245,-0.823813
-0.0138928,0.151092,3.00827,0.0896895,0.346656,1.01557,0.0177013,-0.210567,-0.70587
-0.0107594,0.155239,3.02746,0.338571,0.284292,0.871408,-0.0103968,-0.180238,-0.577527
-0.0107594,0.155239,3.02746,0.338571,0.284292,0.871408,-0.0103968,-0.180238,-0.577527
-0.00474284,0.164892,3.04388,0.659684,0.639253,0.764144,-0.00139451,-0.089043,-0.495829
0.00932588,0.181445,3.05918,0.995283,1.00028,0.778331,0.0281961,0.0510719,-0.346567
0.0262695,0.204484,3.07635,1.26123,0.935653,0.967984,0.118843,0.124525,-0.148232
0.0360934,0.231521,3.09737,1.35092,0.476656,1.16725,0.170261,0.14114,0.00883263
0.0343625,0.258103,3.12169,1.18797,-0.0583129,1.26605,0.183839,0.128095,0.0822262
0.0225622,0.279057,-3.137,0.839939,-0.421596,1.12748,0.13209,0.0827765,0.0533409
0.00710666,0.293992,-3.11698,0.679831,-0.527111,0.809814,0.100574,0.0304065,-0.0977848
-0.00570691,0.308425,-3.10296,0.786314,-0.281655,0.566336,0.117086,0.0989223,-0.259971
-0.0109379,0.325108,-3.09113,0.878725,0.126441,0.591553,0.162998,0.228392,-0.267193
-0.00977047,0.342348,-3.07622,0.843352,0.437976,0.816589,0.220766,0.30152,-0.152711
-0.00752227,0.357717,-3.05647,0.693667,0.430814,1.01523,0.224209,0.31588,0.0302697
-0.00824,0.369458,-3.03382,0.500841,0.305797,1.07703,0.164666,0.299007,0.17416
-0.0105275,0.377433,-3.01169,0.324377,0.286467,0.958978,0.0738732,0.26827,0.25578
-0.0110023,0.382042,-2.99351,0.159028,0.348457,0.724625,0.00859146,0.246977,0.321434
-0.00801701,0.383871,-2.98028,0.0477109,0.4515,0.52246,0.00450378,0.245713,0.375816
-0.00169719,0.384172,-2.97004,-0.00750163,0.565068,0.458559,0.0382251,0.277227,0.432784
0.00623855,0.383747,-2.95928,-0.028835,0.62084,0.564009,0.0713942,0.318001,0.503926
0.0133079,0.383591,-2.94509,0.00994222,0.608608,0.763723,0.0858346,0.331269,0.567641
0.0176004,0.384851,-2.92657,0.0885109,0.499209,0.954432,0.0672908,0.331079,0.619826
0.0164837,0.388107,-2.90438,0.211742,0.195419,1.11276,0.0597093,0.328785,0.6383
0.00827863,0.394753,-2.87878,0.414211,0.0178138,1.27531,0.0941038,0.322981,0.574427
-0.00117872,0.403981,-2.84935,0.455466,0.201143,1.4448,0.0957494,0.349549,0.539254
-0.00834481,0.411357,-2.81662,0.274533,0.385771,1.54717,0.0604745,0.338086,0.510114
-0.0118578,0.414049,-2.78301,0.0268611,0.606168,1.5142,0.022559,0.231025,0.420043
-0.0111528,0.411668,-2.75237,-0.223861,0.675661,1.26758,-0.037234,0.0704575,0.259675
-0.00732792,0.404364,-2.72861,-0.504431,0.631275,0.931676,-0.0282515,-0.0996539,0.123186
-0.00323975,0.39071,-2.71206,-0.858297,0.400844,0.6145,-0.00461853,-0.229003,-0.0315275
-0.00176084,0.371124,-2.70137,-1.08148,0.158305,0.412159,0.00331944,-0.314232,-0.284237
-0.00321352,0.348336,-2.69323,-1.17609,-0.0147037,0.383961,-0.0128639,-0.325917,-0.533162
-0.00771772,0.325971,-2.68428,-1.00724,-0.13088,0.487319,-0.0362373,-0.353126,-0.769653
-0.0125133,0.310375,-2.67289,-0.524953,0.0681674,0.603243,-0.0906087,-0.375172,-0.948536
-0.0104256,0.304275,-2.6599,-0.124491,0.535368,0.632831,-0.147738,-0.399571,-0.911756
-0.00123265,0.302812,-2.64751,-0.0576809,0.714362,0.535538,-0.193266,-0.423336,-0.678083
0.0101514,0.301176,-2.63826,-0.121314,0.662699,0.333053,-0.192357,-0.441089,-0.478243
0.0194263,0.297953,-2.63428,-0.20245,0.35687,0.039504,-0.175521,-0.391418,-0.339087
0.0231493,0.293485,-2.63599,-0.227223,-0.0118715,-0.190699,-0.131563,-0.297441,-0.267365
0.021983,0.2898,-2.64092,-0.098353,-0.23996,-0.273808,-0.0992354,-0.14617,-0.245269
0.0170468,0.290725,-2.64666,0.219785,-0.392823,-0.277775,-0.0568885,0.00510728,-0.22826
0.0120059,0.297831,-2.65293,0.474684,-0.236836,-0.324045,-0.0453363,0.104925,-0.20837
0.0133172,0.308722,-2.66087,0.617726,0.148412,-0.429871,-0.102073,0.211984,-0.158721
0.023118,0.322113,-2.67155,0.727702,0.448451,-0.561258,-0.166458,0.33006,-0.0758851
0.035866,0.336175,-2.68487,0.679344,0.334173,-0.656757,-0.18563,0.425094,0.0475574
0.0423613,0.346737,-2.70012,0.412658,-0.24061,-0.745296,-0.185123,0.448306,0.148292
0.0371412,0.350773,-2.71759,0.0572857,-0.845483,-0.895644,-0.181936,0.40736,0.124083
0.0236957,0.348282,-2.73848,-0.222709,-1.14583,-1.07296,-0.203866,0.375967,-0.0101783
0.00935608,0.342195,-2.76243,-0.323126,-1.05045,-1.1854,-0.21412,0.370651,-0.152152
0.000264881,0.335545,-2.78776,-0.328659,-0.686758,-1.20695,-0.194098,0.346832,-0.212477
-0.00126666,0.329065,-2.81317,-0.320919,-0.32415,-1.20087,-0.156776,0.284493,-0.177145
0.00206345,0.323234,-2.8384,-0.256617,-0.186597,-1.19609,-0.112674,0.208412,-0.0879063
0.0064315,0.319181,-2.86328,-0.136692,-0.169264,-1.16864,-0.0764954,0.14817,0.00240594
0.0106123,0.31752,-2.88687,-0.0235921,-0.146056,-1.07694,-0.0592454,0.135499,0.109459
0.0143231,0.317238,-2.90831,0.0126188,-0.171096,-0.975058,-0.0575837,0.123024,0.253684
0.0157947,0.317384,-2.92825,0.039212,-0.310496,-0.940689,-0.0597745,0.0877474,0.373627
0.0142438,0.318274,-2.94823,0.0715841,-0.473305,-0.9657,-0.0709162,0.0739754,0.47942
0.0142438,0.318274,-2.94823,0.0715841,-0.473305,-0.9657,-0.0709162,0.0739754,0.47942
0.00964622,0.319703,-2.96868,0.102339,-0.632127,-0.97096,-0.0615865,0.0944359,0.563695
0.00237734,0.322274,-2.98888,0.171562,-0.717459,-0.949103,-0.0395779,0.121946,0.620009
-0.00554341,0.326473,-3.00885,0.239928,-0.701489,-0.960815,-0.0348037,0.145,0.660223
-0.0118148,0.331344,-3.02992,0.200505,-0.594313,-1.05723,-0.0453467,0.160595,0.702498
-0.0146992,0.333927,-3.05352,0.00746826,-0.476657,-1.18049,-0.0310198,0.171903,0.739002
-0.014818,0.332049,-3.07957,-0.226288,-0.391736,-1.28008,0.00293023,0.173301,0.722632
-0.0134659,0.326255,-3.10722,-0.371661,-0.395876,-1.31915,0.0687092,0.182253,0.65775
-0.0136188,0.318481,-3.13432,-0.443679,-0.473931,-1.22932,0.141809,0.195265,0.541146
-0.0161716,0.309352,3.12441,-0.480741,-0.535491,-1.08572,0.160881,0.191191,0.393767
-0.0200852,0.301616,3.10308,-0.303336,-0.467027,-0.948442,0.148526,0.142202,0.192305
-0.0219046,0.29802,3.08397,-0.125348,-0.287893,-0.889013,0.132479,0.06113,0.0644551
-0.0205257,0.295832,3.06492,-0.170365,-0.114883,-0.942054,0.127283,-0.0535109,-0.0287643
-0.0145384,0.290343,3.04515,-0.456913,0.111009,-0.914455,0.180555,-0.15894,-0.0900514
-0.00605396,0.277403,3.02805,-0.837154,0.280995,-0.698059,0.241144,-0.225531,-0.200906
0.00475337,0.259258,3.01633,-0.91746,0.459348,-0.445888,0.212355,-0.307602,-0.430067
0.0162777,0.24316,3.00886,-0.668354,0.484387,-0.31725,0.12739,-0.417997,-0.638143
0.0243967,0.232269,3.00327,-0.438913,0.134349,-0.25484,0.107273,-0.527717,-0.705747
0.0241095,0.224192,2.99867,-0.408525,-0.24392,-0.223364,0.139338,-0.617297,-0.733286
0.0188086,0.214031,2.99432,-0.625527,-0.298343,-0.219493,0.136605,-0.650178,-0.795665
0.0169268,0.199446,2.9905,-0.796007,0.0770518,-0.169977,0.13203,-0.628244,-0.908025
0.0237726,0.18513,2.98844,-0.575582,0.535854,-0.0486999,0.146603,-0.555169,-0.988892
0.0359385,0.177929,2.99,-0.148434,0.612033,0.20733,0.186041,-0.429575,-0.855535
0.0422374,0.179245,2.99799,0.240186,0.0991568,0.602421,0.242494,-0.311459,-0.584587
0.035022,0.187841,3.01347,0.533199,-0.498916,0.919927,0.204813,-0.191817,-0.359913
0.0189856,0.200585,3.03297,0.678905,-0.645999,0.995183,0.0843778,-0.11785,-0.229012
0.00557062,0.215659,3.05196,0.81959,-0.247867,0.866673,0.014578,-0.0446756,-0.160356
0.00301812,0.233914,3.06826,1.01324,0.362113,0.761946,0.0129332,0.0752776,-0.0735635
0.0108999,0.255755,3.08434,1.14287,0.749108,0.84287,0.0855395,0.195069,0.0877612
0.0204438,0.278788,3.10311,1.12297,0.631589,1.01114,0.146698,0.237211,0.229164
0.0216571,0.300793,3.12508,1.03097,0.0860512,1.13223,0.187615,0.207869,0.279798
0.011043,0.320691,-3.13465,0.917532,-0.394888,1.10664,0.161761,0.168006,0.209427
-0.00565962,0.337346,-3.11387,0.736347,-0.547711,0.84227,0.0687409,0.141347,0.0774562
-0.0198895,0.350014,-3.09965,0.561351,-0.349291,0.484257,0.0593775,0.116532,-0.0532037
-0.0256049,0.35995,-3.09221,0.462642,0.0566485,0.222674,0.118459,0.148309,-0.143769
-0.0213472,0.368319,-3.08818,0.381636,0.491378,0.172777,0.190614,0.227281,-0.120486
-0.0114228,0.37495,-3.08283,0.298616,0.659353,0.343733,0.278283,0.278305,-0.0196234
-0.00201041,0.380231,-3.07287,0.237064,0.631507,0.570928,0.307897,0.288707,0.0925478
0.00419064,0.383857,-3.05897,0.108931,0.503364,0.699274,0.275289,0.270846,0.201038
0.0066259,0.383879,-3.04355,-0.120515,0.303253,0.724234,0.230078,0.229409,0.279616
0.00516729,0.379913,-3.02795,-0.266905,0.174029,0.725565,0.217629,0.206441,0.285237
0.00286934,0.374121,-3.01219,-0.30877,0.174373,0.750115,0.216812,0.2089,0.280389
0.00117135,0.368145,-2.9955,-0.288921,0.285648,0.81558,0.219015,0.212806,0.282788
0.00182808,0.362623,-2.97696,-0.269491,0.442334,0.927805,0.218353,0.215018,0.321427
0.00425389,0.357223,-2.9556,-0.287879,0.53396,1.07658,0.215192,0.222889,0.377705
0.0066346,0.35122,-2.93121,-0.328068,0.549068,1.21021,0.214672,0.20554,0.41545
0.00759647,0.344514,-2.90422,-0.3488,0.433631,1.33184,0.217063,0.18242,0.437535
0.00428322,0.339155,-2.87462,-0.173607,0.219427,1.46885,0.236622,0.166766,0.365254
-0.00227927,0.339153,-2.84221,0.164811,0.266135,1.58209,0.212004,0.192201,0.266963
-0.0063223,0.344453,-2.80789,0.343343,0.472473,1.66049,0.177689,0.211293,0.237674
-0.00720911,0.350909,-2.77214,0.301712,0.651733,1.68836,0.143595,0.183397,0.261164
-0.00517963,0.355764,-2.73721,0.211899,0.750485,1.57872,0.118304,0.119974,0.254919
-0.00157948,0.359082,-2.70564,0.129358,0.677895,1.37909,0.0897509,0.0502214,0.21428
8.97858e-05,0.361444,-2.67845,0.124395,0.453278,1.17591,0.112541,-0.00803849,0.128273
-0.000614056,0.364806,-2.65528,0.217649,0.335787,1.00933,0.1224,-0.0124187,0.0262035
-0.000614056,0.364806,-2.65528,0.217649,0.335787,1.00933,0.1224,-0.0124187,0.0262035
0.000333609,0.369815,-2.63468,0.26808,0.544722,0.930807,0.161829,-0.0148844,-0.0394534
0.00803951,0.374422,-2.61527,0.158346,0.935243,0.879076,0.192606,-0.0528753,-0.0281883
0.0225489,0.375633,-2.59727,-0.0663015,1.1387,0.797264,0.172308,-0.10314,0.0122536
0.0390138,0.373091,-2.5811,-0.209852,1.04206,0.701422,0.151042,-0.175391,-0.00968891
0.0503308,0.370008,-2.56729,-0.112439,0.545515,0.564881,0.145081,-0.230189,-0.103478
0.0540548,0.371535,-2.55698,0.232139,0.30263,0.401537,0.107266,-0.224997,-0.260233
0.0599,0.378985,-2.55086,0.420318,0.560412,0.215956,0.0730001,-0.188876,-0.308709
0.0744419,0.386069,-2.54807,0.227613,0.986519,0.107025,0.0857641,-0.180701,-0.225644
0.0955967,0.387594,-2.54625,-0.0967776,1.1427,0.0663327,0.0954672,-0.188368,-0.148612
0.11669,0.382551,-2.5462,-0.404211,0.917539,-0.155352,0.0043714,-0.188357,-0.12495
0.132872,0.371898,-2.55231,-0.563175,0.468474,-0.545222,-0.08276,-0.177021,-0.164585
0.142804,0.359503,-2.56446,-0.50538,0.107987,-0.67969,-0.0130273,-0.07382,-0.260499
0.146828,0.349693,-2.57511,-0.293988,-0.00387945,-0.395473,0.101064,0.0659375,-0.34033
0.149701,0.347297,-2.57728,0.0988389,0.261978,0.185161,0.151464,0.199336,-0.392364
0.155657,0.354765,-2.56779,0.492102,0.636855,0.790078,0.0889848,0.294957,-0.342393
0.162865,0.370481,-2.54904,0.757212,0.676943,1.15013,-0.0580816,0.303226,-0.172315
0.164996,0.390492,-2.52611,0.83447,0.345682,1.25781,-0.183501,0.258833,0.00656915
0.157918,0.409938,-2.50236,0.717751,-0.118178,1.19281,-0.281607,0.230401,0.11249
0.144625,0.425819,-2.48112,0.565057,-0.288214,0.951361,-0.349986,0.223263,0.130746
0.133484,0.437958,-2.46564,0.446341,-0.141148,0.615462,-0.36717,0.218952,0.136256
0.130118,0.446602,-2.45631,0.278693,0.216374,0.352318,-0.306615,0.216403,0.194924
0.135075,0.450376,-2.45092,0.0127053,0.454129,0.202875,-0.230092,0.212663,0.304223
0.14114,0.448609,-2.44646,-0.238688,0.275086,0.179168,-0.142759,0.197277,0.390413
0.139376,0.442831,-2.44127,-0.380319,-0.234898,0.200074,-0.0627045,0.163057,0.390386
0.128066,0.435268,-2.4354,-0.438247,-0.614648,0.228689,-0.00335014,0.146232,0.334329
0.112112,0.426996,-2.42835,-0.467179,-0.599329,0.316827,0.0528917,0.13916,0.242726
0.100005,0.41785,-2.41927,-0.550466,-0.240575,0.411946,0.072768,0.13802,0.208881
0.093525,0.406481,-2.40839,-0.681898,-0.0124438,0.472083,0.107733,0.0904782,0.235533
0.0874868,0.392993,-2.39616,-0.743186,-0.1752,0.530854,0.140614,0.0215661,0.269981
0.0759621,0.379955,-2.38266,-0.644547,-0.468428,0.618042,0.195515,-0.0229504,0.251626
0.0588656,0.368969,-2.36722,-0.574718,-0.639165,0.74942,0.237944,-0.0350364,0.2389
0.0402092,0.357491,-2.34901,-0.683993,-0.555316,0.897194,0.272051,-0.0717973,0.225159
0.0240626,0.342846,-2.32816,-0.836063,-0.338603,1.00462,0.294448,-0.118299,0.181519
0.0117506,0.3265,-2.30615,-0.802108,-0.182112,1.04504,0.301279,-0.166284,0.100502
0.00185303,0.312603,-2.28367,-0.590002,-0.114875,1.09139,0.311881,-0.198415,0.0308499
-0.00597904,0.302707,-2.26045,-0.440627,0.0641649,1.11947,0.349137,-0.228537,0.0139186
-0.00899994,0.293257,-2.23729,-0.503157,0.327375,1.11135,0.357355,-0.263892,0.00919443
-0.00638685,0.282344,-2.21426,-0.57093,0.558723,1.11798,0.379654,-0.287662,-0.0374629
-0.00199163,0.271482,-2.19022,-0.474998,0.500052,1.22978,0.42889,-0.277831,-0.117102
-6.69083e-05,0.264538,-2.16287,-0.208224,0.448067,1.41526,0.459919,-0.24879,-0.236737
0.00330918,0.262689,-2.13198,-0.00821424,0.748606,1.56833,0.431192,-0.22842,-0.339303
0.0126332,0.263261,-2.09852,0.0249297,1.01047,1.66372,0.415888,-0.249703,-0.362594
0.0230982,0.264411,-2.06383,0.0260043,0.877199,1.68767,0.399749,-0.281521,-0.394828
0.0268742,0.265346,-2.0292,-0.0206594,0.375087,1.66552,0.393534,-0.251292,-0.433952
0.0209165,0.265433,-1.99488,-0.0488123,-0.0217271,1.65869,0.33524,-0.138094,-0.560562
0.0115665,0.266157,-1.96046,0.0887851,0.0821058,1.69701,0.27946,0.00242057,-0.692075
0.0102277,0.271577,-1.92371,0.427187,0.803667,1.88356,0.244221,0.153718,-0.728062
0.021091,0.283927,-1.88209,0.7364,1.32592,2.16738,0.216556,0.27465,-0.548719
0.0329904,0.302282,-1.83383,0.952408,1.18434,2.52091,0.231939,0.337602,-0.285331
0.0352923,0.324002,-1.77877,1.01104,0.725916,2.77975,0.182142,0.368259,-0.0731443
0.0259351,0.345307,-1.71985,0.930155,0.315733,2.83355,0.107663,0.347,0.0402035
0.00980072,0.363337,-1.66064,0.769989,0.163056,2.75792,0.0604499,0.328204,0.0743501
-0.00744789,0.377276,-1.6029,0.628284,0.224883,2.64461,0.0322384,0.351254,0.0691264
-0.0228858,0.388392,-1.54651,0.582169,0.330979,2.60071,0.0398104,0.387215,0.0688469
-0.0228858,0.388392,-1.54651,0.582169,0.330979,2.60071,0.0398104,0.387215,0.0688469
-0.0378891,0.398631,-1.48974,0.606941,0.322238,2.63475,0.0646952,0.418705,0.105624
-0.0551766,0.408681,-1.43159,0.644236,0.228232,2.66892,0.0693142,0.424713,0.162511
-0.0754908,0.418109,-1.37308,0.632173,0.0910583,2.61756,0.0447373,0.401181,0.218873
-0.097763,0.42559,-1.31649,0.535206,0.011056,2.46765,0.0137508,0.368623,0.256712
-0.119623,0.429868,-1.26393,0.407843,0.000912709,2.24688,-0.000405684,0.332629,0.258451
-0.139125,0.431397,-1.21658,0.301231,0.018826,2.0127,0.00747129,0.315707,0.247476
-0.156008,0.430878,-1.17455,0.21282,0.0631129,1.78806,0.0292515,0.308523,0.242093
-0.169614,0.428707,-1.13735,0.13078,0.118034,1.59183,0.0672984,0.302216,0.238326
-0.180108,0.425831,-1.10472,0.110539,0.195288,1.39419,0.0853033,0.288429,0.216109
-0.187435,0.423039,-1.07621,0.0834543,0.238159,1.22352,0.108161,0.262935,0.19687
-0.192507,0.419395,-1.05128,-0.0290041,0.257575,1.09772,0.120311,0.246197,0.187861
-0.196771,0.412684,-1.02928,-0.246818,0.202526,1.00862,0.0986767,0.218986,0.157755
-0.199935,0.402187,-1.01127,-0.452003,0.223431,0.800043,0.0169566,0.154859,0.0446985
-0.197653,0.389126,-1.00005,-0.620954,0.460235,0.461078,-0.0902385,0.0990762,-0.0876007
-0.186993,0.374647,-0.997195,-0.739366,0.71047,0.0803891,-0.159159,0.0311662,-0.190139
-0.168903,0.359914,-1.00162,-0.776616,0.942441,-0.198048,-0.172687,-0.0335633,-0.248183
-0.144716,0.345409,-1.01023,-0.795306,1.18053,-0.380029,-0.209673,-0.0797382,-0.269567
-0.115447,0.330117,-1.02312,-0.89539,1.30786,-0.645726,-0.257774,-0.117191,-0.247991
-0.0837607,0.312249,-1.04232,-1.07731,1.21062,-1.00596,-0.281238,-0.173132,-0.21879
-0.0546854,0.290926,-1.0688,-1.20584,0.905078,-1.36625,-0.279533,-0.199443,-0.243984
-0.0306626,0.269146,-1.10015,-1.04396,0.663972,-1.50428,-0.21451,-0.177009,-0.377809
-0.010332,0.253249,-1.13006,-0.582738,0.621123,-1.32827,-0.139641,-0.0789475,-0.482693
0.00797256,0.246844,-1.15439,-0.0836822,0.621263,-1.01596,-0.102091,0.0165466,-0.460579
0.0237897,0.248636,-1.1715,0.242135,0.490886,-0.643084,-0.0877532,0.0840029,-0.316212
0.0323673,0.254675,-1.18145,0.359691,0.101245,-0.320899,-0.110755,0.115182,-0.148973
0.0314013,0.262032,-1.18611,0.385406,-0.29349,-0.132776,-0.157308,0.106029,-0.0470159
0.0241074,0.26987,-1.18889,0.407478,-0.485485,-0.144561,-0.230004,0.0869491,-0.011328
0.0150725,0.27828,-1.19352,0.44004,-0.521812,-0.30171,-0.270367,0.0726456,0.0225468
0.00812766,0.286897,-1.20223,0.417125,-0.400643,-0.525813,-0.259962,0.0735811,0.0797309
0.00566433,0.294327,-1.21518,0.329217,-0.223605,-0.701388,-0.196033,0.095317,0.167844
0.00748076,0.300234,-1.23082,0.275203,-0.0744529,-0.781491,-0.118322,0.119108,0.256418
0.0105167,0.305278,-1.24718,0.235902,-0.141217,-0.768389,-0.0468039,0.135748,0.347784
0.0100506,0.30941,-1.26256,0.189161,-0.389971,-0.69162,0.0178165,0.132012,0.415737
0.00378756,0.312324,-1.27668,0.0986099,-0.653969,-0.661833,0.0564696,0.0984998,0.431947
-0.00563713,0.312911,-1.29083,-0.0515459,-0.689076,-0.697455,0.0796279,0.0619493,0.405452
-0.0140025,0.310295,-1.3061,-0.218968,-0.595632,-0.749653,0.11453,0.0272026,0.344683
-0.0196734,0.30505,-1.32187,-0.319492,-0.469394,-0.736563,0.171413,-0.00121874,0.275837
-0.0242407,0.298996,-1.33626,-0.298521,-0.41944,-0.610257,0.24765,-0.0308481,0.195571
-0.0287832,0.294063,-1.3473,-0.233653,-0.358499,-0.439189,0.295351,-0.0598116,0.124982
-0.0333826,0.289464,-1.35518,-0.258895,-0.318632,-0.309534,0.316442,-0.0994488,0.0814744
-0.037492,0.283894,-1.36065,-0.310093,-0.252439,-0.200578,0.347598,-0.150095,0.00650817
-0.0408205,0.277788,-1.36367,-0.300543,-0.152147,-0.0554159,0.389144,-0.162736,-0.0977764
-0.0422241,0.272638,-1.36267,-0.200844,0.0592747,0.181241,0.426669,-0.153518,-0.211516
-0.0402963,0.269362,-1.35645,-0.116104,0.277496,0.437345,0.440261,-0.148388,-0.277702
-0.0365768,0.266999,-1.34488,-0.0795605,0.395843,0.688465,0.448206,-0.169298,-0.312506
-0.0318214,0.265341,-1.32823,-0.0273895,0.510233,0.921652,0.440905,-0.198394,-0.351297
-0.0267134,0.265141,-1.30717,0.0718182,0.539707,1.10853,0.416463,-0.211114,-0.389506
-0.0219998,0.267005,-1.28298,0.15639,0.585602,1.21044,0.336145,-0.184155,-0.408394
-0.0157598,0.269874,-1.25764,0.163779,0.728419,1.23373,0.278556,-0.156577,-0.387328
-0.00626638,0.273018,-1.23134,0.183317,0.929814,1.32825,0.28057,-0.0936421,-0.326532
0.00653189,0.277406,-1.20205,0.254407,1.12921,1.50938,0.284917,-0.0125913,-0.209196
0.0203127,0.283125,-1.16855,0.254612,1.15342,1.73552,0.290907,0.04248,-0.0395226
0.030894,0.28835,-1.12989,0.162903,0.963009,2.00519,0.301914,0.0724263,0.108297
0.0337261,0.292307,-1.08533,0.0992753,0.580734,2.29594,0.313322,0.101853,0.168402
0.0337261,0.292307,-1.08533,0.0992753,0.580734,2.29594,0.313322,0.101853,0.168402
0.0262487,0.295378,-1.03458,0.0485713,0.137023,2.57512,0.301566,0.129816,0.159503
0.00950582,0.296873,-0.978569,-0.00876831,-0.151021,2.79479,0.280293,0.143987,0.0744075
-0.0121411,0.296446,-0.91908,-0.0432187,-0.268318,2.89903,0.225494,0.164957,-0.0441781
-0.0355834,0.294492,-0.858169,-0.0113843,-0.274555,2.9574,0.208758,0.169618,-0.164338
-0.0568671,0.293231,-0.795914,0.172904,-0.0320434,3.0246,0.220731,0.173797,-0.275159
-0.0729593,0.295596,-0.731965,0.463777,0.251216,3.0879,0.207398,0.196415,-0.295428
-0.0864987,0.302467,-0.666108,0.70299,0.284891,3.14072,0.19836,0.204553,-0.18637
-0.102665,0.31202,-0.599194,0.84299,0.10623,3.11664,0.174807,0.184774,-0.0525939
-0.122921,0.322817,-0.533551,0.919065,-0.0781004,2.95579,0.134802,0.158365,0.0408909
-0.145479,0.333474,-0.472015,0.906367,-0.167425,2.67904,0.0937061,0.134105,0.102242
-0.166469,0.343203,-0.416896,0.864049,-0.0910632,2.31357,0.0823228,0.0971406,0.127562
-0.18364,0.352529,-0.369292,0.832109,0.00178764,1.95333,0.128914,0.0775417,0.137368
-0.196311,0.362101,-0.328164,0.83547,0.161563,1.68959,0.194505,0.0917887,0.117754
-0.205686,0.372642,-0.290636,0.907527,0.223712,1.56035,0.245687,0.141345,0.105813
-0.215532,0.384797,-0.254122,0.986571,0.117915,1.52795,0.292192,0.1787,0.108478
-0.228657,0.397968,-0.216675,1.06968,0.00733285,1.56742,0.306307,0.191516,0.0879046
-0.243516,0.412394,-0.178512,1.14809,0.0543193,1.47745,0.259202,0.176301,0.0582773
-0.253889,0.427221,-0.144307,1.01671,0.319854,1.15984,0.175418,0.126136,0.0719392
-0.254942,0.438513,-0.119777,0.612867,0.591278,0.707258,0.115077,0.0952323,0.111655
-0.246665,0.443756,-0.107428,0.192932,0.748611,0.261226,0.121157,0.0759562,0.0883796
-0.232008,0.444094,-0.104563,-0.0744146,0.837601,0.026172,0.179736,0.115934,0.0132053
-0.214333,0.44118,-0.104715,-0.19674,0.938349,0.0615017,0.230004,0.180989,-0.0655387
-0.195296,0.436249,-0.102665,-0.244415,1.05177,0.233834,0.229807,0.200253,-0.112122
-0.175678,0.429685,-0.0971605,-0.3255,1.15496,0.35262,0.167616,0.153279,-0.135993
-0.154407,0.420287,-0.091992,-0.554606,1.16039,0.23641,0.0352765,0.0854512,-0.125813
-0.13305,0.405685,-0.0912151,-0.883331,1.01119,0.0392904,-0.0391965,0.0128578,-0.142709
-0.112596,0.385801,-0.0952402,-1.10137,0.91605,-0.160336,-0.0994982,-0.0258745,-0.23739
-0.0904137,0.364842,-0.102213,-1.00983,1.083,-0.24127,-0.114719,-0.00623587,-0.382074
-0.0643593,0.348379,-0.107861,-0.644628,1.33105,-0.13559,-0.122853,0.0399834,-0.468269
-0.0359138,0.340234,-0.109011,-0.201724,1.41166,0.06679,-0.127468,0.08563,-0.421716
-0.0118112,0.338635,-0.105721,-0.00539164,1.06951,0.248871,-0.137404,0.119035,-0.255374
0.00302343,0.338783,-0.0984163,0.00515381,0.674271,0.437388,-0.169874,0.154376,-0.12705
0.00999362,0.338805,-0.0878148,-0.00816667,0.401438,0.556522,-0.210277,0.180566,-0.0730841
0.0122922,0.339039,-0.0755129,0.0256813,0.257665,0.590388,-0.248073,0.168686,-0.0542498
0.013281,0.340492,-0.0637202,0.103528,0.243878,0.506784,-0.277884,0.130948,-0.0200171
0.0152749,0.343044,-0.0547766,0.122738,0.26171,0.332768,-0.269557,0.0892539,0.0499629
0.0189217,0.34518,-0.0496307,0.0699434,0.269857,0.16214,-0.224576,0.0636466,0.138615
0.0228564,0.345866,-0.0474503,-0.0155162,0.180539,0.058854,-0.147539,0.0586155,0.215927
0.0241428,0.344718,-0.0466159,-0.0990926,-0.0433301,0.0229172,-0.0807799,0.0584822,0.257516
0.0210371,0.342281,-0.0462948,-0.135937,-0.235538,0.00236867,-0.020151,0.0426524,0.233028
0.0158047,0.339548,-0.0466603,-0.131441,-0.260142,-0.0474514,0.00664371,0.0263589,0.170403
0.0129524,0.336706,-0.0485128,-0.168443,-0.0812025,-0.136835,0.0142798,0.0161248,0.143888
0.0139045,0.332147,-0.0522849,-0.286039,0.0477999,-0.225787,0.0358976,-0.00115103,0.160112
0.017401,0.325523,-0.0576119,-0.368856,0.106953,-0.285918,0.0739831,-0.0193832,0.171614
0.0212102,0.317206,-0.0640136,-0.452444,0.0606891,-0.332731,0.0933138,-0.0303877,0.178687
0.0232962,0.307442,-0.0709452,-0.498723,-0.0606886,-0.342381,0.113617,-0.0425473,0.15082
0.023874,0.297774,-0.0773361,-0.442559,-0.0557929,-0.283672,0.134299,-0.0379827,0.0836036
0.0247221,0.28988,-0.0818779,-0.327446,0.0324676,-0.162933,0.145257,-0.0226953,0.0345539
0.028021,0.285192,-0.0833697,-0.133064,0.24646,0.00409597,0.144638,-0.0162353,-0.00274414
0.0331738,0.284426,-0.0819009,0.0404478,0.297134,0.129301,0.128611,-0.0337396,0.0198722
0.037967,0.286349,-0.0779256,0.116231,0.286585,0.254701,0.116801,-0.0663341,0.073077
0.0415619,0.288776,-0.0716939,0.0977066,0.246049,0.350994,0.0962179,-0.0925401,0.114198
0.043524,0.291075,-0.0637827,0.104673,0.169781,0.414937,0.0823739,-0.134282,0.0767492
0.043524,0.291075,-0.0637827,0.104673,0.169781,0.414937,0.0823739,-0.134282,0.0767492
0.0422417,0.293783,-0.0549101,0.116927,-0.0616584,0.441408,0.0661933,-0.184867,-0.00718415
0.0358708,0.295742,-0.0457471,0.015252,-0.274962,0.444325,0.0777239,-0.240945,-0.122642
0.0271721,0.293614,-0.0366575,-0.277503,-0.322131,0.42102,0.0705516,-0.251542,-0.244596
0.0184099,0.285437,-0.0275844,-0.541138,-0.303738,0.442243,0.0882014,-0.253259,-0.439947
0.0100284,0.27299,-0.0181759,-0.727505,-0.268056,0.424917,0.0846882,-0.281322,-0.607484
0.00319538,0.256106,-0.0105839,-0.976227,-0.18695,0.287566,0.0595157,-0.342663,-0.734525
0.00153791,0.235531,-0.00629752,-1.03895,0.153971,0.125309,0.034851,-0.355661,-0.889793
0.00851296,0.217021,-0.00441154,-0.767904,0.561032,0.088911,0.0411101,-0.281322,-0.966684
0.0208957,0.206613,-0.000742431,-0.274724,0.697966,0.270138,0.0781068,-0.14396,-0.835951
0.0315208,0.206298,0.00698947,0.214689,0.506978,0.485652,0.0714323,-0.0272946,-0.581611
0.0380731,0.21497,0.0178188,0.597585,0.422308,0.573431,0.0130137,0.0408938,-0.360578
0.0463401,0.229926,0.0281505,0.825553,0.676858,0.482994,-0.0508264,0.0929568,-0.169986
0.0615932,0.246879,0.0359471,0.794671,1.01061,0.390234,-0.0409959,0.141351,0.0174018
0.079874,0.261907,0.0432878,0.652123,0.907459,0.450011,0.017338,0.185025,0.171009
0.0900798,0.274323,0.0530152,0.518748,0.319005,0.596645,0.0795128,0.191259,0.215161
0.0857377,0.285084,0.0655649,0.472383,-0.380607,0.687189,0.109581,0.16106,0.12811
0.0712331,0.295927,0.0783907,0.523923,-0.612778,0.607549,0.0667476,0.153138,-0.0397137
0.058033,0.307663,0.0888497,0.577598,-0.347729,0.466022,0.0452784,0.181723,-0.168907
0.0532288,0.319319,0.0966626,0.529016,0.109043,0.351747,0.0622483,0.200135,-0.203583
0.0564362,0.329085,0.1031,0.42046,0.368596,0.335067,0.109493,0.218715,-0.161613
0.0614838,0.337338,0.110714,0.380217,0.361278,0.449912,0.163774,0.239896,-0.113198
0.0642764,0.345956,0.12145,0.422264,0.287617,0.613456,0.173369,0.258102,-0.0572693
0.0655482,0.355523,0.135177,0.439565,0.329921,0.72216,0.114025,0.26698,0.0424767
0.0678546,0.364785,0.150134,0.381735,0.424387,0.723873,0.055006,0.249387,0.170668
0.0716311,0.372163,0.164581,0.250561,0.465001,0.667702,0.0124311,0.230651,0.300431
0.0754286,0.376204,0.178143,0.0570488,0.394134,0.62817,-0.00609174,0.21804,0.41877
0.0768544,0.376628,0.191474,-0.098711,0.234566,0.61874,-0.0105911,0.208424,0.485149
0.0751698,0.374689,0.204872,-0.17595,0.0921494,0.609332,-0.034229,0.201829,0.506546
0.0705716,0.371837,0.217917,-0.183309,-0.0839392,0.580271,-0.0530294,0.187836,0.507437
0.0627043,0.370073,0.229998,-0.0455194,-0.211966,0.529224,-0.0709942,0.182316,0.462085
0.0552857,0.37144,0.240518,0.100607,-0.149654,0.455948,-0.0833344,0.17677,0.43763
0.0498562,0.373962,0.249072,0.0789091,-0.0732628,0.359494,-0.0641068,0.15974,0.449399
0.046655,0.374888,0.256236,-0.0205606,-0.00174201,0.333939,-0.0100127,0.145907,0.445375
0.04488,0.374339,0.263805,-0.0573017,0.12997,0.364509,0.0188804,0.144954,0.384433
0.0463725,0.373552,0.2718,-0.0447784,0.29427,0.370707,-0.00948291,0.127757,0.317747
0.0495081,0.373604,0.279023,0.0230812,0.262439,0.285782,-0.0209581,0.0598586,0.267875
0.0525099,0.374758,0.28359,0.0573716,0.19422,0.150987,0.00938449,-0.0139728,0.215767
0.0546778,0.375681,0.285916,0.00800552,0.109279,0.097796,0.0672639,-0.0528173,0.157963
0.0546599,0.374755,0.289268,-0.124959,0.0149524,0.246302,0.149385,-0.0709826,0.0924003
0.0513512,0.37184,0.297442,-0.169507,-0.0127759,0.498122,0.206864,-0.123135,-0.0636473
0.04786,0.370472,0.310018,-0.00634667,0.120894,0.645441,0.162817,-0.21349,-0.274218
0.0463666,0.37236,0.324021,0.105957,0.226734,0.647847,0.114678,-0.30478,-0.383189
0.0457674,0.374435,0.336891,0.0143521,0.154988,0.558901,0.106665,-0.390311,-0.418252
0.0424987,0.373,0.347784,-0.204219,-0.092886,0.456577,0.115129,-0.429763,-0.45359
0.0359286,0.367559,0.356913,-0.372817,-0.20951,0.376589,0.084322,-0.405203,-0.558072
0.0287482,0.359254,0.364376,-0.462253,-0.212095,0.300647,0.0500714,-0.366289,-0.677371
0.0233715,0.35044,0.370644,-0.422415,-0.101772,0.275976,0.0524986,-0.331799,-0.760742
0.0215348,0.343106,0.376858,-0.336626,0.146302,0.297884,0.0401772,-0.251279,-0.757845
0.0235688,0.336285,0.383178,-0.384054,0.232766,0.268584,-0.0244896,-0.146992,-0.60872
0.0261296,0.327911,0.387563,-0.456596,0.134264,0.0988813,-0.0994416,-0.103364,-0.456285
0.0271053,0.319399,0.387102,-0.35203,-0.0350154,-0.164594,-0.152822,-0.0396418,-0.359152
0.0280742,0.315719,0.38198,0.0223618,0.0168822,-0.30528,-0.131328,0.0821063,-0.288525
0.0327108,0.319974,0.375526,0.404464,0.277626,-0.260964,-0.106744,0.243298,-0.142954
0.0431581,0.330482,0.371529,0.618326,0.616463,-0.0760459,-0.109398,0.343252,0.0635967
0.0431581,0.330482,0.371529,0.618326,0.616463,-0.0760459,-0.109398,0.343252,0.0635967
0.055709,0.342166,0.370509,0.512478,0.522245,0.00747829,-0.147118,0.359103,0.279665
0.0615336,0.349911,0.369744,0.269627,-0.00133072,-0.050859,-0.152709,0.299998,0.375721
0.0552906,0.353389,0.366703,0.107697,-0.741593,-0.24534,-0.144484,0.241053,0.321217
0.0370516,0.353853,0.358671,-0.0179934,-1.28889,-0.503576,-0.185657,0.243197,0.164391
0.0154414,0.352469,0.345235,-0.078065,-1.25365,-0.761267,-0.208644,0.257737,-0.027882
0.00116469,0.350833,0.32686,-0.0645483,-0.758066,-0.949009,-0.182506,0.267097,-0.166093
-0.000205985,0.349807,0.306196,-0.0441764,-0.106142,-0.969906,-0.125264,0.297855,-0.165053
0.0080897,0.348433,0.286825,-0.0923218,0.189915,-0.84145,-0.0658463,0.297603,-0.0358911
0.0166771,0.346475,0.270833,-0.0610837,0.0814259,-0.673729,-0.0312035,0.24115,0.0809021
0.0201691,0.346359,0.25781,0.0768124,-0.170935,-0.573895,-0.0475956,0.193144,0.154886
0.0188915,0.348696,0.245833,0.163269,-0.34762,-0.562621,-0.0882949,0.161833,0.226288
0.0153453,0.351554,0.233236,0.124034,-0.427112,-0.620786,-0.10927,0.132855,0.308464
0.0117429,0.352491,0.21956,-0.0259476,-0.400433,-0.662582,-0.0946694,0.125128,0.392308
0.00922856,0.350086,0.204969,-0.194425,-0.352562,-0.724028,-0.0778825,0.120917,0.437671
0.0086358,0.345072,0.188704,-0.269139,-0.268191,-0.815567,-0.0592436,0.099419,0.415839
0.00999363,0.340185,0.170884,-0.180754,-0.200228,-0.858914,-0.0283569,0.100736,0.370106
0.0119711,0.337764,0.15328,-0.0501185,-0.217879,-0.792903,0.0270661,0.12128,0.377528
0.0117988,0.33726,0.138001,0.00835276,-0.293597,-0.654467,0.0627797,0.136033,0.403438
0.0105998,0.337519,0.12508,0.0267478,-0.244432,-0.585205,0.0672842,0.104905,0.400054
0.0107668,0.337558,0.112485,-0.0278627,-0.156634,-0.613855,0.0558353,0.0657112,0.388
0.0126988,0.335353,0.0993313,-0.180533,-0.0886234,-0.617555,0.0761437,0.0408942,0.367833
0.0156373,0.330001,0.0869598,-0.332002,-0.0414873,-0.566893,0.0892109,0.0237659,0.317722
0.0177998,0.321952,0.0753151,-0.439135,-0.130843,-0.555562,0.0729137,-0.0137657,0.248625
0.0173082,0.313177,0.06416,-0.397939,-0.235598,-0.512392,0.121245,-0.0605395,0.151153
0.0167881,0.306095,0.0541461,-0.309478,-0.0798523,-0.45863,0.12976,-0.0541624,0.0884847
0.0206654,0.299528,0.0451683,-0.358527,0.190144,-0.409023,0.114976,-0.0610409,0.0958665
0.0277292,0.290992,0.0378377,-0.469353,0.250156,-0.310381,0.120672,-0.0911949,0.128078
0.0329169,0.281583,0.0326734,-0.42591,0.128438,-0.218211,0.112199,-0.121767,0.0874769
0.036349,0.274789,0.0290254,-0.236611,0.150749,-0.156377,0.0948289,-0.138553,0.00992715
0.0412446,0.271357,0.0265081,-0.123343,0.264745,-0.0885198,0.0856269,-0.131665,-0.000362992
0.0469861,0.268896,0.0258821,-0.126007,0.264071,0.0252765,0.0886302,-0.127903,0.0134464
0.051648,0.266659,0.0277733,-0.105556,0.265056,0.146352,0.0944561,-0.162928,-0.0590141
0.0557646,0.2646,0.0319391,-0.134414,0.276679,0.239647,0.0911168,-0.209943,-0.154376
0.0603201,0.260884,0.0376447,-0.302714,0.306568,0.289859,0.105071,-0.262481,-0.248821
0.0629175,0.25233,0.0450489,-0.602092,0.103784,0.390943,0.144819,-0.284535,-0.35861
0.0601104,0.238627,0.0552545,-0.806927,-0.099975,0.493855,0.112816,-0.279897,-0.534532
0.0568539,0.22269,0.0664301,-0.836947,0.0864664,0.488378,0.0674589,-0.303926,-0.741052
0.0601867,0.206621,0.0770632,-0.852125,0.47883,0.457317,0.0786412,-0.319779,-0.803896
0.0706436,0.189549,0.0871506,-0.920584,0.744055,0.416722,0.0752258,-0.29605,-0.73673
0.0844697,0.171659,0.0964357,-0.922464,0.750394,0.364239,0.0832373,-0.265325,-0.617759
0.0961969,0.155306,0.105816,-0.766377,0.565276,0.44455,0.126634,-0.190014,-0.500231
0.10386,0.144497,0.118132,-0.401834,0.40749,0.680567,0.138206,-0.0650359,-0.389213
0.109263,0.143479,0.134999,0.12308,0.393277,0.980727,0.105377,0.0602383,-0.250736
0.114435,0.152733,0.15677,0.523336,0.46457,1.26273,0.0890935,0.137873,-0.0555658
0.120626,0.168014,0.182661,0.650147,0.54723,1.43967,0.0842873,0.148761,0.150798
0.125368,0.183622,0.210808,0.539157,0.390379,1.50052,0.0666681,0.132741,0.296624
0.123864,0.196338,0.239883,0.374728,-0.0483559,1.48169,0.0426295,0.10815,0.325477
0.112093,0.206141,0.267437,0.305688,-0.537776,1.29419,-0.00277042,0.0588105,0.20767
0.0941695,0.214602,0.289613,0.310284,-0.764542,0.931054,-0.0367893,0.00237156,0.0366209
0.0755983,0.221916,0.30399,0.310052,-0.777602,0.563344,-0.00265981,-0.0104457,-0.119594
0.0595588,0.229562,0.313071,0.408828,-0.570319,0.406179,0.112952,0.0471767,-0.22254
0.0509085,0.239282,0.32128,0.510473,-0.0793617,0.474896,0.213304,0.114844,-0.245998
0.0520944,0.250071,0.332096,0.498651,0.423913,0.639663,0.248285,0.152364,-0.166682
0.0583774,0.260061,0.346504,0.426241,0.48123,0.804804,0.248778,0.148604,-0.0304959
0.0583774,0.260061,0.346504,0.426241,0.48123,0.804804,0.248778,0.148604,-0.0304959
0.0610667,0.269302,0.363655,0.418563,0.240695,0.895856,0.231851,0.106208,0.0544604
0.0593614,0.278972,0.38186,0.426015,0.113545,0.906125,0.19872,0.0980606,0.0973105
0.0570908,0.287432,0.399979,0.299804,0.20579,0.88536,0.172637,0.102766,0.142258
0.058132,0.292881,0.417964,0.155036,0.419301,0.880088,0.163964,0.104095,0.173389
0.0627911,0.296189,0.436329,0.0802645,0.557461,0.906128,0.170787,0.108573,0.209912
0.0684025,0.298474,0.455781,0.0227329,0.555771,0.979048,0.177364,0.109186,0.277404
0.0720303,0.299726,0.477069,-0.040061,0.431489,1.06758,0.17857,0.106111,0.342527
0.0726849,0.299944,0.500161,-0.0999404,0.320487,1.13374,0.161197,0.0996663,0.381572
0.0712123,0.299082,0.524552,-0.155374,0.268041,1.19209,0.146118,0.105342,0.413925
0.06907,0.297268,0.550383,-0.198013,0.283931,1.26539,0.13999,0.115785,0.43613
0.0664699,0.294789,0.577802,-0.227355,0.251921,1.34502,0.137525,0.12907,0.451073
0.062632,0.291813,0.607072,-0.264687,0.193437,1.44648,0.123695,0.142959,0.461431
0.0562239,0.287811,0.63844,-0.30928,0.059393,1.53548,0.118419,0.134943,0.440278
0.0469313,0.283201,0.671206,-0.312497,-0.0767085,1.57515,0.115782,0.11668,0.399096
0.0346623,0.278497,0.70412,-0.283935,-0.258571,1.57083,0.110677,0.0995722,0.332047
0.0187777,0.274487,0.736601,-0.195763,-0.413966,1.54674,0.114785,0.0828663,0.216942
0.00153205,0.271746,0.768159,-0.11797,-0.455124,1.48831,0.0986676,0.0677452,0.0900117
-0.0147689,0.269653,0.798004,-0.0760123,-0.343628,1.39488,0.102537,0.0393763,-0.031252
-0.0264488,0.267627,0.825762,-0.0746008,-0.0809616,1.29014,0.102332,0.0249421,-0.11487
-0.0320056,0.265537,0.851326,-0.0560049,0.190846,1.18806,0.0991463,0.00783482,-0.180425
-0.0333427,0.264316,0.875012,0.0224168,0.266568,1.1207,0.11363,-0.0242428,-0.235262
-0.0344112,0.265439,0.897874,0.165943,0.21512,1.09021,0.123745,-0.0357019,-0.267329
-0.0364874,0.269303,0.920032,0.283746,0.183994,1.02369,0.105065,-0.0457847,-0.262729
-0.0369688,0.274003,0.939846,0.228613,0.335042,0.858278,0.0659008,-0.0731624,-0.23532
-0.0307631,0.276065,0.955253,0.00579664,0.730988,0.597273,0.00296701,-0.102535,-0.2049
-0.0141103,0.272877,0.963569,-0.317994,1.1467,0.196567,-0.0596697,-0.11949,-0.153475
0.0120149,0.263304,0.963426,-0.623956,1.43761,-0.182524,-0.0775795,-0.141645,-0.108463
0.0431487,0.249773,0.958491,-0.663654,1.50657,-0.273668,-0.0111267,-0.13427,-0.110303
0.0723068,0.239171,0.955662,-0.350471,1.28807,-0.0161555,0.0331299,-0.0550489,-0.13452
0.0933645,0.237146,0.95961,0.108138,0.891559,0.383724,0.00363384,0.0331018,-0.0986273
0.104086,0.244212,0.97005,0.46519,0.427319,0.677175,-0.0643773,0.0854506,-0.0118673
0.105765,0.256729,0.984059,0.591591,0.126589,0.777392,-0.113232,0.0975457,0.0720201
0.103555,0.269031,0.998537,0.446755,0.0412352,0.736781,-0.168866,0.120884,0.13193
0.100043,0.276924,1.01226,0.192263,-0.0514181,0.662313,-0.212633,0.153998,0.149611
0.0936712,0.280071,1.02481,0.0250199,-0.241776,0.573037,-0.232483,0.172847,0.108373
0.0846087,0.281144,1.0355,0.00584114,-0.346468,0.457441,-0.253965,0.180745,0.0297507
0.0763462,0.28234,1.04364,0.0470253,-0.231842,0.339837,-0.234461,0.175866,0.00460565
0.0720977,0.283736,1.04971,0.0314226,-0.0168749,0.260319,-0.188723,0.171592,0.0595729
0.071683,0.283567,1.05458,-0.0899267,0.0729772,0.212492,-0.152364,0.162624,0.162692
0.0710196,0.280911,1.05865,-0.1952,-0.0565142,0.157436,-0.131426,0.135462,0.230201
0.0663296,0.276376,1.06166,-0.283971,-0.347448,0.103003,-0.0924369,0.111143,0.258962
0.0564049,0.269658,1.06386,-0.402781,-0.555912,0.0709467,-0.0580609,0.0854931,0.229221
0.0452042,0.260705,1.06516,-0.491012,-0.49721,0.00153039,-0.0564944,0.0488992,0.152416
0.036969,0.250322,1.0649,-0.547673,-0.348774,-0.0612155,-0.0215722,0.00154561,0.0930182
0.031133,0.239274,1.06391,-0.558407,-0.256488,-0.0623289,0.0396136,-0.0355859,0.0568855
0.0266779,0.227921,1.06334,-0.583842,-0.221756,-0.0164338,0.0756539,-0.0614927,0.0478121
0.0220876,0.216117,1.06408,-0.59419,-0.226837,0.0585427,0.0848427,-0.094109,0.0236793
0.0168738,0.204818,1.06612,-0.526629,-0.245732,0.117437,0.0972186,-0.14558,-0.0286097
0.012536,0.195938,1.0693,-0.359112,-0.100269,0.183718,0.107608,-0.182206,-0.100129
0.0118879,0.19032,1.07394,-0.22513,0.129417,0.274276,0.128006,-0.202306,-0.119108
0.0149341,0.186251,1.08079,-0.199884,0.274086,0.393092,0.145466,-0.220159,-0.081659
0.0194684,0.182431,1.09002,-0.210793,0.351777,0.503837,0.14707,-0.23725,-0.0632285
0.0248933,0.177732,1.10081,-0.291732,0.384773,0.533925,0.105949,-0.235357,-0.0766656
0.0307159,0.171736,1.11168,-0.322264,0.364728,0.520305,0.0711811,-0.231954,-0.154061
0.0307159,0.171736,1.11168,-0.322264,0.364728,0.520305,0.0711811,-0.231954,-0.154061
0.0358325,0.166263,1.12238,-0.26675,0.342426,0.512464,0.103768,-0.235122,-0.252368
0.0410842,0.161441,1.13256,-0.265212,0.376852,0.474843,0.140949,-0.220012,-0.330044
0.0478359,0.156363,1.14239,-0.28731,0.434787,0.484243,0.174445,-0.185216,-0.383126
0.054268,0.1513,1.15289,-0.285583,0.336894,0.531238,0.232557,-0.18523,-0.407685
0.0569714,0.146703,1.1643,-0.227012,0.100156,0.578791,0.244544,-0.159532,-0.418261
0.0558202,0.144373,1.17704,-0.0652773,-0.00181123,0.682289,0.232143,-0.084567,-0.45271
0.0545134,0.146652,1.19234,0.235875,0.158938,0.856513,0.233269,0.00225163,-0.471508
0.0586102,0.156069,1.21145,0.590574,0.531397,1.09109,0.249859,0.0772807,-0.398906
0.0682454,0.171283,1.235,0.740196,0.782956,1.32401,0.266057,0.112006,-0.252401
0.078038,0.187541,1.26269,0.659257,0.612598,1.50847,0.230537,0.118038,-0.0921949
0.0801283,0.202034,1.29303,0.57402,0.196923,1.56032,0.172303,0.0943546,-0.0460353
0.0747648,0.216534,1.32342,0.676569,-0.0767339,1.51694,0.112367,0.109804,-0.0959961
0.0654667,0.23407,1.3524,0.866992,-0.183431,1.43438,0.0915458,0.157475,-0.103755
0.0562862,0.254042,1.37995,0.948069,-0.0283808,1.37349,0.120461,0.186285,-0.0578898
0.0507166,0.273769,1.40702,0.872424,0.171122,1.35949,0.130804,0.226966,0.0456119
0.0482648,0.291385,1.43452,0.767206,0.355005,1.37702,0.11991,0.259066,0.136037
0.0485399,0.307366,1.4626,0.711176,0.491484,1.38398,0.100665,0.266523,0.208756
0.0506274,0.32263,1.49072,0.687472,0.57575,1.36567,0.0719697,0.269103,0.287476
0.0525265,0.337187,1.51825,0.619433,0.482826,1.31637,0.0431207,0.27314,0.383504
0.0515614,0.349516,1.54476,0.467824,0.312026,1.24385,0.0362027,0.268316,0.457028
0.0476432,0.357727,1.56977,0.230067,0.164663,1.1402,0.0316531,0.262698,0.492013
0.042585,0.360953,1.59258,-0.00345608,0.151352,1.01696,0.0214657,0.26552,0.475988
0.0385349,0.359852,1.61328,-0.178011,0.160536,0.92732,0.020186,0.265389,0.444913
0.034521,0.356248,1.63272,-0.240891,0.0995927,0.888362,0.0279099,0.265966,0.402291
0.0291027,0.352013,1.65116,-0.23629,-0.00475666,0.826135,0.0337209,0.233567,0.348104
0.0222742,0.347545,1.66766,-0.268381,-0.112395,0.712692,0.047739,0.184677,0.306464
0.0146413,0.341359,1.68163,-0.384702,-0.168968,0.602905,0.0650156,0.147528,0.255386
0.00774503,0.332741,1.69405,-0.481524,-0.0695069,0.57732,0.0806925,0.12589,0.155022
0.00471815,0.323068,1.70685,-0.465417,0.183614,0.654992,0.106152,0.0914791,0.0268229
0.00680165,0.31559,1.72215,-0.287095,0.515227,0.788636,0.121327,0.0453936,-0.0978858
0.0140033,0.311109,1.73914,-0.199991,0.698479,0.81459,0.0774133,-0.0280837,-0.141925
0.0225763,0.307567,1.75565,-0.191289,0.626214,0.743382,0.0375822,-0.139642,-0.187108
0.0281336,0.303773,1.76999,-0.247309,0.354711,0.625194,0.0734998,-0.220409,-0.248632
0.0291952,0.297184,1.78269,-0.477753,0.149951,0.585712,0.100918,-0.26189,-0.344551
0.027662,0.285263,1.79513,-0.72825,0.0605027,0.56813,0.0847416,-0.29908,-0.515862
0.0246798,0.270308,1.80637,-0.784762,-0.0936688,0.463383,0.0191417,-0.340562,-0.70703
0.0166045,0.254951,1.81489,-0.768296,-0.501398,0.343932,-0.0015255,-0.368346,-0.856799
0.00275811,0.240497,1.82179,-0.678236,-0.637497,0.315888,-0.0176171,-0.333134,-0.996161
-0.00776895,0.228449,1.82752,-0.521057,-0.202758,0.240187,-0.0751509,-0.270023,-1.04896
-0.00684718,0.219487,1.83147,-0.391897,0.349033,0.155661,-0.0972143,-0.207014,-0.918285
0.00251827,0.212234,1.83391,-0.337581,0.585298,0.0901034,-0.0833334,-0.150928,-0.643091
0.0130753,0.206621,1.83525,-0.207472,0.452729,0.0335898,-0.0884957,-0.0955815,-0.391792
0.0189117,0.205107,1.83548,0.079579,0.133907,-0.00768265,-0.108495,-0.0224329,-0.205065
0.0192491,0.210725,1.83506,0.511306,-0.0697519,-0.0170713,-0.11509,0.0638904,-0.097375
0.0182662,0.225796,1.83457,0.988395,-0.022482,0.00193675,-0.139994,0.164861,0.0115324
0.0177108,0.248533,1.83424,1.25213,-0.0686478,-0.00322355,-0.155334,0.257884,0.182013
0.0157549,0.273878,1.83298,1.25022,-0.159657,-0.0853015,-0.141678,0.291677,0.320795
0.0122449,0.296858,1.82931,1.03971,-0.311014,-0.246571,-0.114355,0.2965,0.390057
0.00638234,0.314958,1.82205,0.782668,-0.488416,-0.42101,-0.0884811,0.308724,0.363693
-0.00267995,0.32763,1.81216,0.487092,-0.783347,-0.506482,-0.0438646,0.317314,0.310971
-0.0181985,0.334964,1.8007,0.259626,-1.1105,-0.589634,-0.0190231,0.312759,0.203452
-0.0382008,0.339693,1.78774,0.20973,-1.30845,-0.641271,0.0314925,0.306709,0.0683592
-0.0585462,0.344668,1.77418,0.218436,-1.12228,-0.66047,0.0659357,0.297357,-0.0501404
-0.0707247,0.349377,1.76033,0.147802,-0.509662,-0.665783,0.0790308,0.285733,-0.109744
-0.0707247,0.349377,1.76033,0.147802,-0.509662,-0.665783,0.0790308,0.285733,-0.109744
-0.0691876,0.351562,1.74695,-0.0130942,0.158441,-0.584861,0.0843894,0.271794,-0.0732522
-0.0586031,0.351218,1.73641,-0.0584267,0.472283,-0.397839,0.0856185,0.246568,0.0195569
-0.0465895,0.351151,1.72946,0.0307812,0.461403,-0.273338,0.037917,0.201446,0.12523
-0.0369286,0.352945,1.72383,0.114742,0.279107,-0.285404,-0.0480735,0.147711,0.247457
-0.0320502,0.355468,1.71695,0.0992804,-0.0288472,-0.380542,-0.0837588,0.110694,0.361425
-0.0312953,0.356695,1.70755,-0.0190348,-0.199422,-0.503671,-0.0791999,0.0865909,0.424009
-0.0312743,0.354986,1.69563,-0.184372,-0.188756,-0.602832,-0.0713274,0.0835697,0.41725
-0.0293477,0.350656,1.68201,-0.26228,-0.0940694,-0.657749,-0.0625759,0.089196,0.37223
-0.0256335,0.346257,1.66811,-0.193395,-0.0311208,-0.629621,-0.02922,0.0945519,0.333315
-0.0219865,0.34449,1.65558,-0.0022885,-0.0213634,-0.538847,0.0122396,0.104914,0.312541
-0.0189101,0.346254,1.64569,0.138035,-0.0316595,-0.387472,0.0377299,0.122473,0.342796
-0.0187956,0.349011,1.63903,0.0946524,-0.190004,-0.255225,0.0549233,0.120456,0.386247
-0.0209653,0.349252,1.63417,-0.0952624,-0.14395,-0.216486,0.0411825,0.086549,0.359116
-0.0205294,0.345452,1.6297,-0.272284,0.0353882,-0.190797,0.0387243,0.0606373,0.275685
-0.0165094,0.340019,1.62613,-0.257098,0.247981,-0.137185,0.0345759,0.0487,0.182747
-0.00977576,0.335533,1.62355,-0.205933,0.305688,-0.107627,0.0313557,0.0216092,0.161338
-0.00358488,0.331041,1.62116,-0.266337,0.212023,-0.121482,0.032626,-0.0259549,0.184407
-0.000176905,0.324147,1.61802,-0.434474,0.0306778,-0.182784,0.0252073,-0.0582851,0.196305
-0.000192361,0.313991,1.61355,-0.562381,-0.179288,-0.227398,0.0365599,-0.0842395,0.162168
-0.00370057,0.302697,1.60892,-0.558098,-0.27117,-0.213099,0.0507582,-0.0794676,0.0872656
-0.00745889,0.291975,1.60465,-0.522558,-0.217045,-0.193759,0.0555898,-0.069974,0.0390714
-0.00907863,0.281709,1.60056,-0.502259,-0.0409501,-0.186511,0.0617754,-0.0899838,0.000428796
-0.00653732,0.272541,1.59696,-0.402748,0.193861,-0.141496,0.0710237,-0.0907602,-0.0227856
-0.000746807,0.26603,1.59534,-0.247312,0.303703,-0.00120172,0.0860934,-0.0719055,0.00930142
0.00436618,0.262621,1.59691,-0.104423,0.246377,0.149938,0.0985972,-0.0769196,0.0631462
0.00761749,0.261345,1.6013,-0.0481253,0.204443,0.265236,0.100719,-0.0979893,0.0993467
0.00984146,0.25999,1.60739,-0.108772,0.168507,0.321092,0.0991167,-0.135522,0.102042
0.0106804,0.256392,1.61445,-0.277226,0.116375,0.359505,0.135818,-0.178049,0.0326247
0.0108692,0.249014,1.62221,-0.448294,0.0810648,0.3882,0.142176,-0.212017,-0.111636
0.0109145,0.240397,1.6308,-0.40577,0.15993,0.437655,0.125401,-0.229563,-0.313482
0.0115267,0.23264,1.64041,-0.403298,0.0700292,0.494853,0.128921,-0.247953,-0.444057
0.00818577,0.224281,1.65139,-0.459785,-0.145307,0.555318,0.137024,-0.275397,-0.539773
0.000483929,0.213159,1.6622,-0.675502,-0.388771,0.475065,0.0732422,-0.299591,-0.649937
-0.00871377,0.197765,1.67005,-0.847888,-0.293963,0.290748,-0.0284588,-0.306924,-0.813001
-0.0104774,0.180837,1.67372,-0.813074,0.24144,0.0938333,-0.0847254,-0.26433,-0.928714
0.00117767,0.166462,1.67455,-0.626733,0.912916,0.0186228,-0.0862597,-0.174638,-0.865035
0.0225617,0.155262,1.67497,-0.518066,1.13368,0.0110994,-0.0520737,-0.100381,-0.5995
0.0424032,0.1456,1.67529,-0.439961,0.814086,-0.0147452,-0.0436968,-0.0722295,-0.347545
0.0547998,0.139345,1.67564,-0.145614,0.458365,0.0431081,-0.00573384,-0.0176298,-0.239344
0.0617961,0.141496,1.6786,0.353766,0.329607,0.293116,0.0403924,0.118426,-0.180844
0.0682496,0.153371,1.68745,0.723328,0.463174,0.662589,0.0418415,0.230331,-0.0256205
0.0753672,0.169158,1.70269,0.690529,0.434639,0.920142,0.00652828,0.250399,0.176761
0.0778323,0.18227,1.72123,0.486188,0.104302,0.974061,-0.0251352,0.165927,0.270558
0.0725999,0.192333,1.73937,0.417534,-0.272444,0.856382,-0.0489819,0.0738699,0.209856
0.0618227,0.20202,1.75397,0.452583,-0.506676,0.630642,-0.0806075,0.0488238,0.1083
0.049083,0.211545,1.76421,0.43139,-0.519337,0.434816,-0.0444754,0.0501502,0.023985
0.0393542,0.219903,1.77147,0.377966,-0.273318,0.324613,0.02096,0.0698805,-0.038814
0.0355234,0.227444,1.7777,0.368702,0.0179157,0.332479,0.111532,0.0853973,-0.0584427
0.0361463,0.235724,1.78541,0.445083,0.200852,0.469512,0.185198,0.10223,-0.0368041
0.0375904,0.246056,1.79678,0.541392,0.183763,0.671606,0.229938,0.105046,0.0467254
0.0361934,0.257482,1.81192,0.530493,0.0529682,0.827811,0.210811,0.0948711,0.142472
0.0319244,0.267558,1.8293,0.410727,-0.000321841,0.869703,0.161538,0.0628086,0.209961
0.0279147,0.274723,1.84651,0.256909,0.0817545,0.800324,0.107001,0.0310003,0.244459
0.0266494,0.27882,1.86184,0.110029,0.20677,0.694628,0.0776085,0.0209485,0.276042
0.0266494,0.27882,1.86184,0.110029,0.20677,0.694628,0.0776085,0.0209485,0.276042
0.0277219,0.279873,1.87555,-0.0428051,0.26334,0.642127,0.0767689,0.0272101,0.316892
0.0286608,0.277477,1.88881,-0.236397,0.181546,0.629538,0.083157,0.0374188,0.360525
0.0285965,0.271414,1.90177,-0.400584,0.177768,0.601657,0.0856895,0.0207033,0.360109
0.0287964,0.262627,1.91408,-0.494525,0.152904,0.575004,0.0868646,0.0189877,0.345194
0.0278457,0.253638,1.92674,-0.41132,0.07682,0.641104,0.104671,0.0318876,0.308329
0.025793,0.248066,1.94137,-0.180778,0.0890629,0.780467,0.107674,0.0634005,0.287563
0.0236952,0.247438,1.9593,0.0587206,0.146047,0.963624,0.104104,0.0892508,0.309206
0.0227592,0.250878,1.98023,0.215141,0.277346,1.05416,0.0589488,0.0947361,0.366378
0.0241969,0.25589,2.00168,0.214122,0.386069,1.02271,0.0103457,0.0755097,0.443641
0.026829,0.259641,2.02176,0.099804,0.366572,0.923801,-0.0229665,0.0490312,0.509744
0.0280474,0.260648,2.03955,-0.0489625,0.196062,0.806672,-0.0299041,0.0370955,0.518257
0.0255868,0.258909,2.0554,-0.151027,-0.0438325,0.740305,0.00375681,0.0117026,0.43135
0.0182351,0.256324,2.07112,-0.126928,-0.260866,0.789327,0.0521858,0.0037401,0.283955
0.00861546,0.254495,2.08775,-0.0849512,-0.261476,0.800327,-0.00205129,0.00392383,0.132962
0.00132318,0.252737,2.10311,-0.116756,-0.0492381,0.666373,-0.0500788,-0.0674198,-0.00235015
-0.000584569,0.249009,2.11429,-0.274759,0.103524,0.405375,-0.060255,-0.157456,-0.0947621
0.000312253,0.241825,2.12046,-0.42308,0.139734,0.227371,-0.0114574,-0.193264,-0.196013
0.0029778,0.233309,2.12522,-0.414324,0.262184,0.252233,0.0197621,-0.170062,-0.320783
0.00900511,0.225716,2.13073,-0.355157,0.444499,0.261798,-0.0252408,-0.162045,-0.386947
0.0171947,0.218914,2.13512,-0.338889,0.451128,0.142371,-0.044936,-0.247888,-0.390542
0.0246822,0.212307,2.13628,-0.32619,0.313639,-0.0444563,-0.0280166,-0.307656,-0.397277
0.0307082,0.205655,2.13417,-0.345492,0.28458,-0.166936,-0.00535244,-0.303192,-0.405796
0.0380503,0.197878,2.1303,-0.434178,0.374964,-0.239408,0.0066007,-0.285954,-0.381262
0.0465867,0.188013,2.12523,-0.544142,0.329251,-0.295523,0.032208,-0.295576,-0.333385
0.0510263,0.176254,2.11954,-0.592269,-0.027258,-0.315339,0.077029,-0.286708,-0.321065
0.0455472,0.163927,2.11387,-0.6117,-0.625201,-0.293779,0.103455,-0.236465,-0.363092
0.0291436,0.153251,2.10972,-0.370058,-1.03298,-0.142415,0.133861,-0.162411,-0.511407
0.00890273,0.151975,2.1088,0.286522,-0.910344,0.0527939,0.127461,-0.0429605,-0.651275
-0.00344583,0.164794,2.11202,0.94989,-0.221253,0.261847,0.114208,0.0776229,-0.612812
-0.00201609,0.186823,2.11897,1.19081,0.434743,0.399165,0.0707218,0.147515,-0.342415
0.00842671,0.209959,2.12774,1.09228,0.724181,0.452701,0.0206738,0.152023,-0.0292737
0.0208151,0.230087,2.13671,0.914324,0.661929,0.449079,-0.0188766,0.149616,0.177141
0.0282955,0.246961,2.14509,0.764332,0.211116,0.393707,-0.0518475,0.117535,0.254458
0.0239492,0.261762,2.15104,0.726251,-0.480564,0.200062,-0.0610493,0.0569096,0.190497
0.0101806,0.276526,2.15215,0.744229,-0.80127,-0.058556,-0.0978522,0.098989,0.0690154
-0.00470134,0.291149,2.14901,0.72637,-0.717648,-0.226623,-0.103422,0.210118,-0.019406
-0.012813,0.305793,2.14335,0.729698,-0.224056,-0.320494,-0.0599101,0.277445,-0.0675575
-0.00968212,0.320069,2.13681,0.678484,0.310448,-0.295697,0.0100905,0.347988,-0.0134009
0.000995489,0.332634,2.13242,0.586296,0.564743,-0.10959,0.061147,0.398021,0.109797
0.0117354,0.34396,2.13262,0.568668,0.467286,0.135233,0.0867305,0.402709,0.219545
0.0164439,0.356215,2.13778,0.669107,0.186047,0.366369,0.0987706,0.382146,0.288156
0.0142267,0.370649,2.14719,0.741394,-0.0823466,0.525635,0.0785062,0.364524,0.351798
0.00618714,0.385135,2.15929,0.678398,-0.23996,0.608622,0.0511051,0.335401,0.396472
-0.00384506,0.396998,2.17269,0.491423,-0.235137,0.63111,0.0358641,0.301431,0.405938
-0.0129584,0.404267,2.1861,0.241691,-0.170499,0.600166,0.0139734,0.268956,0.395998
-0.0208634,0.406645,2.19858,0.0264792,-0.121765,0.542873,0.0185502,0.225181,0.353709
-0.0267859,0.405365,2.20915,-0.115278,-0.0503776,0.432671,0.0124814,0.172736,0.275379
-0.0293554,0.402088,2.2172,-0.192546,0.109172,0.308994,0.00795203,0.136244,0.215717
-0.0277751,0.396935,2.22223,-0.322408,0.241882,0.171914,0.00330387,0.101559,0.193837
-0.0231631,0.388777,2.22431,-0.490612,0.284506,0.0496195,0.0304505,0.0590799,0.187378
-0.0171817,0.377673,2.22435,-0.617548,0.331837,-0.008324,0.0762117,0.0281821,0.154471
-0.0100111,0.364265,2.22413,-0.723679,0.383292,0.0188549,0.116242,0.0152746,0.136304
-0.00127644,0.348844,2.22516,-0.822576,0.531934,0.0915443,0.147089,-0.0168006,0.12446
-0.00127644,0.348844,2.22516,-0.822576,0.531934,0.0915443,0.147089,-0.0168006,0.12446
0.00905415,0.331871,2.22823,-0.858997,0.608942,0.197303,0.1689,-0.0497976,0.115226
0.0198894,0.315387,2.23408,-0.784959,0.633216,0.333958,0.181319,-0.0839959,0.0971254
0.0287684,0.301005,2.24307,-0.686019,0.506594,0.491951,0.193232,-0.115446,0.102486
0.0333099,0.288207,2.25557,-0.644842,0.322514,0.669206,0.22425,-0.14907,0.104036
0.0335289,0.276279,2.27194,-0.594847,0.147366,0.866284,0.244482,-0.181903,0.0630988
0.0295429,0.266637,2.2921,-0.413036,0.0320316,1.04101,0.238549,-0.204941,-0.039741
0.0243565,0.260771,2.31473,-0.256924,0.043749,1.12337,0.213103,-0.232714,-0.110481
0.0199337,0.255973,2.33858,-0.303079,0.140973,1.1777,0.20699,-0.248751,-0.145369
0.0184009,0.248933,2.36356,-0.456436,0.334868,1.23082,0.211537,-0.251204,-0.215299
0.0200698,0.238951,2.38947,-0.574211,0.467894,1.26774,0.210894,-0.246364,-0.31143
0.0262164,0.228076,2.41533,-0.561189,0.759236,1.21169,0.180337,-0.271424,-0.440416
0.0382798,0.218412,2.43959,-0.476727,0.953919,1.13866,0.179741,-0.268275,-0.50665
0.0524377,0.210922,2.46308,-0.389809,0.926509,1.14367,0.200609,-0.221959,-0.486915
0.0631415,0.205511,2.48809,-0.294106,0.613165,1.30517,0.252727,-0.158329,-0.456313
0.0650174,0.203833,2.51767,-0.0368497,0.203264,1.5883,0.274645,-0.0650621,-0.468816
0.0603836,0.208547,2.55242,0.291149,0.100169,1.82655,0.213666,0.0480728,-0.474042
0.0567201,0.218872,2.59017,0.492156,0.384299,1.89897,0.113288,0.142955,-0.406805
0.061329,0.231206,2.62782,0.508318,0.945383,1.83775,0.028765,0.215373,-0.291074
0.0753928,0.243471,2.66433,0.48597,1.21597,1.82022,0.0413867,0.266097,-0.126793
0.0880479,0.256517,2.7019,0.527245,0.94581,1.94211,0.101711,0.312093,-0.00508004
0.0925419,0.271167,2.74242,0.56909,0.551648,2.08536,0.108446,0.339282,0.0710765
0.0879049,0.286,2.78461,0.540695,0.18441,2.06598,0.0693236,0.303967,0.0930201
0.0790691,0.299505,2.82428,0.48326,0.127212,1.81201,0.0156398,0.233341,0.0655344
0.0726821,0.310462,2.85794,0.362238,0.253971,1.49437,0.000509933,0.210864,0.059557
0.0704888,0.318368,2.88682,0.230028,0.41932,1.34174,0.0389286,0.247481,0.101579
0.0703791,0.323806,2.9147,0.143351,0.40638,1.36977,0.0988913,0.28328,0.160254
0.0667605,0.329237,2.9447,0.242907,0.168244,1.53416,0.159132,0.295367,0.175337
0.0567399,0.338887,2.97875,0.524147,-0.0210054,1.7424,0.172193,0.311228,0.140002
0.043051,0.352982,3.01635,0.664606,-0.0713474,1.84986,0.123419,0.315531,0.174659
0.0281493,0.366814,3.05514,0.559182,-0.0345363,1.81807,0.0858026,0.266557,0.204955
0.0162128,0.376652,3.09215,0.325224,0.221363,1.64533,0.0546265,0.20567,0.178558
0.0124992,0.380958,3.12478,0.0638433,0.59553,1.40602,0.0205169,0.165298,0.133742
0.0159489,0.381353,-3.13,-0.0261597,0.787375,1.26003,0.022261,0.147735,0.0847823
0.0225423,0.382243,-3.10381,0.0864036,0.819614,1.18358,0.0102906,0.156388,0.0646644
0.0292951,0.386467,-3.07932,0.282429,0.780132,1.10294,-0.00442553,0.156566,0.0485145
0.0371598,0.394665,-3.05689,0.444949,0.899295,0.992647,-0.0156643,0.132912,0.0374936
0.0486071,0.403538,-3.03738,0.30848,0.961474,0.845118,-0.0393294,0.106038,0.136914
0.0615664,0.40524,-3.02023,-0.335927,0.729208,0.728382,-0.0310926,0.0559677,0.442016
0.0573174,0.393113,-3.00544,-0.810579,-0.256774,0.557885,0.0059674,-0.00824586,0.316598
0.050251,0.379839,-2.99501,-0.519648,-0.0536154,0.329338,-0.103428,-0.00993603,-0.00979531
0.0500889,0.372354,-2.98977,-0.321116,0.205961,0.146506,-0.114905,0.0248812,-0.0201343
0.0531126,0.364879,-2.98648,-0.476868,0.173249,0.147553,-0.0638596,0.0260412,0.115406
0.052755,0.354422,-2.98211,-0.537315,-0.0350542,0.216586,-0.00877325,0.0264766,0.108509
0.0492928,0.346712,-2.97583,-0.21609,-0.0645595,0.338656,0.0250398,-0.00678039,-0.0185332
0.0471265,0.346946,-2.9674,0.166814,0.1473,0.450762,0.0121402,-0.0158536,-0.0667472
0.0480493,0.351841,-2.95732,0.2148,0.259686,0.514955,0.0164961,-0.0561763,0.0206033
0.0489254,0.355158,-2.94587,0.0608786,0.210241,0.576942,0.0546101,-0.131372,0.0852886
0.0468673,0.355885,-2.93307,-0.0236997,0.00245316,0.621832,0.0422062,-0.19197,0.0284418
0.0406382,0.356408,-2.91947,0.0325002,-0.117731,0.655593,0.0708586,-0.260908,-0.120655
0.0330734,0.358257,-2.90569,0.0850952,-0.160312,0.631916,0.0693891,-0.296162,-0.239738
0.0252161,0.359606,-2.89274,-0.0107142,-0.159851,0.601338,0.0930223,-0.323296,-0.337074
0.0179218,0.358117,-2.87974,-0.165686,-0.121317,0.611287,0.0919044,-0.325926,-0.433724
0.00986901,0.354323,-2.86693,-0.230093,-0.274406,0.590696,0.0543886,-0.276336,-0.504974
-0.00250885,0.349391,-2.85473,-0.277685,-0.546446,0.55112,0.0190504,-0.233007,-0.540143
-0.00250885,0.349391,-2.85473,-0.277685,-0.546446,0.55112,0.0190504,-0.233007,-0.540143
-0.0184277,0.342687,-2.84414,-0.3949,-0.645101,0.438209,-0.0369966,-0.191569,-0.545289
-0.0322944,0.333251,-2.83712,-0.533555,-0.478249,0.243843,-0.100622,-0.139375,-0.536069
-0.0402545,0.32161,-2.83466,-0.604868,-0.238894,0.0390645,-0.121549,-0.0572123,-0.489281
-0.0422208,0.309956,-2.83604,-0.548828,-0.0177776,-0.115194,-0.116374,0.0285887,-0.404245
-0.0403945,0.300686,-2.84015,-0.378534,0.0640208,-0.237229,-0.10744,0.0832239,-0.296622
-0.0375849,0.29618,-2.84621,-0.0797002,0.0115494,-0.311941,-0.0658209,0.124404,-0.197324
-0.0369794,0.298403,-2.85239,0.282436,-0.117403,-0.270467,-0.0149254,0.184939,-0.125977
-0.0379947,0.307544,-2.85658,0.594584,-0.0955305,-0.166669,0.004404,0.24208,-0.0563055
-0.0385838,0.320682,-2.85902,0.659243,-0.0545738,-0.131978,-0.0222607,0.276121,0.0421711
-0.0398342,0.331795,-2.86191,0.410457,-0.197584,-0.207203,-0.0447916,0.255749,0.138938
-0.043948,0.336722,-2.86769,0.0617527,-0.401382,-0.363852,-0.0456153,0.225216,0.152801
-0.0505449,0.335815,-2.87681,-0.156774,-0.546569,-0.468487,-0.0476052,0.224772,0.0604442
-0.0581427,0.333526,-2.88666,-0.0794785,-0.492997,-0.443774,-0.0545131,0.232559,-0.0583813
-0.0620749,0.334692,-2.89599,0.12638,-0.187599,-0.46241,-0.116609,0.226824,-0.111827
-0.0595344,0.337913,-2.90661,0.0814638,0.0656111,-0.570574,-0.148455,0.186759,-0.0147658
-0.0525193,0.338005,-2.91995,-0.150994,0.174318,-0.680462,-0.116277,0.130372,0.0957277
-0.0442922,0.334001,-2.93487,-0.290471,0.147043,-0.69401,-0.0551693,0.115057,0.138224
-0.0373377,0.32876,-2.94897,-0.25988,0.0712196,-0.607508,-0.02215,0.128625,0.148817
-0.033401,0.325327,-2.96027,-0.107195,-0.0210431,-0.442159,0.00518441,0.137032,0.152096
-0.0315427,0.324998,-2.96777,0.0367022,-0.0353124,-0.276095,0.00628118,0.134935,0.210867
-0.0315099,0.326373,-2.97244,0.07593,-0.119811,-0.187199,-0.0101822,0.12368,0.302332
-0.0327778,0.328283,-2.97669,0.107285,-0.11197,-0.250111,-0.0701287,0.0798642,0.33943
-0.031767,0.330868,-2.98355,0.118856,-0.0192038,-0.405769,-0.0990352,0.0630693,0.38434
-0.0285302,0.332714,-2.99298,0.0259749,0.0368723,-0.463987,-0.067017,0.0906627,0.444622
-0.0246204,0.332634,-3.00194,-0.0402776,0.0401684,-0.368597,-0.0228436,0.120601,0.467848
-0.0226181,0.332808,-3.0082,0.0632952,-0.0546289,-0.234465,-0.0234094,0.138848,0.438783
-0.0236831,0.33587,-3.01242,0.223725,-0.183631,-0.191077,-0.0509608,0.114274,0.41383
-0.0267544,0.340944,-3.01685,0.237861,-0.254289,-0.25515,-0.0628623,0.0748246,0.41041
-0.0297261,0.344244,-3.02322,0.0487255,-0.257365,-0.358234,-0.0565252,0.0483459,0.392362
-0.0314481,0.342828,-3.03185,-0.21841,-0.180744,-0.444817,-0.0302165,0.022568,0.331082
-0.0305175,0.336561,-3.04202,-0.423636,-0.0719384,-0.487843,-0.00971235,0.0183839,0.249792
-0.0277001,0.327395,-3.05279,-0.502713,0.00504041,-0.508007,-0.00143879,0.00224191,0.173021
-0.0236959,0.317256,-3.06388,-0.547297,0.0230552,-0.522715,-7.1764e-05,-0.0130517,0.150085
-0.019898,0.305654,-3.0753,-0.646809,0.0171495,-0.551824,0.00122855,-0.0509359,0.15883
-0.015888,0.292002,-3.08765,-0.734456,0.00169606,-0.608923,0.00193966,-0.0800806,0.168364
-0.0125662,0.277405,-3.10059,-0.729145,-0.021939,-0.601251,-0.006576,-0.0824015,0.144036
-0.00984941,0.263871,-3.11231,-0.63518,-0.0249054,-0.509324,0.0056326,-0.0715478,0.0957882
-0.00769925,0.252846,-3.12148,-0.467133,0.0282566,-0.368401,0.0159077,-0.0917891,0.0395564
-0.00381843,0.245106,-3.1278,-0.335114,0.191731,-0.250058,0.0231287,-0.115891,0.0155451
0.0022161,0.237788,-3.13209,-0.450325,0.287058,-0.176276,0.0135933,-0.13374,0.028042
0.00775613,0.225537,-3.13528,-0.793209,0.134858,-0.164036,0.0210353,-0.186999,-0.0266827
0.0070466,0.207065,-3.1391,-1.01477,-0.304454,-0.217329,0.0360575,-0.258034,-0.227914
-0.00299857,0.187167,3.14005,-0.932793,-0.731801,-0.167817,0.0431836,-0.232229,-0.52197
-0.0159099,0.170726,3.13744,-0.737467,-0.511035,-0.0843865,0.0379557,-0.194467,-0.797485
-0.0204782,0.15646,3.13573,-0.729931,0.0348024,-0.0703231,0.0355922,-0.234558,-0.907106
-0.014494,0.141112,3.13331,-0.812494,0.475673,-0.158742,0.0242219,-0.297253,-0.905597
-0.00335927,0.125026,3.12879,-0.782086,0.515494,-0.2587,0.0246038,-0.315424,-0.851439
0.00552979,0.110928,3.12375,-0.613503,0.307956,-0.221614,0.0866673,-0.26227,-0.781659
0.0112479,0.101695,3.12075,-0.283763,0.275032,-0.067991,0.113917,-0.182385,-0.724452
0.0169139,0.100916,3.12192,0.230995,0.313479,0.200962,0.144748,-0.100976,-0.617764
0.0244204,0.112016,3.12862,0.863389,0.55135,0.476845,0.145947,-0.0244939,-0.440157
0.037526,0.134115,3.13888,1.24364,0.862168,0.576587,0.0890251,0.0306253,-0.166141
0.0531523,0.158739,-3.13398,1.11498,0.772187,0.551539,0.0681614,0.0192333,0.129771
0.0619364,0.178895,-3.12403,0.868576,0.224812,0.550816,0.125416,-0.00597182,0.257941
0.0619364,0.178895,-3.12403,0.868576,0.224812,0.550816,0.125416,-0.00597182,0.257941
0.0592907,0.196016,-3.11381,0.81045,-0.237283,0.552162,0.156372,0.012466,0.163255
0.0515896,0.212932,-3.10344,0.825287,-0.243598,0.551632,0.129285,0.0608142,-0.00143927
0.0478982,0.229967,-3.09351,0.820132,0.103235,0.492981,0.096798,0.0833226,-0.0917128
0.0505796,0.246244,-3.08513,0.772913,0.319787,0.41384,0.0948269,0.107364,-0.09241
0.0544057,0.261861,-3.07747,0.762567,0.205008,0.424389,0.12672,0.117658,-0.0674254
0.0541738,0.278069,-3.06896,0.820348,0.0224723,0.487611,0.15002,0.127466,-0.0781382
0.0503606,0.295005,-3.0589,0.800529,-0.11885,0.571904,0.181801,0.144657,-0.0582672
0.0445786,0.310655,-3.04646,0.712095,-0.0452783,0.69563,0.209049,0.149844,-0.0407252
0.0411897,0.324788,-3.0313,0.649295,0.188365,0.807299,0.185203,0.16974,-0.0143893
0.0414327,0.33794,-3.01379,0.611115,0.395805,0.906111,0.151428,0.179262,0.062442
0.0442122,0.350662,-2.99481,0.576155,0.506473,0.926503,0.112316,0.178938,0.182506
0.0479117,0.361811,-2.9758,0.440733,0.520226,0.911729,0.0744701,0.174464,0.333659
0.0512628,0.369481,-2.95672,0.23695,0.483121,0.911291,0.047936,0.170519,0.462891
0.0531871,0.373481,-2.93758,0.0822338,0.409508,0.892341,0.0158104,0.167013,0.541791
0.05373,0.374981,-2.9192,-0.0155529,0.318257,0.831204,-0.00625607,0.158461,0.581515
0.0522172,0.375094,-2.90175,-0.0515495,0.1651,0.804167,-0.0098531,0.169278,0.614782
0.0486249,0.37468,-2.88495,-0.0873686,0.114187,0.748805,-0.0113745,0.173195,0.634786
0.0450895,0.372599,-2.86937,-0.194546,0.111104,0.709265,-0.00180498,0.19436,0.656756
0.0424784,0.368584,-2.8534,-0.259662,0.206332,0.777507,0.024275,0.223515,0.654348
0.0398351,0.364479,-2.83556,-0.200707,0.139854,0.871399,0.00818648,0.243914,0.621587
0.0341884,0.362512,-2.81644,-0.0612384,-0.0496851,0.90067,-0.00362468,0.22964,0.568603
0.0242931,0.36275,-2.79735,0.00092922,-0.242745,0.883229,0.0155591,0.212757,0.51874
0.0113962,0.361969,-2.77855,-0.144219,-0.377046,0.883937,0.0619285,0.167258,0.454962
-0.00271124,0.356983,-2.75919,-0.355989,-0.297122,0.940637,0.102211,0.128639,0.307802
-0.0131892,0.348142,-2.73907,-0.500098,-0.0666141,0.946908,0.0640791,0.0839039,0.119049
-0.0201107,0.336894,-2.7197,-0.5755,-0.00777737,0.896403,0.0264405,-0.0178316,-0.0975578
-0.0255145,0.325342,-2.70159,-0.53727,0.0778714,0.841758,0.0453526,-0.135812,-0.304369
-0.0280869,0.314209,-2.68561,-0.562698,0.170931,0.690854,0.0346887,-0.218371,-0.444979
-0.0270826,0.301062,-2.67383,-0.750325,0.273923,0.463991,-0.008059,-0.279531,-0.539972
-0.023727,0.282924,-2.66688,-1.06086,0.232682,0.249345,-0.0504759,-0.324839,-0.605686
-0.0217917,0.259405,-2.66428,-1.24453,0.00732339,0.0670649,-0.0534782,-0.367167,-0.704707
-0.0245765,0.235228,-2.66425,-1.14904,-0.25914,0.0198449,0.0247823,-0.373167,-0.821274
-0.0298497,0.213873,-2.66369,-1.00401,-0.198569,0.109337,0.0432797,-0.328938,-0.865718
-0.030899,0.194932,-2.66086,-0.89307,0.162609,0.221898,-0.0106761,-0.248545,-0.82147
-0.0267155,0.17796,-2.65646,-0.798438,0.256334,0.24138,-0.0189824,-0.227564,-0.695878
-0.0247725,0.162756,-2.65261,-0.72141,-0.00972806,0.170028,-0.00567825,-0.229136,-0.556426
-0.0284825,0.149391,-2.65035,-0.590318,-0.307283,0.0940046,-0.0114961,-0.193724,-0.47266
-0.0356112,0.140519,-2.6495,-0.265451,-0.344944,0.0146011,-0.0237834,-0.126087,-0.466554
-0.0406347,0.139734,-2.6501,0.192972,-0.161752,-0.0583042,-0.0263923,-0.0393853,-0.417165
-0.0412787,0.148273,-2.65051,0.661775,0.0993137,0.00517373,-0.00313108,0.0777383,-0.285939
-0.0372412,0.165543,-2.64813,1.0466,0.306557,0.165741,-0.0126538,0.178964,-0.0995905
-0.0320092,0.188224,-2.64304,1.20924,0.26786,0.233639,-0.048304,0.243908,0.0764852
-0.0297259,0.212262,-2.63793,1.1898,0.039555,0.182452,-0.0512067,0.226128,0.164213
-0.0337853,0.234336,-2.63461,1.0157,-0.418168,0.0658848,-0.0140956,0.17632,0.191688
-0.0477956,0.252046,-2.63396,0.761354,-0.952139,-0.0700397,0.0199464,0.142513,0.15315
-0.069484,0.265435,-2.63602,0.578136,-1.22146,-0.216433,0.00771622,0.134613,0.0674319
-0.0918133,0.276077,-2.64201,0.443745,-1.12432,-0.458482,-0.0600572,0.139802,-0.00653517
-0.106394,0.285657,-2.65368,0.442445,-0.57055,-0.763586,-0.0976797,0.129277,-0.0394179
-0.107278,0.29759,-2.67046,0.565854,-0.0584761,-0.932079,-0.0735521,0.160587,-0.0614436
-0.0998597,0.311034,-2.68782,0.575663,0.269467,-0.820401,0.000473633,0.195584,-0.00705546
-0.0883693,0.322352,-2.70137,0.413708,0.405256,-0.570721,0.0559529,0.230082,0.124312
-0.0780811,0.329717,-2.71031,0.278526,0.328755,-0.346917,0.0778743,0.215209,0.222228
-0.0716025,0.335962,-2.71507,0.333557,0.142494,-0.151216,0.0763613,0.184749,0.293863
-0.0716306,0.343766,-2.71607,0.437703,-0.191958,-0.0176193,0.0617973,0.17108,0.35285
-0.0716306,0.343766,-2.71607,0.437703,-0.191958,-0.0176193,0.0617973,0.17108,0.35285
-0.0784401,0.353181,-2.71518,0.510479,-0.420939,0.0169317,0.0499636,0.16873,0.372785
-0.0870926,0.364038,-2.71389,0.580272,-0.361273,0.0135176,0.0242755,0.189195,0.387849
-0.0931957,0.376017,-2.71257,0.625325,-0.209676,-0.000488677,0.00188809,0.206941,0.410351
-0.0967561,0.388991,-2.71166,0.681262,-0.113631,-0.0482475,0.00126854,0.206373,0.418569
-0.0974112,0.402899,-2.71223,0.692281,0.039449,-0.13379,-0.00164054,0.211163,0.43223
-0.093485,0.416138,-2.71449,0.589493,0.261582,-0.184271,0.0105683,0.224025,0.455066
-0.0857355,0.426398,-2.71717,0.407985,0.371013,-0.133713,0.0539154,0.234715,0.478696
-0.078309,0.432925,-2.71821,0.236973,0.315816,-0.014522,0.0741246,0.219622,0.473259
-0.0735813,0.435509,-2.71718,0.0155229,0.192524,0.0764802,0.0764794,0.177029,0.425595
-0.071237,0.43295,-2.71516,-0.25591,0.138507,0.109567,0.0575598,0.101115,0.328724
-0.0696647,0.426033,-2.7135,-0.409777,0.0921961,0.0865181,0.0569623,0.0341264,0.196016
-0.0672957,0.417033,-2.71251,-0.471687,0.212703,0.0860067,0.05637,0.0108086,0.0941861
-0.0615355,0.407541,-2.7103,-0.465229,0.453582,0.195514,0.058169,0.0272276,0.0505006
-0.0543571,0.397802,-2.70503,-0.483746,0.419233,0.336105,0.0734797,0.0196557,0.0752926
-0.0516163,0.387713,-2.69745,-0.477881,0.132292,0.409334,0.0954476,-0.0257819,0.0757118
-0.0541369,0.378454,-2.68855,-0.410258,-0.019401,0.472285,0.111027,-0.0579453,0.0265391
-0.0580164,0.370235,-2.67754,-0.349191,0.075254,0.616784,0.0938347,-0.0449652,-0.0152031
-0.0595256,0.363757,-2.6628,-0.20428,0.29853,0.790454,0.0862222,-0.0490581,-0.0424151
-0.0577586,0.360517,-2.6449,-0.0335944,0.506449,0.90174,0.0618586,-0.063517,-0.0119823
-0.0532873,0.359657,-2.62466,0.0265711,0.631867,1.00014,0.053669,-0.0812284,0.0732692
-0.0487649,0.358543,-2.60274,-0.0475962,0.550107,1.04952,0.0380775,-0.112545,0.144906
-0.0479891,0.35573,-2.58086,-0.135134,0.308551,0.998004,0.017822,-0.16822,0.116276
-0.0506114,0.351215,-2.56153,-0.221789,0.113621,0.833429,0.00103861,-0.227647,0.0412536
-0.0536693,0.345301,-2.54585,-0.294924,0.140873,0.688614,-0.00656014,-0.231344,-0.0687582
-0.0540407,0.338328,-2.53195,-0.317674,0.34128,0.686254,0.0454745,-0.193587,-0.167838
-0.048336,0.332111,-2.51713,-0.216186,0.713696,0.751696,0.0889661,-0.170573,-0.234276
-0.0364232,0.328334,-2.50083,-0.117377,0.985035,0.812709,0.107254,-0.145719,-0.20456
-0.0224219,0.32502,-2.48292,-0.187402,0.931292,0.900034,0.124976,-0.119774,-0.114087
-0.0130907,0.319476,-2.46383,-0.334056,0.591555,0.910911,0.157249,-0.134234,-0.0748664
-0.0101785,0.311787,-2.44539,-0.403637,0.322942,0.847865,0.141066,-0.123736,-0.126922
-0.00898314,0.303965,-2.42849,-0.347871,0.354959,0.780976,0.0805164,-0.0709642,-0.21858
-0.00609898,0.298554,-2.41181,-0.151462,0.41205,0.852783,0.101487,0.00329059,-0.247395
-0.00251066,0.298432,-2.39227,0.144684,0.521523,1.02153,0.127217,0.0652772,-0.190734
0.00190498,0.303224,-2.36931,0.303487,0.599122,1.1768,0.11189,0.10147,-0.0559683
0.00705638,0.309356,-2.34364,0.267332,0.692418,1.27045,0.0792009,0.10367,0.080085
0.0128913,0.312981,-2.31708,0.0512355,0.670276,1.25989,0.0589939,0.085698,0.176835
0.0165491,0.312468,-2.29075,-0.111075,0.499325,1.25478,0.0724946,0.0612224,0.162461
0.0165956,0.31075,-2.26441,-0.0815787,0.319744,1.26297,0.092568,0.0709247,0.0645376
0.0136561,0.310725,-2.23752,0.0441986,0.248335,1.31704,0.115828,0.0966425,-0.0358611
0.010882,0.313081,-2.20918,0.141108,0.341292,1.38955,0.113274,0.118904,-0.0864325
0.00902102,0.316249,-2.17977,0.136722,0.379287,1.39946,0.0720997,0.117858,-0.0832605
0.00757254,0.318643,-2.15151,0.0767689,0.351786,1.27977,0.0286669,0.0838472,-0.0588955
0.00659497,0.319714,-2.1265,0.017347,0.342409,1.10861,0.0107376,0.0638831,-0.0492457
0.0064378,0.319764,-2.10444,-0.0220069,0.332131,1.00599,0.0105054,0.0754963,-0.0373585
0.00665904,0.319706,-2.08365,0.0107592,0.369067,0.980468,0.0215715,0.0922567,-0.033054
0.00894876,0.320724,-2.06322,0.0780981,0.511017,0.954166,0.000357807,0.096916,0.00214624
0.0139158,0.32296,-2.04378,0.118447,0.586312,0.898669,-0.0137604,0.0857923,0.0856442
0.0195441,0.32546,-2.02548,0.0891854,0.539642,0.838592,-0.0206226,0.0687228,0.180813
0.0236155,0.326905,-2.00876,0.0185507,0.388894,0.746346,-0.0435114,0.0490793,0.251785
0.0247035,0.326782,-1.99436,-0.0584246,0.191923,0.616822,-0.0364858,0.0257396,0.271117
0.0237898,0.325198,-1.98251,-0.133457,0.105839,0.509237,-0.0226781,0.0130694,0.248131
0.0220392,0.321684,-1.97221,-0.236415,0.0587403,0.473115,-0.0180383,0.0179015,0.214389
0.0194954,0.3167,-1.9623,-0.266822,-0.0211489,0.45769,0.000258937,-0.00077796,0.161788
0.0144754,0.312263,-1.9529,-0.179455,-0.183354,0.431063,0.00709915,-0.0342634,0.0816376
0.0144754,0.312263,-1.9529,-0.179455,-0.183354,0.431063,0.00709915,-0.0342634,0.0816376
0.00760865,0.310131,-1.94459,-0.047741,-0.220608,0.34801,-0.0205207,-0.0613781,0.0110123
0.0021794,0.309755,-1.9387,-0.0175997,-0.141782,0.214718,-0.0558934,-0.0909722,-0.0191059
-0.000953922,0.308148,-1.93541,-0.162892,-0.0706851,0.1032,-0.0489414,-0.112722,-0.0141139
-0.00177559,0.303007,-1.93406,-0.351732,0.0305706,0.0291125,-0.0378866,-0.121454,-0.0323896
-0.000443994,0.294585,-1.93424,-0.469346,0.086771,-0.0476656,-0.0664849,-0.123277,-0.102968
0.00172133,0.285477,-1.93605,-0.423379,0.0630441,-0.135975,-0.0632819,-0.137849,-0.177605
0.00244804,0.279874,-1.9403,-0.135647,-0.171218,-0.288423,-0.0803252,-0.133876,-0.200076
-0.000991579,0.277797,-1.9468,-0.100863,-0.282542,-0.324684,-0.0560227,-0.168481,-0.197244
-0.00464477,0.274933,-1.95383,-0.203752,-0.251988,-0.365702,-0.108963,-0.150545,-0.181305
-0.0067007,0.270168,-1.96312,-0.259718,-0.203225,-0.550329,-0.166043,-0.147245,-0.182673
-0.00709869,0.265001,-1.97688,-0.279198,-0.234072,-0.770737,-0.185852,-0.153175,-0.192082
