attitude_roll,attitude_pitch,attitude_yaw,rotationRate_x,rotationRate_y,rotationRate_z,acceleration_x,acceleration_y,acceleration_z
0.0218641,0.0967691,0.387251,-1.15358,0.547618,0.40066,-0.17479,-0.00445606,-0.49303
0.0345286,0.0747711,0.394215,-1.04801,0.786097,0.236515,-0.221391,-0.0578211,-0.452745
0.052502,0.0564247,0.398295,-0.78269,1.03349,0.0965275,-0.254299,-0.0971849,-0.396552
0.0746713,0.0446659,0.399789,-0.399981,1.1735,-0.0125823,-0.30431,-0.111019,-0.296811
0.0975343,0.0404055,0.399105,-0.0189009,1.07603,-0.0900946,-0.36703,-0.107188,-0.173106
0.116177,0.0432267,0.396051,0.327103,0.748661,-0.191745,-0.440087,-0.0993038,-0.0579618
0.12742,0.0520533,0.389791,0.604371,0.355473,-0.33542,-0.509304,-0.0810726,0.0215554
0.131297,0.0640075,0.379155,0.699175,-0.00869165,-0.581235,-0.590979,-0.0589305,0.0896893
0.130296,0.0757143,0.362375,0.672302,-0.177251,-0.959625,-0.669122,-0.0323902,0.119527
0.128779,0.0853542,0.336836,0.619487,-0.159075,-1.45738,-0.692607,-0.00881983,0.146846
0.129904,0.0928226,0.301709,0.572609,-0.0473312,-1.90746,-0.627059,0.0517959,0.197038
0.134925,0.0983757,0.259607,0.535336,0.150078,-2.14371,-0.502366,0.124142,0.265539
0.143523,0.102844,0.215092,0.539294,0.242818,-2.17121,-0.395998,0.181337,0.343421
0.152494,0.10787,0.170998,0.616194,0.14651,-2.09691,-0.320516,0.202814,0.414901
0.157149,0.114363,0.128353,0.679769,-0.173305,-2.00177,-0.273919,0.204187,0.478815
0.1544,0.121759,0.087103,0.685245,-0.591329,-1.95189,-0.241104,0.189864,0.502914
0.143972,0.129317,0.0463399,0.666469,-0.957199,-1.94969,-0.200947,0.175527,0.466696
0.127653,0.137049,0.00582505,0.642305,-1.2008,-1.93481,-0.150588,0.19407,0.402226
0.107707,0.144403,-0.0341857,0.542633,-1.36586,-1.92211,-0.1011,0.202266,0.345201
0.0840776,0.149963,-0.0736017,0.392489,-1.55964,-1.92356,-0.0284248,0.187243,0.251321
0.0597722,0.153603,-0.112819,0.241284,-1.44445,-1.94708,-0.0180787,0.198761,0.132702
0.0396027,0.154278,-0.152981,0.00106282,-1.20141,-2.02323,0.0216231,0.179576,0.0618567
0.0236393,0.149519,-0.194146,-0.359757,-1.03148,-2.0601,0.102969,0.144843,0.0104324
0.0236393,0.149519,-0.194146,-0.359757,-1.03148,-2.0601,0.102969,0.144843,0.0104324
0.00303354,0.121718,-0.276244,-0.874623,-0.496786,-1.98748,0.176539,0.120685,-0.239199
0.000619543,0.103937,-0.314753,-0.867583,-0.18996,-1.84093,0.232752,0.0857141,-0.339381
0.00317615,0.0889788,-0.349389,-0.596656,0.0953191,-1.61256,0.284144,0.0503635,-0.416894
0.0087768,0.0804391,-0.378997,-0.253904,0.170101,-1.34728,0.31045,0.0228115,-0.399497
0.0133851,0.0772728,-0.403124,-0.0706941,0.108908,-1.08069,0.32273,-0.0301649,-0.315879
0.0171733,0.0753319,-0.422892,-0.12429,0.140707,-0.910934,0.294567,-0.0884813,-0.259468
0.0224351,0.0708625,-0.439709,-0.289993,0.278026,-0.78211,0.269585,-0.131467,-0.255614
0.0307139,0.0633799,-0.454279,-0.406991,0.437575,-0.697051,0.237175,-0.157183,-0.294135
0.0407898,0.0546272,-0.46715,-0.410175,0.464124,-0.62228,0.217675,-0.1795,-0.345691
0.0492786,0.0459731,-0.478711,-0.405243,0.328368,-0.579312,0.203525,-0.19588,-0.378292
0.0558163,0.0373871,-0.489152,-0.38738,0.306658,-0.492124,0.235237,-0.169515,-0.42294
0.0638821,0.0307757,-0.496359,-0.199908,0.511982,-0.242703,0.278965,-0.0952973,-0.458918
0.0775898,0.0300024,-0.497825,0.142034,0.868594,0.0949252,0.281227,-0.0308847,-0.405709
0.0979453,0.036354,-0.492921,0.430448,1.15154,0.448378,0.241341,-0.00769082,-0.229755
0.120013,0.0480759,-0.482086,0.613127,1.04515,0.752253,0.209988,-0.0197527,-0.0214931
0.135954,0.0641263,-0.466326,0.771653,0.581976,1.01564,0.194058,-0.0191391,0.12222
0.140922,0.0837006,-0.446275,0.881307,0.0899734,1.22373,0.155049,-0.00271604,0.188144
0.137307,0.104549,-0.423547,0.845269,-0.205397,1.28909,0.111079,-0.0143545,0.220775
0.129913,0.123377,-0.400348,0.709495,-0.235488,1.24433,0.0631334,-0.0103437,0.216443
0.123093,0.13899,-0.377852,0.567431,-0.154409,1.171,0.0517564,0.00653923,0.20323
0.117304,0.151888,-0.356174,0.471799,-0.120371,1.12742,0.0684244,0.0228865,0.198491
0.111045,0.163382,-0.334717,0.439054,-0.190539,1.1184,0.0878331,0.0495731,0.199478
0.102656,0.17461,-0.313112,0.461784,-0.268869,1.1279,0.107487,0.0585662,0.187984
0.0935471,0.18643,-0.29108,0.505079,-0.2262,1.15704,0.122701,0.0756257,0.184354
0.0855492,0.198776,-0.268253,0.518172,-0.141809,1.1914,0.12188,0.0944574,0.211633
0.0783196,0.210705,-0.244625,0.475441,-0.114097,1.20977,0.115248,0.0957762,0.243471
0.0709909,0.22124,-0.220967,0.405376,-0.118327,1.1705,0.0923881,0.0939966,0.246072
0.0640093,0.230376,-0.198467,0.367698,-0.0603097,1.08765,0.0780442,0.0925096,0.218596
0.059034,0.238735,-0.177363,0.331523,0.0340008,1.02492,0.077897,0.114403,0.209951
0.0551974,0.245438,-0.157355,0.213646,0.0573079,0.964521,0.0782894,0.1185,0.219744
0.0517719,0.248957,-0.138469,0.0366222,0.0552446,0.883856,0.07564,0.0999856,0.199088
0.0487229,0.24875,-0.121171,-0.134488,0.068436,0.793337,0.0590118,0.0952981,0.141914
0.0461707,0.245664,-0.105577,-0.236522,0.0615454,0.697293,0.0283058,0.0905206,0.0608614
0.0445267,0.240763,-0.0923678,-0.321542,0.0925761,0.566819,0.00871281,0.0762426,0.000390947
0.0438587,0.233462,-0.0812933,-0.466646,0.101491,0.483739,0.0096062,0.0768522,-0.0387607
0.0438338,0.22279,-0.0717788,-0.647533,0.104977,0.392342,0.00310066,0.0632829,-0.0760061
0.0436222,0.20859,-0.0642774,-0.789803,0.0218853,0.27723,-0.00677443,0.027363,-0.142465
0.0415698,0.192192,-0.0592678,-0.876757,-0.144441,0.150281,-0.0139372,0.0249346,-0.221134
0.0360154,0.174043,-0.0562868,-0.93817,-0.34518,0.0835941,-0.00529703,0.0167172,-0.324874
0.0279598,0.156176,-0.0543999,-0.834803,-0.409133,0.059287,0.00758608,0.0177394,-0.455596
0.0207964,0.142049,-0.0526608,-0.568115,-0.231957,0.0912228,-0.00207655,0.0389873,-0.550936
0.01929,0.133499,-0.0501675,-0.318526,0.10556,0.131044,-0.0532206,0.0520786,-0.533801
0.0226933,0.12814,-0.0480819,-0.248235,0.218439,0.037181,-0.103789,-0.0041374,-0.40001
0.0269432,0.123253,-0.0493181,-0.231875,0.198627,-0.177826,-0.141604,-0.0533738,-0.296093
0.0321754,0.119367,-0.0546367,-0.123675,0.27253,-0.342469,-0.174885,-0.025081,-0.249787
0.0388934,0.119071,-0.0619546,0.141124,0.324092,-0.371153,-0.178119,0.0317998,-0.195637
0.0477243,0.124625,-0.0697724,0.426942,0.467888,-0.383637,-0.185413,0.0592091,-0.092702
0.058958,0.133832,-0.0782329,0.501898,0.51893,-0.415685,-0.2119,0.0783642,0.0597399
0.0702389,0.142289,-0.0879655,0.384481,0.431132,-0.502976,-0.241042,0.0809876,0.180874
0.0786556,0.147703,-0.0997338,0.24556,0.247607,-0.62809,-0.279135,0.0883596,0.227921
0.0786556,0.147703,-0.0997338,0.24556,0.247607,-0.62809,-0.279135,0.0883596,0.227921
0.0838971,0.150433,-0.113627,0.155587,0.0912155,-0.711258,-0.280652,0.0996033,0.2294
0.0875527,0.152524,-0.128364,0.196954,0.0600236,-0.717612,-0.259003,0.106325,0.20781
0.0914086,0.156219,-0.142971,0.304364,0.116285,-0.686712,-0.233282,0.106955,0.223796
0.096314,0.161552,-0.157006,0.336365,0.137732,-0.648083,-0.215808,0.0881876,0.293547
0.100199,0.166423,-0.170336,0.268462,0.00921293,-0.622553,-0.202089,0.0580815,0.365591
0.100507,0.169708,-0.183412,0.193645,-0.211674,-0.636391,-0.187962,0.0208231,0.3937
0.0964057,0.171794,-0.197201,0.162352,-0.412629,-0.702857,-0.177725,-0.00965323,0.368308
0.0902219,0.173761,-0.212556,0.178628,-0.452362,-0.786783,-0.155881,-0.028131,0.314966
0.0848187,0.176113,-0.229256,0.200344,-0.380327,-0.827443,-0.110644,-0.0309577,0.277349
0.080967,0.179034,-0.246472,0.222744,-0.329306,-0.835943,-0.055538,-0.0402745,0.269443
0.0759613,0.181546,-0.26355,0.141288,-0.504096,-0.818394,-0.00393185,-0.0374822,0.28383
0.0669754,0.181846,-0.279587,0.00488292,-0.682122,-0.756588,0.0438278,-0.0546284,0.23532
0.0547544,0.180481,-0.294221,-0.0307856,-0.781622,-0.689459,0.0682627,-0.0639206,0.107253
0.0419628,0.179723,-0.307498,0.0208305,-0.702641,-0.621857,0.0857852,-0.0846557,-0.0182087
0.0319609,0.180025,-0.319274,0.0469406,-0.504087,-0.530409,0.12034,-0.103203,-0.102402
0.0254287,0.180641,-0.328576,0.0327726,-0.336739,-0.377912,0.158475,-0.0991941,-0.139484
0.0204288,0.180527,-0.33433,-0.0380379,-0.278957,-0.187038,0.176331,-0.0882131,-0.169593
0.0159825,0.179024,-0.336409,-0.100088,-0.197486,-0.039415,0.147054,-0.112168,-0.236429
0.0126935,0.176737,-0.337059,-0.128854,-0.169437,-0.0489362,0.0914016,-0.143456,-0.300966
0.00918072,0.174215,-0.338491,-0.107033,-0.176425,-0.0913281,0.108909,-0.173787,-0.361996
0.00801593,0.172807,-0.340456,-0.0351774,0.0535166,-0.0868397,0.145775,-0.152209,-0.403826
0.0127934,0.172207,-0.34107,-0.0445904,0.428318,0.0448157,0.205795,-0.108092,-0.37269
0.024026,0.169971,-0.33818,-0.213598,0.724148,0.233263,0.231755,-0.0769403,-0.286118
0.0383216,0.163571,-0.331658,-0.439495,0.753117,0.379645,0.205516,-0.0744624,-0.237339
0.0495797,0.154571,-0.322999,-0.45342,0.506683,0.419821,0.159466,-0.0818378,-0.281386
0.0553564,0.148138,-0.31384,-0.210085,0.188616,0.479905,0.159938,-0.0205096,-0.324632
0.0557865,0.148035,-0.302219,0.139976,0.071413,0.679013,0.199689,0.0537452,-0.30874
0.0566536,0.155113,-0.286375,0.465482,0.290946,0.935597,0.217799,0.107205,-0.229991
0.0621546,0.167484,-0.265581,0.620425,0.589037,1.18508,0.198215,0.133605,-0.0666473
0.0714404,0.181234,-0.24099,0.560438,0.741794,1.29806,0.120051,0.0990972,0.114399
0.0812566,0.192451,-0.216047,0.365029,0.682948,1.20863,0.0348943,0.0233267,0.233824
0.0891716,0.199808,-0.194148,0.19914,0.537003,0.986016,-0.0257125,-0.0248468,0.272948
0.0947548,0.204189,-0.177341,0.0956354,0.358393,0.697246,-0.0411797,-0.0466319,0.266169
0.0976525,0.206268,-0.165429,-0.00399009,0.175301,0.514877,0.011915,-0.0394546,0.248751
0.0975489,0.20625,-0.155238,-0.0813082,0.0325456,0.500562,0.0636512,-0.00163002,0.199006
0.0944677,0.205939,-0.14416,-0.0211376,-0.110848,0.590405,0.0789764,0.0419951,0.120303
0.0892063,0.208891,-0.13132,0.216409,-0.129955,0.684099,0.0623542,0.0611502,0.0655277
0.0845899,0.216994,-0.117441,0.462858,-0.0213936,0.735078,0.0252651,0.068445,0.102498
0.082768,0.22861,-0.103416,0.55238,0.150395,0.718958,-0.0195943,0.0847476,0.223654
0.0846552,0.239949,-0.090363,0.443657,0.341373,0.627846,-0.0560544,0.0976076,0.355308
0.0900013,0.247594,-0.0794057,0.218857,0.422648,0.495274,-0.0641287,0.0850839,0.444646
0.095455,0.250998,-0.0707875,0.0693567,0.318233,0.375727,-0.0469439,0.0837741,0.448859
0.0983574,0.253078,-0.0637682,0.0896836,0.141399,0.341289,-0.00556286,0.107639,0.415661
0.0982846,0.255997,-0.0568853,0.122851,0.0401401,0.34801,0.0279657,0.131674,0.389363
0.096134,0.258426,-0.0498627,0.0382935,-0.0913876,0.365884,0.0620781,0.137532,0.381168
0.0907876,0.25841,-0.0417499,-0.131755,-0.236062,0.414258,0.114801,0.130254,0.340028
0.0824936,0.254331,-0.0322989,-0.358026,-0.322004,0.470945,0.150963,0.122371,0.234011
0.0743663,0.246074,-0.0212312,-0.544754,-0.199911,0.536498,0.166099,0.0988988,0.0783712
0.0684097,0.234777,-0.00876207,-0.652165,-0.109155,0.596348,0.180971,0.0695551,-0.0715939
0.0632064,0.222025,0.00505881,-0.718753,-0.127067,0.66938,0.20717,0.0433252,-0.185079
0.055903,0.207617,0.0207383,-0.815229,-0.27677,0.791063,0.232695,0.0371985,-0.280938
0.0632064,0.222025,0.00505881,-0.718753,-0.127067,0.66938,0.20717,0.0433252,-0.185079
0.0453133,0.191321,0.0394247,-0.911295,-0.42404,0.964327,0.241936,0.0377665,-0.39105
0.0315901,0.173143,0.0616425,-0.982701,-0.535213,1.15536,0.236343,0.0203933,-0.516634
0.0170944,0.15466,0.0873761,-0.909645,-0.475198,1.33685,0.199663,-0.019357,-0.660503
0.00539162,0.138741,0.115538,-0.702117,-0.26456,1.4281,0.125016,-0.0466857,-0.744655
-0.00120745,0.126863,0.144444,-0.514761,-0.0380527,1.4394,0.0782394,-0.0748014,-0.691539
-0.00411652,0.117371,0.173394,-0.447258,0.0742891,1.44783,0.0776661,-0.0963841,-0.532386
-0.00562711,0.108133,0.202338,-0.473577,0.0811418,1.43728,0.0712375,-0.0979186,-0.394055
-0.00747365,0.0982689,0.230821,-0.484832,0.0235196,1.41134,0.0625828,-0.0870546,-0.319901
-0.0100508,0.0894394,0.259238,-0.348912,-0.00565134,1.44497,0.0727241,-0.0501909,-0.291111
-0.0117587,0.0849665,0.289099,-0.0411638,0.123526,1.55544,0.0730716,0.0149791,-0.268142
-0.00978563,0.0874756,0.32186,0.327586,0.354999,1.71661,0.0689674,0.0740737,-0.187022
-0.00382561,0.0966182,0.35785,0.586925,0.575472,1.86402,0.0483634,0.10869,-0.0476857
0.00554038,0.109136,0.396222,0.62197,0.713861,1.94375,-0.00495807,0.119509,0.110673
0.0148003,0.120866,0.434723,0.502238,0.639601,1.88628,-0.0721869,0.0885437,0.230618
0.0204483,0.13028,0.470847,0.399457,0.364973,1.72049,-0.117716,0.0732562,0.281296
0.019925,0.139017,0.503315,0.43499,0.0146456,1.52753,-0.127687,0.0780231,0.290159
0.0133003,0.149521,0.532282,0.574753,-0.242624,1.37225,-0.11154,0.102837,0.288224
0.00315305,0.162251,0.558534,0.66153,-0.345996,1.24033,-0.0908954,0.119395,0.314391
-0.00721546,0.175304,0.582167,0.636669,-0.273141,1.08829,-0.076788,0.111846,0.338453
-0.015212,0.186721,0.602673,0.522676,-0.162512,0.919635,-0.0651616,0.104568,0.363242
-0.0211201,0.195423,0.619989,0.382351,-0.12302,0.771264,-0.0423175,0.103163,0.365635
-0.0265042,0.201688,0.634469,0.290651,-0.125171,0.640917,-0.00949751,0.112189,0.322464
-0.0307229,0.206875,0.646807,0.260994,-0.0288147,0.565032,0.0218234,0.132741,0.250829
-0.0312161,0.211299,0.65811,0.207487,0.223884,0.541723,0.0381157,0.149885,0.204105
-0.0266918,0.214397,0.669374,0.136952,0.46413,0.548538,0.0484928,0.137014,0.186046
-0.0177246,0.216223,0.680448,0.0721203,0.642739,0.5343,0.0432356,0.119525,0.183257
-0.00729495,0.21666,0.691695,-0.0192734,0.609046,0.579442,0.0400833,0.115375,0.209993
0.000117323,0.215425,0.704571,-0.0927134,0.385356,0.685582,0.0347212,0.104082,0.21448
0.00233074,0.213349,0.719155,-0.109654,0.172354,0.717829,-0.00687078,0.0683626,0.166183
0.00213705,0.210899,0.733192,-0.152724,0.131449,0.651833,-0.03778,0.0293614,0.102307
0.00289331,0.20693,0.74568,-0.253522,0.225989,0.583109,-0.0363856,0.0153018,0.0474029
0.00653815,0.200809,0.757667,-0.365502,0.374243,0.611377,-0.0156383,0.0362849,0.00823539
0.0120381,0.193185,0.771446,-0.391522,0.436039,0.745484,-0.00833482,0.0485679,-0.0299801
0.0174462,0.186431,0.788162,-0.289835,0.414437,0.880018,-0.0457685,0.0322917,-0.0679993
0.0220336,0.182817,0.806632,-0.11537,0.38834,0.918713,-0.0940371,-0.0126885,-0.0687525
0.0264723,0.181803,0.825114,-0.0573456,0.415605,0.895791,-0.137117,-0.043455,-0.0190684
0.0325062,0.180567,0.842877,-0.133102,0.505544,0.84926,-0.163793,-0.0579001,0.0468515
0.0401266,0.177371,0.859505,-0.236662,0.554819,0.777081,-0.176266,-0.0698041,0.0822888
0.0486167,0.172845,0.874923,-0.269381,0.549957,0.727708,-0.157813,-0.0763357,0.0839111
0.0566973,0.168769,0.889796,-0.205178,0.519221,0.727379,-0.136092,-0.0606535,0.0655529
0.0641682,0.166285,0.905187,-0.147202,0.477233,0.780388,-0.114555,-0.0421219,0.0797426
0.0697287,0.164316,0.921618,-0.165495,0.341259,0.823283,-0.0916372,-0.0538909,0.0897545
0.0719539,0.161999,0.938757,-0.179425,0.163792,0.850165,-0.0677462,-0.0660033,0.0450221
0.0713869,0.160197,0.956554,-0.122255,0.0881102,0.904775,-0.0459684,-0.0439631,-0.0490862
0.0698565,0.159906,0.975712,-0.0429488,0.0643788,0.982112,-0.0246129,-0.0280609,-0.117689
0.0675989,0.160572,0.996085,-0.0557742,0.0246522,1.02958,-0.00222529,-0.0353988,-0.142545
0.0637451,0.159846,1.01748,-0.146262,-0.0313154,1.08107,0.00359268,-0.0353381,-0.175474
0.0597321,0.15761,1.03922,-0.212735,-0.0498105,1.03939,-0.0399289,-0.0228206,-0.222606
0.0555078,0.154385,1.0594,-0.212707,-0.0251383,0.931775,-0.0557044,-0.0371153,-0.284793
0.0527072,0.151519,1.07743,-0.161487,0.0537979,0.854198,-0.0315561,-0.0307466,-0.300382
0.0527072,0.151519,1.07743,-0.161487,0.0537979,0.854198,-0.0315561,-0.0307466,-0.300382
0.0536369,0.15031,1.09463,-0.0519563,0.312343,0.855329,0.00592275,0.00295523,-0.269686
0.0598841,0.151074,1.11241,0.00736988,0.575434,0.913148,0.053428,0.0104239,-0.168771
0.0698585,0.152016,1.13168,-0.0539152,0.680283,0.999899,0.0725591,0.0136136,-0.0241818
0.079429,0.151725,1.15259,-0.1234,0.562315,1.05617,0.0791131,-0.0023293,0.0893228
0.0851086,0.150905,1.17442,-0.124143,0.349969,1.09591,0.0943202,-0.00819093,0.148296
0.0875409,0.150909,1.19747,-0.0698313,0.267206,1.19327,0.119177,0.0156018,0.170289
0.089146,0.152366,1.22303,-0.0159073,0.27595,1.35159,0.155106,0.043455,0.204827
0.089841,0.154965,1.25211,0.000502798,0.225177,1.54247,0.185449,0.0454432,0.253258
0.0870169,0.157385,1.28493,-0.0488403,-0.00903709,1.71411,0.213728,0.0124943,0.284853
0.0784523,0.158949,1.32081,-0.0967755,-0.289921,1.83072,0.235635,-0.0284717,0.262998
0.064569,0.158985,1.35854,-0.173617,-0.467352,1.88806,0.249095,-0.0604952,0.187296
0.049685,0.156881,1.39692,-0.24977,-0.40217,1.88078,0.237658,-0.0884673,0.0606278
0.0373272,0.153053,1.43396,-0.289366,-0.264156,1.75332,0.217085,-0.122202,-0.0530124
0.0277512,0.148082,1.46794,-0.295047,-0.199032,1.6136,0.236701,-0.135555,-0.137057
0.0181797,0.143986,1.49992,-0.170304,-0.341734,1.56275,0.265396,-0.106694,-0.209669
0.00405696,0.143197,1.53164,0.0730353,-0.602947,1.59465,0.291303,-0.0755998,-0.299916
-0.0126523,0.147383,1.564,0.370771,-0.534492,1.61145,0.267123,-0.0565192,-0.387248
-0.0238563,0.157058,1.59638,0.635443,-0.0694918,1.5659,0.211259,-0.0296682,-0.399049
-0.0249947,0.170484,1.62729,0.764006,0.448387,1.44808,0.160174,-0.0341067,-0.292683
-0.0176458,0.185253,1.6553,0.754259,0.737856,1.28217,0.123071,-0.0312438,-0.113516
-0.00655452,0.199512,1.68005,0.702173,0.804313,1.14086,0.109452,-0.0149897,0.0335024
0.00411108,0.2129,1.70204,0.630369,0.678508,1.0159,0.110743,0.00139511,0.138577
0.0116873,0.224932,1.72185,0.53758,0.505246,0.933647,0.119696,0.0142545,0.194668
0.0154767,0.234421,1.74009,0.376849,0.301714,0.870146,0.124992,0.0311231,0.220351
0.0166084,0.240764,1.75754,0.241303,0.244828,0.845439,0.122772,0.0454818,0.176131
0.0179893,0.245159,1.77446,0.178327,0.310851,0.803071,0.101782,0.0564769,0.110887
0.0211031,0.248411,1.79048,0.1108,0.387037,0.76106,0.0822531,0.0655207,0.082095
0.0256268,0.250205,1.80575,0.0391436,0.443805,0.733772,0.0699768,0.0642381,0.0466074
0.0312005,0.251192,1.82075,0.0335923,0.48318,0.726069,0.0407064,0.0709307,0.000417888
0.0370805,0.252901,1.83558,0.0905137,0.476138,0.724443,0.0129202,0.0773016,-0.0250134
0.0428248,0.256002,1.85064,0.156836,0.48351,0.75208,0.0104329,0.064509,-0.02777
0.0486389,0.260151,1.86622,0.177035,0.499558,0.772309,-0.0184803,0.0594728,-0.00636458
0.0546638,0.264299,1.88204,0.153331,0.505529,0.779385,-0.0354816,0.0397057,0.0297215
0.0596458,0.267692,1.8978,0.0950341,0.397346,0.756197,-0.0649947,0.0187173,0.0624464
0.0623431,0.269838,1.91264,0.030027,0.264158,0.691043,-0.0858508,-0.00245214,0.0658082
0.0628391,0.270846,1.92648,-0.00259828,0.165188,0.656281,-0.0902325,-0.0110787,0.0406989
0.0621111,0.271975,1.9398,0.0430588,0.124244,0.638019,-0.097845,-0.00935042,0.00728333
0.0607329,0.274189,1.9527,0.0946416,0.0910438,0.619176,-0.0999016,-0.0231028,0.0106446
0.0591479,0.276595,1.96515,0.0507068,0.091646,0.585898,-0.100797,-0.045232,0.0480161
0.0577912,0.276648,1.97661,-0.134342,0.0743392,0.511972,-0.109564,-0.0608518,0.0929693
0.0548761,0.271703,1.98617,-0.410722,-0.143471,0.366622,-0.121409,-0.0956568,0.113614
0.0475166,0.261701,1.99208,-0.615008,-0.448252,0.142873,-0.144331,-0.108768,0.0433674
0.0359074,0.248141,1.99352,-0.724613,-0.622952,-0.0419959,-0.128016,-0.0992312,-0.0932353
0.0251191,0.233846,1.9925,-0.681471,-0.441208,-0.0759687,-0.0803258,-0.0478662,-0.223691
0.0199321,0.222676,1.99216,-0.398718,-0.0716286,0.0389588,-0.00590414,-0.0153044,-0.302472
0.0204195,0.218991,1.99514,0.0194669,0.142147,0.248396,0.0339484,0.0168515,-0.248558
0.0215021,0.222592,2.00172,0.288862,0.0706168,0.389447,0.0205187,0.00119925,-0.08169
0.0188531,0.229413,2.00976,0.348191,-0.167193,0.389975,-0.0164812,-0.0260726,0.0763949
0.0116499,0.235989,2.01681,0.275014,-0.377101,0.304054,-0.0406846,-0.027777,0.152485
0.00166384,0.240162,2.02188,0.141576,-0.466325,0.19392,-0.0412126,-0.0282836,0.153152
-0.00779832,0.242216,2.02455,0.0783138,-0.419813,0.0666904,-0.0473305,-2.89381e-05,0.102127
-0.0155873,0.244074,2.02489,0.115831,-0.349185,-0.0273906,-0.0210538,0.0311477,0.0492079
-0.0217957,0.246942,2.0238,0.162644,-0.29937,-0.0784185,0.0164789,0.0671942,0.0366337
-0.0269026,0.250179,2.02195,0.141999,-0.257486,-0.115484,0.0394134,0.0966529,0.0470392
-0.0309013,0.252133,2.01886,0.0277493,-0.226184,-0.191465,0.0506868,0.0950818,0.0515689
-0.0346458,0.250878,2.01434,-0.175796,-0.268144,-0.22827,0.0961003,0.105325,0.0433241
-0.0393206,0.246055,2.00993,-0.300499,-0.299656,-0.174777,0.128916,0.12328,-0.0306552
-0.0446816,0.240248,2.00694,-0.277501,-0.321405,-0.0836653,0.144412,0.132871,-0.119809
-0.0507887,0.235791,2.00619,-0.1575,-0.279607,0.0361736,0.148499,0.128434,-0.192498
-0.0549291,0.234386,2.00802,0.0275747,-0.0711581,0.144605,0.121836,0.12223,-0.227769
-0.0547548,0.236512,2.01209,0.1993,0.169649,0.232197,0.0826534,0.115814,-0.184737
-0.0512346,0.241244,2.01774,0.286629,0.302509,0.281692,0.0358132,0.101459,-0.0835773
-0.046,0.246901,2.02373,0.299523,0.354478,0.271564,-0.00791615,0.0780639,0.0169581
-0.0403286,0.252374,2.02905,0.263537,0.338781,0.22008,-0.0435401,0.0639737,0.0840511
-0.0350855,0.256641,2.03316,0.170603,0.28425,0.159599,-0.0769715,0.0615269,0.130746
-0.0306376,0.258677,2.03592,0.042617,0.238954,0.100561,-0.0904272,0.0501439,0.151945
-0.026716,0.258041,2.03722,-0.107757,0.179906,0.0254302,-0.10175,0.042601,0.162256
-0.0237701,0.254524,2.03687,-0.243909,0.100734,-0.0474353,-0.105126,0.0345449,0.146831
-0.0220249,0.248845,2.03526,-0.314883,0.0402153,-0.0926187,-0.0946373,0.0289536,0.0984486
-0.0208643,0.242368,2.03308,-0.332505,0.0323183,-0.0971022,-0.0847884,0.0368463,0.0510665
-0.0192234,0.236004,2.03133,-0.305332,0.10091,-0.0579523,-0.0732143,0.0346155,0.0175869
-0.0166106,0.230294,2.03044,-0.266463,0.133289,-0.020086,-0.069644,0.0173413,0.00590527
-0.0140194,0.225524,2.03027,-0.206849,0.118638,0.0121203,-0.0702746,-0.0057835,0.00795227
-0.0117257,0.222127,2.03062,-0.141616,0.110974,0.0257563,-0.07862,-0.0240955,0.0221018
-0.0100237,0.219546,2.03109,-0.129263,0.0692451,0.0207384,-0.0868357,-0.04442,0.049632
-0.0100237,0.219546,2.03109,-0.129263,0.0692451,0.0207384,-0.0868357,-0.04442,0.049632
-0.00886749,0.216785,2.03125,-0.150887,0.0629111,-0.00714393,-0.100349,-0.0623137,0.0562676
-0.00715187,0.213596,2.03044,-0.173135,0.136554,-0.0821521,-0.11621,-0.0786434,0.0461435
-0.00308995,0.210127,2.02807,-0.188825,0.24518,-0.150484,-0.121886,-0.0824007,0.0434447
0.00256701,0.206655,2.02468,-0.184235,0.287008,-0.185236,-0.110239,-0.0851109,0.0545099
0.00820772,0.20343,2.02072,-0.180469,0.238642,-0.217029,-0.108212,-0.0882233,0.0627663
0.0121478,0.200724,2.01625,-0.120368,0.128589,-0.237769,-0.0989702,-0.0967337,0.0489726
0.0150034,0.199012,2.01101,-0.0570291,0.0694159,-0.277537,-0.0894595,-0.0911936,0.036045
0.0178796,0.197581,2.00533,-0.0919503,0.120295,-0.275072,-0.0715316,-0.0761632,0.0375318
0.0222532,0.194994,1.99995,-0.147854,0.215758,-0.25973,-0.0640202,-0.0731004,0.0271012
0.0281349,0.191832,1.99468,-0.14753,0.257723,-0.270508,-0.0611082,-0.0739453,0.0144255
0.03403,0.189122,1.98949,-0.112702,0.223019,-0.245596,-0.0511933,-0.0702123,0.0187256
0.0386465,0.186839,1.98465,-0.105325,0.154905,-0.244225,-0.0505529,-0.071921,0.0306144
0.0424724,0.184096,1.97967,-0.162834,0.140143,-0.257293,-0.0476473,-0.0788742,0.0335766
0.046597,0.179676,1.97462,-0.250598,0.188849,-0.260035,-0.0539327,-0.0794984,0.0106199
0.051534,0.174228,1.96947,-0.254209,0.199756,-0.27891,-0.0580402,-0.0897746,-0.0345132
0.0557782,0.169493,1.96422,-0.190396,0.133152,-0.261462,-0.0343358,-0.0967902,-0.0732965
0.0586167,0.166055,1.95957,-0.134774,0.0830183,-0.217665,-0.0215986,-0.0922907,-0.107231
0.0609549,0.163211,1.95567,-0.131845,0.100976,-0.188247,-0.0374635,-0.0920747,-0.142807
0.0639774,0.160078,1.95215,-0.163453,0.144011,-0.178342,-0.0446379,-0.094969,-0.183186
0.0677294,0.156422,1.94878,-0.174002,0.1869,-0.18445,-0.0690486,-0.0982285,-0.245843
0.0725882,0.152787,1.94481,-0.167652,0.216905,-0.242276,-0.10177,-0.0994698,-0.297837
0.0766633,0.148928,1.93947,-0.18185,0.104025,-0.320475,-0.117443,-0.0933667,-0.334882
0.078675,0.14458,1.93239,-0.19507,-0.00322342,-0.412446,-0.120666,-0.0761686,-0.378057
0.0797932,0.14046,1.92378,-0.145891,0.0118574,-0.46437,-0.0871633,-0.0410473,-0.418959
0.0818537,0.137271,1.91491,-0.113286,0.0589527,-0.425679,-0.051147,0.0228417,-0.393003
0.0835824,0.134478,1.90738,-0.107178,-0.00082303,-0.345312,-0.0229321,0.070001,-0.324057
0.083594,0.131939,1.90103,-0.0904975,-0.0789479,-0.320372,-0.0253521,0.0839797,-0.277549
0.082881,0.130556,1.89468,0.0323171,-0.0492655,-0.310131,-0.000843786,0.0856907,-0.253094
0.0846822,0.133596,1.88882,0.329392,0.173223,-0.239817,0.0571792,0.101446,-0.174404
0.0909285,0.141822,1.88435,0.489497,0.369734,-0.114556,0.103041,0.113637,0.0156099
0.0975535,0.151257,1.88299,0.439524,0.225038,0.0644806,0.143734,0.0921329,0.208827
0.0968006,0.158873,1.88468,0.305221,-0.281624,0.159989,0.145611,0.0430474,0.278041
0.0857942,0.163671,1.88691,0.155915,-0.765775,0.0819022,0.0957999,0.0011372,0.23818
0.0688282,0.166135,1.88636,0.115327,-0.880701,-0.131779,0.0652908,-0.0244473,0.100595
0.0536286,0.168285,1.88128,0.134818,-0.67391,-0.342426,0.0837053,0.0101736,-0.00313848
0.0458993,0.170848,1.87353,0.159483,-0.233683,-0.390463,0.140851,0.0547841,-0.0416743
0.0456326,0.173871,1.86603,0.18592,0.0433992,-0.324885,0.19645,0.072777,-0.0108691
0.0484237,0.17833,1.86035,0.29643,0.10736,-0.217488,0.200791,0.0675229,0.0304273
0.0511091,0.185578,1.85617,0.450193,0.0971516,-0.171455,0.15789,0.0600793,0.0773716
0.0545981,0.195491,1.8521,0.54686,0.186901,-0.185638,0.125088,0.047794,0.14012
0.0604929,0.206275,1.84741,0.542771,0.313734,-0.209922,0.111236,0.0569576,0.21964
0.0689862,0.216207,1.84236,0.475283,0.408902,-0.21462,0.106456,0.0725591,0.280913
0.0777106,0.224439,1.83756,0.383162,0.344688,-0.182286,0.130919,0.0784557,0.317482
0.0841525,0.231461,1.83417,0.351987,0.217383,-0.0870493,0.15087,0.08496,0.306512
0.0875871,0.238578,1.83289,0.368645,0.0908602,0.0258428,0.137323,0.0969325,0.281732
0.0873535,0.245539,1.83369,0.306301,-0.0830117,0.099679,0.109542,0.0820833,0.271087
0.0850911,0.250606,1.83522,0.17738,-0.0773463,0.0766879,0.0547056,0.0484826,0.223024
0.0847244,0.252518,1.83557,0.0065699,0.0618687,-0.025223,0.0177158,0.0219677,0.168213
0.0873305,0.250724,1.83432,-0.172541,0.140638,-0.0990919,0.0199235,0.00652862,0.129119
0.0897664,0.245759,1.8325,-0.296147,0.0183167,-0.114301,0.0287246,0.00325702,0.080992
0.0878421,0.239087,1.83081,-0.34216,-0.248382,-0.105099,0.0322896,-0.00122151,-0.0119429
0.081414,0.232215,1.82927,-0.316833,-0.399209,-0.0996215,0.0295929,-0.00329487,-0.144978
0.0748646,0.226964,1.82807,-0.182629,-0.2355,-0.0511845,0.0401454,0.00379889,-0.277551
0.0730045,0.224917,1.82805,-0.0367478,0.04101,0.0412539,0.0440861,0.038257,-0.291822
0.0730045,0.224917,1.82805,-0.0367478,0.04101,0.0412539,0.0440861,0.038257,-0.291822
0.0746251,0.224737,1.83013,-0.0258551,0.11646,0.157348,0.0475431,0.0505475,-0.181806
0.0748454,0.223706,1.83382,-0.110523,-0.0125097,0.175203,0.0290469,0.0144318,-0.0886829
0.0735034,0.220678,1.83692,-0.218606,-0.0496767,0.095677,0.0193013,-0.0369983,-0.0668024
0.0719148,0.21497,1.83798,-0.365495,-0.105558,-0.0325716,0.0246802,-0.0871886,-0.081649
0.0682712,0.206198,1.83765,-0.513637,-0.272221,-0.0469746,0.066009,-0.0938133,-0.12376
0.0612842,0.194253,1.83745,-0.706958,-0.453501,-0.058698,0.0344343,-0.0597134,-0.191167
0.0491991,0.177485,1.83597,-0.943415,-0.803424,-0.205517,-0.0647488,-0.0820975,-0.315454
0.031988,0.158998,1.82986,-0.82524,-0.944726,-0.486482,-0.103082,-0.111904,-0.525967
0.0180052,0.145599,1.8178,-0.468926,-0.577661,-0.707546,-0.102622,-0.0416061,-0.664428
0.0159046,0.140205,1.8035,-0.0594873,0.16526,-0.687885,-0.0788734,0.0551972,-0.613209
0.0267793,0.141745,1.79079,0.205725,0.684495,-0.578115,-0.0613433,0.099141,-0.380059
0.0441846,0.147094,1.77961,0.362831,0.840186,-0.525202,-0.0881573,0.0825539,-0.121094
0.0613171,0.155142,1.76838,0.490662,0.665382,-0.558252,-0.140316,0.089518,0.0663025
0.0722084,0.164499,1.75572,0.518779,0.224873,-0.625167,-0.139958,0.0947275,0.191343
0.0741877,0.173223,1.74189,0.442732,-0.250823,-0.669039,-0.108807,0.106806,0.252955
0.0689462,0.179919,1.7278,0.332089,-0.462642,-0.659801,-0.0991821,0.145014,0.207671
0.0626002,0.184882,1.71444,0.266932,-0.400358,-0.624042,-0.114411,0.178795,0.131789
0.0584929,0.189733,1.70144,0.317202,-0.252043,-0.631994,-0.115928,0.168729,0.0861034
0.0570267,0.196399,1.68803,0.432053,-0.166977,-0.651782,-0.107032,0.156351,0.107493
0.0565636,0.204966,1.67407,0.486013,-0.173827,-0.670775,-0.0930545,0.141537,0.191858
0.0550615,0.213291,1.65981,0.410434,-0.283538,-0.684048,-0.0809319,0.116722,0.277525
0.0514054,0.219521,1.64516,0.290945,-0.389227,-0.71963,-0.0733124,0.089619,0.306988
0.0466163,0.223507,1.62969,0.193707,-0.416708,-0.776497,-0.0754848,0.0753953,0.280204
0.0426812,0.226272,1.61297,0.17208,-0.333063,-0.843303,-0.0727238,0.0600397,0.226353
0.0411071,0.229053,1.59495,0.173697,-0.250736,-0.898161,-0.0551588,0.0578206,0.20864
0.040389,0.231533,1.57617,0.144583,-0.261119,-0.916708,-0.0289093,0.0546194,0.209094
0.0386672,0.233381,1.55766,0.115255,-0.342705,-0.87686,0.00351287,0.0548157,0.193736
0.0356306,0.234926,1.54009,0.0999589,-0.356757,-0.838366,0.00504362,0.0513742,0.155951
0.0330541,0.236027,1.5231,0.067639,-0.300392,-0.809475,-0.00442187,0.0452273,0.131854
0.0311724,0.236754,1.50676,0.0628623,-0.26618,-0.79268,-0.0115906,0.0408385,0.122267
0.0299988,0.237425,1.49051,0.0478294,-0.243992,-0.785838,-0.00598998,0.0384386,0.13751
0.0290097,0.237315,1.47464,-0.0237521,-0.213624,-0.773922,0.00780284,0.0262313,0.166205
0.0294054,0.234866,1.45849,-0.193536,-0.134174,-0.811735,0.00879007,-0.00161648,0.192691
0.0309343,0.228347,1.44179,-0.401753,-0.105004,-0.827117,0.0254613,-0.0343286,0.190892
0.0323004,0.218831,1.42527,-0.479909,-0.125138,-0.81512,0.0458375,-0.0592484,0.137645
0.0331646,0.208886,1.40935,-0.46039,-0.112544,-0.771953,0.056399,-0.0652282,0.0717188
0.03423,0.199227,1.39467,-0.471394,-0.0901475,-0.702088,0.0781327,-0.0829113,0.0333872
0.0345494,0.188759,1.38165,-0.530811,-0.131574,-0.607812,0.106055,-0.096921,-0.00269282
0.0335347,0.177639,1.3709,-0.533292,-0.161633,-0.488398,0.112278,-0.0894528,-0.084939
0.0322264,0.167572,1.36256,-0.433242,-0.0998925,-0.363875,0.118072,-0.0925035,-0.182686
0.0316263,0.16013,1.35713,-0.298487,-0.0396882,-0.18987,0.130298,-0.0797806,-0.233288
0.0320067,0.155179,1.35549,-0.202229,0.0403703,0.0108323,0.124984,-0.0824733,-0.260767
0.0324944,0.151831,1.35751,-0.14303,0.0290094,0.170499,0.101506,-0.107891,-0.282397
0.0320337,0.149776,1.36189,-0.080086,-0.00177165,0.241246,0.0430526,-0.133514,-0.321777
0.031898,0.148736,1.36679,-0.0456585,0.0760917,0.233751,-0.00308284,-0.148138,-0.35682
0.034504,0.148129,1.37081,-0.0272072,0.266077,0.148579,-0.0429084,-0.155452,-0.37859
0.0415992,0.147774,1.37261,-0.0248639,0.450583,0.0369939,-0.0417748,-0.142253,-0.357976
0.0515117,0.147254,1.37314,-0.0221605,0.542066,0.0317901,0.00338959,-0.110571,-0.313099
0.0624778,0.147221,1.37434,0.0230634,0.566252,0.0897746,0.0317747,-0.0831384,-0.271628
0.0732957,0.148619,1.37665,0.10122,0.550867,0.143053,0.0376846,-0.0751938,-0.216621
0.0832738,0.151397,1.37977,0.147305,0.486094,0.191502,0.0457647,-0.0595533,-0.141131
0.0918209,0.15537,1.38418,0.225797,0.458183,0.285943,0.0582316,-0.0234008,-0.0867336
0.100786,0.161989,1.39057,0.374445,0.571032,0.414054,0.055762,0.0326044,-0.029849
0.11321,0.171845,1.39956,0.497243,0.827462,0.580587,0.0602956,0.0664316,0.0773678
0.11321,0.171845,1.39956,0.497243,0.827462,0.580587,0.0602956,0.0664316,0.0773678
0.12828,0.183468,1.41169,0.497567,0.817468,0.743906,0.0623744,0.0652377,0.242243
0.139111,0.194457,1.42661,0.366331,0.488175,0.844765,0.0621931,0.0422937,0.361598
0.141188,0.201642,1.44327,0.0970504,0.0729196,0.858317,0.0456344,0.000540376,0.381322
0.135769,0.203168,1.45999,-0.149163,-0.251627,0.776785,0.020813,-0.0363401,0.29209
0.126065,0.201341,1.47497,-0.199091,-0.406472,0.6578,0.0238732,-0.0340406,0.149468
0.113978,0.199027,1.4878,-0.185878,-0.548632,0.57839,0.0524388,5.35697e-05,0.0382758
0.0998567,0.196364,1.49983,-0.209883,-0.624732,0.582144,0.088489,0.0338344,-0.0383093
0.0866302,0.193809,1.51229,-0.129839,-0.404413,0.610151,0.0970133,0.0527667,-0.145235
0.080588,0.194346,1.52476,0.0944345,0.0497333,0.619651,0.0697269,0.0755867,-0.176444
0.0831642,0.199312,1.53728,0.286133,0.406404,0.644639,0.0492525,0.0964474,-0.0658482
0.0899277,0.207103,1.54984,0.361185,0.492562,0.640548,0.0220522,0.0965859,0.118628
0.0967595,0.21515,1.56172,0.313829,0.419165,0.593571,-0.0206965,0.105218,0.284386
0.101585,0.221884,1.57265,0.254979,0.297716,0.536156,-0.0315571,0.101568,0.366345
0.103927,0.227543,1.5826,0.207528,0.15488,0.503549,0.00211436,0.100935,0.3922
0.10362,0.232162,1.59274,0.142998,0.0546841,0.536649,0.0297418,0.114085,0.38357
0.101533,0.235261,1.6038,0.0521345,-0.00366286,0.564837,0.0389613,0.101322,0.340935
0.0984465,0.236497,1.61527,-0.0404327,-0.0298445,0.556104,0.0391224,0.0691372,0.285176
0.0954087,0.235612,1.62626,-0.158149,-0.0226588,0.499405,0.0419658,0.042047,0.232888
0.0927133,0.232109,1.63628,-0.284939,-0.0147444,0.446626,0.0465447,0.0325207,0.163889
0.0898967,0.226189,1.64565,-0.37496,-0.0578336,0.419223,0.0599263,0.0342021,0.0836605
0.0866094,0.219605,1.6551,-0.342256,-0.0498977,0.45055,0.0692476,0.048029,-0.0140943
0.084217,0.214933,1.66531,-0.194736,0.0493175,0.504519,0.0443286,0.0641427,-0.0924814
0.0853982,0.213799,1.67592,-0.0149043,0.304153,0.5122,0.000433594,0.0599066,-0.109642
0.0910013,0.215188,1.68599,0.0394538,0.433501,0.485275,-0.0221294,0.0491631,-0.0266024
0.0968084,0.216402,1.69597,-0.0155061,0.344215,0.510095,0.00790733,0.0250964,0.0431634
0.0999562,0.216622,1.70677,-0.0695046,0.193133,0.526278,-0.00775116,-0.000980243,0.0220015
0.0995711,0.215028,1.71689,-0.215995,-0.0288099,0.430929,-0.0463665,-0.0476571,-0.0285705
0.0947067,0.208485,1.72504,-0.530419,-0.286928,0.306489,-0.0487247,-0.0825878,-0.1166
0.0856837,0.195229,1.73135,-0.834479,-0.467721,0.183004,-0.0517876,-0.082223,-0.270002
0.0759597,0.176938,1.7353,-0.992014,-0.379639,0.0720124,-0.0208231,-0.0836277,-0.44997
0.0712459,0.15781,1.73775,-0.905954,-0.0367645,0.0365205,0.00634381,-0.0691019,-0.591988
0.07314,0.141942,1.7396,-0.688502,0.224171,0.0414638,0.0157949,-0.0670153,-0.601189
0.0777759,0.130359,1.74164,-0.504251,0.23015,0.0731808,0.0380893,-0.0861349,-0.488365
0.0809238,0.121183,1.74407,-0.450251,0.0975059,0.0882748,0.0372958,-0.105401,-0.354393
0.0804411,0.111855,1.7462,-0.515162,-0.135334,0.0297941,0.00704665,-0.128735,-0.28081
0.0751144,0.100422,1.74619,-0.621565,-0.386132,-0.136461,-0.0296065,-0.160031,-0.288865
0.0659065,0.0871562,1.74216,-0.656383,-0.543282,-0.353475,-0.0566671,-0.137151,-0.37841
0.0573658,0.07502,1.73481,-0.475877,-0.315915,-0.423844,-0.02574,-0.0469681,-0.497327
0.0563187,0.0689206,1.72731,-0.0618682,0.194863,-0.336382,0.0214967,0.0331452,-0.51804
0.0660071,0.0722841,1.72232,0.413494,0.701752,-0.133705,0.0439696,0.0826276,-0.354637
0.0813748,0.0836451,1.72093,0.703426,0.757051,0.0755813,0.0139394,0.0968838,-0.064533
0.0934578,0.0997862,1.72276,0.879029,0.446321,0.239006,-0.0275346,0.0744284,0.160422
0.0964754,0.118453,1.72665,0.926342,-0.146636,0.312113,-0.0753566,0.0559657,0.314059
0.0874702,0.137404,1.73107,0.905894,-0.63515,0.268627,-0.149798,0.0511868,0.343905
0.0724865,0.154389,1.73289,0.76016,-0.782658,0.0284685,-0.231962,0.0420514,0.321418
0.0582572,0.167287,1.72954,0.552155,-0.683077,-0.271577,-0.248802,0.057667,0.3106
0.0484396,0.176042,1.721,0.379366,-0.42007,-0.512476,-0.212513,0.0857477,0.298865
0.0455969,0.181763,1.70868,0.255863,-0.115024,-0.650852,-0.148895,0.112008,0.320792
0.0461219,0.185388,1.69515,0.187858,-0.122804,-0.64435,-0.0659607,0.120424,0.361153
0.0444489,0.189185,1.68265,0.276597,-0.285938,-0.566682,-0.0155652,0.119027,0.355608
0.0396119,0.19595,1.67157,0.448653,-0.393862,-0.49383,-0.00927216,0.129849,0.322181
0.0333657,0.206065,1.66204,0.592913,-0.412269,-0.408592,-0.0112914,0.136967,0.311887
0.0270821,0.218354,1.65377,0.641983,-0.400105,-0.377118,-0.0318222,0.130502,0.333045
0.0206885,0.230107,1.64518,0.530071,-0.423934,-0.45011,-0.0781251,0.128121,0.354507
0.0206885,0.230107,1.64518,0.530071,-0.423934,-0.45011,-0.0781251,0.128121,0.354507
0.0148406,0.237971,1.63449,0.256244,-0.426108,-0.589086,-0.120684,0.141706,0.355043
0.00920546,0.239639,1.62059,-0.0635963,-0.450054,-0.767366,-0.138169,0.138612,0.298577
0.0056494,0.235869,1.60276,-0.283161,-0.310483,-0.978834,-0.152588,0.123977,0.198752
0.00663396,0.228348,1.58068,-0.463331,-0.114117,-1.16838,-0.135215,0.112386,0.136236
0.011584,0.217569,1.55589,-0.579446,0.0642526,-1.25244,-0.0828286,0.10372,0.0804703
0.0186135,0.204947,1.53041,-0.647724,0.0753031,-1.25181,-0.0212593,0.0887232,0.0580343
0.0241611,0.191023,1.50592,-0.692913,-0.0106464,-1.18111,0.0313955,0.0529008,0.0244011
0.0273431,0.176638,1.48342,-0.684492,-0.0657186,-1.06764,0.0609611,0.0229647,-0.0335212
0.0293601,0.163064,1.46378,-0.617369,-0.0553005,-0.902818,0.0883584,-0.0029557,-0.0923346
0.0312019,0.151061,1.44795,-0.535262,-0.0296689,-0.699092,0.0998805,-0.0279649,-0.125608
0.0330089,0.141702,1.43607,-0.352835,0.0420699,-0.522597,0.0833404,-0.0697094,-0.184634
0.0355081,0.136085,1.42683,-0.190007,0.0688698,-0.42333,0.0452414,-0.113938,-0.189817
0.0374505,0.132612,1.41865,-0.15815,-0.00530746,-0.413707,0.031399,-0.167246,-0.161681
0.0371307,0.127992,1.41019,-0.294083,-0.125277,-0.440579,0.0487375,-0.196988,-0.150267
0.0355993,0.119939,1.40116,-0.470452,-0.126203,-0.490691,0.0500369,-0.22216,-0.232651
0.0348029,0.108874,1.39074,-0.592227,-0.0646609,-0.58468,0.0441913,-0.227798,-0.365516
0.0351604,0.0959036,1.37877,-0.65705,-0.027226,-0.637676,0.0700499,-0.235039,-0.492485
0.0361139,0.0825932,1.36702,-0.623092,0.0331044,-0.560875,0.141629,-0.22022,-0.595306
0.0388391,0.0711287,1.35801,-0.466193,0.223422,-0.366095,0.172405,-0.159385,-0.657578
0.047243,0.0644671,1.35328,-0.164536,0.616038,-0.130515,0.174446,-0.0956422,-0.641756
0.0630551,0.0646615,1.35344,0.188239,0.935903,0.153359,0.184799,-0.0569351,-0.492461
0.0834729,0.0725945,1.35875,0.56806,1.12735,0.437591,0.159825,-0.0428715,-0.285556
0.105196,0.0879052,1.36862,0.830889,1.11513,0.686536,0.113924,-0.013328,-0.0406483
0.124162,0.106702,1.38267,0.842433,0.867599,0.916362,0.0774075,-0.0157536,0.184351
0.134099,0.124601,1.40038,0.698591,0.301056,1.04088,0.0362233,-0.0437662,0.321977
0.130856,0.139749,1.41962,0.567548,-0.346063,1.04743,0.0202798,-0.064776,0.339344
0.117707,0.153254,1.43862,0.554032,-0.610014,0.97627,0.00361573,-0.0542085,0.253261
0.103692,0.166123,1.45601,0.528004,-0.478373,0.881204,0.0259251,-0.0369712,0.192759
0.094125,0.177499,1.47234,0.444467,-0.205598,0.846466,0.0785264,-0.00746781,0.193646
0.088392,0.186998,1.48898,0.357606,-0.108994,0.883553,0.141778,0.0215575,0.236513
0.0819343,0.195398,1.50724,0.347643,-0.198674,0.986869,0.199714,0.029042,0.258106
0.0732202,0.20463,1.52761,0.426679,-0.26473,1.07436,0.224026,0.0328104,0.250988
0.063584,0.215383,1.54932,0.492503,-0.200964,1.11752,0.234482,0.0341258,0.246954
0.0563145,0.226358,1.57199,0.463926,-0.0510154,1.17049,0.249533,0.0505256,0.264632
0.050449,0.236437,1.59631,0.419633,-0.00418523,1.25675,0.274157,0.069232,0.288081
0.0430929,0.246015,1.62276,0.425457,-0.108168,1.36755,0.288753,0.0937759,0.28825
0.0332403,0.256127,1.65138,0.476953,-0.162928,1.44446,0.278519,0.106058,0.258806
0.0224078,0.26648,1.68125,0.460685,-0.131152,1.47388,0.251945,0.115098,0.240432
0.0124354,0.275168,1.7116,0.35405,-0.0464568,1.47066,0.225795,0.1197,0.218195
0.00474945,0.281376,1.74157,0.245939,0.100718,1.41722,0.203979,0.117811,0.171784
-0.000497204,0.285314,1.77027,0.139468,0.165716,1.34821,0.204228,0.109858,0.133066
-0.0051361,0.286753,1.79806,0.00415625,0.141347,1.3369,0.221021,0.1122,0.0961176
-0.0109144,0.285183,1.82566,-0.140468,0.0563201,1.30897,0.204977,0.0945502,0.0310863
-0.0173817,0.280913,1.85186,-0.25457,0.0620045,1.21023,0.186133,0.0537834,-0.0706382
-0.0216231,0.273833,1.87546,-0.408118,0.163724,1.08474,0.147586,0.0282208,-0.160149
-0.0226445,0.263772,1.89609,-0.57138,0.253007,0.930929,0.118997,0.0137604,-0.238096
-0.0228062,0.250196,1.91384,-0.7388,0.185639,0.832065,0.120376,0.00114907,-0.318665
-0.0236919,0.233977,1.93003,-0.831106,0.105782,0.79656,0.120716,0.00800164,-0.416269
-0.0240952,0.217297,1.94601,-0.792983,0.223575,0.804034,0.119764,0.0040282,-0.513515
-0.0197598,0.201976,1.96213,-0.722803,0.554168,0.809263,0.0967342,-9.36687e-05,-0.552242
-0.00877882,0.187781,1.97891,-0.677146,0.828686,0.869624,0.101001,-0.027966,-0.503976
0.00488381,0.174843,1.99707,-0.608648,0.833607,0.917021,0.0931216,-0.0592766,-0.408218
0.0173111,0.163782,2.01586,-0.523956,0.713476,0.923173,0.064083,-0.0764054,-0.325511
0.0173111,0.163782,2.01586,-0.523956,0.713476,0.923173,0.064083,-0.0764054,-0.325511
0.0275298,0.154408,2.03443,-0.45529,0.64072,0.894634,0.0330124,-0.0700819,-0.284137
0.0390888,0.147084,2.05279,-0.324543,0.822455,0.909487,0.0037015,-0.0318973,-0.277804
0.0553723,0.143717,2.07212,-0.0884539,1.08973,1.00483,-0.00992787,0.0226176,-0.229844
0.0754007,0.146069,2.09383,0.181018,1.18733,1.16898,-0.0316193,0.0748107,-0.112062
0.0935715,0.153938,2.11854,0.386452,0.949572,1.34166,-0.0712882,0.116832,0.0400197
0.104187,0.165494,2.14597,0.474189,0.514377,1.45566,-0.134927,0.135213,0.154084
0.104606,0.177666,2.17435,0.441556,0.0457159,1.442,-0.202092,0.120977,0.20657
0.0981886,0.188777,2.20139,0.396721,-0.154113,1.31222,-0.261771,0.131704,0.181208
0.0904094,0.198703,2.22577,0.377374,-0.115315,1.17988,-0.257455,0.154735,0.142442
0.0850879,0.208663,2.24832,0.43648,0.0429862,1.11483,-0.230526,0.179839,0.134376
0.0833708,0.220338,2.26941,0.556296,0.230567,1.04321,-0.211632,0.180153,0.165992
0.0843444,0.233716,2.28904,0.602965,0.288266,0.983372,-0.194228,0.177181,0.270837
0.0852405,0.24692,2.30754,0.55807,0.220129,0.922739,-0.184911,0.164645,0.380746
0.0841277,0.258791,2.32463,0.478606,0.0722436,0.823534,-0.179543,0.137855,0.444254
0.0791495,0.268503,2.33941,0.36465,-0.182592,0.68084,-0.158158,0.101974,0.470184
0.0701929,0.274785,2.35113,0.164158,-0.391847,0.490355,-0.142013,0.0785297,0.458435
0.0599412,0.276453,2.35917,-0.0436328,-0.37132,0.297593,-0.11717,0.0528218,0.376363
0.0526137,0.274146,2.36357,-0.211391,-0.241479,0.125274,-0.0822875,0.0601384,0.292288
0.0486637,0.268657,2.36542,-0.342675,-0.10488,0.0386473,-0.0221345,0.0540262,0.211415
0.0472721,0.261163,2.36658,-0.40357,-0.0202775,0.047587,0.0045341,0.0601452,0.124816
0.0468476,0.253228,2.36822,-0.377457,0.000667746,0.0723191,-0.00212409,0.0366175,0.0467585
0.046593,0.246897,2.37,-0.271871,0.0147539,0.051509,-0.0119148,0.00391766,-0.0190935
0.0473214,0.241832,2.37069,-0.255577,0.10002,-0.00725056,-0.0165693,-0.0204056,-0.0447124
0.0507498,0.236085,2.37072,-0.326945,0.239819,-0.00547358,-0.00709983,-0.0168653,-0.0490406
0.0563714,0.228993,2.37164,-0.374871,0.335101,0.0701529,0.0156706,-0.0139697,-0.0535762
0.0625272,0.222242,2.3748,-0.303311,0.336718,0.197142,0.0166565,-0.0181241,-0.0677601
0.0675114,0.217756,2.3802,-0.179937,0.273131,0.296067,-0.0138804,-0.0317485,-0.0656649
0.0708427,0.215575,2.38714,-0.0951209,0.2171,0.361267,-0.0496748,-0.0509375,-0.0384293
0.0732952,0.214683,2.39491,-0.0555345,0.204976,0.387464,-0.0861512,-0.0647482,-0.0138453
0.0759704,0.214405,2.40306,-0.0344873,0.24346,0.40171,-0.123247,-0.0688047,0.00359708
0.0796749,0.214805,2.41111,0.0178037,0.301454,0.385269,-0.147433,-0.0858086,0.0186573
0.0842993,0.216736,2.41862,0.119193,0.309008,0.365,-0.154877,-0.0858145,0.0468823
0.0881432,0.220557,2.42559,0.196643,0.219955,0.347724,-0.154622,-0.0766064,0.0869169
0.0898275,0.225378,2.43211,0.222196,0.0977943,0.330535,-0.135763,-0.0824636,0.113053
0.0894107,0.230373,2.43798,0.223356,-0.0120759,0.28687,-0.118656,-0.0879895,0.0924646
0.0867501,0.235438,2.44331,0.242023,-0.151257,0.290586,-0.0665813,-0.0899882,0.038183
0.0804942,0.241546,2.44937,0.324005,-0.320932,0.352103,-0.0134825,-0.0790485,-0.0375457
0.07154,0.248997,2.45641,0.358021,-0.385882,0.379529,0.0124057,-0.094724,-0.0991148
0.0625496,0.256231,2.46364,0.309479,-0.31211,0.358012,0.0275599,-0.136593,-0.148935
0.0558165,0.261073,2.46996,0.106751,-0.21132,0.281757,0.0230225,-0.137131,-0.169424
0.0506589,0.260628,2.47522,-0.174546,-0.179384,0.230269,0.0170824,-0.134646,-0.22448
0.044712,0.255282,2.47905,-0.359,-0.345139,0.0917344,-0.0183767,-0.124877,-0.346699
0.0370242,0.247696,2.47958,-0.377453,-0.365568,-0.062591,-0.00840495,-0.12426,-0.488292
0.0342229,0.242187,2.47774,-0.137515,0.101856,-0.118535,0.00532607,-0.0413316,-0.583891
0.042811,0.243424,2.47639,0.270152,0.737139,0.0170714,0.0752394,0.0457451,-0.479757
0.0627701,0.251774,2.47839,0.508691,1.27534,0.224744,0.114893,0.0933608,-0.171878
0.0894914,0.26321,2.48443,0.581594,1.52882,0.445242,0.091944,0.117115,0.140041
0.116845,0.276022,2.49418,0.582036,1.39843,0.617523,0.0543372,0.134224,0.390783
0.137044,0.28862,2.50696,0.505713,0.984527,0.769548,0.062608,0.11808,0.545047
0.148142,0.299964,2.52318,0.373304,0.61481,0.928744,0.085446,0.111739,0.609037
0.150341,0.308289,2.5438,0.1473,0.23595,1.15769,0.171068,0.0751572,0.635557
0.144319,0.311822,2.57046,-0.179447,-0.0508387,1.41964,0.231586,0.0400236,0.611727
0.12846,0.309734,2.60402,-0.455133,-0.517463,1.7323,0.312498,-0.0216872,0.539233
0.10147,0.303504,2.64359,-0.577607,-0.950079,1.93698,0.29373,-0.0408251,0.388199
0.10147,0.303504,2.64359,-0.577607,-0.950079,1.93698,0.29373,-0.0408251,0.388199
0.0683136,0.295189,2.68568,-0.599168,-1.07973,1.9798,0.237884,-0.0634034,0.203051
0.0363032,0.284296,2.72626,-0.72326,-0.933799,1.83842,0.204709,-0.107518,0.0739272
0.00913871,0.26816,2.76256,-0.987291,-0.83434,1.62045,0.204552,-0.130779,-0.0485365
-0.0159608,0.246908,2.79427,-1.06265,-0.866233,1.49891,0.275104,-0.127389,-0.251657
-0.0401843,0.229,2.82528,-0.566932,-0.810073,1.59523,0.346299,-0.0529955,-0.496375
-0.061752,0.223445,2.85964,0.167608,-0.549618,1.79355,0.364668,0.0153985,-0.571885
-0.0772713,0.228552,2.89842,0.515667,-0.146196,1.90919,0.309425,0.0183913,-0.43954
-0.0857455,0.234752,2.93669,0.370911,0.175995,1.72555,0.183298,-0.0511656,-0.254252
-0.0872529,0.237542,2.96903,0.20843,0.390018,1.38241,0.0925229,-0.0820532,-0.168329
-0.0845284,0.240007,2.99404,0.280733,0.4826,1.03873,0.0679391,-0.0621408,-0.149274
-0.0785025,0.245409,3.01324,0.39512,0.575715,0.80132,0.0818858,-0.00703144,-0.0824184
-0.0694853,0.252456,3.0291,0.390031,0.722722,0.687592,0.0930922,0.0514944,0.015236
-0.0579265,0.258302,3.0427,0.280553,0.789633,0.599127,0.0921521,0.0775823,0.105935
-0.0449534,0.262291,3.05438,0.181949,0.788409,0.516013,0.0755211,0.100923,0.1654
-0.0326015,0.264826,3.06444,0.113409,0.709533,0.449573,0.0393177,0.133049,0.193812
-0.0216596,0.2662,3.07314,0.0488121,0.613916,0.387974,0.00824554,0.132162,0.200635
-0.0119781,0.266538,3.08046,-0.00215555,0.57331,0.326598,-0.0098074,0.117702,0.18427
-0.0018772,0.265736,3.08679,-0.0888291,0.597029,0.290054,-0.0262343,0.104706,0.175378
0.00813165,0.262769,3.09251,-0.209139,0.54511,0.262232,-0.0316561,0.0699361,0.157583
0.0168043,0.257897,3.09777,-0.265176,0.449241,0.239682,-0.040555,0.0292936,0.112391
0.0228037,0.253022,3.10253,-0.224331,0.273499,0.223219,-0.0279504,0.00736552,0.0622842
0.0259942,0.248942,3.10766,-0.218098,0.194066,0.277592,-0.0141732,0.0132239,0.0343066
0.0281185,0.243902,3.11425,-0.316143,0.178912,0.340078,-0.0178833,-0.0153446,0.0281554
0.0291159,0.236791,3.12149,-0.409534,0.0858499,0.336514,-0.0215245,-0.0752454,0.000614464
0.0276204,0.228139,3.12831,-0.471608,-0.0919705,0.307457,-0.0366974,-0.0814212,-0.0447457
0.022588,0.218868,3.13471,-0.464891,-0.251612,0.296347,-0.0173628,-0.0970686,-0.119351
0.0155455,0.20988,3.14102,-0.455896,-0.305416,0.311657,0.0217377,-0.105378,-0.171354
0.00888041,0.200087,-3.13539,-0.560028,-0.206136,0.34377,0.0367223,-0.102439,-0.176697
0.00501182,0.186622,-3.12823,-0.817134,-0.0421539,0.348902,0.04636,-0.124961,-0.153682
0.00453452,0.16739,-3.12141,-1.10636,0.100415,0.313036,0.0406186,-0.151094,-0.165202
0.00475631,0.143242,-3.11553,-1.3049,-0.0442606,0.263173,0.0272749,-0.140954,-0.203673
-4.28702e-05,0.11671,-3.11041,-1.31348,-0.356107,0.236639,0.024655,-0.137278,-0.308912
-0.00947852,0.0927861,-3.10616,-1.06586,-0.51624,0.195233,-0.00301356,-0.107512,-0.441434
-0.0203219,0.0746828,-3.10265,-0.75808,-0.532085,0.196208,-0.00686629,-0.0650656,-0.488711
-0.029578,0.0618737,-3.09888,-0.548833,-0.318892,0.205841,0.00853623,-0.0315954,-0.466461
-0.0321645,0.0512511,-3.09529,-0.518973,0.0826747,0.190113,-0.00104057,-0.000696976,-0.404799
-0.0274508,0.0411044,-3.09201,-0.468465,0.362412,0.157799,-0.0264699,0.0138558,-0.348801
-0.019441,0.0336869,-3.08985,-0.232019,0.422993,0.0834396,-0.0521502,0.0206648,-0.317361
-0.0123697,0.0330169,-3.08841,0.179417,0.256465,0.0734313,-0.0751313,0.0816407,-0.27322
-0.0101262,0.040747,-3.08674,0.571545,-0.0222797,0.0823345,-0.0881642,0.143137,-0.187237
-0.0122735,0.0544384,-3.08501,0.772008,-0.142533,0.0697243,-0.126508,0.183882,-0.0989382
-0.0145924,0.0705964,-3.08442,0.837843,-0.0688732,-0.0530555,-0.17711,0.20216,-0.0222046
-0.0145251,0.0874303,-3.08735,0.834745,0.0545608,-0.275106,-0.21632,0.207528,0.0532653
-0.0114159,0.103321,-3.095,0.731796,0.16282,-0.49307,-0.196607,0.223453,0.156315
-0.00618877,0.116866,-3.10595,0.625052,0.235542,-0.593057,-0.149585,0.241996,0.228191
-0.000212488,0.128876,-3.11802,0.591293,0.197506,-0.597132,-0.104602,0.250422,0.287438
0.00392418,0.140905,-3.12946,0.627733,0.0519858,-0.537129,-0.069315,0.231946,0.332092
0.00465205,0.153877,-3.13994,0.672804,-0.121657,-0.50376,-0.0678447,0.213954,0.371368
0.00270933,0.167126,3.13286,0.651709,-0.2198,-0.535939,-0.0878461,0.193174,0.399973
0.000704524,0.179339,3.12119,0.566869,-0.173389,-0.620637,-0.0918797,0.171406,0.407851
0.000337278,0.189482,3.1078,0.440166,-0.1109,-0.696047,-0.0889695,0.163661,0.414811
0.000969991,0.196671,3.09315,0.277092,-0.126215,-0.73658,-0.0635581,0.158357,0.423502
0.000633263,0.200689,3.07829,0.131644,-0.200153,-0.721503,-0.043986,0.149083,0.397349
-0.000991183,0.202242,3.0634,0.0260365,-0.25422,-0.750517,-0.0543726,0.120727,0.345905
-0.000991183,0.202242,3.0634,0.0260365,-0.25422,-0.750517,-0.0543726,0.120727,0.345905
-0.00313177,0.201743,3.04758,-0.0787306,-0.271156,-0.802422,-0.0436542,0.0889575,0.294671
-0.00509037,0.199062,3.03091,-0.201037,-0.273933,-0.830075,-0.0205229,0.070721,0.253693
-0.00795154,0.193624,3.01401,-0.359971,-0.349078,-0.822864,0.00909987,0.0486329,0.199651
-0.0129628,0.184952,2.9976,-0.519415,-0.462121,-0.780377,0.0319979,0.0119629,0.109205
-0.0197515,0.173784,2.98195,-0.615168,-0.482876,-0.749039,0.0378395,-0.029467,-0.0162158
-0.0266691,0.1613,2.96657,-0.667316,-0.455799,-0.743027,0.0316451,-0.0732546,-0.149547
-0.0327987,0.148315,2.95114,-0.656167,-0.391362,-0.742429,0.03315,-0.131983,-0.300909
-0.0376416,0.137055,2.93559,-0.509597,-0.347503,-0.763558,0.0364558,-0.164949,-0.454751
-0.041208,0.129657,2.91994,-0.285754,-0.20596,-0.753401,0.0491971,-0.174875,-0.570011
-0.040681,0.126674,2.90525,-0.0863069,0.0659089,-0.690481,0.0561368,-0.147727,-0.60356
-0.0341002,0.127334,2.89191,0.097906,0.43558,-0.651249,0.036198,-0.142008,-0.590933
-0.0205209,0.13117,2.87851,0.230722,0.727266,-0.701873,0.0261568,-0.161824,-0.482051
-0.00270575,0.135854,2.864,0.194687,0.832454,-0.735369,0.0563613,-0.164765,-0.316346
0.0151948,0.138184,2.84937,0.0385577,0.728455,-0.707496,0.107357,-0.159298,-0.205859
0.0297562,0.13748,2.83599,-0.0571246,0.56746,-0.615065,0.159997,-0.153266,-0.213457
0.0425721,0.13632,2.82493,0.00571504,0.60051,-0.473148,0.172771,-0.105724,-0.284558
0.0574097,0.137878,2.81739,0.206605,0.78328,-0.250256,0.198339,-0.0477086,-0.274
0.0745371,0.1448,2.81496,0.504875,0.886499,0.0630079,0.219295,0.00778897,-0.161467
0.092279,0.157923,2.8186,0.756907,0.915622,0.405747,0.215349,0.0390728,0.0282609
0.106977,0.175294,2.82819,0.849293,0.68607,0.700309,0.198101,0.0430653,0.24667
0.11308,0.193043,2.84291,0.732199,0.180643,0.926652,0.177358,0.0198038,0.384016
0.107959,0.208224,2.86185,0.588426,-0.272488,1.08831,0.157838,-0.000430554,0.369829
0.0954364,0.222098,2.88388,0.602506,-0.473644,1.1852,0.129995,0.0206763,0.244818
0.0812181,0.237147,2.90711,0.691307,-0.373967,1.1976,0.116622,0.0269687,0.150754
0.071186,0.252489,2.93021,0.635397,-0.0741537,1.14692,0.114647,0.0256175,0.150106
0.0661926,0.26434,2.95212,0.395141,0.111713,1.05753,0.119762,0.0133629,0.190965
0.0634961,0.271531,2.97308,0.215931,0.140947,1.02343,0.150969,0.0171078,0.189554
0.0600589,0.277055,2.99424,0.238773,0.101579,1.05634,0.189321,0.0428109,0.149081
0.0566208,0.284242,3.01612,0.3517,0.159035,1.09224,0.193376,0.0675543,0.140297
0.0533281,0.292651,3.03875,0.345113,0.145962,1.12951,0.214054,0.0802394,0.211004
0.0491409,0.299611,3.06258,0.223328,0.130737,1.19351,0.235446,0.101027,0.264616
0.0443914,0.304087,3.08787,0.109603,0.141508,1.24337,0.237048,0.126281,0.267542
0.0391988,0.306646,3.11417,0.0497773,0.126886,1.28414,0.24366,0.142683,0.2469
0.0334542,0.308592,3.14143,0.0641528,0.137065,1.32479,0.241631,0.16555,0.207615
0.0281594,0.310938,-3.11361,0.0831287,0.18745,1.38144,0.248692,0.205381,0.189386
0.0234482,0.313018,-3.0835,0.04597,0.264629,1.49955,0.257646,0.23742,0.189734
0.0190477,0.313823,-3.05109,-0.0314515,0.291479,1.59036,0.249675,0.241772,0.193572
0.0139231,0.312784,-3.01686,-0.141357,0.2156,1.66215,0.239622,0.220734,0.183078
0.00561575,0.308668,-2.98184,-0.313531,0.0324106,1.66578,0.224432,0.173831,0.13026
-0.00530056,0.300434,-2.94775,-0.516919,-0.0815601,1.58306,0.1871,0.131415,0.00904292
-0.0158471,0.288092,-2.91618,-0.666691,-0.0230303,1.46366,0.156856,0.114033,-0.162854
-0.0223485,0.273925,-2.8869,-0.682181,0.192188,1.39609,0.148833,0.116902,-0.318286
-0.0244099,0.259706,-2.85847,-0.691272,0.3283,1.399,0.146605,0.12577,-0.378854
-0.0253506,0.244539,-2.82949,-0.761897,0.26867,1.45278,0.139386,0.100126,-0.387775
-0.0286948,0.227955,-2.80009,-0.813499,0.0746542,1.44818,0.0766241,0.0625792,-0.446696
-0.0343364,0.21112,-2.77146,-0.759187,0.0211851,1.40418,-0.00682258,0.013937,-0.555601
-0.0371254,0.196602,-2.74451,-0.608575,0.252942,1.27963,-0.106405,-0.0217339,-0.643139
-0.0338125,0.184651,-2.72098,-0.528139,0.496064,1.07259,-0.186571,-0.0646117,-0.620757
-0.0267566,0.173615,-2.70225,-0.526207,0.5263,0.800744,-0.237565,-0.104325,-0.544729
-0.0185297,0.16337,-2.68921,-0.44873,0.529133,0.509997,-0.28845,-0.101821,-0.529659
-0.00812479,0.156501,-2.68166,-0.203847,0.654541,0.25705,-0.314179,-0.0634976,-0.538392
0.00668683,0.155712,-2.67832,0.132647,0.891971,0.0954956,-0.309554,0.00203791,-0.477132
0.0267593,0.161607,-2.67704,0.45072,1.12672,0.0528437,-0.324152,0.0883183,-0.329439
0.0502352,0.173308,-2.67634,0.707026,1.18905,0.062627,-0.362526,0.163577,-0.135043
0.0502352,0.173308,-2.67634,0.707026,1.18905,0.062627,-0.362526,0.163577,-0.135043
0.0719553,0.189323,-2.67626,0.892482,0.945788,0.035704,-0.419608,0.200492,0.0523444
0.0869578,0.207814,-2.67793,0.943447,0.47738,-0.0719229,-0.48212,0.222495,0.20875
0.092845,0.225573,-2.68283,0.851532,0.0269607,-0.26164,-0.512741,0.233263,0.29986
0.0922742,0.239875,-2.69216,0.652538,-0.252668,-0.516678,-0.504987,0.238436,0.336422
0.0904392,0.249502,-2.70646,0.440597,-0.255562,-0.779278,-0.481959,0.260883,0.329837
0.0905069,0.254847,-2.72569,0.276703,-0.234695,-1.01534,-0.413621,0.263343,0.332729
0.0912386,0.257687,-2.74817,0.220796,-0.273726,-1.10484,-0.309906,0.272637,0.333336
0.0906355,0.260205,-2.77103,0.240909,-0.386524,-1.06446,-0.231904,0.293884,0.341475
0.087541,0.263693,-2.79259,0.289462,-0.463835,-0.983965,-0.186199,0.279584,0.35694
0.0827615,0.267748,-2.81286,0.263966,-0.565363,-0.95436,-0.193186,0.25211,0.401055
0.075708,0.270429,-2.83353,0.156064,-0.68572,-1.03018,-0.202968,0.203912,0.427662
0.0666685,0.270721,-2.85613,0.0364452,-0.828644,-1.14151,-0.177642,0.181488,0.421246
0.0560994,0.269017,-2.88046,-0.0637113,-0.883376,-1.20916,-0.131232,0.180732,0.383338
0.0439149,0.265403,-2.90538,-0.175585,-0.999717,-1.21238,-0.0639244,0.172302,0.343955
0.0295644,0.259828,-2.93003,-0.298535,-1.08682,-1.19518,-0.0182834,0.154238,0.284417
0.0136678,0.252249,-2.95484,-0.40349,-1.11375,-1.24156,0.00116943,0.109232,0.197542
-0.000696271,0.242946,-2.98124,-0.531158,-0.969509,-1.34299,0.017842,0.0751269,0.1137
-0.0110373,0.230582,-3.01016,-0.730138,-0.721515,-1.46976,0.05202,0.0416397,0.0452973
-0.0154916,0.214619,-3.04145,-0.903831,-0.425705,-1.55596,0.111861,0.021462,-0.0220525
-0.0143821,0.196036,-3.0734,-0.996794,-0.112329,-1.53183,0.177925,0.0287213,-0.0933211
-0.00942265,0.176388,-3.10318,-0.973167,0.0157814,-1.35071,0.233413,0.0277699,-0.138332
-0.00567681,0.159725,-3.12762,-0.677189,-0.085199,-1.04837,0.265599,0.0105025,-0.198109
-0.00666298,0.150671,3.13723,-0.238293,-0.271996,-0.784483,0.246211,-0.0384055,-0.215239
-0.0103401,0.14898,3.12279,0.00697596,-0.288556,-0.666085,0.192934,-0.10006,-0.166403
-0.0128141,0.149223,3.10974,-0.033325,-0.142871,-0.631167,0.162696,-0.144513,-0.108835
-0.0124216,0.147367,3.09716,-0.162128,-0.0105001,-0.615323,0.143558,-0.169129,-0.105535
-0.0103919,0.143934,3.08483,-0.175805,0.0128142,-0.60147,0.131241,-0.183177,-0.151523
-0.0088869,0.141462,3.07307,-0.0718147,-0.0196248,-0.562338,0.114374,-0.179856,-0.215869
-0.00769615,0.141562,3.06224,0.0757605,0.00854336,-0.510288,0.100805,-0.173272,-0.273613
-0.00428013,0.144721,3.05242,0.230729,0.215285,-0.47499,0.0634395,-0.169916,-0.311961
0.0034772,0.150237,3.04282,0.302923,0.397283,-0.48092,0.0433302,-0.1801,-0.283548
0.0137061,0.155819,3.03281,0.243408,0.450832,-0.510908,0.029246,-0.19526,-0.227509
0.0237975,0.15922,3.02186,0.111853,0.38698,-0.571742,0.0194592,-0.203788,-0.215748
0.0335472,0.160246,3.0095,0.02599,0.39204,-0.654659,0.016663,-0.208787,-0.262772
0.0427045,0.159145,2.99538,-0.0928077,0.286715,-0.733363,0.0373768,-0.192722,-0.287356
0.0495716,0.155372,2.98091,-0.206961,0.175975,-0.694307,0.100155,-0.155708,-0.335388
0.0549787,0.150799,2.96845,-0.153299,0.219267,-0.544483,0.163827,-0.10937,-0.404474
0.0630076,0.148891,2.96002,0.0312695,0.474863,-0.285645,0.204592,-0.0489703,-0.397807
0.0769413,0.152593,2.95734,0.371681,0.880532,0.0396176,0.20009,-0.00476722,-0.337054
0.0969273,0.163665,2.96015,0.690314,1.13191,0.332164,0.171073,0.0104084,-0.143727
0.117875,0.18011,2.96813,0.831095,1.03558,0.631862,0.159279,0.0237726,0.111641
0.131787,0.198411,2.98167,0.796165,0.571215,0.913847,0.137957,0.0212234,0.296709
0.13257,0.215606,3.00022,0.670602,-0.103419,1.09476,0.100981,-0.000385627,0.352629
0.121499,0.230452,3.02114,0.544296,-0.468906,1.10727,0.0328218,-0.00380555,0.255616
0.107374,0.242728,3.04176,0.455381,-0.410463,1.0214,-0.0084912,0.0138194,0.120186
0.0969607,0.253313,3.0607,0.423522,-0.134885,0.920159,-0.0142364,0.0457785,0.0427182
0.0934987,0.263378,3.07786,0.428323,0.211317,0.841857,0.0174925,0.0709057,0.0423231
0.0951694,0.273662,3.09445,0.446875,0.355917,0.871691,0.06061,0.107372,0.120555
0.0965977,0.284618,3.1126,0.475007,0.252096,0.98253,0.0908433,0.139922,0.223147
0.0939452,0.29626,3.13321,0.502818,0.0837158,1.09794,0.0989088,0.151351,0.295861
0.0876511,0.308584,-3.12735,0.530078,-0.0275122,1.15708,0.0751806,0.146315,0.340999
0.0798047,0.320693,-3.1044,0.481788,-0.0411317,1.11746,0.0445531,0.140618,0.386838
0.0721947,0.330445,-3.0824,0.311549,-0.0136367,1.03882,0.0373307,0.137604,0.428633
0.0654934,0.335759,-3.06185,0.0871605,0.00105464,0.936198,0.0454162,0.131442,0.432218
0.0654934,0.335759,-3.06185,0.0871605,0.00105464,0.936198,0.0454162,0.131442,0.432218
0.0587303,0.336922,-3.04289,-0.0725327,-0.0529286,0.881991,0.0807273,0.141466,0.386058
0.0510324,0.335927,-3.02427,-0.115623,-0.0983859,0.876983,0.107923,0.16343,0.307912
0.0429337,0.33426,-3.00573,-0.136921,-0.0862881,0.86283,0.116453,0.159949,0.242016
0.0360564,0.331591,-2.98787,-0.204261,-0.0169608,0.815371,0.121112,0.134141,0.185985
0.0311359,0.327219,-2.971,-0.284599,0.0682467,0.772719,0.141755,0.108231,0.116418
0.0277586,0.321283,-2.95511,-0.356198,0.0937952,0.713526,0.136415,0.0748785,0.0372564
0.0250913,0.313663,-2.94077,-0.444703,0.0695837,0.641426,0.136856,0.0354888,-0.0532095
0.0214999,0.304277,-2.92725,-0.525156,-0.00844611,0.641697,0.151364,0.0426451,-0.163222
0.0181113,0.293227,-2.9133,-0.605039,0.0925962,0.676444,0.127621,0.0482139,-0.280115
0.0177353,0.280985,-2.899,-0.647513,0.261532,0.662177,0.0467582,0.0433238,-0.388611
0.0192922,0.267724,-2.88593,-0.715897,0.206664,0.570173,-0.00899078,0.00156674,-0.417106
0.018783,0.252564,-2.87493,-0.823618,0.0355713,0.470287,-0.0700659,-0.0177825,-0.46346
0.0165533,0.235881,-2.86588,-0.860497,-0.0113463,0.3808,-0.108425,-0.0354043,-0.537758
0.0153955,0.219381,-2.85847,-0.785997,0.114002,0.329268,-0.149746,-0.0439103,-0.597325
0.0184697,0.205086,-2.8523,-0.654051,0.31008,0.242834,-0.209061,-0.0440598,-0.582952
0.0251911,0.193615,-2.84868,-0.518774,0.405765,0.0708832,-0.246092,-0.0698143,-0.489074
0.0334025,0.183879,-2.84925,-0.464978,0.415357,-0.150492,-0.259472,-0.0842602,-0.363232
0.0423467,0.174819,-2.85384,-0.420195,0.388549,-0.32579,-0.245546,-0.0695543,-0.272717
0.0499354,0.167252,-2.86077,-0.275029,0.238958,-0.363908,-0.19822,-0.040466,-0.229951
0.0545455,0.165105,-2.86702,0.124845,0.135368,-0.254096,-0.182775,0.0104561,-0.252142
0.0579076,0.172375,-2.87154,0.610029,0.125341,-0.157757,-0.224223,0.0594159,-0.206657
0.0600588,0.187363,-2.87538,0.873014,-0.0208888,-0.144199,-0.268338,0.0677993,-0.0502784
0.0586472,0.205318,-2.88014,0.920603,-0.229182,-0.237502,-0.319574,0.0742552,0.0829344
0.0531714,0.222645,-2.88781,0.855871,-0.447778,-0.426474,-0.358551,0.083542,0.146042
0.0461177,0.237884,-2.8999,0.719294,-0.530153,-0.68038,-0.374866,0.110876,0.191783
0.0398114,0.249852,-2.91692,0.548374,-0.492083,-0.919103,-0.33866,0.141899,0.22874
0.0362525,0.258513,-2.93826,0.405479,-0.400181,-1.10903,-0.267584,0.165433,0.259151
0.0350291,0.26481,-2.96256,0.325397,-0.370237,-1.20393,-0.182788,0.190529,0.296475
0.0341904,0.270336,-2.98766,0.325335,-0.394073,-1.1887,-0.104109,0.212688,0.330794
0.0317285,0.276492,-3.01177,0.371264,-0.507842,-1.11633,-0.0468299,0.217395,0.370272
0.0266998,0.283872,-3.03429,0.430833,-0.621899,-1.03437,-0.0145808,0.213882,0.405788
0.0191529,0.29225,-3.05517,0.443091,-0.720299,-0.957965,-0.00800942,0.232016,0.446039
0.00985753,0.300077,-3.07483,0.359125,-0.783758,-0.931455,-0.011721,0.238251,0.46929
0.000108038,0.305585,-3.09417,0.203653,-0.750658,-0.919723,-0.00632861,0.230493,0.455731
-0.00790248,0.307828,-3.11392,-0.00155443,-0.666549,-0.978436,-0.00231098,0.224132,0.435585
-0.0147439,0.305342,-3.13464,-0.272248,-0.652345,-0.984579,0.0474171,0.208838,0.403821
-0.0223011,0.297658,3.12806,-0.52569,-0.738792,-0.975001,0.0667441,0.190346,0.316415
-0.0316561,0.285898,3.10684,-0.696019,-0.784158,-1.03945,0.0714275,0.136618,0.162084
-0.0391888,0.271044,3.08354,-0.885444,-0.590578,-1.15386,0.0881482,0.0831211,0.029189
-0.0410505,0.251868,3.058,-1.13907,-0.247446,-1.22725,0.129618,0.0492009,-0.0603213
-0.0360922,0.227891,3.0318,-1.3482,0.112179,-1.21241,0.166011,0.0270712,-0.1465
-0.0261676,0.201519,3.0073,-1.31392,0.346594,-1.07271,0.204163,0.00711854,-0.25162
-0.0151928,0.178558,2.98784,-0.978786,0.342742,-0.772608,0.243482,-0.0170305,-0.313407
-0.00711839,0.164751,2.97554,-0.410751,0.243503,-0.437171,0.222308,-0.0572763,-0.315034
-0.00247367,0.161242,2.9691,0.00243142,0.134246,-0.220111,0.172791,-0.121057,-0.196431
0.000450998,0.162263,2.9659,0.0525552,0.127318,-0.109537,0.117353,-0.182915,-0.0579662
0.00370104,0.162327,2.96424,-0.0506863,0.17334,-0.066876,0.0560095,-0.214514,-0.00698835
0.00724914,0.160393,2.9626,-0.135536,0.123845,-0.110687,0.0193943,-0.25782,-0.0277997
0.00949175,0.157467,2.95941,-0.158334,0.0415078,-0.218039,-0.00494912,-0.288328,-0.0939445
0.00995346,0.153696,2.95364,-0.226929,-0.0895052,-0.352593,-0.0122621,-0.285812,-0.152172
0.00837524,0.14868,2.9454,-0.256064,-0.160157,-0.461184,0.0271634,-0.275741,-0.255772
0.00768836,0.143472,2.93557,-0.272844,-0.0238309,-0.501467,0.0739489,-0.22259,-0.363041
0.0104616,0.13683,2.92606,-0.403347,0.129472,-0.434692,0.113477,-0.190684,-0.419252
0.0128095,0.127335,2.91882,-0.52566,-0.0250037,-0.286385,0.155401,-0.179832,-0.500258
0.0128095,0.127335,2.91882,-0.52566,-0.0250037,-0.286385,0.155401,-0.179832,-0.500258
0.0110794,0.11726,2.91514,-0.434577,-0.168887,-0.0950831,0.160384,-0.142393,-0.641633
0.00903787,0.111476,2.9151,-0.152413,-0.0128509,0.0842743,0.14147,-0.087073,-0.722587
0.0111253,0.111364,2.91892,0.134024,0.299778,0.299069,0.152121,-0.0583603,-0.662109
0.0189232,0.116982,2.92694,0.433298,0.557119,0.510032,0.150549,-0.0455924,-0.493035
0.0307156,0.129495,2.93892,0.794389,0.7719,0.708538,0.127887,-0.015032,-0.283712
0.0451149,0.148926,2.95393,1.07565,0.853959,0.853856,0.0956736,0.0219265,-0.0179651
0.058633,0.172315,2.9711,1.14041,0.716506,0.955355,0.0599289,0.0311285,0.246422
0.0656731,0.194911,2.98947,0.977389,0.305601,0.984402,0.0374539,0.0137779,0.426872
0.0632494,0.212477,3.00819,0.654865,-0.144307,0.951251,0.0290803,-0.0104317,0.481508
0.0550252,0.223219,3.02576,0.318092,-0.280229,0.817352,0.01346,-0.00197297,0.436711
0.0455839,0.227893,3.04081,0.105449,-0.301055,0.682766,0.0364664,0.0161325,0.35239
0.0368519,0.229943,3.05353,0.079599,-0.278601,0.579947,0.0574642,0.0460371,0.283458
0.0291535,0.232889,3.06496,0.196208,-0.240676,0.547668,0.0801734,0.0894011,0.258403
0.0216319,0.23887,3.07596,0.375407,-0.262848,0.554209,0.105388,0.115541,0.279087
0.0126489,0.24837,3.08816,0.55037,-0.362426,0.667577,0.154396,0.137457,0.323317
0.000983026,0.261055,3.10296,0.699971,-0.415218,0.768609,0.135708,0.179013,0.350349
-0.0120817,0.275737,3.11986,0.762941,-0.448379,0.856175,0.142439,0.178613,0.3475
-0.025881,0.290413,3.13825,0.727794,-0.39896,0.887743,0.145827,0.171983,0.329265
-0.0383794,0.303239,-3.12525,0.60214,-0.283158,0.965842,0.169554,0.173476,0.290753
-0.0493761,0.312307,-3.10402,0.389055,-0.160268,1.01098,0.166155,0.164371,0.235258
-0.0571615,0.316711,-3.08266,0.16647,0.0382261,0.987275,0.137282,0.118084,0.153516
-0.0614841,0.317346,-3.06321,0.0240722,0.129358,0.836603,0.0868349,0.0785711,0.0892783
-0.0635377,0.316245,-3.04772,-0.0339175,0.121839,0.658761,0.0730873,0.0592604,0.0417386
-0.0662331,0.314274,-3.03519,-0.0883406,-0.0171615,0.563089,0.0883489,0.0506425,0.0100167
-0.0714752,0.311316,-3.02393,-0.128157,-0.128865,0.522242,0.0928839,0.0425791,-0.0356984
-0.0759476,0.307895,-3.01403,-0.151014,0.00876345,0.452615,0.0705517,0.0445995,-0.0794212
-0.0753807,0.303791,-3.00531,-0.198679,0.330147,0.412534,0.0558544,0.0481934,-0.0806048
-0.0683082,0.298986,-2.99701,-0.22357,0.600679,0.423554,0.067409,0.0485182,-0.0397874
-0.058237,0.293855,-2.98778,-0.240301,0.643518,0.512865,0.0946343,0.034792,0.0439975
-0.0492654,0.288173,-2.97722,-0.262898,0.564617,0.51194,0.072697,0.00601768,0.107458
-0.0432724,0.282457,-2.96659,-0.272513,0.329246,0.532422,0.0533703,-0.0335549,0.155443
-0.0412111,0.275884,-2.95602,-0.35386,0.169234,0.508525,0.0412284,-0.075396,0.17583
-0.0422338,0.267378,-2.94612,-0.453532,0.0287943,0.478689,0.0348922,-0.102328,0.144057
-0.0442737,0.257172,-2.9368,-0.530542,0.0048657,0.476467,0.0211057,-0.103197,0.0946749
-0.0469222,0.245563,-2.9273,-0.581944,-0.0306951,0.497016,0.0215873,-0.111634,0.0377197
-0.0495964,0.233664,-2.91749,-0.557409,0.0127237,0.516227,0.0184742,-0.11976,-0.0440424
-0.051124,0.222425,-2.90734,-0.515639,0.0662617,0.526613,0.0156326,-0.144959,-0.100586
-0.0511994,0.212205,-2.89744,-0.463219,0.126558,0.482377,-0.0010726,-0.171616,-0.1586
-0.0493289,0.201593,-2.88863,-0.549785,0.201817,0.434683,0.0195017,-0.184169,-0.174107
-0.0477043,0.189686,-2.88038,-0.600183,0.116785,0.432292,0.0385149,-0.168322,-0.204921
-0.0477345,0.177313,-2.87228,-0.588568,0.0420748,0.424981,0.0310685,-0.146353,-0.266327
-0.0484853,0.165744,-2.86405,-0.534562,0.0261599,0.450259,0.0501978,-0.134132,-0.310197
-0.0498734,0.15454,-2.85486,-0.556113,-0.0409136,0.514694,0.0694765,-0.126836,-0.31376
-0.0537383,0.141894,-2.84476,-0.679498,-0.212987,0.533367,0.0430255,-0.126435,-0.310445
-0.0620616,0.125852,-2.83582,-0.874989,-0.508161,0.425666,-0.026985,-0.130568,-0.353233
-0.0747165,0.10745,-2.8305,-0.897998,-0.670298,0.22357,-0.0575737,-0.136607,-0.489697
-0.0884326,0.0915153,-2.82878,-0.646641,-0.606035,0.0968109,-0.0500527,-0.0808231,-0.618717
-0.0967838,0.0821795,-2.82796,-0.271828,-0.212791,0.0903523,-0.0238563,-0.0101219,-0.624219
-0.096652,0.0802333,-2.82568,0.0815364,0.251498,0.152965,-0.00918608,0.0355915,-0.514293
-0.0878419,0.0836205,-2.82217,0.259707,0.617847,0.153275,-0.0267286,0.0372584,-0.31979
-0.0745659,0.0895362,-2.81892,0.356525,0.694094,0.12076,-0.0547078,0.0389863,-0.129988
-0.0631882,0.0973783,-2.81635,0.451384,0.414637,0.0811517,-0.0659067,0.0684311,-0.00399244
-0.0598924,0.107431,-2.81418,0.581721,-0.0643773,0.0873293,-0.0544563,0.0912945,0.0314536
-0.0598924,0.107431,-2.81418,0.581721,-0.0643773,0.0873293,-0.0544563,0.0912945,0.0314536
-0.0645231,0.120798,-2.81112,0.777052,-0.297743,0.132927,-0.0775473,0.133505,-0.00926137
-0.0699062,0.137577,-2.80722,0.91,-0.165998,0.126817,-0.151987,0.167523,-0.0335814
-0.071644,0.156192,-2.8043,0.960993,0.0346031,0.0123132,-0.199003,0.161997,0.00538856
-0.0696383,0.175491,-2.80419,0.963131,0.158866,-0.137273,-0.188292,0.166565,0.0974278
-0.0651811,0.194498,-2.80663,0.919574,0.230538,-0.217491,-0.157468,0.184866,0.205487
-0.0601027,0.212345,-2.81002,0.842058,0.198039,-0.212137,-0.10533,0.207381,0.298589
-0.0562459,0.228479,-2.81288,0.765434,0.131873,-0.157336,-0.0834283,0.212778,0.354155
-0.0543456,0.243391,-2.81459,0.723545,-0.00732926,-0.103606,-0.0801251,0.190656,0.382683
-0.0545536,0.258113,-2.81621,0.749592,-0.0345246,-0.154593,-0.108245,0.162437,0.357738
-0.0542612,0.273513,-2.81978,0.770065,-0.0223831,-0.267009,-0.103696,0.14597,0.336411
-0.0526467,0.288569,-2.82524,0.688718,0.0126125,-0.327217,-0.077239,0.157689,0.354876
-0.0504015,0.301085,-2.83141,0.530227,0.0418945,-0.31662,-0.0460176,0.162569,0.370291
-0.0474326,0.310426,-2.83735,0.380303,0.0505926,-0.302336,-0.0319083,0.14836,0.372153
-0.0455858,0.316751,-2.84343,0.224931,-0.0743883,-0.300909,-0.0139937,0.123798,0.360245
-0.0472148,0.320008,-2.84949,0.0806435,-0.268682,-0.288504,0.00270214,0.0991355,0.30047
-0.0510947,0.321187,-2.85548,0.0228787,-0.267884,-0.283368,-0.0198224,0.0892676,0.193045
-0.0531546,0.32165,-2.86135,-0.0115351,-0.150591,-0.276174,-0.0291087,0.0799874,0.132953
-0.0538401,0.321038,-2.86715,-0.084915,-0.115383,-0.270387,-0.0131749,0.0500948,0.121163
-0.0538066,0.318827,-2.87274,-0.160886,-0.0790474,-0.251256,-0.0159463,0.0318367,0.0957209
-0.0534423,0.315767,-2.87824,-0.162753,-0.0392718,-0.263702,-0.0285698,0.0102676,0.0569744
-0.0522293,0.313157,-2.88409,-0.133634,-0.0271881,-0.280061,-0.0390022,-0.00715277,0.046199
-0.0506615,0.310837,-2.89011,-0.136029,0.000642061,-0.281478,-0.0310411,-0.0272589,0.0610553
-0.0486683,0.308257,-2.89585,-0.148889,0.0213096,-0.257955,-0.0254671,-0.0408707,0.073867
-0.0462871,0.305484,-2.90144,-0.16071,0.0476497,-0.268146,-0.0370484,-0.0713153,0.0888036
-0.0438876,0.302078,-2.90771,-0.212239,0.00628438,-0.315879,-0.0487655,-0.10104,0.117543
-0.0416941,0.297505,-2.91499,-0.273793,-0.0156249,-0.360009,-0.0472004,-0.122086,0.123926
-0.0396236,0.291894,-2.92305,-0.314845,-0.00421232,-0.385169,-0.0387225,-0.133101,0.105768
-0.0373717,0.285907,-2.93153,-0.301202,0.00133504,-0.401648,-0.0229458,-0.14557,0.0689812
-0.0343897,0.281221,-2.93989,-0.184494,0.0666856,-0.373718,0.0094117,-0.152128,0.0240073
-0.0307349,0.279255,-2.94701,-0.0519259,0.0957407,-0.3044,0.0221849,-0.135417,0.0277627
-0.0271365,0.279052,-2.95287,-0.00151366,0.0906202,-0.266683,0.0286318,-0.156684,0.0515088
-0.0245149,0.278975,-2.95822,-0.0302091,0.0194791,-0.249355,0.0567984,-0.174397,0.0623066
-0.0235888,0.277917,-2.96305,-0.0937375,-0.0569203,-0.209472,0.0773844,-0.162384,0.0322691
-0.0236898,0.275549,-2.96685,-0.142245,-0.0377597,-0.15368,0.081937,-0.153858,-0.0564878
-0.0222443,0.273049,-2.9697,-0.0998458,0.151282,-0.121987,0.0754345,-0.140976,-0.161766
-0.0159743,0.271988,-2.972,-0.0191682,0.370899,-0.100515,0.0853174,-0.136367,-0.19054
-0.00900752,0.271466,-2.9736,-0.0702856,0.254251,-0.0535186,0.115809,-0.117629,-0.120019
-0.00504417,0.26818,-2.9745,-0.27025,0.119831,-0.0393023,0.112881,-0.111671,-0.105078
-0.00443545,0.260884,-2.97559,-0.439067,-0.0980929,-0.071223,0.0763068,-0.103271,-0.174564
-0.00684868,0.252218,-2.97766,-0.406481,-0.151901,-0.118374,0.0527287,-0.0713404,-0.307937
-0.00767786,0.245486,-2.97995,-0.258929,0.0476967,-0.0849476,0.0744947,-0.0291892,-0.361339
-0.00356058,0.242076,-2.98065,-0.086503,0.330453,0.0279013,0.093743,0.00412314,-0.306782
0.00462572,0.24168,-2.97881,0.0211942,0.521334,0.143109,0.0967661,0.0207063,-0.162679
0.0153754,0.242194,-2.97509,0.0130789,0.644337,0.227593,0.0875519,0.022914,-0.0324897
0.0275689,0.242519,-2.96916,0.00661744,0.703499,0.351757,0.0789694,0.0366575,0.0557402
0.0400272,0.243472,-2.96072,0.068501,0.747014,0.470292,0.0663121,0.0586853,0.10683
0.0510708,0.246299,-2.94977,0.172364,0.601283,0.606444,0.082511,0.0673333,0.128027
0.0570414,0.251796,-2.93597,0.29086,0.313282,0.762088,0.102456,0.0695017,0.125354
0.0556086,0.259231,-2.91945,0.349535,-0.0204081,0.866049,0.0867953,0.0799155,0.117834
0.0479059,0.267196,-2.90137,0.345092,-0.266376,0.922314,0.0572205,0.0853931,0.0948477
0.0362156,0.274246,-2.8826,0.265255,-0.410621,0.90554,0.0152858,0.0876701,0.0678639
0.0211486,0.278335,-2.86499,0.0779666,-0.631216,0.787093,-0.0422295,0.0905972,0.0355331
0.00184834,0.277761,-2.85131,-0.147622,-0.901333,0.515379,-0.124977,0.0947748,-0.0898892
-0.0182812,0.27376,-2.84368,-0.208907,-0.826569,0.237129,-0.137445,0.103499,-0.283173
-0.0182812,0.27376,-2.84368,-0.208907,-0.826569,0.237129,-0.137445,0.103499,-0.283173
-0.0305872,0.270815,-2.84072,-0.0558608,-0.284877,0.0939189,-0.122586,0.169021,-0.388002
-0.0308843,0.272695,-2.83823,0.282138,0.318612,0.169722,-0.0822764,0.226359,-0.361248
-0.0215372,0.28244,-2.8334,0.683084,0.665577,0.247606,-0.0651027,0.224119,-0.193027
-0.0104313,0.298277,-2.82833,0.850924,0.534919,0.20257,-0.08381,0.195363,0.0570953
-0.0037124,0.314593,-2.8249,0.749682,0.24373,0.106563,-0.108668,0.170528,0.231205
-0.00163959,0.327291,-2.82438,0.509287,-0.0202551,-0.0750812,-0.131138,0.130423,0.305329
-0.00362763,0.334951,-2.82847,0.267735,-0.305786,-0.320026,-0.105781,0.0988496,0.303246
-0.00829789,0.338558,-2.83773,0.100418,-0.441558,-0.55245,-0.101228,0.110402,0.222117
-0.0125325,0.339803,-2.85131,0.0298312,-0.428304,-0.715134,-0.0728097,0.134236,0.111051
-0.0153098,0.340924,-2.86734,0.080704,-0.391446,-0.784109,-0.029151,0.159676,0.0274186
-0.0173785,0.344176,-2.88396,0.2299,-0.376707,-0.780866,0.0135662,0.166126,-0.0231438
-0.0193474,0.350294,-2.90038,0.339937,-0.382986,-0.783466,0.012495,0.161045,-0.0299894
-0.0209621,0.357586,-2.91734,0.336738,-0.364034,-0.833947,-0.00212432,0.146095,-0.0146178
-0.021341,0.363634,-2.9361,0.214662,-0.345554,-0.953239,-0.0295402,0.126135,0.00985235
-0.020779,0.366532,-2.95823,0.031572,-0.396277,-1.13025,-0.0478328,0.107937,0.0171451
-0.0195059,0.366112,-2.9842,-0.107855,-0.392345,-1.3005,-0.045936,0.0935067,-0.0234061
-0.0163823,0.363879,-3.01324,-0.157525,-0.342219,-1.40179,-0.0204424,0.0842952,-0.062657
-0.0122893,0.360637,-3.04373,-0.216173,-0.341064,-1.45537,-0.0112371,0.0758926,-0.0560518
-0.00877311,0.355848,-3.07563,-0.301995,-0.443237,-1.5524,-0.0202343,0.0528992,-0.052736
-0.00649754,0.348717,-3.1106,-0.435415,-0.513553,-1.74339,-0.0565309,0.0247671,-0.0810667
-0.00267978,0.339059,3.13355,-0.539591,-0.404017,-1.92861,-0.0702877,0.0243567,-0.133626
0.00484828,0.327958,3.09172,-0.55114,-0.212442,-2.02178,-0.0604065,0.0411658,-0.169093
0.0154158,0.317378,3.04926,-0.460642,-0.108351,-2.02229,-0.0483673,0.0588413,-0.157859
0.0251453,0.308363,3.00738,-0.364196,-0.241976,-1.98857,-0.0567783,0.0677352,-0.115173
0.03064,0.301058,2.96631,-0.251054,-0.404745,-1.96912,-0.108695,0.0710664,-0.122619
0.0342946,0.295771,2.92521,-0.150868,-0.426603,-1.99248,-0.168404,0.0755809,-0.13334
0.0388399,0.292892,2.88364,0.0142395,-0.320658,-2.00009,-0.194159,0.0945386,-0.130589
0.0450578,0.293387,2.84219,0.201864,-0.261258,-1.96946,-0.218975,0.129528,-0.0732732
0.0518733,0.296878,2.80128,0.333179,-0.287507,-1.93326,-0.255652,0.156092,0.013272
0.0572842,0.30269,2.76061,0.46069,-0.405856,-1.94781,-0.319207,0.180932,0.0776825
0.0599845,0.310463,2.71833,0.539739,-0.614193,-2.06021,-0.381286,0.193317,0.133768
0.0586035,0.318325,2.67263,0.486668,-0.955985,-2.25499,-0.419595,0.215792,0.183742
0.0526053,0.323932,2.62209,0.315638,-1.22823,-2.51694,-0.42416,0.237303,0.178324
0.0431042,0.324597,2.56661,-0.0142296,-1.52131,-2.73508,-0.381035,0.282229,0.146774
0.0282637,0.31874,2.50777,-0.362739,-1.82079,-2.87566,-0.332211,0.337464,0.0428948
0.00888674,0.30803,2.44684,-0.57383,-1.97716,-2.94978,-0.278091,0.389501,-0.132783
-0.0106736,0.296223,2.38484,-0.584857,-1.78894,-2.98586,-0.218795,0.393122,-0.326705
-0.0242157,0.287073,2.32265,-0.42433,-1.3441,-2.96158,-0.146196,0.394459,-0.45365
-0.029901,0.28232,2.26202,-0.211106,-0.956733,-2.84291,-0.057789,0.393468,-0.441064
-0.0309999,0.281702,2.20472,-0.0353661,-0.789199,-2.67495,0.0131869,0.372321,-0.325156
-0.0321367,0.283538,2.15047,0.0425125,-0.860851,-2.56701,0.0316874,0.327025,-0.198291
-0.0355852,0.286224,2.09756,0.0439502,-0.956496,-2.54342,0.0404169,0.27693,-0.126175
-0.0401648,0.288206,2.04469,-0.044303,-1.00117,-2.54295,0.0513152,0.242866,-0.0821027
-0.0446745,0.288663,1.99213,-0.111582,-0.938589,-2.50225,0.0758472,0.225635,-0.09415
-0.0476151,0.288964,1.94095,-0.06818,-0.805215,-2.41009,0.102386,0.219865,-0.125921
-0.048287,0.290862,1.892,0.0367803,-0.67926,-2.2999,0.114097,0.200428,-0.127211
-0.0477352,0.29465,1.8453,0.121955,-0.622901,-2.19689,0.136023,0.166458,-0.0928006
-0.0465908,0.299681,1.80096,0.181575,-0.549488,-2.07055,0.151706,0.149403,-0.058332
-0.0439534,0.305561,1.75935,0.224141,-0.425579,-1.94052,0.148654,0.128739,-0.0319381
-0.0391471,0.311731,1.71994,0.228498,-0.298118,-1.86113,0.136677,0.0938159,0.00716627
-0.0327126,0.317234,1.68161,0.197275,-0.227813,-1.81023,0.142586,0.07137,0.0330133
-0.0250557,0.321516,1.64423,0.12354,-0.182115,-1.76081,0.156032,0.0468406,0.0558051
-0.0174109,0.323843,1.60804,0.0386591,-0.195537,-1.68321,0.159999,0.0401666,0.0442046
-0.0098571,0.324657,1.57326,0.0117578,-0.158386,-1.62382,0.142551,0.0254194,-0.00515133
-0.0098571,0.324657,1.57326,0.0117578,-0.158386,-1.62382,0.142551,0.0254194,-0.00515133
-0.00221182,0.325494,1.54018,0.0581937,-0.137399,-1.51432,0.15122,0.0409229,-0.040211
0.0049377,0.327101,1.50986,0.106001,-0.11334,-1.35801,0.156152,0.0613201,-0.0524693
0.0117685,0.329461,1.48327,0.154301,-0.0542855,-1.16412,0.151111,0.0700232,-0.0543368
0.0187632,0.333017,1.46084,0.242426,0.019044,-0.956574,0.133361,0.0809854,-0.0534123
0.0254651,0.338557,1.44248,0.350953,0.0535272,-0.780464,0.094376,0.0840186,-0.029773
0.0320597,0.345787,1.42709,0.401352,0.0885112,-0.656281,0.0582068,0.0727628,0.0205106
0.0391112,0.353119,1.4139,0.365429,0.172747,-0.560686,0.0271084,0.0711374,0.0691881
0.0468984,0.359227,1.40252,0.295131,0.198659,-0.484041,0.0197099,0.0642425,0.111501
0.0539636,0.363864,1.39286,0.204748,0.122504,-0.402636,0.0312743,0.0570135,0.13492
0.0578352,0.367917,1.38451,0.348636,-0.108128,-0.394662,0.0203298,0.0496445,0.12825
0.052004,0.374502,1.37564,0.293915,-0.684415,-0.363585,0.0518115,0.0249434,0.149784
0.0415708,0.376772,1.36819,-0.0396506,-0.587073,-0.3503,0.00154792,0.0142988,0.103706
0.037877,0.373257,1.35925,-0.235419,-0.0951843,-0.51082,-0.0435918,-0.00308657,-0.0285839
0.0432099,0.36886,1.34729,-0.107095,0.159495,-0.589796,8.37594e-05,0.00796717,-0.093339
0.0493547,0.368372,1.33591,0.0851072,-0.0677198,-0.45321,0.0593674,0.0506333,-0.0239095
