attitude_roll,attitude_pitch,attitude_yaw,rotationRate_x,rotationRate_y,rotationRate_z,acceleration_x,acceleration_y,acceleration_z
0.0197176,0.171427,1.051,0.812025,-0.0966134,-0.545168,-0.202792,0.110407,0.319471
0.015969,0.186528,1.03828,0.724217,-0.465347,-0.696118,-0.253362,0.107369,0.357636
0.00891189,0.199837,1.02186,0.624632,-0.515225,-0.907412,-0.271643,0.123528,0.348895
0.00501686,0.210788,1.00132,0.478342,-0.260472,-1.09298,-0.245125,0.142931,0.355006
0.00826922,0.218328,0.977569,0.287621,0.0617722,-1.21421,-0.196412,0.165251,0.409104
0.0171543,0.222294,0.952441,0.154825,0.258733,-1.22299,-0.133644,0.16932,0.463959
0.0273397,0.224533,0.92809,0.142439,0.194774,-1.14433,-0.0824363,0.166911,0.498124
0.0342967,0.227386,0.905831,0.220687,0.000244808,-1.01621,-0.0590269,0.155302,0.511787
0.037045,0.232066,0.885926,0.314754,-0.161973,-0.923369,-0.0650508,0.135933,0.509879
0.0370923,0.238001,0.86722,0.320589,-0.281799,-0.884619,-0.0627414,0.109616,0.522519
0.0346377,0.242364,0.848992,0.157679,-0.390852,-0.876716,-0.059406,0.0867694,0.528892
0.0346377,0.242364,0.848992,0.157679,-0.390852,-0.876716,-0.059406,0.0867694,0.528892
0.0301369,0.24246,0.830808,-0.10007,-0.513934,-0.898226,-0.0511626,0.0611215,0.500323
0.0223784,0.237281,0.812084,-0.367503,-0.722084,-0.942268,-0.0278379,0.0203391,0.427609
0.0107233,0.227442,0.792277,-0.576768,-0.874739,-1.00678,-0.0195717,-0.00614254,0.287987
-0.00187151,0.214066,0.770987,-0.751291,-0.847492,-1.09063,-0.0145287,-0.0324991,0.125306
-0.0131041,0.197654,0.747525,-0.919663,-0.77502,-1.19622,0.00911019,-0.0615652,-0.0375596
-0.0243851,0.178059,0.722896,-1.07464,-0.826401,-1.16115,0.0925854,-0.0599407,-0.218557
-0.0369458,0.157277,0.701045,-1.02904,-0.767362,-0.903976,0.188261,-0.0508135,-0.442521
-0.0472944,0.140358,0.685776,-0.688725,-0.46051,-0.528517,0.22563,-0.0392865,-0.648377
-0.0510915,0.131791,0.678757,-0.203274,-0.0154453,-0.13905,0.223508,-0.0642082,-0.733262
-0.0479477,0.131399,0.67851,0.108157,0.289212,0.0801817,0.155228,-0.107153,-0.648233
-0.0409486,0.133891,0.680858,0.111216,0.418431,0.128815,0.106351,-0.150688,-0.488739
-0.0326262,0.134616,0.683637,-0.032504,0.454579,0.147127,0.0745616,-0.144782,-0.391914
-0.0238094,0.132918,0.686917,-0.109913,0.460831,0.178579,0.0518411,-0.122646,-0.367393
-0.0151984,0.131076,0.690364,-0.0499508,0.450654,0.159373,0.0325082,-0.106665,-0.371714
-0.00652153,0.13127,0.693102,0.0687602,0.463138,0.112045,0.030208,-0.0707976,-0.343418
0.0028907,0.133448,0.695269,0.141162,0.515279,0.118941,0.0604437,-0.00633661,-0.266128
0.0140094,0.136957,0.698726,0.21328,0.666523,0.232188,0.106194,0.0602049,-0.180924
0.0283571,0.142434,0.704829,0.320904,0.836125,0.384353,0.12765,0.100251,-0.0733449
0.0433903,0.150013,0.713805,0.397343,0.747333,0.53129,0.151385,0.0886902,0.0734709
0.052992,0.158804,0.725266,0.423764,0.367778,0.639567,0.163321,0.0583903,0.172249
0.0539363,0.167941,0.738391,0.411944,-0.0364064,0.691132,0.150645,0.0328905,0.183106
0.0494623,0.176415,0.751542,0.365853,-0.120063,0.631084,0.0934761,0.0149635,0.11238
0.0474182,0.183931,0.762698,0.339159,0.142606,0.505504,0.0487055,0.0156598,0.050646
0.0515044,0.190943,0.771472,0.320654,0.420027,0.401391,0.0394198,0.0344501,0.0745332
0.0599894,0.197697,0.778797,0.318108,0.539209,0.361215,0.0430363,0.0480656,0.158903
0.0692548,0.204456,0.785469,0.311608,0.517605,0.34176,0.0451568,0.0555277,0.253543
0.077793,0.21098,0.791771,0.294088,0.455534,0.319306,0.0237859,0.0652841,0.327896
0.0851188,0.217204,0.797181,0.277939,0.385028,0.256181,0.0129135,0.0660404,0.387901
0.0911767,0.222552,0.801005,0.209082,0.319783,0.16321,0.0189374,0.0644082,0.42789
0.0972748,0.225424,0.803377,0.0457384,0.344179,0.112619,0.0492413,0.077585,0.454558
0.103833,0.224791,0.805984,-0.12137,0.36256,0.14572,0.0837449,0.0959797,0.451371
0.1101,0.222029,0.809925,-0.184901,0.347579,0.210442,0.100293,0.110575,0.425189
0.115658,0.218475,0.815094,-0.237692,0.308041,0.244509,0.105146,0.100912,0.418239
0.118666,0.213026,0.820715,-0.37544,0.083257,0.23939,0.124339,0.0801625,0.410357
0.116866,0.205053,0.826878,-0.47604,-0.110059,0.275113,0.150674,0.0933433,0.316748
0.112485,0.195882,0.834011,-0.516334,-0.15379,0.32279,0.134848,0.121054,0.196693
0.108604,0.186057,0.842563,-0.559877,-0.0460091,0.406639,0.135103,0.119052,0.0911024
0.10781,0.175703,0.852749,-0.576992,0.12697,0.473638,0.127621,0.098476,-0.00045222
0.108091,0.165142,0.864186,-0.601057,0.0680554,0.540403,0.137865,0.0721532,-0.0452254
0.105711,0.154091,0.877013,-0.641048,-0.120352,0.599769,0.118361,0.0421236,-0.113739
0.099285,0.141973,0.890593,-0.716563,-0.308167,0.61443,0.11057,0.00941612,-0.22682
0.0900839,0.127588,0.904699,-0.85785,-0.413483,0.649438,0.104617,-0.0134289,-0.369816
0.0798229,0.110554,0.919657,-0.952395,-0.434494,0.688104,0.0728176,-0.0430984,-0.539696
0.0689633,0.0939775,0.935239,-0.767106,-0.483546,0.739983,0.0185078,-0.0568108,-0.711857
0.0583109,0.0840693,0.951037,-0.311312,-0.417913,0.759704,-0.0421725,-0.0673817,-0.809669
0.0506832,0.0825347,0.9661,0.0207003,-0.215247,0.723926,-0.0815407,-0.0857719,-0.7052
0.0465385,0.0837716,0.979602,-0.00401188,-0.118493,0.619655,-0.106463,-0.106817,-0.473687
0.0428781,0.0825048,0.990377,-0.165405,-0.190995,0.445049,-0.12797,-0.13054,-0.323623
0.036029,0.0787723,0.997431,-0.206597,-0.463509,0.243152,-0.13854,-0.123274,-0.281885
0.0244086,0.0763621,1.00073,-0.0174237,-0.624654,0.094605,-0.109708,-0.0835022,-0.321052
0.0244086,0.0763621,1.00073,-0.0174237,-0.624654,0.094605,-0.109708,-0.0835022,-0.321052
0.0133356,0.0789878,1.00201,0.282595,-0.415346,0.0508857,-0.0935854,-0.000562146,-0.344225
0.00930333,0.0873128,1.00298,0.534225,0.0194686,0.0563813,-0.0893917,0.0621927,-0.263496
0.0135989,0.0992333,1.00394,0.63553,0.381654,0.0479696,-0.113278,0.0870618,-0.103293
0.0216219,0.111855,1.0045,0.620753,0.353751,0.0283898,-0.14293,0.0872539,0.0579105
0.0246038,0.123622,1.00417,0.55725,-0.103276,-0.0449232,-0.194915,0.0850538,0.147326
0.0183896,0.134007,1.00134,0.485509,-0.504099,-0.233626,-0.251027,0.0777131,0.139015
0.00823129,0.142617,0.993806,0.396445,-0.583252,-0.50261,-0.27864,0.0802294,0.0857764
0.000323399,0.150516,0.981498,0.413843,-0.340819,-0.700724,-0.2229,0.104935,0.0414739
-0.000651508,0.159171,0.966521,0.441281,0.0121648,-0.754931,-0.148435,0.164771,0.102196
0.00466778,0.167614,0.952178,0.407333,0.249775,-0.64991,-0.0907993,0.183035,0.236661
0.0116369,0.175384,0.939993,0.392056,0.214256,-0.552454,-0.0775288,0.161227,0.371113
0.0162359,0.183228,0.929216,0.405643,0.0372987,-0.507984,-0.0843687,0.132415,0.463417
0.0164975,0.190965,0.91884,0.373492,-0.205522,-0.515089,-0.107277,0.110277,0.530608
0.0118292,0.197409,0.907639,0.283505,-0.46095,-0.580407,-0.118655,0.0904923,0.565501
0.00354375,0.201992,0.895092,0.174759,-0.592826,-0.655657,-0.121712,0.0946185,0.544787
-0.00488955,0.203788,0.880934,-0.011575,-0.529487,-0.730394,-0.103686,0.0937072,0.51404
-0.0118049,0.201329,0.865515,-0.2451,-0.494577,-0.77469,-0.0863342,0.0956625,0.478665
-0.0191414,0.194989,0.84971,-0.394441,-0.570007,-0.756836,-0.0434021,0.0842588,0.406941
-0.0290185,0.187065,0.834664,-0.421057,-0.70015,-0.70705,-0.019267,0.0749831,0.296014
-0.0408997,0.179148,0.820234,-0.425538,-0.740484,-0.696246,-0.0276373,0.054259,0.188938
-0.053274,0.170975,0.8055,-0.468482,-0.754788,-0.724692,-0.00572468,0.0184405,0.0999728
-0.0654729,0.161899,0.789949,-0.539202,-0.721403,-0.753757,0.0183211,-0.00808802,0.0140595
-0.0763822,0.151122,0.773864,-0.657076,-0.6009,-0.754727,0.0449359,-0.028392,-0.0707525
-0.0845443,0.137881,0.757861,-0.789315,-0.472138,-0.717936,0.0745174,-0.057166,-0.154371
-0.0915661,0.122252,0.742196,-0.899456,-0.44292,-0.693116,0.0741846,-0.0903935,-0.259317
-0.0984374,0.10564,0.726973,-0.873502,-0.412221,-0.665722,0.0727061,-0.127116,-0.397031
-0.103766,0.0917636,0.712333,-0.626898,-0.232759,-0.649242,0.0816446,-0.152811,-0.538647
-0.10393,0.083986,0.698932,-0.300898,0.110789,-0.591506,0.118301,-0.159643,-0.600042
-0.0974504,0.0808214,0.68771,-0.172441,0.427376,-0.488006,0.154184,-0.154786,-0.533796
-0.0855991,0.07772,0.678678,-0.235882,0.684253,-0.389778,0.159394,-0.178492,-0.459016
-0.0696494,0.0730005,0.671144,-0.275441,0.831661,-0.321855,0.159679,-0.205934,-0.435059
-0.0528661,0.068966,0.665384,-0.137599,0.781394,-0.221624,0.174603,-0.202695,-0.443453
-0.0381847,0.0688194,0.662677,0.119546,0.698056,-0.0420132,0.192153,-0.151938,-0.443402
-0.0231222,0.0738072,0.664013,0.377648,0.858516,0.159889,0.191529,-0.0900324,-0.400908
-0.00362479,0.0832615,0.669192,0.564253,1.12837,0.342146,0.184017,-0.0433148,-0.264686
0.019379,0.0957228,0.677715,0.67157,1.23518,0.514727,0.173368,-0.00774062,-0.0777171
0.0424217,0.110172,0.689301,0.728205,1.15693,0.685357,0.181649,0.013758,0.0994731
0.0609541,0.125224,0.704016,0.683408,0.8501,0.861081,0.197251,0.0321083,0.238862
0.0714542,0.138808,0.722229,0.542387,0.440312,1.0314,0.204623,0.0334893,0.297608
0.0733043,0.149461,0.743356,0.379475,0.0783119,1.11784,0.156185,0.0380038,0.254766
0.0697779,0.157688,0.765054,0.307032,-0.0764431,1.07149,0.0911778,0.0390548,0.137411
0.064102,0.164931,0.785348,0.283861,-0.140713,0.988536,0.0852639,0.0647277,0.0539228
0.0590986,0.17185,0.804689,0.300157,-0.0167158,0.973847,0.0986814,0.100677,-0.00511265
0.0578806,0.179848,0.824589,0.40621,0.258516,1.05168,0.114899,0.147065,-0.0271913
0.0618523,0.190921,0.846925,0.569615,0.529763,1.21489,0.11175,0.19605,0.0281702
0.0682848,0.205135,0.87255,0.669446,0.577881,1.38163,0.0993212,0.204661,0.156836
0.0728805,0.220531,0.90058,0.657786,0.460886,1.44991,0.0641404,0.181043,0.277451
0.0742088,0.235043,0.929121,0.581008,0.318847,1.42454,0.0215563,0.160314,0.340067
0.0725999,0.247358,0.956705,0.442534,0.178495,1.33814,-0.0191962,0.159104,0.366194
0.0682172,0.256164,0.982893,0.261122,0.0494862,1.26965,-0.0186378,0.16066,0.351227
0.0624631,0.261303,1.00816,0.0988212,0.0298818,1.20858,-0.0130777,0.162896,0.295393
0.0624631,0.261303,1.00816,0.0988212,0.0298818,1.20858,-0.0130777,0.162896,0.295393
0.0570737,0.26342,1.03249,-0.019938,0.0483526,1.16734,0.00264887,0.148461,0.237554
0.0512145,0.263686,1.05653,-0.0660651,-0.0212712,1.16474,0.034287,0.129385,0.17761
0.0441723,0.263791,1.08067,-0.0291644,-0.0519439,1.17519,0.0460383,0.120117,0.113698
0.0365061,0.264533,1.10513,-0.00446556,-0.077653,1.19307,0.0536692,0.108977,0.0839412
0.0284759,0.264743,1.12982,-0.065023,-0.0783222,1.19525,0.0664987,0.0907171,0.0745555
0.0205712,0.262681,1.15454,-0.206855,-0.0628811,1.18554,0.0636014,0.0778625,0.0512167
0.0132364,0.257422,1.17859,-0.351326,-0.0594868,1.13118,0.0533164,0.0524243,-0.00740027
0.00646944,0.249878,1.20111,-0.416299,-0.048078,1.0457,0.0444822,0.029985,-0.0905563
0.000493303,0.241325,1.22196,-0.448587,-0.0512651,0.995703,0.0680634,0.0123354,-0.162447
-0.0057417,0.231955,1.24248,-0.481791,-0.105338,1.01424,0.0953858,-0.00452507,-0.226275
-0.0130911,0.221934,1.26363,-0.501525,-0.166174,1.06509,0.110212,-0.0269229,-0.284055
-0.0222014,0.211429,1.28541,-0.527314,-0.299663,1.0817,0.0817027,-0.0469326,-0.338854
-0.0339716,0.200082,1.30665,-0.547217,-0.436777,1.02405,0.0360188,-0.0818292,-0.43441
-0.0464746,0.189171,1.32607,-0.440855,-0.405182,0.932599,0.0279136,-0.117665,-0.565454
-0.0553587,0.181773,1.34402,-0.199623,-0.11049,0.889716,0.0464842,-0.117978,-0.633567
-0.0564145,0.179078,1.3623,0.0134001,0.319487,0.936293,0.0445728,-0.0857174,-0.551096
-0.0515886,0.179163,1.38182,0.0730436,0.453299,0.972645,0.0378618,-0.0911726,-0.328519
-0.0467395,0.179583,1.40121,0.0516969,0.340426,0.923767,0.0172845,-0.114899,-0.165075
-0.0457023,0.179776,1.41849,0.0574945,0.0592463,0.773994,-0.0170006,-0.120461,-0.105767
-0.0493267,0.18165,1.43275,0.225548,-0.110471,0.63156,-0.0136841,-0.0912897,-0.145548
-0.0521434,0.188299,1.44531,0.499727,0.107889,0.589806,-0.00760893,0.0123378,-0.175292
-0.0488549,0.199391,1.45869,0.650802,0.478857,0.689958,0.00584514,0.112654,-0.0900586
-0.0405717,0.211907,1.47493,0.662789,0.637838,0.844197,-0.00622992,0.164243,0.0409445
-0.03337,0.224372,1.49375,0.650091,0.434939,0.935013,-0.0601697,0.173026,0.142543
-0.0329861,0.236683,1.51332,0.646487,0.040883,0.919984,-0.128218,0.178068,0.180027
-0.0389349,0.248962,1.53159,0.644957,-0.145825,0.798237,-0.192637,0.179641,0.157491
-0.0448037,0.260779,1.5465,0.587412,-0.0304233,0.585555,-0.225006,0.165563,0.147807
-0.045036,0.270951,1.55647,0.474721,0.286039,0.339871,-0.235003,0.172693,0.179215
-0.037926,0.279203,1.56219,0.376931,0.546275,0.202252,-0.177068,0.180039,0.252058
-0.0276427,0.28584,1.56619,0.303408,0.572621,0.172614,-0.106936,0.1889,0.346968
-0.0173496,0.29147,1.57026,0.276098,0.542554,0.211987,-0.0752409,0.190803,0.407599
-0.0092242,0.296964,1.57505,0.281163,0.390254,0.238029,-0.0576318,0.172959,0.455823
-0.004737,0.302924,1.58013,0.31712,0.224465,0.240393,-0.0452987,0.147907,0.46668
-0.00341991,0.309198,1.58492,0.298822,0.0595295,0.216621,-0.0368424,0.134281,0.470273
-0.00438847,0.314022,1.58929,0.15936,-0.00674669,0.20012,-0.0270914,0.120715,0.458704
-0.0063795,0.314777,1.59328,-0.0871407,-0.0628533,0.177462,-0.0165018,0.0921207,0.438288
-0.00878238,0.310854,1.59632,-0.298799,-0.0850686,0.109987,-0.0153661,0.0642335,0.363352
-0.0114714,0.303151,1.59779,-0.460567,-0.124367,0.042075,-0.00661486,0.0291044,0.252739
-0.0139767,0.292918,1.59809,-0.559904,-0.129183,0.00388948,0.0195759,0.00647491,0.143072
-0.0167649,0.281117,1.59813,-0.622071,-0.150598,0.0267133,0.0432362,-0.00586572,0.0501497
-0.0202366,0.268145,1.59895,-0.680955,-0.165713,0.0728345,0.044979,-0.0183819,-0.032195
-0.0232658,0.25436,1.60056,-0.682511,-0.0807869,0.117993,0.041314,-0.036139,-0.129316
-0.024157,0.241502,1.60338,-0.586702,0.0642923,0.193682,0.0525064,-0.0473527,-0.20626
-0.0219951,0.231065,1.60827,-0.445348,0.27088,0.30981,0.0560767,-0.0550885,-0.23154
-0.0165805,0.223504,1.61589,-0.299512,0.428956,0.449805,0.0429465,-0.0673227,-0.195097
-0.00957208,0.218806,1.62617,-0.164122,0.487388,0.553177,0.0110069,-0.0921705,-0.113304
-0.00216686,0.216521,1.63798,-0.0682454,0.512137,0.593171,-0.0314379,-0.115947,-0.0222224
0.00565235,0.215515,1.65003,-0.0441771,0.521994,0.584315,-0.0678385,-0.129045,0.0632156
0.0135535,0.215057,1.66179,-0.0138917,0.505622,0.558593,-0.0825006,-0.135916,0.118064
0.0206529,0.215456,1.67269,0.0260679,0.429612,0.509057,-0.0808429,-0.13223,0.165254
0.0206529,0.215456,1.67269,0.0260679,0.429612,0.509057,-0.0808429,-0.13223,0.165254
0.0257869,0.216105,1.68265,0.00133845,0.294705,0.465587,-0.0680615,-0.133244,0.193029
0.028499,0.215563,1.69171,-0.0836827,0.159983,0.421016,-0.0453833,-0.132416,0.171986
0.0286456,0.213754,1.70014,-0.10095,0.058543,0.409884,-0.0186668,-0.122541,0.0840029
0.0276088,0.212761,1.70915,-0.0133218,0.0309804,0.485973,-0.00502548,-0.0816572,-0.0261557
0.0259773,0.214118,1.72032,0.128694,0.0602205,0.61765,0.00585341,-0.0573815,-0.1216
0.025113,0.218769,1.73377,0.297697,0.148166,0.699753,-0.0178896,-0.0483222,-0.196506
0.0258013,0.226026,1.74815,0.373556,0.233347,0.714689,-0.0277516,-0.0656122,-0.210132
0.0275464,0.233749,1.76217,0.352879,0.239305,0.668044,-0.0462336,-0.0744648,-0.198203
0.0282294,0.240597,1.77515,0.292529,0.120793,0.617988,-0.0374682,-0.0712416,-0.209596
0.0260339,0.246287,1.78745,0.246008,-0.0363754,0.596307,-0.0230177,-0.0641483,-0.243731
0.0212248,0.251184,1.79935,0.217352,-0.133653,0.576013,-0.0161933,-0.0456536,-0.289046
0.0157074,0.255838,1.81093,0.227204,-0.111931,0.558304,0.000704101,-0.0229296,-0.298064
0.0118734,0.260784,1.82223,0.238096,0.0474063,0.546901,0.0217161,0.00431311,-0.259954
0.0123043,0.26516,1.83361,0.179402,0.299717,0.574059,0.0643589,0.0333497,-0.159427
0.0175429,0.268135,1.84609,0.103742,0.546166,0.639795,0.100562,0.0601304,-0.0341576
0.0257791,0.269697,1.86012,0.026578,0.62676,0.734599,0.130521,0.0830133,0.0925446
0.03337,0.270612,1.87695,0.0291843,0.568364,0.909306,0.178071,0.108004,0.173474
0.0380395,0.272714,1.89808,0.112422,0.470973,1.14703,0.21574,0.139891,0.225073
0.0392639,0.27643,1.92434,0.146881,0.345492,1.40933,0.243685,0.160618,0.275702
0.0356187,0.28026,1.95662,0.105649,0.141028,1.71986,0.279133,0.157786,0.302827
0.0250043,0.283059,1.99525,0.065567,-0.12714,1.99841,0.288981,0.152814,0.270849
0.00826903,0.284719,2.0389,0.0204026,-0.297513,2.19804,0.274687,0.142705,0.196127
-0.0106531,0.284099,2.08591,-0.079745,-0.242076,2.30934,0.23131,0.121342,0.093817
-0.027102,0.280789,2.13382,-0.154801,-0.0666896,2.29194,0.186651,0.0856309,-0.0112869
-0.0401496,0.275867,2.18038,-0.172878,0.00290288,2.21106,0.174577,0.0561028,-0.0760005
-0.0530152,0.271082,2.22506,-0.0999357,-0.0905135,2.12252,0.201553,0.0389996,-0.116455
-0.0668105,0.267062,2.26795,-0.0677794,-0.141844,2.04218,0.23836,0.0471326,-0.13274
-0.0799945,0.262327,2.30928,-0.1133,-0.0590486,1.99393,0.261502,0.0578977,-0.152305
-0.0895741,0.256609,2.34955,-0.110723,0.140612,1.93803,0.266243,0.0721921,-0.200135
-0.0947454,0.251723,2.38846,-0.0166623,0.319903,1.87131,0.278588,0.0844766,-0.223801
-0.0962272,0.249228,2.42654,0.12599,0.450721,1.84517,0.293809,0.118985,-0.206752
-0.0953193,0.2498,2.46503,0.280612,0.584816,1.88149,0.300061,0.168383,-0.161032
-0.0923847,0.253067,2.50476,0.393997,0.674067,1.93067,0.288,0.187966,-0.0897516
-0.0885563,0.258076,2.54516,0.444387,0.703302,1.92731,0.265642,0.18555,-0.0241497
-0.0849023,0.263782,2.58538,0.452067,0.683966,1.91049,0.239536,0.173576,0.00969332
-0.0830308,0.269872,2.62487,0.481831,0.553892,1.82579,0.195031,0.149772,0.00252259
-0.0824839,0.276851,2.66167,0.499856,0.49212,1.65829,0.161544,0.120145,-0.028349
-0.0813469,0.284338,2.69505,0.512921,0.557251,1.48865,0.126579,0.115117,-0.0633919
-0.0783354,0.292432,2.72552,0.533209,0.612992,1.37875,0.0859041,0.151152,-0.0927848
-0.0736027,0.301269,2.75426,0.554178,0.68775,1.30732,0.047687,0.170725,-0.116839
-0.0668558,0.310717,2.78148,0.570471,0.83588,1.22724,-0.0109017,0.189439,-0.132929
-0.0552826,0.320535,2.80693,0.54397,1.10152,1.13467,-0.0732007,0.203457,-0.117294
-0.0389895,0.329418,2.83025,0.43702,1.23734,1.04502,-0.124051,0.201514,-0.0554801
-0.0222208,0.336077,2.85167,0.286793,1.11213,0.970489,-0.162892,0.194334,-0.00306165
-0.00969345,0.340129,2.87137,0.154365,0.792504,0.886252,-0.195559,0.187963,0.00133747
-0.00211334,0.342151,2.88874,0.0674783,0.577562,0.748497,-0.219445,0.160999,-0.044524
0.00425001,0.342899,2.90301,0.00496129,0.564835,0.604718,-0.234838,0.158789,-0.0924957
0.0127092,0.342378,2.91499,-0.0663302,0.700269,0.536921,-0.224648,0.164738,-0.113583
0.0244867,0.340878,2.92646,-0.0903155,0.844706,0.554591,-0.202137,0.162668,-0.105047
0.0377884,0.340093,2.93883,-0.0140644,0.892674,0.611766,-0.193285,0.151842,-0.0688135
0.050917,0.341303,2.9523,0.0671049,0.833743,0.664894,-0.210649,0.142516,0.00933546
0.0603124,0.344036,2.96711,0.122052,0.572789,0.741694,-0.212246,0.118158,0.0875773
0.0632612,0.347951,2.9828,0.171817,0.262095,0.749729,-0.227842,0.0889277,0.133612
0.0601948,0.352161,2.99785,0.148023,-0.0228243,0.682863,-0.237344,0.059038,0.160028
0.0538114,0.354673,3.0108,0.014232,-0.165023,0.531198,-0.24279,0.0217681,0.164659
0.0465002,0.353399,3.01961,-0.185938,-0.25521,0.285012,-0.242097,-0.0135756,0.148033
0.0394356,0.347955,3.02317,-0.364645,-0.329848,0.0295797,-0.225249,-0.0233119,0.094004
0.0330084,0.339882,3.02188,-0.418884,-0.348133,-0.17309,-0.17798,-0.0179425,0.00253743
0.0282754,0.331615,3.01689,-0.391508,-0.285968,-0.312213,-0.121656,-0.00722358,-0.0627642
0.0253177,0.324024,3.00986,-0.345559,-0.230602,-0.367713,-0.0629229,-0.00144011,-0.092198
0.0241466,0.317509,3.00222,-0.283412,-0.122249,-0.373151,-0.0195195,-0.00112328,-0.107619
0.0255532,0.312425,2.99462,-0.205792,0.0240884,-0.35918,-0.00395836,0.00182492,-0.106962
0.0291963,0.309103,2.98757,-0.107303,0.107187,-0.32067,0.0108419,6.6489e-05,-0.0797359
0.0329381,0.307612,2.98122,-0.02261,0.0652251,-0.28847,0.0224314,-0.00353694,-0.0350369
0.0356153,0.307611,2.9755,0.0349258,0.0233214,-0.258223,0.0188591,-0.0104188,-0.00459141
0.0372128,0.308439,2.97027,0.0622319,-0.020925,-0.239472,0.0183235,-0.0164967,0.0133978
0.0378286,0.30948,2.96538,0.059672,-0.0714307,-0.22333,0.0187257,-0.0224325,0.0164316
0.0370156,0.31048,2.96089,0.058619,-0.145788,-0.201969,0.0108591,-0.0260729,-0.00729704
0.0348576,0.311734,2.95674,0.0930443,-0.183139,-0.197082,-0.0159284,-0.0274579,-0.0605395
0.0326323,0.314134,2.95217,0.160904,-0.177027,-0.240842,-0.0569241,-0.0318428,-0.113971
0.0313659,0.317717,2.94613,0.211867,-0.118412,-0.324555,-0.0890105,-0.0332893,-0.142389
0.0323323,0.321955,2.93806,0.241998,-0.0363578,-0.432603,-0.106929,-0.0280301,-0.139264
0.0359622,0.326885,2.92776,0.283657,0.0659314,-0.525505,-0.112114,-0.0108756,-0.119514
0.0415645,0.332468,2.9158,0.317487,0.101848,-0.583438,-0.111863,0.0119539,-0.070347
0.0477886,0.338535,2.90271,0.338942,0.0871503,-0.632202,-0.111282,0.0263505,-0.0178263
0.0540217,0.34445,2.88818,0.317674,0.0451517,-0.708216,-0.119122,0.0374621,0.0332568
0.0540217,0.34445,2.88818,0.317674,0.0451517,-0.708216,-0.119122,0.0374621,0.0332568
0.0599251,0.349446,2.87189,0.265744,-0.0145689,-0.793369,-0.108378,0.0463566,0.0732826
0.0649493,0.352884,2.85429,0.185667,-0.0829016,-0.832466,-0.0823582,0.0628293,0.0950166
0.0689447,0.354693,2.83661,0.109497,-0.12423,-0.808059,-0.0549736,0.0812199,0.0882047
0.072022,0.355318,2.81983,0.0720953,-0.145872,-0.764086,-0.047247,0.0832859,0.0635386
0.0747959,0.355616,2.80382,0.0700065,-0.150424,-0.742195,-0.0464149,0.0702288,0.0468718
0.0766759,0.355841,2.78813,0.0734747,-0.20045,-0.731239,-0.0519962,0.0625669,0.0336596
0.0782203,0.356273,2.77242,0.0785482,-0.188188,-0.74203,-0.0525274,0.0553576,0.0235709
0.0802691,0.356407,2.75653,0.0464653,-0.164969,-0.743199,-0.0394689,0.052324,0.0376547
0.0824254,0.355592,2.74092,-0.00851853,-0.168606,-0.72675,-0.0246301,0.0470133,0.0498585
0.0841252,0.353885,2.72561,-0.0348111,-0.197184,-0.721025,-0.0144424,0.0349911,0.0459984
0.0850028,0.352069,2.71041,-0.0261071,-0.2439,-0.722088,-0.00399396,0.0262527,0.0345457
0.0852101,0.350528,2.69528,-0.00339848,-0.252068,-0.711612,0.0117735,0.0188699,0.0130392
0.0855967,0.349522,2.68034,0.026367,-0.213667,-0.698129,0.0208427,0.0203662,0.00189263
0.0869524,0.348984,2.66569,0.0346429,-0.152098,-0.682848,0.0318411,0.0201507,0.00678802
0.0890207,0.348562,2.65168,0.0425865,-0.128648,-0.633846,0.061432,0.0151614,0.0212871
0.0906603,0.348653,2.63898,0.0762221,-0.150642,-0.559673,0.084421,0.0101046,0.0282591
0.0911198,0.34943,2.62772,0.0879402,-0.195039,-0.494454,0.0985566,-0.00706431,0.0361952
0.0902249,0.349985,2.61761,0.0491084,-0.232288,-0.451948,0.112061,-0.0296745,0.0376228
0.0888753,0.34958,2.60831,-0.00638107,-0.216729,-0.426943,0.112365,-0.0465352,0.0178399
0.0882689,0.34852,2.59934,-0.0180994,-0.142173,-0.431925,0.11139,-0.0556943,-0.0184461
0.0890175,0.347409,2.59039,-0.0209518,-0.0980762,-0.414403,0.121184,-0.053046,-0.0190161
0.0902777,0.34606,2.58215,-0.0480222,-0.0548111,-0.369365,0.134352,-0.046212,-0.00693172
0.0921303,0.344085,2.57504,-0.091231,0.00629813,-0.320349,0.137193,-0.045492,0.00286746
0.0944887,0.341474,2.56906,-0.112309,0.0213811,-0.26425,0.151578,-0.0547875,0.0146734
0.0968483,0.338628,2.56405,-0.13316,0.0344144,-0.234924,0.157146,-0.067755,0.0262548
0.0988509,0.33514,2.5599,-0.178875,0.0194042,-0.188977,0.170961,-0.0725722,0.0394701
0.0999531,0.331027,2.55704,-0.202257,0.00830739,-0.114928,0.191031,-0.0682501,0.0241644
0.100516,0.326978,2.55618,-0.188399,0.0288612,0.00284497,0.195116,-0.0551141,0.00353175
0.101177,0.323482,2.55764,-0.171016,0.06095,0.0967851,0.177336,-0.0514231,-0.00721496
0.101227,0.320779,2.56083,-0.123037,0.0421158,0.173788,0.159136,-0.0648516,-0.0201927
0.100847,0.319706,2.56509,-0.0396228,0.0331193,0.227829,0.139899,-0.0568823,-0.0346367
0.100114,0.320135,2.57058,0.0103046,0.0451838,0.302064,0.123637,-0.0448784,-0.0283383
0.0992034,0.321032,2.57754,0.000417378,0.057787,0.364917,0.0921154,-0.0351006,-0.0183254
0.0980784,0.321489,2.5855,-0.0329008,0.0696949,0.390219,0.0547244,-0.0390158,-0.0246048
0.0970347,0.321542,2.59358,-0.0279035,0.0879797,0.3702,0.0117815,-0.0428263,-0.0504801
0.096782,0.322185,2.60116,0.0223602,0.130166,0.352342,-0.0113061,-0.0358838,-0.0670473
0.0977779,0.323877,2.6082,0.0776059,0.189314,0.331406,-0.031298,-0.0270163,-0.0539712
0.099668,0.326325,2.6148,0.104211,0.206557,0.316299,-0.0464614,-0.0237351,-0.0198764
0.101217,0.329153,2.62105,0.115772,0.150099,0.301929,-0.0616839,-0.018494,0.0212919
0.101914,0.331745,2.62687,0.0781162,0.103219,0.273339,-0.087218,-0.0176138,0.0576655
0.101991,0.333239,2.63202,0.0163031,0.0925733,0.214249,-0.108924,-0.025189,0.0832959
0.102803,0.333052,2.63546,-0.0719815,0.110608,0.103172,-0.127821,-0.0337431,0.109417
0.105134,0.330419,2.63658,-0.20898,0.142454,-0.0181825,-0.122579,-0.038781,0.146021
0.108038,0.324832,2.63599,-0.338289,0.123922,-0.0920383,-0.0991522,-0.0401489,0.162516
0.110138,0.3169,2.63465,-0.43022,0.0371682,-0.114857,-0.0702019,-0.0392838,0.162283
0.110436,0.307814,2.63333,-0.451948,-0.0406232,-0.109771,-0.0437978,-0.0454892,0.137058
0.109557,0.298717,2.63224,-0.444097,-0.0741367,-0.09361,-0.0287509,-0.0498523,0.119266
0.108224,0.289652,2.63153,-0.461306,-0.0804958,-0.0737294,-0.011686,-0.0605271,0.120034
0.106485,0.280008,2.63149,-0.504996,-0.0993355,-0.0350852,0.00622356,-0.0732312,0.123304
0.103876,0.269571,2.63231,-0.543038,-0.140419,0.000631425,0.016999,-0.0916841,0.108562
0.1001,0.258783,2.63382,-0.54323,-0.199598,0.0330955,0.0207801,-0.105928,0.078547
0.0952188,0.248534,2.63591,-0.494687,-0.222864,0.0659491,0.0200899,-0.117313,0.0320678
0.0902037,0.239521,2.63843,-0.430346,-0.220176,0.0919057,0.0129693,-0.125693,-0.005795
0.0851148,0.231512,2.64119,-0.398265,-0.227299,0.104629,-0.00101798,-0.137173,-0.0305844
0.0851148,0.231512,2.64119,-0.398265,-0.227299,0.104629,-0.00101798,-0.137173,-0.0305844
0.079839,0.224118,2.64404,-0.360831,-0.259234,0.107303,-0.0188606,-0.146101,-0.0573816
0.0742632,0.217862,2.6465,-0.2667,-0.223612,0.0790733,-0.0388565,-0.160551,-0.101509
0.0706204,0.214188,2.64753,-0.108704,-0.0796077,-0.0093351,-0.0624796,-0.166093,-0.130587
0.0708723,0.212797,2.64637,-0.0425514,0.0646436,-0.110043,-0.0665455,-0.154894,-0.0673987
0.0734992,0.211444,2.64367,-0.0862439,0.113897,-0.160791,-0.054662,-0.13252,0.0275947
0.0762451,0.208856,2.6401,-0.147187,0.0790296,-0.211139,-0.0461194,-0.126445,0.0882807
0.0778359,0.205016,2.63547,-0.201923,-0.0178945,-0.272067,-0.0490751,-0.119979,0.113819
0.0775516,0.200125,2.62982,-0.242925,-0.123061,-0.316187,-0.0321502,-0.114624,0.108703
0.0756011,0.194633,2.62363,-0.256546,-0.187784,-0.330075,-0.0110232,-0.099547,0.0798635
0.0727931,0.189205,2.61773,-0.237287,-0.197482,-0.280109,0.0211899,-0.0847035,0.0408019
0.0701066,0.184757,2.61317,-0.171615,-0.15257,-0.196344,0.0345976,-0.0673606,0.00548393
0.0677037,0.182077,2.61035,-0.0806997,-0.147223,-0.100035,0.0392708,-0.064029,-0.00245655
0.064616,0.181014,2.60925,-0.0303134,-0.197548,-0.0194414,0.0366731,-0.0723071,0.0161547
0.0595324,0.180456,2.60956,-0.0334147,-0.300956,0.0426482,0.023729,-0.0793262,0.0217378
0.0523474,0.17962,2.61074,-0.0551558,-0.402006,0.0591075,-0.00852823,-0.0937446,-0.0140333
0.0432438,0.178309,2.6117,-0.0773611,-0.480147,0.0215576,-0.0386386,-0.107897,-0.0738582
0.0326801,0.176391,2.6114,-0.130178,-0.600514,-0.0645812,-0.0748766,-0.106062,-0.140035
0.0190308,0.172669,2.60914,-0.241497,-0.813992,-0.17587,-0.096185,-0.110765,-0.211902
0.00178723,0.166899,2.60432,-0.317115,-0.986919,-0.305594,-0.120354,-0.112286,-0.315487
-0.0168696,0.160834,2.59672,-0.312391,-0.960658,-0.449094,-0.146481,-0.0950621,-0.40892
-0.032273,0.153878,2.58562,-0.449592,-0.743939,-0.631794,-0.158788,-0.0791501,-0.423891
-0.0429209,0.142965,2.57098,-0.698462,-0.579859,-0.768729,-0.145625,-0.0769736,-0.421957
-0.0522282,0.12849,2.55361,-0.795355,-0.584473,-0.891908,-0.137862,-0.0649178,-0.469999
-0.0611791,0.114624,2.53366,-0.689669,-0.55297,-1.00711,-0.12824,-0.0307073,-0.523222
-0.0689011,0.103775,2.51205,-0.532039,-0.455023,-1.05166,-0.10288,0.0318115,-0.527012
-0.0750115,0.0968902,2.49089,-0.285313,-0.361426,-0.987865,-0.0660659,0.0987986,-0.499936
-0.0789924,0.096147,2.4723,0.0913075,-0.208388,-0.841801,-0.0490939,0.170111,-0.451189
-0.0799109,0.103314,2.45748,0.492008,-0.0467662,-0.702365,-0.0691593,0.226131,-0.320182
-0.0791372,0.116804,2.44504,0.72252,-0.0219084,-0.65694,-0.122656,0.266914,-0.13921
-0.0786677,0.132502,2.43249,0.714132,-0.109085,-0.726164,-0.179411,0.297093,0.0332586
-0.080489,0.146448,2.41747,0.547558,-0.291003,-0.883095,-0.211245,0.312124,0.132821
-0.0847158,0.156761,2.39833,0.319264,-0.41669,-1.09857,-0.229381,0.327644,0.163639
-0.0903245,0.162781,2.37449,0.0837346,-0.517954,-1.29704,-0.204997,0.346053,0.157196
-0.096484,0.165292,2.34715,-0.0627223,-0.538681,-1.4005,-0.13351,0.360494,0.11606
-0.102278,0.166472,2.31872,-0.0821796,-0.500466,-1.39461,-0.064824,0.372217,0.0712624
-0.10677,0.16814,2.29132,-0.0272094,-0.405671,-1.30778,0.00855273,0.355566,0.0613688
-0.10968,0.171156,2.26646,0.069001,-0.300106,-1.17005,0.0685848,0.31377,0.0813809
-0.110658,0.176311,2.2446,0.215395,-0.174991,-1.0363,0.103639,0.265288,0.118475
-0.10939,0.184333,2.22562,0.372457,-0.0448793,-0.914757,0.114678,0.230548,0.191477
-0.106302,0.19434,2.20905,0.437077,0.0236296,-0.815832,0.115716,0.201435,0.290792
-0.103022,0.204576,2.19432,0.429613,-0.00416252,-0.739079,0.117587,0.159512,0.374117
-0.101018,0.214417,2.1805,0.407723,-0.102585,-0.723139,0.102885,0.131922,0.414258
-0.101066,0.223598,2.16633,0.367176,-0.191533,-0.749058,0.0971465,0.103713,0.418403
-0.101426,0.23189,2.15127,0.303851,-0.173297,-0.810666,0.0836643,0.0876969,0.399385
-0.100607,0.238462,2.13447,0.178228,-0.148212,-0.885821,0.0968625,0.0624265,0.39347
-0.0992618,0.242171,2.11593,0.00374271,-0.148992,-0.946988,0.121476,0.0381808,0.365928
-0.0977355,0.242169,2.09583,-0.199616,-0.173563,-1.00083,0.136618,0.0170456,0.317231
-0.0958829,0.238182,2.07394,-0.402705,-0.162132,-1.08293,0.146241,-0.013789,0.232701
-0.0930383,0.230453,2.05006,-0.589214,-0.0925578,-1.16059,0.153513,-0.0313618,0.127616
-0.0883521,0.218904,2.02458,-0.791175,-0.0266488,-1.20337,0.167842,-0.0353271,0.0256428
-0.0837446,0.203633,1.99929,-0.923998,-0.0464483,-1.1139,0.199686,-0.0357021,-0.101669
-0.0802142,0.187531,1.97753,-0.813377,0.00683998,-0.867306,0.226367,-0.027113,-0.264832
-0.0746144,0.17598,1.96229,-0.428697,0.323266,-0.531698,0.212279,-0.0171111,-0.379375
-0.0746144,0.17598,1.96229,-0.428697,0.323266,-0.531698,0.212279,-0.0171111,-0.379375
-0.0627671,0.172359,1.95494,-0.00332252,0.71409,-0.172018,0.172575,-0.011858,-0.340838
-0.0466372,0.174974,1.9549,0.232405,0.850648,0.136925,0.11761,-0.0369314,-0.159345
-0.0310842,0.180205,1.96,0.290869,0.782668,0.329358,0.039838,-0.0714402,0.0170537
-0.0185045,0.185717,1.96774,0.277132,0.609762,0.412841,-0.0395999,-0.0959271,0.129059
-0.0102406,0.191023,1.97649,0.264677,0.366182,0.428042,-0.0937362,-0.109346,0.194283
-0.00705455,0.195957,1.98498,0.223553,0.10453,0.389455,-0.12809,-0.11279,0.234576
-0.0078353,0.198863,1.99167,0.0425689,-0.0401341,0.257352,-0.145273,-0.123688,0.260856
-0.0108383,0.196902,1.99566,-0.238969,-0.155092,0.138834,-0.131354,-0.13411,0.244063
-0.0142286,0.189907,1.99721,-0.437806,-0.150981,0.0317232,-0.107427,-0.12715,0.157307
-0.0167698,0.180702,1.99742,-0.460849,-0.0930425,0.0206402,-0.0808399,-0.101698,0.0482768
-0.0183662,0.172306,1.99835,-0.372656,-0.0604244,0.096073,-0.0359077,-0.0933768,-0.0141196
-0.0200706,0.166073,2.00127,-0.239797,-0.0658152,0.202811,-0.0120367,-0.0979949,-0.0486556
-0.0220503,0.162587,2.00622,-0.103096,-0.0525846,0.277876,-0.0130324,-0.111795,-0.0759891
-0.0243782,0.161207,2.01222,-0.0362078,-0.0915339,0.308124,-0.00845677,-0.13664,-0.0822745
-0.0275945,0.160208,2.01834,-0.0575652,-0.132863,0.296226,-0.00831535,-0.151222,-0.0999126
-0.0315136,0.158487,2.02414,-0.0966341,-0.158063,0.272441,-0.0168296,-0.152463,-0.156868
-0.0351234,0.156187,2.02875,-0.126636,-0.128156,0.18288,-0.0274146,-0.160167,-0.227976
-0.0379269,0.152795,2.0314,-0.218696,-0.110646,0.0942666,-0.00471454,-0.166722,-0.280733
-0.0395192,0.147206,2.03215,-0.349609,-0.0342856,-0.00373923,-0.00651174,-0.15493,-0.35636
-0.0391838,0.138918,2.0308,-0.482431,0.0540802,-0.0926438,0.00977416,-0.151491,-0.438494
-0.0368778,0.128982,2.02814,-0.4942,0.157365,-0.122642,0.0601532,-0.145758,-0.53721
-0.0318986,0.120798,2.02617,-0.30792,0.332585,-0.0189533,0.100051,-0.098886,-0.624415
-0.0237366,0.11762,2.02795,0.0152327,0.512575,0.23044,0.133113,-0.0415102,-0.639193
-0.0124561,0.121592,2.03573,0.393991,0.699581,0.536182,0.138066,-0.00218133,-0.570387
0.00127727,0.132749,2.04927,0.723462,0.847049,0.796211,0.106827,0.016072,-0.419123
0.0170413,0.150292,2.06703,1.01118,0.973637,0.973144,0.0474063,0.0338364,-0.238818
0.0341265,0.173274,2.08742,1.21782,1.06673,1.09957,0.00716254,0.0697171,-0.0416406
0.0512336,0.199193,2.10965,1.2559,1.02625,1.19612,-0.0192995,0.0892358,0.158506
0.0643013,0.224569,2.13305,1.12701,0.745576,1.22868,-0.0387941,0.0923759,0.308309
0.0697285,0.246569,2.1562,0.916017,0.345109,1.15444,-0.0592946,0.0780777,0.374824
0.0681109,0.263833,2.17708,0.66837,0.0526774,0.973035,-0.0615377,0.0552321,0.375024
0.0641362,0.275953,2.19404,0.441207,0.0410237,0.745175,-0.0521154,0.0617704,0.328489
0.0625041,0.283823,2.20722,0.277997,0.171371,0.592864,0.0074947,0.083937,0.289294
0.0636603,0.289211,2.21896,0.20588,0.265331,0.596244,0.0840595,0.129328,0.272736
0.0653343,0.294297,2.23224,0.234271,0.268523,0.722141,0.140202,0.160551,0.265069
0.0658091,0.300851,2.24828,0.325995,0.256822,0.851288,0.153913,0.17704,0.257995
0.0648099,0.309436,2.26682,0.414532,0.20043,0.972884,0.152667,0.190859,0.269964
0.0617296,0.319535,2.28745,0.461211,0.129193,1.05045,0.135051,0.19767,0.288455
0.0565356,0.329767,2.30937,0.427668,0.0571267,1.08801,0.121481,0.198151,0.303127
0.0501402,0.338793,2.3319,0.356537,0.0571851,1.08769,0.0958419,0.202222,0.291779
0.0442788,0.345949,2.35423,0.247766,0.0905711,1.04843,0.0585015,0.206552,0.273984
0.0384236,0.350096,2.37539,0.0759598,0.0298584,0.951264,0.0310852,0.187928,0.263766
0.0316341,0.350261,2.39408,-0.119196,-0.0610315,0.803071,0.00381514,0.16167,0.223786
0.0246636,0.34653,2.40936,-0.296917,-0.113592,0.620507,-0.0179309,0.139838,0.154748
0.0180423,0.338765,2.42045,-0.506506,-0.178292,0.416435,-0.0262323,0.131029,0.0822945
0.0119536,0.326921,2.42754,-0.681508,-0.179305,0.242688,-0.00687996,0.117912,-0.0206071
0.00817994,0.312371,2.43152,-0.754814,-0.0411817,0.127054,0.0150889,0.10477,-0.128304
0.00975851,0.298061,2.43377,-0.663508,0.288943,0.099215,0.0379589,0.119808,-0.202204
0.0183608,0.286147,2.43725,-0.54684,0.652926,0.241145,0.0476638,0.152894,-0.172217
0.0310997,0.275819,2.44457,-0.517464,0.794647,0.430036,0.0263855,0.139218,-0.0507599
0.0441464,0.265789,2.45461,-0.526374,0.756285,0.473154,-0.0377759,0.0744075,0.060137
0.055401,0.255575,2.46425,-0.543095,0.620281,0.40125,-0.0875096,0.0166569,0.13356
0.0644708,0.244661,2.47252,-0.619286,0.475134,0.337988,-0.111366,0.000711113,0.18674
0.0700444,0.231476,2.48037,-0.752331,0.270931,0.341961,-0.116964,-0.0132308,0.209361
0.0700444,0.231476,2.48037,-0.752331,0.270931,0.341961,-0.116964,-0.0132308,0.209361
0.0716855,0.216135,2.48853,-0.817833,0.0870578,0.335584,-0.12936,-0.0520991,0.161328
0.0709758,0.200683,2.49594,-0.768783,0.011957,0.274366,-0.149602,-0.0885183,0.0793769
0.0699639,0.186554,2.50193,-0.687545,0.00201967,0.21797,-0.154158,-0.102307,0.02268
0.0683608,0.1737,2.50689,-0.639357,-0.0926548,0.183801,-0.149815,-0.114907,-0.00375289
0.064146,0.16176,2.51114,-0.58092,-0.264822,0.1569,-0.143069,-0.129945,-0.0452663
0.0568672,0.151162,2.51449,-0.503256,-0.408191,0.104341,-0.152624,-0.131532,-0.107026
0.0480709,0.141609,2.5163,-0.477027,-0.457093,0.0113583,-0.175684,-0.13369,-0.15863
0.0387242,0.131673,2.5155,-0.522974,-0.487455,-0.134277,-0.179905,-0.140817,-0.214539
0.027791,0.120746,2.51192,-0.547147,-0.697572,-0.245176,-0.155454,-0.13469,-0.28777
0.011707,0.110461,2.50637,-0.465844,-0.973764,-0.326897,-0.124474,-0.10482,-0.379515
-0.00845686,0.101841,2.4995,-0.408158,-1.08323,-0.342268,-0.109995,-0.0421337,-0.452635
-0.0284193,0.0937635,2.49294,-0.429027,-0.970971,-0.301605,-0.0992118,0.00350787,-0.482837
-0.0452195,0.084773,2.48652,-0.511316,-0.765561,-0.323661,-0.11545,0.00352529,-0.487886
-0.0586623,0.073378,2.47822,-0.678321,-0.687708,-0.454125,-0.119187,-0.0252901,-0.461483
-0.0724907,0.0593411,2.46678,-0.785492,-0.79289,-0.593526,-0.0841029,-0.0433396,-0.46802
-0.0882924,0.0446252,2.45247,-0.784602,-0.860475,-0.711149,-0.0309438,-0.029593,-0.517262
-0.103733,0.0315754,2.4363,-0.64685,-0.695778,-0.755265,0.0563918,-0.0232851,-0.561062
-0.113077,0.0233792,2.42104,-0.307182,-0.235326,-0.657154,0.147198,-0.00778131,-0.550329
-0.111761,0.0227722,2.40966,0.115388,0.303003,-0.456288,0.197178,0.0347332,-0.411755
-0.101995,0.0291887,2.40362,0.441689,0.613806,-0.216925,0.208754,0.0400946,-0.166784
-0.089319,0.040261,2.40203,0.627885,0.616535,-0.0616363,0.145509,0.0355505,0.0545175
-0.0795747,0.0533062,2.40249,0.657129,0.315153,-0.02109,0.0692612,0.0218174,0.208875
-0.0782421,0.0659481,2.40243,0.611595,-0.190881,-0.104028,0.00465864,-0.00902025,0.264274
-0.0854532,0.0783253,2.39941,0.601785,-0.497843,-0.3127,-0.0452073,-0.0164202,0.217067
-0.095018,0.0908427,2.39202,0.57648,-0.471547,-0.523348,-0.0589585,0.0273481,0.151937
-0.101165,0.103207,2.38153,0.557715,-0.235808,-0.621984,-0.0293824,0.0781062,0.116562
-0.102104,0.115848,2.37021,0.605926,0.0235152,-0.616793,-0.00965704,0.122028,0.117152
-0.0975699,0.13042,2.35968,0.755574,0.299347,-0.576499,-0.00912512,0.14795,0.157812
-0.0877002,0.14824,2.34982,0.926874,0.534382,-0.571124,-0.0341308,0.165062,0.262941
-0.0739786,0.168614,2.33971,1.00319,0.677977,-0.60313,-0.0517251,0.172303,0.401945
-0.0579469,0.18879,2.32828,0.925409,0.708863,-0.655504,-0.0773766,0.178118,0.530052
-0.0428366,0.206093,2.31539,0.725833,0.512707,-0.696521,-0.0843035,0.176286,0.625004
-0.0333007,0.218156,2.30133,0.426748,0.121299,-0.729054,-0.0699573,0.154036,0.656696
-0.0320465,0.224041,2.28599,0.124286,-0.321938,-0.805563,-0.0565742,0.113834,0.591252
-0.0374686,0.224693,2.26806,-0.116154,-0.589388,-0.95703,-0.0734672,0.0892163,0.46014
-0.0453381,0.220686,2.24666,-0.384895,-0.65893,-1.11355,-0.0612606,0.0803033,0.333204
-0.0533214,0.211122,2.22266,-0.689144,-0.637151,-1.16813,0.00293364,0.0783313,0.210965
-0.0602465,0.195989,2.1983,-0.954328,-0.55182,-1.12863,0.0371457,0.0871926,0.0846669
-0.0661161,0.176315,2.17509,-1.13095,-0.463399,-1.01421,0.0645401,0.0768769,-0.0582274
-0.0704215,0.155401,2.15528,-1.04577,-0.273995,-0.787227,0.114605,0.0424109,-0.220981
-0.0712235,0.138673,2.1411,-0.704109,-0.0149979,-0.485469,0.151931,0.021286,-0.30955
-0.0687449,0.129081,2.1341,-0.317214,0.157163,-0.137779,0.173191,-0.0112916,-0.277675
-0.0651852,0.12539,2.13404,-0.0846969,0.17042,0.143419,0.146949,-0.0659633,-0.150659
-0.0629385,0.124348,2.13859,-0.00656698,0.107615,0.294615,0.0962247,-0.127498,-0.0394711
-0.06222,0.123803,2.1449,-0.0139885,0.0517706,0.317903,0.0501377,-0.176378,0.00722587
-0.0620317,0.122837,2.15075,-0.0434102,0.0398326,0.26124,0.0125593,-0.203506,0.00937027
-0.061853,0.121548,2.15507,-0.0483907,0.024723,0.171575,-0.00437735,-0.21745,-0.0274493
-0.0620225,0.120643,2.15731,-0.0261836,-0.0159963,0.0596277,0.00130572,-0.222575,-0.0824806
-0.0626774,0.120143,2.15754,-0.0277057,-0.0330413,-0.0265557,0.0218406,-0.214314,-0.157824
-0.0628658,0.119573,2.15658,-0.0348243,0.0114388,-0.0571127,0.0488107,-0.189229,-0.255028
-0.0616564,0.119282,2.15533,-0.00342868,0.106698,-0.0615179,0.0771707,-0.173588,-0.352391
-0.0579736,0.119403,2.15403,-0.00625834,0.243083,-0.0665944,0.0795775,-0.16419,-0.412978
-0.0527142,0.118754,2.15279,-0.0690891,0.249986,-0.0467104,0.0809747,-0.150293,-0.453155
-0.0483992,0.116948,2.15223,-0.106333,0.167349,0.000590723,0.0681761,-0.118898,-0.511992
-0.0483992,0.116948,2.15223,-0.106333,0.167349,0.000590723,0.0681761,-0.118898,-0.511992
-0.0452511,0.11508,2.15274,-0.0697617,0.173416,0.0618712,0.0470422,-0.0825465,-0.57593
-0.0408564,0.114386,2.1546,0.0150943,0.317264,0.135816,0.050832,-0.0484457,-0.594583
-0.0316509,0.11575,2.1587,0.149195,0.682345,0.289856,0.0995491,-0.0185259,-0.564181
-0.0149154,0.121004,2.16746,0.430426,1.08981,0.592417,0.149571,0.0259064,-0.47837
0.00763247,0.133555,2.18322,0.837123,1.33482,0.976957,0.144962,0.0814007,-0.288475
0.0310269,0.154407,2.20645,1.18748,1.30457,1.36517,0.0871755,0.132203,-0.0305763
0.0498195,0.181434,2.23609,1.36409,1.04306,1.64968,0.0193473,0.136388,0.2067
0.05964,0.210248,2.26929,1.30461,0.558284,1.73476,-0.0439337,0.0933613,0.377562
0.0579305,0.235645,2.30179,1.0247,0.00368895,1.54959,-0.103997,0.0240133,0.466018
0.0473846,0.253642,2.32909,0.626712,-0.351995,1.18133,-0.129424,-0.0283042,0.459487
0.0344294,0.263272,2.34887,0.279557,-0.389445,0.783682,-0.104816,-0.034299,0.356771
0.0244026,0.267017,2.36194,0.0777942,-0.271027,0.530813,-0.0203464,0.0149087,0.256557
0.0170135,0.268303,2.37245,0.0701393,-0.192313,0.525924,0.0862876,0.0736282,0.18503
0.0109388,0.271806,2.38482,0.293231,-0.0809076,0.689232,0.155265,0.120049,0.132282
0.00650851,0.28076,2.40123,0.587856,0.0876683,0.903489,0.16881,0.162142,0.141382
0.00422329,0.294704,2.42187,0.765175,0.248601,1.06908,0.140948,0.181967,0.231233
0.00251196,0.309935,2.44476,0.727547,0.225971,1.1093,0.115161,0.157719,0.358829
-0.0016096,0.323063,2.46756,0.579305,0.0720627,1.05608,0.0975193,0.133589,0.430459
-0.00823704,0.332962,2.48883,0.424362,-0.0409252,0.961104,0.0860316,0.136231,0.428231
-0.0159359,0.339828,2.50844,0.278157,-0.064331,0.890019,0.0960938,0.144284,0.398732
-0.0228176,0.343241,2.52655,0.0786164,-0.0177454,0.811512,0.113968,0.141732,0.374774
-0.0282706,0.341681,2.54294,-0.202983,0.0208067,0.748614,0.143698,0.126285,0.345839
-0.0330081,0.334511,2.55827,-0.464809,-0.00556938,0.726834,0.151519,0.128417,0.27917
-0.0390044,0.323048,2.57298,-0.612287,-0.125373,0.714176,0.159902,0.118347,0.166545
-0.0474529,0.309729,2.58719,-0.670018,-0.286894,0.699752,0.157162,0.114997,0.0338331
-0.0595375,0.294593,2.60104,-0.785387,-0.507641,0.709305,0.155404,0.115134,-0.0833492
-0.0738546,0.276811,2.61441,-0.896044,-0.504443,0.681436,0.143046,0.0805556,-0.246242
-0.0839351,0.257646,2.62592,-0.920834,-0.158589,0.581438,0.114166,0.0523972,-0.41692
-0.0851134,0.23875,2.63582,-0.874882,0.286069,0.565901,0.120731,0.0515671,-0.502388
-0.0786894,0.221318,2.64731,-0.765219,0.566264,0.716278,0.137039,0.0563842,-0.49851
-0.0707801,0.206339,2.66247,-0.624752,0.487553,0.863641,0.101264,0.0322405,-0.433758
-0.0674803,0.193779,2.67969,-0.526216,0.167321,0.896498,0.0460712,-0.0279974,-0.380752
-0.0702574,0.183014,2.69674,-0.431178,-0.0982023,0.846673,-0.0074651,-0.0737129,-0.400611
-0.07533,0.174629,2.71272,-0.286998,-0.0817833,0.791482,-0.0564858,-0.0839323,-0.455776
-0.077804,0.169099,2.72776,-0.160274,0.0998142,0.728119,-0.112302,-0.0813545,-0.456805
-0.0764546,0.165539,2.74079,-0.106744,0.22669,0.559152,-0.178799,-0.10522,-0.403011
-0.073096,0.163178,2.74925,-0.054453,0.251221,0.280108,-0.215476,-0.132315,-0.356113
-0.0673128,0.163268,2.75187,0.0954965,0.390981,-0.0139134,-0.225152,-0.115182,-0.331176
-0.0575255,0.167215,2.74992,0.283946,0.555184,-0.167673,-0.189768,-0.047003,-0.250488
-0.0447959,0.17465,2.74682,0.438828,0.645569,-0.154583,-0.152571,0.0257689,-0.12968
-0.0316875,0.184904,2.74492,0.577213,0.61114,-0.0727591,-0.153566,0.0725087,-0.0216441
-0.021095,0.197505,2.74424,0.672178,0.425457,-0.0390893,-0.184807,0.0936085,0.0639133
-0.0148432,0.210829,2.74316,0.63963,0.172838,-0.0991991,-0.21919,0.101056,0.14079
-0.0125328,0.222397,2.74005,0.503862,0.0134083,-0.23587,-0.246443,0.100954,0.176925
-0.011236,0.230779,2.7335,0.334935,-0.0107374,-0.408081,-0.24042,0.107032,0.182213
-0.00846621,0.236421,2.72401,0.238152,0.0726092,-0.505014,-0.196207,0.122378,0.174388
-0.00389624,0.241185,2.71363,0.256951,0.130494,-0.490755,-0.137131,0.136422,0.182123
0.00124576,0.247484,2.70432,0.38557,0.151271,-0.407173,-0.0989251,0.136307,0.211795
0.00562937,0.256848,2.697,0.552416,0.0900953,-0.299414,-0.0693637,0.138113,0.277834
0.00739742,0.268996,2.69183,0.655221,-0.0628004,-0.199546,-0.0542047,0.126023,0.354179
0.00546632,0.282369,2.68804,0.670591,-0.232019,-0.165943,-0.0648812,0.108511,0.41061
0.000401741,0.295038,2.68427,0.584437,-0.367091,-0.200444,-0.0725127,0.10349,0.434773
-0.00608795,0.305167,2.67937,0.419116,-0.418349,-0.278124,-0.0697702,0.0948249,0.430693
-0.0123097,0.311822,2.67256,0.242333,-0.415329,-0.374442,-0.056903,0.0827335,0.390455
-0.0123097,0.311822,2.67256,0.242333,-0.415329,-0.374442,-0.056903,0.0827335,0.390455
-0.0180322,0.315438,2.664,0.120225,-0.421953,-0.433721,-0.0293062,0.079032,0.324133
-0.0239277,0.317208,2.65487,0.0318849,-0.476401,-0.441583,-0.00525286,0.0791574,0.269143
-0.0318375,0.316616,2.64532,-0.126848,-0.615213,-0.47708,-0.00306004,0.0641293,0.226989
-0.0415057,0.31235,2.63423,-0.352936,-0.687306,-0.575322,-0.0158728,0.0370014,0.154469
-0.0516495,0.303133,2.62017,-0.634754,-0.756567,-0.722191,-0.019102,0.0313,0.0554128
-0.061511,0.289104,2.60339,-0.825537,-0.689066,-0.78713,0.0223458,0.0264876,-0.0965661
-0.0685131,0.273799,2.58633,-0.76175,-0.475825,-0.72577,0.0785284,0.0370076,-0.249698
-0.0712138,0.262382,2.57269,-0.442961,-0.152686,-0.482471,0.132882,0.0590946,-0.326437
-0.0693058,0.257871,2.56605,-0.057556,0.15472,-0.123491,0.155507,0.0661798,-0.278352
-0.0648117,0.259406,2.56685,0.18304,0.279086,0.166893,0.118202,0.0356967,-0.105937
-0.0610082,0.263402,2.57204,0.221574,0.228527,0.282952,0.0432883,-0.0190832,0.0656424
-0.0586355,0.26657,2.57802,0.110654,0.157164,0.259806,-0.0239122,-0.0644569,0.164377
-0.0577499,0.266672,2.58242,-0.0820868,0.022703,0.156589,-0.0647447,-0.103695,0.209581
-0.058874,0.263024,2.58387,-0.270699,-0.0902774,-0.00463748,-0.0798413,-0.145394,0.186424
-0.0608486,0.256062,2.58122,-0.437307,-0.174895,-0.218206,-0.0884648,-0.178947,0.12924
-0.0634062,0.246414,2.57405,-0.567065,-0.258382,-0.405796,-0.0429509,-0.185729,0.0375772
-0.066635,0.234651,2.56406,-0.66938,-0.284528,-0.468785,0.0148494,-0.161112,-0.0773841
-0.0689036,0.22128,2.55388,-0.732302,-0.167312,-0.42729,0.068681,-0.149311,-0.196192
-0.0687684,0.206809,2.54452,-0.773611,-0.00389441,-0.395138,0.0935562,-0.162048,-0.300706
-0.0651725,0.191609,2.53551,-0.812369,0.165197,-0.382026,0.116623,-0.178091,-0.380904
-0.0594138,0.175631,2.52744,-0.820139,0.258489,-0.292158,0.170938,-0.17813,-0.437485
-0.0520376,0.160534,2.52242,-0.700988,0.389277,-0.106451,0.196197,-0.140341,-0.492496
-0.0431113,0.148548,2.52228,-0.496768,0.494283,0.1563,0.216558,-0.116936,-0.501586
-0.0334556,0.14098,2.52794,-0.228613,0.556199,0.435941,0.224707,-0.10851,-0.473839
-0.0231285,0.139337,2.53935,0.100406,0.636582,0.701568,0.212294,-0.0925743,-0.407494
-0.0123738,0.144443,2.55631,0.440965,0.689448,0.973447,0.187812,-0.0518445,-0.285453
-0.000866553,0.156463,2.57891,0.771233,0.807155,1.25996,0.155046,0.00148326,-0.128152
0.011516,0.174667,2.60678,1.00804,0.879585,1.49585,0.117428,0.0370465,0.0663078
0.0220117,0.195457,2.63836,0.975493,0.702745,1.64008,0.0905307,0.0401312,0.268899
0.0247116,0.213354,2.67225,0.725362,0.211325,1.71277,0.0736905,0.00898002,0.388542
0.0151489,0.225667,2.70639,0.446186,-0.399667,1.63051,0.025763,-0.0103132,0.384384
-0.00355286,0.232837,2.73775,0.273016,-0.712626,1.41998,-0.0217811,-0.0266773,0.253771
-0.0250194,0.236764,2.7638,0.152071,-0.80088,1.11421,-0.0226629,-0.0253297,0.128033
-0.0454818,0.237549,2.78398,-0.0063664,-0.771385,0.868034,0.0472716,-0.0022582,0.036678
-0.0628863,0.236132,2.80053,-0.0013028,-0.528187,0.776718,0.151036,0.0371211,-0.0836116
-0.0722092,0.237325,2.81722,0.26176,0.0104875,0.870632,0.218485,0.114361,-0.15013
-0.0715117,0.244685,2.83817,0.605102,0.523679,1.13067,0.264208,0.196078,-0.0710998
-0.0657498,0.257129,2.8655,0.795049,0.692176,1.42598,0.274648,0.227129,0.124138
-0.0607743,0.271535,2.89817,0.820276,0.62246,1.61319,0.246668,0.195624,0.298954
-0.0598851,0.285212,2.93311,0.737315,0.417524,1.65059,0.193006,0.165806,0.400997
-0.0634427,0.296538,2.96748,0.588818,0.209267,1.56208,0.16157,0.13091,0.438195
-0.0701766,0.304273,2.99922,0.370433,0.0646727,1.41752,0.154407,0.10621,0.436351
-0.0779201,0.307027,3.02763,0.102484,0.03343,1.27632,0.153089,0.111873,0.393413
-0.0849206,0.304454,3.05311,-0.154998,0.0324975,1.18371,0.173218,0.123869,0.322628
-0.0912511,0.297378,3.07676,-0.339754,0.0444029,1.14427,0.205808,0.129303,0.225079
-0.0964131,0.287489,3.09966,-0.43538,0.0985638,1.13819,0.216504,0.137275,0.127723
-0.100217,0.27577,3.12235,-0.517094,0.152339,1.16133,0.224198,0.133112,0.0530148
-0.103125,0.262577,-3.1375,-0.552222,0.202782,1.2241,0.224338,0.12331,-0.0230337
-0.103881,0.249411,-3.11293,-0.510204,0.363896,1.27816,0.210303,0.1128,-0.0966976
-0.100824,0.237116,-3.08738,-0.463129,0.57113,1.32145,0.189725,0.0827546,-0.125507
-0.0933906,0.225676,-3.06095,-0.43596,0.758628,1.35427,0.169366,0.0607255,-0.109957
-0.0833937,0.214642,-3.03387,-0.430952,0.818888,1.38271,0.138286,0.0347291,-0.0686706
-0.0730366,0.204023,-3.00623,-0.404204,0.793948,1.40596,0.110521,0.00664224,-0.0478722
-0.0630446,0.194858,-2.97803,-0.318591,0.762811,1.42371,0.0785036,-0.0103524,-0.0410765
-0.0630446,0.194858,-2.97803,-0.318591,0.762811,1.42371,0.0785036,-0.0103524,-0.0410765
-0.053967,0.187755,-2.94927,-0.23865,0.686161,1.44577,0.0459585,-0.0179205,-0.0162274
-0.0473166,0.181962,-2.91999,-0.199063,0.50618,1.4637,0.0127504,-0.0256445,0.00631559
-0.0448607,0.177027,-2.89058,-0.160464,0.266383,1.46086,-0.015517,-0.0361612,-0.00302315
-0.0465183,0.17329,-2.86117,-0.0791361,0.102075,1.46499,-0.0369433,-0.0358583,-0.0423642
-0.0508365,0.170779,-2.83149,-0.0442261,-0.0259014,1.47718,-0.0618478,-0.0311759,-0.0678834
-0.0576713,0.167615,-2.80165,-0.145743,-0.189809,1.47715,-0.0918348,-0.0530175,-0.077284
-0.068691,0.160027,-2.77341,-0.465491,-0.443957,1.3228,-0.19344,-0.0694145,-0.125854
-0.0822304,0.145673,-2.75162,-0.800489,-0.556138,0.899182,-0.274766,-0.135573,-0.244129
-0.0954125,0.126069,-2.74056,-1.04645,-0.601195,0.394756,-0.258027,-0.158109,-0.382428
-0.107119,0.104339,-2.73737,-1.01576,-0.494395,0.209689,-0.167151,-0.079185,-0.573853
-0.11332,0.0885416,-2.7335,-0.455309,-0.0489329,0.393645,-0.0751859,0.0210585,-0.745978
-0.109993,0.0864283,-2.72174,0.411651,0.470766,0.826183,-0.0176835,0.0947131,-0.718951
-0.0980769,0.101588,-2.69889,1.30401,0.892168,1.25009,-0.0576296,0.135684,-0.476581
-0.082849,0.130991,-2.66915,1.83331,0.938916,1.39039,-0.174943,0.142656,-0.125691
-0.070389,0.166734,-2.63911,1.89862,0.702078,1.27339,-0.264141,0.108864,0.188539
-0.0653859,0.200465,-2.61404,1.60039,0.234195,0.937561,-0.326747,0.07498,0.386175
-0.069368,0.226535,-2.59774,1.08696,-0.269988,0.463662,-0.370676,0.0476463,0.457443
-0.0799329,0.241804,-2.5929,0.472477,-0.677607,-0.105736,-0.364644,0.0359636,0.441623
-0.0945483,0.247309,-2.60002,0.0717999,-0.881842,-0.614269,-0.292239,0.041335,0.271717
-0.10672,0.248984,-2.61642,-0.0368952,-0.712685,-0.957551,-0.210411,0.121831,0.0968893
-0.111451,0.250893,-2.63743,0.0122738,-0.245874,-1.04434,-0.121372,0.206582,0.00268966
-0.107096,0.254099,-2.65736,0.0900283,0.137314,-0.888433,-0.0166123,0.260956,0.00468802
-0.099197,0.258047,-2.67293,0.141481,0.218688,-0.65161,0.0752323,0.245412,0.0682312
-0.0928241,0.261996,-2.6837,0.136258,0.138467,-0.435822,0.102284,0.209677,0.128587
-0.08888,0.264587,-2.69097,0.0338492,0.0814087,-0.301945,0.0778464,0.170874,0.167339
-0.0864353,0.264148,-2.69641,-0.123944,0.0183407,-0.221296,0.0587821,0.124765,0.183086
-0.0858496,0.260979,-2.70061,-0.213948,-0.0949705,-0.156339,0.0501411,0.0803225,0.160227
-0.0884066,0.256902,-2.70365,-0.210141,-0.224486,-0.0986573,0.0524808,0.0461388,0.114268
-0.0929819,0.25308,-2.70526,-0.196584,-0.254911,-0.0200923,0.0408029,0.0305388,0.0775195
-0.0973884,0.248834,-2.70543,-0.239929,-0.179262,0.0336327,0.0171371,0.00416265,0.0571218
-0.100251,0.243302,-2.70527,-0.311254,-0.11804,0.0288075,0.00858853,-0.0472995,0.0382914
-0.102156,0.236791,-2.70565,-0.331014,-0.0802135,0.000480788,0.00757963,-0.0911295,0.00447291
-0.103118,0.230658,-2.70659,-0.28755,-0.0413567,-0.0258831,0.0202681,-0.127675,-0.0335318
-0.10359,0.225562,-2.70771,-0.236193,-0.0413732,-0.0210994,0.0570381,-0.15188,-0.0586781
-0.104448,0.221527,-2.70818,-0.165557,-0.0385861,0.0158509,0.0969044,-0.172416,-0.100631
-0.104775,0.219105,-2.7078,-0.0727253,0.0227587,0.0492393,0.124117,-0.18781,-0.156549
-0.103453,0.218295,-2.70626,-0.00712553,0.138867,0.112677,0.159915,-0.195208,-0.203466
-0.100075,0.218286,-2.70328,0.0289521,0.270083,0.173116,0.164234,-0.199734,-0.260869
-0.0937594,0.21865,-2.69959,0.0219624,0.462673,0.16894,0.145135,-0.204841,-0.299962
-0.0831856,0.217839,-2.69698,-0.0982106,0.624038,0.0888495,0.129145,-0.207754,-0.324006
-0.0711537,0.21415,-2.69615,-0.249447,0.562396,0.02946,0.14906,-0.202674,-0.373017
-0.0621335,0.208658,-2.69564,-0.267721,0.336881,0.0852668,0.195436,-0.167456,-0.456378
-0.0577187,0.204455,-2.69218,-0.104067,0.205458,0.297517,0.209455,-0.0921629,-0.554609
-0.0533623,0.205359,-2.68369,0.273508,0.497311,0.529336,0.1866,0.00212154,-0.606085
-0.0394441,0.215028,-2.66966,0.751174,1.19989,0.819687,0.169217,0.104747,-0.500428
-0.0155398,0.232475,-2.64899,0.999665,1.56197,1.15074,0.174835,0.166682,-0.190547
0.00757947,0.25271,-2.62217,1.00987,1.33782,1.44298,0.173829,0.159377,0.0795692
0.0199447,0.272533,-2.5904,0.933465,0.676864,1.6443,0.146229,0.156608,0.217554
0.0165741,0.291485,-2.55546,0.907425,-0.0036097,1.73654,0.0945842,0.154455,0.216048
0.00229783,0.30944,-2.51947,0.850104,-0.289477,1.71843,0.0256129,0.163854,0.150668
-0.0144252,0.325279,-2.48446,0.755394,-0.246834,1.59015,-0.0102574,0.169275,0.0764759
-0.0271767,0.338814,-2.45274,0.668309,0.00981163,1.38538,-0.0197816,0.164294,0.0352999
-0.0340298,0.350654,-2.42506,0.606655,0.227762,1.2041,0.013505,0.174414,0.0379544
-0.0371813,0.36181,-2.40006,0.597904,0.301259,1.12578,0.0658331,0.204538,0.0831861
-0.0371813,0.36181,-2.40006,0.597904,0.301259,1.12578,0.0658331,0.204538,0.0831861
-0.0400696,0.372913,-2.37563,0.615357,0.295732,1.12489,0.10095,0.228923,0.123012
-0.0425263,0.384874,-2.351,0.6717,0.37965,1.10788,0.0951896,0.231231,0.1611
-0.0435859,0.397308,-2.32707,0.656381,0.427056,1.05836,0.0923633,0.235723,0.231518
-0.0436347,0.408841,-2.30417,0.585693,0.468438,0.999436,0.0885945,0.232294,0.284415
-0.0424114,0.418777,-2.28298,0.488012,0.500958,0.899905,0.0691151,0.237485,0.316482
-0.040211,0.426666,-2.26406,0.377675,0.493059,0.800231,0.0725307,0.227605,0.324379
-0.0377399,0.432633,-2.2471,0.271558,0.461364,0.731993,0.089522,0.232557,0.330604
-0.0351502,0.436045,-2.23095,0.107361,0.489269,0.734741,0.10467,0.241144,0.342851
-0.0313872,0.435404,-2.21488,-0.122159,0.573001,0.725042,0.0982021,0.219842,0.335895
-0.0252132,0.430601,-2.19976,-0.313171,0.661508,0.664609,0.0949765,0.175489,0.298334
-0.018367,0.422803,-2.18552,-0.427552,0.619791,0.667636,0.118845,0.143351,0.244354
-0.0133564,0.413498,-2.17047,-0.477135,0.478419,0.731522,0.130806,0.106603,0.185888
-0.0119303,0.403583,-2.15418,-0.50322,0.317406,0.768837,0.127884,0.045792,0.106988
-0.013465,0.392646,-2.13789,-0.578031,0.136305,0.742176,0.120136,-0.0120184,0.0247375
-0.0182007,0.380462,-2.12275,-0.61717,-0.0437422,0.674806,0.0927956,-0.0577731,-0.0991265
-0.0258362,0.367659,-2.10978,-0.648133,-0.246565,0.565496,0.0445843,-0.069035,-0.242448
-0.035067,0.354102,-2.09935,-0.682206,-0.266807,0.450122,0.0248281,-0.0867841,-0.394451
-0.0413518,0.340018,-2.09167,-0.695723,-0.0873497,0.33409,-0.00272899,-0.0811994,-0.517927
-0.042631,0.326136,-2.08588,-0.652288,0.152285,0.299485,-0.015445,-0.0603366,-0.592712
-0.0389825,0.314655,-2.07959,-0.451248,0.396632,0.354881,-0.0425306,-0.0360775,-0.635482
-0.0315026,0.308232,-2.07144,-0.174136,0.570385,0.44342,-0.0705119,-0.0202191,-0.588647
-0.0230526,0.30618,-2.0616,-0.0380801,0.545246,0.481735,-0.102899,-0.0213964,-0.433846
-0.0164767,0.304967,-2.05229,-0.0804195,0.389778,0.38728,-0.153748,-0.0404671,-0.286415
-0.012333,0.302262,-2.04618,-0.187984,0.183655,0.192997,-0.181677,-0.0443907,-0.19772
-0.0112328,0.297481,-2.04408,-0.284186,-0.00215374,0.0218723,-0.182407,-0.027383,-0.177024
-0.0115059,0.291583,-2.04492,-0.289146,-0.0232787,-0.0855102,-0.175076,0.00383863,-0.20336
-0.0103381,0.286704,-2.04744,-0.187363,0.0907982,-0.139524,-0.189867,0.0379343,-0.227439
-0.00575617,0.284816,-2.05056,0.00417893,0.27842,-0.160739,-0.206924,0.059545,-0.21381
0.0021517,0.287163,-2.05416,0.233688,0.386619,-0.192682,-0.22858,0.0736679,-0.146099
0.0109478,0.293882,-2.05879,0.431863,0.344619,-0.253143,-0.250896,0.0868655,-0.0476915
0.0179761,0.303443,-2.06499,0.514711,0.146776,-0.324385,-0.261218,0.112819,0.0561793
0.0202372,0.313169,-2.07263,0.453988,-0.139795,-0.38678,-0.271418,0.144363,0.135906
0.0184026,0.320924,-2.08161,0.341264,-0.294422,-0.469951,-0.29827,0.155776,0.147453
0.0164019,0.326632,-2.0934,0.260789,-0.258263,-0.647815,-0.318635,0.144204,0.133234
0.0177852,0.331266,-2.10924,0.232764,-0.109986,-0.844276,-0.300051,0.137024,0.142869
0.0228904,0.335524,-2.1287,0.231004,-0.0346261,-0.977511,-0.245901,0.149775,0.19985
0.0290949,0.339645,-2.14994,0.239412,-0.0619778,-0.99958,-0.177865,0.165382,0.268127
0.0336802,0.34423,-2.17053,0.289313,-0.173113,-0.924803,-0.132376,0.175668,0.314489
0.0354765,0.35015,-2.18953,0.369953,-0.290737,-0.852594,-0.128181,0.173758,0.334879
0.0349748,0.35751,-2.20785,0.415243,-0.398964,-0.856982,-0.140926,0.156385,0.350779
0.0326236,0.364544,-2.22711,0.336761,-0.518188,-0.935057,-0.149905,0.140093,0.372602
0.0290143,0.369014,-2.24832,0.169899,-0.59741,-1.03251,-0.126514,0.122674,0.366922
0.0248447,0.370213,-2.27117,0.009688,-0.641921,-1.09325,-0.0941277,0.11247,0.326173
0.0202245,0.368572,-2.29462,-0.122417,-0.673517,-1.09502,-0.0679219,0.107476,0.276341
0.0146332,0.364683,-2.31771,-0.225779,-0.718684,-1.07601,-0.0472855,0.0821474,0.216287
0.0081146,0.359136,-2.34047,-0.298793,-0.737324,-1.07134,-0.0395792,0.0525764,0.150556
0.00170114,0.352652,-2.36364,-0.341434,-0.700643,-1.12332,-0.0438022,0.026693,0.0798923
-0.00328323,0.345154,-2.38841,-0.42213,-0.656998,-1.20754,-0.0167163,-0.00414172,0.0374995
-0.00757805,0.335701,-2.41435,-0.54036,-0.634338,-1.22301,0.0372301,-0.0136165,-0.00582933
-0.0113397,0.324273,-2.43934,-0.615818,-0.555515,-1.12242,0.0913455,-0.0115196,-0.0652855
-0.014503,0.312636,-2.461,-0.547249,-0.432597,-0.914423,0.14002,-0.0191536,-0.141744
-0.0165333,0.303968,-2.47807,-0.335799,-0.287727,-0.711292,0.151883,-0.0540848,-0.20462
-0.0166649,0.299656,-2.49128,-0.135507,-0.143102,-0.55663,0.135779,-0.0886893,-0.206377
-0.0166649,0.299656,-2.49128,-0.135507,-0.143102,-0.55663,0.135779,-0.0886893,-0.206377
-0.0154613,0.298082,-2.50197,-0.0610585,-0.0420259,-0.478913,0.116235,-0.129744,-0.176216
-0.0130051,0.296777,-2.51167,-0.0893306,0.0158718,-0.456477,0.107178,-0.158152,-0.158955
-0.00926505,0.294376,-2.52131,-0.159912,0.066337,-0.466963,0.0983745,-0.170382,-0.177839
-0.00508207,0.291152,-2.53119,-0.153588,0.0527634,-0.481104,0.0977027,-0.166236,-0.231949
-0.00144333,0.288957,-2.54134,-0.0792245,0.0408444,-0.50352,0.117549,-0.158575,-0.281236
0.00296252,0.286947,-2.55233,-0.158316,0.0832869,-0.548219,0.149655,-0.126734,-0.267149
0.00793692,0.281232,-2.56373,-0.430539,0.0817537,-0.545325,0.189549,-0.10039,-0.252496
0.0126033,0.270019,-2.57456,-0.65189,0.103408,-0.499975,0.220291,-0.0706983,-0.312907
0.0182006,0.256705,-2.5835,-0.63018,0.241411,-0.371625,0.243093,-0.02737,-0.403
0.0262227,0.246,-2.58866,-0.405617,0.447566,-0.129787,0.273581,0.0291252,-0.42082
0.0378372,0.241176,-2.58795,-0.0759631,0.770684,0.191464,0.286951,0.070144,-0.331563
0.0544282,0.242668,-2.58088,0.159176,1.02015,0.492424,0.277332,0.0919779,-0.142172
0.071533,0.247593,-2.56839,0.238259,0.951721,0.740304,0.272932,0.0687098,0.0524445
0.0830893,0.25325,-2.55147,0.185063,0.587307,0.934776,0.277365,0.0398277,0.174755
0.0849964,0.257507,-2.53112,0.0653022,0.123309,1.05787,0.265897,0.0273761,0.207677
0.0785821,0.25914,-2.50879,-0.0694191,-0.145737,1.10754,0.211946,0.027017,0.148198
0.0697892,0.258943,-2.48597,-0.089193,-0.107449,1.08855,0.16596,0.0360428,0.0386488
0.0643497,0.259321,-2.46394,-0.0118437,0.143726,1.04833,0.146829,0.0524139,-0.00873321
0.0641094,0.261338,-2.44207,0.0770792,0.395337,1.0937,0.148651,0.0863766,0.0266826
0.067699,0.265264,-2.4185,0.164876,0.558394,1.21698,0.146785,0.123858,0.116499
0.0723939,0.271074,-2.39255,0.244975,0.594932,1.32197,0.115247,0.137334,0.214271
0.0773027,0.279125,-2.36513,0.362225,0.651739,1.36883,0.0867739,0.132265,0.295111
0.0834625,0.289225,-2.33745,0.418452,0.744611,1.36524,0.0553204,0.143135,0.392476
0.0909817,0.299296,-2.31001,0.335624,0.785783,1.34902,0.0555627,0.146593,0.491189
0.0980408,0.306614,-2.28249,0.133213,0.698171,1.35115,0.0754284,0.150374,0.559867
0.100956,0.309905,-2.25385,-0.058127,0.430566,1.40929,0.121913,0.130179,0.547184
0.0973788,0.310212,-2.22372,-0.205305,0.11608,1.44835,0.117789,0.126534,0.481128
0.0869912,0.306758,-2.1927,-0.417263,-0.199239,1.48175,0.123473,0.11154,0.395346
0.0717709,0.299207,-2.16083,-0.564125,-0.350357,1.48498,0.113087,0.0808035,0.229814
0.0551482,0.288961,-2.13009,-0.650747,-0.411925,1.38932,0.0743013,0.0644824,0.0657105
0.0390723,0.27638,-2.1017,-0.73453,-0.394587,1.29136,0.0779597,0.0304733,-0.0697668
0.0253073,0.262507,-2.07536,-0.714064,-0.256328,1.20817,0.0930093,0.00310868,-0.207144
0.0166565,0.250199,-2.05092,-0.552784,0.0113137,1.1488,0.0956794,0.00609553,-0.301321
0.0137123,0.241473,-2.02711,-0.366541,0.260166,1.1625,0.104697,0.0193607,-0.311407
0.015226,0.235911,-2.00277,-0.239234,0.46052,1.19848,0.0982029,0.0179083,-0.256586
0.020329,0.232357,-1.97815,-0.166965,0.616091,1.18693,0.0746249,0.00390805,-0.171637
0.0281949,0.22968,-1.95416,-0.173255,0.711615,1.15042,0.0531003,-0.00405434,-0.0740567
0.0367811,0.226103,-1.93046,-0.269217,0.636264,1.15506,0.051947,-0.0142372,-0.00653464
0.0410776,0.220548,-1.90642,-0.373272,0.28734,1.16963,0.0458204,-0.0320445,-0.00954241
0.0363631,0.213354,-1.88271,-0.431892,-0.238065,1.10875,0.0149759,-0.0740732,-0.102116
0.0236945,0.205382,-1.86116,-0.431887,-0.545253,0.969539,-0.0375986,-0.0956342,-0.261908
0.0079671,0.196973,-1.8429,-0.445715,-0.61854,0.814957,-0.0798649,-0.0853038,-0.407963
-0.005902,0.187757,-1.82756,-0.477105,-0.462936,0.694979,-0.113281,-0.0712485,-0.525847
-0.0149339,0.178176,-1.81501,-0.462133,-0.221903,0.544351,-0.143552,-0.0702938,-0.596889
-0.0196702,0.169249,-1.80599,-0.419694,-0.137513,0.361722,-0.165594,-0.0670471,-0.594221
-0.0237551,0.16143,-1.80025,-0.336507,-0.173757,0.228061,-0.166543,-0.0687014,-0.581166
-0.0274883,0.156548,-1.79711,-0.124084,-0.12613,0.0952254,-0.188397,-0.0506794,-0.585508
-0.0286345,0.157595,-1.7959,0.26242,0.0524046,0.0370269,-0.199858,-0.00309056,-0.561503
-0.0243374,0.167819,-1.79509,0.75733,0.399023,0.0202342,-0.204187,0.045817,-0.445295
-0.013783,0.186127,-1.79441,1.02957,0.645629,0.0117485,-0.235036,0.114681,-0.193925
-0.000264716,0.207077,-1.79415,1.04076,0.672827,-0.00488998,-0.277771,0.148853,0.0448439
0.0107571,0.226731,-1.79498,0.926221,0.362651,-0.0729257,-0.340361,0.17267,0.200775
0.0134796,0.244097,-1.79785,0.825651,-0.160288,-0.196806,-0.399997,0.183117,0.259254
0.00741916,0.259722,-1.80422,0.745791,-0.557498,-0.425401,-0.453383,0.190635,0.261372
0.00741916,0.259722,-1.80422,0.745791,-0.557498,-0.425401,-0.453383,0.190635,0.261372
-0.00114069,0.273528,-1.8165,0.629706,-0.585737,-0.775955,-0.46045,0.192432,0.249628
-0.00544621,0.284403,-1.83636,0.454859,-0.351087,-1.1228,-0.407004,0.213751,0.260184
-0.00194707,0.291948,-1.86184,0.302623,-0.0486007,-1.29916,-0.310757,0.256248,0.303829
0.00658174,0.297197,-1.88918,0.248894,0.0770173,-1.30561,-0.236304,0.293848,0.363031
0.0152764,0.30214,-1.91585,0.288479,-0.0280143,-1.2393,-0.189221,0.303713,0.404008
0.0197329,0.308346,-1.94093,0.378018,-0.2989,-1.15023,-0.164889,0.292802,0.424377
0.0179205,0.316547,-1.96451,0.485695,-0.592897,-1.09847,-0.170349,0.280494,0.418196
0.011358,0.326293,-1.98819,0.498316,-0.806643,-1.15507,-0.180589,0.262276,0.413012
0.00252436,0.33467,-2.01357,0.335358,-0.872104,-1.24656,-0.16013,0.24078,0.39935
-0.00558948,0.338782,-2.04077,0.0659604,-0.849606,-1.33216,-0.14222,0.227953,0.363586
-0.0131702,0.337791,-2.06963,-0.176339,-0.874119,-1.38218,-0.0939129,0.210661,0.294497
-0.0210495,0.333169,-2.09907,-0.325164,-0.890773,-1.40298,-0.0809242,0.199918,0.207665
-0.0296418,0.326302,-2.12941,-0.438475,-0.956525,-1.46073,-0.0779139,0.175049,0.128489
-0.0383882,0.317666,-2.16137,-0.52868,-0.913307,-1.55112,-0.0706581,0.132922,0.0422542
-0.0446436,0.307546,-2.19559,-0.632696,-0.755267,-1.67201,-0.0767584,0.111543,-0.0220828
-0.0477159,0.294874,-2.23213,-0.806498,-0.643458,-1.74955,-0.0383757,0.0897375,-0.0555266
-0.0490111,0.27912,-2.26911,-0.922157,-0.555493,-1.71955,0.00723951,0.0719882,-0.118729
-0.0493481,0.262768,-2.30453,-0.850081,-0.426599,-1.6107,0.0421265,0.0569044,-0.208261
-0.0480988,0.249648,-2.33701,-0.598,-0.248765,-1.47195,0.062871,0.0225447,-0.277589
-0.0443534,0.241557,-2.36669,-0.373966,-0.128691,-1.38529,0.0669163,-0.0233735,-0.260472
-0.0409856,0.235694,-2.39457,-0.358516,-0.214628,-1.30145,0.0998389,-0.0729548,-0.193534
-0.0407121,0.228889,-2.42069,-0.425408,-0.356758,-1.2287,0.120694,-0.116565,-0.206774
-0.0422685,0.220891,-2.44623,-0.479954,-0.351897,-1.24112,0.12944,-0.158754,-0.280906
-0.042352,0.212043,-2.47212,-0.515205,-0.195414,-1.26115,0.13891,-0.184012,-0.359486
-0.0393576,0.202086,-2.49848,-0.595664,-0.0435989,-1.27904,0.146747,-0.172974,-0.398886
-0.0332874,0.190566,-2.52441,-0.642575,0.145503,-1.21274,0.200632,-0.172325,-0.439637
-0.0244889,0.179318,-2.54766,-0.524461,0.308197,-1.02512,0.263275,-0.149431,-0.471865
-0.0139796,0.171356,-2.56567,-0.306927,0.394667,-0.72482,0.313411,-0.129667,-0.446215
-0.00398981,0.167792,-2.57674,-0.0544696,0.423133,-0.362022,0.341031,-0.116883,-0.38893
0.00576626,0.169728,-2.58087,0.256765,0.497649,-0.0576935,0.308129,-0.0934603,-0.312741
0.0167727,0.178039,-2.57954,0.565688,0.629127,0.195668,0.26514,-0.0618677,-0.187363
0.028826,0.1913,-2.57356,0.718489,0.659175,0.417306,0.235299,-0.047276,-0.00833505
0.0387971,0.205986,-2.56344,0.702173,0.518044,0.623777,0.223278,-0.0384945,0.143925
0.0433492,0.219948,-2.54956,0.641004,0.230304,0.781804,0.203451,-0.038581,0.216325
0.042101,0.232775,-2.53319,0.584751,0.0120371,0.859922,0.16031,-0.045185,0.216537
0.0369563,0.24479,-2.51614,0.556968,-0.0942405,0.833351,0.0967831,-0.0395684,0.183057
0.0314691,0.25611,-2.50058,0.520116,-0.054219,0.70845,0.0573004,-0.0284032,0.160919
0.0281673,0.266297,-2.48769,0.458728,0.0416258,0.56742,0.0464376,-0.0091632,0.170607
0.026749,0.275068,-2.47752,0.400332,0.0718951,0.459489,0.066789,0.0295931,0.195201
0.0251598,0.283396,-2.46845,0.426965,0.0274262,0.4486,0.105973,0.0784608,0.216094
0.023067,0.292993,-2.45876,0.522003,0.071061,0.516534,0.131345,0.125932,0.225302
0.0221111,0.304558,-2.44698,0.601465,0.182014,0.647354,0.141811,0.174322,0.251903
0.0216928,0.316982,-2.43188,0.610713,0.226898,0.829956,0.155018,0.199655,0.278097
0.0199135,0.329822,-2.41252,0.648351,0.198159,1.03377,0.173025,0.206931,0.261891
0.0158265,0.343701,-2.38918,0.688765,0.159812,1.18811,0.148888,0.210159,0.242391
0.00953927,0.357239,-2.36321,0.611112,0.100619,1.26432,0.107717,0.193485,0.236933
0.00153363,0.367779,-2.33642,0.420858,0.0536213,1.23835,0.050754,0.163895,0.22193
-0.00681106,0.373832,-2.31121,0.194663,0.0292117,1.10805,0.0110556,0.120755,0.182027
-0.0140659,0.375526,-2.28941,0.00689753,0.0610537,0.920021,-0.0111456,0.081697,0.122438
-0.0188144,0.373775,-2.27195,-0.150864,0.0969984,0.712852,-0.028323,0.0668235,0.0861404
-0.0217553,0.369237,-2.25883,-0.275795,0.103364,0.52342,-0.014823,0.0478698,0.0487001
-0.0226559,0.362617,-2.24917,-0.363798,0.166665,0.400898,0.00863818,0.0450456,0.0125362
-0.0215504,0.354436,-2.24173,-0.435413,0.207366,0.330602,0.0330573,0.0452124,0.00160462
-0.0187156,0.345399,-2.23516,-0.452977,0.303256,0.31655,0.0509956,0.0425979,-0.0069021
-0.0187156,0.345399,-2.23516,-0.452977,0.303256,0.31655,0.0509956,0.0425979,-0.0069021
-0.0136446,0.336716,-2.22829,-0.406473,0.444143,0.35192,0.0491787,0.0346279,-0.0180197
-0.00646786,0.328976,-2.22043,-0.365542,0.512759,0.401917,0.0551323,0.0118105,-0.00419253
0.0006,0.321881,-2.21163,-0.348924,0.46423,0.434953,0.0531723,-0.0103694,0.00970745
0.00669716,0.314901,-2.20215,-0.356815,0.447919,0.470187,0.0403242,-0.0282902,0.0123901
0.0121136,0.307729,-2.19176,-0.370198,0.429321,0.504576,0.0307837,-0.0515818,-0.00442821
0.0181439,0.299854,-2.18137,-0.457423,0.479254,0.467713,0.0142524,-0.0758807,-0.0292442
0.0236852,0.289234,-2.17161,-0.624723,0.324355,0.452024,0.019705,-0.0921773,-0.0530367
0.0248813,0.276311,-2.16192,-0.652172,0.0522797,0.448489,0.021643,-0.109821,-0.156393
0.0201268,0.265056,-2.15238,-0.48544,-0.265482,0.452043,0.0225544,-0.0938563,-0.276206
0.0100646,0.256783,-2.1425,-0.383703,-0.464289,0.506883,0.0186775,-0.0727967,-0.348785
-0.00216079,0.249458,-2.13133,-0.362008,-0.445606,0.562006,-0.00819047,-0.0752949,-0.410488
-0.0116576,0.242373,-2.1204,-0.333642,-0.232877,0.4979,-0.0656182,-0.0806262,-0.458051
-0.0161215,0.235877,-2.11118,-0.316499,-0.0079494,0.408114,-0.0752069,-0.0891035,-0.440323
-0.0174241,0.229284,-2.10357,-0.326686,-0.0034133,0.3516,-0.0570988,-0.0918263,-0.37518
-0.0210776,0.22317,-2.09711,-0.255355,-0.224519,0.294111,-0.0727235,-0.0760715,-0.34838
-0.028259,0.219927,-2.09187,-0.0367039,-0.327425,0.215252,-0.114485,-0.0568353,-0.378984
-0.0334783,0.22184,-2.0889,0.23852,-0.0900289,0.0599916,-0.173571,-0.0200874,-0.378965
-0.0313029,0.229065,-2.08893,0.474908,0.310972,-0.0736845,-0.181327,0.0337992,-0.286959
-0.0208598,0.240271,-2.09071,0.628658,0.681529,-0.119302,-0.137395,0.0750171,-0.141532
-0.00483653,0.253259,-2.09316,0.657849,0.786517,-0.129612,-0.137224,0.11198,0.00918156
0.00853787,0.266133,-2.09546,0.624524,0.431862,-0.0847575,-0.122815,0.135943,0.133583
0.0117727,0.277823,-2.09696,0.542717,-0.139347,-0.0583216,-0.138991,0.140458,0.187617
0.00549792,0.28773,-2.09913,0.45812,-0.477663,-0.168338,-0.2024,0.123116,0.151366
-0.00278491,0.296607,-2.10468,0.446171,-0.437132,-0.371338,-0.245811,0.117152,0.0801551
-0.00484497,0.305612,-2.11446,0.447386,-0.0286982,-0.551534,-0.221179,0.133625,0.079491
0.00250348,0.31381,-2.12662,0.364979,0.352977,-0.581391,-0.163102,0.16574,0.175801
0.0140258,0.319974,-2.138,0.275879,0.411732,-0.486651,-0.110054,0.169279,0.289696
0.0239716,0.325312,-2.14727,0.290519,0.250832,-0.396466,-0.0878213,0.152338,0.347868
0.0292347,0.331428,-2.1555,0.337035,0.0126733,-0.379398,-0.0781768,0.116836,0.37265
0.0305443,0.337502,-2.16391,0.282263,-0.15403,-0.403319,-0.0838855,0.0885009,0.389006
0.0289665,0.341544,-2.17297,0.146769,-0.303649,-0.441223,-0.0767432,0.0725671,0.379862
0.0256696,0.343097,-2.18274,0.0365259,-0.349421,-0.468461,-0.0504922,0.0566511,0.330521
0.0211912,0.343017,-2.19216,-0.0112908,-0.412052,-0.404599,-0.0151181,0.057781,0.271382
0.0153044,0.342674,-2.19958,-0.00829571,-0.42082,-0.302376,-0.0152838,0.0393455,0.204918
0.00881886,0.342518,-2.20549,-0.0107969,-0.426155,-0.274423,-0.0481013,0.00886446,0.165172
0.00211438,0.341862,-2.21172,-0.0568944,-0.462412,-0.317337,-0.0444724,-0.0326324,0.140555
-0.00528133,0.340113,-2.21895,-0.113338,-0.503869,-0.36229,-0.0202134,-0.0518583,0.087769
-0.0116738,0.337701,-2.22698,-0.128178,-0.385495,-0.386202,-0.00931045,-0.0652567,0.002918
-0.0156403,0.334978,-2.23498,-0.157038,-0.30256,-0.362818,0.004425,-0.0623797,-0.0431401
-0.0189842,0.331618,-2.24207,-0.190851,-0.263595,-0.31176,0.0187423,-0.0777167,-0.0888789
-0.0219301,0.327486,-2.24862,-0.243341,-0.230296,-0.30697,0.0188862,-0.0884624,-0.133909
-0.0229991,0.322003,-2.25554,-0.32499,-0.0989194,-0.344733,0.02505,-0.106628,-0.180935
-0.0209486,0.314875,-2.26338,-0.396755,0.0556327,-0.378197,0.048497,-0.112391,-0.236767
-0.0157525,0.306966,-2.27126,-0.403315,0.225114,-0.352964,0.0869303,-0.100389,-0.294849
-0.00831267,0.299171,-2.27793,-0.38778,0.319562,-0.266852,0.128839,-0.0969951,-0.323566
-0.000606621,0.291432,-2.2823,-0.391995,0.286681,-0.151628,0.142656,-0.0980667,-0.331916
0.00448303,0.283613,-2.28497,-0.391926,0.146691,-0.12501,0.105102,-0.0936482,-0.347317
0.00660196,0.275767,-2.28802,-0.39519,0.00307945,-0.183581,0.075099,-0.0998309,-0.367989
0.0078548,0.268057,-2.29228,-0.368099,0.00970855,-0.227299,0.0602969,-0.0661657,-0.383597
0.0101914,0.262078,-2.29657,-0.203083,0.143054,-0.183479,0.0921313,-0.0261293,-0.379564
0.0161092,0.260426,-2.2992,0.0412478,0.396824,-0.0642429,0.136977,0.0109098,-0.305055
0.0269447,0.263056,-2.29903,0.193768,0.681732,0.0867509,0.165758,0.0351031,-0.143622
0.0406079,0.266909,-2.29588,0.15908,0.717712,0.229974,0.17013,0.0441622,0.0434922
0.0514766,0.270016,-2.2901,0.13506,0.506422,0.334544,0.168764,0.0269249,0.144192
0.0514766,0.270016,-2.2901,0.13506,0.506422,0.334544,0.168764,0.0269249,0.144192
0.0569164,0.273385,-2.28289,0.166385,0.246343,0.362367,0.162619,0.0218689,0.183136
0.058931,0.277367,-2.27575,0.185222,0.177589,0.347756,0.145808,0.04392,0.196591
0.0615378,0.281302,-2.26852,0.160523,0.285034,0.376304,0.146134,0.0845063,0.216445
0.0659108,0.284801,-2.26028,0.140073,0.370847,0.442073,0.151115,0.121619,0.252098
0.0705213,0.28842,-2.2505,0.162873,0.356525,0.529917,0.166823,0.147796,0.293439
0.0734848,0.29306,-2.23852,0.223915,0.299307,0.653955,0.179391,0.167133,0.321068
0.0745702,0.299074,-2.22379,0.272271,0.229359,0.800005,0.192264,0.184436,0.340176
0.0733948,0.305938,-2.20594,0.284794,0.18246,0.957939,0.207054,0.18693,0.332834
0.0707194,0.313342,-2.18489,0.310479,0.189601,1.10135,0.212062,0.185757,0.28377
0.0668948,0.321528,-2.16091,0.35189,0.17746,1.23249,0.205868,0.18148,0.231071
0.0621405,0.33034,-2.13433,0.35266,0.196537,1.33275,0.182926,0.169823,0.189681
0.0568431,0.338468,-2.10608,0.292795,0.203533,1.37686,0.152313,0.138851,0.157256
0.050764,0.344656,-2.07733,0.173188,0.143165,1.36143,0.132235,0.105604,0.132682
0.0435592,0.34809,-2.04902,0.0474475,0.11245,1.32509,0.124426,0.0864185,0.0851151
0.0365275,0.349194,-2.02108,-0.0323978,0.147185,1.31157,0.11754,0.0750962,0.0237084
0.0306998,0.349051,-1.99351,-0.0667006,0.209079,1.27866,0.100734,0.0574605,-0.0253906
0.0261748,0.348056,-1.96692,-0.100503,0.244294,1.22393,0.0954232,0.043799,-0.0416687
0.0226019,0.34619,-1.94145,-0.140208,0.259319,1.17853,0.0937158,0.0423655,-0.0494362
0.0196157,0.343688,-1.9167,-0.148812,0.292949,1.15574,0.0895191,0.0419481,-0.064751
0.018137,0.341454,-1.8925,-0.117776,0.376808,1.12738,0.0882272,0.0390351,-0.0601749
0.0184434,0.339914,-1.86851,-0.0764858,0.454304,1.1476,0.0953296,0.0430157,-0.0299873
0.0195276,0.33908,-1.8438,-0.0581744,0.475205,1.18628,0.0882445,0.0425041,0.0178478
0.0202748,0.338262,-1.81855,-0.0758556,0.4235,1.19684,0.0750985,0.0250855,0.0703362
0.0196743,0.337006,-1.79334,-0.0945018,0.359054,1.17974,0.0626867,0.000875056,0.0913933
0.0182944,0.335469,-1.76882,-0.103565,0.31039,1.14008,0.0588525,-0.0146902,0.0938934
0.0162203,0.333592,-1.74518,-0.117853,0.253864,1.10616,0.0638982,-0.0324545,0.0772095
0.0129507,0.33156,-1.72197,-0.113795,0.178238,1.09613,0.07325,-0.040143,0.0497959
0.00813411,0.329473,-1.69875,-0.120801,0.109014,1.10882,0.0844819,-0.041644,0.0254052
0.00310221,0.327133,-1.67552,-0.121183,0.13725,1.08606,0.0601269,-0.06162,-0.00991583
-0.00122404,0.324735,-1.65333,-0.114946,0.138991,1.01681,0.0506596,-0.0786018,-0.0338022
-0.00458251,0.322652,-1.63287,-0.0834016,0.185664,0.93196,0.0281803,-0.0796608,-0.0590279
-0.00629361,0.32134,-1.61395,-0.0386144,0.236054,0.875917,0.0378471,-0.0837283,-0.0649692
-0.00705814,0.320943,-1.59575,0.00586011,0.262299,0.860995,0.054,-0.0842577,-0.0593861
-0.00813422,0.321176,-1.57751,0.024023,0.187617,0.875865,0.0591404,-0.0827397,-0.0354499
-0.0114473,0.321312,-1.5591,0.00099278,0.0631812,0.868361,0.0575074,-0.102019,-0.031465
-0.0164401,0.320307,-1.54172,-0.0883647,0.00807864,0.780758,0.0354855,-0.118629,-0.0629219
-0.02093,0.317212,-1.52662,-0.189942,0.0135574,0.662675,0.00190951,-0.114763,-0.111867
-0.0239896,0.312743,-1.51419,-0.21516,0.0683942,0.539713,-0.0338321,-0.0908437,-0.178145
-0.0252043,0.308864,-1.50379,-0.13614,0.130255,0.477201,-0.0268332,-0.0701233,-0.222519
-0.0246429,0.30756,-1.49406,0.0314912,0.216325,0.46319,-0.0197897,-0.046707,-0.230244
-0.022296,0.30979,-1.48422,0.18881,0.301422,0.472102,-0.0344616,-0.0153316,-0.168628
-0.0186246,0.313872,-1.47458,0.220149,0.340416,0.435633,-0.059923,0.000943065,-0.0693138
-0.014245,0.318274,-1.46632,0.236561,0.353264,0.338018,-0.077108,0.0016641,-0.0112418
-0.00934231,0.323112,-1.46019,0.247756,0.303286,0.260699,-0.0739049,0.0313409,0.0402666
-0.00640611,0.328198,-1.45469,0.269881,0.179207,0.271515,-0.0617611,0.0619162,0.0602985
-0.00576576,0.334244,-1.44864,0.343333,0.0927718,0.29841,-0.0821845,0.0842196,0.0528736
-0.00578961,0.341821,-1.44266,0.403485,0.103492,0.250542,-0.131859,0.085676,0.0491553
-0.00505231,0.349784,-1.43856,0.375959,0.0898096,0.128518,-0.166671,0.0851876,0.0745666
-0.00406942,0.356537,-1.43714,0.294689,0.059797,0.00455321,-0.182771,0.0935532,0.0773622
-0.0027196,0.361511,-1.43838,0.196753,0.0220736,-0.12079,-0.18668,0.114781,0.0681266
-0.00113253,0.364292,-1.44224,0.0793379,0.00836638,-0.237777,-0.17924,0.130855,0.0554082
0.00126773,0.364731,-1.44838,-0.0367298,0.00164819,-0.329689,-0.1551,0.147744,0.0438078
0.00365409,0.362854,-1.45571,-0.144205,-0.0267989,-0.343847,-0.113691,0.155908,0.0331175
0.00539618,0.359446,-1.46269,-0.180578,-0.0427965,-0.303681,-0.079682,0.145686,0.00205708
0.00539618,0.359446,-1.46269,-0.180578,-0.0427965,-0.303681,-0.079682,0.145686,0.00205708
0.00705246,0.356243,-1.46853,-0.129733,0.0111508,-0.243315,-0.0560786,0.127045,-0.0154005
0.00956822,0.354529,-1.47293,-0.0426442,0.0822749,-0.170396,-0.0312356,0.10075,0.00632489
0.0124034,0.354045,-1.47585,-0.0178611,0.0866345,-0.10573,-0.0176152,0.0811152,0.0699098
0.014313,0.353276,-1.47751,-0.0681669,0.0366472,-0.0571021,-0.0116739,0.0522571,0.132606
0.0148671,0.351168,-1.47847,-0.133345,-0.00681276,-0.0427177,-0.00671126,0.0194709,0.158259
0.0145726,0.347777,-1.47932,-0.199459,-0.0478039,-0.0376156,-0.000622883,-0.00141582,0.165115
0.013698,0.343272,-1.47978,-0.241005,-0.0504334,-0.00624454,0.0142623,-0.0143054,0.146007
0.0128772,0.338536,-1.47941,-0.227742,-0.0206801,0.0336595,0.0207062,-0.0272835,0.112475
0.0122316,0.334253,-1.4783,-0.205801,-0.00995358,0.0697285,0.0295834,-0.0373077,0.0995684
0.0113285,0.330241,-1.47627,-0.201302,-0.00777475,0.120392,0.0464739,-0.0445035,0.0877646
0.010551,0.326323,-1.47308,-0.18875,0.0331409,0.173777,0.0542761,-0.0527589,0.057694
0.0103307,0.323115,-1.46885,-0.133543,0.0784478,0.228511,0.0666201,-0.0634898,0.0182839
0.0108956,0.321527,-1.46318,-0.034822,0.162116,0.317364,0.089135,-0.0656069,-0.011431
0.0124891,0.321751,-1.45537,0.0340745,0.251298,0.421533,0.0950399,-0.0777695,-0.0107718
0.0149315,0.322589,-1.44583,0.0218602,0.286181,0.475865,0.0808099,-0.101282,0.00936264
0.0176851,0.322235,-1.43591,-0.0837511,0.304858,0.460712,0.0606644,-0.125924,-0.00080657
0.0206332,0.319683,-1.4266,-0.17012,0.267231,0.426369,0.0433561,-0.13741,-0.0520572
0.0223974,0.3171,-1.41773,-0.0844492,0.199491,0.411201,0.0530924,-0.140107,-0.133163
0.0246869,0.317018,-1.40931,0.0512786,0.340127,0.393313,0.0762772,-0.134753,-0.192073
0.0310959,0.318534,-1.40079,0.0454385,0.536041,0.431611,0.108489,-0.117001,-0.148893
0.0388636,0.318349,-1.39101,-0.104688,0.547684,0.502265,0.121592,-0.0959823,-0.0761254
0.0455166,0.31525,-1.38021,-0.240745,0.425205,0.500367,0.118164,-0.100972,-0.0786928
0.0483415,0.309979,-1.36984,-0.315173,0.153134,0.464859,0.109712,-0.100417,-0.123602
0.0470815,0.304783,-1.35989,-0.224075,0.0883559,0.471724,0.0864069,-0.0488213,-0.239757
0.0479549,0.302819,-1.3493,-0.0164813,0.363272,0.550419,0.110006,0.00268018,-0.295118
0.05548,0.305259,-1.33627,0.174892,0.765757,0.722121,0.125075,0.0538517,-0.208358
0.0680354,0.310712,-1.3194,0.248635,0.955942,0.915355,0.0982363,0.0876731,-0.0175853
0.0811354,0.317398,-1.29922,0.2718,0.94526,1.0468,0.0686012,0.0779345,0.145213
0.0922638,0.324846,-1.27728,0.274489,0.873549,1.10087,0.0501673,0.0620677,0.244343
0.100623,0.331873,-1.25424,0.202086,0.675351,1.14687,0.0555717,0.0542229,0.309289
0.103353,0.337466,-1.22999,0.143952,0.375716,1.19837,0.0896617,0.0395627,0.329049
0.0971006,0.342214,-1.20466,0.0201805,-0.170036,1.25894,0.131559,0.0330834,0.35019
0.0813258,0.341477,-1.17676,-0.338972,-0.433918,1.34756,0.12278,0.0461677,0.323577
0.0614476,0.333119,-1.148,-0.688132,-0.607363,1.27704,0.0483512,0.040829,0.203024
0.038812,0.317575,-1.12281,-0.966282,-0.860092,1.02083,-0.0301633,0.00954425,0.0196843
0.0133771,0.299091,-1.1038,-0.860138,-1.04209,0.75837,-0.00980729,-0.00728971,-0.25757
