attitude_roll,attitude_pitch,attitude_yaw,rotationRate_x,rotationRate_y,rotationRate_z,acceleration_x,acceleration_y,acceleration_z
0.0544312,0.349646,-0.00961627,-0.446982,0.695245,1.17388,0.0912215,0.111654,0.135246
0.0500718,0.343121,0.0294025,-0.192424,-0.0440507,1.26631,0.151353,0.0784014,0.131966
0.0373801,0.340953,0.0565279,-0.132895,-0.301866,1.26223,0.106671,0.0530892,0.0764981
0.0216471,0.33964,0.0822122,-0.0896673,-0.370972,1.14324,0.087135,0.0264462,0.00617605
0.00800284,0.337266,0.104711,-0.201962,-0.213862,0.97918,0.0769208,0.000769138,-0.0233015
6.57562e-05,0.33135,0.123912,-0.397717,0.0437047,0.854799,0.0969227,-0.0109989,-0.0367416
-0.00269808,0.322483,0.141248,-0.460061,0.222993,0.798071,0.127086,-0.0175653,-0.0661242
-0.00288651,0.314041,0.15779,-0.365697,0.249885,0.785354,0.143325,-0.0218604,-0.0764987
-0.00356638,0.308222,0.174273,-0.225248,0.173495,0.792626,0.146022,-0.0351058,-0.0576754
-0.00651886,0.304247,0.19079,-0.176495,0.0344101,0.78749,0.14454,-0.053956,-0.0134768
-0.0113758,0.300453,0.20663,-0.197241,-0.0366543,0.720339,0.11667,-0.0788792,-0.00478971
-0.0160378,0.295797,0.220448,-0.258114,-0.0120698,0.612866,0.0874078,-0.0920575,-0.0213362
-0.0193059,0.289955,0.231979,-0.304022,0.0182217,0.508054,0.0782217,-0.0968879,-0.0355284
-0.021288,0.283618,0.241541,-0.305722,0.0490375,0.432792,0.0685317,-0.0894933,-0.054374
-0.0229921,0.277837,0.250127,-0.243528,0.0129053,0.417063,0.0683731,-0.0709847,-0.0567306
-0.0255522,0.274134,0.258799,-0.0956891,-0.0253394,0.431853,0.0697156,-0.0570145,-0.0491747
-0.0284846,0.273686,0.26789,0.0654301,-0.0176122,0.447704,0.0635535,-0.0426151,-0.00989926
-0.0310814,0.275517,0.277442,0.128953,0.0403057,0.467663,0.070981,-0.0421346,0.0567297
-0.0313694,0.277588,0.287136,0.0888617,0.191787,0.460552,0.058072,-0.0396685,0.110492
-0.0290221,0.277818,0.296714,-0.0410022,0.292724,0.467405,0.0632447,-0.0386842,0.153405
-0.0256487,0.275777,0.306502,-0.127928,0.287641,0.484358,0.0705447,-0.0379165,0.144713
-0.0240763,0.27276,0.316749,-0.14831,0.132776,0.520744,0.0903074,-0.03429,0.100035
-0.0264037,0.269554,0.32826,-0.143332,-0.0559101,0.605164,0.0945696,-0.0175728,0.0241311
-0.0328141,0.266301,0.34157,-0.156398,-0.245303,0.684413,0.0671894,0.00742692,-0.0615556
-0.0439515,0.262339,0.356027,-0.190234,-0.491519,0.720985,0.0464166,0.000383437,-0.166128
-0.0596042,0.25789,0.370854,-0.178778,-0.672471,0.726677,-0.00686944,0.0122126,-0.300793
-0.0765698,0.253338,0.384755,-0.19552,-0.639018,0.634767,-0.0523047,0.0153462,-0.401195
-0.0895398,0.247436,0.395896,-0.33547,-0.35985,0.487181,-0.0888404,0.0194701,-0.446114
-0.0952995,0.23734,0.403318,-0.624546,-0.0805877,0.327282,-0.110271,0.0213424,-0.420337
-0.0967118,0.221747,0.406568,-0.89004,-0.028633,0.131176,-0.111995,0.00455621,-0.39527
-0.0986074,0.202343,0.405138,-1.03729,-0.210713,-0.067037,-0.0990565,-0.00144255,-0.40425
-0.104209,0.182233,0.400966,-0.966988,-0.391726,-0.120892,-0.0769469,0.0268223,-0.46771
-0.110308,0.166186,0.396911,-0.643225,-0.232796,-0.107043,-0.0887738,0.0466175,-0.540981
-0.110156,0.157864,0.39376,-0.220575,0.227654,-0.128344,-0.125442,0.0462929,-0.505878
-0.100482,0.157116,0.390214,0.0807508,0.654508,-0.214098,-0.159193,0.0464393,-0.31242
-0.0841026,0.160815,0.385459,0.220188,0.861923,-0.291945,-0.174954,0.0488865,-0.0827066
-0.0669341,0.166099,0.379128,0.253859,0.698834,-0.362268,-0.193619,0.070869,0.102635
-0.0561092,0.17171,0.371621,0.260733,0.220402,-0.415323,-0.210172,0.0896902,0.193003
-0.0550063,0.177636,0.362584,0.283856,-0.238006,-0.520389,-0.242243,0.0989134,0.194217
-0.0600469,0.183895,0.350689,0.263768,-0.421896,-0.695211,-0.287406,0.113539,0.169218
-0.0646557,0.189194,0.33473,0.15635,-0.303825,-0.911004,-0.313648,0.134722,0.158037
-0.0648728,0.192125,0.314334,0.0156801,-0.117249,-1.10493,-0.288844,0.147702,0.178388
-0.0612884,0.19313,0.290806,-0.0490044,0.0164869,-1.19719,-0.224419,0.167411,0.214093
-0.0556966,0.193698,0.266585,-0.0250315,0.0568281,-1.17551,-0.164123,0.190475,0.257594
-0.0507489,0.195028,0.243628,0.0392304,-0.0325957,-1.08355,-0.11741,0.19387,0.318097
-0.0493138,0.197557,0.222677,0.115177,-0.227851,-0.996196,-0.0946246,0.182404,0.361147
-0.0514123,0.20147,0.20295,0.166783,-0.37845,-0.970126,-0.0956459,0.157339,0.388223
-0.05657,0.205293,0.182844,0.0925302,-0.538566,-1.02925,-0.0976473,0.138043,0.415713
-0.0631451,0.207165,0.161258,-0.0350403,-0.539194,-1.09301,-0.0861343,0.12306,0.391051
-0.0688097,0.20631,0.138324,-0.207282,-0.512135,-1.1492,-0.0774933,0.118088,0.376883
-0.0752466,0.202167,0.113951,-0.361793,-0.647859,-1.19813,-0.0440007,0.0970634,0.333414
-0.0843229,0.196678,0.0890296,-0.360613,-0.733617,-1.20348,-0.0107234,0.079217,0.222659
-0.0935921,0.192051,0.0637893,-0.340122,-0.672776,-1.24144,-0.0398086,0.0731508,0.151467
-0.0935921,0.192051,0.0637893,-0.340122,-0.672776,-1.24144,-0.0398086,0.0731508,0.151467
-0.101238,0.18693,0.0369694,-0.432564,-0.622162,-1.33863,-0.0121916,0.026175,0.103983
-0.106371,0.181118,0.00827312,-0.424411,-0.389221,-1.40958,0.0438716,-0.0245519,-0.0570577
-0.106224,0.175474,-0.0213177,-0.479435,-0.12959,-1.42177,0.0707356,-0.0227982,-0.126161
-0.101492,0.166854,-0.0502424,-0.690758,0.0833166,-1.32077,0.118068,-0.0421254,-0.145274
-0.0950484,0.154002,-0.0768485,-0.811317,0.112979,-1.17848,0.161119,-0.0735654,-0.214171
-0.0897714,0.140795,-0.100614,-0.690665,0.0542884,-1.04616,0.18082,-0.106328,-0.3363
-0.0870335,0.131157,-0.120926,-0.451163,-0.0447085,-0.878061,0.198711,-0.116273,-0.428952
-0.0852652,0.125201,-0.137656,-0.312601,0.0401552,-0.733646,0.204948,-0.145833,-0.488544
-0.0803812,0.120248,-0.151412,-0.302598,0.294037,-0.577136,0.215045,-0.173316,-0.511144
-0.0709791,0.115129,-0.161272,-0.274438,0.509998,-0.354297,0.234818,-0.171975,-0.500744
-0.0589679,0.110828,-0.166073,-0.183597,0.621072,-0.0940679,0.249216,-0.175257,-0.478352
-0.0467564,0.108344,-0.165382,-0.053812,0.594495,0.173991,0.238879,-0.180457,-0.431663
-0.0355543,0.1093,-0.159354,0.19123,0.625651,0.418247,0.214458,-0.144839,-0.390064
-0.0226777,0.115791,-0.148421,0.486319,0.811339,0.652707,0.190706,-0.0908124,-0.299722
-0.00578768,0.127585,-0.132391,0.693526,1.07746,0.932034,0.179325,-0.0465131,-0.124371
0.0135762,0.142129,-0.110765,0.73083,1.0934,1.21973,0.179585,-0.021481,0.0825226
0.0281501,0.156919,-0.0837212,0.699635,0.727482,1.48706,0.168275,-0.0245866,0.197604
0.0320093,0.172083,-0.0521039,0.736286,0.158867,1.66572,0.151681,-0.0410456,0.212158
0.0242915,0.188969,-0.0179563,0.868802,-0.250264,1.74175,0.110878,-0.0210769,0.145437
0.0119404,0.208091,0.0174477,0.975295,-0.227944,1.76825,0.0614682,0.0241884,0.0734045
0.00219485,0.228171,0.0534952,1.00326,0.041207,1.77145,0.0449507,0.0520475,0.0635113
-0.00359579,0.248019,0.0896106,0.988372,0.197594,1.74693,0.0561744,0.0604256,0.108844
-0.00897749,0.2676,0.125543,1.00091,0.158666,1.72875,0.0775818,0.0726454,0.171141
-0.017005,0.287245,0.161576,1.01317,0.0202428,1.72434,0.0883747,0.101198,0.226712
-0.0288874,0.306672,0.197884,1.0093,-0.14734,1.70484,0.091287,0.117836,0.270863
-0.0442456,0.325123,0.233571,0.942398,-0.263777,1.61844,0.0685253,0.144377,0.291136
-0.0606036,0.340659,0.267281,0.759763,-0.25131,1.48393,0.0433989,0.181199,0.291818
-0.0748834,0.351813,0.29767,0.559633,-0.142785,1.29444,0.0168559,0.196727,0.241508
-0.0857756,0.359992,0.323806,0.474386,-0.0371078,1.10015,0.0403993,0.207293,0.176065
-0.0936131,0.367819,0.346969,0.50777,0.0701749,1.01603,0.0982105,0.237632,0.129315
-0.0996636,0.376172,0.369599,0.510088,0.1348,1.01725,0.141003,0.273964,0.146013
-0.105561,0.383129,0.392403,0.381545,0.10038,1.02052,0.152551,0.275069,0.182972
-0.112714,0.386669,0.414266,0.194618,-0.00516522,0.946588,0.148818,0.232834,0.173757
-0.12045,0.386834,0.43304,0.0301559,-0.0309531,0.7716,0.115644,0.193909,0.101222
-0.125176,0.384334,0.447127,-0.114824,0.110489,0.568743,0.102466,0.16611,0.0338849
-0.123828,0.379733,0.457151,-0.22032,0.411841,0.42326,0.104292,0.162634,-0.0174804
-0.115325,0.374029,0.464489,-0.25766,0.698018,0.33079,0.101987,0.156888,-0.0374788
-0.101643,0.36827,0.470226,-0.255583,0.878914,0.265665,0.100326,0.136033,-0.0194191
-0.0842371,0.362563,0.474759,-0.291402,1.02199,0.210124,0.0741054,0.124035,0.0299726
-0.0640219,0.35535,0.478248,-0.408399,1.12389,0.178337,0.0520313,0.0966674,0.0766716
-0.0422294,0.346208,0.481583,-0.478505,1.16813,0.192169,0.0397272,0.060906,0.0836723
-0.0206413,0.336437,0.485962,-0.48652,1.11893,0.265518,0.0355044,0.0450454,0.0729322
-0.00210621,0.326361,0.492606,-0.529275,0.934907,0.377629,0.0332755,0.0124619,0.0567561
0.0115791,0.314957,0.501738,-0.624239,0.732686,0.47834,0.0197066,-0.0350728,0.00352603
0.0211917,0.301535,0.512731,-0.736902,0.563411,0.541972,-0.00338842,-0.0816458,-0.0841814
0.0273835,0.286533,0.524653,-0.780826,0.405028,0.562801,-0.0373112,-0.125483,-0.213677
0.03013,0.271402,0.537485,-0.764742,0.210386,0.647679,-0.0532232,-0.125564,-0.335061
0.0278403,0.257125,0.552806,-0.704272,-0.0338371,0.789424,-0.0690054,-0.109331,-0.453049
0.0217966,0.244241,0.570138,-0.638788,-0.103157,0.843367,-0.123901,-0.126283,-0.566729
0.017011,0.231866,0.587031,-0.642371,0.0441927,0.758945,-0.182113,-0.164585,-0.622879
0.017011,0.231866,0.587031,-0.642371,0.0441927,0.758945,-0.182113,-0.164585,-0.622879
0.0169719,0.219259,0.601398,-0.642449,0.259173,0.62865,-0.211954,-0.176628,-0.627551
0.020113,0.207317,0.613822,-0.561141,0.277152,0.584543,-0.179761,-0.154028,-0.564229
0.0216355,0.198086,0.625933,-0.375272,0.111747,0.58302,-0.174302,-0.121856,-0.491571
0.0206852,0.193527,0.637492,-0.0938065,0.0513356,0.541078,-0.203357,-0.0936441,-0.432803
0.0205448,0.194666,0.647727,0.182287,0.143555,0.461261,-0.225142,-0.0529453,-0.330694
0.0235238,0.200918,0.655733,0.418166,0.318782,0.340546,-0.244103,-0.00383095,-0.204301
0.0298953,0.211331,0.661462,0.601502,0.414809,0.260192,-0.243917,0.061705,-0.0417424
0.0369681,0.224799,0.665766,0.723047,0.362199,0.209146,-0.259617,0.134516,0.115988
0.0408578,0.239611,0.668631,0.723655,0.0339153,0.113736,-0.281119,0.148229,0.262246
0.0356446,0.252535,0.668445,0.538331,-0.591372,-0.0979227,-0.309867,0.142941,0.375168
0.0199716,0.26037,0.662913,0.258853,-1.04372,-0.433767,-0.340342,0.122718,0.368965
0.0021645,0.262939,0.649693,0.018962,-1.03419,-0.852124,-0.381012,0.140672,0.280951
-0.0102487,0.261525,0.627855,-0.160031,-0.753313,-1.24352,-0.365848,0.188852,0.231571
-0.0137899,0.257866,0.59908,-0.223521,-0.344942,-1.52534,-0.312701,0.228543,0.19562
-0.0100274,0.253975,0.565812,-0.196486,-0.168763,-1.6827,-0.233398,0.263125,0.240364
-0.0047718,0.250677,0.530511,-0.160848,-0.216705,-1.72755,-0.151887,0.274976,0.309936
-0.00185914,0.247932,0.495291,-0.124799,-0.371413,-1.69016,-0.0955183,0.285286,0.351378
-0.003071,0.246005,0.461303,-0.0718645,-0.569606,-1.62392,-0.0666626,0.281098,0.364374
-0.0071806,0.245034,0.428244,-0.0517407,-0.627427,-1.59638,-0.0580059,0.266607,0.351482
-0.012867,0.243746,0.395639,-0.118813,-0.755551,-1.56544,-0.0181839,0.222144,0.341103
-0.0225395,0.240935,0.364291,-0.216125,-0.978366,-1.48054,0.0564935,0.140527,0.282224
-0.0375367,0.236627,0.334989,-0.303634,-1.21274,-1.36085,0.146849,0.0656324,0.173064
-0.0560366,0.230481,0.308094,-0.450759,-1.21932,-1.23722,0.212943,-0.0297486,0.0363749
-0.0723423,0.220352,0.282494,-0.747483,-0.949676,-1.22153,0.223898,-0.143045,-0.0799697
-0.0816957,0.204134,0.255119,-1.05403,-0.575159,-1.34997,0.209152,-0.24183,-0.227002
-0.0836104,0.185309,0.223787,-1.03735,-0.273622,-1.56255,0.224097,-0.321808,-0.439972
-0.0834787,0.169272,0.189907,-0.822418,-0.33456,-1.58687,0.348044,-0.333412,-0.61619
-0.0845876,0.15878,0.159176,-0.467934,-0.201588,-1.31755,0.493748,-0.297193,-0.787716
-0.0795828,0.155207,0.136489,-0.0771931,0.410561,-0.874717,0.541129,-0.242922,-0.862773
-0.0613322,0.158511,0.123936,0.312827,1.2225,-0.400553,0.508645,-0.221593,-0.779667
-0.0311576,0.1682,0.119945,0.620298,1.65916,-0.0632744,0.435956,-0.229153,-0.529254
0.00188603,0.182565,0.121282,0.799505,1.60974,0.161992,0.383796,-0.236141,-0.261494
0.0297299,0.199471,0.12606,0.878535,1.2481,0.331326,0.341958,-0.221298,-0.0909098
0.0488443,0.21809,0.133797,0.969881,0.844933,0.506026,0.31456,-0.17835,-0.0249739
0.0611344,0.239638,0.14469,1.13675,0.691823,0.675867,0.263175,-0.0955194,-0.0241957
0.0725426,0.264807,0.158351,1.27239,0.827366,0.804496,0.209238,-0.0230518,-0.00269681
0.0866044,0.290988,0.17355,1.18725,0.978815,0.848254,0.161738,0.01073,0.101755
0.101608,0.313247,0.188891,0.871952,0.939965,0.807457,0.121032,0.0153023,0.205877
0.113415,0.32889,0.20353,0.570833,0.695625,0.752362,0.108547,0.018992,0.201491
0.120135,0.34162,0.217798,0.590376,0.470562,0.754171,0.114145,0.0593027,0.0776036
0.123474,0.357428,0.232589,0.83319,0.406513,0.831749,0.116679,0.127194,-0.00897664
0.126906,0.378693,0.248728,1.0742,0.547095,0.932862,0.0842751,0.190309,0.00854498
0.133354,0.403092,0.266342,1.10374,0.772118,0.992236,0.0373189,0.238135,0.113209
0.143086,0.426094,0.284489,0.928931,0.925618,0.96142,-0.0038103,0.250704,0.243979
0.154955,0.444893,0.301949,0.70077,0.978679,0.883508,-0.0435936,0.257403,0.329982
0.166082,0.459485,0.318449,0.525896,0.828469,0.835531,-0.0439552,0.269887,0.377524
0.172545,0.472631,0.335308,0.548788,0.584216,0.893384,0.00835568,0.298446,0.354417
0.173864,0.487641,0.354332,0.634483,0.448284,1.0456,0.045615,0.343253,0.334966
0.171366,0.503805,0.377023,0.58242,0.385378,1.19495,0.0674868,0.351398,0.369318
0.165909,0.517324,0.402949,0.349479,0.318528,1.26098,0.0668956,0.321552,0.398624
0.165909,0.517324,0.402949,0.349479,0.318528,1.26098,0.0668956,0.321552,0.398624
0.156505,0.525476,0.431176,0.0624285,0.13036,1.2864,0.064182,0.295951,0.386236
0.141123,0.528111,0.460825,-0.168804,-0.196678,1.29305,0.0799084,0.277508,0.316767
0.118719,0.526605,0.490896,-0.311334,-0.509819,1.27316,0.0974503,0.257072,0.159367
0.0915058,0.521592,0.520549,-0.477593,-0.713786,1.23058,0.0976678,0.245514,0.00957906
0.0626182,0.511522,0.548595,-0.732288,-0.751092,1.11717,0.08473,0.218234,-0.13009
0.0380617,0.495667,0.573298,-0.933468,-0.456976,0.977011,0.0585222,0.199862,-0.314116
0.0238608,0.477225,0.595037,-0.967588,0.046859,0.913771,0.0432754,0.22665,-0.446483
0.018979,0.457874,0.616285,-1.02416,0.397561,0.957815,0.0688381,0.231928,-0.430575
0.0195208,0.43682,0.638288,-1.13164,0.578321,0.975716,0.0658246,0.194209,-0.347397
0.0216358,0.413579,0.659871,-1.22227,0.492867,0.950625,0.0348164,0.138767,-0.278465
0.0213699,0.389845,0.681025,-1.18379,0.293998,0.956904,0.011958,0.0803933,-0.276369
0.0170268,0.367559,0.702137,-1.09032,0.074651,0.958071,-0.0306593,0.026025,-0.292697
0.0111561,0.346493,0.72167,-1.07741,0.0390841,0.82902,-0.110102,-0.0482773,-0.322764
0.00764825,0.324029,0.73689,-1.20144,0.10575,0.570241,-0.1729,-0.127199,-0.351887
0.00785759,0.299226,0.745586,-1.2683,0.17067,0.248954,-0.228044,-0.17104,-0.432969
0.0103269,0.27547,0.748468,-1.06409,0.154654,0.0339537,-0.226597,-0.179295,-0.552204
0.0132725,0.259271,0.748589,-0.517087,0.174889,-0.0220576,-0.220668,-0.138277,-0.64917
0.0190807,0.255626,0.748432,0.144392,0.438177,-0.00414162,-0.266934,-0.0969106,-0.628145
0.0310283,0.263443,0.748022,0.589653,0.715613,-0.0225827,-0.347916,-0.0430453,-0.424034
0.0467612,0.277279,0.746478,0.772715,0.786819,-0.0825313,-0.393073,-0.0197024,-0.156267
0.0624884,0.293073,0.742219,0.819056,0.650682,-0.257523,-0.441285,0.00395241,0.0623496
0.0758388,0.308557,0.733402,0.777639,0.418034,-0.474319,-0.458342,0.0298193,0.234992
0.0859157,0.322379,0.720356,0.703369,0.192998,-0.641197,-0.425857,0.0742092,0.355875
0.0930793,0.334293,0.704492,0.620071,0.0190076,-0.74007,-0.39058,0.118034,0.443025
0.0973089,0.344213,0.687381,0.520672,-0.172383,-0.770869,-0.336253,0.145058,0.506453
0.0979403,0.352179,0.670198,0.437197,-0.338473,-0.763479,-0.275925,0.147037,0.533719
0.0954937,0.358551,0.653404,0.351412,-0.502663,-0.74739,-0.224753,0.150432,0.54948
0.0893373,0.363259,0.63712,0.261623,-0.68239,-0.736,-0.170662,0.147147,0.54387
0.0797442,0.366404,0.621179,0.167668,-0.851522,-0.733283,-0.128175,0.144256,0.530432
0.0669664,0.367262,0.605105,0.0288882,-1.01288,-0.758695,-0.0957334,0.142723,0.493142
0.0512493,0.366194,0.589091,-0.0270069,-1.12007,-0.73242,-0.00795916,0.128725,0.383902
0.0342655,0.365129,0.574007,-0.0267001,-1.10981,-0.694248,0.0315372,0.132475,0.291226
0.0181804,0.36346,0.559463,-0.126283,-1.01745,-0.674882,0.0550449,0.113811,0.246469
0.00430137,0.359107,0.54507,-0.300007,-0.876637,-0.695215,0.0664991,0.073362,0.202499
-0.00589835,0.351552,0.529135,-0.456744,-0.708479,-0.810912,0.0353227,0.0416362,0.142375
-0.0121135,0.340904,0.510572,-0.629383,-0.549419,-0.922307,0.048739,0.0152933,0.0956582
-0.0151093,0.327014,0.490606,-0.785777,-0.412949,-0.936624,0.0965071,0.00188056,0.0554793
-0.0160965,0.310528,0.471133,-0.887907,-0.297461,-0.886393,0.128989,-0.0153765,0.0130078
-0.0157828,0.292617,0.453324,-0.935931,-0.223032,-0.779135,0.166768,-0.048333,-0.0304352
-0.0163738,0.273916,0.4386,-0.959965,-0.247726,-0.600233,0.200318,-0.0740249,-0.0664932
-0.0183681,0.255099,0.42781,-0.937727,-0.234991,-0.413542,0.213665,-0.123559,-0.128304
-0.0214176,0.236908,0.420682,-0.893176,-0.244844,-0.246886,0.210454,-0.174528,-0.187395
-0.0250606,0.219585,0.41659,-0.859542,-0.213324,-0.11657,0.197827,-0.219568,-0.247219
-0.0287088,0.202754,0.414856,-0.824632,-0.179492,-0.0105061,0.169337,-0.251682,-0.318648
-0.0322226,0.187387,0.415189,-0.689757,-0.170058,0.0878526,0.147833,-0.267504,-0.396418
-0.035303,0.176012,0.417647,-0.441114,-0.0706024,0.197001,0.165335,-0.28185,-0.467174
-0.0350762,0.168981,0.422765,-0.283005,0.202585,0.332481,0.172662,-0.265309,-0.453708
-0.0301409,0.1624,0.430144,-0.402373,0.376757,0.405233,0.174927,-0.266765,-0.356273
-0.0233699,0.152005,0.438436,-0.61253,0.410946,0.450614,0.195767,-0.269234,-0.323782
-0.0172657,0.139419,0.448112,-0.56857,0.343063,0.560762,0.233787,-0.233378,-0.421106
-0.0123358,0.131369,0.461582,-0.179116,0.339311,0.816129,0.296211,-0.166127,-0.539911
-0.0123358,0.131369,0.461582,-0.179116,0.339311,0.816129,0.296211,-0.166127,-0.539911
-0.0074888,0.133212,0.481808,0.399083,0.433953,1.21877,0.337729,-0.0752202,-0.578605
-0.0013825,0.146858,0.511068,0.970904,0.585416,1.68036,0.320643,0.0101611,-0.516976
0.00555817,0.170997,0.548844,1.4126,0.699969,2.03552,0.239243,0.0731038,-0.352551
0.0117141,0.202337,0.591717,1.65193,0.694627,2.19321,0.145355,0.10106,-0.146505
0.0142478,0.235882,0.636543,1.61885,0.517487,2.22809,0.0652488,0.130506,0.0470389
0.0106497,0.266861,0.681443,1.4195,0.234266,2.1571,0.019131,0.132098,0.158641
0.000730348,0.293535,0.724267,1.24536,-0.0129285,1.97254,-0.0144016,0.122407,0.164136
-0.0119921,0.317175,0.763154,1.15041,-0.0666495,1.73642,-0.0262345,0.1401,0.117517
-0.0242626,0.338839,0.798189,1.093,-0.0208822,1.5625,0.0140764,0.172358,0.0826952
-0.0349135,0.359545,0.830947,1.07671,0.0729321,1.47253,0.0628257,0.21545,0.0761573
-0.0441456,0.3797,0.862764,1.05538,0.147248,1.42469,0.104175,0.244009,0.108749
-0.052969,0.398954,0.894165,1.01034,0.150935,1.38822,0.131016,0.252178,0.158503
-0.0623851,0.416779,0.924612,0.929667,0.117844,1.30328,0.145493,0.246538,0.196707
-0.0719874,0.432532,0.95329,0.819856,0.107153,1.20559,0.165552,0.238903,0.214104
-0.0808252,0.446031,0.979774,0.715878,0.159554,1.08911,0.179894,0.241462,0.200384
-0.087005,0.457378,1.0038,0.592497,0.258049,0.980877,0.199576,0.249642,0.194219
-0.0910652,0.465831,1.02534,0.422611,0.300942,0.876535,0.214459,0.254936,0.197349
-0.0927379,0.471257,1.04483,0.284211,0.413627,0.820766,0.236106,0.269711,0.173791
-0.0918141,0.47451,1.06332,0.195406,0.511731,0.813251,0.260129,0.293146,0.149106
-0.0892597,0.476411,1.08234,0.144019,0.607239,0.866306,0.27233,0.307759,0.129707
-0.0865912,0.476831,1.10253,0.0438529,0.586058,0.91754,0.26693,0.299755,0.141931
-0.0839298,0.474872,1.12328,-0.0854699,0.651158,0.937316,0.247254,0.27389,0.122839
-0.0794948,0.470158,1.14404,-0.235174,0.734075,0.946575,0.210062,0.26742,0.110346
-0.0734951,0.462469,1.16466,-0.39375,0.79646,0.957327,0.199321,0.244591,0.104864
-0.0666129,0.451609,1.18561,-0.559901,0.815744,0.995142,0.179809,0.230191,0.0952298
-0.0595129,0.437788,1.20714,-0.68544,0.840491,1.04206,0.152776,0.204348,0.0641377
-0.0517788,0.422486,1.22973,-0.723928,0.859447,1.09881,0.119104,0.16978,0.0267406
-0.0445138,0.406947,1.25358,-0.724583,0.833622,1.16901,0.0922565,0.129649,0.00975466
-0.038036,0.391492,1.27894,-0.73653,0.799911,1.22777,0.0483943,0.0882173,0.0159271
-0.032467,0.375439,1.30489,-0.7895,0.735073,1.23147,-0.00219422,0.0400358,0.0245832
-0.0271635,0.35857,1.33045,-0.829782,0.72868,1.20426,-0.0567207,-0.00422832,-0.00149149
-0.0205768,0.341142,1.35493,-0.861584,0.770357,1.14072,-0.0905958,-0.0441752,-0.0273391
-0.0123183,0.323392,1.37811,-0.874703,0.805575,1.08731,-0.106622,-0.0786392,-0.0413193
-0.00383845,0.306303,1.4008,-0.804238,0.735404,1.10242,-0.0900445,-0.0975577,-0.0509925
0.00258348,0.29164,1.42436,-0.66749,0.601219,1.16678,-0.0744197,-0.101988,-0.0463647
0.0057466,0.279764,1.4498,-0.529816,0.422855,1.28595,-0.0717922,-0.114481,-0.0352941
0.00484404,0.271123,1.47746,-0.34741,0.246903,1.3605,-0.106809,-0.1419,-0.0369372
0.000954646,0.265913,1.50539,-0.200255,0.117402,1.32944,-0.149099,-0.174649,-0.0248783
-0.00419668,0.262348,1.53205,-0.168231,0.0719412,1.25254,-0.171057,-0.197133,-0.00373787
-0.00952762,0.258952,1.55693,-0.156562,0.0342929,1.16028,-0.181235,-0.204702,0.00331241
-0.0156434,0.256049,1.57995,-0.100833,-0.0684566,1.08519,-0.166279,-0.204518,-0.0030877
-0.0235789,0.254564,1.60177,-0.011975,-0.171815,1.03258,-0.152934,-0.197747,-0.0218146
-0.0329508,0.254172,1.62214,0.0136077,-0.248417,0.94086,-0.164571,-0.192541,-0.0190733
-0.0428509,0.253559,1.64024,-0.0181429,-0.281919,0.810396,-0.186468,-0.183872,-0.022197
-0.0521255,0.252018,1.65517,-0.0733251,-0.279816,0.639681,-0.191732,-0.17659,-0.0262972
-0.0609102,0.249378,1.66649,-0.124853,-0.323727,0.482395,-0.16092,-0.17074,-0.0428476
-0.0701367,0.245888,1.67503,-0.178139,-0.405101,0.376158,-0.130729,-0.13352,-0.0556411
-0.0815602,0.241025,1.68169,-0.271069,-0.588541,0.313116,-0.0978109,-0.114955,-0.07257
-0.0959296,0.234125,1.68669,-0.362435,-0.705966,0.238977,-0.0810709,-0.124362,-0.145921
-0.110351,0.226734,1.69022,-0.311806,-0.63452,0.180153,-0.095084,-0.0996821,-0.262478
-0.110351,0.226734,1.69022,-0.311806,-0.63452,0.180153,-0.095084,-0.0996821,-0.262478
-0.121688,0.222243,1.69298,-0.0941301,-0.434646,0.147744,-0.0842344,-0.0703995,-0.321816
-0.129492,0.222501,1.69583,0.130337,-0.316786,0.117248,-0.0699457,-0.047717,-0.260097
-0.13583,0.226653,1.69796,0.287007,-0.269488,0.0167677,-0.0896385,-0.0479109,-0.166296
-0.140737,0.232639,1.69727,0.254418,-0.255878,-0.171702,-0.115475,-0.00683464,-0.0664971
-0.14468,0.236555,1.69217,0.0489615,-0.248928,-0.37063,-0.0820531,0.00312296,-0.00722879
-0.145931,0.236978,1.68271,-0.126109,-0.0673669,-0.534391,-0.0395127,0.0395142,-0.0284686
-0.141957,0.236056,1.6709,-0.0904401,0.198275,-0.574115,0.0106496,0.104186,-0.0744537
-0.132745,0.238362,1.65952,0.186317,0.434527,-0.555925,0.0207791,0.160641,-0.102222
-0.121038,0.246246,1.64944,0.449914,0.45877,-0.514062,0.023915,0.201727,-0.0207512
-0.111475,0.257653,1.64046,0.561595,0.251818,-0.489873,0.0215732,0.223806,0.0901392
-0.107409,0.269871,1.63156,0.551537,-0.0940867,-0.502203,0.0112046,0.23876,0.158279
-0.10943,0.281739,1.62202,0.516419,-0.320677,-0.54963,-0.00654455,0.260921,0.154504
-0.112645,0.292032,1.61063,0.353844,-0.303424,-0.657413,-0.0423464,0.283809,0.160744
-0.113503,0.298168,1.59604,0.0909016,-0.210119,-0.806531,-0.0697162,0.27697,0.178089
-0.111518,0.29962,1.57739,-0.131748,-0.157021,-0.991469,-0.0899907,0.248527,0.168645
-0.107612,0.298089,1.55429,-0.253549,-0.128673,-1.18831,-0.0942622,0.237663,0.143211
-0.102187,0.294674,1.5278,-0.362219,-0.116136,-1.27405,-0.0557237,0.248268,0.141343
-0.0975074,0.288765,1.50089,-0.475686,-0.189183,-1.22447,0.000594452,0.24975,0.140704
-0.0942866,0.281146,1.4755,-0.511146,-0.186293,-1.13795,0.0186579,0.235205,0.0947002
-0.0908408,0.272636,1.45155,-0.558033,-0.123311,-1.08972,0.00821786,0.196959,0.0751215
-0.0862369,0.262765,1.42834,-0.631384,-0.027731,-1.05824,0.0257242,0.142625,0.0744221
-0.0802597,0.25115,1.40563,-0.716823,0.038946,-1.03392,0.0483155,0.102049,0.0821933
-0.0746049,0.237566,1.38399,-0.803951,-0.0165971,-0.948444,0.0973598,0.0638751,0.0893578
-0.071691,0.222158,1.36478,-0.862874,-0.142871,-0.798593,0.147353,0.0273269,0.0622436
-0.0729461,0.206556,1.34945,-0.777393,-0.306858,-0.578056,0.175717,-0.00212415,-0.00686145
-0.0786036,0.193901,1.33935,-0.549237,-0.448442,-0.313088,0.200266,-0.0188753,-0.0726424
-0.0864745,0.186015,1.33472,-0.292351,-0.390982,-0.0893052,0.192177,-0.0466539,-0.100528
-0.0927673,0.181129,1.33389,-0.24523,-0.277564,0.036964,0.159326,-0.0871783,-0.0316207
-0.0979885,0.174858,1.33443,-0.385136,-0.238898,0.0596266,0.129192,-0.144681,0.0468456
-0.102632,0.165739,1.33415,-0.520064,-0.237482,-0.0063603,0.114506,-0.183499,0.0556459
-0.106569,0.154876,1.33201,-0.574421,-0.171787,-0.0844297,0.132301,-0.20466,0.0140111
-0.108172,0.143467,1.32883,-0.598064,-0.036756,-0.0918562,0.177042,-0.201659,-0.0164554
-0.107305,0.131388,1.32652,-0.632964,0.0791182,0.0105267,0.233068,-0.192293,-0.0186851
-0.10523,0.118591,1.32696,-0.633769,0.118573,0.17787,0.275684,-0.188846,-0.0322459
-0.103609,0.105985,1.33112,-0.572964,0.0809408,0.372155,0.284484,-0.190356,-0.0689117
-0.103688,0.0946126,1.33946,-0.467701,-0.010382,0.574629,0.280575,-0.193401,-0.123924
-0.105646,0.0850851,1.352,-0.354046,-0.0558373,0.771463,0.267651,-0.188928,-0.195589
-0.108004,0.0770498,1.36849,-0.285586,-0.0583362,0.942688,0.226188,-0.174293,-0.256152
-0.111361,0.0690375,1.38708,-0.327466,-0.172529,0.969747,0.156886,-0.19237,-0.320939
-0.117702,0.0595362,1.40444,-0.424007,-0.334431,0.845903,0.0950051,-0.216759,-0.437267
-0.124965,0.0486931,1.4185,-0.476359,-0.273841,0.688914,0.0780442,-0.190233,-0.588411
-0.127153,0.0382609,1.43005,-0.402879,0.15967,0.617564,0.100777,-0.124651,-0.704508
-0.117158,0.0303824,1.44211,-0.221224,0.901332,0.706609,0.128387,-0.0539576,-0.711919
-0.0940522,0.0266847,1.45815,0.0294007,1.37862,0.945106,0.191704,-0.0134338,-0.573057
-0.0662202,0.0283158,1.48008,0.317667,1.41712,1.24015,0.23242,0.00202111,-0.356336
-0.0401199,0.0365515,1.50851,0.660259,1.28185,1.56672,0.221097,0.0359177,-0.166191
-0.0182401,0.0520632,1.54339,0.982043,1.04501,1.87911,0.183681,0.0717845,-0.00139904
-0.00338275,0.073311,1.58369,1.15571,0.687959,2.12291,0.159303,0.0843689,0.125818
0.00251681,0.096378,1.62776,1.13115,0.272609,2.27219,0.125623,0.0873787,0.186839
-0.000382478,0.11809,1.674,1.04106,-0.0395754,2.3262,0.0787794,0.0918754,0.154138
-0.00892271,0.138121,1.72038,1.00292,-0.208235,2.26958,0.0237453,0.110628,0.0612226
-0.0199364,0.157947,1.76536,1.06025,-0.192438,2.16127,-0.00437629,0.145557,-0.027445
-0.0293522,0.178761,1.80807,1.12411,-0.0122856,2.00579,-0.025853,0.186203,-0.0621966
-0.0343568,0.199802,1.84786,1.09001,0.273483,1.84562,-0.0313206,0.225743,-0.0184584
-0.0340435,0.219071,1.88515,0.96462,0.508298,1.75927,0.00407903,0.24459,0.0720156
-0.0312612,0.236061,1.92149,0.864153,0.562534,1.7444,0.0249418,0.272159,0.167394
-0.0298539,0.251813,1.9579,0.833429,0.442242,1.74719,0.0290301,0.283645,0.232771
-0.0317397,0.267388,1.99431,0.834821,0.309038,1.73486,0.0409673,0.267113,0.279713
-0.036508,0.28248,2.0305,0.790184,0.21743,1.69989,0.0385017,0.2694,0.32072
-0.0421402,0.295947,2.06543,0.670682,0.230949,1.59026,0.0258309,0.241139,0.341236
-0.0462683,0.305987,2.0976,0.459738,0.303957,1.44694,0.0343224,0.212078,0.348297
-0.0487403,0.312198,2.12667,0.302647,0.327614,1.30192,0.0442448,0.200324,0.307434
-0.0503151,0.316024,2.15283,0.204944,0.319779,1.17736,0.0486119,0.216201,0.256405
-0.051498,0.317794,2.17681,0.0870552,0.319232,1.10388,0.0720147,0.22864,0.220045
-0.0519307,0.317491,2.19958,0.00434065,0.353503,1.06853,0.100644,0.228123,0.159587
-0.0508187,0.316182,2.22153,-0.0247595,0.463307,1.02813,0.0872496,0.243603,0.091445
-0.0466165,0.314267,2.24253,-0.0785521,0.597101,0.986938,0.0693111,0.243369,0.0603417
-0.040674,0.310935,2.26256,-0.177325,0.600621,0.937541,0.0713056,0.218135,0.0556916
-0.0348227,0.305347,2.2813,-0.32024,0.550204,0.865633,0.0485402,0.198131,0.0309232
-0.0288862,0.296964,2.298,-0.478228,0.544871,0.753679,0.00920058,0.167527,-0.0287736
-0.0228643,0.284934,2.31179,-0.706199,0.437013,0.596133,-0.0460986,0.138836,-0.0730259
-0.0192255,0.268094,2.32175,-0.961133,0.180533,0.392968,-0.0854359,0.0724506,-0.153653
-0.0198371,0.246847,2.32731,-1.13985,-0.0757632,0.197257,-0.0975716,0.0219506,-0.310807
-0.0227752,0.223586,2.32972,-1.16279,-0.132307,0.112051,-0.10377,0.00993609,-0.501768
-0.0248501,0.201546,2.33144,-1.0192,-0.00874393,0.116398,-0.12069,0.0156748,-0.633185
-0.0213363,0.183436,2.33294,-0.815183,0.415895,0.064932,-0.201069,0.0134635,-0.657672
-0.0213363,0.183436,2.33294,-0.815183,0.415895,0.064932,-0.201069,0.0134635,-0.657672
-0.0101622,0.167938,2.33283,-0.773515,0.607397,-0.0599407,-0.238852,-0.0409799,-0.518087
-0.000374795,0.151889,2.32983,-0.839182,0.254048,-0.235847,-0.219127,-0.126679,-0.372185
-0.000214496,0.134966,2.3233,-0.830022,-0.303314,-0.408544,-0.194139,-0.164302,-0.39119
-0.00739577,0.120066,2.31391,-0.648111,-0.450913,-0.512498,-0.196301,-0.132755,-0.537805
-0.0124053,0.109967,2.30299,-0.352977,-0.118492,-0.553547,-0.190459,-0.0905111,-0.615202
-0.00810059,0.106931,2.29223,0.0517495,0.438328,-0.499686,-0.187884,-0.0343552,-0.589866
0.00551617,0.112246,2.28356,0.461665,0.775038,-0.358783,-0.192631,0.0379897,-0.405295
0.021312,0.12453,2.27775,0.764434,0.692007,-0.203841,-0.223858,0.0778826,-0.161274
0.0324251,0.142112,2.27434,1.00109,0.347922,-0.100992,-0.273838,0.0920734,0.0260046
0.0349464,0.164069,2.27138,1.19702,-0.15051,-0.146305,-0.336442,0.0996437,0.151053
0.0285377,0.188855,2.26559,1.27917,-0.576005,-0.359211,-0.393398,0.102483,0.239175
0.0167299,0.213579,2.25482,1.20645,-0.78173,-0.648989,-0.416343,0.12796,0.30545
0.00467474,0.236023,2.23809,1.05743,-0.776502,-0.961234,-0.40074,0.169278,0.350897
-0.00431202,0.255546,2.21521,0.909518,-0.678465,-1.26378,-0.357156,0.215145,0.376299
-0.00916888,0.272797,2.18643,0.80365,-0.572325,-1.52872,-0.305486,0.253588,0.390547
-0.0112691,0.28809,2.15269,0.692639,-0.612751,-1.71925,-0.227385,0.289767,0.42052
-0.0148047,0.301248,2.11607,0.585558,-0.82202,-1.80026,-0.128837,0.326696,0.434339
-0.0218135,0.312981,2.07856,0.533236,-1.00298,-1.79726,-0.0628966,0.360021,0.408133
-0.0311749,0.32439,2.04168,0.518196,-1.0745,-1.74541,-0.0093658,0.388189,0.367551
-0.0407199,0.335609,2.00562,0.468251,-1.03626,-1.72851,0.0167089,0.383589,0.342811
-0.0483272,0.345324,1.96899,0.336068,-0.935204,-1.78222,0.0281988,0.354691,0.337908
-0.0528955,0.351662,1.9309,0.10309,-0.850652,-1.83621,0.0612928,0.327704,0.34911
-0.0565273,0.352834,1.89148,-0.195845,-0.90665,-1.87946,0.096489,0.283134,0.342401
-0.0619288,0.34774,1.85019,-0.546343,-1.05426,-1.98575,0.112643,0.218566,0.296497
-0.0689415,0.335605,1.80539,-0.962063,-1.1481,-2.16888,0.116252,0.154124,0.205137
-0.0760525,0.315217,1.7561,-1.4102,-1.11579,-2.34225,0.142167,0.107615,0.0644971
-0.0808505,0.287711,1.70424,-1.67233,-0.871793,-2.36067,0.199879,0.0885677,-0.12845
-0.0797844,0.259168,1.65454,-1.50914,-0.323737,-2.15909,0.265835,0.100637,-0.328219
-0.0695344,0.236155,1.61218,-1.09079,0.272667,-1.74992,0.314712,0.102145,-0.375381
-0.0538864,0.220543,1.58007,-0.689256,0.512542,-1.29798,0.337865,0.0370579,-0.248553
-0.0391614,0.210384,1.55689,-0.464226,0.42002,-0.934779,0.293247,-0.0503504,-0.0590234
-0.0295051,0.202811,1.54059,-0.360416,0.221956,-0.654775,0.250423,-0.123436,0.0576913
-0.0241802,0.196237,1.52898,-0.351474,0.0809193,-0.485134,0.198976,-0.182477,0.106512
-0.0224259,0.188529,1.52001,-0.44476,-0.0719613,-0.389623,0.181298,-0.249658,0.111123
-0.0233626,0.179062,1.51236,-0.51784,-0.149219,-0.348119,0.152336,-0.291925,0.0327539
-0.0258261,0.168467,1.50545,-0.559481,-0.224869,-0.305492,0.139487,-0.318444,-0.0813345
-0.0309988,0.157021,1.49934,-0.609936,-0.433911,-0.278378,0.129718,-0.343867,-0.216009
-0.0415693,0.144794,1.49301,-0.620789,-0.706793,-0.309927,0.111603,-0.371795,-0.400342
-0.0552657,0.134233,1.4856,-0.434287,-0.706221,-0.368317,0.111152,-0.362355,-0.644649
-0.064355,0.129432,1.47825,-0.0865214,-0.23564,-0.302916,0.129431,-0.283908,-0.837474
-0.0622369,0.130578,1.47421,0.146092,0.388656,-0.0946006,0.162894,-0.198955,-0.835048
-0.0491765,0.134653,1.47486,0.254516,0.906909,0.122539,0.16889,-0.163574,-0.723919
-0.0279791,0.140822,1.47923,0.39646,1.26247,0.282659,0.141895,-0.140923,-0.556139
-0.00183986,0.15046,1.48649,0.573427,1.42856,0.424529,0.124332,-0.0963835,-0.340996
0.0252603,0.163537,1.49678,0.723047,1.43959,0.624576,0.122296,-0.0380725,-0.109131
0.050449,0.179948,1.51145,0.865242,1.31303,0.891187,0.12687,0.0294271,0.0913964
0.0705695,0.199567,1.53137,0.962869,1.05601,1.19017,0.115459,0.0766021,0.252798
0.0827815,0.220715,1.55678,0.937314,0.681046,1.44974,0.100822,0.0845741,0.376819
0.0852823,0.240501,1.58656,0.772156,0.245216,1.58859,0.0767116,0.0719906,0.434669
0.078483,0.255811,1.6181,0.492553,-0.134268,1.57524,0.0398562,0.0393464,0.416247
0.0651001,0.264847,1.64929,0.208574,-0.391155,1.49873,0.0306588,0.0278753,0.321593
0.0484306,0.269133,1.67882,0.0960173,-0.445552,1.36551,0.0183029,0.0230371,0.154827
0.0342726,0.272552,1.70546,0.157715,-0.243689,1.23596,0.0335272,0.0436647,0.0320864
0.025332,0.277723,1.73059,0.299445,0.0397115,1.22884,0.0932254,0.0841028,-0.0128694
0.025332,0.277723,1.73059,0.299445,0.0397115,1.22884,0.0932254,0.0841028,-0.0128694
0.0219715,0.286151,1.75696,0.480599,0.354466,1.34532,0.155178,0.136891,0.0247492
0.0229122,0.297675,1.78651,0.593861,0.551635,1.52125,0.164743,0.169153,0.126852
0.0241085,0.310792,1.81922,0.640974,0.549677,1.63031,0.152983,0.168911,0.237856
0.0234502,0.324245,1.85348,0.614465,0.442716,1.65047,0.12467,0.153219,0.325362
0.0202572,0.336137,1.88745,0.485725,0.336757,1.58983,0.105099,0.140878,0.37771
0.0150234,0.344673,1.91976,0.304026,0.218549,1.47648,0.0839441,0.131361,0.398645
0.00833703,0.349052,1.94954,0.103631,0.146078,1.34157,0.0697109,0.131558,0.383833
0.00234446,0.349079,1.97693,-0.116053,0.195449,1.24666,0.064554,0.153755,0.339572
-0.0028184,0.345013,2.00267,-0.271291,0.166848,1.18755,0.0807009,0.164365,0.269299
-0.0073175,0.338923,2.02727,-0.318605,0.2186,1.13989,0.0875438,0.173109,0.184848
-0.00968569,0.332135,2.05075,-0.344955,0.321217,1.10139,0.0770577,0.187146,0.0984871
-0.0109373,0.324448,2.07377,-0.41343,0.260763,1.08632,0.0731105,0.180785,0.0309458
-0.0151153,0.314933,2.09584,-0.517083,-0.00756156,1.01959,0.067716,0.157043,-0.0526789
-0.0239551,0.302953,2.11615,-0.647575,-0.237234,0.949218,0.0421185,0.144455,-0.176933
-0.0355383,0.288352,2.1349,-0.747965,-0.357324,0.885901,-0.00504453,0.139979,-0.329581
-0.0472982,0.273074,2.15165,-0.695997,-0.327441,0.777541,-0.0642279,0.127374,-0.487044
-0.0549214,0.259227,2.16503,-0.648637,-0.0730393,0.575863,-0.129542,0.0876479,-0.577975
-0.0561577,0.245012,2.17366,-0.745312,0.14683,0.34021,-0.170264,0.0458366,-0.57531
-0.0531934,0.228602,2.17754,-0.868647,0.207845,0.140202,-0.165439,-0.00911678,-0.55547
-0.0493855,0.211273,2.17801,-0.829702,0.20268,0.0120773,-0.161937,-0.0353513,-0.572515
-0.0447826,0.196504,2.17671,-0.641566,0.233294,-0.0652552,-0.203973,-0.0343269,-0.555827
-0.0395003,0.185718,2.17414,-0.460046,0.229309,-0.154765,-0.221962,-0.0709019,-0.46384
-0.0348486,0.177936,2.16926,-0.344833,0.147916,-0.307956,-0.237132,-0.113696,-0.340437
-0.0310542,0.17238,2.16115,-0.233485,0.0981357,-0.473276,-0.250844,-0.125378,-0.239966
-0.027185,0.169527,2.14996,-0.0769662,0.111205,-0.622654,-0.264071,-0.0934451,-0.153387
-0.0220388,0.170284,2.13596,0.119589,0.160999,-0.75951,-0.28596,-0.0382858,-0.0610741
-0.0156326,0.174641,2.11934,0.27747,0.188158,-0.885841,-0.319674,0.034961,0.0574683
-0.00982369,0.181342,2.10033,0.364307,0.0311863,-1.00776,-0.348843,0.0862492,0.156788
-0.0076724,0.189369,2.07803,0.413741,-0.23742,-1.21901,-0.365771,0.0990517,0.212868
-0.0102895,0.197621,2.05062,0.369057,-0.55442,-1.48679,-0.332929,0.119006,0.252549
-0.016462,0.204215,2.01838,0.244725,-0.640858,-1.66522,-0.282251,0.16958,0.247322
-0.020054,0.208386,1.98396,0.116696,-0.403542,-1.70613,-0.243565,0.234988,0.23232
-0.0180315,0.210849,1.94936,0.0816213,-0.128507,-1.68947,-0.195778,0.253022,0.242191
-0.0118816,0.213587,1.91514,0.153356,-0.00716738,-1.67264,-0.149155,0.234321,0.28687
-0.00494368,0.217981,1.88129,0.256416,-0.0276758,-1.64507,-0.106059,0.212825,0.344717
0.00116066,0.223704,1.84833,0.296612,-0.105351,-1.57277,-0.0598934,0.205119,0.414337
0.00343512,0.229226,1.8173,0.25574,-0.394896,-1.45298,-0.0152472,0.201345,0.457785
-0.00136572,0.233786,1.78897,0.214307,-0.71067,-1.31349,0.027482,0.172061,0.429735
-0.0112708,0.237747,1.76291,0.157902,-0.877183,-1.24705,0.0201392,0.146921,0.375969
-0.0239823,0.239886,1.73746,0.00539633,-0.986895,-1.23953,0.0297019,0.117551,0.321229
-0.0370421,0.239127,1.71198,-0.157532,-0.893052,-1.23668,0.0456843,0.0849841,0.230278
-0.0472874,0.235141,1.68636,-0.364636,-0.769509,-1.24779,0.0450533,0.0673305,0.162602
-0.0564707,0.226498,1.66007,-0.640039,-0.781319,-1.26921,0.0676485,0.0102567,0.0805868
-0.0667247,0.212755,1.63331,-0.878158,-0.830554,-1.2509,0.106187,-0.0356423,-0.0381346
-0.0781969,0.196094,1.6071,-0.942909,-0.857994,-1.18732,0.151647,-0.0718688,-0.18917
-0.0902676,0.180687,1.58296,-0.765783,-0.757132,-1.04425,0.206567,-0.101758,-0.334402
-0.0989021,0.170048,1.56254,-0.487538,-0.443698,-0.849337,0.243938,-0.122549,-0.41931
-0.10125,0.16387,1.54715,-0.318552,-0.0707251,-0.60483,0.278022,-0.16482,-0.396745
-0.0991322,0.158405,1.53636,-0.352441,0.090894,-0.41614,0.269957,-0.231203,-0.326221
-0.0947434,0.151537,1.52813,-0.402389,0.202711,-0.344909,0.230404,-0.300458,-0.32966
-0.0892149,0.14474,1.52028,-0.334246,0.249924,-0.380109,0.178848,-0.354819,-0.369021
-0.0806669,0.140275,1.51121,-0.193792,0.508198,-0.475154,0.152404,-0.374375,-0.409664
-0.0660103,0.13817,1.50106,-0.103464,0.81063,-0.492178,0.17068,-0.337901,-0.364226
-0.0464208,0.136763,1.49181,-0.0965142,0.992566,-0.403924,0.215847,-0.29303,-0.281355
-0.0464208,0.136763,1.49181,-0.0965142,0.992566,-0.403924,0.215847,-0.29303,-0.281355
-0.0249523,0.135585,1.48532,-0.0253989,1.06182,-0.225094,0.251924,-0.250297,-0.238322
-0.00326501,0.136749,1.4832,0.152393,1.09727,0.0269131,0.27156,-0.181853,-0.194659
0.0190596,0.141985,1.48687,0.368776,1.20798,0.361467,0.268227,-0.0909437,-0.116566
0.0423762,0.151606,1.49811,0.554078,1.26938,0.792363,0.273491,-0.0220238,0.00627333
0.0630165,0.16527,1.51824,0.700826,1.08663,1.27707,0.297655,0.00629985,0.126674
0.0765763,0.182434,1.54774,0.803354,0.767758,1.74508,0.296319,0.0306668,0.207681
0.0811198,0.202117,1.58573,0.855008,0.425387,2.12909,0.259211,0.0457749,0.252133
0.0770907,0.222203,1.63073,0.779543,0.112797,2.40771,0.213026,0.0496791,0.282484
0.0650886,0.239954,1.68054,0.651762,-0.156803,2.5502,0.174766,0.0236837,0.265816
0.0475816,0.254891,1.73225,0.570391,-0.331662,2.52884,0.153787,-0.0139577,0.210431
0.0269825,0.267623,1.78252,0.530363,-0.403192,2.37804,0.156369,-0.0484418,0.135255
0.00678218,0.278602,1.82985,0.49376,-0.320331,2.22393,0.1831,-0.0361762,0.0710227
-0.00966839,0.288539,1.87535,0.526107,-0.0369989,2.17495,0.234336,0.00586575,0.00243896
-0.0211531,0.299138,1.92095,0.606881,0.181573,2.19722,0.286219,0.0413547,-0.00444645
-0.0304237,0.311036,1.9678,0.695897,0.290197,2.26007,0.32231,0.0680992,0.0254139
-0.0395347,0.323835,2.01642,0.734039,0.292999,2.3204,0.324167,0.0939767,0.0815892
-0.050082,0.336515,2.06615,0.749319,0.282717,2.33379,0.315228,0.100189,0.100992
-0.0603768,0.349277,2.11613,0.782557,0.368183,2.30762,0.300593,0.11764,0.0996363
-0.0695295,0.361944,2.1656,0.773787,0.42723,2.2525,0.288513,0.13841,0.114927
-0.077909,0.374003,2.21412,0.751101,0.474994,2.19206,0.278505,0.151005,0.110803
-0.0856415,0.385566,2.26141,0.755188,0.479225,2.10909,0.267825,0.163727,0.0918149
-0.0941403,0.39666,2.30754,0.717453,0.448313,2.05539,0.295519,0.176913,0.0736223
-0.102808,0.405899,2.35289,0.610024,0.446382,2.02355,0.284458,0.201593,0.0373403
-0.111975,0.413,2.39735,0.541861,0.400411,1.9515,0.25382,0.189125,-0.0377676
-0.122306,0.418789,2.43915,0.474034,0.248449,1.78127,0.224419,0.170082,-0.0995443
-0.132775,0.422959,2.47666,0.370611,0.283805,1.56831,0.193,0.157286,-0.185961
-0.137915,0.424753,2.50859,0.184845,0.537177,1.28965,0.137835,0.152544,-0.246513
-0.134597,0.42282,2.53346,-0.0684281,0.812939,0.994165,0.0986153,0.138651,-0.268874
-0.123734,0.416987,2.55151,-0.2966,0.988485,0.725015,0.0945018,0.113717,-0.258158
-0.108055,0.407801,2.5636,-0.50192,1.04759,0.508102,0.102404,0.0798959,-0.251025
-0.0910746,0.395266,2.572,-0.667616,0.931048,0.414746,0.116086,0.0424024,-0.262632
-0.0777136,0.381066,2.57948,-0.678797,0.705847,0.405871,0.0955955,0.0406264,-0.336389
-0.067464,0.367685,2.58755,-0.587763,0.67212,0.447791,0.0342663,0.0616805,-0.41709
-0.0539555,0.356977,2.59635,-0.44679,1.05795,0.413194,-0.0569992,0.0458851,-0.451369
-0.0291569,0.34807,2.60255,-0.449335,1.63213,0.1902,-0.167847,0.0205119,-0.379962
0.00575956,0.338517,2.60399,-0.496875,1.82511,-0.0338456,-0.190629,-0.0432169,-0.267628
0.0405432,0.329226,2.60197,-0.403818,1.5675,-0.155194,-0.162226,-0.0344923,-0.210918
0.0702785,0.323129,2.59968,-0.186343,1.37201,-0.0523794,-0.134198,0.0540466,-0.196489
0.0960692,0.321664,2.60136,0.0116068,1.26945,0.209649,-0.154936,0.156554,-0.14743
0.117563,0.324056,2.60855,0.142002,1.0893,0.492143,-0.182095,0.209894,-0.0621622
0.131917,0.329147,2.62082,0.207351,0.707601,0.720793,-0.223503,0.234217,0.0253613
0.13569,0.335683,2.63719,0.23571,0.208245,0.898423,-0.249031,0.245995,0.0835018
0.129365,0.343217,2.65658,0.275995,-0.15646,1.01192,-0.272603,0.247666,0.113099
0.117904,0.351864,2.67755,0.34043,-0.236059,1.04672,-0.301662,0.24127,0.134226
0.106936,0.361289,2.69831,0.360482,-0.118314,0.981601,-0.323597,0.223841,0.196227
0.0994025,0.369407,2.71704,0.245813,0.0316807,0.840515,-0.326004,0.192743,0.291708
0.094976,0.373757,2.73287,0.0363507,0.0847221,0.673694,-0.312072,0.159366,0.368981
0.0914153,0.373248,2.74532,-0.196745,0.00312553,0.471708,-0.283489,0.10776,0.411696
0.0876014,0.367937,2.75326,-0.401182,-0.0962535,0.213202,-0.24826,0.059368,0.414692
0.0839609,0.358323,2.75579,-0.575005,-0.167533,-0.044308,-0.209395,0.0425833,0.400351
0.0810255,0.345616,2.75413,-0.670213,-0.181737,-0.203042,-0.158457,0.0524913,0.365026
0.078454,0.331882,2.75001,-0.658825,-0.213287,-0.280304,-0.0840303,0.0547203,0.318453
0.0747868,0.319162,2.74524,-0.569557,-0.335044,-0.255595,-0.000433013,0.0578044,0.281684
0.0747868,0.319162,2.74524,-0.569557,-0.335044,-0.255595,-0.000433013,0.0578044,0.281684
0.0668319,0.308837,2.74194,-0.435397,-0.559401,-0.110204,0.0937565,0.0487323,0.240402
0.0540254,0.301209,2.74187,-0.351002,-0.709746,0.0412068,0.124427,0.0391978,0.212741
0.0393271,0.293916,2.74361,-0.411447,-0.680862,0.0721106,0.0942049,-0.00473088,0.19626
0.02731,0.284037,2.74433,-0.600925,-0.495494,-0.0597023,0.069399,-0.0661868,0.158304
0.0206202,0.269558,2.74112,-0.840582,-0.253826,-0.281422,0.0493854,-0.117606,0.103836
0.0198045,0.25073,2.7337,-1.01321,-0.0342999,-0.460328,0.0642815,-0.147747,0.0371756
0.0228642,0.229744,2.72362,-1.05593,0.0869131,-0.551876,0.099229,-0.153573,-0.0290017
0.0269787,0.208894,2.71289,-0.990293,0.0749908,-0.524336,0.137857,-0.151829,-0.0783696
0.029748,0.190668,2.70432,-0.79381,0.0321315,-0.357205,0.180512,-0.143661,-0.126589
0.031539,0.177232,2.6995,-0.544735,0.0744757,-0.159725,0.189755,-0.145075,-0.151713
0.0342222,0.168274,2.69855,-0.368575,0.181344,0.0328846,0.169973,-0.148529,-0.1287
0.0384839,0.162141,2.70131,-0.261391,0.276632,0.215807,0.135568,-0.15325,-0.0929942
0.0434144,0.158612,2.70736,-0.103517,0.30903,0.359599,0.0993101,-0.169964,-0.086069
0.0483018,0.159055,2.71559,0.111862,0.298317,0.457388,0.0686899,-0.177827,-0.0786698
0.051669,0.163674,2.72581,0.29423,0.201539,0.584392,0.0839624,-0.171727,-0.0578638
0.0527269,0.171914,2.73909,0.462753,0.13453,0.77018,0.0912781,-0.14459,-0.0633818
0.0519903,0.183663,2.75546,0.628801,0.0782585,0.889908,0.045541,-0.129929,-0.0873304
0.0499103,0.198644,2.77303,0.773147,0.0641686,0.901936,0.0198933,-0.14377,-0.107174
0.0488722,0.215831,2.79008,0.854832,0.217497,0.852456,-0.00162252,-0.138868,-0.117614
0.0523694,0.233883,2.80617,0.855266,0.500079,0.812445,0.0239698,-0.138452,-0.084697
0.0608299,0.25033,2.82133,0.682775,0.665184,0.754839,0.0486159,-0.130969,-0.0030387
0.0685739,0.261726,2.83541,0.343201,0.37218,0.664533,0.0448667,-0.15269,0.0621243
0.0664987,0.265038,2.84674,-0.0779532,-0.266622,0.431013,0.0602449,-0.206575,0.0273263
0.0569095,0.261175,2.85301,-0.305268,-0.427481,0.161397,0.0915345,-0.192864,-0.147003
0.051889,0.255885,2.8549,-0.177779,0.0811223,0.0261508,0.12475,-0.083431,-0.326724
0.0629867,0.255876,2.8561,0.160131,1.07025,0.138137,0.161928,0.0507619,-0.322791
0.0900148,0.261638,2.86196,0.315639,1.69196,0.503387,0.233326,0.143734,-0.0769141
0.121542,0.269338,2.87595,0.273499,1.76587,0.916084,0.294887,0.136851,0.184451
0.147748,0.276522,2.89797,0.127725,1.38744,1.28386,0.305143,0.107805,0.348289
0.160447,0.281775,2.9276,-0.0503159,0.659393,1.61125,0.293867,0.0847782,0.40631
0.154771,0.285023,2.96384,-0.162763,-0.215044,1.87082,0.281875,0.059836,0.356921
0.131073,0.286887,3.00461,-0.216987,-0.97465,2.0242,0.251566,0.068551,0.222722
0.095175,0.286435,3.04773,-0.29231,-1.3211,2.08168,0.218319,0.0802641,0.0324457
0.0575013,0.283839,3.09096,-0.261935,-1.16349,2.03091,0.185019,0.0813734,-0.188938
0.028265,0.282078,3.13243,-0.0651842,-0.546835,1.96017,0.177583,0.0960707,-0.349551
0.0131658,0.283872,-3.10987,0.160177,0.163018,2.00738,0.195217,0.148742,-0.382558
0.00918605,0.289519,-3.06643,0.350521,0.592444,2.19,0.236268,0.189315,-0.295001
0.00845332,0.298563,-3.01915,0.502056,0.6663,2.34515,0.222573,0.194492,-0.165063
0.00653721,0.310085,-2.96949,0.592487,0.615892,2.39425,0.155823,0.186609,-0.0557236
0.00303545,0.32227,-2.92015,0.583934,0.574564,2.29775,0.0836382,0.160532,0.0192389
-0.000287644,0.332922,-2.87428,0.456924,0.562484,2.038,0.0260134,0.123116,0.0676653
-0.00249577,0.340183,-2.83473,0.270743,0.52049,1.70211,0.010974,0.0834769,0.0713069
-0.00425011,0.343605,-2.80188,0.0845416,0.393813,1.4153,0.0288888,0.078674,0.0552312
-0.0067341,0.343714,-2.77396,-0.0549336,0.322174,1.23837,0.0473253,0.0982623,-0.0103549
-0.00894966,0.341334,-2.7487,-0.16891,0.297891,1.15859,0.0578565,0.115445,-0.0787095
-0.0116608,0.33679,-2.7252,-0.248698,0.212057,1.06548,0.0405923,0.0963588,-0.144394
-0.0153538,0.331628,-2.7043,-0.244351,0.0827196,0.905853,-0.0112554,0.0683349,-0.228167
-0.0213489,0.326655,-2.68763,-0.234311,-0.139901,0.681728,-0.0571436,0.0401765,-0.306879
-0.0288927,0.322172,-2.67608,-0.186484,-0.215225,0.422242,-0.0776544,0.0142595,-0.385785
-0.0338855,0.319268,-2.66993,-0.0811158,-0.0457716,0.197988,-0.10211,0.0362536,-0.432565
-0.0324805,0.318836,-2.66679,0.0439679,0.299762,0.121977,-0.0957182,0.0625157,-0.408963
-0.0242985,0.320469,-2.66469,0.111345,0.54709,0.0618257,-0.122571,0.061289,-0.301864
-0.0129158,0.322724,-2.66486,0.103957,0.566087,-0.0984152,-0.171955,0.0173308,-0.158378
-0.000839544,0.324068,-2.66955,0.0208931,0.48334,-0.356092,-0.206129,-0.0225326,-0.0486801
-0.000839544,0.324068,-2.66955,0.0208931,0.48334,-0.356092,-0.206129,-0.0225326,-0.0486801
0.0107013,0.323215,-2.68003,-0.101356,0.327919,-0.643178,-0.223205,-0.0405835,0.0178366
0.0202527,0.320051,-2.69597,-0.181517,0.128913,-0.85542,-0.20657,-0.019827,0.0304761
0.0273871,0.316115,-2.71486,-0.154538,0.00540676,-0.935561,-0.188121,0.0215853,-0.00194776
0.0323352,0.31317,-2.73456,-0.086771,-0.129241,-0.943791,-0.174434,0.0636457,-0.0130791
0.0346273,0.311537,-2.75394,-0.0138783,-0.231421,-0.911986,-0.166636,0.100559,-0.0258495
0.0349167,0.31148,-2.77281,0.0669918,-0.317877,-0.894751,-0.186947,0.143351,-0.0343252
0.0333581,0.312636,-2.79162,0.108308,-0.40849,-0.895584,-0.208722,0.173062,-0.026817
0.0308142,0.314792,-2.81011,0.173721,-0.407085,-0.850108,-0.211653,0.202136,-0.0201411
0.0282683,0.318983,-2.82709,0.307105,-0.355788,-0.752607,-0.200499,0.226244,0.00898999
0.0271966,0.326173,-2.84193,0.447421,-0.228431,-0.639169,-0.201647,0.243317,0.0793258
0.0273822,0.335619,-2.85468,0.516674,-0.185089,-0.550391,-0.198932,0.236946,0.189473
0.0273803,0.345406,-2.86645,0.482725,-0.215485,-0.551204,-0.195773,0.213503,0.29198
0.0269385,0.353717,-2.87924,0.378851,-0.26873,-0.637902,-0.206481,0.199887,0.360206
0.0265462,0.359774,-2.89399,0.256212,-0.2838,-0.727575,-0.20032,0.208584,0.393227
0.0262672,0.363194,-2.91014,0.123281,-0.31966,-0.77243,-0.162429,0.219398,0.414638
0.0255837,0.364195,-2.92698,0.0221271,-0.33295,-0.803406,-0.132454,0.222728,0.404503
0.0253624,0.363449,-2.94442,-0.0521244,-0.318375,-0.833735,-0.105353,0.21512,0.375477
0.024895,0.361108,-2.96247,-0.146895,-0.384486,-0.863573,-0.0772726,0.204858,0.355077
0.0229192,0.356144,-2.98103,-0.316154,-0.452845,-0.885738,-0.0433449,0.177703,0.327871
0.0203549,0.347431,-2.99959,-0.524998,-0.444546,-0.882769,-0.00953963,0.139343,0.276649
0.0185878,0.334664,-3.01838,-0.715431,-0.350544,-0.924072,-0.00173222,0.0871649,0.19129
0.0189151,0.318562,-3.03813,-0.863953,-0.261736,-0.980365,0.0256167,0.0279233,0.111855
0.0202673,0.299339,-3.05852,-1.03807,-0.234655,-0.999443,0.0576006,-0.00602993,0.0499399
0.0210031,0.27589,-3.07862,-1.27231,-0.270854,-0.974978,0.084056,-0.0369223,-0.0267224
0.0190238,0.248531,-3.09797,-1.41398,-0.476968,-0.964296,0.0830328,-0.0741334,-0.155657
0.0103704,0.220072,-3.11762,-1.37939,-0.851558,-0.999506,0.0891993,-0.118919,-0.340409
-0.00443806,0.194373,-3.1379,-1.15906,-0.978754,-0.982822,0.130789,-0.14892,-0.552395
-0.0169481,0.174862,3.12633,-0.811796,-0.550992,-0.840354,0.142177,-0.111016,-0.709696
-0.0181489,0.162039,3.11176,-0.522051,0.215694,-0.565178,0.134838,-0.0736849,-0.716219
-0.0056562,0.153026,3.10275,-0.435547,0.812936,-0.342057,0.126516,-0.0919244,-0.576277
0.0129246,0.143559,3.09657,-0.530682,0.891857,-0.286406,0.131587,-0.156601,-0.392724
0.0286968,0.131654,3.09106,-0.640413,0.584956,-0.284677,0.160993,-0.199109,-0.297514
0.0384342,0.119281,3.08635,-0.539776,0.3897,-0.194354,0.212962,-0.182684,-0.308895
0.0479587,0.111752,3.08546,-0.186897,0.617748,0.0991114,0.249493,-0.0911474,-0.320826
0.0640781,0.112347,3.09175,0.199952,1.07361,0.543286,0.28372,-0.0266826,-0.216016
0.0871518,0.120204,3.10709,0.433448,1.35986,1.04268,0.298596,-0.0159034,-0.0269139
0.11021,0.131834,3.13159,0.45671,1.18345,1.47402,0.293723,-0.0484939,0.149905
0.124227,0.143912,-3.1206,0.372973,0.591618,1.69183,0.261238,-0.115877,0.24615
0.122435,0.154626,-3.08697,0.29927,-0.289239,1.73454,0.222162,-0.155041,0.243597
0.104046,0.165338,-3.05313,0.407088,-0.926897,1.70617,0.160146,-0.131557,0.122325
0.0779643,0.177823,-3.02053,0.541163,-1.04902,1.61697,0.0935546,-0.0735091,-0.00967973
0.0540664,0.191869,-2.98965,0.6557,-0.743319,1.50852,0.0795199,-0.0480601,-0.0997562
0.0377641,0.207327,-2.96066,0.766878,-0.292952,1.41624,0.0747172,-0.00373487,-0.129428
0.0308684,0.224805,-2.93292,0.895301,0.174482,1.3693,0.0866276,0.0327156,-0.0940015
0.0310398,0.244659,-2.90576,1.00697,0.431059,1.34012,0.0878093,0.0690231,0.0235093
0.0331266,0.266277,-2.87915,1.07072,0.439028,1.30868,0.094893,0.0854534,0.144724
0.0345093,0.288765,-2.85346,1.09023,0.402959,1.23726,0.0829234,0.0962619,0.22861
0.035342,0.310831,-2.82956,1.02489,0.380619,1.12174,0.0733685,0.106708,0.29113
0.0353381,0.330561,-2.80819,0.875776,0.281725,0.980016,0.088515,0.109104,0.331897
0.0341805,0.347272,-2.78945,0.744581,0.243497,0.850702,0.0930035,0.130953,0.321561
0.033512,0.361285,-2.7731,0.595365,0.256254,0.736418,0.104827,0.147605,0.30206
0.0337306,0.371924,-2.75889,0.42131,0.275811,0.632003,0.14537,0.131566,0.284997
0.0353359,0.379206,-2.74658,0.269881,0.33954,0.540764,0.179477,0.121999,0.246799
0.0385953,0.383325,-2.73587,0.0971393,0.378389,0.48428,0.208493,0.122236,0.221123
0.0385953,0.383325,-2.73587,0.0971393,0.378389,0.48428,0.208493,0.122236,0.221123
0.0415618,0.383665,-2.72534,-0.0979347,0.298406,0.497345,0.242706,0.122171,0.185958
0.0422601,0.381017,-2.71437,-0.192966,0.193176,0.503963,0.233442,0.123849,0.103193
0.041577,0.376947,-2.70328,-0.258905,0.157866,0.515874,0.218403,0.133068,0.025028
0.0417118,0.371882,-2.69158,-0.285862,0.331588,0.5563,0.197738,0.145596,-0.0658997
0.0470155,0.366941,-2.67887,-0.260256,0.658812,0.613227,0.153076,0.1638,-0.118872
0.0571343,0.362568,-2.66487,-0.258745,0.803563,0.674062,0.119262,0.161195,-0.0917287
0.0666252,0.357469,-2.64972,-0.361371,0.645817,0.712034,0.0971328,0.131368,-0.019944
0.071177,0.349536,-2.6337,-0.537857,0.370495,0.733206,0.0664994,0.103631,-0.00744253
0.0704472,0.338167,-2.61727,-0.706743,0.0979724,0.727822,0.0228921,0.0815147,-0.0570378
0.0642257,0.323807,-2.60113,-0.826519,-0.169759,0.693139,0.000219654,0.058199,-0.137237
0.0554011,0.306909,-2.58639,-0.959956,-0.227793,0.596433,-0.0385336,0.0416,-0.227558
0.0486102,0.286362,-2.57455,-1.17267,-0.0887319,0.429653,-0.0789761,0.0143217,-0.297257
0.0457651,0.261116,-2.56583,-1.38935,0.0244843,0.302486,-0.068536,-0.0175677,-0.344907
0.044531,0.232603,-2.55894,-1.47585,-0.015965,0.251207,-0.0419898,-0.041202,-0.39229
0.0413085,0.204114,-2.55251,-1.38299,-0.178694,0.262586,-0.0255011,-0.0647415,-0.447696
0.0351323,0.179151,-2.54584,-1.11798,-0.284993,0.29661,-0.0303972,-0.0763677,-0.499415
0.0298624,0.160754,-2.53907,-0.745065,-0.082442,0.308163,-0.0592734,-0.0724207,-0.520428
0.0309503,0.149485,-2.53238,-0.41752,0.3094,0.332066,-0.0828158,-0.0412105,-0.445433
0.0396698,0.144393,-2.52465,-0.115339,0.657577,0.421058,-0.103288,0.000184387,-0.30867
0.0529848,0.145505,-2.51515,0.187823,0.766486,0.525872,-0.15468,0.0444217,-0.14811
0.0654262,0.152786,-2.50407,0.46786,0.60487,0.608166,-0.199536,0.0641341,0.00141877
0.0721288,0.165079,-2.49266,0.671803,0.225597,0.584508,-0.260509,0.0665822,0.112915
0.0708365,0.18034,-2.48362,0.763927,-0.19095,0.387844,-0.333378,0.0546693,0.181969
0.0636191,0.195392,-2.48002,0.696476,-0.427284,0.0533517,-0.396061,0.0548688,0.21382
0.0557442,0.207442,-2.48369,0.521637,-0.386665,-0.352062,-0.437593,0.0755556,0.221792
0.0526618,0.215392,-2.49579,0.335281,-0.165665,-0.786638,-0.444961,0.107194,0.221876
0.0559944,0.219406,-2.51578,0.183418,0.0657603,-1.12216,-0.375363,0.124403,0.234339
0.0643496,0.220683,-2.54074,0.100978,0.200567,-1.28734,-0.297182,0.160974,0.260716
0.0739404,0.220545,-2.56758,0.0755687,0.144303,-1.31643,-0.225541,0.187573,0.293791
0.0810451,0.220208,-2.59412,0.100352,-0.0111064,-1.2731,-0.161216,0.181353,0.305245
0.0854925,0.220498,-2.6199,0.135034,-0.111837,-1.23772,-0.141671,0.16595,0.297359
0.0877583,0.221359,-2.64489,0.158931,-0.207264,-1.19072,-0.126721,0.152356,0.292601
0.087858,0.222573,-2.66883,0.16094,-0.314068,-1.13639,-0.099466,0.137092,0.299665
0.0856118,0.223234,-2.69187,0.0882337,-0.420949,-1.11305,-0.086956,0.113291,0.316082
0.0811207,0.221664,-2.71474,-0.0622728,-0.533113,-1.13898,-0.0833674,0.0791057,0.31104
0.0749338,0.217097,-2.73825,-0.212181,-0.607638,-1.1961,-0.0766464,0.0530724,0.268358
0.0667195,0.209663,-2.76294,-0.357734,-0.74226,-1.26756,-0.0492341,0.0347294,0.209964
0.0564928,0.199506,-2.78886,-0.49916,-0.792543,-1.33155,-0.0154257,0.0167427,0.128931
0.0463472,0.187087,-2.81565,-0.604221,-0.718915,-1.35972,0.0254923,0.0116656,0.0384868
0.038871,0.173178,-2.84236,-0.671372,-0.504712,-1.31746,0.0760084,0.00890782,-0.0463265
0.0347667,0.158789,-2.867,-0.664196,-0.326133,-1.15762,0.144831,0.000606492,-0.104471
0.0325958,0.146189,-2.88753,-0.512666,-0.22483,-0.915293,0.193862,-0.0210331,-0.143364
0.0304384,0.137738,-2.90335,-0.282737,-0.224668,-0.689446,0.2004,-0.0593981,-0.153652
0.0273037,0.133374,-2.91519,-0.14014,-0.239636,-0.510344,0.191616,-0.107972,-0.13715
0.0239363,0.130716,-2.92406,-0.114965,-0.207042,-0.386597,0.174909,-0.143917,-0.126064
0.0211202,0.128223,-2.93104,-0.119157,-0.171477,-0.321752,0.146245,-0.168607,-0.150383
0.0186819,0.126068,-2.93717,-0.0774172,-0.150795,-0.295119,0.117255,-0.179533,-0.20748
0.0168106,0.125261,-2.94273,0.00958822,-0.0989574,-0.256694,0.107589,-0.173574,-0.276011
0.0163086,0.126192,-2.94732,0.0822005,-0.00518284,-0.202179,0.0857352,-0.149091,-0.325192
0.017834,0.128334,-2.95099,0.140115,0.127245,-0.162489,0.0674576,-0.152643,-0.358723
0.0227436,0.131602,-2.95418,0.190872,0.314523,-0.150495,0.0360335,-0.155062,-0.371498
0.0301966,0.135771,-2.95728,0.229976,0.352004,-0.148683,0.0255058,-0.158103,-0.349941
0.0360258,0.140328,-2.9603,0.234107,0.180112,-0.1378,0.0312154,-0.154168,-0.32813
0.0392744,0.14492,-2.96299,0.243702,0.146012,-0.108909,0.0285911,-0.129818,-0.354019
0.0392744,0.14492,-2.96299,0.243702,0.146012,-0.108909,0.0285911,-0.129818,-0.354019
0.0445557,0.150254,-2.96501,0.302677,0.396158,-0.0664648,0.0278298,-0.0900416,-0.356471
0.0570354,0.157158,-2.96591,0.395001,0.849337,0.0226838,0.0347778,-0.0451325,-0.290618
0.0769449,0.165808,-2.96484,0.460855,1.09646,0.153989,0.0507874,-0.0143328,-0.128007
0.0973041,0.176045,-2.96068,0.527204,0.974809,0.355669,0.092446,0.00368917,0.0296153
0.11285,0.188355,-2.95233,0.620119,0.739701,0.594826,0.110664,0.0260032,0.124839
0.122761,0.202949,-2.93942,0.667935,0.491682,0.831396,0.110208,0.0415546,0.195952
0.126207,0.218207,-2.92258,0.629478,0.215162,0.984738,0.0979831,0.0235018,0.239472
0.122975,0.23198,-2.90347,0.486699,-0.118975,1.02064,0.0698754,-0.006072,0.255368
0.112999,0.241825,-2.88448,0.276982,-0.410895,0.923273,0.0457958,-0.047787,0.218296
0.0993943,0.247659,-2.86749,0.150423,-0.50272,0.777819,0.0353277,-0.0591709,0.113325
0.0865422,0.251931,-2.85304,0.178302,-0.395997,0.672845,0.0682718,-0.0601432,0.0016433
0.0777876,0.25857,-2.84008,0.408084,-0.161222,0.652544,0.115823,-0.0382927,-0.0724064
0.0726285,0.270893,-2.82656,0.733981,-0.0223068,0.7618,0.164365,0.00503445,-0.0599583
0.0680798,0.289619,-2.81059,1.01158,-0.0107077,0.90542,0.163932,0.0376469,0.0258044
0.0617682,0.312614,-2.79207,1.14227,-0.0708474,1.00162,0.155893,0.0362454,0.121136
0.0538124,0.336474,-2.77264,1.12082,-0.0898023,0.957055,0.113658,0.0239017,0.191856
0.0464768,0.358622,-2.75514,1.00514,-0.0446275,0.792658,0.0725235,0.0174577,0.223807
0.0409648,0.377825,-2.74105,0.862248,-0.00727641,0.612595,0.0618497,0.0302764,0.235895
0.036969,0.394214,-2.73017,0.743061,0.0115915,0.477068,0.0774619,0.0620765,0.229446
0.0339835,0.408452,-2.72122,0.658678,0.0507902,0.411578,0.0998148,0.101367,0.211564
0.0328001,0.421174,-2.7132,0.576794,0.144067,0.370731,0.10528,0.127704,0.201013
0.0334754,0.431841,-2.70587,0.463106,0.229894,0.340646,0.113997,0.131389,0.185032
0.0360671,0.440078,-2.69886,0.336728,0.313095,0.332418,0.114578,0.131104,0.160844
0.0394852,0.445749,-2.6915,0.215583,0.339816,0.36157,0.126049,0.129635,0.11681
0.0426456,0.449382,-2.68307,0.11541,0.341632,0.416839,0.122794,0.118613,0.057047
0.0452122,0.450931,-2.67357,0.000802379,0.332275,0.438616,0.0994883,0.0929541,-0.0111868
0.0476414,0.450221,-2.66405,-0.110608,0.334514,0.416705,0.0637202,0.0667109,-0.079873
0.0503638,0.447417,-2.65503,-0.211985,0.319096,0.392794,0.0272753,0.059744,-0.138134
0.0527552,0.442618,-2.64629,-0.313435,0.313235,0.369576,-0.0150564,0.0606919,-0.188886
0.0554692,0.435315,-2.63815,-0.465055,0.287156,0.323533,-0.0483628,0.0519602,-0.207481
0.056892,0.424768,-2.63105,-0.619333,0.138959,0.265772,-0.0691117,0.0223087,-0.222649
0.0550624,0.411692,-2.62469,-0.708167,-0.0732272,0.259939,-0.0702878,0.00456139,-0.258879
0.0488814,0.397813,-2.61772,-0.705162,-0.26403,0.321307,-0.0943932,0.00106609,-0.299177
0.0399064,0.384757,-2.60949,-0.63146,-0.289908,0.36996,-0.156074,0.00651342,-0.32487
0.0323993,0.373044,-2.60174,-0.578446,-0.178346,0.288218,-0.2359,0.00074333,-0.316413
0.0279977,0.361466,-2.59737,-0.608246,-0.113657,0.0694062,-0.24936,-0.0493233,-0.286606
0.026195,0.348552,-2.59804,-0.686806,-0.0972074,-0.155083,-0.229344,-0.0523382,-0.242583
0.0258509,0.33437,-2.60242,-0.702968,-0.0738672,-0.277335,-0.198687,-0.0222594,-0.239551
0.0270279,0.321458,-2.60823,-0.546027,0.00462203,-0.288623,-0.182073,0.0263994,-0.261944
0.0287901,0.31359,-2.61322,-0.197526,-0.00724825,-0.194331,-0.160698,0.069737,-0.265486
0.0282351,0.314284,-2.61578,0.282136,-0.143487,-0.0428,-0.166527,0.11625,-0.221084
0.0234589,0.324327,-2.61589,0.692835,-0.342137,0.034802,-0.214205,0.150885,-0.107846
0.0148397,0.339879,-2.61634,0.812625,-0.523671,-0.0807458,-0.270384,0.154952,0.0263245
0.00534574,0.354519,-2.62097,0.619858,-0.553827,-0.35428,-0.30407,0.152986,0.138697
-0.00079008,0.363658,-2.63161,0.301652,-0.422886,-0.633553,-0.294779,0.174299,0.215257
-0.00187482,0.367245,-2.64745,0.0811422,-0.260701,-0.826707,-0.246282,0.201651,0.261062
0.000346368,0.368036,-2.66587,0.0219023,-0.218287,-0.878498,-0.189685,0.224927,0.307959
0.00151489,0.368939,-2.6844,0.0850683,-0.365637,-0.850942,-0.149927,0.223221,0.349976
-0.00233497,0.371639,-2.70234,0.17966,-0.68687,-0.835715,-0.13291,0.205306,0.387007
-0.0121288,0.376003,-2.72064,0.240035,-0.928413,-0.887047,-0.121394,0.182727,0.391924
-0.0235473,0.381021,-2.74043,0.221224,-0.915181,-0.968211,-0.0918061,0.174298,0.370731
-0.0315222,0.385302,-2.76178,0.143467,-0.65594,-1.02714,-0.0555867,0.173401,0.348191
-0.0334298,0.387256,-2.78403,-0.0323661,-0.400595,-1.04269,-0.0331232,0.171015,0.366288
-0.0322529,0.384758,-2.80669,-0.290668,-0.381446,-1.05759,0.00459062,0.134292,0.387741
-0.0322529,0.384758,-2.80669,-0.290668,-0.381446,-1.05759,0.00459062,0.134292,0.387741
-0.0329521,0.377392,-2.8299,-0.501315,-0.57246,-1.08218,0.0502047,0.0730721,0.350297
-0.0382757,0.36684,-2.85376,-0.613554,-0.83011,-1.10582,0.07933,0.022913,0.236828
-0.0477773,0.355251,-2.87756,-0.632685,-0.935851,-1.06272,0.127571,-0.0173631,0.0771907
-0.0578408,0.343679,-2.89986,-0.646275,-0.800381,-0.97635,0.152466,-0.043967,-0.0591834
-0.0645762,0.331416,-2.92038,-0.70497,-0.551163,-0.884944,0.147491,-0.0647694,-0.143043
-0.0670775,0.317922,-2.93924,-0.756543,-0.320189,-0.813187,0.141656,-0.10005,-0.215747
-0.0674102,0.303991,-2.95631,-0.726352,-0.26387,-0.707832,0.167695,-0.124223,-0.283293
-0.0684061,0.291575,-2.97045,-0.596588,-0.251168,-0.557183,0.171928,-0.127532,-0.348479
-0.0699885,0.282304,-2.98112,-0.396069,-0.194195,-0.400428,0.159387,-0.139171,-0.408878
-0.0706065,0.276985,-2.98824,-0.191353,-0.0575386,-0.254168,0.126956,-0.138683,-0.428543
-0.068533,0.274858,-2.99281,-0.0655808,0.150218,-0.184469,0.0723939,-0.138456,-0.407471
-0.062142,0.27437,-2.99677,-0.0229972,0.393655,-0.205702,0.0386762,-0.146112,-0.356385
-0.050675,0.273777,-3.00172,-0.0791467,0.601758,-0.273233,0.0368802,-0.141724,-0.262127
-0.0363131,0.271215,-3.00808,-0.205118,0.635326,-0.317192,0.0810291,-0.128383,-0.170475
-0.0228873,0.266176,-3.01464,-0.308007,0.517622,-0.2898,0.125397,-0.0998099,-0.124794
-0.0127306,0.259929,-3.01957,-0.309924,0.394818,-0.172458,0.180653,-0.0835187,-0.128824
-0.0040441,0.254764,-3.02153,-0.202224,0.458748,-0.00455938,0.189766,-0.0415164,-0.143659
0.00609727,0.252185,-3.01915,-0.0503729,0.627131,0.251672,0.22078,-0.00292051,-0.119463
0.0181548,0.253442,-3.01099,0.179415,0.773373,0.538239,0.2374,0.0167289,-0.050949
0.0304144,0.259494,-2.99762,0.37738,0.761494,0.762964,0.220334,0.0109857,0.0580225
0.0387971,0.268158,-2.98055,0.406153,0.504559,0.912204,0.216169,-0.0090307,0.168384
0.0408549,0.276298,-2.96097,0.324511,0.252688,0.995403,0.21832,-0.0302127,0.208873
0.0393568,0.282583,-2.94001,0.228479,0.215478,1.04801,0.211878,-0.0235466,0.185272
0.0386255,0.287413,-2.91762,0.177999,0.361072,1.13251,0.203599,0.00213054,0.144484
0.0399302,0.291597,-2.89334,0.153316,0.434024,1.21369,0.207981,0.00575915,0.149314
0.0408025,0.295308,-2.86811,0.106337,0.352365,1.21176,0.178458,-0.00907511,0.174514
0.0382641,0.297575,-2.84321,0.0407725,0.109821,1.18402,0.160448,-0.0221198,0.176069
0.0311633,0.299814,-2.8188,0.12764,-0.0786806,1.16509,0.165376,-0.0141973,0.112108
0.0229122,0.304527,-2.79485,0.273248,-0.00348532,1.14703,0.156946,0.0225441,0.0529969
0.0181515,0.31133,-2.77077,0.342772,0.270021,1.1782,0.142344,0.053029,0.0463136
0.0185393,0.318478,-2.74584,0.314624,0.496882,1.20921,0.126223,0.0729331,0.0907851
0.0209849,0.324662,-2.72061,0.253082,0.510574,1.19805,0.111247,0.0689276,0.147913
0.0219602,0.329823,-2.69578,0.224319,0.380787,1.16889,0.0960922,0.0655134,0.164957
0.0209903,0.335112,-2.67152,0.26078,0.334969,1.14375,0.0876617,0.0669883,0.140516
0.0194546,0.340625,-2.64784,0.228846,0.274173,1.10935,0.0748345,0.0686952,0.132065
0.0156482,0.344405,-2.62478,0.104011,0.119733,1.0753,0.0944022,0.0451259,0.10707
0.00954068,0.345407,-2.60243,-0.0268016,0.0417806,1.03895,0.102321,0.0300623,0.0250319
0.00303377,0.34389,-2.58082,-0.133579,0.039503,0.99557,0.0994236,0.00872198,-0.0715851
-0.00332647,0.340313,-2.56054,-0.21606,-0.00824474,0.920798,0.0800553,-0.00603139,-0.15553
-0.0106771,0.335639,-2.54192,-0.233422,-0.11714,0.840608,0.0565899,0.000316799,-0.23487
-0.0196642,0.330491,-2.52536,-0.268298,-0.248747,0.738745,0.0246109,0.00881839,-0.300195
-0.0304106,0.324496,-2.51093,-0.295062,-0.35095,0.65159,0.0112105,-0.00625691,-0.371749
-0.0413581,0.318378,-2.49822,-0.265397,-0.326885,0.589595,0.0107803,-0.00933045,-0.439663
-0.0502278,0.313476,-2.48592,-0.158737,-0.168313,0.618344,-0.0141144,0.00493094,-0.48139
-0.0552004,0.311445,-2.47222,0.0320625,0.130396,0.69644,-0.0503413,0.0157089,-0.478971
-0.053557,0.312986,-2.45775,0.170994,0.451957,0.642281,-0.120471,0.00768471,-0.366291
-0.0460657,0.315672,-2.44605,0.122028,0.635478,0.44115,-0.151355,-0.0317385,-0.191763
-0.0356545,0.315952,-2.43941,-0.082497,0.577723,0.196187,-0.139732,-0.0410392,-0.0557794
-0.027546,0.312485,-2.43714,-0.22729,0.289764,0.0553029,-0.0674345,-0.0325724,-0.026541
-0.0238475,0.308918,-2.43599,-0.0807397,0.167496,0.096333,-0.0133553,0.025815,-0.114686
-0.0206649,0.310409,-2.43201,0.250448,0.299318,0.290359,-0.0055163,0.103345,-0.172582
-0.0156705,0.31857,-2.42354,0.560791,0.433632,0.492689,-0.0200459,0.134696,-0.132662
-0.0110685,0.331527,-2.41176,0.728222,0.373131,0.590454,-0.0684681,0.136339,-0.04087
-0.0100407,0.346103,-2.39925,0.724221,0.135027,0.557672,-0.131805,0.147951,0.0397297
-0.0100407,0.346103,-2.39925,0.724221,0.135027,0.557672,-0.131805,0.147951,0.0397297
-0.0124957,0.359695,-2.38848,0.648114,0.0399764,0.436048,-0.171501,0.138122,0.0600003
-0.0135848,0.371992,-2.38037,0.607358,0.164645,0.312203,-0.212152,0.16259,0.0615088
-0.0104875,0.383875,-2.37459,0.589357,0.343515,0.220549,-0.22105,0.195485,0.116714
-0.00423454,0.395262,-2.37032,0.549806,0.433261,0.164653,-0.193251,0.195246,0.217291
0.00344933,0.40553,-2.3677,0.473847,0.428502,0.0705851,-0.185909,0.185827,0.320774
0.0112132,0.414057,-2.36747,0.382951,0.342264,-0.0468495,-0.177914,0.167295,0.390826
0.0177701,0.420867,-2.37011,0.300022,0.213014,-0.198411,-0.15692,0.141661,0.418084
0.0245499,0.425403,-2.37657,0.162034,0.23621,-0.380742,-0.140615,0.11769,0.396865
0.0337715,0.427813,-2.38572,0.199712,0.270569,-0.415007,-0.0785125,0.144572,0.398462
0.0375837,0.435663,-2.39586,0.430492,-0.421308,-0.427409,0.0271991,0.155944,0.405203
0.0315413,0.440462,-2.40415,0.0508803,-0.443312,-0.309289,0.067818,0.100781,0.412604
0.0265004,0.437591,-2.41032,-0.300473,-0.291431,-0.27614,0.0154739,0.102424,0.324143
0.0259397,0.428923,-2.4158,-0.538581,-0.00532228,-0.239467,0.0364561,0.0841652,0.241689
0.0285902,0.417364,-2.42036,-0.572713,0.0207541,-0.201379,0.072531,0.0755489,0.212066
0.0269743,0.405965,-2.42319,-0.577823,-0.332487,-0.0824268,0.132692,0.0496605,0.193213
