attitude_roll,attitude_pitch,attitude_yaw,rotationRate_x,rotationRate_y,rotationRate_z,acceleration_x,acceleration_y,acceleration_z
-0.0200785,0.344253,0.0034907,-0.148039,-0.277503,0.542405,0.1298,0.0653989,-0.156091
-0.0272807,0.339735,0.0167475,-0.270126,0.0499402,0.715228,0.131843,0.033539,-0.125714
-0.028668,0.332853,0.0335032,-0.372326,0.311693,0.896956,0.191977,0.017491,-0.16201
-0.028153,0.323555,0.055028,-0.507157,0.419832,1.18006,0.23134,-0.0316702,-0.25069
-0.0295005,0.311222,0.082135,-0.640721,0.240966,1.40562,0.240405,-0.0537018,-0.348625
-0.0368924,0.296742,0.111819,-0.696867,-0.0765618,1.44871,0.251443,0.00416744,-0.383361
-0.0487979,0.28221,0.140681,-0.61392,-0.255384,1.36346,0.23853,0.0594544,-0.30863
-0.0610246,0.270591,0.167127,-0.390861,-0.222012,1.2371,0.212714,0.0937625,-0.167072
-0.0701689,0.264057,0.190981,-0.104512,-0.0549615,1.1027,0.207742,0.127637,-0.0287967
-0.0753818,0.263209,0.212328,0.160236,0.0815936,0.965225,0.20054,0.148227,0.0801733
-0.0774852,0.266557,0.231674,0.290299,0.22383,0.884892,0.216749,0.155563,0.17381
-0.0758626,0.270754,0.250425,0.241816,0.451914,0.898693,0.223191,0.133699,0.247221
-0.0693674,0.27251,0.270084,0.0545755,0.712601,0.982586,0.20831,0.107635,0.276075
-0.0599524,0.269774,0.291431,-0.194445,0.758329,1.08865,0.205561,0.0949742,0.22832
-0.0521299,0.262137,0.314625,-0.43368,0.620665,1.18584,0.174014,0.0718434,0.149524
-0.0477132,0.250803,0.339286,-0.562324,0.440853,1.25019,0.130111,0.0504585,0.0871941
-0.0468102,0.238252,0.364849,-0.559106,0.290234,1.28324,0.0902559,0.0366029,0.045486
-0.0470403,0.226704,0.390782,-0.464619,0.291844,1.29124,0.05409,0.0240227,0.0307382
-0.0470991,0.217732,0.416316,-0.311978,0.236131,1.23074,0.0293991,0.016873,0.00640458
-0.0491715,0.211963,0.44038,-0.161208,0.0537881,1.14828,0.0289325,0.0134803,-0.00158924
-0.0545504,0.208429,0.463157,-0.0962641,-0.0886931,1.09838,0.035048,-0.0115977,0.0336187
-0.0607157,0.205052,0.485076,-0.129065,-0.062156,1.06081,0.028966,-0.0526991,0.10275
-0.0656052,0.200436,0.506067,-0.20316,0.000985462,1.02301,0.0235352,-0.0969239,0.122113
-0.0689704,0.194227,0.526337,-0.283052,0.0430228,1.00284,0.0337759,-0.129532,0.103773
-0.071513,0.186606,0.545967,-0.328463,0.0643556,0.977936,0.0370391,-0.155341,0.0434977
-0.0745826,0.179271,0.565125,-0.249847,-0.0455425,0.949258,0.0504922,-0.169024,-0.0439384
-0.0804422,0.174569,0.58352,-0.0695301,-0.215787,0.881953,0.0550864,-0.158287,-0.115795
-0.088622,0.173925,0.600113,0.142952,-0.282759,0.745487,0.0218937,-0.149735,-0.137864
-0.0960694,0.177629,0.613887,0.347257,-0.222289,0.568541,0.00548426,-0.137833,-0.141092
-0.101951,0.185181,0.624747,0.497956,-0.181279,0.429996,0.0238936,-0.136951,-0.164504
-0.107711,0.195015,0.633737,0.559652,-0.244008,0.361086,0.0688288,-0.148275,-0.190214
-0.11603,0.205436,0.642501,0.56508,-0.424563,0.391577,0.110223,-0.168198,-0.207878
-0.127446,0.215304,0.652209,0.52374,-0.454641,0.423608,0.1099,-0.167917,-0.196264
-0.135492,0.224079,0.661955,0.474742,-0.106479,0.392715,0.0903341,-0.149877,-0.150331
-0.135534,0.232117,0.670973,0.435017,0.290315,0.392889,0.102916,-0.132403,-0.158424
-0.129937,0.239016,0.681555,0.392514,0.453366,0.550098,0.132541,-0.14399,-0.238264
-0.126354,0.24551,0.695496,0.436897,0.171318,0.702701,0.152391,-0.124778,-0.329117
-0.132467,0.253063,0.711926,0.513985,-0.392348,0.762331,0.148046,-0.0561478,-0.331271
-0.148908,0.2616,0.728892,0.548799,-0.736627,0.73043,0.134979,0.0228932,-0.193028
-0.166767,0.270132,0.744551,0.531423,-0.595236,0.620036,0.113559,0.0649697,0.00639558
-0.179859,0.278727,0.758111,0.544872,-0.351671,0.522366,0.10407,0.0804146,0.119619
-0.186867,0.288131,0.769968,0.587786,6.45733e-05,0.428953,0.0874097,0.0946618,0.179283
-0.186511,0.298659,0.780215,0.620119,0.314246,0.34298,0.072548,0.107471,0.186914
-0.180403,0.309301,0.789016,0.560593,0.542901,0.29875,0.0859357,0.121226,0.157883
-0.170739,0.317635,0.797376,0.379064,0.664457,0.356545,0.103107,0.11092,0.103644
-0.160131,0.321045,0.80721,0.100888,0.70928,0.524918,0.132151,0.0875153,0.0265185
-0.149006,0.318268,0.820551,-0.169592,0.829874,0.772923,0.149545,0.0701086,-0.0551302
-0.138206,0.310842,0.838226,-0.291901,0.752753,0.980687,0.142944,0.0851721,-0.188472
-0.132092,0.302826,0.858867,-0.218007,0.460972,1.05104,0.140653,0.134629,-0.304474
-0.133374,0.297925,0.879718,0.0156526,0.0142359,0.970671,0.124038,0.199833,-0.305411
-0.142245,0.29858,0.898917,0.29224,-0.281002,0.837999,0.122005,0.255589,-0.194569
-0.152904,0.30413,0.916465,0.480429,-0.210455,0.75013,0.127131,0.254878,-0.00535768
-0.152904,0.30413,0.916465,0.480429,-0.210455,0.75013,0.127131,0.254878,-0.00535768
-0.159635,0.312172,0.933462,0.547476,0.0741914,0.74063,0.143783,0.210554,0.146661
-0.160568,0.320253,0.951319,0.500809,0.373395,0.817049,0.155412,0.181994,0.241634
-0.157402,0.325835,0.970991,0.327435,0.545414,0.935251,0.152137,0.164948,0.277011
-0.152144,0.326688,0.992204,0.0582017,0.658629,1.02904,0.143695,0.153016,0.273358
-0.144516,0.322254,1.01373,-0.172638,0.781193,1.04799,0.109424,0.152734,0.247856
-0.134505,0.314819,1.03472,-0.272156,0.883738,1.02744,0.0691293,0.151273,0.192798
-0.121652,0.306743,1.05482,-0.272245,1.01764,0.966541,0.0238759,0.146011,0.132876
-0.105636,0.299871,1.07358,-0.200459,1.13343,0.893565,-0.00592469,0.128939,0.0493685
-0.0882673,0.295027,1.09163,-0.12336,1.11605,0.885841,-0.00334816,0.100321,-0.0409796
-0.0723151,0.291401,1.11069,-0.106988,1.01915,0.971459,-0.00327307,0.0567345,-0.113845
-0.0595521,0.287593,1.1318,-0.144139,0.844814,1.06917,-0.0160475,0.0193319,-0.166946
-0.05103,0.282946,1.15464,-0.192162,0.667861,1.13648,-0.0346842,0.00648031,-0.1956
-0.0447386,0.278044,1.17817,-0.170662,0.626105,1.13265,-0.0626305,0.00819403,-0.181107
-0.0383643,0.274875,1.20089,-0.0431881,0.626143,1.06051,-0.0970266,0.017444,-0.165797
-0.0329522,0.274551,1.2222,0.0646954,0.453569,1.00302,-0.104289,0.0113034,-0.167553
-0.032208,0.274981,1.24316,0.0130831,0.209742,1.0188,-0.0946787,-0.013689,-0.167295
-0.0334903,0.272922,1.26476,-0.158523,0.315167,1.06908,-0.0646638,-0.0387879,-0.106644
-0.0288026,0.267633,1.288,-0.293462,0.812815,1.21001,-0.0341619,-0.0638127,-0.0479939
-0.0149478,0.260147,1.31586,-0.381388,1.24169,1.50864,0.0142765,-0.0798591,-0.0921054
0.00161022,0.252748,1.34941,-0.308217,1.16425,1.71117,0.0492528,-0.054469,-0.247211
0.0110201,0.248667,1.38527,-0.120413,0.602104,1.72941,0.0552676,0.043125,-0.33375
0.00681033,0.248575,1.41952,0.0668619,-0.192779,1.56939,0.046164,0.121267,-0.295361
-0.0102221,0.251112,1.44967,0.174547,-0.654573,1.36396,0.0718368,0.15676,-0.114849
-0.028854,0.254754,1.47652,0.235542,-0.443257,1.24187,0.0714065,0.120309,0.123023
-0.0382693,0.258846,1.50188,0.24133,0.188561,1.21418,0.0573101,0.0668326,0.275732
-0.0340437,0.261451,1.52805,0.0757192,0.870879,1.32113,0.054136,0.0246721,0.308489
-0.0198016,0.258936,1.55644,-0.262485,1.22183,1.41656,0.0768643,0.0303591,0.223233
-0.00343647,0.250163,1.58655,-0.560348,1.12183,1.50619,0.127231,0.0667145,0.0479375
0.00882103,0.237582,1.61783,-0.663914,0.806724,1.49795,0.138751,0.0866255,-0.109595
0.0110701,0.225452,1.64765,-0.56069,0.0600652,1.38877,0.108198,0.0884758,-0.233374
0.000229546,0.216424,1.67494,-0.36001,-0.46029,1.26899,0.08286,0.119753,-0.169981
-0.014969,0.210728,1.69957,-0.201711,-0.464991,1.13417,0.047337,0.100377,0.0312819
-0.0256603,0.207024,1.72112,-0.136585,-0.138857,0.990383,0.0120634,0.0582548,0.19883
-0.029474,0.203858,1.74026,-0.1366,0.134717,0.903653,-0.00223788,0.0211437,0.281053
-0.0281057,0.200123,1.75806,-0.19893,0.329769,0.849287,-0.0234231,-0.0109878,0.301371
-0.0243673,0.194572,1.77459,-0.327247,0.372219,0.785314,-0.0390373,-0.03552,0.261921
-0.0185245,0.185927,1.78958,-0.503877,0.512835,0.696359,-0.0556483,-0.0559417,0.219139
-0.00855046,0.174452,1.8023,-0.607724,0.71422,0.569836,-0.0659354,-0.0746612,0.135894
0.00524154,0.162443,1.81305,-0.574638,0.82554,0.506186,-0.0524137,-0.102186,-0.0198465
0.0194163,0.151741,1.82321,-0.520934,0.731934,0.488807,-0.060238,-0.135447,-0.181461
0.0307485,0.141454,1.83335,-0.535093,0.527197,0.486619,-0.0626326,-0.150171,-0.30318
0.0372484,0.13101,1.84348,-0.537735,0.263179,0.474632,-0.0486393,-0.168025,-0.417262
0.0387254,0.120854,1.85319,-0.505777,0.00217753,0.447443,-0.0482141,-0.180313,-0.498975
0.0350462,0.111953,1.86187,-0.406554,-0.266214,0.369829,-0.0694723,-0.180029,-0.557148
0.0269701,0.105495,1.86804,-0.246731,-0.451975,0.204766,-0.0985636,-0.160554,-0.569291
0.016679,0.102793,1.86966,-0.0213708,-0.538713,-0.0570763,-0.118031,-0.124744,-0.527618
0.00676501,0.104529,1.86568,0.189609,-0.466848,-0.325688,-0.119246,-0.0967112,-0.436908
3.89886e-05,0.109671,1.85694,0.318777,-0.296562,-0.528917,-0.113442,-0.102707,-0.34634
-0.00359964,0.117231,1.84506,0.44378,-0.237949,-0.644565,-0.0809892,-0.103237,-0.295963
-0.00801757,0.12781,1.83139,0.610345,-0.402594,-0.713032,-0.0484901,-0.067408,-0.253092
-0.0176668,0.141604,1.81661,0.741703,-0.768006,-0.759257,-0.0364965,-0.0137459,-0.166459
-0.0325249,0.157472,1.80125,0.790953,-0.861796,-0.802291,-0.0519744,0.0287852,-0.0216234
-0.0325249,0.157472,1.80125,0.790953,-0.861796,-0.802291,-0.0519744,0.0287852,-0.0216234
-0.0434717,0.173838,1.78463,0.775124,-0.446362,-0.910335,-0.0811899,0.0688383,0.140858
-0.0428646,0.189921,1.76554,0.75522,0.148024,-1.02724,-0.128054,0.0777887,0.207909
-0.0325567,0.205746,1.74507,0.748824,0.397329,-1.01294,-0.119899,0.0872165,0.136929
-0.0223009,0.220989,1.72614,0.714052,0.178376,-0.862721,-0.0593588,0.0980241,0.00638348
-0.01856,0.234608,1.71074,0.608575,-0.147432,-0.665444,-0.0453039,0.101388,-0.026448
-0.0218002,0.245884,1.69882,0.503681,-0.450227,-0.531944,-0.0728513,0.104132,0.0108755
-0.0302766,0.255712,1.68829,0.463664,-0.643613,-0.530313,-0.103738,0.141408,0.0985098
-0.0413946,0.26536,1.67687,0.46487,-0.747841,-0.610955,-0.114805,0.176777,0.201537
-0.0533929,0.275408,1.66375,0.480694,-0.809914,-0.695289,-0.114507,0.187193,0.293554
-0.0661299,0.286069,1.64924,0.491035,-0.86111,-0.755502,-0.094227,0.189013,0.370121
-0.0784028,0.296314,1.63391,0.40325,-0.786457,-0.776988,-0.0648155,0.19016,0.450658
-0.0877501,0.303697,1.61809,0.194666,-0.606679,-0.789472,-0.0557772,0.174965,0.49355
-0.0922425,0.306662,1.60169,-0.0322091,-0.314954,-0.795477,-0.0482634,0.164107,0.4756
-0.0903319,0.306268,1.58467,-0.123828,-0.0195613,-0.826715,-0.0481134,0.168095,0.392159
-0.082707,0.30572,1.56665,-0.0638633,0.230297,-0.875089,-0.0792837,0.161759,0.271721
-0.0713796,0.306435,1.54807,-0.00970155,0.300228,-0.897968,-0.0906795,0.143565,0.126494
-0.0605381,0.306964,1.52902,-0.0809187,0.201701,-0.912924,-0.0864157,0.134731,-0.0220626
-0.0514144,0.304742,1.50981,-0.243183,0.140391,-0.903223,-0.0699794,0.125502,-0.144413
-0.0435846,0.299535,1.49101,-0.351499,0.0788033,-0.856598,-0.0369062,0.0974134,-0.245659
-0.0379835,0.292898,1.47398,-0.366406,-0.0231908,-0.733648,-0.0119522,0.0667735,-0.339162
-0.0356212,0.286496,1.45978,-0.311384,-0.128335,-0.606576,0.00231705,0.0323033,-0.415682
-0.0352508,0.281726,1.44766,-0.200391,-0.179459,-0.550994,0.0248057,0.0306237,-0.445919
-0.0360448,0.279407,1.43621,-0.075394,-0.194791,-0.543751,0.053179,0.0474533,-0.466453
-0.0357123,0.278995,1.42508,-0.0172747,-0.0722328,-0.507887,0.0652537,0.0304861,-0.438145
-0.033774,0.278644,1.41555,-0.0597719,-0.00921268,-0.394429,0.0959723,-0.00561774,-0.434169
-0.0326354,0.276823,1.4093,-0.148272,-0.0638799,-0.184481,0.145508,-0.0404353,-0.435312
-0.0345476,0.272714,1.40842,-0.262469,-0.153445,0.120721,0.204041,-0.0596634,-0.393656
-0.039895,0.266302,1.41393,-0.355845,-0.213267,0.429112,0.227031,-0.0601991,-0.310263
-0.0467127,0.258187,1.42518,-0.393121,-0.170915,0.671645,0.198423,-0.0530518,-0.200994
-0.0535605,0.249971,1.4399,-0.341404,-0.159497,0.766739,0.168097,-0.0153345,-0.115218
-0.0614403,0.243794,1.455,-0.172197,-0.27288,0.709156,0.171402,0.0553666,-0.0518183
-0.071277,0.241813,1.4684,0.0540975,-0.360118,0.598023,0.190605,0.110862,0.041835
-0.0796646,0.243573,1.47996,0.190939,-0.153279,0.522932,0.214484,0.12371,0.173398
-0.0821165,0.247297,1.49113,0.257892,0.184457,0.539879,0.226639,0.0948665,0.256014
-0.0774232,0.251366,1.50311,0.220849,0.577352,0.582697,0.213724,0.0819485,0.300267
-0.0663384,0.25347,1.51551,0.0653012,0.794364,0.596936,0.201119,0.0974596,0.287727
-0.0538783,0.252243,1.52819,-0.105172,0.748451,0.647541,0.212793,0.106953,0.21344
-0.0428867,0.248646,1.54237,-0.1705,0.677369,0.755945,0.219213,0.0874307,0.167177
-0.035107,0.244073,1.55971,-0.231144,0.542802,0.949959,0.18741,0.035114,0.127463
-0.0300966,0.238051,1.58096,-0.30162,0.445835,1.11959,0.14373,0.0118252,0.131638
-0.0283734,0.231295,1.60472,-0.29646,0.284264,1.19327,0.0988728,0.0141806,0.124727
-0.0292433,0.225397,1.62881,-0.225159,0.182071,1.15658,0.0515404,0.0431649,0.168426
-0.0308181,0.221029,1.6516,-0.141783,0.186318,1.07358,0.0143624,0.0520277,0.242116
-0.0313217,0.218463,1.67272,-0.0527567,0.222022,0.998214,-0.0078646,0.0429162,0.308959
-0.0308874,0.217415,1.69275,-0.00348393,0.256145,0.963689,-0.0109974,0.0361558,0.366099
-0.0295374,0.216297,1.71236,-0.0680926,0.306209,0.955849,-0.0147341,0.0236816,0.411881
-0.0263895,0.213035,1.73176,-0.209475,0.424367,0.944067,-0.0323308,0.0121931,0.427234
-0.0199607,0.207013,1.75061,-0.340609,0.634943,0.909021,-0.0572642,-0.00102092,0.380935
-0.00915718,0.199179,1.76856,-0.406499,0.758039,0.862283,-0.0675162,-0.0196338,0.248285
0.0024075,0.190846,1.78542,-0.407621,0.708567,0.78961,-0.069243,-0.0445942,0.0559533
0.0117877,0.183319,1.80069,-0.356589,0.492291,0.71545,-0.0615776,-0.0679046,-0.107614
0.0117877,0.183319,1.80069,-0.356589,0.492291,0.71545,-0.0615776,-0.0679046,-0.107614
0.0177223,0.176512,1.81529,-0.368162,0.391564,0.720106,-0.0662589,-0.110948,-0.182791
0.0233046,0.168385,1.83081,-0.488448,0.45945,0.794951,-0.0698174,-0.154492,-0.212745
0.0307457,0.157871,1.84778,-0.586523,0.518173,0.834535,-0.105905,-0.188564,-0.274057
0.0375459,0.146822,1.8645,-0.55489,0.41016,0.758027,-0.141061,-0.171393,-0.386288
0.0425637,0.137617,1.8785,-0.405018,0.27634,0.574926,-0.154606,-0.125817,-0.459418
0.0445963,0.132317,1.88797,-0.156045,0.0430708,0.34335,-0.171572,-0.116756,-0.504798
0.0416113,0.132044,1.89302,0.0856998,-0.285713,0.16058,-0.164116,-0.11071,-0.488308
0.0327541,0.134787,1.89451,0.143027,-0.542181,-0.00359549,-0.155437,-0.108556,-0.392017
0.0221555,0.136412,1.89291,0.00308716,-0.46839,-0.145064,-0.143866,-0.125852,-0.267223
0.0161579,0.134417,1.88901,-0.201579,-0.167506,-0.222114,-0.132482,-0.156026,-0.181849
0.0165311,0.128591,1.88511,-0.347274,0.106402,-0.161869,-0.116751,-0.190809,-0.187667
0.018268,0.121973,1.88244,-0.273738,-0.0316735,-0.132517,-0.10297,-0.170046,-0.276409
0.0139871,0.118456,1.87873,-0.0678663,-0.462914,-0.265481,-0.115085,-0.0798956,-0.29339
0.00163535,0.118932,1.87077,0.116454,-0.825807,-0.543733,-0.154761,0.000518337,-0.186234
-0.014117,0.1228,1.85622,0.250391,-0.852523,-0.908272,-0.195218,0.0386901,-0.00392145
-0.0249477,0.129236,1.83458,0.343002,-0.481002,-1.24065,-0.217603,0.0457926,0.153721
-0.0253921,0.137426,1.80659,0.404319,0.114447,-1.54661,-0.233578,0.0312509,0.229037
-0.0119782,0.147219,1.77319,0.526409,0.685499,-1.75594,-0.204903,0.037862,0.210975
0.00889879,0.159246,1.73698,0.652956,0.779667,-1.79826,-0.152951,0.0430339,0.0741306
0.0282543,0.171786,1.70104,0.640916,0.52728,-1.70909,-0.126467,0.0324387,-0.0423645
0.0409412,0.182438,1.66757,0.536043,0.1464,-1.53977,-0.098951,0.0279702,-0.0984744
0.0459196,0.191408,1.63775,0.510942,-0.189857,-1.35943,-0.117941,0.0132242,-0.0983991
0.0451474,0.201323,1.61054,0.616085,-0.403968,-1.27923,-0.161286,0.0384213,-0.028474
0.0411415,0.21379,1.5836,0.732856,-0.531718,-1.31383,-0.188295,0.0962902,0.093045
0.0365925,0.22798,1.55536,0.775642,-0.522976,-1.38792,-0.198983,0.140485,0.23983
0.0337134,0.242272,1.52563,0.740564,-0.445448,-1.44206,-0.205879,0.152751,0.370436
0.0335761,0.254922,1.49569,0.598598,-0.30698,-1.41124,-0.193892,0.155231,0.467549
0.0359274,0.26325,1.46698,0.306492,-0.19555,-1.31836,-0.197661,0.129635,0.508444
0.0394021,0.265178,1.44076,-0.00899149,-0.154837,-1.21007,-0.190816,0.118343,0.464373
0.0428113,0.262312,1.4165,-0.1429,-0.119394,-1.15518,-0.197737,0.120917,0.34682
0.0472483,0.259308,1.39262,-0.0261039,-0.0527142,-1.1657,-0.222181,0.135089,0.22678
0.0528473,0.259345,1.36843,0.132536,-0.0230171,-1.16696,-0.233505,0.141183,0.100752
0.0580191,0.261076,1.3443,0.144872,-0.0927253,-1.14575,-0.219535,0.137713,-0.00165349
0.060826,0.261497,1.32107,0.0217874,-0.248427,-1.08165,-0.194266,0.0986449,-0.0971836
0.0591037,0.25891,1.29981,-0.167365,-0.460051,-0.97866,-0.155779,0.0722048,-0.181213
0.0531684,0.252231,1.28137,-0.39854,-0.599434,-0.833284,-0.0999542,0.0485911,-0.247686
0.0428078,0.241864,1.2666,-0.551516,-0.815531,-0.633194,-0.0210718,0.0316724,-0.373883
0.027264,0.229572,1.25676,-0.635765,-0.92553,-0.365694,0.0564319,0.0179206,-0.472582
0.0108304,0.216297,1.25174,-0.667757,-0.813378,-0.170242,0.114285,0.0320732,-0.492078
-0.00366138,0.203437,1.24937,-0.597196,-0.704614,-0.0837228,0.161545,0.0658981,-0.513976
-0.0171175,0.193072,1.2477,-0.4348,-0.684429,-0.0766593,0.177596,0.0916093,-0.525591
-0.03077,0.18587,1.24588,-0.306183,-0.7205,-0.0816112,0.207039,0.0917689,-0.482365
-0.044934,0.18058,1.2442,-0.230179,-0.722818,-0.0510434,0.266234,0.0860947,-0.394634
-0.0588901,0.176643,1.24414,-0.169786,-0.656403,0.0788314,0.332461,0.0715998,-0.288462
-0.0701293,0.172966,1.24756,-0.194544,-0.379513,0.290087,0.356807,0.0399181,-0.168039
-0.075078,0.167267,1.25551,-0.325904,0.0177916,0.538888,0.35489,-0.0136265,-0.0745803
-0.0741387,0.158363,1.26837,-0.447287,0.225269,0.784127,0.346704,-0.0593697,-0.0686163
-0.0733029,0.148517,1.28527,-0.381619,0.0819294,0.932022,0.351713,-0.0286942,-0.145805
-0.0764459,0.141588,1.30438,-0.157008,-0.0951303,1.00192,0.36145,0.0315273,-0.142857
-0.0814888,0.139597,1.32435,0.11639,-0.110497,0.970345,0.360224,0.0584706,-0.0625592
-0.0850382,0.142895,1.34365,0.363609,0.0541764,0.91012,0.34939,0.0882256,0.0478766
-0.0837402,0.150798,1.36258,0.574113,0.375984,0.899985,0.33663,0.0941821,0.152164
-0.0837402,0.150798,1.36258,0.574113,0.375984,0.899985,0.33663,0.0941821,0.152164
-0.0748924,0.162634,1.38209,0.758771,0.778043,0.93224,0.32617,0.0941993,0.237075
-0.0611796,0.177747,1.4027,0.858453,0.916392,0.993725,0.30647,0.104272,0.25198
-0.0464345,0.193444,1.42454,0.79517,0.926451,1.07573,0.276463,0.128687,0.282658
-0.0343684,0.206169,1.44825,0.540995,0.733902,1.20029,0.24564,0.13121,0.302127
-0.0278949,0.212498,1.47475,0.1604,0.461324,1.3756,0.225872,0.127254,0.316711
-0.026429,0.211221,1.50454,-0.19049,0.36557,1.53055,0.195761,0.12039,0.343264
-0.0249418,0.204873,1.53663,-0.321032,0.457436,1.61404,0.148136,0.118177,0.355308
-0.021635,0.198312,1.56971,-0.238984,0.535988,1.63567,0.110199,0.132226,0.321175
-0.0165533,0.193925,1.60286,-0.143368,0.599059,1.6195,0.0642618,0.143686,0.295086
-0.0108663,0.190998,1.63518,-0.115682,0.593171,1.5489,0.0167263,0.145283,0.270805
-0.00509066,0.188407,1.66586,-0.121221,0.550402,1.46603,-0.0296826,0.134606,0.242881
0.000154006,0.185998,1.69468,-0.114301,0.513452,1.36707,-0.0629412,0.118399,0.195795
0.0046575,0.183336,1.72186,-0.180314,0.438889,1.30776,-0.0568102,0.0781546,0.137268
0.00801327,0.178146,1.74811,-0.367101,0.366064,1.26932,-0.0916571,-0.00960773,0.0546073
0.010302,0.168756,1.77373,-0.577232,0.301822,1.25896,-0.0898063,-0.110089,-0.0434784
0.0113344,0.156761,1.8004,-0.62427,0.248992,1.38687,-0.00632755,-0.188302,-0.169598
0.0111985,0.145245,1.83124,-0.563517,0.193969,1.66578,0.034635,-0.24377,-0.283876
0.00828692,0.134345,1.86822,-0.582961,0.00153286,1.99546,0.0139131,-0.288391,-0.369808
-0.000427201,0.121522,1.91186,-0.728295,-0.323575,2.31126,-0.0441163,-0.320793,-0.442021
-0.0148587,0.104825,1.95956,-0.896304,-0.542688,2.38843,-0.122308,-0.280255,-0.452498
-0.0304095,0.0855363,2.00485,-0.888584,-0.566837,2.11299,-0.205195,-0.20331,-0.436627
-0.0444923,0.0687891,2.04174,-0.611434,-0.554576,1.6057,-0.287918,-0.147375,-0.457835
-0.0575051,0.0595447,2.06788,-0.163256,-0.608167,1.04133,-0.294054,-0.092346,-0.476445
-0.0717502,0.0599928,2.08348,0.2867,-0.700717,0.52874,-0.270451,-0.0689037,-0.436252
-0.0856059,0.06815,2.09068,0.547636,-0.617728,0.136469,-0.232705,-0.066943,-0.306008
-0.0957711,0.0803684,2.09112,0.660875,-0.38607,-0.192576,-0.20603,-0.0620827,-0.184767
-0.100946,0.0948783,2.08595,0.726188,-0.175316,-0.452577,-0.172247,-0.0340177,-0.122313
-0.101135,0.110602,2.07644,0.739472,0.0624994,-0.634566,-0.0993006,0.0224099,-0.0939676
-0.096551,0.12697,2.06424,0.780578,0.232208,-0.710514,-0.0433214,0.0470545,-0.108846
-0.088896,0.144515,2.05177,0.84659,0.370405,-0.666451,0.0101406,0.0742188,-0.120456
-0.079373,0.162778,2.04102,0.875332,0.371453,-0.540181,0.0429175,0.0987362,-0.0972432
-0.0727574,0.180854,2.03288,0.860895,0.115211,-0.390172,0.0529377,0.12712,-0.0692967
-0.0729688,0.198036,2.02777,0.812995,-0.236026,-0.240141,0.0604929,0.171719,0.0115831
-0.0802528,0.213822,2.02488,0.732338,-0.524937,-0.173327,0.0599848,0.212014,0.140601
-0.0910843,0.227724,2.02277,0.639678,-0.56554,-0.159547,0.0547509,0.232764,0.293051
-0.100646,0.240322,2.02079,0.607664,-0.421559,-0.147587,0.0469451,0.221032,0.404319
-0.10706,0.252711,2.01965,0.615292,-0.262115,-0.0845704,0.0488045,0.19464,0.451617
-0.111396,0.264594,2.01981,0.552289,-0.176186,-0.0429754,0.034589,0.193235,0.472217
-0.114613,0.273902,2.01991,0.353738,-0.142091,-0.0642341,0.00818553,0.207868,0.483002
-0.116968,0.27896,2.01855,0.14083,-0.135902,-0.124252,-0.00994121,0.208309,0.4758
-0.118504,0.280633,2.01573,0.0129563,-0.0751782,-0.159783,-0.00592045,0.198198,0.455576
-0.118416,0.280761,2.01247,-0.0318862,-0.0186305,-0.144402,0.00206351,0.168429,0.425521
-0.117523,0.279942,2.00991,-0.0854617,0.0461938,-0.084233,0.00413752,0.12742,0.385106
-0.115693,0.277725,2.00843,-0.151988,0.0643565,-0.035327,-0.00722834,0.0924208,0.321906
-0.11486,0.273831,2.0078,-0.255479,-0.000626474,0.0215407,-0.00300442,0.0672514,0.236504
-0.11605,0.266874,2.00829,-0.456976,-0.107863,0.105535,-0.0118295,0.0240479,0.184262
-0.118716,0.254581,2.01025,-0.741131,-0.102119,0.230132,-0.0199016,-0.0287238,0.134862
-0.121333,0.237368,2.01422,-0.886733,-0.0350335,0.347023,-0.0153845,-0.0711445,0.0166945
-0.121505,0.219805,2.01905,-0.764997,0.0954367,0.301589,-0.0512049,-0.0777984,-0.110616
-0.12199,0.20634,2.02189,-0.548138,-0.14646,0.125393,-0.087131,-0.0586554,-0.26274
-0.128713,0.196229,2.02134,-0.494113,-0.533887,-0.0405713,-0.0778556,-0.0602919,-0.357902
-0.128713,0.196229,2.02134,-0.494113,-0.533887,-0.0405713,-0.0778556,-0.0602919,-0.357902
-0.140554,0.185842,2.01821,-0.583178,-0.63801,-0.114295,-0.0552982,-0.129588,-0.351175
-0.149171,0.174062,2.01368,-0.628936,-0.230525,-0.161303,-0.0428969,-0.200107,-0.279085
-0.145495,0.162867,2.00851,-0.538078,0.512082,-0.164449,-0.0440701,-0.233635,-0.242135
-0.12998,0.153543,2.00462,-0.459093,0.894107,-0.0702186,-0.0173874,-0.263289,-0.323446
-0.112181,0.143665,2.00389,-0.556067,0.822583,0.130003,0.0539078,-0.271654,-0.479231
-0.0987609,0.130405,2.00779,-0.713097,0.550773,0.388243,0.0795443,-0.285339,-0.584367
-0.0922181,0.115297,2.01598,-0.66774,0.199845,0.543042,0.0966641,-0.250696,-0.627468
-0.0929359,0.103659,2.02651,-0.365753,-0.117319,0.593662,0.131626,-0.14732,-0.579484
-0.0970487,0.0992215,2.03798,0.0360943,-0.132944,0.568595,0.153518,-0.0618604,-0.39104
-0.0977827,0.102356,2.04903,0.361275,0.217035,0.497461,0.14248,-0.0332441,-0.177481
-0.0903367,0.110413,2.05954,0.510061,0.611896,0.479379,0.157414,0.00221725,-0.0281779
-0.0780586,0.119636,2.07068,0.485249,0.67789,0.562944,0.229003,0.052533,-0.009866
-0.0681199,0.127252,2.08421,0.367689,0.466462,0.738312,0.299679,0.09958,-0.0418802
-0.0634015,0.13244,2.10198,0.273861,0.261612,0.992462,0.340484,0.13454,-0.0488959
-0.0613937,0.136214,2.12447,0.263338,0.278183,1.1886,0.335506,0.181569,-0.0416468
-0.0584609,0.140991,2.1498,0.38446,0.368865,1.27648,0.287691,0.21456,-0.0521873
-0.0545077,0.149272,2.17635,0.597591,0.390315,1.29335,0.260906,0.257392,-0.0487982
-0.0517646,0.161639,2.20301,0.760344,0.290472,1.26891,0.229183,0.283738,-0.0124497
-0.0512869,0.176084,2.22948,0.790802,0.219173,1.26026,0.197292,0.272633,0.0789459
-0.0514885,0.189822,2.25599,0.697303,0.251422,1.2708,0.171162,0.24656,0.19407
-0.0507663,0.201288,2.28267,0.585029,0.33798,1.28385,0.143089,0.210674,0.28473
-0.0483893,0.210866,2.30962,0.50616,0.458827,1.30502,0.126065,0.183306,0.350317
-0.0440637,0.219288,2.33735,0.462571,0.546203,1.36777,0.123454,0.167745,0.390968
-0.0400669,0.226701,2.36667,0.384309,0.483046,1.46258,0.109191,0.144549,0.403334
-0.0381396,0.231399,2.39814,0.180617,0.440306,1.58005,0.0892839,0.132492,0.428327
-0.0372784,0.230963,2.4316,-0.103249,0.414834,1.66647,0.0593362,0.13074,0.441139
-0.0368564,0.225543,2.46627,-0.288643,0.403427,1.72742,0.0204425,0.116595,0.40347
-0.03685,0.217863,2.50198,-0.342763,0.392103,1.78099,-0.0202883,0.101977,0.337561
-0.0374339,0.209164,2.53867,-0.398891,0.292768,1.82965,-0.05711,0.0844118,0.267269
-0.0406271,0.198992,2.57544,-0.473183,0.159892,1.79123,-0.0912433,0.0720248,0.176784
-0.0438515,0.187939,2.61031,-0.47297,0.212846,1.66842,-0.119853,0.0605226,0.131181
-0.0448242,0.177809,2.64245,-0.399152,0.256603,1.53799,-0.135371,0.0246824,0.0744926
-0.0457461,0.168741,2.67217,-0.397132,0.157418,1.43628,-0.111108,-0.00477269,0.0168091
-0.0486983,0.158724,2.70027,-0.471799,0.00132809,1.3909,-0.0653056,-0.0399095,-0.010216
-0.0541308,0.147417,2.72759,-0.507202,-0.117721,1.36505,-0.0418804,-0.103421,-0.0344356
-0.0605689,0.136036,2.75435,-0.46782,-0.137541,1.34186,-0.0167943,-0.146671,-0.0474781
-0.0667211,0.125922,2.78073,-0.370144,-0.139297,1.33553,0.0073669,-0.17774,-0.0678033
-0.0727481,0.117507,2.80707,-0.301967,-0.137365,1.32999,0.0123683,-0.195782,-0.0786908
-0.0780994,0.109277,2.83291,-0.343467,-0.0890124,1.27471,-0.0222531,-0.208415,-0.0699994
-0.0813506,0.0997946,2.8565,-0.409307,-0.00262678,1.13166,-0.0746762,-0.228557,-0.0881
-0.0826922,0.0900344,2.87698,-0.386648,0.0554833,0.982979,-0.113949,-0.261924,-0.163963
-0.0827864,0.0812944,2.89482,-0.34024,0.0687293,0.857997,-0.128885,-0.28525,-0.238177
-0.0826418,0.0737804,2.91005,-0.276223,0.0484255,0.709237,-0.138731,-0.283876,-0.319814
-0.0837247,0.0681038,2.92232,-0.190722,-0.0713637,0.564136,-0.133562,-0.273135,-0.403701
-0.0871591,0.0638553,2.93217,-0.160276,-0.200575,0.446131,-0.135007,-0.266694,-0.447706
-0.0920474,0.0595356,2.93939,-0.210448,-0.205008,0.304427,-0.14114,-0.260476,-0.448655
-0.0949872,0.0546486,2.94348,-0.219766,-0.0795145,0.154057,-0.130654,-0.243001,-0.453504
-0.0967963,0.0509085,2.94521,-0.124368,-0.124058,0.0619094,-0.138465,-0.239549,-0.532353
-0.101425,0.0499344,2.94532,0.0441784,-0.375454,-0.0647736,-0.1412,-0.181791,-0.572648
-0.110046,0.0537215,2.94202,0.315533,-0.436157,-0.322262,-0.124541,-0.0782471,-0.498801
-0.117142,0.0646912,2.93378,0.689109,-0.324152,-0.615809,-0.119057,-0.00484245,-0.320424
-0.121673,0.0835908,2.92152,1.01802,-0.22334,-0.807625,-0.0902324,0.0353062,-0.161234
-0.121673,0.0835908,2.92152,1.01802,-0.22334,-0.807625,-0.0902324,0.0353062,-0.161234
-0.123459,0.107104,2.90715,1.08236,-0.061773,-0.878624,-0.0482598,0.0671195,-0.0168837
-0.119836,0.128786,2.89239,0.87439,0.250784,-0.831354,-0.0128494,0.0677155,0.067965
-0.11069,0.145972,2.87849,0.694317,0.451703,-0.733317,0.00804764,0.0764998,0.024341
-0.0993547,0.160361,2.86646,0.628514,0.462227,-0.596281,0.0116455,0.117087,-0.0772841
-0.0904799,0.17373,2.85698,0.615323,0.238236,-0.462062,0.00118203,0.149267,-0.151391
-0.0877285,0.186834,2.84977,0.632695,-0.0923684,-0.369755,-0.0215443,0.177922,-0.152148
-0.0917408,0.200571,2.8435,0.68928,-0.410821,-0.385901,-0.0428538,0.217692,-0.072462
-0.100577,0.215979,2.83599,0.780009,-0.603648,-0.496989,-0.0579313,0.262049,0.0638871
-0.11097,0.233456,2.82624,0.851996,-0.628392,-0.637947,-0.056507,0.278704,0.225464
-0.120076,0.252507,2.81394,0.889801,-0.554986,-0.756748,-0.036629,0.28946,0.36804
-0.125659,0.271686,2.79989,0.830521,-0.371171,-0.816417,-0.015896,0.283035,0.482214
-0.127762,0.288813,2.78501,0.663863,-0.257539,-0.801458,-0.00367078,0.275888,0.51684
-0.128224,0.301069,2.77062,0.354701,-0.227766,-0.702956,0.0144855,0.259538,0.516531
-0.128981,0.306274,2.75782,0.0319099,-0.213946,-0.587026,0.0275301,0.238992,0.451464
-0.127785,0.307448,2.7461,-0.00965872,0.00753275,-0.542459,0.0270861,0.246185,0.374141
-0.122144,0.310178,2.73546,0.168497,0.200988,-0.498883,-0.00312954,0.244513,0.266397
-0.114835,0.316487,2.72602,0.33224,0.202456,-0.472445,-0.0215093,0.235836,0.125533
-0.110004,0.324307,2.71749,0.311897,0.000841607,-0.410314,-0.0140588,0.225756,0.00940341
-0.108464,0.329234,2.71017,0.0805696,-0.0275155,-0.339285,-0.00232987,0.225326,-0.057485
-0.105218,0.328997,2.70318,-0.153619,0.125524,-0.327139,-0.00481126,0.218098,-0.11241
-0.0992692,0.325384,2.69609,-0.263281,0.249902,-0.283138,-0.00335353,0.17566,-0.225151
-0.0906108,0.319416,2.69112,-0.391461,0.475827,-0.113353,0.0266601,0.13582,-0.298403
-0.0787778,0.30957,2.69057,-0.603456,0.670326,0.155867,0.058476,0.0631636,-0.395857
-0.0661626,0.295395,2.69565,-0.742205,0.696419,0.422453,0.107211,0.0403241,-0.534984
-0.0580124,0.280568,2.70561,-0.647572,0.343463,0.607838,0.125705,0.0648954,-0.691322
-0.060179,0.268696,2.71872,-0.457879,-0.222261,0.701985,0.147447,0.102266,-0.733016
-0.0734715,0.260347,2.7328,-0.290162,-0.697956,0.713535,0.159387,0.111298,-0.575765
-0.0932534,0.254269,2.74761,-0.219004,-0.826847,0.775915,0.176733,0.0712401,-0.303112
-0.111059,0.248452,2.76416,-0.193243,-0.495813,0.886256,0.207647,0.0246058,-0.0313062
-0.121413,0.243147,2.78302,-0.121654,-0.082956,0.995139,0.204665,-0.0190534,0.127426
-0.124547,0.23887,2.80404,-0.0565192,0.245959,1.07183,0.204469,-0.0127699,0.189391
-0.122276,0.234977,2.82571,-0.0821932,0.467741,1.05593,0.22061,0.0400256,0.19974
-0.116626,0.230164,2.84653,-0.153055,0.561488,1.02484,0.245068,0.0739777,0.175328
-0.109688,0.224733,2.8673,-0.136809,0.621817,1.05223,0.264521,0.0695109,0.138841
-0.101057,0.220934,2.88935,-0.00081371,0.704147,1.13312,0.2657,0.0523931,0.120709
-0.0933083,0.220076,2.91366,0.13139,0.585794,1.23224,0.244933,0.0337488,0.0753192
-0.0887923,0.220832,2.93939,0.161442,0.430462,1.24953,0.21343,0.048341,0.0875793
-0.08687,0.221945,2.96493,0.16911,0.332112,1.22164,0.18116,0.0618941,0.156409
-0.0858625,0.223666,2.98988,0.216502,0.342369,1.19762,0.155459,0.0641367,0.233828
-0.0831966,0.226413,3.01488,0.259815,0.500298,1.21174,0.131151,0.0532034,0.312859
-0.0768921,0.229569,3.0403,0.241605,0.708991,1.23326,0.108737,0.046955,0.353974
-0.0671014,0.231779,3.0663,0.157778,0.829129,1.28312,0.0933648,0.0480224,0.343399
-0.0577121,0.232261,3.09368,0.0487202,0.708494,1.37748,0.0881137,0.0561676,0.281251
-0.0522782,0.230436,3.12294,-0.0787823,0.52003,1.47304,0.0869449,0.0737845,0.232231
-0.0498113,0.226213,-3.1294,-0.180374,0.447285,1.54802,0.0568382,0.0742943,0.21573
-0.0484252,0.220513,-3.09722,-0.223467,0.397465,1.612,0.0342336,0.0573227,0.186525
-0.04756,0.214141,-3.06397,-0.261216,0.423936,1.65439,-0.0100929,0.0346978,0.162624
-0.044526,0.206947,-3.0309,-0.312996,0.587635,1.59507,-0.0654014,0.0205826,0.11815
-0.0368579,0.198951,-3.00034,-0.358067,0.78392,1.41645,-0.0931193,0.0148408,0.0272619
-0.0263933,0.19101,-2.97351,-0.335285,0.71544,1.2543,-0.110137,-0.02719,-0.129048
-0.0263933,0.19101,-2.97351,-0.335285,0.71544,1.2543,-0.110137,-0.02719,-0.129048
-0.0198677,0.184542,-2.94866,-0.262621,0.39851,1.21986,-0.110827,-0.0885218,-0.28289
-0.0191875,0.178763,-2.92391,-0.288422,0.137559,1.22224,-0.122904,-0.153364,-0.332904
-0.0214512,0.17113,-2.89945,-0.430555,0.0796364,1.18639,-0.154889,-0.201927,-0.326128
-0.0237617,0.160963,-2.87653,-0.51647,0.0621315,1.08573,-0.188416,-0.220529,-0.366278
-0.0260152,0.150351,-2.85643,-0.479764,0.0299585,0.914887,-0.209709,-0.211284,-0.443409
-0.0279438,0.141418,-2.84044,-0.355718,-0.00284171,0.681623,-0.223697,-0.19786,-0.503091
-0.0301466,0.136085,-2.82982,-0.12938,-0.0542285,0.371009,-0.224684,-0.171433,-0.53327
-0.0328439,0.136387,-2.82631,0.174292,-0.193867,-0.0333478,-0.219664,-0.107367,-0.499429
-0.0377716,0.142573,-2.83073,0.408755,-0.355115,-0.412161,-0.218404,-0.0726313,-0.413379
-0.0442999,0.152334,-2.8415,0.502394,-0.435743,-0.672293,-0.183095,-0.0802801,-0.259514
-0.0508894,0.16337,-2.85605,0.523315,-0.450352,-0.799044,-0.12611,-0.092422,-0.106527
-0.0577147,0.174547,-2.87229,0.499917,-0.520807,-0.857524,-0.0880455,-0.0721416,-0.00532931
-0.0655358,0.185051,-2.88986,0.440165,-0.543855,-0.942581,-0.0827239,-0.0309238,0.0625125
-0.0701509,0.194693,-2.90993,0.393519,-0.244522,-1.09853,-0.107333,0.0142204,0.127132
-0.0658891,0.204541,-2.93357,0.440659,0.182865,-1.27755,-0.139373,0.0535668,0.123834
-0.0544083,0.215864,-2.96023,0.522504,0.381089,-1.37024,-0.119778,0.0800511,0.031102
-0.0411138,0.227993,-2.98719,0.553275,0.298792,-1.28776,-0.0831762,0.0726258,-0.0506269
-0.0325473,0.239685,-3.01113,0.521662,-0.000977631,-1.07562,-0.0506183,0.0556488,-0.084552
-0.0304815,0.250009,-3.03095,0.450103,-0.265323,-0.890774,-0.0525783,0.0637272,-0.0143126
-0.0337944,0.258741,-3.04787,0.368601,-0.480158,-0.790083,-0.0742093,0.0936172,0.102422
-0.0409664,0.265756,-3.06367,0.277058,-0.632195,-0.76832,-0.0739471,0.136219,0.226811
-0.0496432,0.271092,-3.07946,0.191289,-0.616663,-0.778285,-0.0611983,0.156272,0.333859
-0.0567611,0.275326,-3.09526,0.163239,-0.539389,-0.769228,-0.0658589,0.144221,0.385652
-0.0630972,0.280016,-3.11136,0.222156,-0.545982,-0.818155,-0.0729761,0.155719,0.378374
-0.0693622,0.286343,-3.12919,0.289693,-0.569696,-0.934235,-0.0514811,0.205206,0.379447
-0.0742865,0.293731,3.13397,0.296042,-0.487741,-1.01828,-0.0300043,0.21961,0.407762
-0.0778661,0.300367,3.11342,0.195722,-0.473392,-0.978974,-0.0338496,0.17966,0.397585
-0.0814523,0.304015,3.09403,0.0165912,-0.468937,-0.896123,-0.029333,0.152427,0.350347
-0.0846007,0.304307,3.07567,-0.112644,-0.373477,-0.85836,-0.0272317,0.147959,0.263829
-0.0851992,0.303143,3.05793,-0.134176,-0.198513,-0.815653,-0.00714763,0.122816,0.128523
-0.0819893,0.302452,3.04113,-0.0625619,-0.00299423,-0.779639,-0.0593627,0.0834908,-0.016661
-0.0767723,0.303104,3.02455,-0.00948607,-0.00955606,-0.808008,-0.102825,0.0874855,-0.178722
-0.0728858,0.303583,3.00721,-0.0857609,-0.115704,-0.842413,-0.0702945,0.101203,-0.286635
-0.0702816,0.301594,2.98984,-0.23378,-0.126821,-0.782262,-0.0243917,0.0598295,-0.335365
-0.068362,0.296736,2.97493,-0.335615,-0.108675,-0.584823,0.0300451,-0.000767022,-0.390222
-0.0677937,0.290491,2.96485,-0.341944,-0.129243,-0.341335,0.067162,-0.0433353,-0.452682
-0.0688263,0.284157,2.95927,-0.327231,-0.134655,-0.152975,0.0883072,-0.0440235,-0.481431
-0.0708211,0.278032,2.95714,-0.299465,-0.117371,-0.0163206,0.0844934,-0.0422324,-0.474178
-0.072762,0.272304,2.95748,-0.271363,-0.0672687,0.0905654,0.0958066,-0.0431675,-0.437222
-0.074119,0.266923,2.95987,-0.25048,-0.0164499,0.183515,0.125842,-0.0337667,-0.386297
-0.0759924,0.261645,2.96443,-0.253089,-0.0417995,0.301171,0.151293,-0.0212525,-0.331668
-0.0783014,0.25567,2.97164,-0.298079,0.0176378,0.445679,0.165049,-0.0211389,-0.242471
-0.0786228,0.248389,2.98186,-0.346965,0.220808,0.59674,0.154409,-0.0429298,-0.145135
-0.0754517,0.240498,2.99471,-0.329169,0.374775,0.697533,0.140014,-0.0443603,-0.099064
-0.0719182,0.233935,3.00892,-0.206546,0.270215,0.71195,0.145628,0.0108598,-0.113142
-0.0723809,0.230974,3.02305,0.019417,0.0230915,0.683821,0.179208,0.074842,-0.108893
-0.0757515,0.232501,3.03696,0.218315,0.0136822,0.657214,0.211216,0.10587,-0.00694656
-0.0757515,0.232501,3.03696,0.218315,0.0136822,0.657214,0.211216,0.10587,-0.00694656
-0.0765298,0.237074,3.05052,0.327916,0.257729,0.620489,0.203482,0.113522,0.111396
-0.0714171,0.243469,3.06349,0.398621,0.53962,0.588714,0.176201,0.112561,0.171845
-0.0620776,0.250983,3.07601,0.422491,0.684046,0.583679,0.163121,0.121861,0.175696
-0.0523713,0.2584,3.08895,0.38664,0.591473,0.635361,0.173366,0.116099,0.173406
-0.0463671,0.264796,3.10379,0.325469,0.414285,0.77616,0.173977,0.0919426,0.189878
-0.0441898,0.269942,3.12197,0.262332,0.293126,0.949041,0.144138,0.0676707,0.249131
-0.044324,0.273251,-3.14018,0.151396,0.276093,1.03959,0.0956135,0.0817982,0.307092
-0.044521,0.274232,-3.11882,0.0487827,0.269162,0.987355,0.0582851,0.131526,0.338282
-0.0449625,0.274137,-3.09983,0.0411212,0.205036,0.833482,0.0199536,0.168544,0.329057
-0.0450553,0.274905,-3.08384,0.105018,0.233248,0.718669,0.0113816,0.168444,0.333148
-0.0430375,0.276741,-3.06897,0.127883,0.388207,0.723185,0.0143333,0.117827,0.357743
-0.0381222,0.277806,-3.05297,0.0158396,0.526308,0.821697,0.00646982,0.0635221,0.367425
-0.0327639,0.275514,-3.03455,-0.190794,0.478078,0.966103,0.0055979,0.0372083,0.314613
-0.0306827,0.26889,-3.01334,-0.397143,0.305873,1.08723,-1.12467e-05,0.0305993,0.225911
-0.0313308,0.258861,-2.99023,-0.528798,0.250334,1.17482,-0.000342453,0.0305916,0.163779
-0.0323977,0.246647,-2.96567,-0.611319,0.242282,1.23446,-0.0190949,0.00707808,0.12032
-0.0341926,0.232814,-2.94023,-0.684772,0.167838,1.27133,-0.0232091,-0.00553542,0.0511113
-0.0379255,0.217859,-2.91499,-0.716053,0.0499463,1.23165,-0.0309273,-0.0144971,-0.0195636
-0.0409652,0.202755,-2.89122,-0.692223,0.161649,1.14536,-0.0352941,-0.0238966,-0.0331929
-0.0405014,0.18868,-2.86955,-0.61481,0.287777,1.03488,-0.0552295,-0.0597671,-0.0654278
-0.0385436,0.17651,-2.84997,-0.530732,0.238518,0.939185,-0.0620556,-0.088459,-0.134753
-0.038215,0.165647,-2.83225,-0.497867,0.0922204,0.837305,-0.078986,-0.115826,-0.195576
-0.0399269,0.155022,-2.81718,-0.510363,0.0134241,0.702067,-0.0875308,-0.137514,-0.233101
-0.0401949,0.144108,-2.80437,-0.521625,0.150397,0.609029,-0.0994079,-0.198691,-0.259883
-0.0383252,0.133693,-2.79292,-0.471731,0.160069,0.573673,-0.108556,-0.24613,-0.361168
-0.0379297,0.124297,-2.78205,-0.433797,0.0194503,0.531157,-0.10318,-0.264085,-0.464788
-0.0399968,0.115264,-2.77208,-0.425296,-0.122427,0.491649,-0.0999276,-0.271816,-0.531356
-0.045486,0.106951,-2.76283,-0.362765,-0.31337,0.462321,-0.0904555,-0.272647,-0.586775
-0.0539837,0.100314,-2.75444,-0.257124,-0.437897,0.389473,-0.0878696,-0.248106,-0.578727
-0.0637625,0.0960566,-2.74842,-0.131293,-0.452458,0.227176,-0.0990195,-0.206597,-0.518306
-0.0717588,0.0948742,-2.746,0.0417774,-0.317792,0.0108074,-0.0953428,-0.159037,-0.414774
-0.0772646,0.0987833,-2.74801,0.34899,-0.288316,-0.238684,-0.0981306,-0.111018,-0.328919
-0.0835229,0.109961,-2.75438,0.709043,-0.420999,-0.481316,-0.0782261,-0.0491809,-0.239775
-0.0921729,0.127591,-2.76499,0.921446,-0.526842,-0.728557,-0.0494376,0.0133995,-0.0900674
-0.09869,0.147638,-2.78029,0.901357,-0.272926,-0.961739,-0.0242919,0.060249,0.109308
-0.0962735,0.166627,-2.79938,0.803175,0.220395,-1.07604,-0.0091494,0.059213,0.231095
-0.0844592,0.183763,-2.81963,0.733017,0.557192,-1.04267,0.00705647,0.0451729,0.205473
-0.0694773,0.19933,-2.8384,0.6757,0.547312,-0.901557,0.045891,0.0650477,0.103765
-0.057345,0.213332,-2.85401,0.637732,0.334934,-0.716784,0.0597985,0.083223,0.0394299
-0.0512697,0.22735,-2.86625,0.709957,-0.0441168,-0.561124,0.0422075,0.100335,0.0254315
-0.0537032,0.242939,-2.87575,0.791213,-0.374761,-0.453747,0.0235672,0.144761,0.0689827
-0.0606409,0.259488,-2.88389,0.810441,-0.499621,-0.442063,-0.00601569,0.176447,0.204598
-0.0687198,0.276399,-2.89207,0.827085,-0.514235,-0.45076,-0.0254627,0.191838,0.327785
-0.0763882,0.293891,-2.90053,0.857482,-0.497634,-0.487834,-0.0173512,0.219824,0.422869
-0.0829896,0.311597,-2.90982,0.821102,-0.424372,-0.541573,-0.0108801,0.24385,0.507438
-0.0861452,0.327268,-2.92036,0.622052,-0.196485,-0.582132,-0.000727035,0.261368,0.597771
-0.0830696,0.337032,-2.93194,0.241687,0.126482,-0.582864,-0.00235195,0.258483,0.64857
-0.0743394,0.338956,-2.94342,-0.112613,0.301197,-0.496487,-0.00281562,0.220625,0.58924
-0.0743394,0.338956,-2.94342,-0.112613,0.301197,-0.496487,-0.00281562,0.220625,0.58924
-0.0659194,0.335156,-2.9524,-0.314091,0.254364,-0.319593,0.00873971,0.189832,0.439745
-0.0581192,0.327753,-2.95791,-0.448848,0.339524,-0.162503,-0.0186903,0.162646,0.339075
-0.0498755,0.31769,-2.96057,-0.570788,0.404539,-0.0351869,-0.0553774,0.123149,0.228975
-0.0415351,0.305327,-2.96144,-0.655257,0.366761,-0.0105196,-0.120523,0.119743,0.0912929
-0.0360434,0.291949,-2.96286,-0.684491,0.105442,-0.0782551,-0.149007,0.132668,-0.0663137
-0.0365595,0.277538,-2.96557,-0.782884,-0.226721,-0.123138,-0.155384,0.0999009,-0.192093
-0.0428519,0.260522,-2.96871,-0.919759,-0.485079,-0.104896,-0.139927,0.0355084,-0.258936
-0.0529131,0.241303,-2.97137,-1.00126,-0.514284,-0.0595101,-0.0962116,-0.0188594,-0.314939
-0.0596198,0.22141,-2.97353,-0.98293,-0.192514,-0.0498536,-0.072348,-0.062209,-0.336188
-0.059865,0.202549,-2.9761,-0.909548,0.097956,-0.080856,-0.0585356,-0.0975393,-0.431026
-0.0563336,0.185289,-2.97859,-0.832159,0.174383,-0.054802,-0.0107,-0.127369,-0.576202
-0.0527049,0.169206,-2.98003,-0.782841,0.163839,0.00371453,0.0368067,-0.172268,-0.692713
-0.0501386,0.154397,-2.97995,-0.680225,0.0828469,0.0976022,0.0919408,-0.210489,-0.764724
-0.0508097,0.142418,-2.97676,-0.492218,-0.120081,0.292882,0.160961,-0.240402,-0.782077
-0.0563058,0.133961,-2.96868,-0.320745,-0.290104,0.550559,0.22667,-0.229126,-0.692018
-0.0643502,0.12783,-2.95535,-0.214068,-0.315663,0.800745,0.257827,-0.198995,-0.518391
-0.0721503,0.123532,-2.93714,-0.0860133,-0.224618,1.01966,0.25443,-0.169033,-0.363199
-0.0783006,0.121852,-2.91554,0.088939,-0.134682,1.10221,0.220448,-0.115922,-0.25478
-0.0836642,0.124097,-2.89366,0.32188,-0.156031,1.02281,0.201271,-0.0126963,-0.169974
-0.0903057,0.131671,-2.87388,0.605396,-0.237899,0.860821,0.222917,0.0755043,-0.0805361
-0.0967136,0.144901,-2.85694,0.867556,-0.134583,0.696512,0.252945,0.134842,0.0472588
-0.0992034,0.163139,-2.84177,1.08638,0.144121,0.62673,0.272546,0.141816,0.171187
-0.0953823,0.184784,-2.82683,1.1887,0.501199,0.639971,0.27988,0.14751,0.270241
-0.0856034,0.206843,-2.81089,1.12513,0.751374,0.724149,0.285596,0.152133,0.327029
-0.0736801,0.226022,-2.79315,0.905814,0.800174,0.863137,0.279306,0.165707,0.346159
-0.0634579,0.240083,-2.77236,0.634684,0.673809,1.06602,0.255047,0.154439,0.345248
-0.05825,0.249193,-2.74752,0.435929,0.461772,1.27817,0.222053,0.141184,0.326645
-0.057052,0.255306,-2.71936,0.350097,0.37568,1.38963,0.185406,0.163155,0.344659
-0.0568618,0.260633,-2.69003,0.353886,0.406931,1.3984,0.139522,0.191347,0.369191
-0.0554382,0.26649,-2.66091,0.39487,0.502199,1.3759,0.100527,0.20132,0.373192
-0.0530581,0.273579,-2.63231,0.457534,0.45572,1.33933,0.0506336,0.189903,0.325667
-0.0533375,0.281146,-2.60428,0.413931,0.303194,1.32039,0.0308638,0.186225,0.288336
-0.0556601,0.286522,-2.57621,0.262464,0.253026,1.3479,0.0312839,0.175455,0.295531
-0.0590096,0.288659,-2.5473,0.114148,0.247549,1.40856,0.0083175,0.133269,0.281848
-0.0621277,0.288219,-2.51722,0.0227339,0.281749,1.47531,0.00320648,0.110356,0.263787
-0.0659308,0.285717,-2.48599,-0.0885699,0.22664,1.52413,-0.00174455,0.0915839,0.208428
-0.0706594,0.280591,-2.45441,-0.211841,0.175319,1.53144,-0.00445659,0.0715551,0.166411
-0.0763151,0.27291,-2.42267,-0.332143,0.135296,1.57912,0.00109269,0.0383644,0.131193
-0.0822621,0.262617,-2.39018,-0.443774,0.125468,1.60855,0.000815079,0.00277311,0.096756
-0.0876389,0.250266,-2.3587,-0.519126,0.13367,1.50659,-0.0103691,-0.00711435,0.0709938
-0.0920699,0.237366,-2.33035,-0.501984,0.0921008,1.35222,-0.00850801,-0.0201365,0.0330755
-0.0970816,0.225786,-2.30489,-0.418212,-0.0057897,1.23569,0.0135974,-0.062352,0.00358337
-0.102409,0.215617,-2.28127,-0.372668,0.0180248,1.16229,0.0256597,-0.119256,0.0293286
-0.106025,0.206125,-2.25907,-0.341426,0.0685852,1.09445,0.0257969,-0.171934,0.0511242
-0.108842,0.197568,-2.23825,-0.28929,0.069509,1.02193,0.0362324,-0.19611,0.0273569
-0.111319,0.190644,-2.21896,-0.186232,0.0423746,0.939155,0.0338349,-0.217598,-0.00342768
-0.114016,0.18602,-2.2007,-0.0725257,0.0413952,0.907295,0.0214283,-0.261401,-0.0370145
-0.116556,0.183846,-2.18247,0.0636529,0.0186742,0.894606,-0.00821102,-0.297108,-0.0794461
-0.116556,0.183846,-2.18247,0.0636529,0.0186742,0.894606,-0.00821102,-0.297108,-0.0794461
-0.119914,0.184273,-2.16449,0.185464,-0.0230602,0.848839,-0.0343456,-0.296047,-0.135165
-0.12368,0.187368,-2.14792,0.318898,-0.0549768,0.714814,-0.0828045,-0.284734,-0.197889
-0.127636,0.193148,-2.13399,0.414607,-0.0516272,0.571311,-0.140794,-0.281058,-0.256437
-0.129749,0.200409,-2.12277,0.438424,0.096622,0.435055,-0.172658,-0.291332,-0.299904
-0.126905,0.207962,-2.11345,0.427366,0.34344,0.394381,-0.166141,-0.305894,-0.383205
-0.122911,0.215597,-2.10345,0.455499,0.198013,0.492294,-0.133716,-0.309445,-0.533633
-0.126853,0.224468,-2.09135,0.590536,-0.37654,0.551473,-0.0898258,-0.244927,-0.645424
-0.143651,0.236832,-2.0785,0.802354,-0.968481,0.507432,-0.0600269,-0.135829,-0.605187
-0.16885,0.253067,-2.06653,0.966073,-1.19474,0.37008,-0.0360799,-0.0360333,-0.364223
-0.194089,0.272045,-2.0573,1.05035,-1.05046,0.159414,-0.0272025,0.0369972,-0.0826944
-0.214316,0.292918,-2.05172,1.09803,-0.816066,-0.0522336,-0.0220573,0.0832414,0.109864
-0.228707,0.314879,-2.04941,1.07162,-0.546892,-0.200937,-0.0171405,0.108194,0.229816
-0.236495,0.335241,-2.04956,0.868942,-0.218968,-0.273932,-0.00796425,0.107592,0.307679
-0.23615,0.349897,-2.05174,0.489414,0.174395,-0.250288,-0.0121025,0.0736055,0.339849
-0.229115,0.356888,-2.05425,0.165471,0.409537,-0.129658,0.013205,0.0569556,0.262814
-0.220636,0.358802,-2.05489,0.0316459,0.373396,0.0288655,0.0369598,0.0787984,0.0930486
-0.21601,0.359082,-2.05304,0.0485166,0.122161,0.116172,0.0346788,0.127874,-0.0332456
-0.218245,0.36055,-2.05028,0.159088,-0.255795,0.0884801,0.021214,0.185187,-0.0813966
-0.226392,0.364716,-2.0486,0.273365,-0.443062,-0.0444096,-0.0119652,0.239039,-0.020629
-0.233722,0.371474,-2.05038,0.343299,-0.311549,-0.283975,-0.0460526,0.269026,0.113872
-0.234298,0.380612,-2.05715,0.393806,0.010805,-0.531478,-0.0439903,0.285429,0.218637
-0.227147,0.390987,-2.06817,0.358401,0.260227,-0.672442,-0.0106076,0.279264,0.262449
-0.216243,0.399234,-2.081,0.162825,0.304699,-0.636246,0.0237687,0.22848,0.249098
-0.206924,0.40225,-2.09261,-0.0898132,0.145101,-0.45687,0.0497852,0.158259,0.179422
-0.202673,0.399733,-2.10085,-0.296774,-0.015588,-0.237442,0.0705361,0.121762,0.0960821
-0.201092,0.393649,-2.10596,-0.373764,0.00540132,-0.124201,0.0591118,0.11081,0.0363907
-0.197899,0.386615,-2.11017,-0.399333,0.180383,-0.131189,-0.0161439,0.0980489,-0.0150743
-0.190306,0.378897,-2.11567,-0.45732,0.362107,-0.23148,-0.0726852,0.0895618,-0.104149
-0.179845,0.371006,-2.12334,-0.436907,0.386475,-0.306337,-0.0698655,0.0701488,-0.246597
-0.168982,0.364641,-2.13094,-0.295424,0.426769,-0.263655,-0.0344676,0.0386814,-0.368575
-0.159228,0.361247,-2.13556,-0.12654,0.372294,-0.0890925,0.00177717,-0.00684914,-0.446937
-0.152776,0.359081,-2.13495,-0.106171,0.282018,0.186607,0.026311,-0.0461076,-0.481026
-0.150823,0.354799,-2.12864,-0.247728,0.13664,0.459569,0.0505162,-0.0560098,-0.476127
-0.152161,0.346403,-2.11787,-0.415569,0.116371,0.647582,0.0587847,-0.0367495,-0.427018
-0.154237,0.335371,-2.10428,-0.454222,0.115948,0.784454,0.0851615,0.00068897,-0.367794
-0.157546,0.324117,-2.08807,-0.418008,0.0902843,0.905368,0.107588,0.0105497,-0.30186
-0.160427,0.312738,-2.06951,-0.440973,0.242547,1.01446,0.124114,-0.00492701,-0.193459
-0.158994,0.299984,-2.04919,-0.518462,0.512596,1.10251,0.137506,-0.0217403,-0.100227
-0.153561,0.285715,-2.02683,-0.532956,0.62167,1.2442,0.170271,-0.0522627,-0.107235
-0.150184,0.272455,-2.00088,-0.379724,0.399049,1.41597,0.216367,-0.0521921,-0.173598
-0.152823,0.262748,-1.97169,-0.152495,0.11938,1.49047,0.23372,-0.00425699,-0.163876
-0.158844,0.257062,-1.9419,0.019378,0.112449,1.42395,0.216227,0.0583022,-0.0541134
-0.159977,0.254008,-1.91404,0.101838,0.532033,1.28159,0.17785,0.0831331,0.0756863
-0.1507,0.252969,-1.88874,0.184435,0.99436,1.1737,0.160977,0.0728658,0.112016
-0.135221,0.254325,-1.86433,0.280778,1.10261,1.15924,0.179301,0.0671747,0.0184772
-0.120513,0.2574,-1.83904,0.327164,0.98622,1.23316,0.211934,0.0762067,-0.0517232
-0.108573,0.261306,-1.81274,0.356337,0.886208,1.24562,0.217657,0.0972709,-0.0437396
-0.108573,0.261306,-1.81274,0.356337,0.886208,1.24562,0.217657,0.0972709,-0.0437396
-0.0992188,0.266246,-1.78603,0.39465,0.745658,1.279,0.199188,0.112431,0.0036912
-0.0920317,0.271811,-1.75832,0.405975,0.735175,1.31926,0.18185,0.124525,0.0896724
-0.0839477,0.277642,-1.7302,0.419747,0.848101,1.32058,0.143794,0.138178,0.200643
-0.0736258,0.284396,-1.70229,0.467043,0.945259,1.29332,0.104754,0.150649,0.272691
-0.0618627,0.292248,-1.67496,0.48454,1.00114,1.27027,0.0872627,0.185566,0.332705
-0.0507346,0.299974,-1.64807,0.411963,0.861095,1.25768,0.0623947,0.190713,0.355375
-0.0448351,0.305338,-1.6213,0.226451,0.514116,1.27615,0.0612558,0.20772,0.355695
-0.0458604,0.306102,-1.59379,-0.0350058,0.256559,1.34606,0.058438,0.196134,0.385741
-0.0495178,0.301611,-1.5648,-0.267631,0.272869,1.43622,0.0386572,0.157838,0.432265
-0.0516513,0.29326,-1.53444,-0.409864,0.418778,1.49976,0.0122232,0.147702,0.417074
-0.0494968,0.28227,-1.5034,-0.538326,0.699901,1.51659,-0.0338108,0.146487,0.371618
-0.0415006,0.268689,-1.47319,-0.685545,0.876624,1.4309,-0.0876856,0.14439,0.277544
-0.0314578,0.252513,-1.4458,-0.825198,0.799475,1.27022,-0.109178,0.144126,0.106938
-0.0239848,0.234763,-1.42155,-0.868004,0.502194,1.13655,-0.120459,0.0884775,-0.0955354
-0.0224183,0.217123,-1.39941,-0.845283,0.169854,1.08026,-0.132758,0.000943273,-0.240246
-0.0254021,0.199703,-1.37807,-0.847196,0.0151082,1.03367,-0.145272,-0.0876934,-0.290882
-0.0281018,0.182521,-1.35888,-0.801504,0.0992857,0.867457,-0.16405,-0.132868,-0.303803
-0.0269981,0.167576,-1.34451,-0.640071,0.261619,0.584484,-0.179438,-0.146165,-0.348611
-0.0221406,0.156588,-1.33579,-0.444646,0.347054,0.31083,-0.168867,-0.168347,-0.426097
-0.0168097,0.148948,-1.33147,-0.3332,0.212593,0.152233,-0.137399,-0.220422,-0.510693
-0.0157716,0.142455,-1.32909,-0.319235,-0.084078,0.0970581,-0.0809313,-0.254328,-0.55992
-0.0207382,0.135923,-1.32743,-0.334656,-0.369847,0.0859796,-0.0522085,-0.274148,-0.546561
-0.0298435,0.128775,-1.32569,-0.375298,-0.487249,0.101581,-0.0486551,-0.294707,-0.488092
-0.0397104,0.121283,-1.32409,-0.347771,-0.487406,0.0704523,-0.0612845,-0.296235,-0.428126
-0.0500653,0.115979,-1.32418,-0.154076,-0.560121,-0.0751539,-0.0954335,-0.244495,-0.394514
-0.0617129,0.116205,-1.32829,0.158651,-0.633825,-0.35513,-0.125952,-0.16233,-0.322814
-0.0727957,0.123307,-1.33876,0.475998,-0.580376,-0.743334,-0.144999,-0.0786802,-0.179182
-0.0808268,0.137075,-1.35676,0.742004,-0.445242,-1.1322,-0.151266,-0.0231749,-0.0270641
-0.0837518,0.155646,-1.38107,0.878548,-0.167905,-1.39444,-0.137679,-0.00583988,0.100553
-0.0788968,0.175455,-1.40907,0.848024,0.182377,-1.50359,-0.122407,-0.0252576,0.175966
-0.0670773,0.19383,-1.43896,0.78004,0.41169,-1.55502,-0.117669,-0.0145504,0.136065
-0.0527982,0.211235,-1.46961,0.781348,0.373119,-1.52527,-0.076146,0.0248078,0.030411
-0.0403152,0.228374,-1.49874,0.802649,0.219948,-1.37623,-0.0411409,0.0430746,-0.0307229
-0.032715,0.245694,-1.52412,0.842142,-0.0648957,-1.15015,-0.0222588,0.0391887,-0.05501
-0.031591,0.263631,-1.54521,0.881925,-0.346034,-0.961535,-0.0230029,0.079237,-0.0062229
-0.0356073,0.281896,-1.56354,0.880893,-0.532171,-0.876484,-0.0375064,0.135157,0.107717
-0.0420967,0.300039,-1.58077,0.863501,-0.598711,-0.844183,-0.0565367,0.169337,0.239421
-0.0489328,0.317681,-1.59741,0.822427,-0.572418,-0.819444,-0.0613681,0.194154,0.349201
-0.0541592,0.333873,-1.61357,0.705535,-0.464216,-0.798756,-0.0665323,0.209586,0.434224
-0.0567718,0.347246,-1.62971,0.536085,-0.326081,-0.791377,-0.0687005,0.222496,0.481447
-0.056316,0.356939,-1.6457,0.341606,-0.181353,-0.752861,-0.0652424,0.229108,0.482467
-0.0541383,0.362674,-1.66058,0.160335,-0.145341,-0.660296,-0.0622469,0.216272,0.420581
-0.0527233,0.365139,-1.67314,0.029216,-0.155801,-0.522005,-0.0552218,0.197198,0.332129
-0.0519611,0.36505,-1.6829,-0.0793574,-0.112076,-0.388411,-0.0597763,0.182314,0.246993
-0.0505261,0.362737,-1.69043,-0.186803,-0.0110279,-0.301975,-0.0693742,0.165381,0.155004
-0.0481944,0.358009,-1.69632,-0.324639,0.016277,-0.222506,-0.0753928,0.143638,0.0477527
-0.047135,0.349627,-1.70085,-0.533916,-0.111283,-0.171133,-0.0915211,0.139422,-0.0647166
-0.0513543,0.337704,-1.70526,-0.656785,-0.48081,-0.193319,-0.0891104,0.148109,-0.20241
-0.0513543,0.337704,-1.70526,-0.656785,-0.48081,-0.193319,-0.0891104,0.148109,-0.20241
-0.0620495,0.324846,-1.71097,-0.641546,-0.72061,-0.283168,-0.0689038,0.157328,-0.255067
-0.0740147,0.313407,-1.71908,-0.539669,-0.704108,-0.404728,-0.0490093,0.129591,-0.215638
-0.0841987,0.304398,-1.72905,-0.446263,-0.630023,-0.455542,-0.0254037,0.0781156,-0.164083
-0.0929264,0.29647,-1.73957,-0.448158,-0.550426,-0.47134,0.0174859,0.034532,-0.137856
-0.0993757,0.287552,-1.75052,-0.545696,-0.394553,-0.485645,0.0399018,0.0026305,-0.115462
-0.101347,0.276465,-1.76173,-0.6603,-0.097851,-0.461218,0.0570483,-0.0489428,-0.123919
-0.0976593,0.263493,-1.77195,-0.710135,0.188543,-0.389272,0.0663373,-0.121732,-0.207663
-0.0902329,0.250669,-1.78056,-0.625236,0.306051,-0.323492,0.0763841,-0.154276,-0.363716
-0.0826337,0.239978,-1.78785,-0.507924,0.294574,-0.286711,0.094838,-0.147374,-0.497624
-0.0747681,0.23107,-1.79398,-0.427797,0.345602,-0.2422,0.132543,-0.141296,-0.543092
-0.0669044,0.223885,-1.79898,-0.316561,0.314267,-0.183166,0.158936,-0.141201,-0.562906
-0.0604911,0.219084,-1.80184,-0.183111,0.267712,-0.0560744,0.187778,-0.150279,-0.523964
-0.0546309,0.216404,-1.80145,-0.0878993,0.347643,0.108679,0.208008,-0.166324,-0.410676
-0.0475262,0.215447,-1.79764,0.0180927,0.43212,0.260147,0.210976,-0.163825,-0.29383
-0.0399576,0.216799,-1.79095,0.151666,0.477807,0.378025,0.216883,-0.109786,-0.205921
-0.0319711,0.221532,-1.78244,0.371108,0.489368,0.425707,0.205791,-0.0414141,-0.120975
-0.0256839,0.23123,-1.7731,0.612039,0.328622,0.449242,0.185428,0.0173979,-0.0381356
-0.0232027,0.244286,-1.76337,0.681522,0.172344,0.465754,0.178884,0.0853844,0.0711997
-0.0219183,0.256796,-1.75349,0.567215,0.247126,0.477413,0.178302,0.11374,0.200863
-0.0166159,0.266097,-1.74233,0.386672,0.584782,0.59845,0.17727,0.110609,0.299846
-0.00676319,0.272196,-1.72789,0.249683,0.739623,0.788941,0.176939,0.115023,0.282405
0.002715,0.276349,-1.70944,0.176595,0.671527,0.974284,0.173108,0.139102,0.220737
0.00845597,0.279728,-1.6877,0.156251,0.494214,1.11843,0.146597,0.163514,0.195365
0.00981337,0.283219,-1.66383,0.177925,0.301453,1.16605,0.112709,0.171523,0.217836
0.00716966,0.287212,-1.63936,0.197262,0.13882,1.18186,0.0842495,0.181611,0.279508
0.00257634,0.290842,-1.6151,0.146125,0.105218,1.12583,0.042179,0.182709,0.365623
-0.00143056,0.293022,-1.59298,0.069802,0.148678,0.983286,-0.00583263,0.182096,0.431801
-0.00260484,0.29379,-1.57384,0.0158857,0.283172,0.863616,-0.0252473,0.163407,0.462704
-0.00140881,0.29377,-1.55608,-0.0190895,0.333185,0.853505,-0.0130101,0.116482,0.429204
-0.000382304,0.29216,-1.53771,-0.161017,0.306922,0.908206,-0.0106661,0.0740932,0.386045
0.000394758,0.286924,-1.51789,-0.355131,0.323906,0.991077,-0.0239993,0.0258468,0.344205
0.000683843,0.278563,-1.49676,-0.46449,0.314157,1.01703,-0.0545516,-0.0159648,0.247798
0.00188,0.269278,-1.47674,-0.455157,0.355899,0.883427,-0.0864986,-0.0317554,0.149844
0.00587037,0.260803,-1.46052,-0.394847,0.477163,0.675141,-0.0953478,-0.0563067,0.0530196
0.0128437,0.253952,-1.44817,-0.297151,0.494988,0.535163,-0.067592,-0.114583,-0.0806604
0.0187753,0.249089,-1.43726,-0.208709,0.360095,0.532642,-0.024039,-0.17662,-0.205335
0.0209159,0.245701,-1.42558,-0.162891,0.114575,0.60545,-0.00630924,-0.224003,-0.268755
0.0169327,0.242121,-1.41206,-0.238317,-0.16643,0.691015,-0.00360544,-0.250915,-0.292232
0.00979992,0.236483,-1.39765,-0.338892,-0.153858,0.686554,-0.00647531,-0.227111,-0.257111
0.00584739,0.229629,-1.38428,-0.331279,0.0749386,0.599787,-0.0204187,-0.202727,-0.248174
0.00609325,0.224257,-1.37309,-0.207003,0.161591,0.490994,-0.0411122,-0.177703,-0.332325
0.00628933,0.221041,-1.36385,-0.133488,0.0121156,0.409961,-0.0428642,-0.14605,-0.416897
0.000936342,0.218474,-1.35611,-0.137975,-0.370096,0.349291,-0.0477586,-0.12794,-0.473173
-0.0106983,0.215194,-1.34947,-0.195497,-0.619185,0.303471,-0.0664072,-0.112879,-0.437306
-0.0238387,0.210475,-1.34406,-0.259132,-0.528676,0.221642,-0.0978903,-0.106963,-0.35041
-0.0327951,0.205475,-1.34112,-0.209566,-0.309224,0.069999,-0.123311,-0.075448,-0.281602
-0.0378223,0.203026,-1.34174,-0.0186878,-0.244776,-0.130414,-0.143109,-0.0235094,-0.261337
-0.0426414,0.205226,-1.34659,0.218109,-0.345732,-0.358143,-0.143737,0.0356822,-0.217401
-0.0426414,0.205226,-1.34659,0.218109,-0.345732,-0.358143,-0.143737,0.0356822,-0.217401
-0.0485425,0.211968,-1.35596,0.397157,-0.431388,-0.574835,-0.138674,0.0748102,-0.111195
-0.0538815,0.221019,-1.36897,0.410364,-0.342273,-0.72853,-0.126547,0.0917519,0.0292056
-0.0544001,0.228775,-1.38457,0.264755,-0.0369181,-0.819328,-0.120765,0.087121,0.151627
-0.0487254,0.233424,-1.40137,0.126477,0.191586,-0.819833,-0.118356,0.0660423,0.162826
-0.0396594,0.235958,-1.41731,0.0745975,0.32734,-0.72513,-0.0962764,0.057261,0.112701
-0.0306867,0.237962,-1.43062,0.0902345,0.206214,-0.584507,-0.0696243,0.0587203,0.0653113
-0.0273173,0.240931,-1.44147,0.183669,-0.149864,-0.485006,-0.0689188,0.0925496,0.0318196
-0.0321912,0.245895,-1.45167,0.277368,-0.563095,-0.53746,-0.0732443,0.145662,0.0687672
-0.042528,0.252101,-1.46385,0.290653,-0.719629,-0.675582,-0.0783203,0.184361,0.19542
-0.0523657,0.258614,-1.4787,0.293852,-0.601966,-0.774994,-0.0784425,0.173618,0.34219
-0.0575088,0.26555,-1.49449,0.318462,-0.331878,-0.770175,-0.0507998,0.133869,0.431295
-0.0585398,0.272948,-1.50949,0.320455,-0.188421,-0.715708,-0.0453746,0.110865,0.440213
-0.0576667,0.279193,-1.52378,0.207935,-0.137182,-0.704603,-0.065645,0.121558,0.417703
-0.0570292,0.282712,-1.53843,0.0673356,-0.219254,-0.71467,-0.0700814,0.136001,0.349565
-0.0583018,0.283903,-1.553,-0.0173748,-0.298047,-0.681831,-0.0526148,0.12538,0.260569
-0.0601318,0.284127,-1.56682,-0.0305461,-0.265437,-0.659006,-0.061897,0.103715,0.192745
-0.0608874,0.284101,-1.58095,-0.0750739,-0.194878,-0.708699,-0.0884859,0.103933,0.137167
-0.0587968,0.28189,-1.59667,-0.246929,-0.0291165,-0.78397,-0.100096,0.105259,0.10882
-0.0540552,0.276199,-1.61354,-0.394387,-0.0227145,-0.780389,-0.072256,0.056972,0.0165713
-0.0528067,0.26823,-1.6287,-0.479524,-0.266729,-0.622725,-0.0373774,-0.000340164,-0.132516
-0.0565567,0.258753,-1.64116,-0.527121,-0.409472,-0.55124,-0.0288819,-0.0114888,-0.218262
-0.0622715,0.249072,-1.65315,-0.498749,-0.448753,-0.547416,-0.0305552,-0.0110481,-0.265815
-0.0684056,0.240597,-1.66475,-0.420257,-0.433287,-0.51872,-0.0249557,-0.034301,-0.292474
-0.0725807,0.233662,-1.67573,-0.351219,-0.20572,-0.496659,-0.0201214,-0.0495101,-0.281644
-0.0714566,0.227723,-1.68568,-0.32138,0.07713,-0.411435,-0.00370491,-0.0665376,-0.257933
-0.0667488,0.221524,-1.69325,-0.356522,0.184822,-0.280924,0.0150662,-0.0895481,-0.296216
-0.0623261,0.214237,-1.69819,-0.404274,0.154997,-0.160051,0.0314429,-0.084578,-0.353143
-0.0585412,0.20616,-1.70125,-0.408019,0.159447,-0.098886,0.0455348,-0.0609066,-0.3762
-0.0552546,0.198782,-1.70328,-0.327441,0.1259,-0.0567484,0.0675972,-0.0470009,-0.401834
-0.0530557,0.193367,-1.7042,-0.221088,0.0807943,-0.00173551,0.111185,-0.0354507,-0.379103
-0.0518489,0.189706,-1.70355,-0.143183,0.0557492,0.0947055,0.156594,-0.038938,-0.313938
-0.0514283,0.187152,-1.7003,-0.0966135,0.0512621,0.241966,0.187944,-0.0523877,-0.233101
-0.0515225,0.185326,-1.69403,-0.0561639,0.0445978,0.374895,0.202427,-0.0545026,-0.15388
-0.0524373,0.184111,-1.68543,-0.0224482,0.0226961,0.466901,0.199736,-0.0370664,-0.0739616
-0.0539824,0.183499,-1.67543,0.00925273,0.00926711,0.514274,0.203914,-0.00435758,0.00483501
-0.0552445,0.18322,-1.66427,0.0166752,0.104966,0.591987,0.218095,0.0124424,0.0751459
-0.0531249,0.182668,-1.65131,0.000383288,0.348159,0.686101,0.217759,0.00492652,0.139614
-0.0472122,0.181977,-1.63657,0.002272,0.478458,0.759421,0.19525,0.0149277,0.143525
-0.0406918,0.18156,-1.62075,0.0308423,0.437527,0.78709,0.177219,0.0435859,0.119422
-0.0362935,0.182199,-1.60466,0.103562,0.285622,0.783052,0.160364,0.0679724,0.12283
-0.0346625,0.184924,-1.58916,0.232956,0.165371,0.726333,0.145347,0.0837283,0.15982
-0.0345674,0.190533,-1.57473,0.375555,0.146844,0.671908,0.121993,0.0810907,0.22297
-0.032995,0.198579,-1.56117,0.459584,0.280817,0.631748,0.0980908,0.0761526,0.312914
-0.028562,0.207476,-1.54844,0.458803,0.408838,0.586748,0.0814887,0.0892151,0.364721
-0.0221832,0.21603,-1.53659,0.417708,0.459901,0.560877,0.0604231,0.0933509,0.376785
-0.0159183,0.223182,-1.52467,0.307543,0.422586,0.593256,0.0408524,0.0823413,0.360084
-0.0111019,0.227614,-1.51203,0.148615,0.342162,0.634261,0.0325591,0.0836559,0.340938
-0.0111019,0.227614,-1.51203,0.148615,0.342162,0.634261,0.0325591,0.0836559,0.340938
-0.0082204,0.22856,-1.49818,-0.0481237,0.26309,0.71934,0.0265917,0.081235,0.318779
-0.00624339,0.225212,-1.48288,-0.278661,0.31135,0.769367,-0.0127132,0.0715953,0.295895
-0.00176003,0.217542,-1.46717,-0.46532,0.47415,0.76211,-0.0310727,0.0691473,0.246129
0.00500362,0.20764,-1.45187,-0.505162,0.507488,0.73548,-0.0388622,0.0443772,0.121376
0.0112599,0.198076,-1.43644,-0.445779,0.400978,0.777896,-0.0200575,0.00804752,-0.0187607
0.0136941,0.190416,-1.41971,-0.352678,0.165187,0.851183,-0.00609151,-0.0308403,-0.133859
0.0118854,0.183518,-1.40199,-0.3804,0.0170978,0.859175,-0.0328801,-0.0485432,-0.163606
0.00902019,0.175203,-1.38569,-0.460964,-0.00945708,0.714399,-0.0840774,-0.0564964,-0.150633
0.00649102,0.166178,-1.37351,-0.426567,-0.026214,0.4723,-0.11776,-0.0617742,-0.186053
0.00488026,0.159117,-1.36632,-0.274059,-0.0167434,0.24572,-0.108121,-0.0753797,-0.216334
0.00407788,0.155219,-1.36277,-0.130499,-0.00204059,0.121938,-0.0618597,-0.117132,-0.245719
0.00411873,0.153268,-1.36073,-0.0788978,0.0382226,0.0885473,-0.0453303,-0.167079,-0.253918
0.00473835,0.151447,-1.35891,-0.120309,0.0431682,0.0919054,-0.0393521,-0.200159,-0.27136
0.00458695,0.148371,-1.35669,-0.181813,-0.0524081,0.131163,-0.0186205,-0.206269,-0.317317
0.000957534,0.144865,-1.35337,-0.14775,-0.234593,0.193047,0.0173477,-0.202351,-0.387855
-0.00598363,0.143145,-1.34893,-0.0224627,-0.391486,0.242114,0.0142994,-0.183653,-0.380225
-0.0147174,0.143328,-1.34412,0.0191162,-0.399407,0.221234,-0.0146852,-0.134826,-0.298188
-0.0224426,0.142946,-1.3406,-0.0616691,-0.310205,0.120122,-0.0454151,-0.0844534,-0.203839
-0.0276104,0.140756,-1.33943,-0.147593,-0.183793,0.00143279,-0.0600838,-0.0480937,-0.151151
-0.029954,0.137729,-1.34088,-0.133694,-0.0860106,-0.144589,-0.0781069,-0.0189257,-0.145458
-0.0306934,0.136667,-1.34552,0.0296451,-0.0747252,-0.301186,-0.0859001,0.00941044,-0.139567
-0.0321272,0.139492,-1.3528,0.223638,-0.178463,-0.42123,-0.0776264,0.0298486,-0.111024
-0.0353738,0.145506,-1.36214,0.324828,-0.243308,-0.520219,-0.0661426,0.0507551,-0.0738541
-0.0377519,0.152612,-1.37281,0.338969,-0.133812,-0.544158,-0.0434606,0.0462312,-0.00698626
-0.0371677,0.159436,-1.38281,0.296259,0.0323114,-0.45189,-0.035761,0.0101863,0.0405902
-0.0346912,0.1648,-1.39059,0.21167,0.0437097,-0.341551,-0.018276,0.00930001,0.0440547
-0.0342991,0.168504,-1.39674,0.142527,-0.122218,-0.288299,-0.0107185,0.0465372,0.0321015
-0.0374371,0.171262,-1.40245,0.125314,-0.278889,-0.293158,-0.0203245,0.0777751,0.070236
-0.0423308,0.174496,-1.40888,0.183693,-0.309032,-0.360826,-0.0328179,0.0960518,0.157287
-0.0471895,0.179507,-1.41686,0.280298,-0.313194,-0.448514,-0.0378909,0.104173,0.248095
-0.0511254,0.18642,-1.42653,0.355117,-0.244018,-0.528469,-0.0306692,0.112589,0.34664
-0.0522549,0.194438,-1.43768,0.38579,-0.0669372,-0.606891,-0.0249556,0.104165,0.430867
-0.0487693,0.2027,-1.45022,0.367982,0.169406,-0.658882,-0.0457998,0.0846155,0.470214
-0.041325,0.210297,-1.46355,0.32643,0.263933,-0.676808,-0.0482811,0.0807447,0.434699
-0.0347195,0.216795,-1.4774,0.262171,0.0719883,-0.700445,-0.0525106,0.0825932,0.325048
-0.0314036,0.221586,-1.49162,0.167935,-0.0153318,-0.694602,-0.0548033,0.0806473,0.231539
-0.0287973,0.224609,-1.50518,0.0963689,-0.0331787,-0.61528,-0.0742859,0.0172808,0.150503
-0.0277777,0.226122,-1.51602,0.0254842,-0.109263,-0.434655,-0.0765707,-0.0480928,0.0471652
-0.0293562,0.226478,-1.52339,0.000980752,-0.197447,-0.302583,-0.0716327,-0.0675517,-0.0379654
-0.0326166,0.226798,-1.52924,0.007934,-0.283181,-0.277346,-0.0777214,-0.0384472,-0.0654487
-0.0367185,0.226752,-1.53524,-0.0401878,-0.226246,-0.320863,-0.0834617,-0.0209292,-0.0668586
-0.0387549,0.225798,-1.54243,-0.0731121,-0.159823,-0.366632,-0.0736123,-0.0341422,-0.0584646
-0.0411199,0.224615,-1.54941,-0.0720586,-0.242118,-0.29623,-0.0382783,-0.0541547,-0.116276
-0.0458338,0.223431,-1.55451,-0.0693318,-0.345333,-0.19929,-0.00199781,-0.0645559,-0.155993
-0.0532062,0.222179,-1.55789,-0.0831792,-0.456197,-0.119521,0.0160919,-0.0637175,-0.166143
-0.062529,0.219928,-1.5595,-0.163699,-0.501606,-0.0255158,0.0225919,-0.0772961,-0.138421
-0.07236,0.215182,-1.55953,-0.308774,-0.464234,0.0471445,0.0204586,-0.0921999,-0.1221
-0.0808633,0.207859,-1.55885,-0.392254,-0.381752,0.0657542,0.0276449,-0.084009,-0.153369
-0.0808633,0.207859,-1.55885,-0.392254,-0.381752,0.0657542,0.0276449,-0.084009,-0.153369
-0.0870001,0.200246,-1.55831,-0.340216,-0.176629,0.0503833,0.0379586,-0.0688816,-0.205177
-0.0866355,0.1949,-1.55805,-0.18693,0.197114,0.0293732,0.042439,-0.0611995,-0.207824
-0.0806706,0.192042,-1.55728,-0.11037,0.390905,0.0827127,0.0409547,-0.0762872,-0.251739
-0.0732014,0.189372,-1.55495,-0.157354,0.371119,0.160515,0.0729119,-0.0650693,-0.296127
-0.0670068,0.184748,-1.55151,-0.291722,0.335695,0.215426,0.114874,-0.0319534,-0.301175
-0.0600046,0.17674,-1.54658,-0.47391,0.486223,0.333091,0.167097,-0.0182553,-0.269089
-0.0506211,0.166031,-1.53823,-0.511417,0.543396,0.567168,0.214424,-0.0535112,-0.304215
-0.0443294,0.156266,-1.52428,-0.395183,0.260915,0.844286,0.234739,-0.0662319,-0.39023
-0.0461331,0.148444,-1.50591,-0.31081,-0.162971,0.971068,0.246232,0.000316709,-0.3856
-0.0556188,0.142123,-1.48651,-0.221388,-0.476209,0.979002,0.242926,0.06381,-0.25995
-0.0684763,0.1378,-1.4671,-0.0779491,-0.465973,0.969436,0.245295,0.0912984,-0.102392
-0.076513,0.136551,-1.44803,0.104291,-0.0216938,0.915285,0.24484,0.0877873,0.0517883
-0.0741623,0.139616,-1.42948,0.341115,0.450148,0.90243,0.249628,0.0986965,0.121306
-0.0667606,0.146934,-1.41075,0.496993,0.502095,0.901187,0.228147,0.109037,0.0879884
-0.0614759,0.156005,-1.39187,0.516431,0.283771,0.908584,0.2033,0.116799,0.0750706
-0.061571,0.165123,-1.37285,0.515391,0.0243227,0.911387,0.183666,0.110083,0.112718
-0.0659836,0.174803,-1.35342,0.585926,-0.113151,0.943229,0.168401,0.0904795,0.200208
-0.0719252,0.186205,-1.33303,0.686587,-0.09165,0.978778,0.158527,0.0869711,0.298212
-0.0762445,0.198854,-1.31173,0.715849,0.0907339,1.00832,0.158242,0.0981811,0.395369
-0.0761064,0.211071,-1.28975,0.652821,0.36929,1.03733,0.143117,0.102467,0.471833
-0.0715285,0.221167,-1.26762,0.501659,0.527431,1.04599,0.104181,0.110726,0.47893
-0.066129,0.227746,-1.24539,0.30052,0.48576,1.06954,0.0796179,0.108488,0.412646
-0.0617234,0.230493,-1.22305,0.125779,0.47489,1.08059,0.0611668,0.104388,0.334813
-0.0578293,0.23091,-1.20076,0.0624306,0.411546,1.08742,0.0531807,0.0877963,0.235808
-0.0551733,0.230831,-1.17791,0.0565048,0.410767,1.13765,0.0607779,0.0672266,0.157145
-0.0515225,0.230404,-1.15391,0.0110703,0.47452,1.20213,0.0529006,0.0442121,0.12394
-0.0485455,0.228484,-1.12843,-0.0799031,0.381026,1.29486,0.0588008,0.014801,0.045129
-0.0498461,0.224639,-1.10121,-0.171959,0.0974158,1.36287,0.0649157,-9.97335e-05,-0.0319974
-0.0561575,0.219058,-1.0739,-0.245981,-0.101053,1.2996,0.0537033,-0.00169963,-0.0438381
-0.0636013,0.212529,-1.04911,-0.242549,-0.0943681,1.15236,0.0413306,-0.0103048,-0.0122382
-0.0694413,0.207341,-1.02723,-0.114726,-0.0454999,1.02615,0.0516488,-0.0429817,0.0154536
-0.0741394,0.205234,-1.00704,0.0365188,-0.00334666,0.964014,0.0635143,-0.082016,0.0409754
-0.0776915,0.205113,-0.987926,0.0754354,0.0392801,0.899914,0.066297,-0.107464,0.0830182
-0.0801474,0.204728,-0.970282,0.0117971,0.0722739,0.823367,0.071752,-0.119392,0.109518
-0.0816154,0.202851,-0.954343,-0.0633829,0.0924824,0.751217,0.0827829,-0.131194,0.0944762
-0.0829572,0.200139,-0.93934,-0.0743618,0.0779855,0.748317,0.102097,-0.158998,0.0516809
-0.0848658,0.197869,-0.92374,-0.0164703,0.0176965,0.804892,0.107249,-0.187697,-0.00769067
-0.0887453,0.19688,-0.906615,0.0527228,-0.0547113,0.87475,0.112811,-0.192649,-0.0597072
-0.0928067,0.196715,-0.888629,0.0822073,0.0240702,0.865441,0.0857897,-0.170777,-0.0718311
-0.0947629,0.196972,-0.871837,0.100343,0.0901635,0.761905,0.0400876,-0.135262,-0.109155
-0.095705,0.198357,-0.857484,0.182993,0.0770754,0.626059,0.0172539,-0.0976343,-0.190263
-0.0976584,0.20193,-0.845381,0.278652,-0.0323709,0.529302,0.0211965,-0.069169,-0.263405
-0.100688,0.206679,-0.83478,0.281755,-0.0271144,0.461424,0.0296374,-0.0617568,-0.266412
-0.102031,0.210771,-0.825067,0.217298,0.104559,0.459709,0.0490022,-0.071716,-0.23411
-0.101692,0.213256,-0.814277,0.139649,0.110232,0.581239,0.0708354,-0.0977136,-0.242485
-0.104245,0.214316,-0.800784,0.107251,-0.108765,0.70576,0.0763157,-0.0976238,-0.279433
-0.112432,0.215436,-0.786209,0.168578,-0.376547,0.671402,0.0495429,-0.0442831,-0.243381
-0.123187,0.218451,-0.773276,0.28159,-0.362263,0.538954,0.0342312,0.0144318,-0.110173
-0.123187,0.218451,-0.773276,0.28159,-0.362263,0.538954,0.0342312,0.0144318,-0.110173
-0.130008,0.22409,-0.763011,0.402258,-0.0818281,0.382542,0.0106775,0.0325526,0.0378288
-0.130816,0.232086,-0.755404,0.472256,0.144147,0.260827,0.00740883,0.0487034,0.118133
-0.129119,0.240507,-0.749295,0.419077,0.135857,0.237087,0.0221037,0.049413,0.137968
-0.128894,0.246966,-0.742918,0.299742,0.0471649,0.2998,0.0319398,0.0327935,0.142828
-0.129609,0.250964,-0.735462,0.19194,0.0962751,0.355573,0.00593476,0.0132913,0.152184
-0.128119,0.253081,-0.72764,0.120925,0.254823,0.364546,-0.0205735,0.0215363,0.150045
-0.123842,0.254055,-0.719829,0.0698361,0.361247,0.384321,-0.0295942,0.0338929,0.113855
-0.118809,0.253908,-0.711039,0.013448,0.338515,0.471841,-0.0165575,0.024168,0.0563144
-0.115742,0.252472,-0.700176,-0.0302844,0.221027,0.590938,0.00235575,0.0145839,0.00864869
-0.116171,0.25032,-0.687181,-0.0345077,0.0600272,0.674294,0.00751555,0.0254854,-0.0186389
-0.119725,0.248115,-0.673107,-0.0239941,-0.0607026,0.689612,-0.00134467,0.0543087,0.00681019
-0.12471,0.246038,-0.659662,-0.0294837,-0.0895303,0.619857,-0.0151313,0.0844908,0.0544546
-0.129234,0.244044,-0.648027,-0.023766,-0.0970639,0.522168,-0.0135247,0.0959076,0.107113
-0.133286,0.24237,-0.638052,-0.0185891,-0.0523724,0.474236,0.020472,0.0940384,0.137378
-0.13606,0.240483,-0.628318,-0.0439223,0.0165907,0.503815,0.0445182,0.0706001,0.173703
-0.138508,0.237607,-0.618055,-0.0981955,-0.0426411,0.503752,0.0551918,0.0475417,0.176616
-0.142893,0.234078,-0.608381,-0.113392,-0.163081,0.484422,0.0621994,0.0601781,0.135788
-0.148276,0.230804,-0.598823,-0.071554,-0.0870319,0.473471,0.0699021,0.0276191,0.132723
-0.146435,0.23009,-0.589759,0.0971965,0.582136,0.403704,0.0302354,0.0235668,0.249648
-0.133174,0.229415,-0.583123,-0.0939156,0.721396,0.263612,-0.0180677,-0.0171604,0.189054
-0.123241,0.224707,-0.578076,-0.292381,0.351628,0.316137,0.0657923,-0.0423311,-0.00169647
-0.121174,0.217304,-0.571155,-0.334461,0.0596035,0.417389,0.0637285,-0.0748842,-0.0851058
