attitude_roll,attitude_pitch,attitude_yaw,rotationRate_x,rotationRate_y,rotationRate_z,acceleration_x,acceleration_y,acceleration_z
-0.0361529,0.142044,0.00257226,-0.122302,0.409907,-0.112051,-0.0106668,-0.0237617,-0.22631
-0.0207204,0.13972,0.00129129,-0.0725815,1.00071,-0.0283112,-0.015158,-0.0350506,-0.350518
-0.00239748,0.141976,0.000650758,0.345955,0.683466,-0.0549055,-0.00646148,0.0113118,-0.472742
0.00121058,0.153762,-0.00219647,0.806417,-0.440751,-0.259026,0.014093,0.0941818,-0.400394
-0.0164656,0.171747,-0.0101943,0.923571,-1.31907,-0.536798,0.00958502,0.123357,-0.152404
-0.0404374,0.188845,-0.0225094,0.71936,-1.17655,-0.711988,-0.00866273,0.0756789,0.0824015
-0.0546072,0.200695,-0.036788,0.393742,-0.479965,-0.711213,0.0076777,0.00434339,0.220975
-0.0534629,0.205797,-0.0487442,0.0436026,0.344774,-0.459225,0.0338619,-0.0371385,0.234931
-0.0388734,0.203381,-0.0550182,-0.305695,0.922501,-0.170271,0.0380778,-0.042113,0.151165
-0.0185853,0.195539,-0.0572843,-0.434247,0.974533,-0.0430934,0.0334888,0.00264522,0.00482148
-0.00332916,0.188247,-0.0579873,-0.266711,0.483121,-0.0411509,0.0208179,0.0535005,-0.116518
0.000201109,0.185561,-0.0602162,-0.0161227,-0.157359,-0.195201,-0.014663,0.110173,-0.132402
-0.00610161,0.186502,-0.0659849,0.0828997,-0.510028,-0.367842,-0.0396128,0.12982,-0.034022
-0.015165,0.188328,-0.074794,0.0792025,-0.547966,-0.499357,-0.0543328,0.117255,0.0661442
-0.0230328,0.189791,-0.0859201,0.0475695,-0.429838,-0.589024,-0.0611688,0.0987188,0.137682
-0.0280281,0.191039,-0.0986761,0.0542495,-0.331936,-0.675219,-0.051709,0.0999893,0.155464
-0.0315821,0.192709,-0.11366,0.0595611,-0.315138,-0.811013,-0.0350782,0.106038,0.158124
-0.0338838,0.194029,-0.131784,0.00892007,-0.248516,-0.971326,-0.0045239,0.106144,0.153646
-0.0335311,0.194211,-0.152436,-0.0656199,-0.113523,-1.03866,0.0583615,0.0822747,0.122983
-0.030587,0.19295,-0.172944,-0.119732,0.00435858,-0.954384,0.125199,0.0319189,0.0585443
-0.0263759,0.190786,-0.190565,-0.146185,0.07561,-0.764634,0.182907,-0.0157678,-0.0293503
-0.0220901,0.188066,-0.204119,-0.162061,0.0884217,-0.567257,0.232407,-0.0459354,-0.111042
-0.0187604,0.184797,-0.214075,-0.19066,0.0655782,-0.418711,0.266487,-0.0583494,-0.183413
-0.0157656,0.181013,-0.221468,-0.199155,0.106479,-0.307563,0.290318,-0.0550356,-0.243496
-0.0113737,0.177543,-0.226595,-0.146937,0.272936,-0.186932,0.305552,-0.0531703,-0.30158
-0.00306782,0.175419,-0.228297,-0.0672696,0.527422,0.040067,0.325607,-0.0647521,-0.348313
0.00945747,0.174503,-0.224918,-0.0404259,0.773878,0.292052,0.341837,-0.0841781,-0.384036
0.0245797,0.173912,-0.216126,-0.0188452,0.84225,0.579394,0.350946,-0.077009,-0.400056
0.0365043,0.174748,-0.201796,0.0547873,0.565674,0.826595,0.365671,-0.0487503,-0.403322
0.0411186,0.176676,-0.183733,0.0435222,0.239298,0.947157,0.357955,-0.0154951,-0.316295
0.0421087,0.176874,-0.163611,-0.117039,0.299717,1.05414,0.328235,-0.0131647,-0.199488
0.047768,0.173898,-0.139796,-0.270101,0.711102,1.31083,0.325865,-0.0573236,-0.15323
0.0611468,0.170133,-0.109416,-0.229228,1.13541,1.66278,0.340988,-0.0762924,-0.199446
0.0793333,0.170625,-0.072884,0.0473543,1.23853,1.93036,0.293376,-0.0305499,-0.268155
0.0948977,0.178557,-0.0327511,0.39364,0.982118,2.06423,0.221509,0.0568366,-0.259753
0.103027,0.19282,0.00733843,0.603975,0.579,1.98141,0.154494,0.152626,-0.146539
0.104787,0.208882,0.0438529,0.598195,0.380558,1.74253,0.112094,0.233688,0.00704652
0.10612,0.223327,0.0757805,0.514047,0.46846,1.54895,0.100643,0.250726,0.109619
0.109948,0.2364,0.106323,0.476621,0.616816,1.59367,0.136733,0.226087,0.170663
0.115461,0.249415,0.139477,0.453856,0.714173,1.76185,0.168451,0.215846,0.202229
0.12042,0.26217,0.175794,0.394552,0.69014,1.87979,0.160617,0.242377,0.239491
0.123131,0.273634,0.214333,0.285081,0.606477,1.95166,0.156774,0.282607,0.287736
0.123879,0.282523,0.254092,0.119979,0.582034,1.964,0.144612,0.310442,0.35122
0.12465,0.287889,0.294743,-0.0692198,0.639741,1.98329,0.160269,0.352441,0.40862
0.125458,0.289596,0.336149,-0.249429,0.605395,1.99,0.17447,0.374905,0.43328
0.125133,0.288347,0.3781,-0.365498,0.576894,1.995,0.178518,0.383444,0.416749
0.124699,0.285633,0.420317,-0.401902,0.572068,2.00096,0.169482,0.389766,0.370628
0.12435,0.282594,0.462698,-0.407043,0.580782,2.00153,0.135345,0.379464,0.321572
0.124099,0.278996,0.504226,-0.459581,0.546749,1.90877,0.080713,0.375611,0.285986
0.125181,0.273537,0.542749,-0.55501,0.634493,1.69938,-0.0104557,0.361004,0.227153
0.130065,0.265388,0.576718,-0.68537,0.71411,1.46876,-0.0963647,0.305222,0.145057
0.13468,0.253992,0.60775,-0.867511,0.513739,1.38666,-0.150611,0.222125,0.0447233
0.13468,0.253992,0.60775,-0.867511,0.513739,1.38666,-0.150611,0.222125,0.0447233
0.136889,0.238098,0.638598,-1.11753,0.511758,1.35699,-0.265714,0.126464,-0.0552467
0.140753,0.218027,0.667895,-1.24205,0.474445,1.17333,-0.42043,0.0521038,-0.176197
0.140924,0.196311,0.692089,-1.25337,0.0130105,0.856958,-0.536412,0.011688,-0.283081
0.134753,0.172583,0.708992,-1.35527,-0.260981,0.457982,-0.598033,-0.0338541,-0.326719
0.129379,0.145381,0.71789,-1.45136,-0.0805724,0.0676288,-0.591876,-0.11749,-0.37531
0.130477,0.117457,0.720229,-1.29912,0.200972,-0.172936,-0.573547,-0.21988,-0.505673
0.135768,0.0954973,0.718311,-0.823875,0.248732,-0.295706,-0.563965,-0.296555,-0.665527
0.139364,0.0837734,0.712504,-0.2728,0.0383508,-0.465271,-0.552809,-0.298939,-0.723541
0.136884,0.0811758,0.701011,0.14243,-0.425044,-0.709553,-0.522207,-0.248198,-0.658154
0.123331,0.0842248,0.683698,0.352675,-1.09332,-0.970494,-0.478356,-0.184841,-0.49854
0.0979074,0.0892552,0.660865,0.387254,-1.58337,-1.24095,-0.45573,-0.143743,-0.292625
0.0683835,0.0949625,0.632756,0.429725,-1.56446,-1.51402,-0.439345,-0.120177,-0.149624
0.0439255,0.103056,0.599255,0.585425,-1.18614,-1.77259,-0.409599,-0.0924237,-0.0763486
0.0294793,0.115731,0.56115,0.830342,-0.669914,-1.97002,-0.358364,-0.0560664,-0.0647534
0.0254642,0.133668,0.519667,1.06974,-0.283399,-2.09435,-0.280575,-0.0147242,-0.0844675
0.027623,0.155429,0.476698,1.20597,-0.167206,-2.08708,-0.173908,0.0246622,-0.104396
0.0301505,0.178858,0.435037,1.25026,-0.308661,-1.95056,-0.0732594,0.0397224,-0.120449
0.0283859,0.202637,0.396433,1.24068,-0.60575,-1.78586,0.00276197,0.075765,-0.0887112
0.0220613,0.226385,0.360477,1.23699,-0.760514,-1.69568,0.0323974,0.130829,-0.0175438
0.014856,0.250863,0.325239,1.29053,-0.79519,-1.69873,0.0502916,0.189508,0.0682622
0.00803439,0.276952,0.289856,1.35703,-0.806005,-1.69031,0.0946126,0.247516,0.1681
0.00204956,0.303802,0.255253,1.33119,-0.792736,-1.61048,0.154645,0.285219,0.280696
-0.0039166,0.328927,0.223181,1.16246,-0.81186,-1.43348,0.209471,0.301131,0.384859
-0.0115223,0.349476,0.19571,0.85196,-0.876874,-1.16524,0.261833,0.320494,0.46134
-0.0222094,0.362641,0.174521,0.42204,-0.933821,-0.85448,0.296261,0.331796,0.492243
-0.034951,0.36676,0.158724,-0.0492679,-0.888885,-0.661809,0.261868,0.339336,0.458635
-0.0470365,0.361532,0.14531,-0.531873,-0.778074,-0.581734,0.208546,0.34205,0.382213
-0.0541552,0.347224,0.132852,-0.93393,-0.309066,-0.522934,0.182566,0.334383,0.227959
-0.0498827,0.327094,0.120793,-1.11175,0.340656,-0.51307,0.143776,0.303181,0.000672638
-0.0333892,0.305319,0.109437,-1.10531,0.923903,-0.470414,0.125879,0.255767,-0.227002
-0.00981597,0.284493,0.099821,-0.994347,1.07651,-0.403192,0.127295,0.200806,-0.435399
0.0110187,0.265843,0.0923924,-0.891386,0.761529,-0.308658,0.153889,0.145902,-0.591263
0.0229433,0.248121,0.0874784,-0.889814,0.316844,-0.192247,0.182488,0.0745621,-0.650615
0.0264507,0.230227,0.0857997,-0.886289,0.0298719,-0.00988028,0.211555,0.00346678,-0.632988
0.0256339,0.213689,0.0880725,-0.749211,-0.029546,0.196708,0.232352,-0.0328371,-0.558069
0.0235648,0.201644,0.0951972,-0.464704,-0.0469987,0.487083,0.238374,-0.0610569,-0.437602
0.0194799,0.195329,0.108426,-0.218415,-0.0968751,0.788365,0.203197,-0.0669121,-0.271491
0.0136209,0.192458,0.126482,-0.112897,-0.142171,0.963076,0.141508,-0.0469784,-0.10791
0.00604404,0.191173,0.146858,-0.0378262,-0.238578,1.02414,0.123262,-0.0173561,0.0108473
-0.00319552,0.191114,0.167474,0.0228152,-0.267164,0.997742,0.123178,0.018108,0.121482
-0.0113016,0.191598,0.1875,0.0341357,-0.143018,0.983745,0.127107,0.0305769,0.209162
-0.0159688,0.191675,0.207906,-0.0105171,0.0887389,1.03641,0.139455,0.0185677,0.275308
-0.0144835,0.190129,0.229763,-0.122225,0.481637,1.11266,0.130692,0.00711656,0.324131
-0.00636801,0.186178,0.25262,-0.244747,0.717436,1.14424,0.110582,0.0129087,0.332263
0.00360165,0.180427,0.276292,-0.322475,0.679075,1.18775,0.121731,0.021018,0.297787
0.0104119,0.173558,0.300731,-0.381641,0.408561,1.21246,0.102278,0.0181932,0.286711
0.0116776,0.165975,0.325098,-0.398848,0.154768,1.1792,0.0646397,0.0141524,0.308349
0.00968183,0.158466,0.348475,-0.375364,0.0496474,1.11989,0.0117104,-0.00273411,0.332502
0.00799371,0.151656,0.37022,-0.323593,0.142753,1.01816,-0.0292794,-0.0155965,0.357875
0.0102177,0.146026,0.389217,-0.263745,0.387853,0.858339,-0.070381,-0.022766,0.360949
0.0102177,0.146026,0.389217,-0.263745,0.387853,0.858339,-0.070381,-0.022766,0.360949
0.0189055,0.141587,0.404923,-0.20049,0.705362,0.695475,-0.107064,-0.0424484,0.31019
0.0332793,0.138772,0.417468,-0.122914,0.8891,0.543443,-0.152475,-0.072412,0.207123
0.0507361,0.136929,0.42706,-0.125699,0.984157,0.411671,-0.208428,-0.115895,0.0787817
0.0694627,0.134157,0.435038,-0.214868,0.963504,0.37329,-0.24432,-0.168262,-0.0815354
0.0853012,0.129911,0.443244,-0.281413,0.685205,0.410111,-0.294975,-0.216111,-0.286766
0.0941046,0.12446,0.452367,-0.359054,0.344992,0.433779,-0.310371,-0.2181,-0.44784
0.0991247,0.117222,0.461346,-0.43091,0.294508,0.362959,-0.335908,-0.216344,-0.583378
0.102931,0.110772,0.46755,-0.218589,0.103317,0.170776,-0.379341,-0.197392,-0.737875
0.100095,0.111015,0.468192,0.256985,-0.436455,-0.120164,-0.349008,-0.133369,-0.808127
0.0837669,0.120374,0.46149,0.700974,-1.30066,-0.45263,-0.288447,-0.0783568,-0.710028
0.0531263,0.13512,0.448756,0.804492,-1.82641,-0.694282,-0.228322,-0.0423686,-0.433136
0.020213,0.149252,0.432408,0.654031,-1.60124,-0.863275,-0.209364,-0.0665574,-0.166272
-0.00220452,0.160737,0.413792,0.540309,-0.882734,-0.964866,-0.192633,-0.0894966,-0.0468588
-0.00793321,0.17267,0.393111,0.693071,-0.0833716,-1.10558,-0.167585,-0.0537723,-0.0795072
-0.0013894,0.190355,0.369395,1.0828,0.209637,-1.22871,-0.108438,0.0212845,-0.15994
0.00543583,0.215314,0.343538,1.38516,-0.12563,-1.29973,-0.0404207,0.0923317,-0.136707
0.00406988,0.242668,0.316265,1.31063,-0.59008,-1.34893,-0.0016618,0.134092,-0.0253861
-0.00272294,0.265706,0.288244,0.984118,-0.741476,-1.36257,0.0127134,0.127763,0.075408
-0.0084344,0.282302,0.260828,0.677161,-0.534469,-1.27733,0.0175609,0.117968,0.134165
-0.008685,0.293983,0.23628,0.500616,-0.187916,-1.08525,0.0183526,0.0980552,0.134613
-0.00436316,0.303722,0.215706,0.480645,-0.0527657,-0.900387,0.0212228,0.10898,0.0961428
-0.00178156,0.313345,0.198443,0.467732,-0.239373,-0.765084,0.0124065,0.150192,0.100263
-0.00406632,0.322009,0.182966,0.390887,-0.477886,-0.732491,-0.0122865,0.183141,0.153199
-0.0107268,0.329213,0.167113,0.328772,-0.683073,-0.788017,-0.037762,0.214442,0.232162
-0.0198971,0.335755,0.149734,0.306071,-0.786738,-0.87286,-0.0397021,0.236128,0.325857
-0.0291999,0.342234,0.130539,0.296445,-0.772896,-0.956001,-0.030084,0.243414,0.401826
-0.036929,0.348638,0.110083,0.279079,-0.689804,-0.985926,-0.00732332,0.241474,0.457661
-0.0419641,0.35462,0.0895219,0.240586,-0.519241,-0.967278,0.0195051,0.237004,0.471636
-0.0439765,0.359683,0.0696982,0.182217,-0.396584,-0.913469,0.0291099,0.226703,0.451644
-0.0453948,0.363189,0.0509631,0.0747107,-0.454277,-0.859004,0.0362392,0.226686,0.379027
-0.0493965,0.363263,0.0334209,-0.175441,-0.513753,-0.77666,0.0559199,0.220514,0.308709
-0.0503689,0.357185,0.0175863,-0.512804,-0.0833506,-0.681495,0.0750477,0.184843,0.187222
-0.0417128,0.345356,0.00362047,-0.710518,0.464114,-0.556811,0.0994802,0.14032,0.014279
-0.025228,0.33069,-0.00622506,-0.782933,0.809061,-0.307254,0.124292,0.100392,-0.197854
-0.00778649,0.314962,-0.00971599,-0.806845,0.774842,0.00818096,0.153232,0.0510375,-0.398372
0.00471514,0.298393,-0.00651126,-0.869153,0.587747,0.280207,0.179896,0.0290314,-0.524593
0.0129089,0.280706,0.00130696,-0.886352,0.467028,0.433979,0.152498,0.0183057,-0.595601
0.0191293,0.264453,0.0106148,-0.729894,0.408469,0.421333,0.13324,0.0191782,-0.632017
0.0239849,0.252966,0.0192374,-0.430252,0.278627,0.396442,0.16071,0.0385304,-0.592941
0.0253547,0.24728,0.0283611,-0.189023,0.103817,0.506974,0.213487,0.0173661,-0.468718
0.0242664,0.24464,0.0412957,-0.127413,0.118647,0.752682,0.247897,-0.0232351,-0.299592
0.0225848,0.242638,0.0593882,-0.108593,0.139233,0.987214,0.235235,-0.0369267,-0.157958
0.01953,0.241701,0.0809501,-0.019077,0.0512632,1.08825,0.215063,0.00240104,-0.0698718
0.0133671,0.242783,0.10324,0.0869022,-0.11891,1.06692,0.205318,0.0494566,0.0212604
0.00636617,0.245495,0.124331,0.161082,-0.0121738,0.989509,0.20873,0.0782566,0.120098
0.00433214,0.249562,0.144197,0.241183,0.30349,0.956871,0.219191,0.0765694,0.179934
0.00893185,0.255048,0.164307,0.280676,0.671271,1.01385,0.234796,0.0730923,0.229682
0.0197587,0.260398,0.186432,0.216353,0.939793,1.15168,0.251722,0.0600315,0.256855
0.0318454,0.26446,0.21185,0.120923,0.88535,1.31561,0.247999,0.0500391,0.25103
0.0399923,0.266525,0.240373,-0.0216697,0.680717,1.4477,0.226811,0.0620261,0.263176
0.0436395,0.265623,0.271638,-0.188749,0.529409,1.57002,0.199375,0.0653063,0.282721
0.0436395,0.265623,0.271638,-0.188749,0.529409,1.57002,0.199375,0.0653063,0.282721
0.0449876,0.2622,0.30526,-0.282744,0.504545,1.65704,0.158576,0.065541,0.28441
0.0463199,0.257891,0.340222,-0.288749,0.530495,1.70426,0.125928,0.0839295,0.289105
0.0478791,0.254203,0.375805,-0.24125,0.521666,1.7291,0.0943023,0.0966888,0.300098
0.0491329,0.251144,0.411809,-0.256623,0.509546,1.74243,0.0579727,0.0976637,0.314124
0.0500816,0.246808,0.447888,-0.363253,0.461568,1.73818,0.0149176,0.0812855,0.321432
0.0503788,0.240055,0.484018,-0.48795,0.462903,1.74101,-0.0129333,0.0530638,0.289215
0.0524915,0.231043,0.519601,-0.594028,0.59122,1.6636,-0.0674764,0.0305374,0.21754
0.059006,0.220154,0.552588,-0.67211,0.810817,1.48251,-0.115776,0.015957,0.112288
0.0711706,0.208345,0.581625,-0.670078,0.975881,1.28674,-0.144982,-0.0281601,-0.0419855
0.082942,0.198123,0.60736,-0.53725,0.656537,1.17013,-0.15189,-0.0922789,-0.214492
0.0861921,0.190336,0.631197,-0.470519,0.129067,1.09141,-0.12991,-0.117665,-0.294837
0.0805045,0.181924,0.652943,-0.572064,-0.250281,0.973211,-0.131352,-0.152787,-0.293461
0.0713414,0.170648,0.672407,-0.68817,-0.280903,0.864178,-0.129984,-0.192651,-0.302463
0.0650793,0.157986,0.690143,-0.67898,-0.0335634,0.809361,-0.119598,-0.201862,-0.343646
0.063952,0.146851,0.706912,-0.515814,0.107012,0.771969,-0.108509,-0.230874,-0.461195
0.0611146,0.140371,0.722179,-0.214423,-0.247415,0.689087,-0.0897421,-0.22273,-0.558926
0.0482005,0.140258,0.734589,0.130576,-0.879352,0.517735,-0.0609686,-0.155718,-0.534804
0.0254005,0.146151,0.742277,0.417674,-1.21101,0.267508,-0.0592457,-0.110228,-0.396326
0.00215352,0.157075,0.74558,0.667345,-1.00034,0.0924091,-0.0399993,-0.0802187,-0.242599
-0.0136626,0.172843,0.746967,0.918185,-0.57505,0.0640109,0.00547828,-0.0646492,-0.130059
-0.0229145,0.193375,0.749502,1.1274,-0.350146,0.163165,0.0594422,-0.0299496,-0.0533203
-0.0306123,0.21641,0.754583,1.16664,-0.344521,0.262329,0.0873277,0.0254851,0.031225
-0.0390013,0.238586,0.761364,1.06093,-0.324167,0.322825,0.0860131,0.0754247,0.104235
-0.046338,0.257489,0.769418,0.851662,-0.187164,0.383882,0.088053,0.110366,0.156775
-0.049759,0.271503,0.779109,0.596127,0.1178,0.498726,0.106129,0.127188,0.182803
-0.0478521,0.280979,0.791895,0.438166,0.402843,0.700348,0.126143,0.119612,0.133818
-0.0436812,0.288269,0.80888,0.377346,0.454571,0.889749,0.121226,0.134254,0.0727216
-0.0416343,0.294536,0.829024,0.336701,0.313719,1.00317,0.0840651,0.168119,0.0468822
-0.0436984,0.300135,0.850381,0.313051,0.0854697,1.00103,0.039275,0.195277,0.0451743
-0.0506457,0.305183,0.870652,0.278623,-0.158819,0.901291,0.00263054,0.220008,0.094018
-0.0602412,0.309161,0.888091,0.21037,-0.257821,0.737037,-0.0229871,0.233291,0.162989
-0.0699068,0.312062,0.902023,0.177393,-0.280763,0.578945,-0.0305238,0.223434,0.220023
-0.0789048,0.31497,0.91319,0.195517,-0.271582,0.46797,-0.0163632,0.21111,0.273012
-0.0865378,0.318178,0.922351,0.189517,-0.196822,0.377518,-0.000656806,0.193299,0.325495
-0.0917812,0.320948,0.929697,0.139581,-0.0988355,0.299737,0.00558193,0.168615,0.371304
-0.0946126,0.322148,0.935623,0.0149051,0.0153774,0.257645,0.0121428,0.147293,0.408045
-0.0942434,0.320046,0.940571,-0.184551,0.183638,0.235633,0.00978144,0.114598,0.421937
-0.0906222,0.313985,0.944996,-0.381233,0.305472,0.244713,0.016097,0.0825028,0.392901
-0.0845882,0.304042,0.949652,-0.5704,0.457694,0.2819,0.0206453,0.0548111,0.341439
-0.0750562,0.290811,0.954513,-0.701652,0.617832,0.277992,-0.0151684,0.0222483,0.239632
-0.0635534,0.275878,0.958884,-0.756112,0.646829,0.249196,-0.0115227,0.00792626,0.1363
-0.0519057,0.260237,0.963066,-0.779002,0.622679,0.255182,0.00200922,-0.0229033,0.024659
-0.0421951,0.244837,0.967963,-0.730092,0.438178,0.290237,0.00727894,-0.0809658,-0.140855
-0.0371548,0.231243,0.973577,-0.607861,0.222998,0.297196,0.00556364,-0.0972133,-0.246619
-0.0346791,0.220425,0.978715,-0.452178,0.176153,0.234923,-0.0102341,-0.112807,-0.288378
-0.0312435,0.213698,0.982707,-0.186761,0.252933,0.182726,-0.0144398,-0.137137,-0.32048
-0.0269423,0.213524,0.98632,0.182846,0.253518,0.174723,0.014044,-0.139948,-0.333733
-0.0227397,0.220238,0.990187,0.464482,0.249426,0.193309,0.0444511,-0.128203,-0.289467
-0.0193012,0.230298,0.994829,0.511889,0.179359,0.242077,0.0690834,-0.118626,-0.201235
-0.0181895,0.239007,1.00065,0.348447,0.0844355,0.318569,0.100481,-0.111193,-0.102058
-0.0181895,0.239007,1.00065,0.348447,0.0844355,0.318569,0.100481,-0.111193,-0.102058
-0.0181514,0.243496,1.00871,0.117172,0.138223,0.481327,0.152991,-0.0998605,-0.0322986
-0.0163661,0.243456,1.02166,-0.104118,0.384847,0.796899,0.194609,-0.10814,-0.00906563
-0.00995711,0.239143,1.0421,-0.29086,0.746264,1.204,0.198394,-0.126838,-0.0342137
0.000848983,0.232712,1.0698,-0.309528,0.941203,1.45096,0.162138,-0.0903975,-0.110833
0.011903,0.228397,1.09996,-0.117415,0.816564,1.46492,0.108402,0.007346,-0.18708
0.0180934,0.229832,1.12849,0.240146,0.397834,1.29276,0.0746075,0.0822907,-0.202221
0.0142736,0.238928,1.15203,0.617828,-0.234779,1.01542,0.0821406,0.163938,-0.103519
0.00179013,0.253796,1.17026,0.815884,-0.449464,0.789048,0.102134,0.203076,0.0571981
-0.0070918,0.26981,1.18508,0.754259,0.0119294,0.661298,0.0940392,0.163613,0.194037
-0.00392731,0.282506,1.19936,0.502835,0.697909,0.747955,0.143252,0.138169,0.277857
0.0103846,0.288817,1.2177,0.105041,1.22808,1.03249,0.248331,0.116331,0.274097
0.0310129,0.287147,1.24258,-0.301194,1.45485,1.36218,0.306077,0.0872483,0.173377
0.0471644,0.280458,1.2749,-0.460519,0.971038,1.71065,0.296355,0.0789198,0.0268921
0.0483468,0.272584,1.31283,-0.510502,0.188616,1.86483,0.229198,0.117396,-0.0357581
0.0372962,0.263417,1.35114,-0.578265,-0.174709,1.76843,0.123148,0.15891,0.0109314
0.0252047,0.252427,1.38589,-0.617672,-0.131674,1.56181,0.0442917,0.176756,0.0752558
0.0169304,0.241436,1.41612,-0.525873,0.0470052,1.36486,0.0193586,0.153953,0.113267
0.0131093,0.233321,1.4427,-0.324736,0.164189,1.22672,0.0376156,0.124627,0.124493
0.0107987,0.229006,1.46726,-0.166629,0.144206,1.18095,0.0557829,0.0787553,0.151784
0.0075638,0.225825,1.49155,-0.212909,0.100381,1.19302,0.0493147,0.0297423,0.195605
0.00489116,0.219642,1.51581,-0.438334,0.183884,1.16667,0.0185571,-0.0216213,0.208294
0.00553242,0.208508,1.53888,-0.676308,0.410165,1.08142,-0.0267443,-0.0740815,0.167291
0.0127425,0.194083,1.56,-0.777806,0.709884,0.9894,-0.0690825,-0.132009,0.0353904
0.0250183,0.177995,1.58025,-0.87857,0.884502,0.997958,-0.0778278,-0.193884,-0.115152
0.0391792,0.160723,1.60173,-0.902309,0.841159,1.07272,-0.057097,-0.251895,-0.30576
0.048943,0.144795,1.62499,-0.784795,0.443447,1.15575,-0.0318862,-0.281659,-0.503639
0.0492861,0.131768,1.64922,-0.65383,-0.0860621,1.16316,-0.0508685,-0.280814,-0.610306
0.0398323,0.120832,1.67201,-0.551166,-0.548059,1.03221,-0.123211,-0.266516,-0.619071
0.0241684,0.111764,1.69057,-0.404709,-0.757806,0.768904,-0.203825,-0.235957,-0.563292
0.00846684,0.106578,1.70287,-0.103554,-0.635993,0.441981,-0.259792,-0.208657,-0.509326
-0.00254805,0.108991,1.70853,0.359028,-0.422431,0.123984,-0.280899,-0.178288,-0.470567
-0.00947177,0.120923,1.7082,0.817121,-0.289364,-0.163812,-0.258069,-0.113945,-0.390861
-0.0140739,0.140446,1.70273,1.10534,-0.282683,-0.395215,-0.223568,-0.0527187,-0.269191
-0.0203955,0.163816,1.69348,1.19324,-0.523361,-0.542452,-0.19277,0.00329427,-0.132627
-0.0314871,0.187327,1.6822,1.11186,-0.767279,-0.627424,-0.170424,0.0427858,-0.0122442
-0.0451351,0.208376,1.66917,0.940037,-0.816123,-0.735324,-0.160004,0.0823143,0.0836339
-0.0563397,0.226398,1.65404,0.799317,-0.600777,-0.829627,-0.154966,0.107969,0.123722
-0.0605568,0.242483,1.63769,0.718381,-0.178863,-0.848907,-0.141888,0.130311,0.13312
-0.0560603,0.257275,1.62132,0.677276,0.168972,-0.817698,-0.121808,0.145285,0.0941688
-0.0485855,0.271611,1.60573,0.689136,0.117543,-0.767744,-0.084165,0.174121,0.0330346
-0.0452449,0.286587,1.59084,0.74711,-0.225795,-0.740618,-0.0637319,0.22459,0.0363575
-0.0496278,0.302305,1.57598,0.751921,-0.638772,-0.763691,-0.0760552,0.261589,0.131303
-0.0610703,0.317272,1.56013,0.643532,-0.981834,-0.840838,-0.0889101,0.294031,0.271744
-0.0770373,0.329498,1.54213,0.456828,-1.16968,-0.957081,-0.0808198,0.317648,0.40696
-0.0943175,0.338301,1.52159,0.253111,-1.2132,-1.05109,-0.0650147,0.311484,0.50355
-0.110227,0.342767,1.49961,-0.0360366,-1.08583,-1.04409,-0.0395991,0.292958,0.567613
-0.121061,0.340993,1.47776,-0.377375,-0.702646,-0.983176,-0.0120879,0.268551,0.579111
-0.123249,0.333383,1.45638,-0.610418,-0.230955,-0.939385,-0.0230837,0.235094,0.493422
-0.116351,0.322303,1.43496,-0.728787,0.23144,-0.966836,-0.0429952,0.234797,0.341433
-0.101972,0.309642,1.41167,-0.775495,0.430954,-1.10613,-0.0427856,0.231979,0.106812
-0.0846568,0.29584,1.386,-0.84657,0.545209,-1.19866,-0.0127761,0.199609,-0.106774
-0.0846568,0.29584,1.386,-0.84657,0.545209,-1.19866,-0.0127761,0.199609,-0.106774
-0.0652749,0.279841,1.35991,-0.934977,0.638533,-1.15343,0.0373768,0.117252,-0.304299
-0.0471764,0.262346,1.337,-0.922088,0.50708,-0.936657,0.117201,0.0341581,-0.523877
-0.035966,0.245368,1.32005,-0.858963,0.182846,-0.633154,0.174697,-0.0211401,-0.682847
-0.0332531,0.228542,1.30939,-0.880457,-0.140777,-0.356463,0.170261,-0.0644274,-0.727514
-0.0360943,0.210753,1.30312,-0.891079,-0.258258,-0.232393,0.12678,-0.0764482,-0.713361
-0.041135,0.19606,1.29729,-0.545112,-0.364243,-0.304511,0.0619878,-0.068698,-0.728148
-0.0470038,0.190727,1.2894,-0.0291199,-0.332613,-0.449215,0.0594554,-0.0314053,-0.648093
-0.0488318,0.194679,1.27947,0.360637,-0.0032574,-0.51737,0.108849,-0.0384058,-0.444498
-0.0433942,0.204792,1.27073,0.578861,0.362818,-0.342696,0.189554,-0.0547695,-0.24893
-0.0328863,0.216958,1.26807,0.605764,0.604473,0.0514218,0.271154,-0.0666615,-0.0970456
-0.0214766,0.228288,1.27358,0.54058,0.624284,0.442634,0.291929,-0.034539,0.00115919
-0.0137509,0.238655,1.286,0.534308,0.410826,0.73729,0.299524,0.04679,0.0553815
-0.0130557,0.249971,1.30365,0.628762,0.07571,0.948271,0.311035,0.126511,0.115276
-0.019828,0.26283,1.32495,0.668511,-0.172274,1.09413,0.319759,0.193728,0.220321
-0.0300817,0.275093,1.34979,0.612424,-0.150951,1.28653,0.332154,0.229659,0.324041
-0.0390671,0.28524,1.37913,0.497616,0.0907728,1.50936,0.326023,0.237305,0.398025
-0.0438166,0.292321,1.41319,0.347306,0.389004,1.71471,0.303495,0.241514,0.427011
-0.0452601,0.295884,1.4501,0.157858,0.50493,1.78772,0.258565,0.262502,0.431136
-0.0466997,0.295149,1.48752,-0.0697944,0.418028,1.7952,0.221605,0.281254,0.432065
-0.0507838,0.289969,1.52451,-0.268949,0.258473,1.79269,0.183698,0.260944,0.421617
-0.0560611,0.281282,1.56154,-0.392536,0.290417,1.80536,0.143612,0.213959,0.397774
-0.0583109,0.271072,1.59825,-0.399886,0.49758,1.77918,0.0843328,0.170185,0.353815
-0.0550031,0.26213,1.63338,-0.29392,0.7292,1.66211,0.0226866,0.154402,0.283838
-0.0481779,0.255534,1.66604,-0.224617,0.776726,1.54136,-0.00726802,0.14531,0.241629
-0.0399233,0.248682,1.69637,-0.358651,0.814743,1.43381,-0.0494194,0.096926,0.214101
-0.0299831,0.238207,1.72472,-0.593648,0.857906,1.37863,-0.0895203,0.0411058,0.148343
-0.0190894,0.224159,1.75223,-0.719424,0.86674,1.33362,-0.118291,-0.0244482,0.00947177
-0.0075354,0.209879,1.77843,-0.653295,0.845868,1.24862,-0.166016,-0.0891439,-0.168471
0.00387406,0.198217,1.80245,-0.515543,0.77308,1.10601,-0.186202,-0.135766,-0.312847
0.0140516,0.189184,1.8233,-0.419623,0.65856,0.937931,-0.198264,-0.182578,-0.399073
0.0234171,0.181568,1.84096,-0.383023,0.602501,0.800635,-0.187703,-0.217057,-0.448989
0.0323988,0.175084,1.85618,-0.293426,0.560269,0.686739,-0.174201,-0.248859,-0.503583
0.0389443,0.171321,1.86907,-0.119497,0.263813,0.574956,-0.186634,-0.258608,-0.554541
0.0374329,0.171198,1.87946,0.0588959,-0.244133,0.445214,-0.199215,-0.24988,-0.529332
0.0270915,0.173514,1.88626,0.133478,-0.645266,0.212464,-0.224023,-0.218194,-0.410488
0.0123221,0.176315,1.88774,0.149342,-0.75555,-0.062891,-0.258774,-0.185498,-0.259581
-0.000883507,0.1803,1.8838,0.26999,-0.60579,-0.321946,-0.260789,-0.157116,-0.167486
-0.00863959,0.188077,1.87475,0.518049,-0.333938,-0.568858,-0.25227,-0.113369,-0.118547
-0.0104347,0.201355,1.86116,0.792806,-0.135287,-0.7728,-0.227935,-0.0524591,-0.0896997
-0.00976285,0.219074,1.84403,0.935513,-0.203756,-0.921206,-0.206749,0.0112251,-0.0554262
-0.0113451,0.237421,1.82395,0.852914,-0.423731,-1.05794,-0.191,0.0635968,0.00130409
-0.015904,0.252669,1.80114,0.640764,-0.544457,-1.17883,-0.177396,0.0919846,0.055681
-0.0189463,0.264276,1.77612,0.501907,-0.359179,-1.25904,-0.156746,0.103832,0.0816705
-0.0161594,0.274545,1.7502,0.50061,-0.0704559,-1.24708,-0.124507,0.106589,0.0650535
-0.00948923,0.28534,1.72517,0.549181,0.0192631,-1.18566,-0.0841868,0.120107,0.0573775
-0.00240631,0.296756,1.70102,0.577709,-0.0354022,-1.13801,-0.0674468,0.154098,0.0930673
0.00185515,0.308228,1.67785,0.561773,-0.237928,-1.07344,-0.0595222,0.170787,0.157736
0.00162152,0.318623,1.65627,0.474474,-0.455759,-0.986515,-0.0445849,0.180294,0.243841
-0.00296434,0.326734,1.63645,0.333683,-0.616592,-0.896157,-0.0369264,0.177229,0.325891
-0.010244,0.332179,1.61869,0.200507,-0.684558,-0.797864,-0.0189721,0.171959,0.384707
-0.0189435,0.33486,1.6027,0.0393228,-0.702648,-0.729281,-0.027169,0.177102,0.432843
-0.0275801,0.334114,1.58744,-0.149848,-0.667735,-0.72598,-0.0560254,0.182501,0.452246
-0.0354564,0.330208,1.57124,-0.279792,-0.665396,-0.814173,-0.0864002,0.186453,0.417869
-0.0433433,0.32454,1.55266,-0.353782,-0.723858,-0.923162,-0.0892422,0.198648,0.354271
-0.0518646,0.317736,1.53197,-0.432934,-0.771785,-1.00146,-0.0677732,0.174615,0.288817
-0.0597383,0.308128,1.51033,-0.674906,-0.654416,-0.986571,-0.0588622,0.113548,0.222245
-0.0637853,0.292928,1.48963,-0.949798,-0.346412,-0.896889,-0.0434043,0.0470269,0.0935934
-0.0626509,0.274354,1.47083,-0.970883,-0.0964953,-0.787917,-0.0199624,-0.0144755,-0.133145
-0.0595488,0.257739,1.45493,-0.773404,-0.0273025,-0.635269,0.0297158,-0.0434452,-0.330964
-0.0569516,0.245144,1.44323,-0.56603,-0.000171448,-0.41921,0.0605596,-0.068812,-0.458335
-0.0548792,0.235325,1.43617,-0.484199,0.0574989,-0.224951,0.0804853,-0.0849256,-0.522739
-0.0512187,0.225547,1.43237,-0.520059,0.2243,-0.107212,0.0809817,-0.0853511,-0.569972
-0.0451363,0.215709,1.43027,-0.442637,0.306111,-0.0469672,0.0879443,-0.0899604,-0.645081
-0.0402709,0.209655,1.42995,-0.143752,0.15276,0.0519789,0.157543,-0.0730515,-0.696473
-0.0402406,0.209774,1.43269,0.150155,-0.0922739,0.227439,0.244029,-0.0443396,-0.610681
-0.0453548,0.214033,1.43975,0.282984,-0.248854,0.457887,0.280175,-0.0352015,-0.410038
-0.05334,0.219409,1.45193,0.299536,-0.265186,0.69955,0.292012,-0.00993219,-0.193178
-0.0612691,0.224631,1.46823,0.324575,-0.157373,0.850872,0.274033,0.0297386,-0.0326445
-0.0671875,0.230702,1.48705,0.406827,-0.0049951,0.932024,0.279943,0.0801169,0.0566062
-0.0705816,0.238492,1.50729,0.504621,0.139783,0.982452,0.287643,0.123322,0.132835
-0.0707666,0.247863,1.52906,0.575235,0.363404,1.07403,0.314778,0.154405,0.176729
-0.0678155,0.257708,1.55321,0.547649,0.544371,1.20426,0.320683,0.154508,0.211839
-0.061902,0.265191,1.58002,0.349584,0.723799,1.33179,0.308159,0.171212,0.247053
-0.0554347,0.268304,1.60857,0.138319,0.638731,1.39191,0.266391,0.180105,0.221621
-0.0523034,0.268375,1.6372,0.0338191,0.445287,1.3626,0.231148,0.200254,0.173715
-0.0523034,0.268375,1.6372,0.0338191,0.445287,1.3626,0.231148,0.200254,0.173715
-0.051646,0.267252,1.66487,0.00136609,0.397351,1.3286,0.205552,0.192243,0.1646
-0.0491154,0.265933,1.69271,0.0202974,0.606536,1.37745,0.180884,0.137443,0.181549
-0.0432658,0.265747,1.72183,0.0864538,0.728517,1.43262,0.156099,0.109065,0.182164
-0.0360271,0.266331,1.7515,0.0650623,0.756818,1.42642,0.108053,0.109416,0.201956
-0.029214,0.266039,1.78051,0.000567466,0.677767,1.37374,0.0628197,0.106341,0.225227
-0.0242114,0.26519,1.80825,-0.00785971,0.550133,1.31545,0.0534683,0.107902,0.235161
-0.0210967,0.264845,1.83504,0.0301623,0.481248,1.28748,0.060124,0.102549,0.252546
-0.0181702,0.265283,1.86185,0.0586817,0.509772,1.31553,0.0655835,0.0874537,0.288284
-0.0147503,0.265749,1.88956,0.0166617,0.555521,1.3688,0.0661882,0.0827005,0.329217
-0.0114499,0.264641,1.91856,-0.104381,0.513348,1.44456,0.0593604,0.0717744,0.34113
-0.00951792,0.260159,1.94926,-0.333574,0.526117,1.52819,0.0327113,0.054613,0.342923
-0.00454377,0.25066,1.98085,-0.58405,0.787752,1.53302,-0.0362934,0.0182766,0.287556
0.00704125,0.237614,2.01168,-0.700065,1.11773,1.45343,-0.110527,-0.0232675,0.131317
0.0240513,0.22457,2.04004,-0.624951,1.15891,1.28787,-0.192131,-0.0731348,-0.110673
0.0376889,0.214217,2.06474,-0.50461,0.693414,1.10419,-0.213134,-0.117602,-0.315512
0.0416648,0.204624,2.08644,-0.581666,0.181267,0.996965,-0.211667,-0.173861,-0.392318
0.0389519,0.191369,2.10692,-0.833713,0.0408868,0.976181,-0.19381,-0.245755,-0.412875
0.0382511,0.174068,2.12736,-0.928446,0.270305,0.970038,-0.209341,-0.295728,-0.510598
0.0421622,0.158063,2.14662,-0.716444,0.403776,0.850441,-0.238173,-0.263416,-0.6511
0.0469208,0.148447,2.16191,-0.304302,0.259291,0.599848,-0.249711,-0.196839,-0.712892
0.0472771,0.146833,2.17069,0.0856282,-0.113943,0.25742,-0.244078,-0.136424,-0.646296
0.0406902,0.15154,2.1719,0.364431,-0.506225,-0.119304,-0.205923,-0.0818888,-0.472819
0.0302375,0.160716,2.16579,0.568806,-0.576317,-0.428035,-0.178265,-0.0534451,-0.282213
0.0225572,0.173481,2.15514,0.736076,-0.347325,-0.575101,-0.136032,-0.0302692,-0.134081
0.0204337,0.189718,2.14225,0.924755,-0.125161,-0.661344,-0.110337,0.00091362,-0.0435381
0.0210675,0.209857,2.12761,1.11188,-0.138306,-0.732489,-0.101002,0.0500711,-0.000824511
0.0209668,0.232537,2.11133,1.17246,-0.231681,-0.819448,-0.0867615,0.110239,0.0536662
0.02029,0.254904,2.09303,1.0904,-0.266248,-0.903917,-0.060908,0.135011,0.118352
0.0201346,0.274931,2.07412,0.955003,-0.243427,-0.858151,-0.0276626,0.128369,0.155181
0.0209631,0.292568,2.05737,0.850981,-0.133435,-0.709604,-0.0151728,0.102499,0.169118
0.023486,0.308431,2.04397,0.772047,-0.0163337,-0.546675,-0.0227419,0.0936485,0.167636
0.0270082,0.32307,2.03337,0.726741,0.0337608,-0.428579,-0.0280645,0.110158,0.159681
0.0309835,0.336883,2.02523,0.675747,0.11426,-0.305652,-0.00386183,0.12698,0.187203
0.0361008,0.349427,2.01943,0.594698,0.184435,-0.212346,-0.00539313,0.138869,0.215583
0.0407816,0.360015,2.01518,0.483187,0.127282,-0.155382,-0.0191136,0.158456,0.238809
0.0437431,0.368465,2.01147,0.384604,0.0335561,-0.162737,-0.0300977,0.176697,0.267728
0.0452216,0.375184,2.00694,0.306942,-0.0311786,-0.243665,-0.0389794,0.200107,0.314468
0.047397,0.379377,1.99988,0.0679693,-0.0143429,-0.416013,-0.0536539,0.214031,0.370937
0.0528486,0.376844,1.9896,-0.249858,0.227879,-0.532005,-0.0405877,0.186011,0.409032
0.064397,0.36914,1.97854,-0.445646,0.523184,-0.513688,-0.0141802,0.141392,0.41685
0.0797356,0.358222,1.97008,-0.585509,0.6799,-0.364218,0.0383811,0.0964743,0.367262
0.095154,0.344749,1.96492,-0.720943,0.673872,-0.23899,0.0669977,0.0582516,0.334364
0.105943,0.328749,1.96377,-0.851025,0.296198,-0.0142967,0.154114,0.0397781,0.292886
0.10512,0.311557,1.96752,-0.889592,-0.199022,0.187024,0.286539,-0.025856,0.152749
0.0981456,0.294177,1.97525,-0.913741,-0.239315,0.357084,0.247377,-0.115031,0.124463
0.0905143,0.27685,1.98455,-0.907285,-0.260851,0.348542,0.134319,-0.112431,0.0998598
0.0849862,0.258339,1.99291,-1.0402,-0.0524977,0.306625,0.0823006,-0.092837,0.0333335
0.0836954,0.236443,2.00134,-1.20096,0.114211,0.329152,0.0723689,-0.132682,-0.00980234
0.0853231,0.213099,2.01041,-1.15222,0.241151,0.354881,0.0795346,-0.136212,-0.0962437
0.0893922,0.193643,2.0197,-0.849077,0.359861,0.385096,0.100201,-0.146539,-0.204829
0.0956014,0.181495,2.02873,-0.449757,0.413979,0.37731,0.0857843,-0.143841,-0.247876
0.102465,0.176408,2.03667,-0.166465,0.415709,0.35588,0.0695588,-0.138669,-0.211937
0.108514,0.175002,2.04403,-0.0787881,0.280741,0.358831,0.0783961,-0.149254,-0.138879
0.109875,0.173666,2.05188,-0.172084,-0.0220236,0.397589,0.100018,-0.157268,-0.0823066
0.109875,0.173666,2.05188,-0.172084,-0.0220236,0.397589,0.100018,-0.157268,-0.0823066
0.106277,0.1688,2.06068,-0.419243,-0.118002,0.407995,0.11856,-0.138046,-0.0687708
0.105241,0.158996,2.07027,-0.639394,0.223137,0.456319,0.150673,-0.138685,-0.0996497
0.110876,0.146996,2.08235,-0.657985,0.478809,0.613601,0.186077,-0.140154,-0.220014
0.118442,0.136644,2.09753,-0.551821,0.458999,0.757649,0.202822,-0.0525165,-0.412075
0.125219,0.12933,2.11527,-0.397602,0.445661,0.918918,0.199348,0.00445808,-0.473711
0.132296,0.12509,2.13587,-0.277745,0.582901,1.10449,0.167766,-0.0225904,-0.253788
0.143296,0.125224,2.16164,-0.0368089,0.990438,1.37964,0.185659,0.108722,-0.036966
0.162779,0.13118,2.18831,0.234581,1.15538,1.34128,0.114203,0.156256,0.164185
0.18527,0.144299,2.21496,0.621587,1.63268,1.50763,0.287887,0.223862,0.342544
0.217924,0.167866,2.24314,1.14209,1.86122,1.73515,0.274262,0.210383,0.26423
0.234136,0.195556,2.27559,0.474133,0.259565,1.98576,0.258839,0.226325,0.0613375
0.237962,0.210603,2.31776,0.199642,1.20361,2.37339,0.333771,0.168873,-0.00100696
0.259265,0.22538,2.36567,0.0425906,1.82544,2.48615,0.134101,0.213604,-0.154928
0.285114,0.236356,2.4155,-0.295152,1.78744,2.53183,0.0671289,0.180222,0.0367094
0.30025,0.24281,2.46893,-0.566525,0.88441,2.59922,0.126872,0.156142,0.195002
0.29004,0.246015,2.52186,-0.594302,-0.672472,2.38862,0.0470989,0.0617016,0.352843
0.24986,0.249555,2.57,-0.313493,-2.21732,2.23018,0.0481566,-0.00931434,0.408216
0.187217,0.254011,2.61225,-0.141104,-2.73474,1.8148,0.0598071,-0.0269556,0.388713
0.130135,0.258555,2.64523,0.0426391,-1.91215,1.45694,-0.00530736,-0.0327687,0.157484
0.118506,0.259125,2.6764,-0.593948,1.02545,1.57411,-0.0021294,-0.0236271,-0.248127
0.127089,0.249436,2.70906,-0.519061,1.15272,1.40107,-0.113471,-0.0520315,0.0176176
0.144178,0.24616,2.73521,-0.305671,1.09314,1.1779,-0.0490764,-0.0274059,-0.04654
0.157261,0.242449,2.76065,-0.386009,0.880352,1.20558,0.0721643,0.0403278,-0.00410151
0.168585,0.238622,2.78539,-0.414866,0.734009,1.09548,0.0427465,0.0256557,-0.00364321
0.170592,0.23396,2.80811,-0.405094,-0.0269418,1.00642,-0.0013987,0.0267075,-0.0723853
0.159039,0.229725,2.82818,-0.346533,-0.625308,0.836396,0.0228545,-0.00106516,-0.16269
0.14007,0.225263,2.8438,-0.339877,-0.857358,0.609932,0.0132372,0.00108764,-0.273886
0.121015,0.219605,2.85592,-0.396965,-0.765264,0.519561,-0.00658417,0.0549411,-0.373119
0.104908,0.212294,2.86792,-0.481615,-0.583765,0.58686,0.00647645,0.0946142,-0.419334
0.0926965,0.203494,2.88153,-0.486139,-0.378487,0.651831,0.00228742,0.0949149,-0.423291
0.0830941,0.195555,2.89557,-0.428056,-0.303594,0.634736,-0.0174975,0.0748198,-0.387954
0.0754901,0.188976,2.90818,-0.328252,-0.224923,0.540528,-0.0364018,0.039034,-0.306901
0.069277,0.184185,2.91813,-0.208814,-0.225107,0.410396,-0.046307,0.0107362,-0.239106
0.062631,0.181968,2.92648,-0.0572191,-0.276392,0.397033,-0.0267972,0.0197867,-0.187262
0.0561722,0.183129,2.93431,0.135238,-0.209131,0.38518,-0.0446448,0.026757,-0.17443
0.0517866,0.188257,2.94208,0.326598,-0.0786133,0.402836,-0.0880193,0.0575843,-0.135165
0.049971,0.196774,2.94945,0.462911,0.0167442,0.348717,-0.141424,0.0895797,-0.0601336
0.04904,0.206223,2.95469,0.437988,-0.016757,0.207167,-0.175209,0.0927956,0.0250131
0.0474077,0.213981,2.95675,0.326804,-0.116502,0.033572,-0.183501,0.0783185,0.0788176
0.0436971,0.219676,2.95554,0.259787,-0.28216,-0.114412,-0.185028,0.0857266,0.0936126
0.0372097,0.224669,2.95226,0.278181,-0.414793,-0.182187,-0.176205,0.112997,0.100261
0.029658,0.231233,2.94767,0.389532,-0.430891,-0.241916,-0.186915,0.137426,0.0938215
0.024155,0.239821,2.94152,0.476561,-0.247057,-0.350047,-0.192163,0.143656,0.13664
0.0237426,0.248966,2.93243,0.441489,-0.00714825,-0.512897,-0.193739,0.125431,0.198249
0.0287011,0.256369,2.92036,0.328223,0.178388,-0.623662,-0.164325,0.108764,0.26802
0.0359275,0.261649,2.90684,0.24865,0.167334,-0.660812,-0.128157,0.107154,0.301401
0.0413916,0.265325,2.89288,0.16299,-0.00032941,-0.668798,-0.101669,0.107773,0.310281
0.0427004,0.266845,2.8796,0.0430374,-0.22463,-0.60251,-0.0626763,0.0914631,0.272749
0.0390433,0.266144,2.86815,-0.0610069,-0.442819,-0.509873,-0.0219578,0.0454986,0.197547
0.0300585,0.264259,2.85855,-0.0972336,-0.704805,-0.435612,0.00323112,-0.00118041,0.101722
0.0167278,0.262117,2.84997,-0.114995,-0.829995,-0.406525,0.0217167,-0.0447984,0.00333655
0.00244633,0.258735,2.84161,-0.230582,-0.80281,-0.411872,0.0483858,-0.0834972,-0.0817505
-0.0104687,0.252786,2.8327,-0.372473,-0.718564,-0.462854,0.089985,-0.146871,-0.162113
-0.0214153,0.244378,2.822,-0.466548,-0.633862,-0.567188,0.131007,-0.202231,-0.249875
-0.0214153,0.244378,2.822,-0.466548,-0.633862,-0.567188,0.131007,-0.202231,-0.249875
-0.0297111,0.235512,2.8094,-0.442908,-0.476748,-0.618188,0.200365,-0.224423,-0.35149
-0.0319445,0.227715,2.79716,-0.326632,0.0602509,-0.544698,0.260469,-0.186205,-0.407599
-0.0208202,0.22407,2.78673,-0.0697634,0.831701,-0.455194,0.297596,-0.166228,-0.449618
0.00495593,0.22455,2.77904,0.0852296,1.55468,-0.287143,0.333883,-0.133106,-0.358186
0.0418232,0.226402,2.775,0.0917416,1.97669,-0.108214,0.356091,-0.132827,-0.188527
0.0812565,0.227618,2.77469,0.0149222,1.91063,0.100024,0.368268,-0.121297,-0.0305945
0.116271,0.228856,2.77936,0.0867127,1.67211,0.37888,0.377677,-0.0761608,0.0595901
0.145295,0.234031,2.79039,0.322943,1.53784,0.771164,0.384537,0.00439222,0.091625
0.171129,0.246115,2.80858,0.570743,1.49182,1.16716,0.354414,0.0503548,0.121486
0.193764,0.263272,2.83318,0.656059,1.36903,1.47123,0.29725,0.0695829,0.195934
0.210429,0.281517,2.86208,0.548481,1.04461,1.60373,0.254864,0.0404477,0.268485
0.21781,0.29712,2.89249,0.360435,0.549492,1.55674,0.215297,-0.00503799,0.283171
0.215395,0.309432,2.92106,0.27529,0.100578,1.36195,0.170655,-0.0233174,0.206818
0.207535,0.320132,2.9451,0.29534,-0.0972251,1.1112,0.141502,-0.00833631,0.115426
0.200331,0.329977,2.96466,0.294195,0.0571919,0.928004,0.119893,0.0391244,0.0734156
0.198947,0.338778,2.98176,0.232507,0.373937,0.852985,0.108244,0.093504,0.0792668
0.203174,0.345624,2.99892,0.116871,0.596248,0.892259,0.10506,0.137001,0.118228
0.209166,0.350964,3.01839,0.0414456,0.647938,1.02411,0.124197,0.155647,0.143978
0.214189,0.355721,3.04113,-0.0278206,0.64837,1.16028,0.0971847,0.172988,0.140554
0.21907,0.359634,3.06625,-0.0800473,0.746174,1.21198,0.0549734,0.165012,0.118046
0.226706,0.363322,3.09115,-0.0766083,0.903596,1.13585,0.0253162,0.131352,0.0623389
0.23875,0.366874,3.1138,-0.072166,1.11132,1.00393,0.00753553,0.108378,0.0159535
0.254375,0.369743,3.13384,-0.125876,1.13719,0.884986,-0.0218053,0.103243,-0.0105482
0.268812,0.370755,-3.13126,-0.217168,0.940733,0.778035,-0.0261818,0.101195,-0.0256436
0.27796,0.369542,-3.1147,-0.325883,0.539699,0.684635,-0.0254939,0.0966769,-0.0567899
0.277267,0.365832,-3.0991,-0.438254,-0.0589139,0.626216,-0.0285176,0.114516,-0.0985277
0.265593,0.3599,-3.08396,-0.507725,-0.552429,0.584903,-0.0441422,0.143608,-0.163993
0.245183,0.352518,-3.0695,-0.545752,-0.971156,0.542932,-0.0513244,0.157029,-0.244545
0.219011,0.344439,-3.05624,-0.519329,-1.15593,0.48953,-0.0522663,0.152503,-0.325848
0.193125,0.336914,-3.04465,-0.441681,-1.00454,0.42917,-0.0695639,0.141871,-0.395116
0.173667,0.330708,-3.03483,-0.338074,-0.595284,0.363953,-0.0930278,0.13175,-0.409036
0.164594,0.325806,-3.02731,-0.27109,-0.0606729,0.24499,-0.150502,0.129765,-0.354443
0.167019,0.32145,-3.02345,-0.219587,0.380365,0.0284949,-0.187178,0.105279,-0.242387
0.176617,0.31697,-3.02499,-0.209357,0.497665,-0.24654,-0.19565,0.0577219,-0.112754
0.188077,0.31139,-3.03139,-0.223152,0.421424,-0.428185,-0.17508,0.0474552,-0.0341464
0.19672,0.306174,-3.03984,-0.112648,0.179048,-0.443959,-0.131402,0.0628109,-0.021607
0.200744,0.304658,-3.04849,0.137984,-0.0220471,-0.399822,-0.148651,0.105234,-0.0419222
0.201489,0.308131,-3.05743,0.364875,-0.170238,-0.374401,-0.196822,0.150842,-0.0348201
0.199694,0.314721,-3.06725,0.442004,-0.326695,-0.428786,-0.232907,0.153469,0.0180306
0.194543,0.320774,-3.0789,0.354997,-0.560212,-0.543458,-0.257646,0.147012,0.0892016
0.185735,0.323827,-3.09257,0.187772,-0.739652,-0.670674,-0.257819,0.144323,0.124041
0.175248,0.323378,-3.10802,0.0434919,-0.778528,-0.776393,-0.236818,0.142234,0.132452
0.166212,0.320564,-3.12481,-0.0464304,-0.639159,-0.842689,-0.213767,0.146401,0.126225
0.160806,0.316247,3.14111,-0.107416,-0.447859,-0.834665,-0.174589,0.128552,0.152946
0.157903,0.31136,3.12499,-0.122286,-0.370942,-0.749932,-0.124067,0.0977502,0.181088
0.153883,0.307251,3.11105,-0.0640865,-0.485577,-0.62174,-0.0861011,0.0813242,0.19102
0.145599,0.305208,3.0996,0.0237486,-0.702001,-0.496953,-0.0563942,0.0517731,0.1826
0.13258,0.304327,3.08993,-0.01434,-0.874998,-0.444128,-0.0343364,0.0125414,0.172788
0.11698,0.300637,3.08092,-0.271929,-0.947889,-0.471897,-0.014204,-0.0292652,0.139203
0.100777,0.290952,3.07079,-0.576727,-0.987251,-0.62739,-0.0146523,-0.105942,0.0412759
0.0839495,0.276098,3.05621,-0.763706,-1.13154,-0.914723,-0.0209981,-0.171381,-0.100405
0.0641291,0.257892,3.03649,-0.911259,-1.38261,-1.0774,0.0464326,-0.17701,-0.199258
0.0398565,0.237971,3.01629,-0.964675,-1.49751,-0.955347,0.163395,-0.138475,-0.268715
0.0161516,0.218546,2.99949,-0.923746,-1.21171,-0.727213,0.191722,-0.102816,-0.314975
0.0161516,0.218546,2.99949,-0.923746,-1.21171,-0.727213,0.191722,-0.102816,-0.314975
-0.00181093,0.201319,2.98772,-0.770829,-0.871178,-0.426046,0.157277,-0.0778546,-0.272227
-0.0169811,0.189309,2.98239,-0.394755,-0.782982,-0.0907484,0.142165,-0.101019,-0.182985
-0.0321855,0.187179,2.98305,0.187493,-0.694422,0.128417,0.144518,-0.140069,-0.125749
-0.0435031,0.19578,2.98674,0.643161,-0.32016,0.178041,0.191783,-0.179232,-0.019513
-0.044824,0.210349,2.99048,0.784839,0.285235,0.109154,0.256773,-0.200745,0.120286
-0.0325045,0.224885,2.99176,0.634373,0.989476,-0.0534562,0.30408,-0.219724,0.243638
-0.00604736,0.234062,2.98946,0.257018,1.56809,-0.168267,0.320305,-0.230319,0.319257
0.0287933,0.234879,2.98616,-0.166275,1.7538,-0.139923,0.350328,-0.231905,0.327196
0.0587495,0.227702,2.98497,-0.529173,1.06356,0.0206073,0.371373,-0.217864,0.271259
0.0669503,0.216212,2.98958,-0.57927,-0.124857,0.36765,0.428157,-0.196724,0.133663
0.0535641,0.208345,3.0008,-0.234109,-0.856919,0.652635,0.405551,-0.158668,-0.11301
0.0332546,0.209392,3.01569,0.266167,-0.770731,0.796161,0.316599,-0.0978751,-0.296889
0.0195057,0.218465,3.03251,0.54792,-0.206401,0.863525,0.248553,-0.0439344,-0.319883
0.0183117,0.229775,3.04986,0.516634,0.461982,0.826187,0.179833,-0.0201356,-0.206057
0.0292883,0.238839,3.06481,0.355403,0.942509,0.636094,0.0907946,-0.00811541,-0.0657601
0.0476911,0.245166,3.07516,0.262624,1.09304,0.404107,0.0193653,0.0111807,0.0274504
0.0662496,0.251521,3.08147,0.37933,0.877446,0.275888,0.017196,0.0496888,0.0587414
0.0790704,0.262451,3.08713,0.688324,0.571936,0.386678,0.069545,0.126208,0.0494706
0.0869623,0.279846,3.09633,0.945985,0.515241,0.654502,0.0973427,0.224526,0.0629197
0.0947188,0.300633,3.11063,0.971578,0.699846,0.880865,0.0761686,0.269316,0.121293
0.106051,0.3209,3.12747,0.877671,0.944396,0.89028,-0.0066373,0.249854,0.179903
0.121609,0.338331,-3.14035,0.676155,1.09305,0.740753,-0.100318,0.22353,0.221011
0.139535,0.350628,-3.12854,0.397314,1.07255,0.521456,-0.140249,0.190549,0.234595
0.15723,0.357218,-3.12065,0.152024,0.971181,0.318544,-0.132355,0.159789,0.179193
0.173565,0.358878,-3.11574,-0.0736215,0.80731,0.186808,-0.108318,0.147656,0.0963575
0.185625,0.35623,-3.11147,-0.249033,0.517371,0.190282,-0.0910492,0.149098,0.00615501
0.18895,0.351446,-3.1053,-0.320193,-0.0143157,0.2973,-0.0709389,0.147448,-0.09468
0.179253,0.345742,-3.09678,-0.415465,-0.669825,0.377753,-0.0928533,0.163297,-0.196305
0.157081,0.336669,-3.08682,-0.664195,-1.19379,0.40136,-0.10264,0.131615,-0.273251
0.127529,0.322693,-3.07578,-0.8402,-1.3433,0.436993,-0.0614609,0.0742779,-0.381781
0.100222,0.307561,-3.06482,-0.752042,-0.983512,0.41804,-0.0696327,0.0319069,-0.531719
0.0844074,0.295545,-3.05542,-0.522719,-0.304134,0.372458,-0.10882,0.0129562,-0.596887
0.0822456,0.288255,-3.04748,-0.274622,0.270706,0.321655,-0.140211,0.00487587,-0.522908
0.0887744,0.2852,-3.04203,-0.0891302,0.476977,0.167153,-0.15545,-0.0312726,-0.365295
0.0966692,0.284572,-3.04031,0.00997835,0.321436,-0.005864,-0.137681,-0.0842432,-0.203299
0.101237,0.285361,-3.04249,0.0726527,0.121595,-0.202533,-0.110069,-0.0953734,-0.114139
0.105945,0.285117,-3.04938,-0.0819952,0.172069,-0.475327,-0.147056,-0.0979261,-0.0323242
0.113829,0.278891,-3.06131,-0.40418,0.289824,-0.703039,-0.164767,-0.102563,0.078797
0.123278,0.266924,-3.07572,-0.579755,0.167727,-0.829417,-0.133413,-0.0285627,0.0803592
0.12767,0.253838,-3.09415,-0.462376,-0.247322,-1.1203,-0.196303,0.0657267,0.0377755
0.122379,0.244275,-3.11762,-0.191239,-0.865467,-1.21211,-0.130306,0.079652,0.0288976
0.104277,0.24074,-3.14149,0.106527,-1.5259,-1.13201,-0.0191464,0.0372338,0.058889
0.0740931,0.243779,3.11861,0.387328,-2.01917,-1.08963,0.00291618,0.0465927,0.0833099
0.0368091,0.251193,3.0957,0.422487,-2.21883,-1.09995,-0.00477737,0.0447479,0.177998
-2.33667e-05,0.256682,3.07332,0.129545,-1.99538,-1.03115,0.0046155,0.034695,0.318709
-0.0310751,0.255308,3.05454,-0.29461,-1.54576,-0.769866,0.0363343,0.0555064,0.372804
-0.0519703,0.246571,3.04051,-0.596763,-0.819679,-0.560383,0.0306309,0.0847322,0.324906
-0.0519843,0.235199,3.03207,-0.587843,0.453507,-0.198116,0.114404,0.0104715,0.300622
-0.041716,0.222813,3.03028,-0.671317,0.30614,0.0528115,0.0521628,0.0412868,0.261815
-0.0425678,0.21026,3.03115,-0.520992,-0.235797,0.0365314,-0.0328756,0.0494126,0.148111
-0.0438091,0.203809,3.02967,-0.112159,0.194262,-0.157955,-0.071537,-0.00937565,0.0391847
-0.0309831,0.206515,3.02539,0.358664,1.00434,-0.229447,-0.00933764,-0.0726143,-0.00888556
-0.00714959,0.216607,3.02214,0.571302,1.08974,-0.0873357,0.0790497,-0.1534,-0.0278939
0.00802966,0.227086,3.02141,0.472467,0.471434,-0.0302442,0.154759,-0.236485,0.010901
0.00802966,0.227086,3.02141,0.472467,0.471434,-0.0302442,0.154759,-0.236485,0.010901
0.0160465,0.235749,3.01915,0.390276,0.317172,-0.203169,0.111977,-0.226344,0.041932
0.02357,0.241724,3.01281,0.194293,0.315586,-0.386417,0.0634974,-0.168232,0.00315839
0.0335412,0.242436,3.004,-0.1062,0.486815,-0.451044,0.0633626,-0.119413,-0.024129
0.0465368,0.237198,2.99469,-0.368868,0.556775,-0.48572,0.0599919,-0.0994007,-0.0571131
0.0603122,0.22789,2.98453,-0.487846,0.61386,-0.549827,0.0828843,-0.0952137,-0.125938
0.0759968,0.217375,2.97402,-0.480926,0.72263,-0.529264,0.118154,-0.0615239,-0.184188
0.0930127,0.208211,2.96524,-0.344358,0.78617,-0.385589,0.158029,-0.0295116,-0.196313
0.109821,0.202538,2.9603,-0.180902,0.762987,-0.143186,0.180635,-0.0112618,-0.170659
0.125483,0.200438,2.95998,-0.0173342,0.837266,0.069824,0.20479,0.00657822,-0.10878
0.14313,0.201905,2.96291,0.0913909,0.970682,0.233767,0.219478,0.0274709,-0.053174
0.160149,0.203869,2.96933,-0.0221181,0.808527,0.428009,0.248577,0.0243898,0.0489277
0.169141,0.202927,2.98034,-0.255361,0.253459,0.610979,0.241109,0.0135797,0.131473
0.1642,0.198298,2.99452,-0.402711,-0.425278,0.667927,0.165287,0.0131473,0.0904617
0.149774,0.19313,3.00886,-0.286022,-0.667132,0.63877,0.0978678,0.0212924,-0.0727305
0.135251,0.192231,3.02195,0.0196767,-0.472992,0.646056,0.0782919,0.0565735,-0.2055
0.129155,0.197343,3.0347,0.300102,0.108596,0.655096,0.0803689,0.105687,-0.180988
0.132682,0.205213,3.04722,0.272005,0.460405,0.682383,0.0761865,0.124461,-0.00499022
0.141538,0.210618,3.06126,0.0670111,0.705931,0.758893,0.0767121,0.097599,0.189894
0.153493,0.212215,3.07721,-0.12675,0.802781,0.807615,0.0267929,0.0880826,0.320444
0.165405,0.211433,3.09457,-0.199726,0.735272,0.86639,-0.00668818,0.0840069,0.389893
0.174867,0.211156,3.11351,-0.122354,0.61148,0.966393,-0.00197671,0.0874441,0.403368
0.181613,0.214037,3.13432,0.0480963,0.494435,1.09729,0.0110666,0.111759,0.395589
0.184286,0.220483,-3.12596,0.151234,0.234257,1.22152,-0.00334741,0.13548,0.427195
0.180055,0.227899,-3.10098,0.117708,-0.0982357,1.31929,-0.0134733,0.149683,0.490057
0.170135,0.234077,-3.07359,0.0212305,-0.216921,1.41815,0.00835185,0.138332,0.479879
0.160197,0.238131,-3.04433,-0.0844201,-0.0627865,1.4489,-0.014524,0.134492,0.414187
0.154339,0.240069,-3.01487,-0.173278,0.15263,1.41107,-0.0289874,0.113761,0.350935
0.151023,0.240012,-2.98616,-0.25948,0.172442,1.34577,0.00909048,0.0731632,0.310865
0.146999,0.237472,-2.95922,-0.410181,0.0432563,1.19152,0.0419664,0.0200361,0.25694
0.140846,0.229152,-2.9355,-0.796792,-0.114144,0.988882,0.0915756,-0.00349988,0.196363
0.131214,0.210582,-2.9134,-1.33674,-0.37618,0.925066,0.149763,0.00469849,0.08518
0.116084,0.182785,-2.8908,-1.6434,-0.710158,0.937431,0.172025,0.0210027,-0.163978
0.0947853,0.152557,-2.86842,-1.55275,-1.0316,0.944458,0.201332,0.0161174,-0.460036
0.0700748,0.126023,-2.8466,-1.26787,-1.10122,1.01271,0.207241,0.0359374,-0.674504
0.0474025,0.104258,-2.82418,-1.07054,-0.86362,1.08048,0.171882,0.0448802,-0.781694
0.031706,0.0845426,-2.80161,-1.0056,-0.523921,1.08988,0.111571,-0.00715661,-0.777891
0.0223899,0.0656097,-2.78002,-0.946485,-0.254821,0.993682,0.0318136,-0.0685774,-0.733511
0.0193395,0.0479696,-2.76228,-0.85747,0.0438123,0.727258,-0.0736373,-0.126625,-0.670603
0.0221434,0.0321807,-2.75056,-0.744309,0.246373,0.422951,-0.134603,-0.172781,-0.576385
0.026314,0.0196858,-2.74412,-0.48476,0.158363,0.221145,-0.0990292,-0.212249,-0.503195
0.0282941,0.0148294,-2.74015,0.00230096,0.0857281,0.181824,-0.0560125,-0.181064,-0.484733
0.0318058,0.0198336,-2.73612,0.472329,0.306807,0.251621,-0.0791117,-0.107502,-0.424317
0.0416005,0.0329385,-2.73093,0.798572,0.685716,0.305057,-0.15735,-0.0666616,-0.289783
0.0568047,0.05072,-2.72627,0.933283,0.777431,0.227771,-0.26477,-0.0442267,-0.105848
0.0689316,0.0696249,-2.72474,0.947225,0.392504,0.0363081,-0.297775,-0.0507774,0.0494836
0.0719672,0.0889603,-2.72742,1.02298,-0.0792962,-0.161762,-0.270931,-0.0395292,0.0822735
0.0682525,0.110238,-2.73375,1.14983,-0.324569,-0.307668,-0.24642,0.0444175,0.0613942
0.0619944,0.133364,-2.74227,1.20454,-0.381789,-0.378035,-0.218662,0.121189,0.0846905
0.0567228,0.156582,-2.75192,1.16542,-0.258605,-0.444286,-0.186507,0.156843,0.12279
0.0556664,0.178097,-2.76328,1.04181,-0.0266292,-0.556486,-0.178644,0.167955,0.173195
0.0594904,0.19659,-2.77643,0.895748,0.143296,-0.622157,-0.157279,0.178068,0.235229
0.0658771,0.212861,-2.79041,0.837874,0.198189,-0.643241,-0.111829,0.178389,0.280303
0.072895,0.22881,-2.80488,0.862382,0.171406,-0.659521,-0.0726107,0.172864,0.316947
0.072895,0.22881,-2.80488,0.862382,0.171406,-0.659521,-0.0726107,0.172864,0.316947
0.079204,0.245136,-2.82,0.875563,0.107187,-0.68804,-0.0579265,0.174878,0.358771
0.0847533,0.261201,-2.83585,0.842507,0.0496717,-0.718104,-0.0437708,0.174669,0.403363
0.0888519,0.275604,-2.85225,0.725527,-0.0896254,-0.728155,-0.0269604,0.182132,0.457946
0.0895397,0.287524,-2.86829,0.61182,-0.294225,-0.700133,0.0291646,0.180383,0.469024
0.086717,0.297523,-2.88339,0.499104,-0.407612,-0.651685,0.0801911,0.183793,0.434925
0.0829673,0.30471,-2.89673,0.307072,-0.329141,-0.552806,0.102922,0.199171,0.400543
0.0819467,0.307571,-2.90706,0.0513236,-0.0664409,-0.410735,0.127598,0.185069,0.353713
0.086885,0.305133,-2.91441,-0.225643,0.38165,-0.304052,0.11369,0.146855,0.272124
0.0990996,0.302228,-2.91897,0.291486,0.409453,-0.237152,0.0901019,0.13267,0.198725
0.0952863,0.309686,-2.92418,0.393861,-0.750548,-0.145633,0.179113,0.041164,0.215305
0.0809112,0.313277,-2.92439,-0.0687538,-0.668596,0.150066,0.177078,0.0182151,0.269078
0.0699594,0.307428,-2.91989,-0.527923,-0.232311,0.186849,0.0582529,0.010906,0.144708
0.069466,0.293663,-2.9157,-0.84022,0.301337,0.12349,0.0210552,-0.0637347,0.0255754
0.0775311,0.277175,-2.91206,-0.754972,0.524502,0.133574,0.0350151,-0.0783659,-0.0506395
0.0841304,0.266595,-2.90643,-0.334622,0.192978,0.341349,0.101997,-0.0997571,-0.071148
