attitude_roll,attitude_pitch,attitude_yaw,rotationRate_x,rotationRate_y,rotationRate_z,acceleration_x,acceleration_y,acceleration_z
0.0738281,0.378414,-0.0277779,-0.200845,0.00305311,-0.076645,-0.0359498,0.011964,0.265084
0.0752618,0.37309,-0.0292473,-0.297564,0.0688022,-0.0985724,-0.0392869,0.0160904,0.224666
0.0769278,0.366815,-0.0310156,-0.303982,0.0295897,-0.114086,-0.0264208,-0.00276077,0.17667
0.0769812,0.360576,-0.0336287,-0.30319,-0.157188,-0.210446,-0.0318902,-0.037186,0.151123
0.0730336,0.354958,-0.0392429,-0.180958,-0.394577,-0.2851,0.0627294,-0.0519851,0.0847739
0.0668594,0.351627,-0.0449524,-0.13678,-0.431446,-0.254678,-0.0300375,-0.0773122,0.0884801
0.0598177,0.348113,-0.0491492,-0.20154,-0.384485,-0.152495,0.0135518,-0.0727247,0.0531594
0.0536207,0.342934,-0.0505583,-0.299692,-0.280156,-0.00493304,0.00862297,-0.0790776,-0.0101275
0.0484428,0.336402,-0.0487619,-0.347122,-0.17817,0.129417,0.00485798,-0.102174,-0.0886681
0.0445667,0.330062,-0.0449994,-0.284284,-0.0562583,0.181309,0.00616222,-0.126628,-0.171326
0.0427117,0.325567,-0.0408856,-0.171303,-0.00248876,0.180553,-0.00769507,-0.12774,-0.235264
0.0419938,0.323732,-0.037062,-0.0182033,0.061069,0.175954,-0.00420199,-0.112954,-0.266602
0.0442464,0.325115,-0.0332981,0.13838,0.303994,0.191746,-0.00663652,-0.0822547,-0.268066
0.0524925,0.329126,-0.0288379,0.213418,0.658378,0.243806,-0.0201264,-0.0660819,-0.241242
0.065701,0.332987,-0.0233558,0.11752,0.794665,0.288674,0.0115457,-0.0587072,-0.21125
0.0797622,0.334088,-0.0173667,-0.0482891,0.765507,0.266217,0.0223992,-0.0707738,-0.208745
0.0905392,0.331806,-0.0124603,-0.197457,0.443182,0.168723,0.00568742,-0.0649351,-0.294974
0.0956567,0.327863,-0.00976534,-0.195886,0.166193,0.0427462,-0.0116117,-0.0720072,-0.329461
0.0970337,0.324806,-0.0102529,-0.0843048,-0.0207474,-0.111853,0.00234615,-0.031675,-0.30496
0.0980306,0.324724,-0.0135656,0.111005,0.0541704,-0.180433,0.0229335,-0.00276086,-0.217013
0.102678,0.328274,-0.0173792,0.265178,0.302541,-0.121655,0.0578216,0.0482547,-0.0983785
0.111847,0.334029,-0.019336,0.297689,0.523972,-0.00474324,0.0493711,0.075624,0.0176836
0.122428,0.33927,-0.019237,0.201581,0.462713,0.0671208,0.0215581,0.0741316,0.0828819
0.127119,0.341999,-0.0179142,0.0560694,0.000885716,0.0882434,0.0158195,0.0479262,0.0825559
0.121231,0.342929,-0.0160037,0.0431748,-0.475254,0.0851395,0.0503224,0.019902,0.0714736
0.110193,0.345285,-0.0155029,0.194017,-0.526481,-0.0230329,0.0317137,0.0443973,0.0981443
0.103372,0.350346,-0.0178533,0.318072,-0.193141,-0.127674,0.0153082,0.106818,0.152014
0.10498,0.356739,-0.0211896,0.320129,0.239599,-0.096936,-0.00088419,0.133492,0.223493
0.10498,0.356739,-0.0211896,0.320129,0.239599,-0.096936,-0.00088419,0.133492,0.223493
0.113389,0.361662,-0.0226176,0.157722,0.501879,0.03245,-0.00804804,0.128411,0.282514
0.122811,0.362804,-0.0201448,-0.0616624,0.457018,0.187425,-0.0107993,-0.00267741,0.280952
0.129254,0.36121,-0.0183906,-0.0567124,0.318204,-0.140068,-0.135027,0.0531593,0.204629
0.140369,0.360838,-0.0278065,0.128906,0.434613,-0.709689,-0.0752188,0.126633,0.253456
0.154837,0.361706,-0.0461705,0.174913,0.334015,-0.888358,0.0452589,0.0928227,0.253985
0.165759,0.36138,-0.0633782,0.0310833,0.130828,-0.64777,0.124572,0.0652356,0.243847
0.169969,0.359232,-0.0725848,-0.0707915,0.00490899,-0.238487,0.127519,0.0392686,0.216073
0.170866,0.357652,-0.0748715,-0.0372063,-0.00837937,-0.0499373,0.064814,0.101968,0.172821
0.170653,0.357229,-0.0759951,0.0114373,-0.0509133,-0.0735918,0.0279835,0.100549,0.119824
0.170234,0.357197,-0.0781837,0.00914423,-0.0686197,-0.132808,0.0289329,0.0360664,0.102461
0.169746,0.356163,-0.0818436,-0.0619032,-0.104149,-0.218588,0.0368606,0.0351275,0.0816694
0.169293,0.353089,-0.0864524,-0.168027,-0.0799927,-0.227993,0.057912,0.0420109,0.0370471
0.169708,0.348421,-0.0889187,-0.243063,0.0491051,-0.0522385,0.0808627,0.0223528,-0.0194057
0.171507,0.343295,-0.0867194,-0.286211,0.18902,0.162439,0.0825768,0.0274482,-0.0552729
0.173885,0.338577,-0.0810241,-0.25972,0.21308,0.261462,0.058461,0.0166697,-0.0950128
0.175069,0.335082,-0.0749253,-0.178933,0.0641387,0.231747,0.0378272,-0.00562629,-0.132369
0.172217,0.333133,-0.0704761,-0.0834044,-0.196633,0.152928,0.0373947,-0.0205748,-0.17554
0.165956,0.332963,-0.0675711,0.0120087,-0.302902,0.118427,0.0425163,-0.0123891,-0.189458
0.159333,0.333492,-0.0652956,-0.0196391,-0.261402,0.106332,0.0490715,0.0213444,-0.189439
0.154248,0.332259,-0.0622209,-0.152176,-0.158594,0.175795,0.0634757,0.0175855,-0.174802
0.14904,0.328713,-0.0565037,-0.26665,-0.197064,0.308517,0.0669656,0.0147963,-0.19822
0.141637,0.324344,-0.0479862,-0.263143,-0.253699,0.410736,0.0523537,0.0120308,-0.221177
0.133564,0.320725,-0.0389492,-0.220806,-0.263669,0.357014,0.021359,0.0320359,-0.218091
0.125831,0.31659,-0.0325647,-0.290085,-0.307818,0.179778,-0.00846776,0.0371728,-0.213903
0.117852,0.308943,-0.0300952,-0.511821,-0.430985,-0.0357699,-0.00387347,0.0272877,-0.223676
0.107728,0.296279,-0.0308219,-0.699871,-0.578729,-0.155988,0.0181976,-0.000776708,-0.286557
0.0969539,0.282291,-0.0329274,-0.615543,-0.509534,-0.17765,0.0225689,-0.00511947,-0.306725
0.0901506,0.272678,-0.0352186,-0.29655,-0.204131,-0.115758,0.0173779,0.028177,-0.246912
0.090368,0.270167,-0.0361392,0.0390123,0.199471,0.0141582,0.00377245,0.0648962,-0.122588
0.0965169,0.273223,-0.0344862,0.221241,0.415597,0.164294,-0.0323372,0.0734094,-0.00609845
0.104128,0.278264,-0.0308579,0.218995,0.421015,0.205284,-0.0686462,0.0573255,0.0733453
0.111503,0.28205,-0.0278162,0.116683,0.391455,0.103535,-0.101276,0.0338948,0.119516
0.118629,0.28331,-0.0272695,0.0147226,0.32563,-0.030774,-0.115647,0.0082334,0.130161
0.124796,0.283238,-0.0287118,0.0110956,0.242225,-0.093066,-0.123007,0.003297,0.134283
0.129166,0.284059,-0.0306064,0.101532,0.139774,-0.0614006,-0.136005,0.0260885,0.130839
0.131668,0.287198,-0.031636,0.222518,0.0955793,0.000490405,-0.140635,0.0275893,0.149608
0.133503,0.292631,-0.0322079,0.307929,0.0658021,0.0110708,-0.138404,0.0311942,0.18374
0.134533,0.298694,-0.0332451,0.290309,-0.00424033,-0.0333267,-0.132949,0.0227724,0.21239
0.134324,0.303578,-0.035354,0.215634,-0.0750771,-0.0999949,-0.10944,-0.00028801,0.222807
0.133132,0.306788,-0.0384353,0.147317,-0.130898,-0.135479,-0.0859073,0.000575721,0.218402
0.130829,0.308953,-0.0412427,0.111181,-0.175317,-0.0814151,-0.0754818,0.00817835,0.206413
0.127585,0.311069,-0.0420511,0.111073,-0.172914,0.039637,-0.0624319,0.00662282,0.209162
0.123539,0.313521,-0.0403335,0.111388,-0.172772,0.140055,-0.0651097,-0.00299191,0.194752
0.119439,0.316275,-0.0376288,0.136482,-0.146567,0.122034,-0.0921423,-0.0147007,0.16772
0.11675,0.319407,-0.0368781,0.157676,-0.0976679,-0.0287679,-0.111768,-0.0190348,0.150417
0.115992,0.321608,-0.0396604,0.0731773,-0.0778303,-0.19338,-0.0773582,-0.029489,0.164415
0.11532,0.321108,-0.0443112,-0.0699355,-0.131503,-0.224948,-0.0394658,-0.0426128,0.161151
0.113006,0.318267,-0.048097,-0.156348,-0.217347,-0.152425,-0.0418402,-0.0335148,0.124202
0.108837,0.314975,-0.0500456,-0.132365,-0.243154,-0.0722086,-0.0502545,-0.032508,0.073047
0.105021,0.313139,-0.0510905,-0.0393822,-0.148523,-0.0548759,-0.0467059,-0.040419,0.0444727
0.105021,0.313139,-0.0510905,-0.0393822,-0.148523,-0.0548759,-0.0467059,-0.040419,0.0444727
0.103606,0.312677,-0.0524464,-0.0168074,-0.0369361,-0.0750507,-0.0289477,-0.0519817,0.0462343
0.104369,0.311516,-0.0536141,-0.109039,0.0611576,-0.0365874,-0.00886381,-0.0646681,0.0497178
0.105557,0.308502,-0.0532078,-0.194686,0.0651617,0.037752,-0.0101924,-0.0810581,0.0113444
0.105657,0.3047,-0.0514559,-0.201775,-0.00743926,0.0700812,-0.00578435,-0.088924,-0.0454776
0.103414,0.301417,-0.049605,-0.149847,-0.140668,0.0642093,0.0021021,-0.100831,-0.111205
0.0995013,0.299636,-0.0481883,-0.0566671,-0.188846,0.0490621,-0.00355676,-0.0991605,-0.167125
0.0959179,0.299764,-0.047443,0.0534791,-0.120565,0.0197942,-0.0282219,-0.0727324,-0.205525
0.0950494,0.301892,-0.0472326,0.155168,0.0461441,0.0339398,-0.030342,-0.0616058,-0.214298
0.0974121,0.305886,-0.0463378,0.22145,0.197954,0.0871482,-0.00206046,-0.0708408,-0.195807
0.101517,0.310454,-0.0445725,0.200444,0.263385,0.124713,0.0338887,-0.0707448,-0.185215
0.106064,0.314015,-0.0422694,0.113018,0.222844,0.113558,0.0160105,-0.0613139,-0.203017
0.107947,0.314579,-0.0409794,-0.0764849,0.00207927,0.00831149,-0.0117372,-0.0361188,-0.268796
0.107113,0.31149,-0.0417136,-0.195846,-0.0750672,-0.115538,-0.00239836,-0.0531424,-0.291156
0.10652,0.307596,-0.0450559,-0.121839,-0.0682269,-0.223869,0.026845,-0.0178955,-0.285416
0.108047,0.306687,-0.049707,0.0803092,0.104173,-0.206854,0.0408109,0.0196905,-0.215306
0.113901,0.309397,-0.0535443,0.210668,0.372286,-0.117784,0.0360292,0.0709485,-0.111073
0.124532,0.313744,-0.0556272,0.224167,0.594855,-0.0388626,0.00811926,0.0914742,-0.0212387
0.137294,0.31708,-0.0572052,0.1081,0.584515,-0.0818031,-0.00441527,0.0865583,0.0253917
0.14864,0.317504,-0.0600249,-0.0117598,0.457531,-0.172051,0.00536594,0.0554368,0.0414098
0.158117,0.316597,-0.064226,0.00707004,0.373014,-0.226699,0.0266211,0.0610904,0.0478972
0.167229,0.317247,-0.0689993,0.139652,0.399462,-0.189266,0.0283947,0.0923782,0.0616149
0.176742,0.320966,-0.0723575,0.27605,0.439426,-0.0508991,0.0168254,0.109719,0.0860649
0.185623,0.327554,-0.0730201,0.37105,0.407984,0.096829,0.00263758,0.124585,0.124247
0.192675,0.335822,-0.0717201,0.40635,0.32992,0.161035,-0.0120725,0.133928,0.160189
0.198128,0.344339,-0.0700465,0.388256,0.261278,0.150945,-0.0150529,0.127507,0.188036
0.202474,0.352279,-0.0686472,0.365433,0.240855,0.144981,-0.0148856,0.126181,0.19267
0.207099,0.360066,-0.0669603,0.35895,0.281712,0.168004,-0.0322033,0.141322,0.192594
0.212371,0.367644,-0.064739,0.336202,0.318206,0.186827,-0.0346298,0.134885,0.200649
0.218038,0.374764,-0.0622891,0.310005,0.332766,0.177343,-0.0300975,0.114588,0.208381
0.224219,0.381058,-0.0602998,0.251791,0.342591,0.13437,-0.0276242,0.104798,0.207541
0.230005,0.385821,-0.0587612,0.182282,0.275926,0.120136,-0.0140338,0.0844649,0.196876
0.233422,0.389234,-0.0567611,0.109184,0.134438,0.139755,-0.00674574,0.0791103,0.18644
0.23356,0.391433,-0.053825,0.0399842,-0.00770119,0.173286,-0.00397599,0.0683419,0.177281
0.230641,0.392347,-0.050022,-0.0356019,-0.130712,0.18254,-0.0104252,0.0597723,0.155741
0.225987,0.391512,-0.0463088,-0.121131,-0.182761,0.117905,-0.0275178,0.0495703,0.130201
0.221359,0.388492,-0.044292,-0.208276,-0.185766,-0.00679625,-0.0148399,0.0316706,0.0902014
0.218031,0.383378,-0.0444286,-0.282665,-0.137331,-0.10618,0.00261107,0.0229962,0.0543456
0.216939,0.376953,-0.0455497,-0.312874,-0.00285026,-0.118594,0.0123644,0.0217904,0.036644
0.218648,0.370373,-0.0460239,-0.319228,0.141679,-0.0601802,0.0194935,0.0197236,0.0378367
0.221568,0.363737,-0.0452214,-0.340086,0.164803,-0.0122179,0.0355543,-0.00304163,0.0284876
0.223845,0.357078,-0.0434625,-0.338908,0.103523,0.0211579,0.0402209,-0.0352427,0.0152773
0.223562,0.350467,-0.0411066,-0.355778,-0.0591673,0.0493861,0.0558101,-0.0509205,-0.0183649
0.219746,0.343606,-0.03782,-0.371075,-0.193344,0.100962,0.0656034,-0.0795126,-0.0559491
0.213901,0.336799,-0.0334981,-0.373239,-0.241422,0.15135,0.0779266,-0.0856088,-0.0732977
0.206875,0.330089,-0.0281949,-0.389244,-0.29197,0.197293,0.0737227,-0.0752716,-0.104675
0.198214,0.32295,-0.0218608,-0.427286,-0.365662,0.241424,0.0722334,-0.0844443,-0.148542
0.187914,0.315328,-0.0149845,-0.435296,-0.424812,0.238283,0.0570807,-0.075217,-0.206285
0.17787,0.307817,-0.00864781,-0.408029,-0.361118,0.212838,0.0476911,-0.0816033,-0.238262
0.169959,0.300333,-0.00321394,-0.429606,-0.266419,0.164396,0.0481761,-0.0747973,-0.244515
0.163037,0.29093,0.00124868,-0.579624,-0.325992,0.102337,0.0450824,-0.0718759,-0.268303
0.163037,0.29093,0.00124868,-0.579624,-0.325992,0.102337,0.0450824,-0.0718759,-0.268303
0.15305,0.278119,0.00508318,-0.713671,-0.578332,0.057891,0.0412103,-0.0948073,-0.341552
0.138017,0.264457,0.00787854,-0.620836,-0.816085,0.00337514,0.0428018,-0.0907267,-0.409896
0.1219,0.255161,0.00844554,-0.278241,-0.710615,-0.0702272,0.0355674,-0.0632427,-0.41262
0.111545,0.253316,0.00696606,0.101151,-0.337027,-0.0685219,0.0303766,-0.00818902,-0.323834
0.1092,0.257829,0.00633466,0.313971,0.0834116,0.0697301,0.0147668,0.0395128,-0.179225
0.113677,0.264845,0.00871924,0.336103,0.381501,0.233224,-0.00321504,0.0585282,-0.0439954
0.120714,0.272184,0.014069,0.334707,0.414671,0.34998,-0.0315001,0.0583562,0.0473786
0.125466,0.27999,0.0210269,0.357246,0.227223,0.402685,-0.055109,0.0566957,0.101239
0.125527,0.288407,0.0286622,0.373106,-0.00849972,0.414477,-0.0715956,0.0503094,0.144087
0.121091,0.296722,0.0359608,0.361268,-0.203424,0.36556,-0.0997995,0.0579967,0.15668
0.114468,0.304475,0.0415272,0.342602,-0.270242,0.238042,-0.118333,0.0724672,0.164222
0.108999,0.311507,0.0440217,0.321323,-0.177372,0.0730143,-0.116396,0.0774288,0.180538
0.107717,0.317604,0.0431602,0.288901,0.0328932,-0.0870256,-0.101933,0.081288,0.203819
0.112045,0.322694,0.0393987,0.252186,0.276295,-0.194209,-0.0752318,0.0820155,0.246439
0.120876,0.326779,0.0344889,0.201018,0.414303,-0.206056,-0.0499307,0.0778148,0.288941
0.130598,0.32974,0.0300443,0.141594,0.394746,-0.16728,-0.027951,0.0518244,0.288869
0.138815,0.33142,0.026687,0.0662979,0.302491,-0.122193,0.000904649,0.0168376,0.279656
0.144473,0.331969,0.0246288,0.0201464,0.190995,-0.0629885,0.0284253,-0.00231165,0.263312
0.14697,0.332018,0.0241323,-0.0062406,0.0380839,0.02841,0.023879,0.00878215,0.223769
0.145707,0.331977,0.0264349,-0.0229909,-0.0910472,0.193413,0.0192301,0.0062564,0.189487
0.140833,0.332386,0.0322771,-0.0117581,-0.193571,0.347698,0.016439,0.0143482,0.159205
0.134237,0.333568,0.0405391,0.0204038,-0.177532,0.423715,0.00411257,0.0130543,0.140894
0.128786,0.335161,0.0495074,0.0155547,-0.0550885,0.4202,-0.0126262,0.0131555,0.139204
0.126124,0.335689,0.0581271,-0.0762649,0.0617203,0.385876,-0.0216622,0.00603974,0.141899
0.125147,0.333941,0.0663406,-0.187274,0.10147,0.360851,-0.0214285,-0.00855049,0.130454
0.124166,0.330559,0.0746149,-0.23384,0.0528762,0.381906,-0.0150155,-0.0174541,0.109722
0.121456,0.326814,0.0837361,-0.232754,-0.0287571,0.426629,-0.0192403,-0.0203427,0.0847313
0.117609,0.323713,0.0936717,-0.181337,-0.0215504,0.456359,-0.0407937,-0.0218467,0.0531451
0.114792,0.321615,0.103437,-0.141957,0.0474691,0.430991,-0.049753,-0.0204943,0.0426103
0.113701,0.319572,0.112492,-0.166044,0.115729,0.400609,-0.0377654,-0.040668,0.0482053
0.113525,0.316614,0.121335,-0.223105,0.133111,0.403768,-0.032516,-0.0540214,0.0416208
0.112934,0.31262,0.130718,-0.261454,0.086884,0.433786,-0.038857,-0.0556833,0.0153398
0.110745,0.30871,0.140586,-0.217701,-0.00614265,0.450782,-0.0397732,-0.0623967,-0.039728
0.106582,0.306368,0.150272,-0.109445,-0.110869,0.433509,-0.0355089,-0.07624,-0.0981176
0.100886,0.305953,0.159194,-0.0266839,-0.170574,0.413854,-0.0209797,-0.0773225,-0.155155
0.0950987,0.306827,0.168325,0.024031,-0.10216,0.472149,-0.0153407,-0.0573859,-0.191041
0.091329,0.308945,0.179582,0.08897,0.081599,0.616137,-0.0108191,-0.0506369,-0.202271
0.0905117,0.31252,0.193667,0.136406,0.257258,0.727578,-0.0183066,-0.0485907,-0.185649
0.0922655,0.316104,0.208521,0.0704541,0.367636,0.676549,-0.0317073,-0.0569169,-0.169662
0.0963988,0.317156,0.220921,-0.0859266,0.400151,0.484934,-0.0430636,-0.0691311,-0.165674
0.100467,0.313851,0.228758,-0.320287,0.224197,0.214155,-0.0512091,-0.0538861,-0.203821
0.102227,0.305673,0.231821,-0.483321,0.0758786,0.0141032,-0.0177443,-0.0710285,-0.226886
0.103895,0.29659,0.23202,-0.374662,0.134289,-0.0805633,0.00432029,-0.0456454,-0.220586
0.108972,0.291157,0.230408,-0.158552,0.315685,-0.115736,0.0168234,0.0224279,-0.156839
0.116145,0.288744,0.228992,-0.0929736,0.32872,-0.0222534,0.0286993,0.0425605,-0.103444
0.121452,0.286751,0.230583,-0.119952,0.238666,0.148198,0.0401506,0.0276189,-0.0504305
0.123354,0.28523,0.235609,-0.0629868,0.0800691,0.312472,0.041613,0.0364292,-0.0136827
0.120561,0.286589,0.24395,0.111659,-0.124906,0.496421,0.0408097,0.0557532,0.0230976
0.113043,0.291369,0.255262,0.19888,-0.297452,0.605831,0.034362,0.0884722,0.0681472
0.102642,0.295111,0.267305,0.0074987,-0.36072,0.554957,0.0116782,0.0951981,0.075483
0.102642,0.295111,0.267305,0.0074987,-0.36072,0.554957,0.0116782,0.0951981,0.075483
0.0932014,0.292744,0.277791,-0.342859,-0.250074,0.404341,-0.00214726,0.0721502,0.075645
0.0886328,0.28402,0.285225,-0.536083,0.0349586,0.218011,0.0059718,0.0684093,0.0601422
0.0918821,0.274081,0.289118,-0.444666,0.388516,0.0802159,0.0192616,0.0989556,0.0843154
0.101767,0.267516,0.291429,-0.226883,0.618965,0.103155,0.0206749,0.128838,0.145766
0.112841,0.265055,0.295346,-0.0725655,0.528002,0.248923,0.0157811,0.139755,0.201799
0.119116,0.265253,0.301899,0.0172401,0.261031,0.364412,0.0112062,0.120705,0.226331
0.119414,0.267665,0.30994,0.135774,-0.0310063,0.423559,0.0366768,0.0854184,0.239735
0.113505,0.272764,0.318503,0.260253,-0.309993,0.44483,0.0876419,0.0837866,0.246781
0.103555,0.279236,0.327329,0.265528,-0.403901,0.467121,0.0864856,0.104036,0.247316
0.0934624,0.28447,0.336955,0.152982,-0.312743,0.501735,0.0940028,0.0903566,0.242426
0.0857735,0.28705,0.347148,0.0165551,-0.175244,0.475577,0.0890862,0.078244,0.210746
0.0801295,0.286716,0.356106,-0.122202,-0.150599,0.36652,0.088919,0.0614291,0.157959
0.0743237,0.283141,0.362656,-0.278856,-0.260834,0.238095,0.0924128,0.0364072,0.0918397
0.0661482,0.276874,0.367127,-0.351519,-0.431199,0.152219,0.107056,0.00654998,0.0385005
0.0549921,0.270474,0.370033,-0.285816,-0.582568,0.085705,0.116803,0.00928384,-0.023347
0.0428211,0.265686,0.371586,-0.209036,-0.568972,0.0447307,0.130767,0.0214062,-0.0422128
0.0314819,0.261497,0.372889,-0.222972,-0.50815,0.0785086,0.160069,0.0111968,-0.0659076
0.0218762,0.256687,0.375576,-0.264307,-0.375325,0.170915,0.1798,-0.0056895,-0.0721186
0.0146234,0.251269,0.38045,-0.271144,-0.224902,0.289452,0.172817,-0.0119712,-0.0586818
0.00917246,0.246292,0.387658,-0.228568,-0.175444,0.393116,0.159149,-0.016551,-0.00719213
0.00266961,0.242211,0.396549,-0.182565,-0.254352,0.459122,0.162585,-0.0169105,0.0596129
-0.00588279,0.239168,0.406471,-0.107269,-0.369029,0.497908,0.149972,-0.0129836,0.0921088
-0.0170716,0.238526,0.417246,0.0618244,-0.485337,0.553308,0.110063,-0.0219844,0.0599093
-0.029964,0.241138,0.429563,0.210934,-0.476534,0.619571,0.0839328,-0.0314865,0.0552105
-0.0415858,0.245444,0.442441,0.245966,-0.396281,0.59716,0.0713184,-0.0337614,0.0606062
-0.0525942,0.249484,0.454529,0.199268,-0.405014,0.550351,0.0883112,-0.0502767,0.056308
-0.0634398,0.251561,0.465849,0.0576118,-0.39309,0.541481,0.0963444,-0.0297856,0.0335323
-0.0736584,0.249927,0.478051,-0.14007,-0.300344,0.652281,0.103333,-0.0351066,-0.0153406
-0.0814065,0.24455,0.492276,-0.261103,-0.122074,0.737592,0.0950104,-0.0306002,-0.0501482
-0.0857286,0.238565,0.506502,-0.175633,0.0488171,0.664701,0.0759201,-0.0133253,-0.106918
-0.0854236,0.236345,0.519057,0.0675488,0.252804,0.570579,0.0585338,-0.0163219,-0.132083
-0.0835255,0.23838,0.530236,0.179612,0.110957,0.483856,0.0460961,-0.00109966,-0.16042
-0.0880198,0.240327,0.539132,0.0702803,-0.345307,0.347625,0.0299598,-0.0171983,-0.231642
-0.0985292,0.240158,0.544731,-0.0213121,-0.496309,0.196082,0.0302237,-0.0664649,-0.226434
-0.107268,0.239495,0.547611,-0.00354037,-0.275716,0.106292,0.0588097,-0.0473339,-0.188362
-0.11016,0.239801,0.550155,0.064866,0.0692736,0.167413,0.0929825,0.00154695,-0.13132
-0.106039,0.241112,0.556034,0.108789,0.463332,0.401244,0.104167,0.0219548,-0.0246766
-0.0973001,0.241913,0.567641,0.0806425,0.639289,0.711161,0.0615877,0.0263648,0.0230367
-0.0886977,0.241869,0.585189,0.0781617,0.608164,0.950683,0.00743544,-0.00201383,0.0294686
-0.0832517,0.242547,0.605799,0.175894,0.40665,0.994053,-0.0124487,-0.00282033,0.00203532
-0.0816817,0.246244,0.625921,0.360555,0.250944,0.890906,-0.00458006,-0.00240733,0.0166197
-0.0811267,0.253918,0.643495,0.522071,0.240842,0.731648,-0.00365303,0.0371635,0.0353698
-0.080021,0.263686,0.658689,0.537056,0.27146,0.671295,-0.0135713,0.065176,0.0272115
-0.0774653,0.272292,0.67412,0.422216,0.397469,0.744896,-0.0448482,0.0808599,0.0301691
-0.0724394,0.278561,0.69092,0.342407,0.558996,0.798331,-0.0788209,0.0946283,0.00106031
-0.064818,0.284451,0.707799,0.366795,0.638648,0.753858,-0.0778449,0.0972804,-0.0274748
-0.0565026,0.291544,0.722663,0.425806,0.597522,0.603569,-0.0462982,0.0865651,-0.0215411
-0.0484612,0.300176,0.733909,0.483686,0.530497,0.42403,-0.0260048,0.0854678,0.00431871
-0.0405239,0.309894,0.741977,0.514587,0.509244,0.316578,-0.0255498,0.093181,0.0294496
-0.0321172,0.320033,0.749126,0.510062,0.555952,0.340623,-0.0220091,0.0981212,0.0472006
-0.0321172,0.320033,0.749126,0.510062,0.555952,0.340623,-0.0220091,0.0981212,0.0472006
-0.0229497,0.329399,0.757647,0.430542,0.627131,0.442885,0.00791995,0.0913427,0.0780677
-0.0130326,0.337245,0.768722,0.397392,0.719375,0.585445,-0.00247243,0.0779284,0.0579391
-0.0027338,0.346251,0.782784,0.527435,0.751159,0.71744,-0.0257336,0.0631743,0.0212145
0.00556244,0.358379,0.798981,0.658721,0.607201,0.784914,-0.0368863,0.0666229,0.0205739
0.00950815,0.37167,0.815726,0.619751,0.377647,0.770546,-0.0369808,0.0554479,0.0582669
0.00952207,0.382388,0.831426,0.417692,0.226307,0.686804,-0.0409693,0.0552204,0.0969693
0.00894264,0.388507,0.845408,0.183826,0.251698,0.618523,-0.0507719,0.0558089,0.113885
0.00989788,0.390459,0.85849,0.0119242,0.353349,0.585676,-0.057218,0.0569284,0.108741
0.0133855,0.389569,0.870862,-0.0977148,0.451961,0.548639,-0.0645368,0.0617964,0.101061
0.0185103,0.387319,0.882363,-0.133966,0.473409,0.501664,-0.0633876,0.0348113,0.0811926
0.0233113,0.384652,0.892655,-0.148985,0.382141,0.439381,-0.0257564,0.00563824,0.0801349
0.0263172,0.381714,0.901871,-0.160316,0.260658,0.416969,0.0123991,-0.0103925,0.0921502
0.0273779,0.378724,0.911739,-0.1601,0.21873,0.505315,0.0292376,-0.0143441,0.0998249
0.0266081,0.375787,0.924286,-0.15812,0.17157,0.651506,0.0310986,-0.0096437,0.0914806
0.0241846,0.373195,0.939755,-0.132616,0.153184,0.764266,0.00890005,-0.0106517,0.076952
0.0210758,0.371196,0.956833,-0.106099,0.14372,0.801531,-0.00256446,-0.02614,0.0562905
0.0175809,0.369652,0.973976,-0.0795188,0.121214,0.765627,0.00913538,-0.0461642,0.0477111
0.0139188,0.368355,0.989835,-0.0836674,0.0687532,0.715646,0.0425724,-0.0535543,0.0518798
0.00872542,0.366499,1.00579,-0.115583,-0.00905337,0.76925,0.0571159,-0.0566135,0.0321391
0.00178152,0.364196,1.02278,-0.11093,-0.105827,0.784187,0.0157913,-0.0254702,-0.00891978
-0.00698967,0.363289,1.0399,0.027818,-0.0254723,0.829259,0.0547359,-0.0236167,-0.0499394
-0.0138906,0.363973,1.05867,0.0491095,0.024014,0.912159,0.0325419,-0.0578741,-0.107486
-0.0185757,0.364674,1.07856,0.0510668,0.21603,0.915261,0.0208321,-0.0431507,-0.108905
-0.0195822,0.365475,1.09774,0.0680864,0.351062,0.873585,0.00562288,-0.0332013,-0.171053
-0.0179799,0.367114,1.11692,0.125187,0.490454,0.911276,0.0057335,-0.0726411,-0.193233
-0.0156883,0.369014,1.13655,0.0784107,0.381417,0.882513,-0.0276201,-0.0938785,-0.239932
-0.016268,0.369239,1.15354,-0.064081,0.150589,0.653339,-0.0728724,-0.0871989,-0.28328
-0.0209244,0.365032,1.1632,-0.346708,-0.225958,0.239214,-0.067614,-0.0739592,-0.405814
-0.0257042,0.355564,1.16405,-0.571165,-0.148166,-0.112345,-0.0207366,-0.0816447,-0.414895
-0.0229013,0.343485,1.15906,-0.608275,0.303229,-0.298958,0.00756928,-0.0316224,-0.38973
-0.00841087,0.332372,1.15214,-0.488936,0.893852,-0.293292,0.0315252,0.0427318,-0.292036
0.0145886,0.324371,1.14811,-0.297526,1.19932,-0.0482045,0.0513277,0.0780661,-0.188404
0.0377633,0.32095,1.15129,-0.0441672,1.16878,0.342968,0.0596782,0.0742267,-0.086805
0.0556041,0.323192,1.16188,0.215965,0.901856,0.64026,0.039236,0.079054,-0.0319529
0.0656162,0.33077,1.17663,0.44182,0.564575,0.772366,0.0351836,0.0633425,-0.0173329
0.068447,0.342316,1.19278,0.582583,0.26265,0.801867,0.0474215,0.0357119,-0.0259545
0.0663222,0.355239,1.20822,0.580783,0.0836997,0.712655,0.0511302,0.0400748,-0.0206897
0.0636709,0.366766,1.22142,0.470414,0.151732,0.586722,0.0316072,0.0554516,0.00545311
0.0647651,0.375564,1.23255,0.343211,0.367874,0.507345,0.012316,0.0843418,0.0338041
0.0701602,0.382537,1.24302,0.299724,0.529925,0.515737,0.000561751,0.104323,0.0498586
0.0766301,0.389693,1.25449,0.340155,0.508173,0.589927,0.00470017,0.102591,0.068887
0.080606,0.397695,1.2668,0.353135,0.344089,0.583052,0.0205069,0.094478,0.0794699
0.0813683,0.405647,1.27849,0.353971,0.202343,0.55128,0.0282684,0.0625818,0.0952507
0.0799491,0.413825,1.28963,0.382524,0.103092,0.523418,0.0347723,0.0669094,0.105505
0.0772296,0.422645,1.30033,0.41399,0.0624886,0.521495,0.0394534,0.0839407,0.120196
0.0735999,0.431954,1.31153,0.430754,0.041942,0.569129,0.0483939,0.0877591,0.125494
0.0693726,0.441756,1.32419,0.460207,0.0755988,0.635008,0.0524495,0.0775365,0.123248
0.0655906,0.452023,1.33775,0.479616,0.132052,0.633965,0.0541221,0.072742,0.124239
0.0629437,0.462513,1.35047,0.485396,0.155549,0.559259,0.0476953,0.0634468,0.115772
0.0610652,0.472795,1.36155,0.473212,0.149085,0.493768,0.0374948,0.0548485,0.106062
0.0589814,0.482724,1.37172,0.456562,0.112393,0.462611,0.0374643,0.0529542,0.0904618
0.0567741,0.492204,1.38126,0.434165,0.127752,0.428787,0.0372877,0.0641528,0.0898649
0.0552024,0.501037,1.39032,0.395708,0.136621,0.414243,0.0280996,0.0678746,0.0776534
0.0532609,0.508869,1.39917,0.341613,0.0908185,0.389829,0.022357,0.0700759,0.0475794
0.0508557,0.516042,1.40711,0.342659,0.0635698,0.324216,0.00211148,0.0637231,0.00770801
0.0490456,0.523114,1.41297,0.320185,0.0452547,0.221447,0.000224378,0.0730664,-0.0187613
0.0477666,0.528698,1.4171,0.20321,0.0185562,0.169349,0.0142975,0.0418544,-0.0331348
0.0448616,0.531147,1.42083,0.0259564,-0.14261,0.162391,0.0265023,0.0243754,-0.0775752
0.0374,0.530376,1.42469,-0.100931,-0.407524,0.167087,0.0414912,0.0160351,-0.143754
0.0249814,0.528047,1.4284,-0.112369,-0.613647,0.134361,0.0302422,0.022204,-0.220934
0.0117216,0.527409,1.43059,0.0657958,-0.548115,0.0546519,-0.0277678,0.049378,-0.27712
0.00209968,0.53025,1.4314,0.190764,-0.357216,0.0319573,-0.0565905,0.092999,-0.2528
-0.00358171,0.533442,1.43272,0.0941834,-0.152446,0.084732,-0.0499251,0.0777748,-0.190869
-0.00702866,0.532617,1.43477,-0.197295,-0.131281,0.0796062,-0.0357847,0.0516584,-0.149542
-0.0118945,0.525008,1.43571,-0.552443,-0.329924,4.29247e-06,-0.0255507,0.0125568,-0.148428
-0.0200465,0.511607,1.43387,-0.731417,-0.559272,-0.144636,-0.0486836,-0.00608718,-0.197232
-0.029798,0.498359,1.42819,-0.54321,-0.64737,-0.316701,-0.0807944,0.0145446,-0.242307
-0.0376383,0.491619,1.41903,-0.140508,-0.532076,-0.455911,-0.0952909,0.0568466,-0.208044
-0.0400173,0.492788,1.40749,0.190543,-0.243651,-0.553416,-0.0871748,0.0824289,-0.088255
-0.0353247,0.498477,1.39437,0.306744,0.0838949,-0.605386,-0.070253,0.103622,0.0496238
-0.0257397,0.504476,1.3807,0.216437,0.149203,-0.59754,-0.055457,0.111264,0.10463
-0.019024,0.506516,1.36816,-0.053835,-0.114588,-0.47529,-0.0437753,0.0717428,0.10269
-0.0195476,0.503053,1.35932,-0.281055,-0.332398,-0.293843,-0.0762133,0.0449382,0.117921
-0.0247234,0.497012,1.35391,-0.28577,-0.436574,-0.177014,-0.118361,0.0987649,0.0826151
-0.031156,0.49356,1.35053,-0.0300161,-0.291375,-0.111128,-0.145342,0.127725,0.0756438
-0.0322455,0.496636,1.34816,0.315079,0.0423269,-0.12119,-0.112616,0.0896601,0.129908
-0.0322455,0.496636,1.34816,0.315079,0.0423269,-0.12119,-0.112616,0.0896601,0.129908
-0.0291611,0.505144,1.34473,0.490135,0.051796,-0.213922,-0.0649998,0.0832991,0.138389
-0.0268513,0.515022,1.33886,0.449057,-0.108462,-0.316761,-0.0253102,0.0918734,0.157245
-0.0260074,0.52282,1.33111,0.30137,-0.164611,-0.360161,-0.0232916,0.0775416,0.200777
-0.0247036,0.527429,1.32294,0.139086,-0.101769,-0.346054,-0.0283536,0.087328,0.238413
-0.021677,0.528847,1.31558,-0.000969343,0.0423826,-0.284298,-0.0277489,0.0935121,0.251401
-0.0160147,0.528525,1.30957,-0.0213664,0.220019,-0.239771,-0.0294298,0.117496,0.216636
-0.00720396,0.528612,1.30474,0.0262273,0.398032,-0.163312,-0.0111745,0.0950026,0.211447
0.00194894,0.529044,1.30221,-0.00345412,0.334872,-0.0572934,0.0304067,0.0465326,0.195884
0.00586385,0.527625,1.3016,-0.148006,-0.00471246,-0.00243282,0.0584254,0.0163461,0.165809
0.00231573,0.523276,1.30181,-0.272018,-0.292076,0.0163597,0.025292,-0.00325522,0.147221
-0.00402942,0.517731,1.30211,-0.256129,-0.269832,0.0083947,-0.0256125,-0.000253022,0.111949
-0.00757438,0.513756,1.30238,-0.13607,-0.0668285,0.0194073,-0.043254,-0.00110215,0.0902556
-0.00724375,0.512377,1.30256,-0.000176783,0.104933,-0.00402564,-0.0531806,0.0176701,0.0354994
-0.0036392,0.513635,1.30236,0.115608,0.224817,-0.00571215,-0.0327192,-0.00984353,0.00888252
0.000686977,0.516674,1.30254,0.180198,0.260538,0.0324906,-0.0185417,-0.0504428,-0.0122012
0.00718897,0.520604,1.30438,0.185754,0.356704,0.13187,-0.00689273,-0.110872,0.0632973
0.00845957,0.523676,1.30861,0.122976,0.00629583,0.218142,-0.00428937,-0.130594,-0.0566974
0.00450241,0.526159,1.31346,0.128882,-0.143817,0.179222,-0.0424219,-0.118253,-0.0677613
-0.000770563,0.528334,1.31561,0.0553141,-0.269136,-0.0190914,-0.0658324,-0.108958,-0.114837
-0.00672771,0.527712,1.31256,-0.135295,-0.461318,-0.223914,-0.067201,-0.0880862,-0.189815
-0.0068328,0.524261,1.30689,-0.171756,0.464245,-0.210387,-0.0499627,-0.0776892,-0.104342
0.00957799,0.520791,1.3045,-0.188319,0.901835,0.0295127,-0.0724256,-0.138389,-0.252914
0.0293931,0.516903,1.30859,-0.204898,1.2344,0.307643,-0.0492921,-0.161938,-0.147638
0.0478342,0.512916,1.31766,-0.221841,0.931075,0.431362,-0.0508182,-0.151354,-0.20019
0.054285,0.509036,1.32704,-0.202685,0.137212,0.327567,-0.0603187,-0.118759,-0.265111
0.0467553,0.505752,1.33247,-0.148891,-0.560847,0.12235,-0.0570462,-0.102922,-0.297029
0.0328121,0.502852,1.33298,-0.152773,-0.694638,-0.0784416,-0.0307899,-0.0779182,-0.247383
0.0238339,0.499214,1.33016,-0.21081,-0.280099,-0.15372,-0.0134007,-0.0188076,-0.140433
0.0248625,0.493852,1.32742,-0.323389,0.23757,-0.0733675,-0.00992668,0.0680764,-0.030037
0.0326941,0.485999,1.32811,-0.455216,0.509066,0.113786,-0.0303224,0.111028,0.0417256
0.0416394,0.476915,1.33445,-0.45446,0.686422,0.408633,0.0264025,0.0400187,0.0808522
0.0484644,0.468061,1.34586,-0.465939,0.407073,0.517739,0.0386284,0.00190738,0.0400938
0.0475479,0.459628,1.35677,-0.39602,0.00462017,0.385635,0.0631308,0.020107,0.0374014
0.0414721,0.453581,1.36363,-0.215948,-0.284048,0.20491,0.0548646,0.0381783,0.0159239
0.0333573,0.451732,1.36704,0.0246633,-0.330856,0.112006,0.0598685,0.0492562,0.0312721
0.0271859,0.454539,1.36925,0.244414,-0.148374,0.104523,0.0440436,0.0790479,0.0651083
0.0258746,0.460792,1.37177,0.3532,0.0848279,0.140393,0.0374193,0.110673,0.124146
0.0275925,0.468096,1.37525,0.347265,0.232156,0.187723,0.052222,0.120851,0.163024
0.0304315,0.47438,1.37956,0.256989,0.221728,0.212396,0.0752889,0.108978,0.170903
0.0319544,0.478673,1.38441,0.163888,0.163878,0.226049,0.0961687,0.0844271,0.177513
0.0329163,0.481622,1.38927,0.121756,0.165021,0.207905,0.0909046,0.0930081,0.190559
0.0348764,0.484205,1.39361,0.129973,0.252349,0.190295,0.0882033,0.110768,0.205094
0.0391562,0.487305,1.39825,0.161423,0.378263,0.238075,0.0779898,0.11441,0.228487
0.0443914,0.491001,1.40438,0.176723,0.411145,0.315016,0.0687759,0.0992092,0.230892
0.0479607,0.49459,1.41215,0.147559,0.300423,0.377139,0.0708247,0.0761871,0.195237
0.0487635,0.497751,1.42082,0.130219,0.204823,0.38135,0.0638446,0.0482817,0.163472
0.0485003,0.500504,1.42846,0.108727,0.131177,0.276728,0.056327,0.0358068,0.13052
0.0484774,0.502415,1.43251,0.0559429,0.0522424,0.0784476,0.0494184,0.0300972,0.105327
0.0484077,0.502505,1.43216,-0.0523228,-0.0888428,-0.0953787,0.0498781,0.0170986,0.0534225
0.0466312,0.500151,1.42927,-0.161011,-0.215116,-0.151811,0.0659832,-0.0130566,-0.00965899
0.0466312,0.500151,1.42927,-0.161011,-0.215116,-0.151811,0.0659832,-0.0130566,-0.00965899
0.0437184,0.496014,1.42622,-0.224097,-0.196505,-0.125649,0.0634454,-0.0155162,-0.0616918
0.0418506,0.491457,1.42417,-0.214276,-0.0878133,-0.0743591,0.0384154,-0.00265294,-0.103333
0.0418245,0.487405,1.42292,-0.186312,0.032252,-0.0600237,0.00449945,-0.00354359,-0.152988
0.0443264,0.48353,1.4214,-0.20645,0.135167,-0.0952292,-0.00935529,-0.0190557,-0.168672
0.0483489,0.478674,1.41897,-0.271168,0.130157,-0.135432,0.0136509,-0.0411372,-0.17529
0.0509886,0.472459,1.41624,-0.329098,-0.00666271,-0.129621,0.025921,-0.0397805,-0.186694
0.0501054,0.465621,1.41431,-0.327989,-0.157798,-0.0688054,0.00654733,-0.0293703,-0.20351
0.0462132,0.459695,1.41422,-0.24975,-0.213079,0.0355412,-0.0269968,-0.0129296,-0.222887
0.0410263,0.455858,1.41644,-0.139084,-0.207058,0.140628,-0.0270915,0.00575447,-0.233579
0.0346616,0.453987,1.4202,-0.0702301,-0.276369,0.176502,-0.0154584,0.0128167,-0.247464
0.0258933,0.452629,1.42369,-0.0903272,-0.476056,0.109378,0.00352636,0.00398186,-0.257236
0.0132816,0.449596,1.42442,-0.226193,-0.713002,-0.0532234,0.00129843,-0.00360057,-0.285873
-0.00014307,0.443314,1.42174,-0.38956,-0.681986,-0.181195,-0.00721033,-0.00326991,-0.264191
-0.00862284,0.434581,1.41697,-0.457952,-0.320911,-0.228849,-0.0235052,0.0388893,-0.202637
-0.00821167,0.425777,1.41224,-0.401244,0.165999,-0.170764,-0.0626358,0.09618,-0.134967
0.000765082,0.418936,1.40994,-0.271691,0.603798,-0.0296554,-0.0745058,0.101125,-0.0473393
0.01467,0.414533,1.41064,-0.177308,0.743885,0.0765723,-0.0632319,0.0896062,0.0273735
0.0267974,0.411157,1.41292,-0.171283,0.499461,0.121435,-0.0251868,0.0578731,0.0468231
0.0309622,0.40784,1.416,-0.156659,0.0259165,0.151215,-0.000723556,0.0111902,0.0323011
0.0260366,0.405874,1.41968,-0.0314735,-0.332341,0.178776,-0.0563284,0.0120246,0.020192
0.0161046,0.407204,1.4237,0.15919,-0.457844,0.176961,-0.0959944,0.0483265,0.0310735
0.0071577,0.412408,1.42692,0.346114,-0.264071,0.119439,-0.116238,0.0780936,0.081128
0.00403559,0.420463,1.42893,0.430911,0.0259235,0.0715886,-0.104484,0.0967667,0.146337
0.00629307,0.428747,1.43027,0.373924,0.236979,0.0601503,-0.092012,0.109198,0.209213
0.0115409,0.434982,1.43169,0.238458,0.330671,0.0724722,-0.093779,0.106758,0.256808
0.017505,0.438447,1.43336,0.111462,0.319957,0.0823568,-0.0995735,0.0932046,0.282669
0.0228757,0.439794,1.43515,0.0303225,0.298004,0.0828095,-0.096396,0.0753653,0.298096
0.0278745,0.440054,1.43671,-0.00349136,0.253711,0.0491082,-0.0742116,0.0665674,0.312977
0.0318499,0.439739,1.43706,-0.0235577,0.155378,-0.0159699,-0.0590884,0.0567002,0.290833
0.0342798,0.439076,1.43623,-0.0395527,0.0482419,-0.0532073,-0.0410167,0.0405816,0.274212
0.0347597,0.43795,1.43482,-0.0778744,-0.0559186,-0.0718287,-0.0430086,0.0322987,0.251252
0.0331062,0.435629,1.43329,-0.15018,-0.182196,-0.0769985,-0.0436808,0.0178062,0.203334
0.0294487,0.431802,1.4315,-0.222605,-0.241262,-0.0996419,-0.0401544,-0.00153565,0.163724
0.0255257,0.42651,1.42862,-0.299086,-0.263202,-0.184826,-0.0125401,-0.00495967,0.135308
0.0222633,0.419554,1.42359,-0.383047,-0.259473,-0.27779,0.00399166,-0.0160172,0.108891
0.0206165,0.411117,1.41727,-0.440204,-0.140311,-0.302598,-2.22325e-05,-0.0319921,0.0983956
0.0211537,0.401646,1.41119,-0.487036,-0.0555192,-0.259258,-0.00866568,-0.0270048,0.0681317
0.0222245,0.391543,1.40703,-0.506171,-0.00634464,-0.13632,-0.0130794,-0.046287,0.0402429
0.0230114,0.381594,1.40585,-0.476459,0.0530327,0.00640648,-0.00496648,-0.0717681,0.0123146
0.0246969,0.372701,1.40743,-0.406634,0.172593,0.112202,-0.00703842,-0.0793337,-7.39098e-05
0.0279678,0.365369,1.41073,-0.327092,0.25206,0.162758,-0.0063888,-0.0851198,-0.00892377
0.0315459,0.359734,1.41439,-0.244247,0.218031,0.150031,-0.0188712,-0.102519,-0.0430975
0.0333288,0.355245,1.41717,-0.218853,0.0401499,0.0917885,-0.021507,-0.112629,-0.112276
0.0318977,0.351125,1.41886,-0.187331,-0.1021,0.0510611,-0.0134517,-0.139291,-0.169493
0.029442,0.347921,1.41922,-0.1271,-0.110234,-0.0357883,-0.0273536,-0.118956,-0.215216
0.0290231,0.346049,1.41758,-0.0550412,0.0337175,-0.112012,-0.0407877,-0.0970961,-0.239424
0.0325391,0.345442,1.41532,-0.0095569,0.240676,-0.090995,-0.032763,-0.0943093,-0.250887
0.0397148,0.345217,1.41375,-0.0179069,0.411817,-0.0614309,-0.0108422,-0.0840543,-0.240892
0.0489981,0.344283,1.41231,-0.0706022,0.417424,-0.0834373,0.00557712,-0.0763117,-0.232358
0.0560014,0.341803,1.40989,-0.169127,0.168963,-0.165648,0.00892644,-0.06702,-0.266173
0.0560014,0.341803,1.40989,-0.169127,0.168963,-0.165648,0.00892644,-0.06702,-0.266173
0.0578569,0.337122,1.40571,-0.262184,-0.104694,-0.244753,0.0204577,-0.0667498,-0.296073
0.0567929,0.33139,1.40051,-0.259671,-0.125769,-0.267192,0.0355288,-0.0382589,-0.271159
0.0579782,0.326925,1.39537,-0.132904,0.106002,-0.221421,0.0418335,0.00921237,-0.209708
0.0644666,0.326203,1.39251,0.0775015,0.470361,-0.0346068,0.0283612,0.0402511,-0.105452
0.0775214,0.329657,1.39397,0.237047,0.834238,0.192762,0.0204305,0.0803107,0.0464917
0.0930919,0.335393,1.39986,0.264576,0.852523,0.401676,0.0299893,0.0872889,0.125022
0.104778,0.340975,1.41004,0.179355,0.616374,0.597127,0.0318057,0.0534308,0.17217
0.108666,0.344349,1.42401,0.0035955,0.214711,0.732628,0.0622665,0.0336593,0.177565
0.10311,0.344511,1.44034,-0.122189,-0.197756,0.780669,0.056136,0.0127696,0.132867
0.0920781,0.344219,1.45662,-0.0280449,-0.273453,0.705099,0.0216914,0.0170729,0.1041
0.084165,0.346228,1.46963,0.109073,-0.0508619,0.52223,0.0135894,0.0787168,0.117246
0.0831828,0.349708,1.47935,0.137724,0.282468,0.432187,0.0271514,0.084231,0.171835
0.0878362,0.352311,1.48852,0.033583,0.457784,0.44909,0.0398267,0.073431,0.204323
0.0934454,0.35253,1.49852,-0.0916243,0.411929,0.480355,0.0536489,0.0628183,0.21819
0.0962728,0.351056,1.50909,-0.12845,0.222946,0.484981,0.0771578,0.0424676,0.198105
0.0957306,0.350048,1.51918,-0.0466271,0.0891959,0.431942,0.0616403,0.0457476,0.172543
0.0951232,0.350999,1.52746,0.0634197,0.160456,0.346103,0.0439593,0.0651797,0.16478
0.0973301,0.353318,1.53409,0.0857434,0.281301,0.300602,0.0592167,0.0722552,0.170102
0.101386,0.354858,1.54068,-0.00430246,0.346263,0.338825,0.0890691,0.0688474,0.173878
0.105873,0.354435,1.54904,-0.114955,0.376496,0.435767,0.0919023,0.0650172,0.171941
0.109376,0.352648,1.55971,-0.149878,0.333001,0.53109,0.0705178,0.0600297,0.140877
0.110896,0.351291,1.5718,-0.0943574,0.228773,0.564075,0.0394915,0.0517059,0.089717
0.110456,0.351393,1.58358,-0.0231583,0.129011,0.522299,0.0262189,0.0355204,0.0555022
0.108938,0.351959,1.59385,-0.0453249,0.0781808,0.43257,0.0344933,0.017848,0.037566
0.107546,0.350788,1.60236,-0.160424,0.0875309,0.352993,0.0323456,0.0032452,0.0136172
0.107471,0.347204,1.61003,-0.257685,0.173551,0.328177,0.0290499,-0.0033882,-0.0137211
0.109867,0.342356,1.61749,-0.285822,0.313093,0.312473,0.013538,0.00215012,-0.0423355
0.114997,0.337523,1.62481,-0.263763,0.423326,0.311502,0.00572877,0.00561965,-0.0475176
0.121563,0.333433,1.63187,-0.214058,0.450861,0.296614,-0.00652288,0.00217006,-0.0531532
0.1285,0.330638,1.6382,-0.139878,0.437434,0.252796,-0.0206044,0.00506651,-0.0530211
0.134712,0.328731,1.64345,-0.12881,0.335229,0.221516,-0.00826281,0.00861812,-0.0453221
0.138313,0.32621,1.64879,-0.196756,0.187881,0.24755,0.00483549,-0.005564,-0.0371398
0.138423,0.322032,1.65513,-0.292482,0.0364148,0.290024,0.00718834,-0.019366,-0.0694515
0.135939,0.316622,1.66264,-0.321515,-0.0478773,0.336967,0.0169213,-0.0381289,-0.107043
0.131876,0.311373,1.67105,-0.298131,-0.0773441,0.382223,0.0238613,-0.0282901,-0.147126
0.127909,0.306779,1.68056,-0.279777,-0.0228745,0.454741,0.0250316,-0.030545,-0.145831
0.12478,0.302049,1.69173,-0.334572,0.0240379,0.536783,0.0334908,-0.0427178,-0.131551
0.121095,0.29548,1.70428,-0.473746,-0.0502433,0.548804,0.0482699,-0.0640253,-0.137242
0.113535,0.284687,1.71581,-0.736611,-0.431612,0.393925,0.0484033,-0.0829278,-0.237851
0.0991236,0.268407,1.72372,-0.913715,-0.719059,0.187204,0.0326794,-0.165239,-0.364772
0.0840896,0.251256,1.72713,-0.755692,-0.652923,-0.0117764,0.0113285,-0.159918,-0.426698
0.0730649,0.240342,1.72641,-0.291574,-0.44112,-0.118001,0.00519386,-0.0584743,-0.419167
0.0669376,0.239411,1.72415,0.189246,-0.252147,-0.0865955,0.00174676,0.0105987,-0.34686
0.0630433,0.246196,1.72323,0.452485,-0.153899,0.0580626,0.0225316,0.0277131,-0.245566
0.0603238,0.256592,1.72561,0.546994,-0.0523417,0.226813,0.0364436,0.0153056,-0.133544
0.0595039,0.268482,1.73069,0.600948,0.111966,0.314457,0.0224803,0.041986,-0.00834161
0.0619501,0.281034,1.73677,0.60274,0.284171,0.341421,0.00277409,0.0687766,0.109897
0.0662323,0.292905,1.7433,0.520368,0.276641,0.350711,-0.0298415,0.0855488,0.190951
0.0681574,0.302425,1.74958,0.383801,0.0893744,0.300847,-0.0751153,0.0885615,0.204415
0.0663367,0.309532,1.75426,0.306872,-0.124171,0.17759,-0.11012,0.0679648,0.198047
0.0663367,0.309532,1.75426,0.306872,-0.124171,0.17759,-0.11012,0.0679648,0.198047
0.0627909,0.316192,1.75597,0.367594,-0.14704,0.0299031,-0.0848465,0.0432651,0.220572
0.0615378,0.324775,1.75468,0.487872,0.00587877,-0.0881967,-0.0613206,0.0703315,0.264929
0.0650536,0.334843,1.75164,0.502092,0.247849,-0.118233,-0.0687674,0.107705,0.328496
0.0723318,0.343638,1.74921,0.378419,0.366494,-0.037907,-0.0678606,0.0981303,0.352617
0.0798619,0.350155,1.74895,0.277703,0.343843,0.0537183,-0.0685123,0.0708569,0.340363
0.0842593,0.355304,1.75008,0.231595,0.10385,0.090109,-0.0245361,0.0493985,0.280559
0.0824795,0.360043,1.75191,0.229404,-0.210448,0.121066,0.00347804,0.0277904,0.222037
0.0760034,0.365036,1.75434,0.244354,-0.30919,0.142585,-0.00688624,0.0246007,0.17966
0.0694339,0.369785,1.75715,0.199018,-0.219368,0.150321,-0.0027379,0.0245162,0.147962
0.0658378,0.372932,1.76016,0.081497,-0.0290866,0.147258,0.00959373,0.0194076,0.152573
0.0653587,0.372988,1.76343,-0.0953839,0.067464,0.162237,0.0410003,0.0095261,0.146356
0.0643712,0.369631,1.76776,-0.255154,-0.0275686,0.223697,0.0639344,-0.0029555,0.111621
0.0603094,0.364129,1.77406,-0.311458,-0.138368,0.326521,0.0626517,-0.010808,0.0780602
0.0538481,0.358483,1.78257,-0.277382,-0.188247,0.428251,0.060256,-0.00757524,0.0507498
0.0471716,0.354328,1.79303,-0.184645,-0.100242,0.519859,0.0555522,-0.00338125,0.0618365
0.0420553,0.351687,1.80524,-0.142434,0.00887143,0.60905,0.0526629,-4.17233e-07,0.0838979
0.0379234,0.348959,1.81955,-0.188977,0.0588117,0.712289,0.0446167,-0.0166311,0.106259
0.0337245,0.345085,1.83558,-0.243662,0.0531101,0.755149,0.0224841,-0.0293385,0.121801
0.0289405,0.340493,1.85131,-0.252779,-0.00456119,0.686111,-0.00180841,-0.0405603,0.111141
0.0238699,0.335924,1.86471,-0.235797,-0.046214,0.554602,-0.00745797,-0.0511263,0.0991717
0.0197407,0.331339,1.87536,-0.249024,-0.00556425,0.442047,-0.00998358,-0.0417562,0.105015
0.017882,0.325926,1.88422,-0.303104,0.107435,0.392159,-0.00761664,-0.0451396,0.100676
0.0183502,0.319591,1.89256,-0.332312,0.198837,0.385496,0.0103814,-0.0551606,0.0801398
0.0203384,0.313282,1.9007,-0.301424,0.236745,0.365852,0.0249796,-0.0624377,0.0504498
0.0226706,0.307908,1.90817,-0.238238,0.222453,0.332966,0.0406532,-0.078648,0.00591689
0.0244352,0.304296,1.91537,-0.127686,0.161223,0.346213,0.0595601,-0.0964054,-0.0616379
0.0255839,0.303261,1.92295,0.00249756,0.19744,0.367567,0.0501711,-0.0760912,-0.104538
0.028753,0.304484,1.93108,0.0870046,0.383963,0.416205,0.0344171,-0.0508917,-0.126471
0.0361625,0.306744,1.94057,0.0951012,0.614771,0.487935,0.0374019,-0.0483859,-0.11943
0.0459563,0.308637,1.95129,0.0564226,0.660516,0.527066,0.0379261,-0.0420798,-0.130899
0.0546312,0.310211,1.96223,0.0527635,0.499365,0.505617,0.0256695,-0.0441207,-0.149066
0.0589996,0.312066,1.97203,0.0814013,0.244165,0.429693,0.0150953,-0.0335354,-0.177808
0.0594637,0.314734,1.98045,0.141051,0.0615305,0.392431,0.010385,-0.0188361,-0.174017
0.0570911,0.318865,1.98877,0.226635,-0.023298,0.4223,0.0247346,0.00861868,-0.135894
0.0541185,0.324809,1.99799,0.31259,0.0438701,0.483753,0.0314236,0.04363,-0.0779371
0.0535477,0.332017,2.00849,0.334438,0.261188,0.543409,0.0338277,0.0767894,-0.00831491
0.0580901,0.338652,2.02025,0.248347,0.571901,0.591135,0.0441169,0.0936291,0.0719684
0.0682321,0.342828,2.03292,0.086599,0.84675,0.618414,0.0493899,0.103318,0.13911
0.0822106,0.343977,2.04676,-0.0585155,0.977047,0.695471,0.0467615,0.112411,0.185937
0.0956722,0.343483,2.06358,-0.115031,0.894926,0.885942,0.0646099,0.105537,0.202021
0.104176,0.343171,2.08522,-0.111465,0.661738,1.13562,0.0687172,0.107257,0.178561
0.105821,0.343938,2.11232,-0.0714314,0.406649,1.39108,0.0690646,0.0793083,0.132365
0.100878,0.346219,2.1437,-0.00186472,0.153945,1.52171,0.0914712,0.0580474,0.088453
0.090476,0.349721,2.17587,0.050524,-0.0798194,1.4786,0.104631,0.0543054,0.0397518
0.0781239,0.352854,2.20595,0.00454604,-0.0849191,1.34554,0.0837004,0.0475883,0.0144924
0.0680802,0.353247,2.23341,-0.164018,0.0353172,1.21353,0.0643313,0.0367114,-0.0111237
0.0605911,0.349417,2.25811,-0.363145,0.0387191,1.06143,0.0656789,0.0358927,-0.0535153
0.0529079,0.341964,2.28004,-0.474797,-0.0714155,0.956447,0.0888049,0.0233265,-0.0938122
0.0436459,0.33341,2.30029,-0.441452,-0.164484,0.911282,0.11882,0.0140504,-0.129897
0.034736,0.327061,2.31985,-0.245494,-0.0529992,0.902734,0.126063,0.0168788,-0.12606
0.034736,0.327061,2.31985,-0.245494,-0.0529992,0.902734,0.126063,0.0168788,-0.12606
0.0301462,0.32499,2.33873,-0.0294926,0.210051,0.87244,0.117585,0.0482121,-0.084042
0.0309778,0.325943,2.35726,0.0411822,0.43553,0.888875,0.112671,0.0646026,-0.0294848
0.0341431,0.32682,2.37669,-0.0251996,0.476041,0.942933,0.119251,0.039859,0.00149357
0.0366031,0.326407,2.39697,-0.0754865,0.399227,0.952502,0.12438,0.0190062,0.011187
0.0365438,0.325717,2.41667,-0.0512219,0.220872,0.891353,0.12278,0.0235407,-0.00549686
0.033914,0.325999,2.43465,0.0211362,0.100817,0.802992,0.113584,0.0243876,-0.0209717
0.0300512,0.32736,2.45088,0.0568927,0.0395065,0.73163,0.101188,0.0347553,-0.0564779
0.0257692,0.328665,2.46591,0.0273122,0.0114571,0.691559,0.0879175,0.0389513,-0.0794597
0.0209431,0.328713,2.48024,-0.0501544,-0.0171932,0.660746,0.056382,0.046183,-0.109459
0.0167982,0.327668,2.494,-0.0608013,0.072631,0.628791,0.0229604,0.0193759,-0.118127
0.0165957,0.32757,2.50654,0.0458276,0.32433,0.541159,-0.0039176,0.0147975,-0.0858199
0.0228043,0.329719,2.51636,0.138225,0.597797,0.383044,-0.00294314,0.0216835,-0.0157368
0.0345946,0.332624,2.52298,0.110777,0.75592,0.263772,0.00432581,0.0054028,0.0580572
0.0476491,0.33414,2.52828,0.0176827,0.680408,0.251808,0.0243392,-0.0212706,0.108125
0.0572274,0.334219,2.53366,-0.0219001,0.430824,0.253695,0.0157319,-0.0264756,0.115575
0.0613273,0.334627,2.53906,0.0493929,0.171884,0.254533,0.010943,-0.0305611,0.10685
0.0617508,0.337106,2.54427,0.164497,0.0619451,0.245374,-0.00467986,-0.0228952,0.106666
0.061573,0.34133,2.54908,0.202957,0.0882185,0.232163,0.000533141,-0.0196908,0.117283
0.0621527,0.344881,2.55365,0.0984318,0.114236,0.219348,0.0087139,-0.0355881,0.128828
0.0628756,0.345344,2.55821,-0.0826467,0.0975702,0.208948,0.0170933,-0.0530655,0.127393
0.0625413,0.342428,2.56276,-0.216664,0.0229198,0.204532,0.0310634,-0.0709627,0.088065
0.0605005,0.337937,2.5674,-0.244401,-0.0834311,0.200593,0.0369961,-0.0789655,0.0380584
0.0562766,0.333662,2.57197,-0.203102,-0.176206,0.210709,0.0409102,-0.0829714,-0.0225278
0.0506897,0.330173,2.57715,-0.181335,-0.194472,0.274571,0.0754055,-0.0923734,-0.0776898
0.045163,0.326806,2.58469,-0.188855,-0.0936318,0.419759,0.104169,-0.109446,-0.106338
0.0417621,0.323402,2.59489,-0.19328,0.0719794,0.514193,0.103771,-0.0958562,-0.119562
0.0404706,0.319271,2.60631,-0.287636,0.130827,0.533734,0.0915594,-0.0845322,-0.131376
0.0394602,0.312013,2.61773,-0.475846,0.121382,0.515373,0.0786657,-0.118318,-0.159863
0.0388635,0.301753,2.62882,-0.557377,0.157931,0.498365,0.08131,-0.136613,-0.17478
0.0396913,0.291711,2.63965,-0.458065,0.247085,0.501919,0.0832571,-0.11785,-0.189928
0.042416,0.284626,2.65128,-0.289244,0.343972,0.589889,0.0820139,-0.10293,-0.163151
0.0457858,0.280727,2.66504,-0.176238,0.346005,0.695035,0.0699592,-0.0727835,-0.11518
0.0473748,0.277697,2.68032,-0.213604,0.226702,0.741095,0.0401658,-0.036314,-0.0797949
0.0460292,0.272976,2.69613,-0.327506,0.0636238,0.738211,0.0338462,-0.0490506,-0.0648264
0.0423368,0.266688,2.71145,-0.329228,0.00642162,0.701028,0.0292251,-0.0454525,-0.0840517
0.0398121,0.262259,2.72617,-0.155774,0.143502,0.692903,0.0273705,-0.0288992,-0.0881049
0.0407851,0.261689,2.74065,0.0381639,0.306297,0.700553,0.027692,-0.0039984,-0.0683876
0.0437271,0.26439,2.75524,0.157741,0.351615,0.705366,0.00463499,0.0149976,-0.056163
0.0467561,0.268847,2.76946,0.221508,0.279798,0.681116,-0.0147562,0.0314584,-0.0366095
0.0467651,0.275122,2.78354,0.358681,0.0897525,0.698789,-0.021522,0.0401581,-0.0382939
0.043206,0.285369,2.79744,0.608855,-0.0378656,0.66189,-0.044055,0.0722986,-0.0416276
0.0392507,0.300409,2.80959,0.818269,0.0226398,0.549316,-0.0658494,0.108442,-0.00737321
0.0385328,0.317502,2.81922,0.802796,0.202087,0.436313,-0.0767437,0.128493,0.0527983
0.0419221,0.332062,2.82718,0.586525,0.377296,0.380388,-0.0680018,0.144749,0.104408
0.0478857,0.341231,2.83487,0.284353,0.44102,0.396891,-0.0459773,0.148078,0.135187
0.0519021,0.344346,2.84415,-0.00117873,0.21822,0.488672,-0.0215659,0.12379,0.128551
0.0493415,0.343749,2.85514,-0.0625194,-0.0834197,0.512286,-0.0600164,0.0868969,0.0587144
0.0427077,0.344602,2.86458,0.135339,-0.221189,0.339051,-0.119561,0.092369,0.00343168
0.037433,0.350124,2.86839,0.387892,-0.157059,0.0322535,-0.11485,0.128293,0.00579554
0.0367065,0.358728,2.86603,0.429212,-0.0105361,-0.195581,-0.0864099,0.135187,0.0457905
0.0367065,0.358728,2.86603,0.429212,-0.0105361,-0.195581,-0.0864099,0.135187,0.0457905
0.0380878,0.365229,2.86144,0.197979,-0.0370073,-0.15816,-0.00900143,0.103364,0.0626675
0.0365713,0.365962,2.86079,-0.128321,-0.142787,0.125465,0.0454174,0.0741414,0.0845684
0.0305544,0.360546,2.86748,-0.425914,-0.228093,0.462265,0.039606,0.057985,0.0847581
0.0213068,0.350369,2.87941,-0.582252,-0.150997,0.602145,-0.0558537,0.107694,0.0687022
0.0181167,0.339012,2.89223,-0.550008,0.246409,0.528482,-0.126353,0.130026,0.111615
0.0229569,0.32962,2.90119,-0.39022,0.482254,0.299354,-0.0819456,0.166853,0.124352
0.0305536,0.323855,2.90674,-0.199009,0.415391,0.252267,-0.0171963,0.095598,0.120135
0.035091,0.321925,2.91366,-0.0225651,0.239032,0.403936,-0.00184839,0.0524159,0.144974
0.0344071,0.322957,2.92364,0.0803792,0.0180105,0.528188,-0.0204149,0.072224,0.141282
0.0294358,0.325228,2.93538,0.0916875,-0.128584,0.577052,-0.031093,0.0800689,0.157418
0.0216291,0.326835,2.94782,0.0403114,-0.241749,0.599102,-0.0238395,0.0559718,0.115924
0.0132753,0.327694,2.96097,0.0265293,-0.147775,0.643837,-0.0230208,0.0165319,0.0932034
0.00704066,0.328118,2.97499,-0.00326142,-0.0357753,0.669043,-0.0222442,-0.00314733,0.0451532
0.00256949,0.32743,2.98903,-0.0740869,0.0307836,0.646186,-0.0214454,-0.0296771,-0.00764471
-0.000797766,0.325219,3.00221,-0.148123,0.0500671,0.583636,-0.0180734,-0.0540032,-0.0574093
-0.00325193,0.321382,3.01359,-0.232827,0.0609104,0.492817,-0.0223815,-0.0336093,-0.105145
-0.00536053,0.316091,3.02351,-0.275008,0.0497282,0.457217,0.00250091,-0.0494366,-0.203517
-0.00605265,0.311217,3.03323,-0.18695,0.189566,0.468045,0.0113923,-0.0477408,-0.260473
-0.0035041,0.308916,3.04319,-0.0348589,0.376073,0.480302,0.0248836,-0.0127459,-0.292704
0.00303816,0.309778,3.0541,0.11142,0.595941,0.559632,0.0472316,-0.0109483,-0.269893
0.0130767,0.312978,3.06671,0.175821,0.768675,0.623096,0.0365091,0.00601345,-0.217102
0.0247612,0.316184,3.07965,0.0970435,0.754604,0.592684,0.0260597,0.0262743,-0.200406
0.0340445,0.31652,3.09101,-0.118112,0.487333,0.463181,-0.00527798,0.0473454,-0.226557
0.0379139,0.311564,3.09913,-0.3966,0.169587,0.299397,0.0106577,0.0120224,-0.264054
0.0381702,0.301744,3.10502,-0.581866,0.0861488,0.240032,0.0376904,-0.0152225,-0.237892
0.040245,0.289744,3.11049,-0.61038,0.328846,0.239449,0.0313282,0.0454271,-0.160623
0.0486727,0.278175,3.11667,-0.555791,0.678055,0.317905,0.00592066,0.106632,-0.0810234
0.0625582,0.268471,3.1255,-0.452053,0.894145,0.480423,-0.0126858,0.0955801,0.0038259
0.0773562,0.260887,3.13709,-0.391728,0.831021,0.54477,-0.0168638,0.0700564,0.0657655
0.0875827,0.253917,-3.13514,-0.384967,0.432551,0.442635,0.0019886,0.0481643,0.0539933
0.0904312,0.247497,-3.12634,-0.316216,0.0927539,0.359009,0.0275866,0.0107409,0.0585998
0.0887466,0.243022,-3.11857,-0.190287,-0.0285136,0.358421,0.021091,0.0169893,0.0584244
0.0874098,0.241211,-3.11052,-0.0628181,0.121204,0.394355,0.000388078,0.0462209,0.0868338
0.0902139,0.24149,-3.10224,0.0061674,0.342315,0.392119,-0.0181567,0.0621782,0.118554
0.0965944,0.242458,-3.09487,0.0116147,0.440452,0.312261,-0.0202743,0.052147,0.146386
0.103792,0.243182,-3.08982,0.0107023,0.375116,0.173371,-0.0130027,0.0290765,0.138525
0.110041,0.244021,-3.08804,0.0689471,0.307801,0.00189348,-0.0143717,0.0257706,0.133481
0.117009,0.246456,-3.09003,0.200404,0.361861,-0.157464,-0.0161844,0.0698963,0.149569
0.126729,0.251629,-3.09479,0.365004,0.490947,-0.220333,0.00179674,0.101323,0.17177
0.138923,0.259644,-3.1002,0.478921,0.553394,-0.175659,0.0215757,0.0987323,0.189866
0.149657,0.268955,-3.10412,0.48022,0.376721,-0.0552773,0.0485219,0.0635301,0.163616
0.155062,0.277868,-3.10543,0.407332,0.12621,0.0533417,0.0507164,0.0347891,0.142014
0.155649,0.285126,-3.10531,0.303361,-0.0350815,0.0482352,0.0163832,0.0534492,0.123975
0.154865,0.290073,-3.10576,0.190118,-0.0327035,-0.0143412,-0.00679645,0.0726282,0.11802
0.15556,0.292468,-3.10679,0.0509351,0.0793143,-0.0374382,-0.00254077,0.0720843,0.128056
0.157801,0.291785,-3.10696,-0.119181,0.124112,0.0280671,0.00339508,0.0692324,0.122026
0.159115,0.288213,-3.1043,-0.26094,0.0788374,0.171517,-0.00698082,0.0558915,0.108309
0.158543,0.283057,-3.09868,-0.319498,0.0235046,0.25758,-0.0295421,0.0472367,0.102384
0.15697,0.277551,-3.09257,-0.303244,0.0043419,0.210526,-0.0397935,0.0384516,0.0917357
0.15655,0.272412,-3.08859,-0.26218,0.0448421,0.0797757,-0.0402229,0.0544098,0.101829
0.15655,0.272412,-3.08859,-0.26218,0.0448421,0.0797757,-0.0402229,0.0544098,0.101829
0.157088,0.267442,-3.08731,-0.249513,0.0386437,-0.013069,-0.0300778,0.0657786,0.0872794
0.157159,0.262279,-3.08635,-0.278799,-0.0194285,0.0499527,-0.0143192,0.0411883,0.0686299
0.154337,0.256685,-3.08296,-0.317158,-0.183738,0.183313,-0.00791131,0.0309598,0.026556
0.147682,0.250945,-3.07736,-0.315096,-0.318446,0.246752,-0.0208485,0.032942,-0.021511
0.139407,0.24566,-3.07162,-0.28618,-0.365667,0.211716,-0.0170475,0.0187854,-0.0590254
0.130254,0.240383,-3.06743,-0.297069,-0.43888,0.117632,-0.013526,0.0146102,-0.113946
0.120255,0.234251,-3.06491,-0.338785,-0.483786,0.0643647,0.000604913,0.0149055,-0.167301
0.11018,0.227544,-3.06234,-0.340845,-0.452644,0.119725,0.0200289,-0.000839695,-0.201896
0.100248,0.221382,-3.05816,-0.30116,-0.448092,0.216093,0.0243872,0.0151411,-0.246573
0.0898051,0.216439,-3.05255,-0.240575,-0.472264,0.27403,0.0403072,0.00917174,-0.261108
0.0788561,0.212319,-3.04646,-0.230634,-0.48656,0.260989,0.053274,-0.00951785,-0.250331
0.0679885,0.20762,-3.04222,-0.270067,-0.494737,0.106237,0.0371301,0.00346448,-0.240716
0.0573332,0.201486,-3.04153,-0.351577,-0.582191,-0.065361,0.0293829,0.00324126,-0.24326
0.0438366,0.193475,-3.04371,-0.429471,-0.818147,-0.184667,0.0103246,-0.0181787,-0.294183
0.0256977,0.184309,-3.04868,-0.457492,-1.05133,-0.34098,-0.0362155,-0.0197359,-0.359211
0.00626054,0.175183,-3.05761,-0.426573,-0.972791,-0.545427,-0.0532533,-0.0162787,-0.322591
-0.0070034,0.167432,-3.0703,-0.340954,-0.516989,-0.674828,-0.0358345,-0.0134185,-0.205628
-0.00947836,0.16151,-3.08415,-0.259707,0.0330241,-0.661351,-0.0233142,0.00333847,-0.0687381
-0.00209625,0.156614,-3.09718,-0.24957,0.434666,-0.616901,-0.040181,0.00567544,0.0541499
0.00813984,0.150704,-3.10936,-0.343163,0.310408,-0.58405,-0.0362763,-0.00297202,0.0655524
0.0114095,0.142693,-3.12097,-0.426324,-0.185408,-0.56789,-0.0487994,-0.0524624,0.026729
0.00401407,0.134695,-3.13223,-0.314686,-0.670223,-0.544216,-0.0553846,-0.0942882,-0.0117818
-0.0108586,0.131569,3.14004,0.024373,-0.900177,-0.537398,-0.0614248,-0.0670982,-0.0103491
-0.0264955,0.136115,3.12887,0.395613,-0.748791,-0.57834,-0.0555703,-0.0227822,0.0588996
-0.0363063,0.147273,3.11713,0.646434,-0.378744,-0.599852,-0.0504746,-0.00238268,0.140607
-0.0391141,0.161617,3.10579,0.702086,-0.115969,-0.557194,-0.0318247,-0.0102894,0.1921
-0.0387536,0.174841,3.09506,0.534258,-0.0285809,-0.55313,-0.00805044,-0.0294636,0.213431
-0.0360727,0.182883,3.08437,0.213945,0.105338,-0.499377,0.0123921,-0.0649613,0.252566
-0.0295701,0.184993,3.0771,0.00863822,0.332039,-0.1881,0.11213,-0.10967,0.281473
-0.027209,0.184506,3.07657,-0.0466968,-0.184548,0.101067,0.00689216,-0.049678,0.122556
-0.0370684,0.183337,3.07942,-0.0468483,-0.68322,0.15264,-0.00410377,0.0246888,0.134116
-0.0533116,0.183588,3.08189,0.104748,-0.81663,0.0848449,-0.000785984,0.00877601,0.160646
-0.0670617,0.188474,3.08377,0.391684,-0.465654,0.0662332,-0.00460985,-0.0398427,0.236873
-0.0719969,0.198622,3.08508,0.616188,-0.0237159,-0.0285834,-0.0198421,0.0305857,0.244111
-0.0693459,0.212804,3.08423,0.771039,0.255934,-0.146504,-0.0194766,0.0899398,0.163951
-0.0612063,0.229189,3.08184,0.826876,0.505894,-0.167737,0.00449963,0.0658715,0.150586
-0.0484121,0.24554,3.08025,0.764599,0.690128,-0.0650871,0.0200862,0.00879708,0.166105
-0.0359287,0.259156,3.08049,0.57113,0.489502,0.0167218,0.0136033,-0.0285559,0.0979866
-0.0299298,0.267906,3.08125,0.297386,0.156514,0.0166973,0.0106998,-0.0650904,0.0486122
-0.0280397,0.270973,3.08107,0.00872432,0.0565827,-0.0563451,0.00496409,-0.0666812,0.060239
-0.0261922,0.268521,3.07859,-0.24476,0.0623378,-0.167023,-0.0122707,-0.046416,0.0391052
-0.0231021,0.262131,3.07434,-0.37253,0.138228,-0.206635,-0.0256627,-0.0406041,0.0190337
-0.0187871,0.254644,3.07046,-0.36203,0.166021,-0.135095,-0.0164725,-0.0522223,-0.0378803
-0.0160223,0.248338,3.06893,-0.260499,0.0589474,-0.00468324,-0.00146818,-0.0529583,-0.129328
-0.0163478,0.244471,3.06918,-0.121406,-0.0759214,0.0113729,0.0018992,-0.0265883,-0.218417
-0.0179549,0.243659,3.0685,0.039871,-0.079192,-0.0777717,-0.000673307,-0.0025495,-0.264146
-0.0181074,0.246083,3.06636,0.197007,0.0450045,-0.112902,-0.0082112,0.0133975,-0.26997
-0.0143974,0.251363,3.06521,0.312946,0.301863,0.0166221,-0.00763151,0.0150362,-0.234224
-0.00644912,0.258061,3.06817,0.347665,0.570427,0.277445,0.00817338,0.00792253,-0.184623
0.00577467,0.264772,3.07678,0.308314,0.866032,0.535779,0.0303915,-0.0161276,-0.109998
0.00577467,0.264772,3.07678,0.308314,0.866032,0.535779,0.0303915,-0.0161276,-0.109998
0.0217254,0.269977,3.08918,0.175743,0.99704,0.62815,0.027815,-0.010756,-0.0792667
0.0371543,0.271939,3.10139,-0.0273905,0.812274,0.512321,0.0222027,-0.00219759,-0.0934891
0.0468439,0.269147,3.1092,-0.2826,0.321639,0.199126,0.0188545,-0.0140281,-0.161342
0.0488197,0.261522,3.11027,-0.456311,-0.0123079,-0.113119,0.030099,-0.057321,-0.199399
0.0505046,0.25175,3.10666,-0.473191,0.155768,-0.254691,0.0392735,-0.0394902,-0.142742
0.0587628,0.243008,3.10227,-0.349545,0.572359,-0.187985,0.0484043,0.0112077,-0.0676931
0.0752852,0.238192,3.10081,-0.106873,0.999083,0.0326524,0.0493002,0.0194847,0.0156139
0.096119,0.239292,3.10449,0.180527,1.13451,0.327003,0.0759683,0.00216699,0.0275533
0.115823,0.246227,3.11286,0.411881,0.967966,0.530271,0.0902224,0.0498839,0.0405047
0.129399,0.257983,3.12354,0.61956,0.641785,0.620376,0.0727724,0.0715369,0.0507113
0.136468,0.27408,3.13446,0.830148,0.367139,0.622321,0.0338128,0.0614936,0.0699049
0.13998,0.293918,-3.13884,0.974417,0.25792,0.58583,0.0156912,0.0476236,0.13025
0.142149,0.315109,-3.12993,0.957851,0.234609,0.550024,-0.0103361,0.0534351,0.17773
0.143781,0.333875,-3.12181,0.753774,0.16095,0.462898,-0.0388312,0.0650876,0.191943
0.144127,0.347149,-3.11551,0.468396,0.0998718,0.306056,-0.0555168,0.0708705,0.182672
0.145446,0.354669,-3.11195,0.234754,0.175222,0.131423,-0.0499605,0.0615588,0.188267
0.15065,0.357506,-3.11136,0.0300836,0.355533,-0.0289563,-0.0430876,0.0752499,0.222549
0.159143,0.355875,-3.11294,-0.160173,0.404738,-0.12607,-0.0347119,0.0930698,0.223898
0.166422,0.35131,-3.11469,-0.23365,0.236749,-0.0847153,-0.0155226,0.0657777,0.18741
0.168471,0.347127,-3.11427,-0.162993,-0.0278436,0.0529626,0.0116981,0.0380889,0.160912
0.163619,0.345771,-3.11188,0.00421668,-0.369005,0.121195,0.0112408,0.0487455,0.100613
0.15355,0.348132,-3.11006,0.199609,-0.422985,0.0934013,-0.0107007,0.0822771,0.0375333
0.150027,0.353671,-3.10894,0.309051,0.0148489,0.0868374,-0.0254834,-0.0179294,0.1292
0.149958,0.359917,-3.1086,0.273046,-0.0131829,0.0363518,0.0360485,0.0382009,0.02845
0.149423,0.364072,-3.10848,0.123398,-0.0476287,0.0517753,0.0515943,0.041919,0.0529942
0.147698,0.365172,-3.10669,-0.0367719,-0.039405,0.128069,0.0322196,0.0173582,0.0474735
0.146574,0.363251,-3.10322,-0.197831,0.0600076,0.156446,0.00405976,-0.00109944,0.0528515
0.147047,0.358314,-3.09901,-0.342176,0.0974168,0.154708,0.0162153,-0.031674,0.0549077
0.145951,0.350727,-3.09475,-0.45018,-0.080911,0.122285,0.0283067,-0.0284893,0.0233309
0.140929,0.342071,-3.09127,-0.422978,-0.298109,0.0819656,0.0259543,-0.0118971,-0.0243242
0.132393,0.335312,-3.08856,-0.273014,-0.45241,0.0795815,0.0197693,-0.00365359,-0.064353
0.121287,0.331506,-3.08633,-0.1368,-0.562671,0.0803612,0.029717,-0.00340539,-0.114066
0.109206,0.329688,-3.08464,-0.0828039,-0.592866,0.055158,0.046539,-0.00967145,-0.143096
0.0953256,0.327481,-3.08332,-0.158718,-0.788167,0.0536276,0.072673,-0.0115781,-0.233514
0.0756259,0.323807,-3.0813,-0.196751,-1.08837,0.113428,0.0804875,-0.00314164,-0.33692
0.0523611,0.321161,-3.07778,-0.0742437,-1.05543,0.192319,0.0449586,0.0357461,-0.340929
0.0321828,0.320988,-3.0734,0.0251951,-0.780765,0.211903,0.00555332,0.10475,-0.296303
0.019114,0.321777,-3.06901,0.020468,-0.399166,0.208036,0.00190292,0.109939,-0.229675
0.011142,0.320927,-3.06425,-0.12754,-0.302656,0.248659,-0.0067735,0.0561388,-0.227065
0.00206445,0.316499,-3.05865,-0.314065,-0.449121,0.253127,-0.0234921,0.00281537,-0.250294
-0.0100657,0.309052,-3.05447,-0.398012,-0.615941,0.135882,-0.0487762,0.02257,-0.254793
-0.0229266,0.301834,-3.05312,-0.288652,-0.566924,0.00286755,-0.0694814,0.0556037,-0.213244
-0.0307966,0.298081,-3.0543,-0.0884118,-0.225174,-0.0984234,-0.10109,0.081055,-0.108028
-0.030887,0.297883,-3.05679,0.0397702,0.122442,-0.123377,-0.102543,0.0883884,-0.00610483
-0.0261763,0.298747,-3.05918,0.00957728,0.220118,-0.100245,-0.0850782,0.0779231,0.0697126
-0.0228898,0.297739,-3.0611,-0.117693,0.0287475,-0.074958,-0.0530551,0.0537054,0.0915244
-0.0238881,0.294565,-3.0625,-0.181475,-0.155562,-0.0515609,-0.0634772,0.0487466,0.122412
-0.0271646,0.291607,-3.06357,-0.0922862,-0.165451,-0.0387107,-0.0869462,0.0574198,0.143968
-0.0291444,0.291419,-3.06415,0.0730297,-0.0540891,-0.0130605,-0.102749,0.0740852,0.186587
-0.029448,0.294309,-3.06399,0.203538,0.0246865,0.0237248,-0.130346,0.0790196,0.213286
-0.029448,0.294309,-3.06399,0.203538,0.0246865,0.0237248,-0.130346,0.0790196,0.213286
-0.0287958,0.299205,-3.06305,0.277457,0.0499328,0.0427583,-0.13774,0.0450508,0.245504
-0.0291381,0.304737,-3.06253,0.261255,-0.0995616,-0.0285328,-0.0941261,0.0192955,0.239974
-0.032747,0.309354,-3.06471,0.194362,-0.311392,-0.204646,-0.0574819,0.0117947,0.228173
-0.037579,0.312968,-3.07088,0.147891,-0.33337,-0.379055,-0.0520997,0.0174022,0.252007
-0.040937,0.316012,-3.07936,0.122798,-0.254046,-0.409853,-0.051433,0.0243715,0.254679
-0.0427125,0.318452,-3.08705,0.0832584,-0.158653,-0.319432,-0.043798,0.0202963,0.255435
-0.0435411,0.319673,-3.093,0.00755991,-0.117265,-0.261485,-0.0568987,0.0139027,0.239271
-0.043769,0.319344,-3.09896,-0.065069,-0.104121,-0.316218,-0.0345985,0.000375539,0.217087
-0.0438055,0.317759,-3.10691,-0.121146,-0.150127,-0.426872,-0.0102502,0.00811779,0.191809
-0.0446878,0.315218,-3.11674,-0.16754,-0.243961,-0.473623,0.00649162,0.0205036,0.165447
-0.0470173,0.312256,-3.12643,-0.158362,-0.251659,-0.417769,0.0239294,0.0191202,0.135711
-0.0482315,0.309731,-3.1345,-0.132877,-0.11275,-0.336107,0.0203906,0.0223777,0.141036
-0.0470538,0.306952,-3.14094,-0.184438,0.0262964,-0.268816,0.0136947,0.00949115,0.138758
-0.0444932,0.302243,3.13672,-0.316596,0.0326686,-0.235879,0.0143251,-0.0151432,0.111487
-0.0435821,0.294804,3.13173,-0.428948,-0.0874114,-0.204502,0.0189837,-0.0348872,0.0764492
-0.0445697,0.286352,3.12748,-0.405151,-0.101091,-0.162967,0.00251849,-0.0459911,0.0586852
-0.0445597,0.279433,3.12385,-0.294638,0.00778194,-0.163337,-0.0102224,-0.0593329,0.0443642
-0.0421212,0.274556,3.1199,-0.223071,0.116803,-0.190795,-0.008266,-0.0702801,0.0262212
-0.0384408,0.269913,3.11589,-0.266563,0.128976,-0.163029,0.00997084,-0.0892789,0.000954449
-0.0356669,0.263899,3.11333,-0.335283,0.0660137,-0.0497349,0.0298929,-0.0957363,-0.0305644
-0.0356302,0.256839,3.11349,-0.357605,-0.0535379,0.0901016,0.0270384,-0.0831797,-0.0826408
-0.0377757,0.249839,3.11616,-0.32084,-0.0836776,0.176953,0.0142858,-0.083074,-0.123338
-0.0398826,0.243964,3.11956,-0.244014,-0.0506052,0.157385,-0.00652044,-0.0906024,-0.180469
-0.041662,0.240048,3.1219,-0.123579,-0.0525099,0.0857159,-0.0190536,-0.0836158,-0.262457
-0.0418503,0.239412,3.12325,0.0718082,0.0816195,0.055199,-0.0229386,-0.0886439,-0.28038
-0.0384852,0.242463,3.12476,0.220559,0.302239,0.0871071,-0.00461141,-0.0697204,-0.242631
-0.0307288,0.246818,3.12748,0.188127,0.510439,0.165989,0.00605018,-0.053654,-0.179078
-0.0218157,0.248747,3.13172,0.000301518,0.434127,0.233209,0.00765377,-0.0672712,-0.177478
-0.0171675,0.246661,3.13665,-0.185353,0.118326,0.230852,0.0211789,-0.0789219,-0.225646
-0.0197662,0.241895,3.14057,-0.258578,-0.244216,0.150083,0.00966796,-0.0659994,-0.303855
-0.0253183,0.237387,-3.14059,-0.1598,-0.19123,0.049526,-0.0382758,-0.0529523,-0.310674
-0.025964,0.23593,-3.14055,0.0214974,0.142683,-0.0285253,-0.0399894,-0.0367455,-0.267242
-0.0197812,0.238013,-3.14077,0.171766,0.456448,0.0239277,0.000438713,-0.0139992,-0.167252
-0.0087714,0.242121,-3.13875,0.230241,0.668919,0.176826,0.0237742,0.00749333,-0.0422063
0.00406352,0.246767,-3.13328,0.224161,0.688471,0.345263,0.0287897,0.0032119,0.0467561
0.0138509,0.251078,-3.12514,0.206061,0.463163,0.424935,0.0374871,-0.00970018,0.0401924
0.0184008,0.256051,-3.11642,0.295328,0.209327,0.405331,0.0383066,-0.0220976,0.00850886
0.0186406,0.264076,-3.10917,0.503509,0.021631,0.297536,0.0343748,-0.0162043,-0.0273721
0.0168952,0.27651,-3.10458,0.717977,-0.0617859,0.172386,0.0457896,0.022451,-0.0211403
0.0151377,0.292313,-3.10184,0.83093,-0.0127471,0.132427,0.0506448,0.0568145,0.0297509
0.0151338,0.308737,-3.09918,0.769232,0.0834831,0.145796,0.0448322,0.0799325,0.110034
0.0171568,0.322301,-3.09644,0.561142,0.20363,0.126678,0.0285425,0.0978474,0.175405
0.0209549,0.331196,-3.09421,0.322215,0.216929,0.101048,0.0286321,0.0959418,0.194577
0.0240164,0.33593,-3.09224,0.164273,0.16423,0.0974338,0.0591305,0.0872314,0.187515
0.0272392,0.338898,-3.09018,0.139573,0.246194,0.103138,0.0486541,0.110616,0.188881
0.033051,0.342038,-3.08792,0.164566,0.405264,0.121434,0.0199557,0.122563,0.184066
0.0412326,0.345295,-3.08506,0.145647,0.489276,0.156779,0.0116577,0.104984,0.178686
0.0501006,0.347793,-3.08178,0.0846286,0.492807,0.152846,-0.00209835,0.0954316,0.189421
0.057833,0.349115,-3.07876,0.0427245,0.364142,0.142813,0.00545473,0.0800277,0.179468
0.0625267,0.350384,-3.07559,0.0727627,0.217507,0.157741,0.0120656,0.0699739,0.178769
0.0625267,0.350384,-3.07559,0.0727627,0.217507,0.157741,0.0120656,0.0699739,0.178769
0.0650763,0.35225,-3.07256,0.0903857,0.149385,0.139118,0.0158364,0.0783789,0.185422
0.0671491,0.354134,-3.06964,0.069088,0.162633,0.153396,0.0280226,0.0486368,0.187024
0.0688378,0.354989,-3.06597,-0.013433,0.10727,0.190825,0.0309031,0.0278625,0.159337
0.0676869,0.353962,-3.06155,-0.120344,-0.0775489,0.21146,0.0185431,0.0254191,0.122947
0.0623126,0.350612,-3.05674,-0.24094,-0.299652,0.211993,0.000155699,0.0117926,0.104118
0.0530513,0.344785,-3.05209,-0.360102,-0.438471,0.177796,0.00836755,-0.0302464,0.0789538
0.0429648,0.336731,-3.04914,-0.442662,-0.430934,0.0422186,0.0214571,-0.0593979,0.00827652
0.0360733,0.327612,-3.04976,-0.45063,-0.267289,-0.130597,0.020113,-0.0558869,-0.0379945
0.0329169,0.318767,-3.05295,-0.409868,-0.176136,-0.176714,0.0158661,-0.035252,-0.0507851
0.0301009,0.311615,-3.05517,-0.270581,-0.164566,-0.0303524,0.0252624,-0.0382372,-0.0608748
0.0273215,0.308454,-3.05351,-0.0519973,-0.0583391,0.173227,0.0163754,-0.0483583,-0.0383962
0.0255159,0.308749,-3.04869,0.0317271,-0.00718741,0.258713,0.00660754,-0.058911,-0.0272403
0.0216671,0.308783,-3.04365,-0.0577954,-0.267086,0.202531,0.0171401,-0.0796453,-0.0915107
0.0110293,0.306811,-3.04059,-0.120076,-0.689174,0.0818264,0.0665886,-0.0778013,-0.181919
-0.00568071,0.305759,-3.0397,0.0598812,-0.884058,0.0187441,0.0656284,-0.0533529,-0.259562
-0.0223221,0.310643,-3.03921,0.430939,-0.70493,0.0177889,0.0437587,-0.0352715,-0.308247
-0.0337616,0.321701,-3.03896,0.611249,-0.455602,-0.0401214,-0.00240029,0.00230753,-0.292366
-0.0420387,0.332765,-3.04031,0.435838,-0.444822,-0.126455,0.00876075,0.0146308,-0.273054
-0.0508672,0.338648,-3.04334,0.133663,-0.516658,-0.179908,0.0325462,0.0126166,-0.242143
-0.0600536,0.33921,-3.04748,-0.0829746,-0.506361,-0.212332,0.0037411,0.0309079,-0.223385
-0.0666835,0.336339,-3.05317,-0.229017,-0.313596,-0.3156,-0.0564842,0.0467542,-0.206109
-0.0681018,0.330781,-3.06161,-0.370405,-0.12436,-0.42432,-0.0866713,0.0473005,-0.216697
-0.0664782,0.323458,-3.07124,-0.391398,-0.0122619,-0.413655,-0.080372,0.0536721,-0.220182
-0.0620003,0.317515,-3.07953,-0.22603,0.216698,-0.314316,-0.078252,0.083401,-0.148476
-0.0533133,0.315623,-3.08452,0.011465,0.472342,-0.140943,-0.0690799,0.0945886,-0.0509764
-0.0428249,0.317859,-3.08559,0.190383,0.489588,0.0216057,-0.0728276,0.082721,0.0169222
-0.0351453,0.322416,-3.08401,0.249236,0.296207,0.0904396,-0.0682045,0.06602,0.0656084
-0.0325326,0.327048,-3.08232,0.210552,0.0333679,0.0370102,-0.0707292,0.0666252,0.0828463
-0.0331895,0.330988,-3.08244,0.189878,-0.074755,-0.0676059,-0.0811818,0.0599168,0.103725
-0.0337738,0.334902,-3.08481,0.189086,-0.0471049,-0.160133,-0.096603,0.0814535,0.125224
-0.0329085,0.338758,-3.08845,0.18069,0.011978,-0.186426,-0.101734,0.0807746,0.155396
-0.0307028,0.342442,-3.09223,0.1765,0.0727204,-0.17724,-0.0873411,0.0827826,0.187755
-0.0272718,0.346058,-3.09575,0.172765,0.161492,-0.163393,-0.0794812,0.0847521,0.214385
-0.0223449,0.349381,-3.099,0.14387,0.195888,-0.14757,-0.0535918,0.0860602,0.225178
-0.0177755,0.351799,-3.10177,0.0952261,0.166901,-0.111085,-0.0342479,0.0904061,0.229652
-0.0137345,0.353599,-3.10343,0.0895281,0.186485,-0.0421517,-0.0214784,0.0815211,0.250407
-0.00997345,0.355609,-3.10347,0.116362,0.170135,0.0396613,-0.00803046,0.0782795,0.252329
-0.00882494,0.358289,-3.10152,0.158234,-0.00499735,0.138971,0.0135287,0.0671183,0.22116
-0.0122662,0.36198,-3.09769,0.21116,-0.200996,0.204789,0.0337031,0.0587167,0.187996
-0.0191846,0.36661,-3.09305,0.248557,-0.29643,0.213527,0.0308634,0.0535979,0.177394
-0.026841,0.371351,-3.08863,0.215896,-0.305048,0.182221,0.0155633,0.0400144,0.163802
-0.0343244,0.374678,-3.08485,0.121416,-0.298611,0.157977,0.00412016,0.0206667,0.128304
-0.040915,0.376231,-3.08156,0.0510536,-0.21596,0.139696,-0.0063605,0.00566247,0.100954
-0.0445947,0.376614,-3.07866,-0.000159059,-0.0421904,0.128923,-0.0359828,-0.00153464,0.0951285
-0.0451474,0.375813,-3.07597,-0.0717991,0.0735322,0.119039,-0.0593361,-0.01618,0.0772566
-0.0436488,0.373386,-3.07398,-0.164298,0.138951,0.0676374,-0.069418,-0.0343993,0.0832105
-0.0408555,0.369201,-3.07347,-0.240801,0.149193,-0.000729794,-0.0581148,-0.0467684,0.089568
-0.0379062,0.36411,-3.07425,-0.259768,0.12067,-0.048702,-0.0594207,-0.0448377,0.082238
-0.0347752,0.359279,-3.07564,-0.228032,0.163705,-0.0561857,-0.0637042,-0.0536736,0.0656503
-0.030605,0.355219,-3.07681,-0.207213,0.22569,-0.0440021,-0.0557218,-0.0565776,0.0646033
-0.030605,0.355219,-3.07681,-0.207213,0.22569,-0.0440021,-0.0557218,-0.0565776,0.0646033
-0.0256318,0.35114,-3.07757,-0.23837,0.254299,-0.0178458,-0.0529917,-0.0536602,0.0733163
-0.0208993,0.345851,-3.07776,-0.303513,0.20883,0.000288455,-0.0600363,-0.0567549,0.0560605
-0.0176822,0.339697,-3.07802,-0.285032,0.102991,-0.0176127,-0.050422,-0.0618032,0.0171561
-0.015672,0.335328,-3.07871,-0.137628,0.101925,-0.0388526,-0.0370814,-0.0609056,-0.0167661
-0.0122695,0.334114,-3.0796,0.005961,0.210917,-0.0362244,-0.0470031,-0.0451144,-0.0432087
-0.00671037,0.335194,-3.07974,0.0919243,0.340677,0.0280879,-0.0388597,-0.0492517,-0.0452073
0.000960002,0.337433,-3.07854,0.116796,0.452155,0.0758904,-0.0417536,-0.022297,-0.041012
0.00951002,0.339453,-3.07673,0.0826697,0.431548,0.0911688,-0.0315655,-0.0130675,-0.045982
0.0166739,0.340972,-3.07486,0.072217,0.35704,0.0858412,-0.0287443,-0.00130492,-0.0520706
0.0233685,0.342832,-3.07284,0.113948,0.38757,0.117147,-0.0386845,-0.000681818,-0.0621281
0.0312845,0.34571,-3.06994,0.158694,0.499487,0.162032,-0.0544379,-0.0182523,-0.0765319
0.0410496,0.348948,-3.06638,0.143352,0.58641,0.175621,-0.0553343,-0.0282842,-0.0790488
0.0524882,0.351386,-3.0626,0.0797632,0.677269,0.188649,-0.0644561,-0.0423205,-0.0547977
0.0651617,0.35269,-3.05852,0.0315931,0.721409,0.192722,-0.0826071,-0.0307972,-0.046638
0.0782936,0.353233,-3.05472,-0.006852,0.697012,0.154247,-0.0946706,0.0016948,-0.029947
0.0900078,0.352384,-3.05239,-0.0828124,0.526689,0.0451779,-0.081296,0.0227945,-0.0105287
0.0967628,0.353432,-3.05405,0.182282,0.00237501,-0.183286,-0.0151093,0.0405011,-0.0195674
0.0950523,0.357997,-3.05951,0.30234,-0.239631,-0.247721,0.00586502,0.021816,-0.0437167
0.0945559,0.363828,-3.06457,0.299988,0.0891053,-0.163918,-0.0169152,0.0291635,0.0131
0.102682,0.368277,-3.06837,0.161574,0.540985,-0.163246,-0.0260337,0.040047,0.0673325
0.115871,0.369996,-3.0722,0.0384831,0.543373,-0.146592,-0.0146948,0.0574886,0.080496
