attitude_roll,attitude_pitch,attitude_yaw,rotationRate_x,rotationRate_y,rotationRate_z,acceleration_x,acceleration_y,acceleration_z
-0.0213969,0.238694,0.00256595,-0.446719,0.203348,-0.345504,0.0160279,0.0581202,-0.000559807
-0.0229882,0.23334,-0.00138834,-0.0588677,-0.366219,-0.06599,0.103235,0.0765959,0.0171981
-0.0294744,0.236717,-0.00229233,0.350872,-0.251165,-0.071389,-0.00662999,0.0108493,-0.0744669
-0.0329255,0.244371,-0.00451884,0.348069,-0.167579,-0.167985,-0.0807904,-0.0345275,-0.0155421
-0.0346577,0.248922,-0.00874767,0.065237,-0.121369,-0.256285,-0.0783252,-0.0605563,0.0748589
-0.0355991,0.246844,-0.014829,-0.282801,-0.127993,-0.313094,-0.0678127,-0.0564214,0.114536
-0.0368452,0.239434,-0.0213293,-0.439154,-0.158719,-0.280561,-0.0270344,-0.0484916,0.0559723
-0.039394,0.231302,-0.0268941,-0.371827,-0.240921,-0.234674,-0.0180615,-0.0382874,-0.0302703
-0.0438385,0.225952,-0.0316013,-0.170402,-0.283076,-0.209995,-0.0174091,-0.049525,-0.0945314
-0.0475962,0.224563,-0.0361765,-0.0150464,-0.182109,-0.239222,-0.0360748,-0.0610565,-0.115995
-0.0482015,0.224732,-0.0414392,-0.0177214,0.00761764,-0.263906,-0.0398818,-0.0696814,-0.0730618
-0.0459442,0.223832,-0.0465977,-0.0941911,0.0769646,-0.234514,-0.0157493,-0.0769362,0.0115616
-0.0437754,0.221973,-0.0514041,-0.102503,0.0145161,-0.234591,-0.0116793,-0.0950158,0.067777
-0.0433778,0.220257,-0.0565224,-0.0928275,-0.0780705,-0.260056,-0.00886143,-0.112116,0.0951473
-0.0439816,0.218503,-0.062151,-0.109255,-0.0901998,-0.284636,0.00233363,-0.121244,0.108336
-0.0440279,0.216222,-0.068349,-0.151395,-0.0511425,-0.305387,0.0149279,-0.124097,0.106948
-0.0436133,0.212895,-0.074605,-0.206472,-0.044151,-0.287757,0.041837,-0.116682,0.117775
-0.0433831,0.208715,-0.0801574,-0.228956,-0.0497634,-0.230482,0.0678647,-0.11549,0.099524
-0.0435905,0.204489,-0.0842428,-0.20586,-0.0499694,-0.156741,0.0845237,-0.114499,0.0757385
-0.0440434,0.200962,-0.0871255,-0.163495,-0.0564786,-0.114472,0.0886906,-0.124241,0.0630161
-0.0447032,0.198171,-0.0893017,-0.126142,-0.0498365,-0.0851075,0.0985774,-0.140496,0.062411
-0.0453012,0.196095,-0.0907433,-0.0949301,-0.0297046,-0.0450328,0.107986,-0.144774,0.0591744
-0.04504,0.194612,-0.0910653,-0.0629855,0.0414821,0.0260515,0.11699,-0.142338,0.053248
-0.0435615,0.194034,-0.0899901,-0.0256671,0.0983186,0.0863778,0.111593,-0.148932,0.0455043
-0.0414182,0.194302,-0.0879932,-0.00111246,0.122661,0.116096,0.107705,-0.16228,0.0494483
-0.0385276,0.195106,-0.0857118,-0.0199002,0.136464,0.12197,0.0974797,-0.164818,0.0557386
-0.0349358,0.196155,-0.0831077,-0.0206007,0.167,0.159376,0.0980559,-0.159928,0.0314332
-0.0305663,0.198157,-0.0800968,0.0437107,0.202009,0.157201,0.0740614,-0.150473,-0.0233991
-0.0265758,0.20034,-0.0767267,0.107901,0.213965,0.187446,0.0761663,-0.142673,-0.0602335
-0.0235315,0.203059,-0.072293,0.119506,0.154432,0.251904,0.0970052,-0.122064,-0.0799142
-0.0226406,0.205151,-0.0661719,0.0718556,0.0286135,0.351253,0.0933309,-0.101491,-0.126583
-0.026432,0.206786,-0.0577132,0.150716,-0.238766,0.479562,0.103472,-0.0783297,-0.254327
-0.0340458,0.212998,-0.0471076,0.514705,-0.234389,0.512955,0.0677853,-0.0568736,-0.452303
-0.0386451,0.224817,-0.0366761,0.627254,0.0187248,0.47328,0.0473679,-0.0522031,-0.50624
-0.0368297,0.23411,-0.0267843,0.278295,0.397872,0.447881,0.0435532,-0.0617393,-0.419372
-0.0276416,0.233467,-0.018356,-0.334213,0.679014,0.363286,0.00210796,-0.0633411,-0.336309
-0.0153633,0.221651,-0.0121324,-0.763172,0.659408,0.27378,-0.0254184,-0.0797652,-0.34805
-0.00437078,0.206502,-0.00734437,-0.678641,0.553051,0.224649,-0.00783756,-0.0606333,-0.478027
0.00586838,0.196736,-0.00229708,-0.28109,0.596039,0.301101,0.0230382,0.0273785,-0.556996
0.0165125,0.195713,0.00617492,0.169224,0.622693,0.547864,0.0645835,0.118904,-0.481413
0.0254058,0.203733,0.0199088,0.596643,0.53733,0.804771,0.0865573,0.167323,-0.31357
0.0315166,0.218979,0.0373567,0.840783,0.42892,0.931786,0.0595121,0.168374,-0.116833
0.0347247,0.236232,0.0563433,0.785717,0.330067,0.978032,0.0242452,0.150148,0.0451727
0.0352264,0.250552,0.0756635,0.576501,0.171714,0.935526,-0.0256661,0.128508,0.143483
0.0326718,0.260355,0.0930514,0.352562,0.0360949,0.769532,-0.0608315,0.101082,0.150628
0.0300509,0.266262,0.106734,0.212406,0.0773501,0.582488,-0.0832936,0.106587,0.0866095
0.0296001,0.270214,0.117799,0.168542,0.16539,0.515924,-0.0421327,0.150864,0.0336805
0.0308419,0.274259,0.12853,0.220218,0.242493,0.539539,0.000924662,0.189016,0.0144908
0.033025,0.279843,0.139799,0.306282,0.268663,0.569837,0.0316047,0.195531,0.0494421
0.0348692,0.287026,0.151545,0.367427,0.243002,0.588316,0.0474051,0.189092,0.117259
0.0358116,0.294835,0.163789,0.361379,0.211899,0.619697,0.059903,0.180505,0.188308
0.0361749,0.302055,0.176781,0.317067,0.208665,0.645388,0.0649424,0.166349,0.241624
0.0361749,0.302055,0.176781,0.317067,0.208665,0.645388,0.0649424,0.166349,0.241624
0.0361997,0.308492,0.189908,0.281365,0.186413,0.633496,0.0583054,0.155963,0.267446
0.0355698,0.314338,0.202947,0.259893,0.153274,0.639943,0.0650724,0.153319,0.275488
0.0340266,0.319687,0.216491,0.233299,0.117657,0.667095,0.0714787,0.160766,0.27842
0.0320367,0.324364,0.230507,0.183912,0.119506,0.678011,0.0601237,0.1533,0.272319
0.0294636,0.32733,0.244361,0.0649101,0.0665079,0.640404,0.0447978,0.141188,0.27796
0.0263416,0.327561,0.257076,-0.0810586,0.0312446,0.563748,0.0220132,0.126925,0.250853
0.0230755,0.324931,0.268387,-0.196404,0.0183805,0.518316,0.0293424,0.123412,0.190035
0.0203311,0.32061,0.279381,-0.252465,0.0446873,0.527274,0.0322199,0.13346,0.113383
0.0174477,0.315984,0.291054,-0.215655,0.0508135,0.571662,0.0418734,0.143256,0.0577377
0.0157133,0.312923,0.303111,-0.112026,0.149208,0.563068,0.024647,0.132838,0.00753367
0.016511,0.311485,0.314085,-0.0658904,0.268693,0.485205,-0.0193016,0.114425,0.00504875
0.0193254,0.309908,0.323926,-0.122726,0.291779,0.457489,-0.0165878,0.103249,0.0623371
0.0217445,0.306677,0.333675,-0.216652,0.246774,0.466164,0.00431143,0.0901614,0.124519
0.0233071,0.301504,0.343561,-0.325374,0.206459,0.462319,-0.000113159,0.0674648,0.154995
0.0237476,0.294258,0.353289,-0.4059,0.103511,0.457197,-0.00693184,0.0384426,0.159385
0.0218928,0.28636,0.362522,-0.399533,0.00715155,0.397411,-0.0222356,0.0150826,0.13074
0.019968,0.27874,0.370064,-0.386897,0.00672548,0.328338,-0.0371404,-0.0105456,0.0927724
0.0179117,0.270969,0.376914,-0.406952,-0.02812,0.323528,-0.0101924,-0.0159346,0.0866637
0.0153039,0.26223,0.383882,-0.480674,-0.0844101,0.343478,0.0241604,-0.0300259,0.0809509
0.010413,0.252453,0.391528,-0.481877,-0.20537,0.376913,0.0342746,-0.0433568,0.0404243
0.00426583,0.24402,0.399034,-0.358159,-0.219896,0.342786,0.0237537,-0.0626552,-0.0507828
-0.00146002,0.237854,0.405782,-0.27464,-0.202683,0.323782,0.0306548,-0.078042,-0.0954007
-0.00691751,0.232324,0.412356,-0.292951,-0.184058,0.318551,0.0383021,-0.0865328,-0.100559
-0.0121398,0.225713,0.418829,-0.36202,-0.210912,0.324271,0.0463927,-0.10295,-0.115235
-0.0184248,0.218306,0.42523,-0.360509,-0.27291,0.301937,0.0467341,-0.126563,-0.177999
-0.0250198,0.210897,0.430617,-0.37054,-0.289206,0.246917,0.0285981,-0.137831,-0.251665
-0.0319854,0.20361,0.434913,-0.340776,-0.306922,0.195291,0.0181358,-0.142567,-0.310938
-0.0386663,0.197194,0.438059,-0.291442,-0.298641,0.139716,0.0143785,-0.127705,-0.3528
-0.0443837,0.191726,0.440545,-0.252164,-0.205707,0.137938,0.0299453,-0.116789,-0.382998
-0.0478628,0.186352,0.443352,-0.275677,-0.116317,0.16841,0.035328,-0.102048,-0.386999
-0.0513006,0.180767,0.446498,-0.249857,-0.195494,0.160678,0.0138062,-0.0934703,-0.391718
-0.0574302,0.177095,0.44906,-0.0873743,-0.36689,0.105633,-0.0258966,-0.0835187,-0.429006
-0.0654603,0.177567,0.450495,0.144028,-0.36375,0.028184,-0.0581431,-0.0482791,-0.452097
-0.0705666,0.182281,0.450847,0.317059,-0.115773,-0.0164446,-0.0721395,-0.00434975,-0.423251
-0.0697556,0.190075,0.451141,0.467626,0.183204,-0.00861063,-0.0797037,0.0248551,-0.328824
-0.064146,0.200966,0.451207,0.612784,0.358321,-0.0690278,-0.107705,0.0361024,-0.188401
-0.0564598,0.213993,0.449675,0.667912,0.349611,-0.155745,-0.133883,0.0474469,-0.0317059
-0.0498831,0.227482,0.446473,0.652114,0.214046,-0.223491,-0.127524,0.0579076,0.0810577
-0.0469546,0.239988,0.442269,0.570765,-0.0127507,-0.246878,-0.121842,0.0878501,0.14477
-0.0476979,0.250337,0.437098,0.432369,-0.176522,-0.310385,-0.156672,0.113148,0.144454
-0.0497982,0.258008,0.429993,0.300158,-0.19031,-0.417708,-0.186565,0.124829,0.107822
-0.0500944,0.263216,0.420372,0.183744,-0.077196,-0.53357,-0.205557,0.144693,0.0749121
-0.0474587,0.267088,0.409056,0.174955,0.0472968,-0.563562,-0.176028,0.171562,0.059832
-0.0421136,0.271753,0.398008,0.245457,0.179855,-0.509413,-0.111742,0.177356,0.0845181
-0.0356645,0.277691,0.388825,0.306673,0.203019,-0.398291,-0.0607866,0.180417,0.172749
-0.0303678,0.284249,0.381678,0.325409,0.105894,-0.321429,-0.0439143,0.150463,0.271274
-0.027769,0.290912,0.375293,0.328473,-0.0112221,-0.322607,-0.0463077,0.1099,0.336123
-0.0265029,0.29737,0.368437,0.289823,-0.0606137,-0.352542,-0.0562672,0.0924757,0.371134
-0.0259857,0.302579,0.361187,0.210529,-0.0985605,-0.350321,-0.0377586,0.0785463,0.392634
-0.0262115,0.306047,0.354167,0.121342,-0.134749,-0.32872,-0.0154298,0.0674962,0.401615
-0.0275564,0.30777,0.347518,0.0358824,-0.204248,-0.320011,-0.0149252,0.0629901,0.399076
-0.0275564,0.30777,0.347518,0.0358824,-0.204248,-0.320011,-0.0149252,0.0629901,0.399076
-0.0302829,0.307801,0.340343,-0.0576595,-0.291117,-0.368178,-0.0121298,0.0391398,0.387105
-0.0343687,0.305763,0.331964,-0.178658,-0.367229,-0.423292,-0.00182354,0.0198316,0.358007
-0.0394671,0.301245,0.322681,-0.304608,-0.417176,-0.445457,0.0200867,0.0179618,0.30716
-0.0448651,0.294669,0.313244,-0.376215,-0.394535,-0.425658,0.0387818,0.0176721,0.219485
-0.0496599,0.287332,0.304283,-0.395222,-0.328406,-0.402508,0.0466737,0.0107053,0.127544
-0.0531501,0.279387,0.295987,-0.45386,-0.263072,-0.347961,0.0557343,0.00197855,0.0788705
-0.0561591,0.269959,0.288902,-0.52393,-0.24023,-0.286461,0.0614514,-0.0189526,0.0461553
-0.0593418,0.259448,0.282659,-0.551275,-0.236995,-0.258768,0.0531564,-0.0506732,-0.00474358
-0.0623061,0.249165,0.276903,-0.498233,-0.198327,-0.238113,0.0447943,-0.082934,-0.0810864
-0.0644116,0.240356,0.271677,-0.411862,-0.137809,-0.210575,0.0540787,-0.103596,-0.154433
-0.0656766,0.233309,0.267472,-0.313539,-0.0822055,-0.152987,0.0681543,-0.111956,-0.213364
-0.0658049,0.228392,0.264432,-0.194457,-0.0110547,-0.114173,0.059991,-0.128203,-0.273987
-0.0646048,0.225847,0.262201,-0.0697849,0.0930489,-0.0812854,0.057946,-0.138342,-0.31878
-0.0607449,0.225595,0.260876,0.0259158,0.268455,-0.0481362,0.0542255,-0.144463,-0.340613
-0.0539293,0.226556,0.260175,0.0581111,0.38138,-0.0278117,0.0578358,-0.163012,-0.324349
-0.0462829,0.227569,0.259751,0.0268147,0.352927,-0.0172589,0.0607596,-0.182212,-0.302735
-0.040152,0.227314,0.259444,-0.0582936,0.278726,-0.0174587,0.0678257,-0.182918,-0.298361
-0.0347086,0.225062,0.258637,-0.188962,0.237501,-0.0588239,0.0329873,-0.174248,-0.330479
-0.0298637,0.219526,0.257095,-0.360204,0.248367,-0.0649244,0.021498,-0.136145,-0.353963
-0.0235329,0.211788,0.255656,-0.384036,0.354007,-0.0537481,0.00678487,-0.0875667,-0.403519
-0.0158543,0.205908,0.255357,-0.164429,0.391497,0.0622322,0.0622106,-0.053738,-0.416328
-0.00882209,0.207087,0.258991,0.334257,0.427486,0.294329,0.118222,0.000806972,-0.383221
-0.000383935,0.219116,0.266918,0.833748,0.588325,0.467292,0.112176,0.0522976,-0.262237
0.0108118,0.237913,0.277864,0.98357,0.780937,0.606468,0.116934,0.0664554,-0.0316124
0.0232408,0.256326,0.291061,0.807602,0.737465,0.696414,0.101315,0.0579107,0.198497
0.0311956,0.270176,0.305464,0.542989,0.397215,0.731901,0.0849007,0.046,0.326551
0.030474,0.279472,0.320448,0.361321,-0.052417,0.74812,0.0844367,0.0366671,0.320633
0.0225357,0.286009,0.335605,0.26194,-0.271957,0.722163,0.0586886,0.0621088,0.217084
0.0137991,0.290867,0.349634,0.210389,-0.161632,0.624933,0.0123699,0.0780581,0.0979648
0.00962031,0.29521,0.361044,0.219628,0.0708317,0.47649,-0.0286589,0.0989853,0.0257733
0.0103134,0.300268,0.37021,0.288857,0.2553,0.435933,0.00136343,0.139923,0.011847
0.0139601,0.30757,0.379958,0.441459,0.394859,0.511743,0.0555737,0.181223,0.0387946
0.0189081,0.318196,0.391252,0.595264,0.429933,0.576404,0.0627307,0.203494,0.115723
0.0228888,0.33074,0.40317,0.619238,0.334635,0.571741,0.0509855,0.188803,0.225721
0.0247249,0.342581,0.414346,0.540896,0.246121,0.51266,0.0420371,0.169065,0.29019
0.0265265,0.352341,0.42423,0.394793,0.265966,0.438756,0.0207908,0.181338,0.320043
0.028672,0.357872,0.432474,0.128092,0.228606,0.362595,0.0162696,0.181947,0.358226
0.0293596,0.357706,0.439767,-0.151368,0.0839113,0.328205,0.0315085,0.170439,0.354969
0.0274261,0.353123,0.446809,-0.300607,-0.00604403,0.323162,0.0359607,0.173009,0.273027
0.025184,0.347296,0.453985,-0.282335,0.0459107,0.338291,0.020832,0.193292,0.15884
0.0242603,0.342476,0.461613,-0.227217,0.0958487,0.373845,0.0200738,0.18543,0.106459
0.023222,0.338036,0.469791,-0.253061,0.0580443,0.387342,0.0177976,0.155655,0.119759
0.0207001,0.3322,0.478025,-0.352402,-0.0424592,0.381176,0.00678495,0.122586,0.150004
0.0165413,0.324024,0.486058,-0.473202,-0.112967,0.36979,-0.000756713,0.0921574,0.143785
0.011881,0.313906,0.49393,-0.544283,-0.105441,0.368745,-0.000588462,0.0670157,0.101825
0.00744365,0.302947,0.501983,-0.55749,-0.102743,0.392202,0.00450736,0.0481211,0.0600562
0.00274889,0.29205,0.510434,-0.538054,-0.127134,0.410225,0.00408141,0.0169811,0.0272931
-0.00300072,0.281427,0.518957,-0.530762,-0.203486,0.41023,-9.27597e-05,-0.0186594,0.00412792
-0.0102288,0.270522,0.527261,-0.560215,-0.307698,0.397942,-0.00512747,-0.0562666,-0.0214654
-0.0189571,0.259067,0.534823,-0.580215,-0.373752,0.345199,-0.0234704,-0.0870219,-0.0838677
-0.0189571,0.259067,0.534823,-0.580215,-0.373752,0.345199,-0.0234704,-0.0870219,-0.0838677
-0.02881,0.247204,0.541109,-0.586506,-0.440888,0.295662,-0.0258111,-0.102626,-0.170466
-0.0391978,0.235322,0.546512,-0.587095,-0.486102,0.283545,-0.00559337,-0.111799,-0.263568
-0.0500014,0.223713,0.552119,-0.528345,-0.447331,0.315131,0.00752107,-0.108211,-0.365875
-0.0583713,0.214097,0.557949,-0.406739,-0.267868,0.3055,-0.0220037,-0.10684,-0.486837
-0.0639861,0.20669,0.56355,-0.306393,-0.20768,0.282046,-0.0524698,-0.102685,-0.51845
-0.0702134,0.200964,0.567795,-0.243615,-0.365376,0.160402,-0.0970735,-0.122362,-0.488208
-0.0794382,0.196666,0.569167,-0.184556,-0.509379,0.00167571,-0.118586,-0.143818,-0.472839
-0.0894769,0.192894,0.567501,-0.214544,-0.49753,-0.126058,-0.120582,-0.130505,-0.459042
-0.0971534,0.188705,0.563427,-0.219229,-0.330528,-0.238746,-0.140378,-0.103292,-0.467773
-0.100083,0.186516,0.557184,-0.0258162,-0.0678336,-0.350286,-0.148811,-0.0740546,-0.478377
-0.0974019,0.1904,0.549698,0.364119,0.185499,-0.418379,-0.126159,-0.0328862,-0.425405
-0.0902829,0.202279,0.541918,0.723116,0.344412,-0.453935,-0.0994525,0.0152492,-0.264506
-0.0809238,0.219324,0.534026,0.872063,0.406284,-0.454208,-0.0703319,0.0450391,-0.0600016
-0.0719348,0.237066,0.526382,0.824755,0.300908,-0.432221,-0.0646894,0.0662578,0.123662
-0.0663978,0.252695,0.518412,0.673423,0.0408956,-0.454555,-0.0821966,0.0648337,0.2256
-0.0660329,0.265084,0.509381,0.51649,-0.205207,-0.515714,-0.111262,0.0812961,0.245423
-0.0676286,0.27469,0.497817,0.368908,-0.237725,-0.676139,-0.175374,0.10827,0.1983
-0.0672458,0.281368,0.482598,0.20023,-0.131709,-0.815597,-0.174629,0.133643,0.154397
-0.0640807,0.285242,0.465535,0.0985012,-0.0326591,-0.835551,-0.109541,0.167804,0.132825
-0.0592254,0.288397,0.44891,0.152269,0.0518513,-0.768072,-0.0443585,0.203667,0.117787
-0.0534602,0.294032,0.434566,0.34181,0.0922614,-0.63338,0.00296954,0.215641,0.132779
-0.0491186,0.303233,0.423373,0.517242,0.017928,-0.489897,0.019927,0.213295,0.208825
-0.0466248,0.315049,0.41469,0.606838,-0.0372702,-0.407322,0.0210138,0.173327,0.290889
-0.0457083,0.32733,0.407187,0.578765,-0.105001,-0.364471,0.01046,0.146299,0.368813
-0.0463503,0.33814,0.400241,0.465537,-0.192528,-0.349088,0.00602085,0.123191,0.413948
-0.0489292,0.346153,0.393159,0.299254,-0.31017,-0.359496,0.00236852,0.106829,0.419967
-0.0536449,0.350846,0.385849,0.145762,-0.397097,-0.352462,0.013335,0.0910679,0.373385
-0.0590064,0.35297,0.378302,0.0280776,-0.390851,-0.377019,0.00746978,0.0808855,0.297832
-0.0636158,0.35266,0.369779,-0.111004,-0.369018,-0.420872,-0.0079207,0.0717288,0.2432
-0.0676411,0.349374,0.360081,-0.277301,-0.371808,-0.46877,-0.00296097,0.0556127,0.201003
-0.0712114,0.342797,0.349326,-0.43936,-0.334523,-0.491539,0.0106913,0.0545979,0.152169
-0.0732324,0.333632,0.338499,-0.538617,-0.239572,-0.456328,0.0384776,0.0551532,0.0798847
-0.0748735,0.322758,0.328834,-0.606189,-0.252616,-0.373916,0.0677062,0.0514971,0.0415478
-0.0775063,0.311287,0.321144,-0.57241,-0.237298,-0.269187,0.079277,0.0299323,-0.0146933
-0.0801014,0.301386,0.315451,-0.454511,-0.193295,-0.202427,0.0639275,0.00994861,-0.0620062
-0.0820537,0.293774,0.311351,-0.34232,-0.120874,-0.122635,0.0654041,-0.0171965,-0.0520439
-0.0833223,0.287602,0.309283,-0.293485,-0.0817686,-0.028304,0.0558971,-0.0356362,0.0025512
-0.0848794,0.281958,0.308806,-0.26868,-0.0889285,0.0225457,0.0155424,-0.0689156,0.0588306
-0.0866244,0.276761,0.308546,-0.247097,-0.0953576,-0.0165692,-0.0467505,-0.115675,0.0895948
-0.0879291,0.272025,0.306496,-0.248881,-0.0922688,-0.147815,-0.10038,-0.156672,0.107793
-0.0887029,0.266967,0.301595,-0.307228,-0.126348,-0.275632,-0.0939643,-0.181353,0.126463
-0.0898685,0.260551,0.294261,-0.393337,-0.184664,-0.36037,-0.0580264,-0.176393,0.120277
-0.0918446,0.252954,0.285785,-0.431635,-0.222631,-0.385249,-0.0188538,-0.159006,0.0570533
-0.0939973,0.245202,0.277213,-0.417071,-0.196645,-0.369647,0.0251183,-0.151809,-0.0373069
-0.0954863,0.238072,0.269163,-0.360373,-0.154908,-0.343822,0.048066,-0.139033,-0.130655
-0.097402,0.232519,0.261989,-0.24838,-0.197741,-0.29671,0.0807761,-0.13418,-0.220183
-0.099589,0.229448,0.2563,-0.122703,-0.139203,-0.220181,0.104524,-0.111672,-0.30946
-0.100002,0.228562,0.252722,0.00107146,0.0381522,-0.118072,0.130488,-0.110917,-0.380238
-0.0968612,0.229654,0.251071,0.0723904,0.226494,-0.0605792,0.11184,-0.103368,-0.408978
-0.0908484,0.231088,0.250283,0.0578775,0.361161,-0.0337928,0.0930269,-0.114088,-0.391207
-0.0818616,0.231943,0.249349,0.0199204,0.506905,-0.0733279,0.0634063,-0.134541,-0.382287
-0.0818616,0.231943,0.249349,0.0199204,0.506905,-0.0733279,0.0634063,-0.134541,-0.382287
-0.0702308,0.232028,0.247033,-0.0308185,0.595456,-0.158308,0.0328465,-0.139418,-0.356315
-0.0572544,0.230602,0.242648,-0.151353,0.596513,-0.260312,0.0279374,-0.137434,-0.306081
-0.04376,0.226441,0.236276,-0.2853,0.623232,-0.331002,0.0320244,-0.118354,-0.274676
-0.0289747,0.221008,0.229436,-0.243003,0.716594,-0.295071,0.0709448,-0.0777383,-0.28607
-0.0129021,0.21886,0.225121,0.0607486,0.788407,-0.105095,0.119406,-0.0143592,-0.289759
0.00236517,0.224522,0.225559,0.513915,0.72736,0.148066,0.132216,0.043243,-0.226472
0.0151249,0.238636,0.230963,0.850757,0.690262,0.387567,0.167891,0.056995,-0.114876
0.0266144,0.256272,0.24051,0.844754,0.690837,0.567177,0.130767,0.0655486,0.0164376
0.0359715,0.271378,0.252825,0.625998,0.536949,0.661727,0.0749106,0.0421227,0.117259
0.040156,0.282683,0.266054,0.493728,0.258466,0.638282,0.0129771,0.0194574,0.108432
0.0405934,0.293431,0.277784,0.552783,0.142413,0.522705,-0.0660846,0.0361716,-0.0117017
0.0409025,0.305416,0.286801,0.599138,0.171452,0.391104,-0.105527,0.0558932,-0.0730615
0.0431437,0.317254,0.293449,0.551681,0.271915,0.294792,-0.108666,0.0841452,-0.0668712
0.0485932,0.327955,0.298412,0.508677,0.433818,0.229082,-0.100459,0.11439,-0.041124
0.0575333,0.338514,0.302196,0.542036,0.580222,0.191055,-0.0850305,0.146509,0.00528705
0.0683732,0.350212,0.305344,0.607851,0.577607,0.188102,-0.063822,0.173542,0.103823
0.077922,0.363035,0.308522,0.644018,0.507782,0.200618,-0.0514683,0.192622,0.223658
0.0859049,0.375719,0.31171,0.594317,0.380753,0.203208,-0.0478776,0.198973,0.337397
0.090941,0.387372,0.314737,0.541758,0.248849,0.179736,-0.0500748,0.190898,0.4074
0.0935964,0.397241,0.317526,0.402836,0.143231,0.173177,-0.0348212,0.203282,0.460927
0.0955552,0.403548,0.320783,0.187515,0.208668,0.183368,-0.0342181,0.207656,0.475353
0.098901,0.40499,0.324428,-0.0743158,0.246137,0.167216,-0.0425957,0.201673,0.469638
0.101013,0.401601,0.328115,-0.279842,0.083051,0.137955,-0.0382072,0.182518,0.443393
0.0991086,0.395278,0.331662,-0.364582,-0.140979,0.129878,-0.0165638,0.163415,0.374354
0.0927724,0.38764,0.335228,-0.439481,-0.346413,0.12944,-0.00672531,0.16693,0.291253
0.0833499,0.377959,0.339037,-0.562824,-0.426555,0.138842,-0.00383004,0.147757,0.199295
0.0741191,0.365738,0.342827,-0.685084,-0.346009,0.109705,-0.00912537,0.117267,0.0931917
0.0675829,0.351272,0.345853,-0.775472,-0.202849,0.079311,-0.0103834,0.0913459,0.0075168
0.0636807,0.335745,0.348646,-0.785578,-0.0954105,0.0903722,0.018483,0.0664113,-0.0480136
0.0610439,0.320622,0.352286,-0.740438,-0.0523716,0.163595,0.0513559,0.0525381,-0.0779051
0.0584703,0.306964,0.357271,-0.649273,-0.0720635,0.218909,0.0508163,0.0151633,-0.0937991
0.0550897,0.295268,0.362577,-0.553827,-0.100684,0.217182,0.0472356,-0.0362892,-0.104954
0.0518097,0.285039,0.36756,-0.505739,-0.0885031,0.213528,0.0491342,-0.0651186,-0.104534
0.0485731,0.275488,0.37308,-0.476857,-0.0835848,0.286377,0.0761101,-0.0736715,-0.0988094
0.0441009,0.266504,0.380788,-0.454602,-0.187948,0.420409,0.105389,-0.0822663,-0.101838
0.036164,0.258451,0.390892,-0.38168,-0.345801,0.513156,0.0950802,-0.112733,-0.15442
0.0250026,0.251903,0.401679,-0.314171,-0.474835,0.49383,0.0488176,-0.16683,-0.257861
0.0128622,0.246021,0.411256,-0.289227,-0.502028,0.425934,-0.000389583,-0.20819,-0.363473
0.00147971,0.240781,0.419058,-0.243521,-0.455218,0.32272,-0.0313137,-0.230273,-0.454371
-0.00869402,0.236085,0.424402,-0.233007,-0.427206,0.198233,-0.0646368,-0.211353,-0.503545
-0.016826,0.231712,0.427454,-0.183465,-0.306843,0.104977,-0.0930299,-0.173539,-0.548454
-0.0221827,0.229269,0.428668,-0.0558551,-0.219393,0.0279549,-0.0804503,-0.143218,-0.551233
-0.0269416,0.229214,0.42912,0.044784,-0.268563,0.0208526,-0.0466879,-0.110221,-0.486225
-0.0332323,0.230997,0.429128,0.135471,-0.345748,-0.0431353,-0.069112,-0.0856422,-0.425536
-0.0388379,0.235079,0.42693,0.274209,-0.23439,-0.190686,-0.115163,-0.0554402,-0.39573
-0.0403838,0.242701,0.422481,0.485511,-0.0203456,-0.255332,-0.0958506,0.0129997,-0.334451
-0.0375709,0.254787,0.417942,0.70852,0.17067,-0.210408,-0.0400513,0.0925092,-0.207069
-0.0323222,0.271039,0.415424,0.896967,0.295533,-0.0912786,0.0101865,0.142321,-0.0434493
-0.0261483,0.289433,0.415287,0.92221,0.284684,0.0275295,0.0180083,0.165872,0.112802
-0.0228559,0.30696,0.417285,0.821663,0.0781214,0.102966,-0.00600058,0.1641,0.229894
-0.0228559,0.30696,0.417285,0.821663,0.0781214,0.102966,-0.00600058,0.1641,0.229894
-0.0249261,0.321589,0.419202,0.637851,-0.219897,0.0223672,-0.0748955,0.149906,0.294097
-0.0302254,0.331996,0.417829,0.392123,-0.326419,-0.191284,-0.155435,0.140216,0.290772
-0.0340952,0.337086,0.411596,0.0958437,-0.23953,-0.403035,-0.177119,0.148122,0.265546
-0.0334359,0.33692,0.40183,-0.115999,-0.0191887,-0.499354,-0.146199,0.177872,0.23216
-0.0289552,0.334609,0.391331,-0.116636,0.0970953,-0.46452,-0.0762006,0.212265,0.207021
-0.0241536,0.334163,0.38291,0.0694189,0.0948443,-0.324276,-0.0123715,0.228095,0.215085
-0.0215645,0.337689,0.377775,0.263275,-0.029974,-0.171562,0.0144246,0.225884,0.273702
-0.0235324,0.343945,0.375485,0.337103,-0.241636,-0.0714458,0.0135767,0.193038,0.35766
-0.0299291,0.350049,0.374399,0.239365,-0.433433,-0.0715589,-0.0197722,0.154712,0.423585
-0.0391084,0.352686,0.37208,0.00720459,-0.553685,-0.159724,-0.0529077,0.11167,0.443193
-0.0494001,0.350408,0.367643,-0.242352,-0.617172,-0.238617,-0.053642,0.0867348,0.394386
-0.0591049,0.344275,0.362116,-0.378183,-0.528524,-0.238541,-0.0296771,0.0909175,0.287546
-0.0667079,0.336381,0.356694,-0.429578,-0.415385,-0.230654,-0.0245102,0.0893806,0.190879
-0.0724382,0.327924,0.351061,-0.45241,-0.368363,-0.247627,-0.0236906,0.0602525,0.128557
-0.0782991,0.318933,0.344732,-0.494378,-0.413127,-0.286349,-0.00700893,0.0302899,0.0962887
-0.084405,0.309142,0.337751,-0.534879,-0.397113,-0.293434,0.0039534,0.0257073,0.0599827
-0.0892237,0.298852,0.330993,-0.540651,-0.271954,-0.255916,0.0241206,0.0103805,0.0105438
-0.0915822,0.288879,0.325156,-0.501675,-0.139624,-0.215411,0.0252715,-0.00714484,-0.017728
-0.0923635,0.279685,0.319977,-0.464834,-0.0936805,-0.203355,0.0233865,-0.0384918,-0.00724882
-0.0931443,0.270873,0.315035,-0.464981,-0.125451,-0.188164,0.0298039,-0.0650226,0.0242564
-0.0948538,0.261946,0.310574,-0.4658,-0.152644,-0.161116,0.0310713,-0.081432,0.0377788
-0.0964394,0.25312,0.306361,-0.455228,-0.109916,-0.16966,0.00952731,-0.106874,0.0373677
-0.0967289,0.244516,0.301731,-0.448539,-0.0416126,-0.195367,0.00453303,-0.129571,0.0328424
-0.0960486,0.236034,0.29645,-0.450361,-0.0318608,-0.23352,0.00620584,-0.153496,0.038089
-0.0959496,0.227344,0.290276,-0.477722,-0.0984829,-0.286821,0.0220178,-0.169949,0.0329739
-0.0966174,0.218234,0.283108,-0.504512,-0.124179,-0.328127,0.0294208,-0.176896,-0.00671118
-0.0980796,0.208786,0.27503,-0.511232,-0.200822,-0.361778,0.0520337,-0.187976,-0.0778251
-0.101049,0.199695,0.266903,-0.4775,-0.228355,-0.332656,0.0984144,-0.179422,-0.197968
-0.102973,0.19083,0.260248,-0.472597,-0.0742035,-0.219477,0.119388,-0.145317,-0.319542
-0.101307,0.182321,0.256015,-0.403968,0.159203,-0.1225,0.112092,-0.143425,-0.433879
-0.0966991,0.175936,0.253354,-0.249718,0.237788,-0.0791814,0.100261,-0.155246,-0.51198
-0.091394,0.172564,0.251923,-0.115466,0.249441,-0.018847,0.0855778,-0.149107,-0.543088
-0.0867061,0.170661,0.252121,-0.0910472,0.236627,0.0567081,0.0756197,-0.126614,-0.527049
-0.0811004,0.168586,0.253407,-0.100131,0.372198,0.0763277,0.0376725,-0.130567,-0.531699
-0.0719489,0.166494,0.254865,-0.0876965,0.560196,0.0810498,0.00729422,-0.122039,-0.514213
-0.0595183,0.165823,0.256723,0.0582116,0.711081,0.12144,0.00611602,-0.115606,-0.479529
-0.04503,0.169595,0.260331,0.357602,0.796221,0.226216,0.020901,-0.0710543,-0.398281
-0.0298914,0.179949,0.266594,0.690839,0.826182,0.35303,0.0229194,-0.0182861,-0.264328
-0.0151884,0.195742,0.275029,0.886797,0.812226,0.437744,0.00542208,0.0112054,-0.077849
-0.000822357,0.213619,0.284632,0.882889,0.816136,0.488706,-0.0108693,0.0320206,0.0983331
0.0125148,0.230122,0.295042,0.761551,0.736085,0.536296,-0.00858351,0.0399248,0.233297
0.0226985,0.244141,0.305825,0.624434,0.516409,0.517435,-0.0123952,0.0291532,0.307864
0.0283024,0.255591,0.31474,0.501895,0.273467,0.36802,-0.0568898,0.038996,0.32876
0.0310371,0.264906,0.320379,0.423481,0.172728,0.210069,-0.0689206,0.0635456,0.301048
0.0337703,0.272937,0.323206,0.378257,0.20123,0.100863,-0.0455603,0.110061,0.271776
0.0383811,0.280333,0.32488,0.370724,0.286916,0.105917,-0.0091943,0.160999,0.255513
0.0439359,0.288491,0.32712,0.441194,0.344372,0.12719,0.0138168,0.199408,0.252763
0.0501632,0.297937,0.32905,0.492381,0.321591,0.112246,0.013804,0.213547,0.26924
0.0551666,0.307985,0.331266,0.487245,0.243469,0.146989,0.0338206,0.218254,0.302998
0.0588729,0.316867,0.333829,0.377,0.223699,0.140748,0.0395036,0.19007,0.311149
0.063088,0.323136,0.33581,0.249225,0.259634,0.0697519,0.00866775,0.143302,0.273415
0.067026,0.326957,0.335563,0.144222,0.0945994,-0.084779,-0.0174988,0.112987,0.237531
0.0695259,0.32836,0.330981,0.00520772,0.0277544,-0.334123,-0.0326924,0.0954711,0.180293
0.072346,0.325857,0.323101,-0.193328,0.0344135,-0.38934,0.0364403,0.114539,0.13455
0.0762394,0.320314,0.316569,-0.29547,0.14783,-0.261207,0.112691,0.159805,0.0599965
0.0814129,0.314215,0.313373,-0.277769,0.251383,-0.0744258,0.131963,0.206592,0.00163072
0.0867706,0.309509,0.31437,-0.195822,0.302415,0.128077,0.129706,0.215327,-0.0232375
0.0909093,0.306394,0.319261,-0.167515,0.250996,0.301335,0.123176,0.191775,0.0048492
0.0934518,0.303287,0.327183,-0.221976,0.236686,0.416771,0.0791865,0.166411,0.0547792
0.0951355,0.298847,0.337329,-0.303296,0.229668,0.502189,0.0418782,0.143036,0.0928498
0.095973,0.293449,0.348969,-0.329481,0.185555,0.552425,0.0101994,0.112879,0.106732
0.0953649,0.287993,0.361433,-0.334565,0.102936,0.583944,-0.00624636,0.0840927,0.123023
0.093095,0.281776,0.374496,-0.416434,0.0343401,0.604093,-0.0169983,0.0482496,0.152204
0.0891759,0.273156,0.387795,-0.560352,-0.0596373,0.591142,-0.0338759,0.0182614,0.167442
0.0836273,0.261796,0.400503,-0.680995,-0.173092,0.534243,-0.0431471,-0.0161013,0.135906
0.0756976,0.248059,0.41197,-0.774128,-0.32382,0.47721,-0.0279766,-0.0379548,0.0761576
0.065025,0.232695,0.422778,-0.831343,-0.491911,0.471929,0.0150345,-0.0542499,-0.0161754
0.0513619,0.21665,0.433904,-0.832327,-0.629391,0.531281,0.0540936,-0.0630105,-0.13671
0.0353563,0.201104,0.44634,-0.77136,-0.702613,0.612969,0.0715036,-0.0822468,-0.263869
0.018744,0.186705,0.459321,-0.715967,-0.707802,0.611222,0.0390016,-0.107545,-0.382999
0.00247438,0.172662,0.471155,-0.71233,-0.71175,0.528449,0.00284199,-0.152642,-0.474879
-0.0127924,0.158276,0.480123,-0.716461,-0.677802,0.365311,-0.0608847,-0.169106,-0.56916
-0.0268516,0.145282,0.486104,-0.542437,-0.635284,0.275109,-0.0519867,-0.148015,-0.666012
-0.0394811,0.137172,0.491692,-0.252847,-0.552831,0.329907,0.00824688,-0.0893324,-0.708392
-0.0504117,0.13426,0.499623,-0.0165254,-0.444969,0.468944,0.0375772,-0.0458758,-0.662572
-0.0595267,0.135283,0.509517,0.17772,-0.311319,0.470252,-0.0161405,-0.0652478,-0.578061
-0.0595267,0.135283,0.509517,0.17772,-0.311319,0.470252,-0.0161405,-0.0652478,-0.578061
-0.0642892,0.140296,0.517692,0.369762,-0.0451063,0.295937,-0.0988008,-0.093074,-0.48674
-0.0630455,0.149378,0.522611,0.576018,0.244514,0.151726,-0.0994868,-0.0673631,-0.343713
-0.0564394,0.162807,0.525997,0.777616,0.446452,0.113291,-0.048493,-0.0144099,-0.170938
-0.0472914,0.179372,0.529431,0.888739,0.499335,0.154778,-0.00245015,0.0388855,0.00638485
-0.0396789,0.197495,0.534136,0.94456,0.318896,0.226258,0.0201596,0.0643624,0.142845
-0.0382463,0.216315,0.539996,0.957832,-0.0758792,0.271092,0.0196763,0.0676744,0.230558
-0.044256,0.235,0.545954,0.928632,-0.350425,0.213505,-0.00238459,0.0536283,0.257787
-0.0522912,0.252417,0.549694,0.818374,-0.331933,0.0551237,-0.0645317,0.0597426,0.243081
-0.0574853,0.266895,0.549811,0.631848,-0.180132,-0.115313,-0.0823826,0.0763442,0.235844
-0.0589467,0.277881,0.546756,0.460985,-0.0626777,-0.227166,-0.0492739,0.0964625,0.226753
-0.0582969,0.286099,0.5424,0.358726,-0.00873223,-0.215545,0.0113705,0.130952,0.222813
-0.0579256,0.293257,0.539243,0.35854,-0.0465836,-0.117737,0.0682848,0.153848,0.214033
-0.0584999,0.301306,0.538599,0.447582,-0.0179318,0.0094518,0.0997627,0.161789,0.200829
-0.0589768,0.310621,0.540523,0.480314,0.0209947,0.110324,0.102188,0.156343,0.233859
-0.0597375,0.319369,0.544064,0.400255,0.0023776,0.163843,0.0872618,0.130679,0.297777
-0.0615235,0.325807,0.54819,0.263875,-0.05272,0.18742,0.0797651,0.104208,0.339491
-0.0642909,0.329524,0.552695,0.14074,-0.0624436,0.223408,0.0762166,0.0904078,0.334043
-0.0667963,0.330934,0.557807,0.0363549,-0.0295752,0.257084,0.0789483,0.0798551,0.308453
-0.0696576,0.330224,0.563418,-0.0786038,-0.0902487,0.269467,0.0762625,0.064001,0.292598
-0.0741352,0.327354,0.568934,-0.157501,-0.158388,0.274302,0.0726213,0.0413265,0.242803
-0.0784615,0.323599,0.5745,-0.171268,-0.0860299,0.282954,0.0725886,0.0274995,0.166936
-0.0805124,0.319855,0.580267,-0.160744,0.0554128,0.297438,0.0716924,0.0172943,0.124871
-0.0809425,0.315781,0.586489,-0.209257,0.0657764,0.331983,0.0859658,0.00387296,0.143716
-0.0826048,0.310208,0.593548,-0.295485,-0.0236561,0.384035,0.0980124,-0.0135759,0.171924
-0.0863039,0.302793,0.601127,-0.379315,-0.110299,0.398556,0.0822603,-0.0345767,0.15524
-0.0910373,0.29421,0.60873,-0.404286,-0.119992,0.404756,0.0800778,-0.0603731,0.105488
-0.0949723,0.285769,0.616435,-0.373726,-0.0596694,0.431883,0.0649829,-0.0481068,0.0588813
-0.0990757,0.277579,0.625993,-0.345779,-0.0780096,0.547636,0.0945934,-0.0552865,0.0366104
-0.103024,0.269851,0.635894,-0.349124,-0.0574175,0.464222,0.0132437,-0.0621628,0.0264646
-0.106347,0.260955,0.64415,-0.462415,-0.0509115,0.451982,0.0240162,-0.0987321,0.0433274
-0.109383,0.250061,0.653079,-0.50159,-0.0302963,0.527432,0.0707055,-0.127903,0.0212886
-0.11249,0.240004,0.663501,-0.376212,-0.0318197,0.59659,0.0752987,-0.138972,-0.0328643
-0.116189,0.232756,0.676213,-0.203338,-0.0389823,0.742329,0.118188,-0.157448,-0.0578333
-0.121526,0.227995,0.693435,-0.0806422,-0.128507,0.998863,0.171175,-0.166675,-0.0388611
-0.130371,0.224496,0.715919,-0.00129589,-0.2433,1.19371,0.149414,-0.175883,-0.0190542
-0.141032,0.220934,0.740241,-0.0646111,-0.283802,1.1847,0.0387442,-0.200873,-0.0106938
-0.151626,0.214352,0.762328,-0.29178,-0.285814,1.03444,-0.0236752,-0.260873,-0.0174031
-0.160364,0.203681,0.779704,-0.476452,-0.194405,0.813277,-0.0499983,-0.288218,-0.0915102
-0.164963,0.191646,0.79239,-0.492632,-0.0373951,0.640948,-0.0187678,-0.287995,-0.219028
-0.166426,0.180521,0.803313,-0.434808,0.113681,0.617748,0.0787687,-0.234231,-0.304744
-0.163817,0.170224,0.814332,-0.407278,0.344846,0.617662,0.0982436,-0.18988,-0.370848
-0.157132,0.160618,0.82508,-0.381713,0.444102,0.574549,0.109825,-0.184157,-0.39927
-0.151339,0.151447,0.834706,-0.375929,0.271335,0.519919,0.111652,-0.150126,-0.397959
-0.150195,0.142663,0.844113,-0.351761,0.0130511,0.551558,0.100625,-0.0431993,-0.427797
-0.150291,0.134688,0.855405,-0.243721,0.204794,0.697357,0.101052,0.0277749,-0.513681
-0.143192,0.130678,0.870823,0.111274,0.727084,0.867293,0.108436,0.0518148,-0.581692
-0.127213,0.134911,0.89,0.550148,1.08223,0.954757,0.0929108,0.0692863,-0.486637
-0.108306,0.146519,0.911428,0.829822,1.07943,1.02154,0.0723906,0.102386,-0.243181
-0.0920351,0.162434,0.934223,0.967205,0.859492,1.07724,0.0709506,0.114403,-0.047766
-0.083265,0.180187,0.958225,1.00764,0.408581,1.12203,0.0596361,0.153533,0.0767611
-0.0837359,0.198597,0.982678,1.03496,0.0507628,1.11563,0.0205928,0.203931,0.0915335
-0.0884842,0.217276,1.00634,1.02677,0.00474515,1.0321,-0.00665014,0.236917,0.0452694
-0.0917134,0.23533,1.02802,0.953349,0.191634,0.916062,-0.0305378,0.274042,0.0104647
-0.0900343,0.251289,1.04724,0.81088,0.427368,0.806932,-0.0489127,0.332606,0.0165954
-0.0900343,0.251289,1.04724,0.81088,0.427368,0.806932,-0.0489127,0.332606,0.0165954
-0.0848961,0.264935,1.06403,0.709252,0.501623,0.692311,-0.0272341,0.34345,0.0493718
-0.0780734,0.277488,1.07847,0.661075,0.550888,0.602537,0.00723106,0.354446,0.0844579
-0.0703399,0.289657,1.09143,0.662264,0.590211,0.566536,0.0550555,0.327737,0.099237
-0.0624356,0.301979,1.10457,0.646207,0.590828,0.625193,0.130342,0.320894,0.126412
-0.0544191,0.313605,1.11886,0.596003,0.65683,0.643885,0.115643,0.299685,0.153494
-0.0446257,0.324034,1.13206,0.50105,0.731646,0.560602,0.081779,0.248264,0.169809
-0.0335243,0.331986,1.1443,0.335237,0.784107,0.60851,0.129146,0.225198,0.202266
-0.0229706,0.337159,1.16019,0.245779,0.798034,0.90398,0.247826,0.238553,0.177901
-0.0160223,0.341715,1.18299,0.267508,0.631954,1.23894,0.270161,0.23966,0.161909
-0.0158609,0.347432,1.21215,0.342449,0.377031,1.47834,0.231053,0.21611,0.142616
-0.0204349,0.354055,1.24456,0.355382,0.322912,1.52879,0.139115,0.180307,0.121602
-0.0243621,0.359283,1.27627,0.208101,0.376863,1.43231,0.0745011,0.146236,0.144764
-0.0275262,0.360171,1.30634,-0.0525555,0.383953,1.40899,0.114792,0.134615,0.180065
-0.0279646,0.355431,1.33587,-0.348241,0.611704,1.37435,0.127806,0.147235,0.16
-0.0231819,0.345623,1.36415,-0.535828,0.825277,1.31078,0.0912976,0.18174,0.109572
-0.0152555,0.334269,1.3909,-0.523191,0.797822,1.24696,0.0888583,0.161392,0.0350862
-0.00856026,0.325031,1.41606,-0.347554,0.740027,1.12755,0.0864049,0.12015,-0.0228069
0.00145263,0.319942,1.43658,-0.198609,0.901891,0.814509,0.0123998,0.0671517,-0.0416533
0.0140744,0.314245,1.45135,-0.462378,0.791789,0.638525,0.0814029,0.0574814,0.0424427
0.0242355,0.300248,1.46544,-0.93654,0.690474,0.698902,0.20584,0.0350609,0.00263578
0.0344763,0.281024,1.48113,-0.936602,0.779111,0.743499,0.20701,-0.0354346,-0.248555
0.0459267,0.268308,1.49738,-0.328781,0.794313,0.791449,0.196516,-0.0629329,-0.474937
0.0573756,0.269862,1.51473,0.343243,0.796297,0.900613,0.211699,-0.0763279,-0.533033
0.0679581,0.280628,1.53368,0.533258,0.799371,0.980466,0.1629,-0.0668978,-0.39531
0.0790695,0.290726,1.55348,0.303003,0.884016,0.993417,0.0303761,-0.0131718,-0.229085
0.0920548,0.295957,1.5743,0.0824325,1.02121,1.05845,-0.0643076,0.061507,-0.165263
0.105653,0.299606,1.59774,0.0954517,0.994343,1.22716,-0.087056,0.132806,-0.143381
0.114934,0.305815,1.62485,0.255152,0.739888,1.41961,-0.0883031,0.163345,-0.0855266
0.118089,0.316078,1.65507,0.414404,0.50998,1.5496,-0.103647,0.168034,-0.00790936
0.117411,0.328347,1.68667,0.429052,0.470454,1.56168,-0.164869,0.18576,0.0877345
0.117899,0.339091,1.71758,0.273054,0.609386,1.4635,-0.215741,0.187107,0.187823
0.121624,0.345745,1.7467,0.0625476,0.733178,1.35063,-0.238275,0.181823,0.276723
0.126973,0.348596,1.7741,-0.0941252,0.715829,1.25527,-0.225217,0.188594,0.345358
0.130487,0.348719,1.80034,-0.202753,0.497988,1.20314,-0.186296,0.194263,0.384306
0.128591,0.347761,1.82575,-0.178365,0.178027,1.15986,-0.150483,0.181965,0.354251
0.121709,0.34816,1.85015,-0.0822348,-0.0128927,1.13426,-0.122318,0.170042,0.281819
0.112195,0.348452,1.87442,-0.201494,-0.11262,1.15196,-0.0938939,0.179257,0.264529
0.100167,0.343968,1.89985,-0.506633,-0.208021,1.1826,-0.0342513,0.1276,0.246199
0.0881761,0.333697,1.9257,-0.73658,-0.122795,1.13012,-0.0184001,0.0701374,0.139242
0.0792824,0.319136,1.9489,-0.888636,-0.0184539,0.934451,-0.0433552,0.0162613,0.0179963
0.0754242,0.302028,1.96796,-0.959991,0.245958,0.777301,0.00737333,-0.0461859,-0.104238
0.0776429,0.28403,1.98604,-0.952829,0.46185,0.859393,0.204062,-0.150743,-0.165395
0.080426,0.26831,2.00775,-0.743532,0.349917,1.09573,0.46407,-0.348423,-0.224337
0.0775172,0.259399,2.03203,-0.321267,-0.0298251,1.14928,0.407573,-0.340927,-0.310223
0.0689277,0.258975,2.05529,0.0938895,-0.15795,1.09904,0.218961,-0.140165,-0.376081
0.0624727,0.265138,2.07707,0.351361,0.115651,1.05309,0.0886295,0.0568267,-0.390388
0.0637507,0.274285,2.09852,0.401332,0.58772,1.10457,0.0533285,0.183517,-0.323485
0.0735178,0.282996,2.12276,0.297015,1.0572,1.30836,0.0827752,0.268308,-0.194684
0.0893343,0.289634,2.15186,0.138722,1.29822,1.52621,0.0718185,0.303362,-0.0359057
0.104444,0.294014,2.18483,0.000788529,1.09363,1.65951,0.00620662,0.295289,0.116897
0.111149,0.2967,2.22038,-0.0894144,0.594577,1.76161,-0.0179544,0.255074,0.208142
0.10733,0.298514,2.25805,-0.109312,0.170888,1.8415,-0.0641175,0.225329,0.205371
0.0974936,0.300684,2.29659,-0.0501832,-0.00571503,1.85238,-0.121689,0.174393,0.142478
0.0974936,0.300684,2.29659,-0.0501832,-0.00571503,1.85238,-0.121689,0.174393,0.142478
0.0854783,0.303641,2.33456,-0.000826696,-0.053735,1.77784,-0.148272,0.11258,0.110545
0.0746746,0.30598,2.36963,-0.052156,0.0358504,1.57222,-0.180957,0.0336499,0.0969519
0.06746,0.305405,2.39992,-0.224215,0.149408,1.31591,-0.177433,-0.0267746,0.0995206
0.0639099,0.300599,2.42556,-0.404627,0.280029,1.11303,-0.139952,-0.0642897,0.0751728
0.0649247,0.293015,2.44779,-0.479385,0.456678,0.978717,-0.116984,-0.0603578,-0.00415796
0.0689841,0.285271,2.46787,-0.402289,0.497396,0.9074,-0.0992704,-0.0684973,-0.0813931
0.0725716,0.280515,2.48697,-0.184676,0.395805,0.907549,-0.0419943,-0.0840355,-0.148351
0.0744542,0.280649,2.50632,0.0318846,0.309282,0.946997,-0.0158721,-0.0762922,-0.175621
0.0733024,0.282669,2.52543,-0.0181264,0.0856795,0.88653,-0.0590693,-0.0795093,-0.133207
0.0678039,0.28166,2.5427,-0.187983,-0.164074,0.770949,-0.0866276,-0.111027,-0.138642
0.0603297,0.279382,2.55766,-0.0845582,-0.110895,0.657606,-0.103167,-0.0884504,-0.258815
0.0570524,0.281108,2.57023,0.198348,0.148865,0.576553,-0.0698742,-0.0523222,-0.321179
0.0599809,0.288466,2.5816,0.451573,0.453944,0.568323,-0.0134617,-0.0427125,-0.255643
0.0675412,0.298874,2.59317,0.482194,0.606697,0.614039,0.0232095,-0.0248462,-0.0844131
0.0760559,0.308174,2.60596,0.336994,0.609095,0.671808,0.0402069,-0.0342658,0.0732726
0.0827702,0.314274,2.61967,0.178809,0.472816,0.671923,0.0281089,-0.0497303,0.158352
0.0858574,0.318143,2.63305,0.126422,0.241886,0.630472,0.00834922,-0.0384994,0.16986
0.0845985,0.32278,2.6457,0.259608,0.032006,0.621086,0.00530007,0.0023846,0.116642
0.0798697,0.331117,2.65829,0.472596,-0.0791649,0.64039,0.028965,0.0660509,0.0778123
0.0740123,0.342853,2.67145,0.577332,-0.0582737,0.700445,0.0727845,0.114633,0.0793424
0.0688667,0.355233,2.68641,0.548198,0.0768111,0.789644,0.132231,0.132614,0.101359
0.0666267,0.366178,2.70301,0.42153,0.268797,0.831597,0.172578,0.120363,0.115454
0.0667304,0.373753,2.72067,0.218987,0.380769,0.877081,0.21104,0.111388,0.133665
0.06741,0.377289,2.73999,0.0239989,0.367164,0.93176,0.247422,0.0911493,0.128742
0.0669603,0.378157,2.75993,-0.0514775,0.32527,0.921787,0.257519,0.0549075,0.0671719
0.0665817,0.378284,2.77864,-0.0702775,0.318661,0.800098,0.209305,0.0646087,-0.00610906
0.0660966,0.376529,2.79467,-0.242303,0.177916,0.714838,0.17715,0.118473,-0.0138259
0.0619752,0.370492,2.8115,-0.446591,0.0611383,0.851767,0.227103,0.151823,-0.0589285
0.0562392,0.362413,2.83308,-0.448489,0.15724,1.12699,0.253289,0.188272,-0.166288
0.0527564,0.356451,2.85983,-0.268294,0.450484,1.33258,0.212088,0.188031,-0.254348
0.0545398,0.354714,2.88926,-0.0692261,0.717789,1.40425,0.113203,0.167131,-0.250462
0.0591941,0.355709,2.91865,-0.0132589,0.750783,1.34351,0.0440312,0.110157,-0.137759
0.0645941,0.356778,2.94593,-0.0529512,0.752071,1.2176,-0.00587314,0.0582111,-0.0354626
0.071251,0.356558,2.97048,-0.125999,0.781187,1.09004,-0.0258958,0.03855,0.026706
0.0796691,0.354877,2.99276,-0.205001,0.829909,0.986858,-0.0423993,0.046312,0.0740278
0.08871,0.351511,3.0131,-0.295942,0.769474,0.895024,-0.045289,0.042193,0.121197
0.0967806,0.346339,3.03155,-0.386889,0.665847,0.791166,-0.0621291,0.0406127,0.148302
0.103709,0.339404,3.04794,-0.458249,0.596704,0.681071,-0.0612715,0.0282379,0.151418
0.111008,0.331224,3.06215,-0.504547,0.60707,0.581991,-0.0488052,0.0120594,0.136404
0.11958,0.32247,3.07513,-0.513149,0.675761,0.55509,-0.0237148,0.0263062,0.126573
0.129174,0.313529,3.08867,-0.538126,0.674782,0.6298,0.0218585,0.0329962,0.143994
0.136771,0.304725,3.10467,-0.534215,0.562226,0.771944,0.0621061,0.0214363,0.161971
0.140747,0.296697,3.12348,-0.515152,0.380213,0.888159,0.070772,0.00948024,0.166516
0.140535,0.289285,-3.13968,-0.490443,0.185466,0.899821,0.0632111,-0.0415152,0.137048
0.13721,0.282263,-3.11978,-0.48821,0.0449923,0.905954,0.0655327,-0.0668377,0.0859531
0.131113,0.274554,-3.09892,-0.553653,-0.0795693,1.00482,0.0968608,-0.0822764,0.0569155
0.121783,0.265609,-3.07573,-0.614689,-0.239471,1.084,0.112652,-0.113526,0.00691956
0.109959,0.255751,-3.05286,-0.608489,-0.342973,0.974997,0.0630363,-0.164158,-0.0830165
0.0981409,0.246219,-3.03374,-0.532659,-0.358314,0.776025,0.031345,-0.204854,-0.209478
0.087508,0.237963,-3.01811,-0.426176,-0.325208,0.690681,0.0572478,-0.199305,-0.317573
0.0781238,0.231924,-3.00328,-0.296618,-0.254138,0.710982,0.117206,-0.181389,-0.395145
0.0715218,0.228563,-2.98749,-0.163761,-0.0461595,0.812821,0.148995,-0.148284,-0.454156
0.067666,0.227037,-2.96991,-0.124302,0.0176407,0.871538,0.136284,-0.140402,-0.452193
0.0634338,0.225469,-2.95261,-0.146333,-0.0674054,0.783484,0.109066,-0.196282,-0.437915
0.0634338,0.225469,-2.95261,-0.146333,-0.0674054,0.783484,0.109066,-0.196282,-0.437915
0.0571894,0.223267,-2.93784,-0.145073,-0.222091,0.659293,0.104356,-0.219639,-0.460314
0.0494918,0.22229,-2.92481,-0.00508873,-0.235268,0.622829,0.157846,-0.223628,-0.542263
0.0430903,0.224928,-2.91245,0.222105,-0.117463,0.584896,0.156769,-0.196718,-0.611391
0.0408709,0.23224,-2.90203,0.464526,0.164619,0.448989,0.0445575,-0.0897273,-0.61996
0.0470672,0.24425,-2.8947,0.705421,0.656467,0.337631,-0.0838614,0.109855,-0.554224
0.0636731,0.260592,-2.88852,0.875835,1.13012,0.381955,-0.12125,0.29586,-0.375762
0.0861978,0.279377,-2.88041,0.927711,1.29224,0.546159,-0.100835,0.391144,-0.120817
0.107707,0.298527,-2.86974,0.872481,1.13442,0.642917,-0.130088,0.40776,0.115058
0.123176,0.315959,-2.85804,0.720498,0.75008,0.666472,-0.150321,0.373411,0.271071
0.12974,0.329758,-2.84556,0.499231,0.31995,0.691904,-0.12532,0.318748,0.350141
0.12901,0.339107,-2.8316,0.252417,0.109847,0.738164,-0.106906,0.272967,0.35474
0.125522,0.342996,-2.8163,-0.0510921,0.0762318,0.739817,-0.119686,0.23345,0.332215
0.122661,0.341303,-2.80054,-0.273349,0.177405,0.71678,-0.130662,0.176802,0.284284
0.122458,0.337147,-2.78534,-0.277035,0.310484,0.655295,-0.155329,0.145066,0.219945
0.124961,0.33481,-2.77173,-0.094821,0.375532,0.602217,-0.159982,0.135505,0.197408
0.128219,0.33651,-2.75916,0.0930749,0.356067,0.607451,-0.133773,0.134363,0.240226
0.130386,0.340393,-2.74667,0.122445,0.277646,0.607175,-0.126723,0.119747,0.329611
0.13134,0.343924,-2.7345,0.0706169,0.228661,0.57708,-0.132799,0.100596,0.393566
0.130845,0.345674,-2.72307,-0.0501597,0.098486,0.5156,-0.131864,0.0818725,0.439504
0.127851,0.344337,-2.71257,-0.210987,-0.044808,0.454311,-0.128075,0.0785397,0.448616
0.12293,0.339984,-2.70266,-0.335093,-0.102954,0.421802,-0.128694,0.0848754,0.390007
0.117669,0.333605,-2.69322,-0.405207,-0.123395,0.397939,-0.100519,0.0761083,0.316005
0.111539,0.325481,-2.68411,-0.513729,-0.194768,0.364616,-0.0939282,0.073396,0.268788
0.103964,0.314403,-2.67547,-0.6853,-0.30323,0.343917,-0.0907855,0.0750569,0.231216
0.094314,0.299934,-2.66674,-0.830793,-0.38005,0.338987,-0.0669749,0.0474716,0.168456
0.0843584,0.28283,-2.65836,-0.953268,-0.388178,0.31319,-0.0635615,0.0339873,0.0945807
0.0749032,0.263497,-2.65051,-1.03417,-0.330697,0.281459,-0.0706939,0.0207427,0.0204257
0.0668916,0.242911,-2.6436,-1.06733,-0.292369,0.241873,-0.0704794,-0.0044812,-0.0476269
0.0611831,0.222436,-2.63731,-1.00764,-0.108618,0.255145,-0.0506511,-0.0395566,-0.133182
0.0600081,0.203976,-2.63002,-0.876347,0.128665,0.353273,-0.0119912,-0.0793871,-0.192843
0.0619171,0.18869,-2.62117,-0.716724,0.189844,0.408881,0.00297188,-0.16457,-0.200784
0.0626505,0.176066,-2.61225,-0.611905,0.0312884,0.382535,-0.00439071,-0.260008,-0.187038
0.0594592,0.165795,-2.60493,-0.447745,-0.25397,0.264125,-0.0326083,-0.308825,-0.222929
0.0513025,0.159516,-2.60057,-0.199327,-0.446414,0.143757,-0.036591,-0.326039,-0.325533
0.0429019,0.158019,-2.59789,0.0208696,-0.298927,0.138571,-0.0290945,-0.293642,-0.449677
0.0394746,0.160542,-2.5944,0.220594,-0.00907763,0.222006,-0.0253308,-0.270674,-0.532717
0.0399608,0.167403,-2.58959,0.445373,0.110389,0.259045,-0.0404751,-0.278004,-0.556377
0.0410347,0.177936,-2.5856,0.569257,0.05305,0.153733,-0.0890206,-0.266468,-0.513886
0.0415679,0.189548,-2.58518,0.581646,0.0212487,-0.0817395,-0.145411,-0.249772,-0.474707
0.0438117,0.200297,-2.59001,0.507095,0.142199,-0.334309,-0.151183,-0.220031,-0.464811
0.0501453,0.209016,-2.59844,0.41609,0.309117,-0.423784,-0.0874246,-0.142662,-0.443847
0.0586744,0.216623,-2.60703,0.41266,0.351962,-0.357055,0.00646564,-0.0476558,-0.395062
0.0675652,0.225941,-2.61363,0.588356,0.425848,-0.226184,0.0797709,0.0253689,-0.343832
0.0787153,0.240052,-2.61803,0.858822,0.605568,-0.100193,0.0908418,0.105475,-0.251454
0.0938697,0.259288,-2.62043,1.06742,0.861609,0.0382073,0.086983,0.199752,-0.0749598
0.113626,0.281429,-2.62067,1.11025,1.09131,0.154164,0.0746575,0.261188,0.142728
0.134837,0.302184,-2.61943,0.903339,1.01171,0.218554,0.0541264,0.289702,0.373208
0.150567,0.317087,-2.6165,0.513904,0.620206,0.266824,0.0451472,0.2764,0.526175
0.155765,0.323656,-2.61194,0.0725392,0.0290741,0.251096,0.061888,0.243037,0.573243
0.149084,0.322459,-2.60647,-0.232739,-0.477195,0.257078,0.0805888,0.215245,0.486049
0.135569,0.317455,-2.60002,-0.317718,-0.614958,0.274649,0.062838,0.250809,0.295457
0.123164,0.312745,-2.59333,-0.216391,-0.389377,0.308141,0.0431715,0.275735,0.111903
0.115673,0.310357,-2.58561,-0.122295,-0.132807,0.401197,0.0698167,0.259439,0.0415491
0.112121,0.309446,-2.57582,-0.0745929,0.0636654,0.52263,0.0781971,0.23431,0.0522499
0.112121,0.309446,-2.57582,-0.0745929,0.0636654,0.52263,0.0781971,0.23431,0.0522499
0.11126,0.310082,-2.56396,0.0171985,0.211019,0.599386,0.050377,0.210105,0.0791414
0.113315,0.31264,-2.5518,0.0945955,0.366941,0.572712,-0.0183272,0.179016,0.127796
0.118204,0.315498,-2.54067,0.0384984,0.451828,0.5169,-0.0461601,0.136462,0.220345
0.124225,0.315807,-2.5303,-0.135791,0.458356,0.468457,-0.0536146,0.102973,0.310882
0.129191,0.31257,-2.5209,-0.283638,0.316941,0.373164,-0.0733339,0.0659587,0.329237
0.131749,0.307555,-2.51352,-0.294213,0.171812,0.260041,-0.0766654,0.0322218,0.274315
0.13241,0.302735,-2.50862,-0.252192,0.0491151,0.134921,-0.0842103,0.0204369,0.225955
0.131837,0.297513,-2.5062,-0.324425,-0.0324988,0.038791,-0.0599457,-0.00516647,0.211947
0.130359,0.289386,-2.50487,-0.508548,-0.060749,-0.0195561,-0.0257543,-0.0235355,0.205506
0.129089,0.277338,-2.50406,-0.692841,-0.0470671,-0.0595912,-0.0045647,-0.0487748,0.163304
0.127954,0.262046,-2.50351,-0.828082,-0.0402471,-0.086523,0.0200773,-0.0918494,0.0931286
0.126573,0.24468,-2.50307,-0.880182,-0.100593,-0.0902631,0.0310278,-0.126391,0.0130516
0.123584,0.228283,-2.50256,-0.721679,-0.196026,-0.0652386,0.0509031,-0.163633,-0.103288
0.119579,0.216772,-2.50244,-0.423787,-0.177093,-0.0660478,0.0500779,-0.178156,-0.200116
0.117496,0.210413,-2.50288,-0.230425,-0.00998733,-0.0463305,0.0329731,-0.160201,-0.215993
0.119852,0.206492,-2.50313,-0.171766,0.21635,-0.0291791,0.00766997,-0.141102,-0.180273
0.124743,0.203585,-2.50337,-0.107414,0.250731,-0.0244957,0.00275291,-0.133604,-0.12929
0.129071,0.202478,-2.50355,-0.0144623,0.169526,-0.0110793,0.00645384,-0.109434,-0.0989352
0.131715,0.202404,-2.50387,-0.0105726,0.0893912,-0.0281365,-0.0121676,-0.0959261,-0.0760028
0.132521,0.201598,-2.5048,-0.0572751,-0.0258697,-0.0691847,0.00407216,-0.132421,-0.0880163
0.130801,0.199911,-2.50622,-0.0970455,-0.178952,-0.0819783,0.0494913,-0.143063,-0.139616
0.1258,0.197578,-2.50706,-0.115203,-0.339417,-0.0178867,0.0853312,-0.145289,-0.227628
0.117601,0.195879,-2.50649,-0.0511799,-0.452991,0.0413439,0.118602,-0.171063,-0.346241
0.109035,0.195553,-2.50594,-0.00985492,-0.374832,-0.00671881,0.087606,-0.199032,-0.479521
0.102801,0.195096,-2.50736,-0.0168699,-0.286136,-0.151286,0.0179183,-0.213931,-0.5722
0.0983704,0.19502,-2.5128,0.0864749,-0.279211,-0.38152,-0.0426087,-0.188752,-0.649904
0.0946116,0.198367,-2.52246,0.361941,-0.255972,-0.507534,-0.0507021,-0.0792989,-0.693169
0.093709,0.208107,-2.53347,0.710685,-0.0194761,-0.453711,-0.0254978,0.0638315,-0.652654
0.09882,0.224594,-2.54293,1.0055,0.319084,-0.324602,-0.0367942,0.164101,-0.504313
0.109501,0.245705,-2.55147,1.1734,0.531274,-0.300419,-0.077604,0.200607,-0.278138
0.123351,0.268978,-2.56076,1.22778,0.595589,-0.325717,-0.108894,0.226638,-0.0500262
0.137336,0.291417,-2.5709,1.10729,0.499688,-0.3498,-0.143995,0.273256,0.160626
0.148033,0.310076,-2.58116,0.87242,0.248215,-0.358156,-0.156252,0.300813,0.317292
0.15305,0.323313,-2.59098,0.57179,-0.0525198,-0.36819,-0.152275,0.296958,0.405503
0.1522,0.330223,-2.6,0.251413,-0.313892,-0.376653,-0.142384,0.273488,0.443168
0.14679,0.331436,-2.60855,0.011079,-0.494206,-0.411194,-0.106595,0.214699,0.413572
0.138898,0.329262,-2.61748,-0.0746853,-0.548935,-0.459478,-0.0595115,0.147182,0.333851
0.132125,0.327078,-2.62719,0.00119295,-0.429145,-0.473398,-0.0195325,0.12688,0.242305
0.128568,0.327288,-2.63674,0.140473,-0.228547,-0.417258,0.0120912,0.140141,0.20665
0.128615,0.330464,-2.64493,0.272614,-0.0397919,-0.305199,0.0522475,0.146351,0.221481
0.130982,0.336142,-2.6508,0.353017,0.0715996,-0.177404,0.0767595,0.155485,0.278416
0.134011,0.343301,-2.65411,0.396861,0.10792,-0.0450151,0.0867711,0.144687,0.333551
0.136434,0.351163,-2.65497,0.378217,0.0948642,0.0664095,0.0959068,0.12196,0.383189
0.136975,0.357474,-2.65358,0.206601,-0.00828066,0.143294,0.0839985,0.0999239,0.441178
0.134137,0.359222,-2.65047,-0.0921605,-0.188286,0.160629,0.0644984,0.0589128,0.448162
0.126089,0.354357,-2.64647,-0.433832,-0.478015,0.152583,0.045037,0.0272399,0.397358
0.112879,0.343666,-2.6416,-0.662613,-0.639312,0.177935,0.0442923,0.014752,0.255327
0.0984618,0.329535,-2.63596,-0.792061,-0.601788,0.203877,0.0338176,9.77516e-06,0.0886896
0.0863015,0.313924,-2.62987,-0.794542,-0.410572,0.231906,0.023273,-0.0338281,-0.0708583
0.078275,0.299818,-2.62325,-0.643009,-0.199208,0.282799,0.0037843,-0.0748476,-0.190037
0.0740606,0.290014,-2.61617,-0.378732,-0.02262,0.312583,-0.00828095,-0.110031,-0.239913
0.0736161,0.285595,-2.60967,-0.120294,0.164468,0.266907,-0.0508561,-0.15095,-0.216627
0.0768063,0.284874,-2.60522,-0.0140728,0.266316,0.144341,-0.103424,-0.171539,-0.106105
0.0821331,0.284563,-2.60381,-0.043664,0.288717,-0.0148156,-0.144461,-0.166939,0.0217802
0.0821331,0.284563,-2.60381,-0.043664,0.288717,-0.0148156,-0.144461,-0.166939,0.0217802
0.0878984,0.282473,-2.60557,-0.157292,0.239088,-0.166129,-0.158617,-0.134522,0.114453
0.0931269,0.277852,-2.60937,-0.26139,0.175017,-0.227193,-0.134958,-0.0937057,0.162497
0.0965336,0.271801,-2.61314,-0.295322,0.0471876,-0.177744,-0.0988268,-0.0482295,0.168567
0.0961096,0.266037,-2.61506,-0.255012,-0.132804,-0.0582295,-0.0577347,-0.0242147,0.142939
0.0920214,0.261362,-2.61479,-0.228343,-0.271039,0.030774,-0.0387068,-0.0367239,0.09098
0.0851921,0.256822,-2.61343,-0.233891,-0.359165,0.0521558,-0.0124437,-0.105993,0.00635797
0.0775198,0.252173,-2.61235,-0.248287,-0.379124,0.00916749,0.0119822,-0.165729,-0.102742
0.0707715,0.246721,-2.6124,-0.306984,-0.262861,-0.054829,0.0222033,-0.194877,-0.233087
0.0679245,0.239872,-2.61338,-0.36392,-0.0429463,-0.086139,0.0424084,-0.230668,-0.380954
0.0699057,0.232445,-2.61492,-0.354526,0.198572,-0.109166,0.0646896,-0.249532,-0.486729
0.075862,0.226787,-2.61641,-0.177768,0.331829,-0.065923,0.0947762,-0.237645,-0.568921
0.0819427,0.225979,-2.61651,0.0991301,0.264346,0.0604961,0.145633,-0.208236,-0.582177
0.085531,0.229923,-2.61436,0.238256,0.147267,0.179562,0.132352,-0.139422,-0.516234
0.0869603,0.234631,-2.60985,0.164643,0.124977,0.293696,0.103944,-0.0829151,-0.4208
0.0887888,0.237248,-2.6031,0.0682895,0.237053,0.38343,0.044549,-0.0264916,-0.383037
0.0935559,0.240891,-2.59453,0.274512,0.445051,0.479938,0.0022802,0.0163546,-0.398066
0.102311,0.25135,-2.58493,0.675435,0.65902,0.539102,-0.0322727,0.0646599,-0.326877
0.113887,0.26836,-2.57598,0.88454,0.698146,0.493568,-0.0861361,0.0845326,-0.12021
0.124337,0.286773,-2.56928,0.84155,0.504286,0.34309,-0.135279,0.0876225,0.0897574
0.130577,0.301995,-2.56671,0.619633,0.190371,0.0900804,-0.164048,0.0972458,0.220253
0.132817,0.31134,-2.56871,0.345076,0.020171,-0.137303,-0.156898,0.140472,0.24278
0.135176,0.316046,-2.57349,0.21217,0.0804799,-0.232705,-0.115395,0.200185,0.174238
0.13954,0.319837,-2.57895,0.258003,0.183166,-0.209719,-0.0522462,0.24944,0.113262
0.14493,0.325471,-2.58311,0.354348,0.206754,-0.0903175,-0.00521883,0.276939,0.120642
0.148929,0.333239,-2.58444,0.428961,0.146491,0.0758447,0.0251884,0.268756,0.170489
0.150291,0.342543,-2.58299,0.474204,0.025128,0.190537,0.0190528,0.233543,0.220562
0.148889,0.353334,-2.57994,0.557562,-0.031798,0.242771,-0.0031136,0.195118,0.253406
0.14755,0.365591,-2.57653,0.592611,0.0243941,0.250114,-0.026078,0.185916,0.29611
0.147929,0.377117,-2.57308,0.482177,0.161817,0.239778,-0.0178157,0.164811,0.360189
0.151049,0.385051,-2.56932,0.239919,0.256463,0.217471,-0.0347971,0.156658,0.417966
0.153463,0.388156,-2.56571,0.0321456,0.0802282,0.152477,-0.0499523,0.128772,0.44534
0.151578,0.38816,-2.56338,-0.0492654,-0.164932,0.0600078,-0.0419562,0.0888896,0.395692
0.146021,0.386606,-2.56259,-0.130569,-0.361932,-0.00105292,-0.0289283,0.0786463,0.328416
0.137959,0.382481,-2.56212,-0.291288,-0.392431,-0.0118322,-0.0125488,0.0679106,0.256894
0.130917,0.375006,-2.56172,-0.455477,-0.291095,-0.0673898,-0.0105398,0.0316073,0.177181
0.126262,0.36424,-2.5629,-0.598803,-0.235991,-0.176384,-0.00905348,-0.0116042,0.107209
0.121984,0.350884,-2.56536,-0.685706,-0.288507,-0.205556,0.045446,-0.0535195,0.043099
0.116666,0.337105,-2.56747,-0.64539,-0.300853,-0.153923,0.102384,-0.0743187,-0.0349738
0.111778,0.325191,-2.56878,-0.517308,-0.208342,-0.114313,0.105116,-0.0864394,-0.108251
0.109926,0.316344,-2.57024,-0.359457,-0.0222851,-0.126576,0.0714739,-0.0939502,-0.148772
0.111314,0.309737,-2.57209,-0.291868,0.0949606,-0.111502,0.0545714,-0.0719013,-0.106001
0.114035,0.303704,-2.57332,-0.3089,0.125746,-0.0772867,0.0445411,-0.0498963,-0.0289522
0.1163,0.297043,-2.57393,-0.347948,0.0722514,-0.0589617,0.0272581,-0.0414277,0.0349061
0.116782,0.290002,-2.57406,-0.34235,-0.0174901,-0.0307561,0.0321473,-0.0458327,0.053874
0.11571,0.283148,-2.57385,-0.358984,-0.088214,-0.0344028,0.0309448,-0.0555817,0.0439243
0.113029,0.275145,-2.57389,-0.4395,-0.176584,-0.0582762,0.0433397,-0.0886801,0.024772
0.108701,0.265742,-2.57406,-0.478396,-0.245209,-0.0615016,0.0761225,-0.121866,-0.0439098
0.103968,0.256533,-2.57432,-0.440395,-0.241955,-0.0593479,0.0940429,-0.138102,-0.148681
0.0986141,0.248179,-2.57407,-0.390085,-0.309285,0.00793074,0.14144,-0.166973,-0.23324
0.091095,0.241631,-2.57244,-0.281637,-0.397344,0.0854259,0.180396,-0.19919,-0.343441
0.0826511,0.237124,-2.5699,-0.197993,-0.370413,0.119896,0.16957,-0.226838,-0.448201
0.0756355,0.234188,-2.56715,-0.105679,-0.250726,0.109674,0.125398,-0.242801,-0.539843
0.0714724,0.233775,-2.56516,0.0553651,-0.145548,0.0932811,0.0795635,-0.204338,-0.591193
0.067826,0.236518,-2.56302,0.190797,-0.197411,0.141853,0.0595248,-0.106883,-0.557434
0.067826,0.236518,-2.56302,0.190797,-0.197411,0.141853,0.0595248,-0.106883,-0.557434
0.0621249,0.241293,-2.55977,0.265671,-0.280746,0.20163,0.00299186,-0.00676882,-0.503118
0.0562766,0.247552,-2.55609,0.348629,-0.190738,0.179115,-0.0825169,0.0643367,-0.484977
0.0539683,0.256495,-2.55361,0.56133,0.0396865,0.115229,-0.155815,0.113677,-0.451848
0.0565591,0.270946,-2.55209,0.87747,0.255078,0.112496,-0.156151,0.158954,-0.334638
0.0627461,0.290815,-2.55103,1.07279,0.373015,0.105856,-0.148359,0.193075,-0.126562
0.0703682,0.312258,-2.55053,1.02644,0.38655,0.073548,-0.171128,0.212375,0.0996321
0.0766757,0.330058,-2.55139,0.72803,0.185139,-0.0339137,-0.206621,0.198152,0.293586
0.0786473,0.34062,-2.55448,0.358492,-0.0925117,-0.177146,-0.207338,0.159313,0.391859
0.0761869,0.344501,-2.55998,0.100797,-0.315251,-0.302507,-0.173738,0.132085,0.38285
0.071685,0.344728,-2.56713,-0.00938,-0.368167,-0.349615,-0.105252,0.125798,0.31224
0.0665549,0.343736,-2.57417,-0.025305,-0.376093,-0.309486,-0.0348139,0.1252,0.251261
0.0612229,0.343887,-2.5802,0.0839626,-0.366218,-0.264646,-0.00204514,0.117041,0.198995
0.0561564,0.346692,-2.58581,0.226208,-0.322657,-0.246649,0.00565369,0.114798,0.175927
0.0522973,0.351938,-2.59123,0.311607,-0.24611,-0.234277,0.0196256,0.117148,0.193267
0.0504518,0.357794,-2.5966,0.284991,-0.125827,-0.237906,0.0271803,0.126851,0.240183
0.0506793,0.362288,-2.60175,0.184651,-0.04741,-0.209183,0.0529419,0.130034,0.293187
0.0515437,0.364811,-2.60542,0.0942869,-0.00455978,-0.117727,0.0852467,0.136588,0.30853
0.0519276,0.366439,-2.60695,0.084139,-0.020095,-0.0211343,0.0844,0.133653,0.283928
0.0505574,0.368208,-2.60686,0.0880659,-0.13332,0.0349345,0.0813456,0.107716,0.26012
0.0466836,0.369846,-2.606,0.0533977,-0.20656,0.0444308,0.0672828,0.0715854,0.234407
0.0423261,0.36977,-2.60493,-0.0827126,-0.175341,0.0576257,0.0600948,0.043301,0.21783
0.0391843,0.366176,-2.60329,-0.293634,-0.0764184,0.0765732,0.0505505,0.0330357,0.197009
0.0372864,0.358496,-2.6011,-0.470258,-0.0384891,0.0999149,0.0344739,0.0178738,0.15927
0.0349885,0.348512,-2.59811,-0.517087,-0.105887,0.146422,0.0252881,0.00724089,0.0867217
0.0306311,0.338665,-2.59441,-0.479737,-0.206034,0.165738,-0.00113101,0.00303537,0.0224836
0.0254912,0.329606,-2.59075,-0.446506,-0.161523,0.149036,-0.0270614,-0.0111538,-0.0329581
0.0229484,0.321057,-2.58762,-0.411943,0.0277832,0.128211,-0.0513149,-0.035306,-0.0688951
0.024819,0.313411,-2.58494,-0.354222,0.235437,0.111474,-0.0644401,-0.0453168,-0.0669194
0.029818,0.307227,-2.58241,-0.277212,0.315373,0.117191,-0.054678,-0.0650765,-0.0125187
0.034714,0.302289,-2.57968,-0.235785,0.238086,0.120105,-0.0481022,-0.0824053,0.0740164
0.0377635,0.297711,-2.57742,-0.246966,0.139836,0.068689,-0.0648414,-0.112215,0.127097
0.0391726,0.292011,-2.57648,-0.338389,0.0257254,-0.00467134,-0.0761705,-0.141763,0.153862
0.0386398,0.284069,-2.57688,-0.457293,-0.086041,-0.0613578,-0.068683,-0.15774,0.136468
0.0366973,0.274062,-2.57826,-0.530216,-0.146697,-0.106987,-0.0574756,-0.156114,0.0711928
0.0331958,0.263057,-2.58054,-0.565422,-0.274258,-0.146214,-0.044133,-0.161613,-0.0371906
0.0276972,0.251505,-2.58306,-0.585277,-0.304375,-0.133468,-0.00709285,-0.169427,-0.185672
0.0232324,0.239708,-2.58532,-0.57787,-0.192278,-0.112555,0.00259557,-0.182396,-0.350129
0.0210936,0.229264,-2.58701,-0.448756,-0.0571951,-0.0788996,0.0296307,-0.199466,-0.51236
0.0218462,0.222239,-2.5882,-0.259915,0.0967477,-0.0394486,0.02865,-0.185226,-0.631455
0.024395,0.218621,-2.58799,-0.12017,0.131236,0.0429499,0.0286935,-0.139271,-0.661651
0.0264292,0.216974,-2.58696,-0.0523581,0.111676,0.0453818,0.00994483,-0.130336,-0.643951
0.0292134,0.2162,-2.58616,-0.0336417,0.202257,0.0326827,-0.00864705,-0.10062,-0.609741
0.0350635,0.216678,-2.58547,0.125909,0.410432,0.0415917,-0.0158651,-0.0815836,-0.584744
0.0452863,0.223356,-2.58463,0.580939,0.648897,0.0682264,0.00420882,-0.0553977,-0.535636
0.0605255,0.240236,-2.58351,1.07289,0.889264,0.136135,0.00232941,0.0370037,-0.361307
0.0788107,0.264196,-2.58129,1.25185,0.968544,0.246155,0.000540562,0.136362,-0.0664105
0.0961275,0.288446,-2.57752,1.10732,0.83967,0.319065,-0.0338327,0.185067,0.20507
0.108373,0.308327,-2.57278,0.823472,0.505225,0.321573,-0.0743129,0.191588,0.364474
0.113026,0.322671,-2.56837,0.571017,0.102516,0.253093,-0.10344,0.196114,0.406482
0.110949,0.331999,-2.56483,0.319254,-0.16526,0.189905,-0.112946,0.227712,0.38477
0.105552,0.336115,-2.5615,0.0658746,-0.23925,0.17867,-0.0977363,0.248615,0.33155
0.099738,0.336344,-2.55729,-0.0457353,-0.187817,0.222188,-0.0656426,0.226568,0.249503
0.0951599,0.336646,-2.55226,0.0533024,-0.114145,0.244961,-0.0618661,0.201111,0.169899
0.0951599,0.336646,-2.55226,0.0533024,-0.114145,0.244961,-0.0618661,0.201111,0.169899
0.0917278,0.339924,-2.54746,0.235938,-0.0602385,0.231202,-0.059121,0.1506,0.139592
0.0898416,0.346118,-2.5439,0.323738,-0.0290214,0.14372,-0.0659675,0.104218,0.177488
0.0893862,0.352397,-2.54327,0.287568,0.0182446,-0.0334194,-0.0972703,0.0634412,0.228533
0.091294,0.356871,-2.54618,0.176856,0.0582968,-0.194155,-0.0809677,0.0541018,0.278033
0.0941028,0.358743,-2.55127,0.0658813,0.0360819,-0.250013,-0.0327301,0.0670394,0.297538
0.0959835,0.359249,-2.55642,0.0396608,-0.023474,-0.22074,0.0104863,0.0900513,0.271024
0.0970483,0.359939,-2.56101,0.0716579,-0.0236526,-0.211319,0.0237083,0.088118,0.219707
0.0987145,0.361161,-2.56605,0.0840358,0.0145459,-0.257046,0.0242588,0.0590793,0.181727
0.101286,0.361541,-2.5723,-0.0094055,0.00691919,-0.315937,0.03169,0.0380112,0.191179
0.10322,0.359104,-2.57895,-0.17697,-0.0382001,-0.319891,0.0776846,0.0216628,0.194535
0.104183,0.353506,-2.58483,-0.31548,-0.0689303,-0.283157,0.0993656,0.0137457,0.151507
0.104159,0.346254,-2.58965,-0.351132,-0.101816,-0.244395,0.112603,0.00128704,0.0844328
0.10337,0.338785,-2.59368,-0.354677,-0.0935825,-0.216822,0.112823,-0.0162301,0.0252064
0.103129,0.331234,-2.59712,-0.365449,-0.0371599,-0.182072,0.109238,-0.02977,0.000477672
0.104062,0.323577,-2.59975,-0.364205,0.053336,-0.147832,0.104534,-0.0231656,-0.0124385
0.106461,0.31636,-2.6016,-0.343966,0.10784,-0.103759,0.0962024,-0.0222041,-0.00900114
0.108885,0.309326,-2.60243,-0.352207,0.115996,-0.0470167,0.0828888,-0.0134389,0.0177138
0.111091,0.302272,-2.60182,-0.356726,0.121821,0.0256776,0.0710129,-0.00467783,0.0365157
0.112697,0.295384,-2.59964,-0.34935,0.0851415,0.105584,0.0665608,-0.00422636,0.0676107
0.112367,0.288848,-2.59558,-0.358579,-0.00847133,0.210191,0.0714085,-0.00813565,0.094251
0.109162,0.281583,-2.58928,-0.437358,-0.131721,0.307027,0.0568595,-0.0213484,0.117939
0.104131,0.272995,-2.58158,-0.484586,-0.146731,0.322733,0.0301247,-0.0702266,0.0836517
0.0993892,0.264107,-2.57443,-0.465124,-0.152577,0.271115,0.00263402,-0.118942,0.0269073
0.0939631,0.25542,-2.56824,-0.474972,-0.241575,0.242814,0.0202572,-0.147159,-0.00291276
0.0867732,0.245509,-2.5625,-0.568717,-0.336684,0.2266,0.0471904,-0.174889,-0.0342766
0.0777339,0.234032,-2.55696,-0.600902,-0.455856,0.218226,0.0730818,-0.208681,-0.122834
0.0666209,0.223317,-2.55191,-0.492917,-0.521853,0.199826,0.074974,-0.222626,-0.277605
0.0553412,0.215332,-2.5469,-0.326126,-0.472069,0.245982,0.0886951,-0.226422,-0.434533
0.047195,0.211041,-2.54147,-0.144034,-0.204317,0.248481,0.0433315,-0.193736,-0.557287
0.0446771,0.209303,-2.53661,-0.0812569,0.0230629,0.227688,-0.0186479,-0.131699,-0.568165
0.0444409,0.206866,-2.53223,-0.206758,-0.00279824,0.182594,-0.0589363,-0.0804948,-0.489023
0.0419047,0.201363,-2.52931,-0.331301,-0.19149,0.067789,-0.0994261,-0.0899121,-0.448906
0.0367814,0.195971,-2.52937,-0.156043,-0.298116,-0.0942165,-0.110822,-0.116652,-0.524138
0.0328608,0.196445,-2.53287,0.223571,-0.111293,-0.238579,-0.0796932,-0.0980137,-0.577853
0.0356066,0.203874,-2.53882,0.511566,0.266936,-0.315835,-0.0450548,-0.06551,-0.493362
0.0452933,0.21535,-2.54636,0.652769,0.521904,-0.376836,-0.0432097,-0.0142927,-0.301978
0.0583858,0.228781,-2.55527,0.728178,0.556182,-0.415296,-0.0386896,0.0489954,-0.127722
0.0699591,0.242873,-2.56454,0.731825,0.360196,-0.385965,-0.0553078,0.141386,0.0200346
0.0765963,0.256696,-2.57296,0.721225,0.113342,-0.332955,-0.0860076,0.210932,0.0978974
0.0792282,0.27069,-2.58071,0.733826,-0.0223792,-0.310397,-0.126663,0.250887,0.109505
0.0808042,0.284297,-2.58796,0.665849,-0.0196285,-0.26915,-0.132332,0.269664,0.148271
0.0817658,0.295946,-2.5938,0.547025,-0.0357232,-0.204268,-0.111205,0.251743,0.215065
0.0825447,0.305714,-2.59888,0.485184,-0.0391559,-0.207807,-0.108444,0.188456,0.254981
0.083698,0.315038,-2.60443,0.498267,-0.0224011,-0.247281,-0.112292,0.145302,0.280311
0.0849807,0.3245,-2.61104,0.498482,-0.0615216,-0.301371,-0.105015,0.112444,0.319909
0.0860607,0.333657,-2.61916,0.477661,-0.0887461,-0.392351,-0.106986,0.0869301,0.367029
0.0874632,0.342008,-2.6291,0.435107,-0.0894385,-0.459267,-0.0789204,0.078391,0.399801
0.0893875,0.349169,-2.63963,0.355514,-0.0980029,-0.45639,-0.0397382,0.100219,0.434334
0.0897003,0.354136,-2.64922,0.206941,-0.199817,-0.390097,0.00185512,0.116921,0.466769
0.0870929,0.355795,-2.65667,0.018075,-0.326439,-0.296149,0.0261461,0.115013,0.44929
0.0823102,0.354167,-2.66231,-0.13682,-0.341331,-0.251138,0.0352359,0.086738,0.362052
0.0770642,0.349467,-2.66689,-0.292724,-0.340354,-0.210408,0.0368727,0.0708518,0.276229
0.0717795,0.342809,-2.66992,-0.333821,-0.303395,-0.110037,0.0535183,0.0557842,0.174329
0.0650379,0.336817,-2.67026,-0.25363,-0.382193,0.0291414,0.0688172,0.0532478,0.0967384
0.0650379,0.336817,-2.67026,-0.25363,-0.382193,0.0291414,0.0688172,0.0532478,0.0967384
0.0559448,0.332641,-2.66838,-0.185783,-0.466378,0.11256,0.0603239,0.0191521,0.0442905
0.0458239,0.328984,-2.66554,-0.209267,-0.43501,0.12208,0.0378865,-0.0304951,0.00961721
0.037929,0.323928,-2.6636,-0.311374,-0.279726,0.0253057,-0.0178204,-0.0672973,-0.025025
0.0344736,0.31668,-2.6642,-0.407563,-0.0979484,-0.112854,-0.0393142,-0.106158,-0.0537233
0.0349904,0.308593,-2.66766,-0.365153,0.0304461,-0.229945,-0.0322932,-0.12513,-0.0846866
0.0376968,0.302556,-2.67272,-0.216911,0.0783964,-0.26249,0.0104259,-0.112684,-0.0996737
0.0410312,0.299382,-2.67774,-0.0952123,0.105427,-0.222069,0.0542497,-0.100715,-0.0846987
0.044397,0.297735,-2.68157,-0.0700786,0.115421,-0.144407,0.0798389,-0.0928296,-0.0562299
0.0474291,0.296141,-2.68365,-0.0851814,0.128089,-0.0684599,0.09572,-0.0992515,-0.0500531
0.0506416,0.294354,-2.6846,-0.0856177,0.171964,-0.0292194,0.0773049,-0.114312,-0.0833912
0.0541768,0.292865,-2.68444,-0.0671379,0.173032,0.0434587,0.0912065,-0.117554,-0.121926
0.0569055,0.291893,-2.68256,-0.0465937,0.153345,0.126368,0.0923815,-0.114792,-0.158504
0.0582799,0.291488,-2.67956,-0.0098842,0.062921,0.144721,0.0474815,-0.11373,-0.205064
0.0574993,0.291341,-2.67687,-0.0366279,-0.0565343,0.116745,0.0164872,-0.0963235,-0.244941
0.0564013,0.289873,-2.67449,-0.134039,0.0231197,0.106992,-0.009937,-0.0754668,-0.298981
0.0581016,0.28629,-2.67237,-0.239158,0.221466,0.0737438,-0.0170701,-0.0740961,-0.331993
0.0632464,0.2807,-2.67063,-0.302075,0.322526,0.072093,-0.000595734,-0.0568649,-0.321516
0.0692964,0.275491,-2.66826,-0.230012,0.299372,0.133247,0.0434316,-0.0306539,-0.30491
0.0719713,0.272324,-2.66387,-0.108641,0.0937398,0.273188,0.0934453,-0.00797647,-0.258751
0.0707599,0.272477,-2.65647,0.0938275,0.0128872,0.446015,0.103691,0.0228107,-0.241863
0.0689404,0.278264,-2.64581,0.408409,0.111391,0.612192,0.0755486,0.0519543,-0.232141
0.0687641,0.289404,-2.63272,0.591399,0.24037,0.708438,0.0330549,0.0782737,-0.126462
0.0709101,0.302225,-2.61932,0.560435,0.357355,0.630719,-0.03848,0.0666419,0.0141672
0.0749342,0.31196,-2.60879,0.321396,0.337717,0.441163,-0.107826,0.0622041,0.142407
0.078366,0.316225,-2.60209,0.0688341,0.20523,0.233332,-0.133669,0.0708687,0.198506
0.0800175,0.316327,-2.59887,-0.0642875,0.0847614,0.0886102,-0.105095,0.110776,0.17798
0.080802,0.314778,-2.59734,-0.0922041,0.0472083,0.0611724,-0.0476192,0.149998,0.122461
0.0808221,0.313571,-2.59539,-0.0378798,0.0167146,0.130486,0.00762948,0.165147,0.0894753
0.07945,0.313779,-2.5913,0.0348995,-0.0244266,0.264504,0.0438935,0.173356,0.0781325
0.0770576,0.315912,-2.58467,0.134053,0.00400537,0.36742,0.0543,0.149612,0.0748748
0.0757847,0.320339,-2.57703,0.260641,0.118336,0.380615,0.0154044,0.114632,0.0708094
0.0768209,0.32709,-2.56986,0.349602,0.200162,0.349283,-0.0104207,0.0891107,0.103856
0.0790481,0.334681,-2.56343,0.350904,0.219146,0.320186,-0.00913953,0.0776285,0.175102
0.0814209,0.341823,-2.55744,0.313843,0.226263,0.304009,-0.00027062,0.0799102,0.223173
0.0838545,0.348089,-2.55139,0.265129,0.203931,0.314031,0.00445777,0.0843426,0.24608
0.0849281,0.35327,-2.54544,0.20275,0.0963834,0.290233,0.00786029,0.0779468,0.265996
0.0831155,0.357023,-2.53975,0.119696,-0.0858226,0.281044,0.0199325,0.0630483,0.274634
0.0781744,0.358851,-2.53379,0.0170085,-0.16822,0.298836,0.0414579,0.0567957,0.247345
0.0724742,0.358678,-2.52713,-0.0806999,-0.176207,0.319925,0.0390394,0.049767,0.191426
0.0666398,0.356983,-2.52008,-0.122073,-0.15765,0.327857,0.0380105,0.035408,0.12851
0.0608024,0.355027,-2.51259,-0.12193,-0.177425,0.367419,0.0491036,0.0235949,0.0822364
0.0543208,0.352919,-2.50414,-0.140254,-0.166172,0.414199,0.0487225,0.00829697,0.0559718
0.0480519,0.350229,-2.49492,-0.179052,-0.161844,0.428891,0.0282772,-0.0236473,0.0451588
0.0422473,0.346632,-2.48621,-0.216606,-0.116833,0.3688,-0.00387983,-0.0628402,0.0332651
0.0385607,0.342204,-2.4794,-0.25317,-0.0109811,0.256007,-0.0208129,-0.0977401,0.0158259
0.0373949,0.337273,-2.47479,-0.251228,0.0469371,0.162216,-0.0177323,-0.101596,0.0159838
0.037088,0.332528,-2.4718,-0.233974,-0.00639189,0.116636,0.00676073,-0.0935799,0.0330558
0.0351465,0.328313,-2.46918,-0.204169,-0.103469,0.115617,0.0339525,-0.0741448,0.0473825
0.0320102,0.324326,-2.46671,-0.21756,-0.114001,0.106306,0.04138,-0.0740456,0.0432206
0.0292158,0.319567,-2.46434,-0.265375,-0.0904235,0.106461,0.0491105,-0.0754626,0.0268168
0.0269589,0.314235,-2.4618,-0.264225,-0.0592661,0.124382,0.0676108,-0.0840998,-0.00773215
0.0247854,0.309279,-2.45856,-0.244005,-0.0727092,0.180753,0.0995619,-0.0927529,-0.0416207
0.021029,0.304539,-2.4539,-0.243603,-0.173312,0.251137,0.117696,-0.104215,-0.0687933
0.0149614,0.300333,-2.44801,-0.174812,-0.243696,0.295199,0.110053,-0.126312,-0.145256
0.0149614,0.300333,-2.44801,-0.174812,-0.243696,0.295199,0.110053,-0.126312,-0.145256
0.00803259,0.297851,-2.44169,-0.0952991,-0.264539,0.299637,0.0814172,-0.133215,-0.223612
0.000883609,0.296152,-2.43538,-0.0928224,-0.259267,0.310611,0.0625856,-0.125135,-0.26294
-0.00602549,0.293474,-2.42888,-0.19513,-0.277521,0.313381,0.0391998,-0.108121,-0.281283
-0.0137783,0.28817,-2.42259,-0.331065,-0.335632,0.297073,0.000941664,-0.0933194,-0.310384
-0.0229382,0.280673,-2.41679,-0.400978,-0.424229,0.273432,-0.024516,-0.0806484,-0.358018
-0.0325723,0.27279,-2.41216,-0.363055,-0.372884,0.175792,-0.0631659,-0.0801286,-0.416532
-0.0377013,0.266353,-2.41076,-0.276056,-0.0871891,-0.024727,-0.129485,-0.0709073,-0.458434
-0.0356202,0.261972,-2.41336,-0.166427,0.218404,-0.187071,-0.148067,-0.0243393,-0.427035
-0.027898,0.260143,-2.41755,-0.0192068,0.432941,-0.192055,-0.0826634,0.0393232,-0.323802
-0.0172534,0.261678,-2.42085,0.162809,0.521212,-0.127249,-0.0517857,0.0985453,-0.192329
-0.00682269,0.266449,-2.42276,0.308709,0.451385,-0.0606583,-0.058741,0.13611,-0.0565659
0.000306551,0.273527,-2.42353,0.386166,0.226215,-0.0175563,-0.0787864,0.161059,0.0573218
0.0019807,0.281238,-2.4233,0.379267,-0.040669,0.0406605,-0.107097,0.179751,0.125613
-0.00046899,0.28838,-2.42246,0.340539,-0.153704,0.0229999,-0.166314,0.179785,0.131954
-0.00283253,0.29489,-2.42318,0.301145,-0.0895742,-0.102576,-0.215918,0.151611,0.114683
-0.00317982,0.299706,-2.42673,0.168061,-0.0562064,-0.244128,-0.201338,0.114637,0.150777
-0.00226661,0.301594,-2.43319,0.0293152,-0.0423748,-0.364025,-0.141085,0.0704042,0.187085
-0.00043242,0.301602,-2.44132,-0.00463558,-0.0191729,-0.398941,-0.061843,0.0513229,0.178784
0.0016985,0.302408,-2.44929,0.101504,-0.00582296,-0.356799,0.00689293,0.0483231,0.158738
0.00390735,0.305824,-2.45625,0.239822,0.0310911,-0.308365,0.0270051,0.0528029,0.158136
0.00772516,0.311373,-2.46275,0.295258,0.178481,-0.329667,0.00337327,0.0522766,0.17091
0.0163717,0.316452,-2.47063,0.220804,0.444919,-0.404163,-0.0351962,0.0517824,0.201347
0.02592,0.324776,-2.48054,0.549841,-0.0185631,-0.485628,-0.00503099,0.103062,0.262925
0.0250562,0.33398,-2.4895,0.341685,-0.228241,-0.325554,0.0906648,0.0970314,0.335165
0.0232332,0.337283,-2.49537,0.00998118,-0.0397691,-0.258333,0.0176285,0.101508,0.290708
0.0290216,0.334889,-2.50095,-0.224587,0.392117,-0.265991,0.00755229,0.0647791,0.205661
0.0386619,0.329647,-2.50613,-0.241693,0.323068,-0.208742,0.0524486,0.0686276,0.198593
0.0413126,0.325365,-2.50754,-0.19814,-0.163815,0.067023,0.128347,0.0677172,0.214655
