attitude_roll,attitude_pitch,attitude_yaw,rotationRate_x,rotationRate_y,rotationRate_z,acceleration_x,acceleration_y,acceleration_z
0.028827,0.242989,-0.642104,-0.36688,-0.072879,1.3292,0.155404,-0.0260578,-0.133052
0.028827,0.242989,-0.642104,-0.36688,-0.072879,1.3292,0.155404,-0.0260578,-0.133052
0.0217687,0.234498,-0.614579,-0.497217,0.0565277,1.32133,0.152931,0.0146578,-0.117931
0.0189025,0.225973,-0.586417,-0.379794,0.307448,1.41113,0.160778,0.0792486,-0.118768
0.0209883,0.220799,-0.555046,-0.193951,0.589751,1.64442,0.186127,0.113037,-0.0865344
0.0274194,0.219557,-0.517967,-0.0204241,0.850253,1.94714,0.210379,0.101938,-0.0181625
0.0372498,0.221731,-0.475461,0.0844704,1.01675,2.16411,0.245195,0.0902498,0.0809816
0.0464313,0.22505,-0.429837,0.0288473,0.862349,2.25865,0.273283,0.079417,0.115471
0.0491916,0.225822,-0.382887,-0.195664,0.405421,2.28092,0.29485,0.0639646,0.0948915
0.0410741,0.221562,-0.335649,-0.419839,-0.144392,2.27149,0.308818,0.0526855,0.0289012
0.0254581,0.214113,-0.289053,-0.437764,-0.335173,2.2195,0.289503,0.0807669,-0.0108528
0.0104699,0.207319,-0.244065,-0.290793,-0.178747,2.15033,0.258813,0.130168,-0.0530072
0.00143961,0.203985,-0.200366,-0.0665274,0.164843,2.10692,0.228494,0.152616,-0.0835848
-0.00144904,0.204597,-0.157518,0.122829,0.388235,2.07079,0.215683,0.15613,-0.124267
-0.000483518,0.208694,-0.115652,0.276769,0.558971,1.99374,0.201263,0.129698,-0.11766
0.00361468,0.21518,-0.0762435,0.351886,0.667765,1.83366,0.181955,0.116005,-0.094678
0.0105502,0.222783,-0.0408884,0.367965,0.791808,1.59682,0.161998,0.0965856,-0.0538512
0.0209033,0.230148,-0.0109794,0.30914,0.886317,1.31614,0.139668,0.103473,-0.0110162
0.0326122,0.236035,0.0138091,0.215066,0.828674,1.11302,0.111913,0.104302,0.00927722
0.0431411,0.240205,0.0353207,0.114328,0.723811,0.992959,0.0834615,0.104982,0.0348692
0.051939,0.241914,0.0550268,-0.043415,0.614626,0.926891,0.051418,0.0973796,0.0554333
0.0587853,0.240122,0.0738318,-0.238078,0.520402,0.871732,0.0166799,0.0801827,0.0699729
0.0648352,0.234396,0.0912992,-0.428635,0.499584,0.777382,0.00155708,0.0691236,0.0821683
0.0713129,0.225422,0.107279,-0.554264,0.502548,0.715818,-0.00215854,0.0492475,0.086648
0.0777693,0.215083,0.12276,-0.559446,0.480265,0.711295,0.00802247,0.0281712,0.0740578
0.0840467,0.205926,0.138332,-0.467009,0.449486,0.733178,0.0290166,0.0108705,0.08174
0.0884028,0.199248,0.154815,-0.334778,0.304907,0.817485,0.0554268,-0.0252279,0.0664454
0.0892668,0.195117,0.172954,-0.243795,0.131981,0.902347,0.0711583,-0.0588499,0.0589976
0.0872143,0.192326,0.19206,-0.205397,0.0513456,0.922015,0.0667697,-0.0838362,0.0496243
0.0846609,0.189747,0.210954,-0.2115,0.0506826,0.88674,0.0666008,-0.103305,0.0383949
0.0817591,0.186435,0.228801,-0.261245,-0.0141417,0.82489,0.0785911,-0.119544,-0.00933504
0.0769491,0.182274,0.245655,-0.27527,-0.187716,0.790046,0.0885543,-0.136879,-0.0882322
0.0672365,0.178522,0.261897,-0.190881,-0.477869,0.76828,0.0879499,-0.12905,-0.214024
0.0528393,0.177816,0.277151,0.0517749,-0.661165,0.71501,0.0784501,-0.102874,-0.296743
0.0369032,0.181835,0.290847,0.234535,-0.648591,0.630021,0.0728137,-0.085157,-0.327581
0.0232988,0.184845,0.302192,-0.0396789,-0.458169,0.492172,0.0507086,-0.0637343,-0.329039
0.0158765,0.178329,0.311305,-0.65043,-0.156826,0.394112,-0.00530913,-0.0372447,-0.303306
0.0123852,0.159803,0.319052,-1.15286,-0.0690731,0.342033,-0.0488025,0.0431415,-0.349746
0.0103699,0.135867,0.326163,-1.12839,-0.0256303,0.34782,-0.0524342,0.114041,-0.355247
0.00939082,0.119013,0.333789,-0.498459,0.00926813,0.375137,-0.0608379,0.158985,-0.307365
0.00796711,0.116212,0.340146,0.167181,-0.117443,0.214211,-0.0897462,0.214004,-0.235765
0.00332021,0.123111,0.341825,0.454093,-0.315624,-0.0349635,-0.106506,0.224591,-0.159368
-0.00308749,0.132556,0.339756,0.454476,-0.294987,-0.142719,-0.124885,0.207104,-0.0643805
-0.00544624,0.140605,0.337422,0.334292,0.0667628,-0.0660098,-0.145456,0.205664,0.0359388
9.65383e-05,0.146168,0.337967,0.217607,0.467877,0.123913,-0.144245,0.19057,0.109927
0.0110948,0.149938,0.342316,0.167805,0.663687,0.291217,-0.135085,0.171762,0.157436
0.0233382,0.15358,0.348845,0.183789,0.608387,0.334983,-0.116811,0.145943,0.204818
0.0321327,0.157615,0.354706,0.187954,0.328722,0.230703,-0.0943968,0.116802,0.227405
0.0346472,0.160853,0.35733,0.105234,-0.0449729,0.02858,-0.072279,0.0954329,0.241854
0.0300143,0.161526,0.355831,-0.0252381,-0.419469,-0.158919,-0.044466,0.0736358,0.217541
0.0209394,0.160428,0.351473,-0.0607079,-0.505246,-0.25853,-0.0339442,0.0655022,0.213414
0.0123353,0.159564,0.346119,0.00795691,-0.422399,-0.247623,-0.0333728,0.0658551,0.171426
0.0123353,0.159564,0.346119,0.00795691,-0.422399,-0.247623,-0.0333728,0.0658551,0.171426
0.00647039,0.161518,0.341662,0.195528,-0.207005,-0.192801,-0.0367511,0.0720567,0.142573
0.00569925,0.167135,0.337844,0.345217,0.0531853,-0.187449,-0.0370987,0.0709145,0.147564
0.00861759,0.174498,0.333885,0.371773,0.135656,-0.19664,-0.0235013,0.0380239,0.151419
0.0119772,0.181325,0.329575,0.305663,0.132316,-0.225512,-0.0125893,0.00999933,0.166427
0.0155586,0.186164,0.324377,0.16534,0.108884,-0.281519,-0.00451649,-0.00646824,0.187726
0.0177952,0.187758,0.318045,0.011607,0.00068562,-0.324818,0.0148976,-0.0275457,0.164109
0.0184898,0.186932,0.311427,-0.0683547,-0.0515409,-0.317643,0.0112065,-0.0336832,0.151799
0.0180888,0.185293,0.305239,-0.0760491,-0.109039,-0.289478,0.000181369,-0.0301212,0.128977
0.0162059,0.183934,0.299588,-0.0434433,-0.173704,-0.263138,-0.00131389,-0.0354694,0.107514
0.0136914,0.183577,0.294307,0.0106026,-0.160118,-0.252394,-0.00685386,-0.0323875,0.114773
0.0115616,0.183677,0.289382,-0.0152483,-0.143262,-0.21813,-0.0132894,-0.0373859,0.103856
0.00953409,0.182165,0.285883,-0.146128,-0.12354,-0.124759,-0.0216138,-0.0760586,0.0550187
0.00718936,0.177434,0.28416,-0.32296,-0.161167,-0.0557873,-0.0209925,-0.110132,-0.0221953
0.00268189,0.16945,0.283271,-0.454047,-0.299503,-0.0344442,-0.0164527,-0.113769,-0.136656
-0.00405802,0.160475,0.283518,-0.402979,-0.356221,0.0794133,-0.0183635,-0.11745,-0.220071
-0.0111717,0.154721,0.287096,-0.144996,-0.265813,0.271695,-0.0157564,-0.150354,-0.276549
-0.016007,0.154519,0.293782,0.0944773,-0.13249,0.363677,-0.00727097,-0.15652,-0.292177
-0.0196474,0.156134,0.301343,0.0167333,-0.123579,0.375256,0.00823772,-0.177858,-0.311336
-0.0258034,0.151862,0.308666,-0.483593,-0.434175,0.34331,0.0177368,-0.198498,-0.379514
-0.0380224,0.136105,0.313671,-1.01877,-0.634174,0.185078,0.0217926,-0.146999,-0.433441
-0.0484204,0.11536,0.315158,-0.908131,-0.299576,0.0843883,-0.0107886,-0.00830834,-0.393599
-0.0474992,0.104323,0.317538,-0.111739,0.421276,0.251847,-0.0184964,0.0933617,-0.239438
-0.0357111,0.110615,0.326415,0.717669,0.752689,0.597895,0.0470362,0.0740741,-0.0969705
-0.0240694,0.127941,0.341478,0.926932,0.515694,0.807646,0.119009,0.0252517,-0.0094524
-0.020513,0.142839,0.358521,0.53214,0.0630741,0.809852,0.139596,-0.0297192,0.0458515
-0.0249208,0.147839,0.373549,0.0067816,-0.248552,0.629121,0.133289,-0.0466988,0.081619
-0.032349,0.144083,0.383304,-0.298151,-0.310049,0.338977,0.128978,0.00122014,0.068405
-0.0378703,0.13806,0.387638,-0.232147,-0.137693,0.135033,0.119425,0.0581849,0.0400676
-0.0381235,0.136204,0.389895,0.0719861,0.143695,0.123255,0.11993,0.101741,0.0285471
-0.0328897,0.14071,0.39387,0.365337,0.414788,0.271592,0.118618,0.109469,0.0551025
-0.0242153,0.149497,0.401737,0.499403,0.543878,0.476547,0.122286,0.0988307,0.0937046
-0.014839,0.159473,0.413226,0.499537,0.55245,0.611892,0.110201,0.0760038,0.148823
-0.00594894,0.169099,0.426087,0.468874,0.539456,0.620679,0.0960893,0.0587366,0.213502
0.00219987,0.177984,0.438002,0.415927,0.465313,0.538667,0.0773332,0.0471785,0.241372
0.0089953,0.186044,0.447917,0.377713,0.391343,0.436453,0.0582377,0.0322623,0.26934
0.0143619,0.192821,0.455696,0.278706,0.283947,0.332128,0.0464058,0.0219507,0.269651
0.0181627,0.19739,0.46134,0.15798,0.215439,0.228908,0.0385417,0.0168961,0.263593
0.0213918,0.199168,0.465125,0.00956153,0.183061,0.150803,0.0376875,0.0126126,0.242504
0.0242128,0.197735,0.467801,-0.160573,0.147404,0.112578,0.0355417,0.00395924,0.200182
0.0261651,0.193157,0.469989,-0.283222,0.0910554,0.0927289,0.0456593,-0.000866607,0.150485
0.0279251,0.187299,0.472161,-0.28676,0.155215,0.104242,0.0422232,0.0123319,0.107616
0.0315821,0.181918,0.474922,-0.258565,0.237907,0.158935,0.0409962,0.0156021,0.0798404
0.0356508,0.177,0.479396,-0.241457,0.234203,0.276408,0.0531247,-0.00605157,0.0481124
0.0390855,0.172961,0.486605,-0.188183,0.247283,0.408296,0.047979,-0.0278969,0.0297831
0.0423347,0.169521,0.495866,-0.206498,0.211966,0.476616,0.0481741,-0.0470341,0.00661796
0.0438044,0.165161,0.506251,-0.273104,0.097293,0.521083,0.0428499,-0.0730613,-0.0432256
0.0421102,0.159587,0.517474,-0.316176,-0.105985,0.558746,0.031191,-0.0833377,-0.126146
0.0357169,0.153996,0.529113,-0.265756,-0.323369,0.549529,0.0154182,-0.0803156,-0.234357
0.0260289,0.150498,0.539502,-0.0944388,-0.491277,0.446419,-0.0450951,-0.0258353,-0.31303
0.0137666,0.151042,0.546644,0.133739,-0.598788,0.237028,-0.157195,0.045366,-0.355839
0.0137666,0.151042,0.546644,0.133739,-0.598788,0.237028,-0.157195,0.045366,-0.355839
0.00171705,0.15489,0.548039,0.202578,-0.55435,-0.129427,-0.246966,0.078969,-0.318263
-0.00584383,0.156746,0.539704,-0.0887115,-0.319548,-0.712801,-0.265209,0.0870592,-0.215279
-0.00820854,0.148805,0.518614,-0.739446,-0.303188,-1.33746,-0.208343,0.0779897,-0.185736
-0.0115514,0.129107,0.487085,-1.1743,-0.45558,-1.68721,-0.149663,0.0950727,-0.200909
-0.0173615,0.106282,0.452443,-1.0652,-0.501568,-1.65045,-0.130091,0.114932,-0.179834
-0.0244253,0.0899708,0.421205,-0.586982,-0.492443,-1.38505,-0.0748275,0.118399,-0.160439
-0.0312791,0.0844012,0.396419,-0.0372809,-0.37276,-1.05201,-0.0166889,0.103115,-0.0908238
-0.0345379,0.0886021,0.378573,0.341973,-0.0928121,-0.736424,0.0165733,0.0682836,0.00733948
-0.0318878,0.0959176,0.366767,0.26614,0.234295,-0.459725,0.025022,0.0328129,0.0717407
-0.0245633,0.0976899,0.360211,-0.127239,0.41807,-0.200264,-0.00216761,0.00244191,0.0809305
-0.0144471,0.0917619,0.358096,-0.425542,0.5503,-0.0239675,-0.0201753,-0.0116077,0.0950694
-0.00363514,0.0827372,0.358094,-0.430705,0.498945,0.0156699,-0.00466283,-0.00019709,0.0630247
0.00514032,0.0761634,0.358289,-0.193489,0.357293,-0.00365602,-0.000990268,-0.00192834,0.0508903
0.0102901,0.0755177,0.357792,0.12696,0.152095,-0.0498611,-0.00934511,0.00252426,0.0522577
0.0113816,0.0808403,0.356023,0.382715,-0.0582304,-0.117398,-0.00678181,0.00810528,0.0847739
0.00906151,0.0899775,0.352987,0.507298,-0.18157,-0.170191,-0.00806343,-0.000307962,0.139011
0.00532586,0.100257,0.349193,0.498702,-0.201888,-0.196962,-0.00169802,-0.0180446,0.191482
0.00272637,0.109416,0.34497,0.405202,-0.0907001,-0.218145,-0.00162669,-0.0325866,0.245954
0.00230493,0.116084,0.340258,0.258055,-0.0237727,-0.251916,-0.00318969,-0.0461487,0.259319
0.00220122,0.120032,0.334511,0.156254,-0.0512597,-0.317916,0.0095944,-0.0578229,0.226842
0.00156835,0.123036,0.32722,0.155357,-0.120031,-0.398307,0.0272674,-0.0572367,0.206658
-0.00120293,0.126657,0.318747,0.211489,-0.247692,-0.424248,0.0475953,-0.0535825,0.156402
-0.00525655,0.131682,0.310559,0.266591,-0.256326,-0.380327,0.0454942,-0.0563968,0.155666
-0.00981287,0.136676,0.303634,0.21363,-0.289103,-0.302705,0.0424971,-0.0625249,0.13467
-0.0145563,0.14006,0.298442,0.105245,-0.242217,-0.210341,0.043115,-0.0838622,0.126913
-0.0181939,0.140732,0.295205,-0.0488067,-0.172874,-0.111092,0.032219,-0.101386,0.110799
-0.0212724,0.138243,0.293705,-0.193005,-0.163915,-0.0335101,0.0198166,-0.115783,0.0778058
-0.0242915,0.133632,0.293185,-0.258604,-0.137359,-0.0143118,0.0142001,-0.127416,0.0492334
-0.0266774,0.128097,0.292578,-0.28547,-0.119122,-0.0282588,0.0042084,-0.123291,0.0137013
-0.0290715,0.122505,0.291921,-0.269741,-0.123334,-0.0193879,-0.0126849,-0.12861,-0.0377752
-0.0323496,0.117093,0.29148,-0.265432,-0.237407,-0.00528623,-0.00819121,-0.140162,-0.124387
-0.0383783,0.112537,0.291378,-0.172863,-0.331298,0.00430797,-0.0149286,-0.144186,-0.217613
-0.0434567,0.110725,0.29112,0.00512054,-0.125405,-0.0208992,-0.014547,-0.126851,-0.25662
-0.0427258,0.112497,0.290718,0.129949,0.153676,-0.0303231,-0.00498154,-0.124175,-0.243983
-0.0391818,0.114006,0.289738,-0.0171702,0.148275,-0.0810466,-0.0219956,-0.0445807,-0.247367
-0.0374226,0.110968,0.287009,-0.311016,0.000463901,-0.186017,-0.0519276,0.0448074,-0.247233
-0.0378959,0.101723,0.28208,-0.615358,-0.115968,-0.238038,-0.0326063,0.131028,-0.232477
-0.0413398,0.0885888,0.278176,-0.63639,-0.232079,-0.0577239,-0.0203422,0.149752,-0.24281
-0.0448323,0.0788806,0.279855,-0.283745,-0.0664817,0.269453,-0.0167082,0.14139,-0.140494
-0.045003,0.0770316,0.288183,0.112006,0.0710147,0.537815,0.0188992,0.102651,-0.0416336
-0.0456681,0.0810199,0.300328,0.288284,-0.0759598,0.608323,0.0771492,0.0454699,0.0164325
-0.0504095,0.0849743,0.311577,0.1002,-0.308455,0.460688,0.120015,0.0235928,0.0661711
-0.0584807,0.0824822,0.318603,-0.324948,-0.396114,0.259849,0.125876,0.0276402,0.0829245
-0.0657579,0.0720992,0.322468,-0.640876,-0.273654,0.215564,0.117786,0.0344086,0.0638651
-0.0690028,0.0592087,0.326885,-0.533042,0.00591743,0.332982,0.119227,0.0393225,0.0382915
-0.0660216,0.0519955,0.335216,-0.106472,0.318558,0.541994,0.105756,0.0479895,0.0482459
-0.0588795,0.0529437,0.347855,0.23805,0.427458,0.685273,0.112611,0.0306564,0.0656703
-0.0511285,0.0580993,0.36234,0.310738,0.409226,0.700224,0.107798,-0.00865998,0.101836
-0.0444302,0.0629746,0.37573,0.222357,0.332083,0.593222,0.0865487,-0.0238437,0.125817
-0.0392457,0.0660329,0.386408,0.130391,0.243444,0.457814,0.0706138,-0.0276735,0.136197
-0.0392457,0.0660329,0.386408,0.130391,0.243444,0.457814,0.0706138,-0.0276735,0.136197
-0.0357347,0.068185,0.394649,0.134848,0.172477,0.363892,0.0595698,-0.0258772,0.117111
-0.0332251,0.0713389,0.401764,0.2041,0.115794,0.337267,0.0394517,-0.017482,0.10033
-0.031362,0.076141,0.408535,0.297559,0.158085,0.317829,0.0186165,-0.0132879,0.0776823
-0.0273985,0.0824101,0.414594,0.319703,0.268891,0.258803,0.00564992,-0.0113873,0.0902721
-0.0219472,0.0880439,0.419371,0.236884,0.301605,0.210053,0.00699839,-0.0205293,0.0910863
-0.0162481,0.0915523,0.423643,0.116622,0.302113,0.214883,0.00986221,-0.0443634,0.0928943
-0.0107373,0.0926899,0.428273,0.015575,0.276033,0.243109,0.00831068,-0.05852,0.0866839
-0.00639058,0.0926108,0.43323,-0.00686504,0.198787,0.237377,0.00640892,-0.0603841,0.0579349
-0.00344844,0.092736,0.437668,0.0255662,0.138832,0.201775,0.0130772,-0.053042,0.035721
-0.00180397,0.0936513,0.441645,0.063496,0.0474698,0.198585,0.0205796,-0.054862,0.00442064
-0.00226565,0.095254,0.445945,0.0977949,-0.0390346,0.22828,0.0320558,-0.0660838,-0.0356027
-0.00368008,0.0973143,0.450778,0.101245,-0.059034,0.245113,0.0285803,-0.0622478,-0.0613481
-0.00624473,0.0990255,0.455719,0.0678091,-0.171721,0.239795,0.0229225,-0.0477427,-0.115606
-0.011845,0.100426,0.46033,0.0880129,-0.32821,0.2128,0.015203,-0.0133752,-0.176815
-0.0192002,0.103138,0.464282,0.195994,-0.341513,0.181048,-0.00678192,0.0549819,-0.171681
-0.0262355,0.107863,0.468548,0.264848,-0.334812,0.254546,-0.0137149,0.0939368,-0.137807
-0.0343472,0.112724,0.47565,0.224024,-0.38959,0.442064,-0.0238609,0.0905432,-0.117681
-0.0431323,0.115654,0.486477,0.0796951,-0.341638,0.590002,-0.0387883,0.0653625,-0.0656639
-0.0511396,0.112792,0.497877,-0.379648,-0.367961,0.510508,-0.0407603,0.0601243,-0.0520412
-0.0614631,0.0968418,0.504588,-1.18973,-0.612228,0.213745,-0.0854545,0.0626025,-0.162418
-0.0761484,0.0668281,0.503053,-1.67476,-0.840015,-0.159534,-0.107155,0.08692,-0.306012
-0.0908476,0.0373023,0.494315,-1.16308,-0.527279,-0.420527,-0.106896,0.157594,-0.338145
-0.0948598,0.0257656,0.484365,-0.06383,0.0383646,-0.417211,-0.0924171,0.178747,-0.25443
-0.0922196,0.0345215,0.478622,0.799346,0.132387,-0.231425,-0.063575,0.118453,-0.146246
-0.0922892,0.0539592,0.476372,1.00435,-0.193029,-0.202563,-0.032808,0.0560083,-0.0828533
-0.0988597,0.0725542,0.47259,0.75423,-0.435703,-0.370829,-0.0473892,0.0101433,0.0264806
-0.106536,0.0846456,0.463699,0.342686,-0.357252,-0.631118,-0.0642732,0.00542774,0.127291
-0.109296,0.0897116,0.449629,0.0402034,-0.00996041,-0.783226,-0.0618775,0.000785232,0.186157
-0.103588,0.0913438,0.433939,-0.0167418,0.432946,-0.754395,-0.0448401,0.00679003,0.233276
-0.0905514,0.0928177,0.420099,0.0280212,0.67343,-0.610576,-0.0208777,0.00352742,0.262414
-0.0771829,0.094642,0.409519,0.0579089,0.512857,-0.454561,0.00852392,-0.0195128,0.254188
-0.0692731,0.0963092,0.401269,0.0440815,0.187638,-0.386152,0.0311162,-0.0321507,0.251173
-0.0678114,0.0973771,0.393539,0.0116173,-0.0858498,-0.387145,0.0267432,-0.0248165,0.24441
-0.0695637,0.0980053,0.385739,-0.00176761,-0.139736,-0.382556,0.00485826,-0.0197052,0.24461
-0.0714071,0.0983255,0.378327,-0.0169607,-0.112157,-0.344212,0.000597782,-0.0156023,0.226307
-0.072437,0.0981916,0.372095,-0.0437909,-0.0460344,-0.264675,-0.00628301,-0.020893,0.2141
-0.0722533,0.0974842,0.367669,-0.0509714,0.0168188,-0.168502,-0.0127928,-0.0216886,0.190699
-0.0707402,0.0970091,0.365051,-0.0133371,0.120438,-0.0957152,-0.0159548,-0.0211849,0.181637
-0.067459,0.0969316,0.363265,-0.0238086,0.168256,-0.0876338,-0.0177628,-0.0316533,0.186203
-0.0644465,0.0958015,0.361067,-0.109439,0.0999966,-0.123217,-0.0129198,-0.0583976,0.171342
-0.0629426,0.0928048,0.35778,-0.203814,0.00967824,-0.182778,-0.00958952,-0.0776774,0.161694
-0.0637144,0.0884231,0.3532,-0.251592,-0.126715,-0.235887,0.00991002,-0.0955757,0.125984
-0.0669229,0.0837264,0.348,-0.242598,-0.232466,-0.240519,0.035938,-0.121495,0.0854529
-0.0729347,0.079593,0.343255,-0.191544,-0.424991,-0.189903,0.0781783,-0.163686,0.021009
-0.0835334,0.0767468,0.339785,-0.119947,-0.663414,-0.131831,0.105163,-0.193531,-0.0467034
-0.0990486,0.0753859,0.337458,-0.0379183,-0.888945,-0.0939337,0.0900762,-0.20621,-0.123176
-0.118283,0.0753562,0.335589,0.01022,-1.00101,-0.0959369,0.0617334,-0.197756,-0.21673
-0.136832,0.0760883,0.333317,0.0274792,-0.798109,-0.142591,0.00626543,-0.155568,-0.273459
-0.147382,0.0768489,0.33019,-0.0103258,-0.230772,-0.160679,-0.0616681,-0.0817045,-0.286069
-0.147382,0.0768489,0.33019,-0.0103258,-0.230772,-0.160679,-0.0616681,-0.0817045,-0.286069
-0.146027,0.0755173,0.327741,-0.185213,0.289577,-0.0385103,-0.097521,-0.0481963,-0.319432
-0.137928,0.0688239,0.328021,-0.470888,0.486875,0.156311,-0.0918993,-0.0336779,-0.382936
-0.128225,0.0562922,0.330606,-0.704941,0.47625,0.232002,-0.0769183,0.00551181,-0.420608
-0.118407,0.0412112,0.332969,-0.720231,0.552119,0.173979,-0.0798916,0.0832528,-0.397555
-0.103751,0.0278948,0.334499,-0.570588,0.965557,0.13785,-0.0595461,0.102614,-0.302822
-0.0789588,0.0176744,0.337114,-0.426889,1.47166,0.245935,-0.0147177,0.0718423,-0.175909
-0.0481277,0.00884379,0.343534,-0.45575,1.50184,0.443307,0.0261041,0.0169461,-0.0990363
-0.0219562,-0.00293311,0.353087,-0.703645,1.05181,0.506707,0.0403717,-0.0263706,-0.0830395
-0.00689016,-0.0188839,0.361517,-0.825359,0.443462,0.311918,0.0733562,-0.0169296,-0.083103
-0.0024945,-0.0339645,0.364298,-0.620726,0.0476651,-0.0234679,0.0769102,0.0411306,-0.0593567
-0.00259202,-0.041653,0.361513,-0.121353,-0.00211777,-0.221143,0.0614734,0.0527499,0.0165243
-0.00142859,-0.038384,0.356907,0.431311,0.15209,-0.204728,0.0743493,0.0403608,0.112025
0.00368428,-0.0253992,0.354783,0.809071,0.340588,0.0240409,0.0854435,0.0243167,0.233237
0.0101734,-0.00830648,0.358464,0.826479,0.242603,0.353764,0.10053,-0.00392706,0.267782
0.0116496,0.00658596,0.368327,0.645483,-0.122218,0.627048,0.148095,-0.0268918,0.226046
0.00470632,0.0197756,0.382598,0.717945,-0.532032,0.785748,0.196955,-0.00547898,0.176353
-0.00804174,0.0385485,0.399428,1.20315,-0.61762,0.880231,0.182886,0.059474,0.187823
-0.0189635,0.0684753,0.41874,1.78459,-0.338003,1.00622,0.130032,0.0944076,0.253352
-0.0244556,0.107079,0.441361,2.00911,-0.0425459,1.13743,0.0908719,0.0660419,0.278063
-0.027659,0.144473,0.466058,1.69505,0.00598877,1.17691,0.0690086,0.0170179,0.240882
-0.0317204,0.171614,0.48993,1.04202,-0.0389492,1.0685,0.0493767,-0.0156897,0.220716
-0.0360292,0.185228,0.51041,0.406248,-0.00879449,0.881881,0.0094348,-0.0327174,0.214999
-0.0384462,0.188444,0.526244,0.0114013,0.062366,0.644239,-0.0211885,-0.0256207,0.175083
-0.0387164,0.186611,0.536632,-0.107329,0.129389,0.380176,-0.0481927,0.00434683,0.0955498
-0.0350039,0.185038,0.542262,-0.015597,0.332447,0.192858,-0.0539185,0.0247127,0.084088
-0.0284816,0.185368,0.545401,0.0536322,0.351782,0.14235,-0.0422921,0.0285318,0.0108969
-0.0214381,0.186766,0.54935,0.0838387,0.447246,0.25678,-0.035165,0.0126779,-0.00373036
-0.0130043,0.187213,0.555911,-0.0545308,0.465448,0.37266,-0.0306192,0.00283255,-0.0277186
-0.00701168,0.184199,0.564188,-0.215385,0.268056,0.431266,-0.00159087,-0.0273204,-0.120121
-0.00541527,0.179356,0.573073,-0.245675,0.0265552,0.426439,-0.00118712,-0.0161234,-0.221729
-0.0104144,0.174253,0.581068,-0.240327,-0.393434,0.35312,4.84213e-05,0.0119647,-0.384673
-0.021308,0.171193,0.587524,-0.0136605,-0.490366,0.292083,-0.00441097,0.0206849,-0.447443
-0.0305546,0.173662,0.593141,0.242023,-0.348092,0.236783,0.0107574,0.0149838,-0.420363
-0.0379485,0.17825,0.596701,0.159305,-0.361112,0.075907,0.0535431,0.0140235,-0.387586
-0.0469489,0.177969,0.595988,-0.208452,-0.559894,-0.139163,0.0747549,0.0348345,-0.356815
-0.0589327,0.17164,0.591478,-0.387293,-0.682691,-0.244915,0.0197031,0.0999979,-0.296724
-0.0704059,0.165912,0.586586,-0.152413,-0.476916,-0.161704,-0.0472565,0.12931,-0.179826
-0.0748434,0.16758,0.585516,0.305624,0.0312787,0.0487348,-0.106541,0.10921,-0.0313411
-0.0703176,0.176865,0.588685,0.57373,0.410276,0.173176,-0.127705,0.0769763,0.0876955
-0.0620811,0.187996,0.592908,0.504468,0.423832,0.146904,-0.112102,0.0350501,0.155751
-0.0562109,0.19525,0.595107,0.20176,0.185582,0.0089805,-0.111451,0.00616129,0.208957
-0.0547103,0.195472,0.593132,-0.190608,-0.0656859,-0.218905,-0.124352,0.00932372,0.250545
-0.0562469,0.188704,0.585465,-0.499955,-0.215129,-0.49145,-0.12961,0.0447487,0.270932
-0.0588517,0.177741,0.572626,-0.619074,-0.264515,-0.67558,-0.105027,0.0790589,0.254758
-0.0609243,0.167805,0.558235,-0.398804,-0.158017,-0.633513,-0.0591703,0.0767939,0.235742
-0.0602778,0.164208,0.547188,-0.029969,0.0222847,-0.410287,-0.0270101,0.0659368,0.266006
-0.0587032,0.16625,0.541737,0.158167,0.017592,-0.144696,-0.00817947,0.042805,0.258699
-0.0594382,0.169344,0.540909,0.114605,-0.111491,0.0197826,0.00433899,-0.00364469,0.252754
-0.0636788,0.169755,0.541629,-0.0724811,-0.288498,0.0234083,0.00244885,-0.0190475,0.216233
-0.0694459,0.167382,0.540782,-0.139089,-0.265211,-0.0981247,-0.0157014,-0.0120329,0.216436
-0.0729608,0.165384,0.537193,-0.0720911,-0.145688,-0.23508,-0.0302867,-0.00532104,0.198773
-0.0743506,0.16539,0.531335,0.0278612,-0.106835,-0.32857,-0.017323,-0.0258685,0.167635
-0.0754699,0.167169,0.524204,0.0793618,-0.134421,-0.375462,-0.00870635,-0.0388542,0.148231
-0.0779249,0.168722,0.516487,0.00601107,-0.242987,-0.387973,-0.0154834,-0.0473174,0.113241
-0.0820473,0.16852,0.508491,-0.0868361,-0.291743,-0.396743,-0.0218363,-0.0618599,0.0964398
-0.0863882,0.166799,0.499747,-0.156604,-0.271966,-0.443881,-0.0246273,-0.0618326,0.0669928
-0.08942,0.163904,0.490034,-0.223717,-0.191678,-0.472905,-0.02623,-0.070349,0.0555777
-0.0916016,0.158959,0.479745,-0.361254,-0.199531,-0.487325,-0.0350764,-0.0811812,0.0064311
-0.0933517,0.1522,0.4692,-0.381723,-0.112206,-0.482489,-0.0532319,-0.0872635,-0.0295051
-0.092912,0.145983,0.458707,-0.326903,-0.0172688,-0.486859,-0.0384117,-0.0944489,-0.0644187
-0.0916902,0.141073,0.44856,-0.248543,-0.0175904,-0.452956,-0.00308256,-0.139545,-0.121271
-0.0911674,0.137772,0.439835,-0.156948,-0.0403982,-0.370816,0.0108328,-0.156548,-0.169091
-0.0911674,0.137772,0.439835,-0.156948,-0.0403982,-0.370816,0.0108328,-0.156548,-0.169091
-0.0906633,0.136076,0.432799,-0.0743365,0.00642217,-0.30924,0.011684,-0.152033,-0.218864
-0.0882146,0.135923,0.426942,0.00449663,0.168072,-0.25869,0.0225904,-0.124627,-0.229873
-0.0834017,0.13678,0.42291,0.0332542,0.231855,-0.130982,0.0266646,-0.0850971,-0.240795
-0.0783746,0.136618,0.422007,-0.0917163,0.253517,0.0403918,0.014775,-0.0406409,-0.226699
-0.0729471,0.131794,0.423764,-0.392412,0.304347,0.163665,0.021225,-0.0113785,-0.212191
-0.0681053,0.120374,0.427353,-0.699192,0.1923,0.265932,0.0388279,0.00294172,-0.218202
-0.0666817,0.104803,0.432738,-0.751271,0.0268939,0.3657,0.0562722,0.0199709,-0.206824
-0.0673828,0.0915631,0.440004,-0.475583,-0.0117597,0.436757,0.0829495,0.0372361,-0.137262
-0.0683888,0.0854573,0.44915,-0.0747574,-0.0231061,0.512602,0.103502,0.0232501,-0.0618408
-0.0708352,0.0854676,0.459964,0.085417,-0.150775,0.540995,0.0987464,-0.00647903,-0.0159143
-0.0764051,0.08499,0.470291,-0.0913471,-0.292363,0.474702,0.071264,-0.0221831,-0.00317472
-0.0825731,0.0803565,0.478393,-0.277831,-0.213947,0.356388,0.0413959,-0.0296389,0.0204002
-0.0852603,0.0741291,0.483731,-0.259204,-0.0065753,0.22583,0.0413898,-0.00684085,0.0349978
-0.0836487,0.0703562,0.487187,-0.0629961,0.178508,0.163832,0.0473185,-0.000807784,0.0482832
-0.0795419,0.0713825,0.490577,0.178656,0.233651,0.165653,0.0646531,-0.00980903,0.0582645
-0.0750401,0.0763945,0.494256,0.315245,0.222385,0.152286,0.0709516,-0.0161174,0.0891108
-0.0713045,0.0828621,0.497446,0.342566,0.191866,0.110769,0.0677496,-0.0183374,0.105624
-0.0669306,0.0898026,0.499634,0.362739,0.278701,0.0527588,0.0713109,-0.0211731,0.141354
-0.0598899,0.0973067,0.500722,0.383608,0.430053,0.00875191,0.0696265,-0.0116724,0.17479
-0.0503142,0.105001,0.5011,0.371019,0.506381,-0.0130299,0.0747353,-0.00902247,0.191507
-0.040739,0.112075,0.501182,0.332267,0.421019,-0.0115013,0.0912992,-0.0148377,0.182828
-0.0334163,0.118497,0.501084,0.298762,0.30154,-0.0254791,0.0970186,-0.0108391,0.183137
-0.0283806,0.123737,0.500396,0.213983,0.208718,-0.0569922,0.0952069,0.0086143,0.174831
-0.0233775,0.127263,0.499294,0.130641,0.299623,-0.0537714,0.0931021,0.0113653,0.197514
-0.0161002,0.128977,0.498804,0.0411396,0.41484,0.0108875,0.10378,0.0117829,0.192753
-0.00693485,0.129131,0.500178,-0.0225969,0.504862,0.128902,0.106593,0.00468832,0.199139
0.00210777,0.127846,0.503953,-0.0994333,0.408757,0.242741,0.115509,-0.00665672,0.16011
0.00800456,0.125825,0.509976,-0.0941638,0.259194,0.345429,0.118005,-0.0162605,0.114026
0.0101665,0.124238,0.517631,-0.0714403,0.0260588,0.406519,0.126432,-0.00668141,0.0442278
0.00759937,0.123615,0.526547,0.0213633,-0.130961,0.479261,0.115902,-0.0164399,-0.0565484
0.00383231,0.125686,0.537096,0.176178,-0.107788,0.55592,0.0730717,-0.00988327,-0.135672
0.000489792,0.130118,0.548929,0.263172,-0.0498359,0.61349,0.0262783,-0.000543535,-0.237137
-0.000558878,0.136292,0.562246,0.341483,0.121331,0.699139,-0.0139421,0.00752908,-0.288967
0.00223982,0.143172,0.577328,0.32384,0.394777,0.779182,-0.0361219,0.0369856,-0.294887
0.0109068,0.148803,0.592908,0.205121,0.673384,0.708018,-0.0465526,0.0388342,-0.256715
0.0252251,0.150358,0.603338,-0.128305,0.879982,0.255469,-0.0449116,0.0261654,-0.192749
0.0432769,0.139932,0.601529,-0.990898,0.859321,-0.498115,-0.125452,0.00533614,-0.193578
0.0617051,0.108575,0.585265,-1.96333,0.76349,-1.2502,-0.198083,-0.0321715,-0.214461
0.0789457,0.0641033,0.558148,-2.08844,0.750113,-1.65551,-0.130963,0.0381501,-0.211141
0.0948207,0.0256994,0.529244,-1.38598,0.628842,-1.44978,-0.130094,0.0805672,-0.175155
0.102479,0.00455651,0.507286,-0.509788,0.0259937,-0.930929,-0.101002,0.0445651,-0.200264
0.0937616,-0.000783917,0.492412,0.0577278,-0.896779,-0.65674,-0.0386316,0.0306798,-0.255903
0.0682162,0.0010979,0.478607,0.187793,-1.55893,-0.738568,5.87404e-05,0.0428612,-0.28141
0.0365791,0.00386424,0.462055,0.175149,-1.48986,-0.876183,-0.0206862,0.0695686,-0.257772
0.0125343,0.00770863,0.444137,0.272061,-0.817839,-0.864125,-0.0770477,0.102954,-0.219377
0.00513137,0.0150185,0.428785,0.459061,0.011667,-0.615189,-0.101215,0.129642,-0.103336
0.00933302,0.0260056,0.420823,0.622792,0.280791,-0.142053,-0.0681524,0.0840777,-0.0159151
0.00933302,0.0260056,0.420823,0.622792,0.280791,-0.142053,-0.0681524,0.0840777,-0.0159151
0.00984173,0.0566318,0.435746,0.829243,-0.349061,0.847692,-0.0245048,-0.0342797,0.240078
-0.00261259,0.0725645,0.455674,0.705035,-0.757764,1.09794,-0.00641224,-0.0506528,0.360051
-0.0230318,0.0836379,0.47803,0.408309,-1.06219,1.06226,0.00520329,-0.0373854,0.418298
-0.0459744,0.0884768,0.496209,0.161736,-0.961985,0.667675,0.000612419,-0.013201,0.414592
-0.0599647,0.0905378,0.503729,0.125847,-0.316262,0.0573323,-0.0288024,0.0035001,0.440525
-0.059748,0.0944575,0.499279,0.239521,0.223734,-0.486751,-0.0195332,0.0142391,0.415091
-0.0521016,0.101065,0.486955,0.340926,0.387665,-0.712562,0.0295955,-0.00864951,0.373811
-0.0419695,0.108884,0.47302,0.334472,0.470181,-0.673701,0.0542667,-0.00946446,0.413384
-0.0314895,0.113778,0.461121,0.0711264,0.407455,-0.508341,0.093094,-0.0269248,0.426269
-0.0241839,0.111646,0.452583,-0.303342,0.222508,-0.334532,0.131438,-0.0541435,0.387877
-0.0207815,0.10288,0.446706,-0.552103,0.0537203,-0.242766,0.152903,-0.0434961,0.342032
-0.0210489,0.0905559,0.4423,-0.670989,-0.126266,-0.15686,0.146846,-0.0188207,0.268921
-0.0256178,0.0765069,0.440529,-0.703592,-0.348136,0.0261122,0.120251,-0.0307454,0.159284
-0.0345768,0.0634514,0.442406,-0.570233,-0.519686,0.178993,0.0987551,-0.0317754,0.067139
-0.0463002,0.0533785,0.446175,-0.427569,-0.606516,0.228977,0.110686,-0.0439979,0.00873607
-0.058807,0.0455647,0.450908,-0.33084,-0.596665,0.294217,0.119473,-0.0758652,-0.010623
-0.0697966,0.0388173,0.457987,-0.304107,-0.459456,0.467266,0.122391,-0.111491,-0.00422382
-0.0772969,0.0314829,0.46915,-0.355976,-0.247534,0.692278,0.112582,-0.150926,-0.00613499
-0.0811605,0.0221495,0.484211,-0.449788,-0.111727,0.866245,0.117337,-0.188515,-0.0413169
-0.0835106,0.0106327,0.50201,-0.558468,-0.114697,0.981877,0.129139,-0.224795,-0.0874799
-0.0870955,-0.00422274,0.521249,-0.766579,-0.232703,1.0417,0.135645,-0.246349,-0.144592
-0.0919102,-0.0242614,0.540491,-1.05507,-0.226405,1.02818,0.143588,-0.254255,-0.18118
-0.0931996,-0.0496701,0.558102,-1.26715,0.0658074,0.944859,0.148187,-0.223112,-0.210646
-0.0878753,-0.076311,0.574082,-1.16299,0.346225,0.886521,0.196378,-0.184117,-0.303938
-0.0753345,-0.097636,0.59025,-0.839503,0.7579,0.894147,0.203033,-0.120674,-0.322557
-0.0597069,-0.115928,0.607259,-0.938864,0.455905,0.901627,0.21195,-0.0289831,-0.447554
-0.0550575,-0.137053,0.624816,-0.978168,-0.200333,0.980204,0.223779,0.0786311,-0.577605
-0.0607445,-0.153288,0.646758,-0.419476,-0.603926,1.31015,0.197553,0.144904,-0.606047
-0.067459,-0.155026,0.678386,0.443736,-0.507666,1.80004,0.141413,0.157652,-0.517368
-0.06883,-0.142572,0.719423,0.988846,-0.235139,2.09009,0.0863426,0.160171,-0.403634
-0.0667887,-0.124069,0.763103,1.09534,-0.176535,2.03583,0.0564299,0.175306,-0.343502
-0.064803,-0.103958,0.803485,1.17898,-0.0592053,1.8028,0.033036,0.186863,-0.234568
-0.0601782,-0.080408,0.838935,1.36806,0.198351,1.56184,0.0327716,0.18393,-0.113022
-0.051188,-0.0530329,0.86996,1.47686,0.456883,1.36713,0.0529553,0.163514,0.00697541
-0.0394834,-0.025013,0.89701,1.38431,0.579144,1.19704,0.0854508,0.13449,0.0884162
-0.0273454,-0.000265147,0.920328,1.12523,0.57545,1.04241,0.119108,0.109888,0.147209
-0.0166531,0.0192928,0.940336,0.866525,0.497343,0.909469,0.152636,0.0927627,0.181682
-0.00802673,0.034481,0.957601,0.676105,0.395831,0.794082,0.188808,0.0916184,0.202544
-0.00208349,0.0472398,0.973196,0.618062,0.273063,0.770358,0.219809,0.110623,0.193081
0.00212343,0.0601323,0.989402,0.671094,0.235903,0.857626,0.243425,0.133308,0.209128
0.00508273,0.0741861,1.00832,0.719049,0.183932,1.03414,0.279615,0.149832,0.184233
0.00697318,0.0893318,1.03158,0.758354,0.194044,1.2853,0.311963,0.157099,0.192857
0.00778622,0.104026,1.0601,0.663685,0.173804,1.54691,0.313255,0.173068,0.178112
0.00759848,0.116128,1.09362,0.520245,0.184028,1.76459,0.320028,0.18235,0.151226
0.00752809,0.125535,1.13078,0.386619,0.241326,1.90233,0.333184,0.190147,0.136848
0.00711027,0.132629,1.17033,0.319145,0.251534,2.00399,0.323854,0.20858,0.0860718
0.00772958,0.139774,1.21184,0.373538,0.353941,2.08776,0.317709,0.234107,0.0665882
0.00772958,0.139774,1.21184,0.373538,0.353941,2.08776,0.317709,0.234107,0.0665882
0.00910499,0.148491,1.25489,0.455665,0.39711,2.15957,0.315596,0.252408,0.0481585
0.0108476,0.158798,1.29961,0.522302,0.46252,2.25366,0.311051,0.253209,0.0678195
0.0131237,0.169801,1.34666,0.490202,0.518347,2.37294,0.305852,0.243922,0.101149
0.0150393,0.178956,1.39571,0.346895,0.510354,2.43381,0.302004,0.22413,0.11545
0.0164837,0.185955,1.44537,0.289647,0.551004,2.42516,0.281973,0.215479,0.121466
0.0190674,0.192482,1.49434,0.270875,0.609266,2.36875,0.273034,0.211239,0.127823
0.0222815,0.198501,1.54237,0.224668,0.650139,2.3348,0.274056,0.195155,0.12192
0.0272082,0.203049,1.58969,0.0966101,0.782367,2.28429,0.263912,0.187008,0.140257
0.0352013,0.204378,1.63611,-0.113678,0.948796,2.24435,0.244622,0.17772,0.152592
0.0464442,0.20187,1.68216,-0.298853,1.10298,2.23365,0.216341,0.166825,0.149261
0.0610803,0.197013,1.72853,-0.42883,1.23924,2.25423,0.185042,0.148958,0.158255
0.0767424,0.190251,1.77576,-0.554789,1.19379,2.30339,0.157123,0.117099,0.12755
0.0897082,0.181966,1.82436,-0.652062,0.956938,2.36452,0.110576,0.0815679,0.0798311
0.0964629,0.173504,1.8737,-0.609023,0.569055,2.3416,0.0352749,0.0419889,0.00433254
0.0970132,0.16791,1.92036,-0.373887,0.308494,2.12597,-0.0309542,0.016411,-0.0389024
0.0944095,0.166264,1.9608,-0.194907,0.102639,1.80293,-0.0455755,-0.0393807,-0.0916072
0.0897477,0.166563,1.99491,-0.089856,0.0154421,1.55029,-0.0653613,-0.0636368,-0.146852
0.0853496,0.167805,2.02469,-0.0616557,0.0789669,1.38851,-0.0528749,-0.0814554,-0.189297
0.0841209,0.167146,2.05157,-0.275995,0.244106,1.20274,-0.041713,-0.104765,-0.217268
0.087096,0.159045,2.07337,-0.70999,0.398921,0.841434,-0.0694238,-0.0331533,-0.279318
0.0942058,0.143497,2.08786,-0.891266,0.534421,0.460132,-0.056738,0.0437316,-0.341952
0.104981,0.128264,2.09756,-0.654282,0.656393,0.416352,-0.0289611,0.125746,-0.352298
0.117387,0.121273,2.1106,-0.162976,0.720762,0.852653,-0.0102393,0.164341,-0.291886
0.127667,0.125552,2.13435,0.261052,0.540163,1.52861,0.00664635,0.160684,-0.214249
0.129316,0.137397,2.16958,0.426368,0.0593758,2.0188,0.0164244,0.159503,-0.164454
0.120179,0.152429,2.21164,0.550893,-0.33811,2.25217,-0.0238495,0.184677,-0.0947891
0.103482,0.170727,2.25711,0.762871,-0.57701,2.37272,-0.0879861,0.193458,-0.0322613
0.0823003,0.192195,2.30376,0.91911,-0.664599,2.34241,-0.11704,0.190983,0.0359736
0.0610129,0.214133,2.34852,0.913941,-0.515896,2.13606,-0.111294,0.160788,0.125138
0.0447311,0.232722,2.38804,0.695928,-0.224708,1.77249,-0.0791553,0.137732,0.204155
0.0360435,0.244377,2.41999,0.330816,0.114464,1.36352,-0.0264353,0.113839,0.254005
0.0354606,0.247981,2.44438,-0.0473565,0.397587,1.01645,0.0346164,0.0916238,0.282811
0.0407868,0.244874,2.46312,-0.30479,0.568478,0.803306,0.0956338,0.0783712,0.279816
0.0490266,0.238172,2.47912,-0.404029,0.611207,0.7285,0.143508,0.0723679,0.257606
0.0568749,0.231103,2.49471,-0.367098,0.504491,0.751918,0.182078,0.060823,0.222008
0.0606373,0.22498,2.51138,-0.34886,0.214596,0.827437,0.209467,0.0388831,0.18074
0.0578749,0.218849,2.52962,-0.372289,-0.0537174,0.893545,0.206568,0.0302164,0.144771
0.0522377,0.21196,2.54849,-0.405761,-0.0757312,0.894756,0.188426,0.0357853,0.122069
0.0480024,0.20475,2.56731,-0.405211,0.0636776,0.904619,0.174393,0.0287925,0.0901209
0.0470974,0.197563,2.58681,-0.40227,0.235509,0.963135,0.163614,0.00934505,0.0468433
0.049078,0.19023,2.60774,-0.423955,0.344286,1.051,0.153273,-3.23951e-05,0.00792372
0.0519151,0.182702,2.6311,-0.432435,0.349106,1.19606,0.137189,-0.0131975,-0.0387663
0.0538187,0.175936,2.65727,-0.363947,0.306233,1.3245,0.119538,-0.0108371,-0.0793167
0.0548218,0.171433,2.68598,-0.237193,0.294087,1.46558,0.093775,-0.0163104,-0.0962018
0.0554606,0.16943,2.71768,-0.139927,0.303604,1.6189,0.0675997,-0.030507,-0.101604
0.055793,0.168886,2.7518,-0.115832,0.295581,1.70189,0.0448371,-0.0316375,-0.112746
0.0557578,0.168241,2.78665,-0.140542,0.283443,1.70296,0.0312549,-0.0254379,-0.137371
0.0557026,0.167485,2.82168,-0.112171,0.28836,1.73867,0.0284335,-0.0152728,-0.172993
0.0557026,0.167485,2.82168,-0.112171,0.28836,1.73867,0.0284335,-0.0152728,-0.172993
0.0551526,0.16799,2.85828,-0.0340105,0.25387,1.85856,0.027408,-0.0348717,-0.202191
0.0526497,0.170414,2.89757,0.0829306,0.150428,2.00793,0.0352646,-0.0681415,-0.237393
0.0478222,0.175678,2.93974,0.188112,0.0729258,2.11526,0.0274405,-0.0735914,-0.246193
0.040633,0.178208,2.98146,-0.216984,-0.0720901,1.9102,-0.0292515,0.00282788,-0.309313
0.0306501,0.168211,3.01501,-0.833651,-0.31846,1.31645,0.00024382,0.0972893,-0.457464
0.0215111,0.152615,3.03734,-0.610088,-0.126578,0.911697,0.058422,0.179931,-0.509807
0.0237309,0.149424,3.05664,0.261132,0.710186,1.05454,0.0574531,0.254597,-0.336983
0.0430112,0.160507,3.08155,0.615954,1.50684,1.41682,0.0826769,0.208158,-0.0851777
0.0709779,0.171778,3.11195,0.261678,1.6957,1.57502,0.113506,0.129934,0.0745833
0.0973715,0.174338,-3.14036,-0.242191,1.39672,1.41453,0.118199,0.0965977,0.147001
0.114819,0.169624,-3.1139,-0.43692,0.756247,1.1149,0.136039,0.0904881,0.132662
0.120048,0.164648,-3.09268,-0.259282,0.137076,0.922296,0.15873,0.10847,0.109656
0.116044,0.164613,-3.07402,0.0360214,-0.154986,0.932874,0.169061,0.14823,0.109516
0.110468,0.170034,-3.05347,0.248557,-0.00785823,1.14914,0.169545,0.151821,0.156573
0.109814,0.17839,-3.02835,0.27738,0.400557,1.37604,0.169688,0.132294,0.205635
0.116889,0.185956,-2.9997,0.146357,0.794398,1.46691,0.15614,0.0982928,0.249995
0.129469,0.190928,-2.97048,0.000133602,0.983789,1.40344,0.142693,0.0667686,0.26336
0.144888,0.19359,-2.94332,-0.0916148,1.04207,1.25448,0.134866,0.0355072,0.262893
0.160343,0.194912,-2.91918,-0.129146,0.938038,1.10143,0.128996,0.0305788,0.234899
0.17294,0.195995,-2.89773,-0.107498,0.71872,0.986776,0.116417,0.0288187,0.202093
0.181217,0.197419,-2.87846,-0.0820747,0.507171,0.893065,0.105364,0.0280937,0.172573
0.187095,0.198886,-2.86084,-0.110429,0.436467,0.828398,0.0831486,0.0298074,0.171432
0.191685,0.198591,-2.84369,-0.232675,0.344976,0.815684,0.0511157,0.0422132,0.138263
0.194837,0.196761,-2.82644,-0.245951,0.330182,0.791871,0.011896,0.0467509,0.109046
0.198631,0.195354,-2.8102,-0.20652,0.356919,0.732189,-0.0211955,0.0578833,0.0947626
0.203349,0.194006,-2.79522,-0.222442,0.421414,0.677143,-0.0435291,0.04504,0.0802239
0.210362,0.191957,-2.78098,-0.27631,0.545762,0.641882,-0.0556099,0.0227349,0.0781878
0.220037,0.188575,-2.76655,-0.340208,0.693773,0.691669,-0.0510662,0.0242819,0.0412918
0.231124,0.185773,-2.74926,-0.303042,0.682706,0.894805,-0.0305499,0.0138541,-0.0569653
0.238443,0.184212,-2.72899,-0.344527,0.359117,0.966113,0.00314273,0.0177206,-0.165079
0.237179,0.180579,-2.7084,-0.469468,-0.101573,0.894275,-0.000641525,0.0418124,-0.276756
0.228514,0.175834,-2.68933,-0.384775,-0.393369,0.815601,-0.025467,0.0898463,-0.345549
0.217187,0.173808,-2.67251,-0.174971,-0.40049,0.746843,-0.0352198,0.112464,-0.369214
0.207997,0.174512,-2.6576,-0.0940794,-0.230697,0.70367,-0.0505776,0.115583,-0.342323
0.203666,0.174153,-2.64336,-0.285211,0.0405273,0.630527,-0.069197,0.0695751,-0.261678
0.203135,0.16566,-2.63107,-0.810026,0.0554497,0.334895,-0.0681047,-0.00384355,-0.255741
0.200167,0.145929,-2.62503,-1.15259,-0.310753,-0.159243,-0.0806306,-0.026997,-0.318667
0.187907,0.12325,-2.62827,-0.88992,-0.976264,-0.546776,-0.0840985,-0.00624312,-0.412445
0.16338,0.111799,-2.63872,0.0115935,-1.5438,-0.627643,-0.0888545,0.0106754,-0.399939
0.130763,0.119984,-2.65148,0.909111,-1.76824,-0.478076,-0.0824868,0.0118011,-0.279459
0.0992188,0.141384,-2.66148,1.21499,-1.41695,-0.267874,-0.0958857,-0.0186936,-0.108109
0.0771402,0.163036,-2.66777,0.902256,-0.861772,-0.191953,-0.129249,-0.0144129,-0.00485802
0.0667226,0.175062,-2.67378,0.334977,-0.275777,-0.346404,-0.146922,-0.00110883,0.0308493
0.0684449,0.177766,-2.68407,0.0706789,0.238566,-0.647872,-0.136726,0.0297822,0.0443451
0.0789628,0.178535,-2.69993,0.157492,0.507255,-0.866145,-0.103033,0.0653897,0.036779
0.0945438,0.18186,-2.71878,0.322637,0.696537,-0.916681,-0.07568,0.0966158,0.0997984
0.113333,0.187067,-2.73737,0.354498,0.823588,-0.821555,-0.064136,0.114811,0.173715
0.133314,0.191463,-2.75327,0.25518,0.838481,-0.668597,-0.047071,0.116641,0.240075
0.133314,0.191463,-2.75327,0.25518,0.838481,-0.668597,-0.047071,0.116641,0.240075
0.150907,0.193471,-2.76604,0.130273,0.647832,-0.549918,-0.034966,0.11028,0.26
0.162987,0.194075,-2.77694,0.116418,0.316427,-0.498304,-0.0268801,0.114399,0.267813
0.166964,0.196002,-2.78719,0.265576,-0.113513,-0.456504,-0.020307,0.114428,0.237629
0.162577,0.202093,-2.79717,0.485908,-0.508078,-0.400811,-0.0225205,0.118277,0.241236
0.151336,0.211613,-2.80663,0.568193,-0.780355,-0.368325,-0.0310632,0.110504,0.254376
0.135629,0.221862,-2.81581,0.546376,-0.973123,-0.377658,-0.0148643,0.0874021,0.265313
0.117465,0.231149,-2.82526,0.491228,-1.00441,-0.40858,0.00146149,0.0785681,0.26319
0.100434,0.239658,-2.83467,0.448351,-0.894606,-0.396766,0.00494114,0.062642,0.263872
0.0861563,0.247283,-2.84333,0.370144,-0.733105,-0.365531,0.0130949,0.0301096,0.256329
0.0742489,0.252062,-2.85115,0.132034,-0.661739,-0.358035,0.0208605,-0.0179937,0.213367
0.064056,0.250683,-2.85904,-0.191648,-0.477145,-0.427326,0.0387271,-0.0617642,0.159277
0.0568449,0.243716,-2.86859,-0.470014,-0.630965,-0.512815,0.0621285,-0.100471,-0.00577474
0.0440446,0.231663,-2.87816,-0.624636,-0.769641,-0.461642,0.0891343,-0.179309,-0.149011
0.0319781,0.220138,-2.88634,-0.439462,-0.607981,-0.358009,0.0766939,-0.132862,-0.214848
0.0233725,0.214999,-2.891,-0.0503799,-0.311338,-0.0770128,0.0531412,-0.13463,-0.275289
0.0208028,0.217067,-2.88859,0.204238,0.112424,0.306556,0.0658227,-0.174008,-0.259701
0.0233018,0.220327,-2.87951,0.0367197,0.277093,0.560503,0.10144,-0.187945,-0.284678
0.0263444,0.216591,-2.86659,-0.478855,0.30127,0.659964,0.090836,-0.195316,-0.318183
0.0304853,0.201685,-2.85264,-0.998614,0.432658,0.647335,0.0938402,-0.156918,-0.339084
0.038827,0.18045,-2.83877,-1.06832,0.670382,0.645461,0.117987,-0.11197,-0.346004
0.0521454,0.163447,-2.82379,-0.629687,0.888313,0.770479,0.139354,-0.0438378,-0.322149
0.0681496,0.158284,-2.8049,-0.00404461,0.974665,1.07754,0.114166,-0.00288361,-0.240669
0.0823799,0.164641,-2.77958,0.394322,0.810201,1.43566,0.0681179,-0.0202906,-0.143577
0.0907048,0.176655,-2.74942,0.499483,0.517691,1.56377,0.0310227,-0.0428442,-0.0330529
0.0924714,0.188921,-2.72018,0.437098,0.190949,1.34515,0.0137344,-0.045935,0.0600118
0.0894792,0.198841,-2.69783,0.335573,-0.0328886,0.895728,0.00473177,-0.0416331,0.134242
0.0851552,0.205432,-2.6849,0.205441,-0.117933,0.426125,-5.77644e-05,-0.0299429,0.180855
0.082885,0.209117,-2.68035,0.136101,0.033071,0.0700228,0.00850622,0.00846857,0.207523
0.0864114,0.211453,-2.68137,0.101994,0.304659,-0.121579,0.0298608,0.0408283,0.244694
0.0955849,0.212629,-2.68427,0.0333228,0.520685,-0.129336,0.0386526,0.0500656,0.26829
0.10693,0.212459,-2.68591,-0.022096,0.549602,-0.0182248,0.0415777,0.0608393,0.258599
0.117074,0.211928,-2.68505,-0.044452,0.446744,0.0780076,0.0384705,0.0509819,0.265033
0.123631,0.211004,-2.68334,-0.0562303,0.252332,0.0726175,0.0464718,0.0599823,0.242651
0.126936,0.210372,-2.68196,-0.0278598,0.105238,0.0478235,0.033315,0.0512003,0.244347
0.127713,0.209236,-2.68139,-0.106503,-0.0037725,-0.0110136,0.0182495,0.0557507,0.235909
0.127716,0.205783,-2.68177,-0.225442,0.0194529,-0.069739,0.00590325,0.0374484,0.228726
0.129212,0.200406,-2.68318,-0.263765,0.115447,-0.132339,0.00908685,0.0430771,0.18016
0.133753,0.195177,-2.6854,-0.229085,0.277482,-0.142728,0.0154784,0.0541235,0.141395
0.140185,0.190154,-2.687,-0.252887,0.313495,-0.065962,0.0322713,0.0472861,0.0904757
0.145717,0.184802,-2.68648,-0.286449,0.219849,0.0406572,0.0386971,0.0353148,0.0532893
0.147907,0.179305,-2.68403,-0.276833,0.0475369,0.119864,0.0571276,0.0301678,-0.00352097
0.146918,0.174864,-2.68016,-0.216103,-0.0654695,0.186328,0.0460891,0.0318077,-0.0401865
0.144339,0.171658,-2.67534,-0.171669,-0.0941135,0.236767,0.0378865,0.0338835,-0.0687663
0.141533,0.169292,-2.66957,-0.145141,-0.0838101,0.295087,0.039804,0.0321013,-0.0945711
0.139053,0.167621,-2.66245,-0.120182,-0.0475835,0.373143,0.0209,0.0368937,-0.124271
0.135608,0.166346,-2.65432,-0.118899,-0.208261,0.377792,0.00984675,0.0501469,-0.190948
0.126863,0.164662,-2.64795,-0.129159,-0.578734,0.17539,-0.0201671,0.0795831,-0.285675
0.11009,0.161635,-2.64808,-0.164753,-1.09331,-0.24273,-0.0316993,0.10716,-0.405072
0.11009,0.161635,-2.64808,-0.164753,-1.09331,-0.24273,-0.0316993,0.10716,-0.405072
0.0875754,0.157669,-2.65708,-0.127321,-1.15793,-0.644646,0.00943133,0.0885349,-0.464309
0.0731077,0.154335,-2.6719,-0.120461,-0.400974,-0.796237,-0.00505096,0.077872,-0.423171
0.0767638,0.148062,-2.68803,-0.42985,0.452168,-0.825578,0.0121938,0.0286705,-0.408065
0.0931016,0.135,-2.70402,-0.671471,0.878986,-0.852234,0.0389517,-0.00612596,-0.423684
0.113193,0.12161,-2.71992,-0.404975,0.857258,-0.822168,0.0184218,0.0031307,-0.409276
0.129495,0.118238,-2.73518,0.281603,0.56858,-0.709204,-0.0303615,0.0140809,-0.321998
0.140423,0.128723,-2.74993,0.892116,0.340938,-0.59165,-0.0700024,0.0337484,-0.144439
0.147294,0.147911,-2.76334,1.12344,0.179865,-0.435355,-0.0958588,0.0238677,0.00904125
0.151864,0.16835,-2.77377,0.994408,0.1293,-0.282667,-0.109973,0.00462292,0.141417
0.156269,0.184455,-2.78123,0.682387,0.193198,-0.208447,-0.115197,0.00827031,0.234852
0.162642,0.194446,-2.78632,0.388747,0.34303,-0.118482,-0.12143,-0.0113212,0.305914
0.170557,0.199882,-2.78851,0.194302,0.370097,-0.00386896,-0.119568,-0.0206233,0.339069
0.176824,0.202556,-2.78816,0.0645673,0.237332,0.0721094,-0.112585,-0.0300576,0.364108
0.178055,0.203097,-2.78687,-0.012606,-0.114781,0.0440985,-0.104094,-0.026904,0.331927
0.172316,0.203449,-2.7872,0.068334,-0.459786,-0.0827966,-0.0983942,-0.00614265,0.312238
0.160578,0.205557,-2.79122,0.205711,-0.765251,-0.27186,-0.0822274,0.0297806,0.250579
0.146278,0.210274,-2.79904,0.388839,-0.759811,-0.379943,-0.0626058,0.0707729,0.218842
0.135077,0.218853,-2.80797,0.562454,-0.538756,-0.347451,-0.052383,0.0885852,0.218064
0.128644,0.230085,-2.81596,0.633391,-0.279781,-0.271198,-0.0221258,0.0750447,0.207881
0.126885,0.242042,-2.82221,0.600383,-0.0496233,-0.180002,-0.0229569,0.0579987,0.21712
0.128074,0.252236,-2.82682,0.449561,0.0231667,-0.149457,-0.0251719,0.0236027,0.206107
0.128909,0.258531,-2.83172,0.229213,-0.0780957,-0.25686,-0.00161485,0.00175473,0.173757
0.128132,0.260272,-2.83887,0.0421696,-0.158174,-0.39692,0.0125387,-0.0289879,0.130304
0.127236,0.25833,-2.84804,-0.126006,-0.161845,-0.490801,0.00343136,-0.0485647,0.093524
0.126584,0.253063,-2.85763,-0.255967,-0.137377,-0.469812,0.0207953,-0.0670426,0.0341038
0.126437,0.246741,-2.86504,-0.266858,-0.061383,-0.300816,0.0244163,-0.0828426,-0.0189384
0.126044,0.24096,-2.86818,-0.261815,-0.0589043,-0.0646601,0.0320962,-0.107328,-0.0861245
0.12426,0.236561,-2.86636,-0.172932,-0.0668854,0.186962,0.0362038,-0.129622,-0.144751
0.12212,0.23539,-2.86032,-0.0189643,0.00163705,0.353901,0.0294308,-0.148766,-0.163053
0.120994,0.236831,-2.85249,0.0499876,0.0654869,0.411198,0.044444,-0.156749,-0.162401
0.12042,0.238141,-2.8432,-0.058486,0.0887312,0.505126,0.0629032,-0.17635,-0.163494
0.118856,0.235449,-2.83141,-0.386396,0.00607319,0.563961,0.0560667,-0.182171,-0.192242
0.114332,0.224021,-2.81983,-0.874492,-0.177584,0.375063,0.0537305,-0.137559,-0.294491
0.110124,0.204199,-2.81317,-1.08335,-0.0199217,0.064849,0.0511802,-0.0750649,-0.344228
0.113633,0.184405,-2.8113,-0.823507,0.41977,-0.0587142,0.0551754,-0.00729723,-0.34588
0.126582,0.173736,-2.80989,-0.233639,0.876587,0.120944,0.0655061,0.0487632,-0.266694
0.145726,0.174844,-2.80366,0.199389,1.06996,0.507479,0.0651487,0.0323991,-0.132724
0.16339,0.182053,-2.79111,0.274047,0.856673,0.779156,0.0614288,-0.00671075,-0.0137551
0.173842,0.189327,-2.77562,0.170802,0.456667,0.803324,0.0541521,-0.0330396,0.0797395
0.176014,0.194309,-2.76102,0.0805286,0.0565967,0.677528,0.0291009,-0.0282402,0.127734
0.172453,0.197677,-2.74926,0.0578637,-0.130573,0.509135,9.28342e-05,-0.0190621,0.145394
0.168498,0.200188,-2.74072,0.0427966,-0.0742136,0.360898,-0.0106818,-0.00424089,0.158868
0.166946,0.201745,-2.73463,0.00405341,0.0381973,0.261042,0.00708969,0.00706592,0.152849
0.167605,0.202145,-2.72951,-0.0444309,0.117946,0.253295,0.0289123,0.0160025,0.139235
0.169031,0.202308,-2.7238,-0.0139106,0.12641,0.297609,0.031188,0.0393246,0.115181
0.170281,0.204469,-2.71745,0.135157,0.134269,0.358661,0.0510656,0.0473462,0.115169
0.171969,0.210226,-2.70985,0.29174,0.188353,0.472948,0.0409273,0.0477622,0.156597
0.173989,0.218341,-2.70043,0.326346,0.20741,0.558661,0.0288281,0.0463681,0.192979
0.173989,0.218341,-2.70043,0.326346,0.20741,0.558661,0.0288281,0.0463681,0.192979
0.17585,0.226348,-2.68976,0.273282,0.212197,0.58998,0.0222663,0.0293056,0.23252
0.177236,0.23335,-2.67864,0.224257,0.165224,0.584155,0.00518085,0.0208799,0.252197
0.177285,0.239462,-2.66799,0.207261,0.103676,0.53484,0.00238059,0.0162637,0.238771
0.176976,0.245231,-2.65834,0.176858,0.0869041,0.483997,0.00360611,0.00237837,0.238483
0.175252,0.248909,-2.64956,0.0205753,-0.0698585,0.41192,0.0232774,-0.00942126,0.187002
0.171049,0.24958,-2.64162,-0.0656992,-0.130445,0.377605,0.0681051,-0.0142642,0.120235
0.166752,0.249285,-2.63324,-0.0995406,-0.077767,0.414623,0.0551991,-0.0128405,0.0759318
0.163579,0.248016,-2.62447,-0.165404,-0.0236515,0.386129,0.0579531,-0.00721964,0.0315034
0.161821,0.245442,-2.61654,-0.204352,0.0460562,0.329655,0.0533987,0.00171265,-0.0109961
0.161212,0.24222,-2.60956,-0.218278,0.0362593,0.288371,0.0463806,0.010183,-0.0605484
0.159043,0.238683,-2.60356,-0.215925,-0.126521,0.217685,0.0455491,0.0293465,-0.140924
0.154237,0.235443,-2.59943,-0.164514,-0.231353,0.134271,0.0282853,0.0769324,-0.191339
0.147653,0.232732,-2.59669,-0.144419,-0.37467,0.0888899,0.0235975,0.111801,-0.224697
0.138706,0.229574,-2.59546,-0.21237,-0.472231,-0.0338871,0.0355774,0.113504,-0.219351
0.128986,0.22242,-2.59742,-0.521634,-0.539005,-0.27505,0.0209172,0.111689,-0.205069
0.119358,0.205316,-2.60506,-1.09702,-0.579602,-0.698082,0.0141479,0.12598,-0.227889
0.111894,0.176903,-2.62071,-1.44371,-0.386653,-1.10132,0.0179657,0.169054,-0.279987
0.111487,0.147178,-2.64066,-1.18941,0.0567715,-1.10127,-0.00807885,0.201182,-0.286346
0.119638,0.127079,-2.65765,-0.589589,0.493091,-0.768443,-0.0545631,0.171202,-0.221148
0.133426,0.119342,-2.66892,-0.0754968,0.676124,-0.447417,-0.0812873,0.101527,-0.117882
0.146083,0.118865,-2.6767,0.0663935,0.440937,-0.370814,-0.125479,0.0219663,-0.0620657
0.151761,0.117558,-2.68585,-0.0901036,0.000136743,-0.56401,-0.15598,-0.0177836,-0.0321255
0.149501,0.111485,-2.69893,-0.306168,-0.32618,-0.79363,-0.167948,-0.0384037,-0.0277455
0.144763,0.101409,-2.71486,-0.444352,-0.257803,-0.881205,-0.169839,-0.028449,0.00716138
0.144232,0.0900011,-2.73034,-0.419186,0.090738,-0.767496,-0.123665,-0.023127,0.0139925
0.15105,0.0817676,-2.74191,-0.203703,0.447916,-0.464497,-0.0830947,-0.0364265,0.0427598
0.161803,0.0791498,-2.74756,0.0188084,0.528763,-0.14018,-0.0397134,-0.0699654,0.0826035
0.170628,0.0806503,-2.74828,0.116162,0.314962,0.0743622,-0.0108174,-0.110431,0.137487
0.17345,0.0831594,-2.74606,0.0835765,-0.0176542,0.175853,0.00349084,-0.132284,0.18554
0.170008,0.0850094,-2.74216,0.0412911,-0.269642,0.227984,-0.00956774,-0.134179,0.217101
0.162265,0.0870046,-2.73805,0.10209,-0.460789,0.194415,-0.0231251,-0.11153,0.206382
0.151479,0.0912773,-2.73524,0.298265,-0.573387,0.152351,-0.0181314,-0.0934808,0.179594
0.139551,0.100463,-2.73352,0.577788,-0.597987,0.150676,-0.0234981,-0.070528,0.172267
0.127337,0.114341,-2.73222,0.740781,-0.603837,0.154531,-0.0249831,-0.0490402,0.179518
0.114846,0.129365,-2.73149,0.705523,-0.629387,0.0837933,-0.0296209,-0.033334,0.191944
0.103073,0.141798,-2.7328,0.520804,-0.531532,-0.0873622,-0.0292412,-0.025867,0.210784
0.0953605,0.14959,-2.73759,0.291146,-0.295201,-0.308566,-0.0293639,-0.0220186,0.218501
0.093366,0.152409,-2.7463,0.0740802,-0.0485183,-0.507273,-0.016756,-0.0115104,0.199863
0.094886,0.150792,-2.75767,-0.121277,-0.00966972,-0.603368,0.00946556,-0.018694,0.148497
0.0952359,0.146439,-2.76955,-0.161545,-0.159361,-0.576869,0.0473595,-0.0162696,0.063412
0.0907282,0.143723,-2.77961,0.000490075,-0.436366,-0.427354,0.0701814,-0.0229548,-0.0230021
0.0804087,0.144527,-2.78699,0.117817,-0.682982,-0.300496,0.0726607,-0.041873,-0.0723391
0.0660872,0.146855,-2.79205,0.152209,-0.757125,-0.167523,0.0910743,-0.0673106,-0.121459
0.0529833,0.14965,-2.79411,0.110928,-0.551257,-0.030413,0.0644546,-0.0938429,-0.139563
0.0452556,0.150175,-2.79396,-0.064074,-0.207089,0.0420814,0.0457689,-0.110689,-0.18341
0.0443607,0.147608,-2.79222,-0.1607,0.152026,0.128875,0.0437825,-0.134147,-0.238395
0.0498452,0.145748,-2.78755,-0.0325003,0.414514,0.338252,0.0437671,-0.17122,-0.25997
0.0568852,0.146771,-2.77862,0.0726745,0.366023,0.52527,0.049729,-0.196194,-0.274818
0.0568852,0.146771,-2.77862,0.0726745,0.366023,0.52527,0.049729,-0.196194,-0.274818
0.0596507,0.149099,-2.76735,0.0796687,0.0477922,0.574569,0.0439971,-0.187665,-0.27265
0.0553153,0.150243,-2.75616,-0.0407139,-0.283674,0.514451,0.01841,-0.14973,-0.251974
0.0470882,0.148597,-2.74651,-0.161465,-0.338923,0.434513,0.0220362,-0.124792,-0.206147
0.0416261,0.145318,-2.73766,-0.191984,-0.0185282,0.437476,0.0233082,-0.094558,-0.137816
0.0450748,0.142033,-2.72793,-0.172013,0.495298,0.516555,0.0270342,-0.0687409,-0.0727512
0.0571786,0.139507,-2.7165,-0.14357,0.819694,0.576847,0.0362117,-0.0579212,-0.0401728
0.0724183,0.137477,-2.70501,-0.126529,0.794404,0.532494,0.0633222,-0.0441994,-0.0249251
0.0843559,0.136595,-2.6946,-0.0273532,0.524444,0.49791,0.085993,-0.026915,-0.0155076
0.0908896,0.138188,-2.68422,0.0880473,0.280479,0.549515,0.0903375,-0.0115895,0.0332083
0.0932688,0.14164,-2.67243,0.137629,0.14463,0.645679,0.0900957,0.000983924,0.090221
0.0938214,0.145788,-2.65845,0.140162,0.122787,0.755818,0.0816722,-0.00641574,0.139139
0.0943576,0.150109,-2.64295,0.14797,0.161533,0.791085,0.0570798,-0.00282805,0.17474
0.0953909,0.154596,-2.62743,0.1526,0.164146,0.759567,0.0459043,-0.0024526,0.194077
0.0960204,0.159104,-2.61301,0.159427,0.114645,0.696545,0.0500676,-0.00247061,0.202167
0.0954697,0.163794,-2.59974,0.182774,0.0367798,0.643155,0.0464693,0.00640103,0.203711
0.0927533,0.169203,-2.58766,0.268559,-0.103704,0.583561,0.0554918,0.017533,0.17623
0.0874518,0.177377,-2.57693,0.446788,-0.239901,0.539445,0.0560893,0.0378986,0.169971
0.0804215,0.188587,-2.56694,0.573676,-0.243169,0.531819,0.04789,0.0580005,0.164337
0.0746231,0.201363,-2.55699,0.589806,-0.145554,0.535218,0.0445062,0.0727462,0.171664
0.0711158,0.212836,-2.547,0.461301,0.0154657,0.513488,0.0465295,0.07813,0.164815
0.0712842,0.221099,-2.53753,0.293367,0.207596,0.454526,0.0423874,0.0843842,0.149784
0.0752985,0.226303,-2.52922,0.180854,0.361539,0.393429,0.0449311,0.0922044,0.130662
0.0817711,0.229586,-2.52183,0.0846053,0.429873,0.34368,0.0427929,0.0896504,0.110857
0.0888491,0.230633,-2.51525,-0.0245051,0.415791,0.313402,0.0522891,0.0957352,0.0673077
0.0956595,0.230282,-2.50833,-0.0665026,0.414202,0.353556,0.0388436,0.0979111,0.0310559
0.101777,0.22923,-2.50063,-0.103231,0.362976,0.37952,0.0271859,0.108057,-0.018716
0.106178,0.228516,-2.49216,-0.0420491,0.25275,0.425814,0.0118124,0.108765,-0.079501
0.107186,0.229035,-2.48331,-0.0192825,0.032851,0.418819,-0.00499004,0.106478,-0.150157
0.10434,0.228547,-2.47461,-0.142046,-0.102057,0.423465,-0.0236531,0.106308,-0.198628
0.0998962,0.224795,-2.46508,-0.321139,-0.0930642,0.453236,-0.0329661,0.089835,-0.240973
0.0973063,0.217747,-2.45537,-0.468769,0.0632416,0.401963,-0.043284,0.0688903,-0.22446
0.0976369,0.206581,-2.4471,-0.764257,0.083551,0.28791,-0.0261495,0.0190793,-0.178435
0.0952367,0.186405,-2.44086,-1.31811,-0.24614,0.101128,0.00685051,-0.0489863,-0.205446
0.0846892,0.154124,-2.4391,-1.8537,-0.746007,-0.233661,-0.00967174,-0.0364881,-0.327392
0.0676941,0.115499,-2.44328,-1.8355,-0.97019,-0.422782,-0.0105206,0.012978,-0.407879
0.0505235,0.0860051,-2.44908,-0.933635,-0.67411,-0.266879,-0.0624613,0.105537,-0.453118
0.0437159,0.0790788,-2.44967,0.190366,-0.0379447,0.210981,-0.122774,0.152589,-0.32294
0.0458901,0.0897765,-2.4412,0.7298,0.296491,0.614915,-0.170277,0.106029,-0.202097
0.0508441,0.105327,-2.42929,0.675841,0.2167,0.56304,-0.160358,0.0536033,-0.0714784
0.0501664,0.115939,-2.42227,0.330957,-0.227565,0.150885,-0.163777,0.015902,-0.0355204
0.0417069,0.119893,-2.42441,0.105869,-0.602474,-0.332179,-0.196837,0.0100481,-0.00616509
0.0303609,0.121733,-2.43507,0.148053,-0.582837,-0.681817,-0.209636,0.0392332,0.0329748
0.0240361,0.125914,-2.45071,0.300565,-0.210196,-0.814926,-0.194727,0.0476548,0.115942
0.025877,0.13227,-2.46738,0.349536,0.167667,-0.801546,-0.16638,0.0361816,0.192227
0.0342188,0.138146,-2.48356,0.265098,0.408482,-0.779387,-0.13641,0.0223355,0.277979
0.0447051,0.141497,-2.49971,0.125294,0.361367,-0.805448,-0.122811,0.00998318,0.338916
0.0514809,0.141873,-2.51689,-0.0107589,0.0426083,-0.891246,-0.110008,-0.000631496,0.381036
0.0514809,0.141873,-2.51689,-0.0107589,0.0426083,-0.891246,-0.110008,-0.000631496,0.381036
0.0506927,0.139242,-2.53624,-0.14536,-0.398201,-1.03601,-0.095484,-0.00659373,0.392629
0.0410817,0.135465,-2.55892,-0.0766778,-0.849615,-1.2119,-0.0894915,0.0228071,0.332944
0.0243096,0.136512,-2.58533,0.306419,-1.12976,-1.36789,-0.0602444,0.065166,0.268251
0.00484637,0.146908,-2.61345,0.738976,-1.1582,-1.3622,-0.0476256,0.0875572,0.245885
-0.0126583,0.163369,-2.63997,0.817862,-0.96832,-1.23989,-0.00337971,0.0942377,0.250385
-0.0251879,0.177353,-2.66328,0.470736,-0.660212,-1.06957,0.0383706,0.0809658,0.253762
-0.0312124,0.181949,-2.68335,-0.0709171,-0.307873,-0.913795,0.0560675,0.0505758,0.234524
-0.0316393,0.176802,-2.7013,-0.44657,-0.0809133,-0.831966,0.0903602,0.0134677,0.161394
-0.0295873,0.167394,-2.71772,-0.489275,-0.0182633,-0.740659,0.112879,-0.018979,0.0724132
-0.0279943,0.159073,-2.73169,-0.374558,-0.0365646,-0.594186,0.136326,-0.0562572,-0.00234652
-0.0267708,0.15213,-2.7424,-0.366942,-0.00879205,-0.444313,0.14714,-0.09867,-0.0493944
-0.0250645,0.144313,-2.7504,-0.425211,0.0610935,-0.32253,0.175482,-0.157854,-0.0989475
-0.0226846,0.13613,-2.75578,-0.384135,0.0796536,-0.184356,0.189236,-0.204408,-0.173554
-0.0210062,0.129947,-2.75804,-0.2161,0.0552149,-0.0154302,0.182815,-0.224666,-0.238569
-0.0212756,0.128041,-2.75615,0.0400957,-0.0700912,0.220828,0.196866,-0.249079,-0.286441
-0.0254717,0.131204,-2.74839,0.266203,-0.251813,0.535668,0.182828,-0.259751,-0.282537
-0.0339138,0.136589,-2.73499,0.277109,-0.401907,0.738999,0.150977,-0.246938,-0.251857
-0.0447821,0.140024,-2.71948,0.102236,-0.429279,0.744034,0.105425,-0.195593,-0.211036
-0.0531494,0.139419,-2.70503,-0.0687957,-0.143861,0.693973,0.0666928,-0.102716,-0.132134
-0.053049,0.137248,-2.6902,-0.032474,0.387856,0.800443,0.0780993,-0.0621423,-0.0222718
-0.0427143,0.137539,-2.67133,0.165953,0.840101,1.08645,0.132035,-0.034647,0.0730117
-0.0288712,0.141111,-2.64495,0.23497,0.822567,1.4983,0.202881,-0.0553403,0.0915306
-0.0195859,0.143027,-2.61158,-0.0183543,0.529478,1.74089,0.255316,-0.0944746,0.079153
-0.0183631,0.137737,-2.57675,-0.436676,0.08788,1.64914,0.252411,-0.0970431,-0.0129641
-0.025262,0.125169,-2.54629,-0.706051,-0.369708,1.37699,0.203635,-0.0516099,-0.150337
-0.0378088,0.110338,-2.52142,-0.63361,-0.517731,1.14633,0.198001,-0.0202871,-0.241929
-0.0480146,0.0999173,-2.49959,-0.278984,-0.182871,1.08757,0.196011,0.0272871,-0.266281
-0.0475737,0.097224,-2.47649,0.0851366,0.459262,1.22693,0.169661,0.0435735,-0.20052
-0.0349962,0.0991416,-2.4502,0.188614,1.02166,1.34552,0.177594,0.0102799,-0.108501
-0.0133273,0.10306,-2.4227,0.277887,1.37158,1.35719,0.181179,-0.026242,-0.00264776
0.0123491,0.110017,-2.39554,0.424419,1.4204,1.32101,0.156503,-0.0384591,0.0934268
0.0365029,0.120738,-2.36988,0.564768,1.25392,1.23978,0.136271,-0.0329217,0.181832
0.0561405,0.133804,-2.34604,0.598119,0.988732,1.18552,0.114633,-0.00915773,0.25836
0.0699329,0.146535,-2.32281,0.511043,0.705179,1.18399,0.0908308,0.0211024,0.299395
0.0773967,0.157336,-2.29942,0.390393,0.388943,1.1802,0.0747739,0.0373944,0.294643
0.0782294,0.166183,-2.27651,0.325313,0.0682565,1.12455,0.0699149,0.0601492,0.244239
0.0736715,0.174296,-2.25537,0.303286,-0.137753,0.984308,0.0583544,0.0871569,0.188614
0.0671677,0.179855,-2.2379,0.0974657,-0.173335,0.762381,0.0554558,0.123665,0.133293
0.0623458,0.179928,-2.22389,-0.175956,-0.043057,0.621086,0.0555369,0.152484,0.063656
0.0608363,0.175177,-2.21126,-0.33877,0.121932,0.611529,0.0854411,0.162426,-0.0200709
0.0629227,0.17006,-2.19707,-0.205753,0.363223,0.773529,0.0911936,0.178702,-0.092685
0.0699988,0.169284,-2.17874,-0.0343516,0.615965,1.0121,0.0726444,0.156864,-0.0890349
0.0800428,0.169542,-2.15668,-0.14231,0.722645,1.11198,0.0633705,0.0927725,-0.0711588
0.0902789,0.166094,-2.13433,-0.38094,0.644376,1.01677,0.0431034,0.0374782,-0.0865191
0.0977118,0.158764,-2.1145,-0.511715,0.376395,0.853087,0.0199272,-0.00773509,-0.134443
0.0986888,0.150105,-2.09762,-0.478279,-0.0308785,0.71394,-0.00415906,-0.0361275,-0.196247
0.0924509,0.143072,-2.0841,-0.375363,-0.385428,0.517256,-0.0118472,-0.0588472,-0.222986
0.0814788,0.134283,-2.07617,-0.636563,-0.561678,0.151286,0.00282481,-0.111039,-0.246039
0.0814788,0.134283,-2.07617,-0.636563,-0.561678,0.151286,0.00282481,-0.111039,-0.246039
0.0700095,0.116287,-2.07764,-1.11784,-0.578381,-0.453769,0.020318,-0.116458,-0.30948
0.0609493,0.091674,-2.09065,-1.14169,-0.411887,-0.937505,0.0393197,-0.0548777,-0.402105
0.0572516,0.0727609,-2.11042,-0.570584,-0.105052,-1.08179,0.00729261,0.0308113,-0.410713
0.0606255,0.0653666,-2.1319,-0.11702,0.295976,-1.07963,-0.0259894,0.0522585,-0.261552
0.0713396,0.0620174,-2.15311,-0.139305,0.610196,-1.03069,-0.0612239,0.0499384,-0.0638026
0.0864893,0.0550821,-2.17274,-0.422844,0.76179,-0.973861,-0.0892565,0.019547,0.111756
0.103291,0.0415771,-2.19088,-0.742615,0.80815,-0.948338,-0.0998443,-0.00946032,0.258093
0.118422,0.0215729,-2.20752,-1.06247,0.555287,-0.924514,-0.0903169,-0.0239457,0.326933
0.12262,-0.00441781,-2.22271,-1.26483,-0.16352,-0.858538,0.000628553,-0.0358815,0.232121
0.113637,-0.0293764,-2.23429,-0.979182,-0.644359,-0.561794,0.00840579,-0.023696,0.15546
0.0999459,-0.043069,-2.24069,-0.271736,-0.620903,-0.218566,-0.0094008,0.0596207,0.124366
0.0897927,-0.04152,-2.24208,0.390149,-0.37737,0.0788431,-0.00812818,0.0947224,0.103908
0.0851399,-0.0298488,-2.23953,0.688032,-0.0767507,0.258683,0.0137404,0.0893115,0.10772
0.0869669,-0.0148923,-2.23454,0.73052,0.234673,0.360577,0.0232292,0.0881508,0.133989
0.0943066,0.000555967,-2.22711,0.738063,0.484958,0.531561,0.0262555,0.0915288,0.160595
0.105357,0.0168368,-2.21578,0.761539,0.58861,0.751315,0.0228431,0.101553,0.185369
0.116394,0.0340392,-2.20074,0.770371,0.528168,0.914745,0.0232025,0.103597,0.206877
0.124871,0.0517516,-2.18344,0.768655,0.392079,0.988948,0.0065553,0.0943615,0.229609
0.130414,0.0694633,-2.16573,0.746126,0.259364,0.97697,-0.00560093,0.0911664,0.254544
0.132964,0.0859342,-2.14826,0.625718,0.131669,0.954756,-0.0206636,0.0789467,0.27728
0.13283,0.0984837,-2.13103,0.37304,0.0299527,0.901524,-0.032173,0.0717132,0.270507
0.131766,0.105493,-2.11418,0.104633,0.0423262,0.844605,-0.0437406,0.0523801,0.273143
0.131214,0.107341,-2.09792,-0.119473,0.0848273,0.779836,-0.0484048,0.0412478,0.244533
0.131761,0.105847,-2.08182,-0.215241,0.139998,0.80219,-0.0340109,0.0131962,0.214132
0.133294,0.102935,-2.06398,-0.328051,0.209849,0.918561,-0.0330295,-0.0115203,0.208738
0.136927,0.0974379,-2.04297,-0.476133,0.37276,1.06818,-0.0199765,-0.0536867,0.174616
0.144206,0.0909123,-2.0187,-0.49575,0.577358,1.22286,-0.00520456,-0.0962399,0.146056
0.155383,0.0840852,-1.99109,-0.618533,0.770627,1.39076,-0.00939012,-0.121748,0.131023
0.168839,0.0740008,-1.95891,-0.890234,0.765595,1.5897,-0.00688748,-0.16093,0.08434
0.179686,0.06059,-1.92268,-1.0061,0.534875,1.70681,0.013685,-0.16781,0.00446379
0.184504,0.0480401,-1.88506,-0.856516,0.106514,1.72744,0.0221055,-0.169386,-0.0917304
0.179017,0.0410636,-1.84892,-0.444341,-0.514287,1.67483,0.0643668,-0.186365,-0.177424
0.162012,0.0424637,-1.81527,-0.0222909,-0.969285,1.65361,0.0834391,-0.184951,-0.191933
0.140057,0.0486218,-1.78234,0.0699652,-1.02386,1.66738,0.11145,-0.227276,-0.131293
0.118574,0.0517726,-1.74954,-0.225262,-0.922967,1.58603,0.129237,-0.230935,-0.11495
0.0999002,0.0470491,-1.71859,-0.542976,-0.793571,1.42109,0.157197,-0.206341,-0.148802
0.082956,0.0384796,-1.69013,-0.499879,-0.787464,1.33626,0.203608,-0.160108,-0.22758
0.0655809,0.0344678,-1.66215,-0.0525772,-0.83617,1.44816,0.242198,-0.0975276,-0.263896
0.0479852,0.0412409,-1.63046,0.535444,-0.770164,1.75548,0.277697,-0.0675202,-0.226701
0.0330227,0.0577024,-1.59202,0.884848,-0.51635,2.11701,0.300992,-0.0778277,-0.11459
0.0228298,0.0769681,-1.54724,0.854221,-0.202244,2.34479,0.312872,-0.0998352,-0.003434
0.0169166,0.0927522,-1.49975,0.61555,-0.00517391,2.35748,0.311496,-0.100496,0.0357508
0.0130241,0.103973,-1.45343,0.451417,0.0397917,2.24302,0.324861,-0.0691577,0.0328149
0.00808304,0.113504,-1.40898,0.475558,-0.0660302,2.17462,0.353679,-0.0373746,-0.0124791
2.26708e-05,0.124701,-1.36513,0.630162,-0.206675,2.17054,0.387947,-0.0065118,-0.0585158
-0.0105423,0.138765,-1.32057,0.786262,-0.234645,2.22882,0.40839,0.0364218,-0.0856715
-0.0213997,0.154856,-1.27414,0.864203,-0.167669,2.31086,0.411736,0.073031,-0.0968331
-0.0318981,0.170859,-1.22622,0.858499,-0.0988104,2.34691,0.415965,0.110962,-0.117128
-0.0318981,0.170859,-1.22622,0.858499,-0.0988104,2.34691,0.415965,0.110962,-0.117128
-0.0414886,0.187354,-1.17741,0.987487,0.0171503,2.36449,0.407206,0.13702,-0.135563
-0.0490889,0.207365,-1.12795,1.21603,0.205916,2.36881,0.386702,0.177669,-0.129978
-0.0533237,0.230766,-1.07785,1.33042,0.466788,2.36471,0.364981,0.187097,-0.0968314
-0.0533206,0.254768,-1.028,1.29043,0.712793,2.30851,0.345963,0.193686,-0.0593646
-0.0498108,0.277399,-0.979809,1.20314,0.892568,2.18186,0.325719,0.192206,-0.0487146
-0.043419,0.299013,-0.934754,1.14427,1.01294,2.00844,0.306204,0.204962,-0.0382996
-0.0343101,0.31988,-0.893166,1.0791,1.16484,1.85456,0.283799,0.222,-0.0136421
-0.0213768,0.339438,-0.854284,0.955175,1.3807,1.75207,0.253569,0.235987,0.0250631
-0.00374558,0.356192,-0.817327,0.741839,1.62392,1.68528,0.227097,0.241881,0.0654902
0.0186846,0.368311,-0.781872,0.424842,1.86045,1.62253,0.194544,0.231073,0.0988203
0.0455646,0.374482,-0.747927,0.0969819,2.02158,1.53813,0.150067,0.228645,0.108015
0.0752823,0.375519,-0.715646,-0.168195,2.08292,1.45968,0.103705,0.225414,0.104272
0.104354,0.372654,-0.683556,-0.357462,1.94672,1.48281,0.0525204,0.221663,0.0548528
0.128296,0.368902,-0.650332,-0.338428,1.59774,1.52032,0.00248932,0.226024,-0.0242369
0.143846,0.367857,-0.617279,-0.176851,1.15061,1.49882,-0.0488303,0.219252,-0.0952597
0.152361,0.369757,-0.585616,-0.10952,0.846485,1.4137,-0.104146,0.192276,-0.108187
0.157263,0.369738,-0.557657,-0.331525,0.690154,1.12365,-0.132131,0.190869,-0.111418
0.16363,0.362785,-0.535641,-0.671345,0.751954,0.783838,-0.151169,0.161795,-0.094666
0.174661,0.349092,-0.51945,-0.886836,0.896886,0.49186,-0.166863,0.174107,-0.0996529
0.189558,0.333311,-0.507381,-0.812757,0.974109,0.372753,-0.172424,0.204646,-0.121782
0.205533,0.321779,-0.496117,-0.487739,0.97094,0.472707,-0.159953,0.210481,-0.111851
0.22077,0.318074,-0.482465,-0.186739,0.974635,0.717739,-0.151814,0.182672,-0.0412317
0.234835,0.318869,-0.464623,-0.148679,0.970918,0.925049,-0.147864,0.154313,0.046467
0.246948,0.31969,-0.443482,-0.263516,0.883679,1.01556,-0.140706,0.101458,0.108109
0.256455,0.317988,-0.421145,-0.422522,0.767382,0.969264,-0.138794,0.0609315,0.142266
0.26353,0.312939,-0.399974,-0.587489,0.561791,0.828468,-0.107839,0.0253546,0.154426
0.265994,0.30325,-0.380984,-0.8285,0.248393,0.659813,-0.066929,-0.0105656,0.153062
0.262209,0.288121,-0.363537,-1.01767,-0.12196,0.573903,-0.0185343,-0.0250372,0.115034
0.251851,0.271307,-0.346388,-1.00312,-0.419591,0.596791,0.0175778,-0.029891,0.0767964
0.236208,0.25505,-0.329002,-0.976435,-0.678515,0.631779,0.0518727,-0.0448249,0.0511479
0.217189,0.239778,-0.311555,-0.866094,-0.744468,0.66535,0.0709681,-0.0579846,0.0374371
0.198995,0.227158,-0.294466,-0.704554,-0.671884,0.692138,0.0826325,-0.055964,0.0339252
0.18273,0.217328,-0.277368,-0.57997,-0.551515,0.76495,0.102513,-0.0726627,0.0308681
0.169422,0.209186,-0.259037,-0.538905,-0.3881,0.851612,0.108775,-0.0866023,0.0374676
0.158924,0.201769,-0.239172,-0.49812,-0.266282,0.926682,0.105255,-0.102591,0.0270904
0.150366,0.196064,-0.21882,-0.348911,-0.200672,0.938974,0.0925875,-0.103194,-0.000166714
0.142389,0.194043,-0.198997,-0.131935,-0.218642,0.939487,0.079551,-0.113355,-0.0266834
0.133726,0.195896,-0.180022,0.0483876,-0.288227,0.914607,0.0595911,-0.119121,-0.0320187
0.1235,0.200604,-0.161985,0.186817,-0.367484,0.884416,0.0264704,-0.124164,-0.0367489
0.112281,0.207475,-0.14532,0.284956,-0.410282,0.790309,-0.00373109,-0.121677,-0.0314071
0.101159,0.214789,-0.131716,0.282351,-0.39172,0.587345,-0.0189546,-0.127359,-0.0232431
0.0925401,0.220848,-0.122812,0.230992,-0.2542,0.334201,-0.0314326,-0.111616,-0.0114034
0.0886932,0.225542,-0.118352,0.194677,-0.0399539,0.159993,-0.025802,-0.0935341,-0.00173813
0.0889136,0.229253,-0.115788,0.149959,0.110844,0.148001,-0.00145131,-0.0854639,-0.0196191
0.0906903,0.232583,-0.111781,0.154073,0.140084,0.291954,0.0266796,-0.0773085,-0.0527599
0.0911374,0.236488,-0.103722,0.156684,0.0855296,0.52826,0.0658797,-0.116281,-0.0835036
0.0884535,0.240192,-0.0909079,0.0868826,-0.0822715,0.719728,0.0960063,-0.165096,-0.119419
0.080232,0.242138,-0.0748972,-0.0286044,-0.360365,0.828884,0.121258,-0.204145,-0.174095
0.080232,0.242138,-0.0748972,-0.0286044,-0.360365,0.828884,0.121258,-0.204145,-0.174095
0.0650043,0.24133,-0.0567134,-0.187157,-0.739455,0.924581,0.147388,-0.210209,-0.236947
0.0403712,0.236074,-0.0361014,-0.46933,-1.22674,1.0364,0.147222,-0.147689,-0.339686
0.00695513,0.224292,-0.013736,-0.684804,-1.51598,1.09754,0.136682,-0.0657002,-0.452654
-0.02709,0.212874,0.00956191,-0.343973,-1.2774,1.18091,0.126619,0.00129339,-0.500531
-0.051519,0.210774,0.0350475,0.220022,-0.566981,1.3147,0.125628,0.0534858,-0.453024
-0.0595392,0.216119,0.0634764,0.380047,0.364098,1.38361,0.200164,0.0202571,-0.330475
-0.0510203,0.221047,0.0920079,0.258713,1.01971,1.36924,0.284956,0.0187199,-0.24429
-0.0343365,0.224271,0.121645,0.202046,1.2426,1.51557,0.330086,0.0259694,-0.21704
-0.0167652,0.227508,0.154628,0.186229,1.21673,1.64385,0.340566,0.0342966,-0.156505
-0.000384986,0.230848,0.18811,0.170701,1.19575,1.57705,0.336877,0.0397008,-0.0590132
0.0179634,0.235115,0.219331,0.220844,1.37566,1.45086,0.308444,0.0451648,0.0690409
0.0419562,0.241078,0.247842,0.279318,1.68358,1.32692,0.280406,0.0677899,0.198376
0.0725365,0.247983,0.274099,0.234365,1.97695,1.25289,0.262691,0.0778012,0.31061
0.107629,0.253352,0.299488,0.0626336,2.0983,1.24729,0.254803,0.0939116,0.385007
0.141807,0.256302,0.326393,-0.0817454,1.93946,1.384,0.255832,0.10815,0.383238
0.169898,0.258614,0.357434,-0.166252,1.61982,1.6102,0.243508,0.117099,0.385428
0.188734,0.260133,0.393485,-0.30703,1.15931,1.81697,0.231279,0.127052,0.345634
0.197464,0.260591,0.433159,-0.370376,0.746372,1.91157,0.226379,0.124167,0.297635
0.199678,0.260635,0.473551,-0.39584,0.544938,1.87139,0.199351,0.140537,0.240699
0.202323,0.259754,0.512034,-0.427505,0.786487,1.72936,0.17898,0.154548,0.187432
0.215538,0.258055,0.54719,-0.426502,1.46883,1.54074,0.129665,0.189085,0.140835
0.243396,0.255905,0.579093,-0.504843,2.04803,1.41346,0.100466,0.223427,0.0824896
0.278778,0.251269,0.6099,-0.712448,2.15834,1.32906,0.0937809,0.214118,0.00607717
0.312294,0.244018,0.640293,-0.797361,1.85731,1.27275,0.107621,0.204906,-0.0484236
0.337302,0.238055,0.670022,-0.639791,1.34161,1.26864,0.0875856,0.206684,-0.116699
0.353469,0.237921,0.698163,-0.287026,0.947177,1.28926,0.0298842,0.235912,-0.130365
0.364009,0.244489,0.724203,-0.00721775,0.763862,1.28865,-0.0181037,0.238002,-0.116552
0.37354,0.255197,0.748345,0.142578,0.815805,1.26049,-0.0619123,0.229014,-0.0799773
0.385514,0.266692,0.771049,0.0751627,0.943089,1.17966,-0.098765,0.208823,-0.0423093
0.3989,0.27485,0.792322,-0.0904449,0.923073,0.997057,-0.115221,0.205363,-0.085999
0.410614,0.278453,0.810019,-0.258741,0.678959,0.675281,-0.119804,0.207852,-0.144319
0.416417,0.276283,0.822202,-0.359298,0.233684,0.323238,-0.0823532,0.20581,-0.237311
0.416931,0.272885,0.828966,-0.191995,0.0459498,0.153061,-0.0986055,0.221888,-0.249181
0.416842,0.271236,0.831972,-0.127913,0.0414373,0.0365343,-0.0763523,0.17701,-0.196831
0.417459,0.265964,0.833101,-0.468259,0.043961,-0.178396,-0.0483646,0.0925971,-0.134147
0.418351,0.248698,0.832813,-1.0982,0.0303332,-0.559934,-0.02196,0.0366392,-0.130329
0.418003,0.217941,0.829814,-1.51584,-0.151274,-0.931476,-0.015291,0.0292693,-0.206289
0.413329,0.181593,0.823241,-1.44258,-0.456205,-1.06787,-0.00379017,0.0493402,-0.305416
0.40246,0.152557,0.814435,-0.807877,-0.778225,-0.813833,0.0138514,0.0633122,-0.358012
0.384384,0.14005,0.807434,-0.0946387,-1.11024,-0.276456,0.0348727,0.0457358,-0.3582
0.360581,0.142894,0.806433,0.329584,-1.22058,0.255816,0.0103516,0.0282425,-0.287666
0.33684,0.152892,0.811645,0.394744,-1.01938,0.51427,-0.0589966,0.0134577,-0.198111
0.320253,0.16347,0.819044,0.368478,-0.45731,0.472088,-0.12456,-0.0154794,-0.118338
0.317703,0.1732,0.823638,0.426043,0.292788,0.242874,-0.19643,-0.00452915,-0.054965
0.33115,0.183314,0.822805,0.548461,0.993479,0.0174747,-0.218533,-0.00516495,0.0204463
0.356274,0.19387,0.818074,0.578964,1.36126,-0.0853587,-0.199611,-0.0170746,0.100828
0.384983,0.203621,0.811751,0.54776,1.31583,-0.138546,-0.163637,-0.025231,0.159489
0.409638,0.212257,0.804529,0.524788,0.953285,-0.171183,-0.12138,-0.0316887,0.193951
0.409638,0.212257,0.804529,0.524788,0.953285,-0.171183,-0.12138,-0.0316887,0.193951
0.425943,0.220433,0.796786,0.525001,0.488042,-0.179631,-0.104797,-0.0190953,0.226673
0.432397,0.228411,0.788999,0.509003,-0.00513249,-0.175728,-0.0941389,0.00209543,0.241376
0.429824,0.236048,0.781303,0.486969,-0.419466,-0.183479,-0.0867807,0.0237948,0.268108
0.419746,0.243697,0.77342,0.549481,-0.715865,-0.199901,-0.0876565,0.0481765,0.254359
0.406788,0.253722,0.764062,0.725289,-0.795699,-0.224289,-0.0920092,0.0838791,0.262788
0.393382,0.266523,0.753236,0.830552,-0.787068,-0.237215,-0.0742791,0.0913971,0.248124
0.381573,0.27956,0.742048,0.740087,-0.679907,-0.262984,-0.0547619,0.0835652,0.259649
0.372148,0.289028,0.731661,0.489737,-0.544012,-0.316146,-0.0458614,0.0728322,0.254649
0.365452,0.293283,0.72203,0.240466,-0.395028,-0.388327,-0.0431467,0.0569951,0.240106
0.361336,0.292558,0.712709,0.0148049,-0.294839,-0.4649,-0.0391864,0.0395319,0.216159
0.358591,0.287568,0.703443,-0.156805,-0.247369,-0.535972,-0.0377306,0.0217797,0.18354
0.35658,0.279605,0.693926,-0.258766,-0.221817,-0.580171,-0.0238386,-0.00657094,0.150063
0.354361,0.270067,0.685041,-0.325193,-0.245478,-0.534357,-0.00113109,-0.0495034,0.100468
0.350648,0.260207,0.67832,-0.373776,-0.30504,-0.403037,0.0120361,-0.0963269,0.0419045
0.344551,0.250049,0.674794,-0.455441,-0.387689,-0.266779,0.0209357,-0.136978,-0.0303056
0.337221,0.240091,0.673553,-0.408155,-0.328366,-0.184992,0.0252281,-0.159167,-0.106935
0.333332,0.232975,0.672645,-0.223227,-0.0650522,-0.125218,0.0405174,-0.174476,-0.145025
0.335575,0.229855,0.671947,-0.0870372,0.257884,-0.0306785,0.0849119,-0.183678,-0.131775
0.342305,0.226789,0.673947,-0.335383,0.428831,0.113323,0.15017,-0.220142,-0.116256
0.348368,0.21698,0.68097,-0.808432,0.264866,0.179284,0.223327,-0.231343,-0.16623
0.346669,0.200285,0.691098,-1.04306,-0.277482,0.177263,0.251986,-0.194255,-0.267424
0.331847,0.180934,0.701616,-1.10784,-0.999494,0.151447,0.22651,-0.0693645,-0.36708
0.304604,0.161429,0.711815,-0.995049,-1.45339,0.220907,0.208653,0.0316854,-0.410305
0.276058,0.148393,0.723537,-0.531881,-1.07102,0.551266,0.159813,0.0846016,-0.329351
0.260765,0.147384,0.740728,-0.0458758,-0.184444,1.05428,0.0736955,0.100205,-0.188203
0.260864,0.154166,0.76466,0.0220555,0.511863,1.33066,0.0503042,0.0279913,-0.0495026
0.270146,0.159347,0.79039,-0.206165,0.727136,1.18302,0.0469792,-0.0375087,0.034988
0.280204,0.158808,0.811548,-0.391862,0.578188,0.79308,0.0528713,-0.0820778,0.0744861
0.286926,0.154027,0.826134,-0.451556,0.307294,0.470612,0.0453879,-0.0972833,0.100077
0.289195,0.147625,0.835992,-0.417265,0.090423,0.299873,0.0539653,-0.0766652,0.112782
0.289078,0.142384,0.843691,-0.285352,0.033357,0.305222,0.0754819,-0.0510902,0.117493
0.288973,0.140774,0.852102,-0.10794,0.0690859,0.456226,0.09276,-0.0352424,0.120854
0.288964,0.143222,0.86278,0.0307769,0.0763213,0.612679,0.106173,-0.0364515,0.119517
0.288241,0.148606,0.875202,0.130635,0.0308864,0.700166,0.104975,-0.0422328,0.115873
0.286914,0.156069,0.887872,0.228947,0.0262224,0.700009,0.0915704,-0.0341996,0.115799
0.285465,0.165554,0.899706,0.354584,0.028103,0.683469,0.072131,-0.0247454,0.106964
0.284591,0.177514,0.910577,0.483775,0.0693845,0.678169,0.0472703,-0.00777315,0.116523
0.285148,0.19178,0.920707,0.593651,0.188777,0.665008,0.0203207,0.00493768,0.141108
0.288114,0.207235,0.929983,0.608136,0.278172,0.630721,-0.00284225,0.0146236,0.16991
0.292828,0.222067,0.938298,0.569024,0.364561,0.566977,-0.0124843,0.00848517,0.202231
0.298607,0.235279,0.94574,0.461776,0.363074,0.499492,-0.0286992,-0.00358032,0.224826
0.30407,0.245201,0.952141,0.293703,0.326522,0.373357,-0.0363154,0.00143321,0.22266
0.30935,0.251116,0.956899,0.127783,0.326644,0.244669,-0.0386651,-0.00889975,0.211093
0.315456,0.253387,0.960622,-0.01513,0.356866,0.176007,-0.0458575,0.00547594,0.188473
0.321574,0.253092,0.96401,-0.115793,0.320121,0.115093,-0.0456616,0.00804347,0.13963
0.32598,0.250221,0.966433,-0.233485,0.172358,0.0205148,-0.0274428,0.00570577,0.0700261
0.327303,0.244644,0.968126,-0.339265,-0.00115247,-0.0424052,-0.0146002,0.0119102,-0.00648427
0.325323,0.237118,0.969069,-0.386371,-0.162219,-0.112366,0.00736696,0.0301137,-0.0941788
0.325323,0.237118,0.969069,-0.386371,-0.162219,-0.112366,0.00736696,0.0301137,-0.0941788
0.321153,0.22885,0.968957,-0.38511,-0.24104,-0.146875,0.0197477,0.0462088,-0.151017
0.316225,0.220925,0.968871,-0.36146,-0.231835,-0.0945351,0.0326064,0.0543984,-0.184347
0.312138,0.213508,0.970036,-0.388553,-0.15364,-0.0304028,0.0393563,0.0419218,-0.181304
0.309167,0.20478,0.972092,-0.534669,-0.10959,-0.075249,0.0371755,0.0128761,-0.168497
0.30629,0.190331,0.97309,-0.878477,-0.173214,-0.294702,0.0465276,0.00783287,-0.187752
0.303279,0.168387,0.970965,-1.10002,-0.128139,-0.520047,0.0518256,0.0552113,-0.21064
0.303775,0.144646,0.967687,-1.01872,0.162765,-0.452063,0.0747419,0.0782545,-0.256343
0.311831,0.125702,0.96618,-0.705665,0.66586,-0.259485,0.0754255,0.0899246,-0.290248
0.33163,0.114526,0.96584,-0.366104,1.26157,-0.149648,0.0302466,0.109485,-0.263791
0.359882,0.108103,0.964422,-0.207096,1.45432,-0.209662,0.0170799,0.100615,-0.260855
0.387862,0.10366,0.96088,-0.0547568,1.25431,-0.266975,0.00208503,0.0636641,-0.263057
0.410779,0.103509,0.955565,0.26979,0.977592,-0.204367,-0.0198825,0.0518713,-0.23507
0.428924,0.110306,0.949321,0.579907,0.761304,-0.0999722,-0.0521283,0.0286467,-0.189024
0.443071,0.121354,0.941153,0.734159,0.552368,-0.208356,-0.0796004,0.0234608,-0.165751
0.45477,0.132471,0.928225,0.820041,0.472027,-0.462753,-0.0992559,0.0330848,-0.147702
0.466864,0.143406,0.910122,0.959671,0.490937,-0.624706,-0.115207,0.0567031,-0.123568
0.480656,0.157047,0.889384,1.18138,0.576531,-0.531577,-0.138891,0.0730431,-0.0804275
0.495994,0.175953,0.869686,1.36402,0.602245,-0.291846,-0.173026,0.0682198,-0.0214884
0.509909,0.198553,0.851749,1.44188,0.414505,-0.191171,-0.186439,0.059312,0.0194293
0.518338,0.221877,0.833157,1.46561,0.0186373,-0.259805,-0.184677,0.041915,0.0393361
0.520081,0.244661,0.812401,1.50541,-0.284388,-0.350197,-0.199375,0.0618381,0.0671099
0.518652,0.267893,0.789957,1.56402,-0.391293,-0.365513,-0.21399,0.09339,0.108811
0.51816,0.291827,0.767237,1.58235,-0.259874,-0.337515,-0.224205,0.117521,0.165894
0.521049,0.315858,0.744859,1.51724,-0.125591,-0.327755,-0.227864,0.115106,0.209219
0.526454,0.336964,0.723049,1.3181,-0.0396094,-0.413916,-0.224091,0.105221,0.252541
0.533255,0.353213,0.701125,1.1133,-0.0433721,-0.538663,-0.216918,0.0866216,0.287441
0.538741,0.364322,0.678991,0.884976,-0.189511,-0.668223,-0.199932,0.068291,0.29805
0.541446,0.370065,0.657161,0.651253,-0.308297,-0.7643,-0.184451,0.0506864,0.312349
0.54176,0.370922,0.636636,0.397351,-0.414824,-0.830091,-0.169649,0.023181,0.319607
0.538712,0.366492,0.617099,0.175944,-0.585979,-0.963351,-0.144457,0.00612387,0.273992
0.53285,0.357978,0.596998,0.0578117,-0.700081,-1.05917,-0.110004,-0.0174012,0.238018
0.524908,0.347001,0.577224,-0.0644906,-0.754211,-1.07262,-0.0662961,-0.047326,0.197092
0.515448,0.334517,0.559537,-0.194846,-0.773943,-0.967922,-0.0179392,-0.0755568,0.145314
0.503624,0.320398,0.545619,-0.394604,-0.856433,-0.875619,0.0266371,-0.104199,0.0796658
0.488828,0.304447,0.534268,-0.441203,-0.940218,-0.813671,0.0802019,-0.10354,-0.037524
0.472696,0.290411,0.52381,-0.356958,-0.957791,-0.72308,0.121363,-0.125138,-0.146175
0.45726,0.2777,0.514702,-0.399566,-0.820947,-0.601386,0.186293,-0.150019,-0.22352
0.443544,0.265091,0.509087,-0.502289,-0.705861,-0.446904,0.207109,-0.19862,-0.301227
0.430715,0.250876,0.505403,-0.623501,-0.684401,-0.50362,0.22528,-0.195427,-0.367092
0.417726,0.233834,0.500397,-0.722904,-0.705484,-0.625322,0.239208,-0.166362,-0.414877
0.40673,0.214625,0.494982,-0.809631,-0.467672,-0.586195,0.226659,-0.0888833,-0.395209
0.402047,0.196277,0.492561,-0.731119,-0.0239094,-0.300675,0.221603,-0.0138734,-0.346889
0.404879,0.185405,0.496886,-0.39701,0.319635,0.297115,0.166249,0.00789177,-0.269119
0.407902,0.186585,0.509915,-0.0203817,0.143181,0.87678,0.102556,-0.0125543,-0.18979
0.403255,0.196333,0.528112,0.175099,-0.268895,1.07795,0.0413177,-0.0497992,-0.0739409
0.390856,0.207886,0.546035,0.187896,-0.569495,0.943857,-0.023519,-0.0703107,0.0357646
0.375684,0.216759,0.560495,0.0869569,-0.584486,0.687112,-0.0653387,-0.0789709,0.13174
0.363995,0.221344,0.571391,-0.0355939,-0.307418,0.478564,-0.0764815,-0.0742055,0.188982
0.363995,0.221344,0.571391,-0.0355939,-0.307418,0.478564,-0.0764815,-0.0742055,0.188982
0.359095,0.222746,0.579823,-0.122338,-0.00750585,0.346067,-0.0568714,-0.0679553,0.200485
0.358971,0.22248,0.586896,-0.127579,0.10506,0.299723,-0.0262615,-0.0658041,0.190237
0.358652,0.223015,0.593653,-0.0439541,-0.00436218,0.342513,-0.00207928,-0.0642138,0.169636
0.355653,0.226051,0.600865,0.0812959,-0.137808,0.421132,0.00846502,-0.0569817,0.179592
0.349907,0.231785,0.608682,0.19197,-0.243546,0.474127,0.0175535,-0.0480557,0.181083
0.343193,0.239875,0.615941,0.319723,-0.241665,0.450015,0.020536,-0.0288065,0.183369
0.337371,0.249531,0.621878,0.373481,-0.188126,0.411166,0.0277395,-0.0135028,0.177983
0.332692,0.259162,0.627191,0.364503,-0.158455,0.387811,0.035835,0.00144887,0.162962
0.328253,0.269093,0.631934,0.442373,-0.152664,0.364711,0.0411254,0.0272096,0.124623
0.324967,0.281231,0.635577,0.58357,-0.0765409,0.350686,0.0279826,0.0529295,0.113206
0.323372,0.295196,0.637962,0.642999,-0.00897093,0.30017,0.0240886,0.0662266,0.111227
0.323752,0.308796,0.63904,0.583812,0.0789806,0.218833,0.00733086,0.0739616,0.131233
0.326509,0.319584,0.638781,0.437838,0.178655,0.095442,-0.0176789,0.0893182,0.139993
0.331809,0.326566,0.636691,0.28948,0.2825,-0.0588531,-0.0421191,0.109626,0.126749
0.340012,0.330358,0.632689,0.193533,0.41073,-0.157623,-0.0596823,0.119914,0.112354
0.350079,0.33146,0.628001,0.0421818,0.395801,-0.229156,-0.0638359,0.107971,0.0812391
0.357209,0.32841,0.622439,-0.141777,0.0910152,-0.378724,-0.0337326,0.0904524,-0.00763351
0.356823,0.320741,0.614675,-0.31422,-0.368585,-0.580102,0.00136983,0.098992,-0.133281
0.348949,0.309264,0.604417,-0.403083,-0.702239,-0.699596,0.0170993,0.147711,-0.236671
0.336723,0.296837,0.593534,-0.410378,-0.795337,-0.675508,0.0222034,0.174745,-0.293205
0.324988,0.284008,0.583696,-0.53195,-0.609897,-0.641789,0.00967076,0.155556,-0.282508
0.318457,0.266404,0.57449,-0.884361,-0.301461,-0.780732,0.00713265,0.0808143,-0.235272
0.316178,0.239286,0.563038,-1.31791,-0.264612,-1.13574,0.0299852,0.0143525,-0.259404
0.312479,0.204123,0.546233,-1.42697,-0.476344,-1.44557,0.0629623,0.00982222,-0.325963
0.305162,0.171137,0.526793,-1.02872,-0.580945,-1.28128,0.0694658,0.0460049,-0.353149
0.296158,0.15257,0.510877,-0.251819,-0.56807,-0.724405,0.0427651,0.0760051,-0.28426
0.28519,0.151009,0.501973,0.255309,-0.660818,-0.211734,0.0242457,0.0448598,-0.191403
0.271194,0.155906,0.498569,0.24737,-0.788586,-0.0257134,-0.000610381,-0.00628522,-0.0895698
0.254515,0.159155,0.496989,0.111872,-0.881829,-0.0594499,-0.0385112,-0.0527131,-0.0338867
0.237132,0.160874,0.494124,0.159313,-0.884262,-0.177242,-0.0763959,-0.0602625,0.00670576
0.220673,0.164636,0.488293,0.33902,-0.825541,-0.29433,-0.0928497,-0.0608231,0.0507674
0.207566,0.171416,0.479673,0.480744,-0.605256,-0.385162,-0.0981386,-0.0500336,0.111823
0.199817,0.179406,0.469278,0.479035,-0.342536,-0.450468,-0.0862953,-0.046775,0.161455
0.197571,0.186404,0.45778,0.425563,-0.106204,-0.51783,-0.0658128,-0.0476602,0.191878
0.198752,0.192352,0.444967,0.408151,-0.042188,-0.595506,-0.0468773,-0.0384006,0.197387
0.200693,0.198143,0.43067,0.442315,-0.0418123,-0.65302,-0.0342995,-0.0184369,0.205872
0.202741,0.204578,0.415526,0.472278,-0.0665285,-0.65805,-0.0247317,-0.00695996,0.225084
0.203727,0.211514,0.400579,0.492314,-0.164186,-0.624139,-0.0150721,-0.0019891,0.235616
0.201245,0.218728,0.386409,0.480967,-0.400463,-0.582021,-0.00185931,-0.0134804,0.233787
0.193356,0.22559,0.372857,0.444154,-0.662147,-0.582534,0.0120564,-0.0408144,0.211764
0.180931,0.231316,0.359052,0.34133,-0.891899,-0.632873,0.0240202,-0.0744677,0.200397
0.164017,0.233856,0.344408,0.157587,-1.13986,-0.714895,0.0424254,-0.109883,0.172096
0.142311,0.233476,0.329063,0.0636079,-1.34156,-0.742597,0.0521875,-0.118508,0.0756583
0.118883,0.233579,0.313868,0.1534,-1.29454,-0.706905,0.031728,-0.0974272,-0.0119886
0.0982152,0.236463,0.299828,0.280754,-1.08421,-0.599808,-0.0062937,-0.0661191,-0.0611838
0.0818614,0.242238,0.288446,0.378455,-0.791416,-0.449998,-0.0375888,-0.0724252,-0.0711439
0.0715017,0.249355,0.279291,0.369925,-0.467396,-0.39885,-0.0483725,-0.0825357,-0.0519897
0.0672835,0.254818,0.269908,0.230266,-0.19065,-0.475417,-0.0343153,-0.105231,-0.0733445
0.0672835,0.254818,0.269908,0.230266,-0.19065,-0.475417,-0.0343153,-0.105231,-0.0733445
0.0686114,0.257683,0.259044,0.136519,0.0440468,-0.525391,-0.0309699,-0.0861778,-0.110106
0.0732393,0.259315,0.248682,0.113739,0.120126,-0.434803,-0.0189238,-0.0858823,-0.157653
0.0768437,0.262173,0.241278,0.248273,0.014697,-0.242887,0.00645208,-0.0839445,-0.215564
0.0753411,0.26928,0.237833,0.473025,-0.273541,-0.0360159,0.0178358,-0.0736838,-0.262847
0.0667966,0.279682,0.237355,0.524171,-0.590773,0.0381961,0.0286506,-0.0755128,-0.283584
0.0521931,0.289012,0.237091,0.383984,-0.852228,-0.0271311,0.0301029,-0.0616899,-0.290719
0.0347945,0.2945,0.235102,0.166893,-0.885164,-0.131565,0.0247241,-0.0216129,-0.28025
0.0202077,0.296229,0.232105,0.0380358,-0.595064,-0.133403,0.0129156,0.0354308,-0.244938
0.0143668,0.297822,0.230337,0.1633,-0.0124758,-0.0179026,0.0249624,0.0745207,-0.181953
0.0198196,0.30372,0.231809,0.404431,0.573362,0.176357,0.056162,0.0825343,-0.104947
0.032914,0.312653,0.237132,0.421021,0.793586,0.336762,0.0843336,0.0738345,-0.0327286
0.0450589,0.319544,0.244514,0.21863,0.613031,0.376057,0.116325,0.0540778,0.00803137
0.0521083,0.322256,0.252173,0.0280052,0.341561,0.352522,0.113621,0.0442918,0.0467386
0.055465,0.322245,0.259494,-0.0473195,0.258696,0.349152,0.0922381,0.0696266,0.0931711
0.0589349,0.321801,0.267365,-0.0305703,0.35684,0.391005,0.0715031,0.0824192,0.132262
0.065036,0.322197,0.275872,0.020439,0.510176,0.411227,0.0663753,0.0900276,0.17493
0.0735432,0.323449,0.284631,0.0359256,0.586967,0.41666,0.0588428,0.0863327,0.220789
0.0823878,0.32426,0.293207,-0.0301594,0.549174,0.39512,0.0558899,0.0786632,0.25885
0.0891617,0.323049,0.301476,-0.1592,0.367104,0.379404,0.0560501,0.0718696,0.275026
0.091614,0.319409,0.31004,-0.260213,0.146067,0.399374,0.0560094,0.0557967,0.28803
0.0903307,0.314614,0.319197,-0.275066,0.0434227,0.411586,0.0500689,0.045457,0.287432
0.0886054,0.31066,0.328116,-0.181542,0.0646922,0.392592,0.0457512,0.0477828,0.266695
0.0880669,0.308834,0.33648,-0.0762145,0.137105,0.387192,0.0405367,0.0327998,0.250403
0.0884702,0.30851,0.344411,-0.0312723,0.126817,0.354741,0.0564721,0.00749654,0.220805
0.0882509,0.308383,0.351273,-0.0587684,0.050868,0.28831,0.0699063,-0.0140473,0.208868
0.0860144,0.306231,0.356888,-0.217136,-0.11461,0.225115,0.0811133,-0.0343024,0.18686
0.0804678,0.300291,0.361772,-0.397549,-0.285039,0.196891,0.094679,-0.0518126,0.151607
0.0717796,0.291545,0.366639,-0.483149,-0.42791,0.198643,0.0857273,-0.0504431,0.0921296
0.0611047,0.28242,0.37135,-0.437611,-0.489124,0.188034,0.0639874,-0.037634,0.0370522
0.0502044,0.274906,0.375595,-0.328127,-0.471575,0.181156,0.0357159,-0.0167977,-0.00722188
0.0401625,0.269571,0.379831,-0.223603,-0.405051,0.202742,0.0282081,-0.0255824,-0.0360681
0.0321475,0.265848,0.384509,-0.1745,-0.259695,0.236165,0.0253837,-0.0331706,-0.0348504
0.027355,0.262715,0.390205,-0.146969,-0.0659051,0.303579,0.0199431,-0.0418101,-0.0371754
0.0261692,0.260614,0.397503,-0.0815374,0.123788,0.391929,0.0135968,-0.0620128,-0.0343125
0.0264547,0.258969,0.406391,-0.124507,0.0859455,0.442643,0.00925101,-0.0856673,-0.0599287
0.0243825,0.255715,0.41521,-0.216097,-0.0808666,0.382672,-0.0059482,-0.0818714,-0.119704
0.019123,0.25099,0.422043,-0.258791,-0.258539,0.269488,-0.026793,-0.0541121,-0.201081
0.0121457,0.246371,0.426838,-0.193674,-0.290825,0.193045,-0.0750416,-0.00884555,-0.264307
0.00657947,0.243475,0.430151,-0.107772,-0.155181,0.124245,-0.109779,0.0353581,-0.29543
0.00501659,0.241239,0.43218,-0.137019,0.0296992,0.062368,-0.119343,0.043304,-0.270791
0.00657685,0.236888,0.431937,-0.317779,0.0844557,-0.108582,-0.104446,0.0505514,-0.233698
0.00730373,0.227386,0.426912,-0.640127,-0.187672,-0.397288,-0.0760549,0.0487655,-0.23321
0.00136106,0.211617,0.415788,-0.879644,-0.617127,-0.675092,-0.0766939,0.0668679,-0.253372
-0.00971751,0.194585,0.400435,-0.761875,-0.760031,-0.789718,-0.098132,0.105454,-0.233854
-0.0204549,0.183954,0.384474,-0.288571,-0.568653,-0.725163,-0.0818051,0.12347,-0.166415
-0.0268988,0.183143,0.371817,0.135076,-0.294544,-0.486492,-0.0419136,0.108772,-0.0741017
-0.0286556,0.186971,0.365061,0.162344,-0.0167088,-0.185611,-0.0188753,0.0797738,0.0393279
-0.0286556,0.186971,0.365061,0.162344,-0.0167088,-0.185611,-0.0188753,0.0797738,0.0393279
-0.027513,0.188392,0.363982,-0.0371638,0.0783594,0.0592963,-0.0318304,0.054864,0.102403
-0.0264084,0.186074,0.366098,-0.163751,0.0579238,0.123215,-0.0481929,0.0229383,0.141835
-0.0266742,0.182765,0.367525,-0.14361,-0.0684311,0.00353709,-0.0517151,0.00425862,0.160882
-0.0291576,0.180313,0.365352,-0.109925,-0.217886,-0.219162,-0.0572262,-0.00968789,0.180009
-0.0332845,0.178304,0.358197,-0.116404,-0.304721,-0.46674,-0.0573066,-0.00344032,0.191853
-0.0375664,0.17619,0.346938,-0.1261,-0.300946,-0.602111,-0.0424611,0.000551373,0.189253
-0.0397822,0.174778,0.334603,-0.0454811,-0.10483,-0.578588,-0.0334203,0.00758371,0.195381
-0.0377227,0.175592,0.323808,0.0745201,0.103297,-0.470489,-0.0410827,0.0171288,0.220846
-0.0333719,0.177798,0.315454,0.101508,0.157926,-0.368392,-0.0390749,0.0015545,0.239394
-0.0293997,0.179819,0.308055,0.0789608,0.0941394,-0.379653,-0.0358368,-0.015393,0.250617
-0.0274674,0.181044,0.299555,0.0167259,-0.0666388,-0.459624,-0.0283896,-0.033902,0.2362
-0.0285782,0.180753,0.289404,-0.0743717,-0.214604,-0.530766,-0.0211618,-0.0573974,0.209763
-0.0317193,0.178476,0.278011,-0.179866,-0.28431,-0.573119,-0.0194032,-0.0752169,0.171838
-0.0352067,0.174586,0.266043,-0.240922,-0.255149,-0.58155,-0.0190924,-0.0750177,0.12257
-0.037445,0.169851,0.254397,-0.265632,-0.165858,-0.53607,-0.0138837,-0.0700853,0.0788065
-0.0381603,0.164956,0.243979,-0.257349,-0.0824047,-0.461184,-0.00821953,-0.0621553,0.0518391
-0.0377814,0.160418,0.23522,-0.222603,-0.027635,-0.377427,0.00654096,-0.0624986,0.044226
-0.0367831,0.15671,0.228424,-0.176178,0.0119572,-0.275697,0.0221335,-0.0802131,0.0545524
-0.0361169,0.153236,0.223594,-0.198786,-0.038855,-0.189122,0.0364031,-0.102612,0.0547002
-0.0376752,0.149341,0.220185,-0.178115,-0.1606,-0.132537,0.0395663,-0.105166,0.0122002
-0.0411586,0.146519,0.217825,-0.123033,-0.218704,-0.0916962,0.0314593,-0.110627,-0.00590682
-0.0455904,0.143769,0.216161,-0.156397,-0.233135,-0.0639952,0.0334315,-0.125097,-0.0427174
-0.0494164,0.140882,0.214995,-0.12862,-0.158336,-0.0346622,0.0250727,-0.12646,-0.0815049
-0.0518651,0.138195,0.214045,-0.148787,-0.097638,-0.0558495,-0.00106633,-0.113633,-0.147996
-0.0536219,0.135001,0.212167,-0.166771,-0.118747,-0.118787,0.00890379,-0.144721,-0.22822
-0.0561032,0.132418,0.208425,-0.107544,-0.176772,-0.244989,0.0192669,-0.149432,-0.290252
-0.0594516,0.131073,0.202108,-0.0750962,-0.227433,-0.356015,0.0385212,-0.147057,-0.306228
-0.0626912,0.129143,0.19432,-0.191522,-0.186194,-0.37746,0.0367683,-0.116577,-0.273657
-0.0645753,0.123695,0.187052,-0.391066,-0.0798971,-0.28774,0.0333672,-0.0682399,-0.250554
-0.0633958,0.11515,0.182263,-0.458654,0.154559,-0.122033,0.0403966,-0.0224026,-0.213269
-0.0575267,0.106908,0.181191,-0.345492,0.417228,0.0671704,0.0656811,0.00375332,-0.165572
-0.0475464,0.101283,0.184358,-0.209688,0.56756,0.275851,0.109846,-0.00850872,-0.0934378
-0.0380397,0.0971931,0.191732,-0.18724,0.403965,0.463545,0.150171,-0.0177059,-0.0625837
-0.0341729,0.0921714,0.202431,-0.286277,0.0639931,0.607108,0.173593,-0.0181885,-0.0465589
-0.0375558,0.0854923,0.215446,-0.291331,-0.262861,0.702066,0.168712,0.0205842,-0.0674194
-0.0455008,0.081054,0.230291,-0.0700943,-0.364444,0.786651,0.165117,0.0529807,-0.0697443
-0.0526816,0.0816625,0.247465,0.211643,-0.173073,0.924617,0.156592,0.0713027,-0.0316318
-0.0548417,0.0870537,0.26825,0.411721,0.122433,1.09686,0.158336,0.0605919,0.0410259
-0.0523141,0.0948708,0.292192,0.480601,0.326833,1.22341,0.169594,0.035616,0.118668
-0.0470931,0.103451,0.318075,0.494642,0.441567,1.28175,0.159815,0.0207015,0.183431
-0.0403294,0.112,0.344212,0.452193,0.491027,1.25286,0.166348,-0.00378861,0.243842
-0.0339187,0.11882,0.368986,0.29997,0.413956,1.15613,0.168698,-0.0184677,0.266609
-0.0297327,0.122119,0.390983,0.101409,0.275237,1.0004,0.17593,-0.0208543,0.253024
-0.0274421,0.122367,0.409669,-0.00168248,0.177862,0.854478,0.192608,-0.0201648,0.217735
-0.0270252,0.122705,0.426694,0.114924,0.0856701,0.847861,0.201745,0.011924,0.135338
-0.0279286,0.12629,0.444736,0.271667,0.0531575,0.925656,0.219826,0.0330129,0.0880542
-0.0292887,0.131645,0.46435,0.302683,0.0795457,0.988025,0.231012,0.0503784,0.0573589
-0.0290517,0.13721,0.485157,0.315192,0.233688,1.04475,0.224362,0.0650793,0.0514322
-0.0290517,0.13721,0.485157,0.315192,0.233688,1.04475,0.224362,0.0650793,0.0514322
-0.025699,0.142693,0.50684,0.273955,0.385948,1.06704,0.215727,0.081647,0.042351
-0.0208676,0.146749,0.528727,0.181721,0.403842,1.08007,0.223294,0.0862562,0.0198743
-0.0161609,0.149268,0.551369,0.12514,0.391105,1.1519,0.221379,0.0917531,-0.000888169
-0.0122778,0.151463,0.575945,0.129105,0.353328,1.26976,0.210638,0.109335,-0.026782
-0.00975303,0.153858,0.603239,0.147672,0.316614,1.41323,0.190897,0.121361,-0.0508307
-0.00785946,0.157375,0.633359,0.232136,0.336695,1.53739,0.158778,0.122134,-0.0645734
-0.00610517,0.162186,0.665465,0.241675,0.344574,1.60792,0.135236,0.11306,-0.0668069
-0.00440924,0.165837,0.698911,0.126716,0.373988,1.67026,0.105469,0.0888449,-0.0691947
-0.00238897,0.167077,0.733291,0.0160704,0.38242,1.69577,0.0803892,0.0644485,-0.0801356
-0.00146764,0.166579,0.767751,-0.0422719,0.25647,1.68465,0.0739571,0.0252154,-0.120228
-0.00442301,0.16614,0.80195,0.0222261,-0.0296843,1.67647,0.0492077,-0.0215431,-0.161088
-0.015302,0.167597,0.836288,0.153627,-0.489495,1.68777,0.00912089,-0.0777238,-0.181638
-0.0351412,0.170224,0.870007,0.138092,-0.892114,1.57709,-0.0273855,-0.14299,-0.149308
-0.0606561,0.16831,0.898754,-0.250795,-1.15235,1.21546,-0.00366842,-0.203531,-0.122999
-0.0882469,0.157045,0.918137,-0.665792,-1.21845,0.778935,0.026501,-0.198061,-0.174612
-0.111586,0.142913,0.929623,-0.5405,-0.88591,0.519632,0.0237022,-0.122511,-0.223412
-0.124812,0.135997,0.938999,-0.00237713,-0.292606,0.531143,0.0642418,-0.0359759,-0.240497
-0.12819,0.139479,0.952775,0.456729,0.0546951,0.785564,0.101223,0.0349468,-0.265609
-0.130664,0.14771,0.972389,0.583189,-0.0487944,1.00713,0.100951,0.124468,-0.333332
-0.136692,0.158284,0.995464,0.790313,-0.16539,1.07472,0.0852162,0.194489,-0.357482
-0.142646,0.174133,1.01947,1.08016,-0.00118478,1.02846,0.039854,0.273184,-0.313624
-0.143077,0.19477,1.04318,1.24179,0.406375,0.979469,-0.00839113,0.313872,-0.21039
-0.134087,0.217129,1.06601,1.24117,0.951411,0.911031,-0.00925389,0.302997,-0.0596656
-0.114351,0.238907,1.08697,1.1295,1.44281,0.836734,-0.00107749,0.278267,0.0945547
-0.0866552,0.257651,1.10573,0.877793,1.72229,0.786641,0.0165209,0.236377,0.210723
-0.0558059,0.27116,1.12294,0.576419,1.75587,0.770439,0.0221227,0.210583,0.285203
-0.0264656,0.279326,1.13946,0.306617,1.58494,0.780136,0.0131077,0.192364,0.325605
-0.00239887,0.283216,1.15627,0.117564,1.25974,0.827865,0.00575182,0.165934,0.336349
0.0142166,0.284619,1.17443,0.0208586,0.900499,0.909115,-0.0105619,0.144225,0.334092
0.022784,0.284815,1.19434,-0.032653,0.495764,0.986452,-0.0337508,0.133198,0.320488
0.0232358,0.284608,1.21556,-0.0276401,0.152553,1.02924,-0.0551207,0.11266,0.320505
0.0160854,0.285279,1.23731,0.0731261,-0.263862,1.04399,-0.0561908,0.113777,0.291292
0.000741339,0.289382,1.25948,0.341375,-0.617073,1.07468,-0.0757685,0.114904,0.285096
-0.0206965,0.29928,1.28241,0.64995,-0.844157,1.09827,-0.0810702,0.121599,0.297629
-0.0464681,0.312823,1.30639,0.723185,-0.965707,1.1296,-0.0798874,0.10726,0.312243
-0.0725093,0.323985,1.33114,0.475892,-0.811044,1.13248,-0.0787384,0.086612,0.346683
-0.0930127,0.327167,1.3555,0.00955103,-0.417903,1.12839,-0.0775905,0.051876,0.36924
-0.103862,0.319725,1.37865,-0.536262,0.0677235,1.11322,-0.082121,0.0091148,0.360985
-0.105531,0.301456,1.39969,-1.03841,0.364979,1.04476,-0.0796821,-0.028315,0.285363
-0.101976,0.275466,1.41726,-1.32102,0.446283,0.874954,-0.0648349,-0.0379565,0.178689
-0.0975962,0.246739,1.43066,-1.35598,0.31805,0.711445,-0.0421828,-0.0323678,0.050045
-0.0954493,0.220373,1.44262,-1.09618,0.188009,0.731641,-0.0304134,-0.0377542,-0.0455019
-0.0952446,0.201186,1.45757,-0.663568,0.164315,0.923299,0.00266746,-0.0414255,-0.0922375
-0.0950254,0.18907,1.4785,-0.385647,0.276165,1.23253,0.0189424,-0.0622527,-0.0986982
-0.0928534,0.179095,1.50594,-0.386531,0.434771,1.51601,0.0380907,-0.100136,-0.107041
-0.0886625,0.167022,1.5377,-0.538508,0.499234,1.6558,0.0471989,-0.13542,-0.161496
-0.0841323,0.152332,1.56959,-0.623744,0.442159,1.55904,0.0542209,-0.12438,-0.252076
-0.0800103,0.138327,1.59837,-0.488729,0.399813,1.39629,0.0385732,-0.108467,-0.330729
-0.0800103,0.138327,1.59837,-0.488729,0.399813,1.39629,0.0385732,-0.108467,-0.330729
-0.075173,0.129251,1.62536,-0.220492,0.454438,1.33288,0.0472847,-0.119385,-0.35805
-0.0690991,0.123897,1.65199,-0.157914,0.469829,1.34278,0.08916,-0.111375,-0.35827
-0.062786,0.118692,1.67973,-0.169876,0.498962,1.43702,0.121691,-0.105204,-0.333043
-0.0556084,0.114733,1.71036,-0.0135628,0.583926,1.62371,0.143166,-0.0772146,-0.282997
-0.0469589,0.115888,1.74574,0.333771,0.683524,1.86742,0.169292,-0.0640895,-0.199727
-0.0370049,0.124897,1.78679,0.709966,0.784937,2.14091,0.186061,-0.076523,-0.0705415
-0.0270882,0.139276,1.83294,0.808472,0.793852,2.3419,0.207517,-0.11856,0.0366149
-0.0194293,0.152805,1.88182,0.620091,0.643353,2.41203,0.221259,-0.154537,0.094851
-0.0171854,0.16152,1.93038,0.334657,0.32504,2.32162,0.233041,-0.158167,0.0832586
-0.0217618,0.165552,1.97602,0.183147,-0.0369842,2.14978,0.227365,-0.131102,0.045405
-0.0322772,0.168286,2.01814,0.232988,-0.2934,1.98234,0.227067,-0.0916167,8.22544e-06
-0.045879,0.173881,2.05783,0.500164,-0.325859,1.89633,0.227056,-0.0424479,-0.0455041
-0.0571334,0.184789,2.09745,0.746434,-0.0911559,1.93657,0.211831,0.0111317,-0.0387399
-0.0644879,0.19793,2.13887,0.788011,0.147107,2.02228,0.225188,0.0349127,-0.0539263
-0.0678357,0.211284,2.1821,0.822224,0.39509,2.08347,0.222221,0.0537099,-0.0451773
-0.067539,0.225232,2.22608,0.848257,0.562048,2.06678,0.199023,0.0741474,-0.0371846
-0.0655644,0.239988,2.26885,0.896648,0.603375,1.94767,0.177196,0.088979,-0.0395505
-0.063058,0.256467,2.3083,0.977004,0.604629,1.735,0.163998,0.100635,-0.0285421
-0.060322,0.274336,2.34333,0.997542,0.585599,1.51438,0.158907,0.113895,-0.0119544
-0.0566696,0.292334,2.37447,0.954744,0.672225,1.35818,0.141303,0.13473,0.0176517
-0.04912,0.309293,2.4029,0.865779,0.923266,1.25281,0.123675,0.141971,0.0665123
-0.0362565,0.324119,2.42907,0.705344,1.15613,1.15531,0.103575,0.142967,0.093854
-0.0191891,0.335593,2.45252,0.490526,1.27812,1.01572,0.0746056,0.147566,0.10313
0.000719387,0.343037,2.47244,0.269967,1.37104,0.842012,0.0370881,0.140319,0.113017
0.0235443,0.346175,2.48823,0.0263608,1.42222,0.627902,0.00823474,0.125831,0.110857
0.048794,0.345167,2.49921,-0.148735,1.45518,0.400375,-0.0166162,0.128973,0.0998568
0.0762328,0.341615,2.50583,-0.225896,1.50314,0.198213,-0.0441702,0.125734,0.0651347
0.105525,0.336866,2.50876,-0.278268,1.48804,0.04376,-0.0521677,0.123514,0.0355151
0.133349,0.330321,2.50951,-0.382048,1.26927,-0.0443025,-0.0441014,0.114325,-0.00705504
0.155386,0.322132,2.50913,-0.384722,0.90381,-0.100635,-0.0477563,0.123139,-0.0684353
0.16997,0.316105,2.50805,-0.17064,0.502347,-0.0787331,-0.0578357,0.117065,-0.108012
0.176394,0.314755,2.50754,0.0162057,0.133192,-0.0014746,-0.0528457,0.0637642,-0.100519
0.176978,0.314612,2.50741,-0.0796831,-0.0477363,-0.0307789,-0.0602368,0.0509634,-0.0574668
0.176535,0.310028,2.50645,-0.367207,-0.01766,-0.152983,-0.0618388,0.0247665,-0.0215824
0.177835,0.298887,2.50334,-0.642039,0.0817402,-0.31432,-0.0598793,0.0695265,-0.0262494
0.182666,0.285303,2.49992,-0.575182,0.298354,-0.197513,-0.057549,0.076279,-0.00524086
0.190371,0.276784,2.50097,-0.278867,0.461014,0.160246,-0.0397786,0.0459838,0.0414848
0.196783,0.27483,2.50837,-0.0762744,0.340476,0.477701,-0.00754483,0.0231529,0.0821409
0.197368,0.276177,2.52019,-0.0382198,0.0292739,0.631132,0.0263842,-0.0160468,0.116202
0.191326,0.277191,2.53385,-0.138465,-0.250592,0.652646,0.0549523,-0.0492667,0.146167
0.179892,0.27455,2.54789,-0.386798,-0.485024,0.619862,0.0789836,-0.0605053,0.151711
0.165244,0.266501,2.56245,-0.629711,-0.572994,0.626542,0.0915272,-0.0615168,0.151127
0.149432,0.25458,2.57797,-0.74957,-0.59339,0.663599,0.0969799,-0.0382462,0.109404
0.133149,0.241646,2.59434,-0.725396,-0.635135,0.722724,0.119407,-0.0353415,0.0738777
0.115872,0.230361,2.61164,-0.587322,-0.679515,0.797004,0.129888,-0.0312843,0.058471
0.0972774,0.221903,2.62977,-0.44402,-0.780818,0.862677,0.145797,-0.0387638,0.0698829
0.0761099,0.215507,2.64888,-0.366397,-0.906843,0.926389,0.156664,-0.0543609,0.0902969
0.0536268,0.209125,2.66868,-0.420028,-0.883388,0.948674,0.14999,-0.0482702,0.105759
0.0536268,0.209125,2.66868,-0.420028,-0.883388,0.948674,0.14999,-0.0482702,0.105759
0.033488,0.199788,2.68879,-0.594388,-0.691528,0.972221,0.14379,-0.057596,0.100821
0.018354,0.187367,2.70937,-0.661208,-0.420828,1.00042,0.127461,-0.0563879,0.0711083
0.00856252,0.174939,2.73007,-0.588872,-0.199894,0.999234,0.108527,-0.0552612,0.0248317
0.00230918,0.164226,2.7501,-0.485768,-0.110956,0.952144,0.0938828,-0.0574583,-0.0113822
-0.00289949,0.155685,2.76855,-0.354612,-0.112224,0.849028,0.0769306,-0.0590244,-0.0484602
-0.00716836,0.150155,2.78445,-0.188238,-0.0720688,0.72675,0.0677719,-0.0510156,-0.050752
-0.0100833,0.14733,2.79882,-0.0944349,-0.00206859,0.702846,0.06428,-0.0562509,-0.0354046
-0.0111716,0.145592,2.81339,-0.0653062,0.114147,0.737607,0.0567228,-0.0550099,-0.00511789
-0.00988322,0.144236,2.82888,-0.0550539,0.236771,0.787651,0.0493312,-0.07155,0.0294389
-0.00638611,0.143302,2.8452,-0.0211798,0.34313,0.815862,0.0490758,-0.0870926,0.0531605
-0.00119756,0.143383,2.862,0.0268192,0.399166,0.840932,0.0492505,-0.0985472,0.0698156
0.0039799,0.144123,2.8796,0.0343671,0.356818,0.88931,0.0617352,-0.123297,0.0585026
0.00781628,0.144108,2.89771,-0.0715849,0.274367,0.887172,0.085786,-0.14353,0.0204422
0.00966346,0.140294,2.91571,-0.336288,0.171323,0.888427,0.101928,-0.147122,-0.0670003
0.00908361,0.131732,2.93449,-0.487493,0.037112,0.974407,0.124311,-0.134564,-0.193519
0.00731848,0.123431,2.9564,-0.312836,0.0956144,1.20214,0.11763,-0.105566,-0.279805
0.00759426,0.120383,2.98347,-0.0205488,0.251419,1.46371,0.0892473,-0.0746253,-0.318927
0.00976349,0.122068,3.01476,0.14167,0.332964,1.61159,0.101439,-0.0752416,-0.329495
0.0125901,0.124904,3.04794,0.0592412,0.341778,1.64869,0.091024,-0.0738915,-0.304439
0.014209,0.123977,3.08018,-0.221555,0.197285,1.50512,0.0647885,-0.00899992,-0.324701
0.0128143,0.116872,3.10837,-0.474205,0.0172291,1.27077,0.0408623,0.0685404,-0.387503
0.00989319,0.108973,3.13288,-0.26459,-0.0120589,1.17781,0.0337295,0.15696,-0.42668
0.00862881,0.109356,-3.1255,0.310049,0.20191,1.31998,0.0461714,0.215873,-0.377592
0.0126319,0.121131,-3.09561,0.756871,0.515351,1.64924,0.036991,0.221329,-0.223776
0.0201782,0.137502,-3.06037,0.757449,0.646657,1.8103,0.0490291,0.182327,-0.0993466
0.0273174,0.151657,-3.02471,0.54441,0.538297,1.69388,0.0612869,0.145812,-0.0226805
0.0312127,0.160979,-2.99317,0.298893,0.347491,1.4178,0.0692935,0.122351,0.0184504
0.033019,0.166285,-2.9672,0.179557,0.282377,1.16625,0.0833481,0.12252,0.0415925
0.0356408,0.170951,-2.94467,0.212704,0.362387,1.08341,0.10159,0.12828,0.0579635
0.0404722,0.17631,-2.92247,0.225068,0.511955,1.1223,0.134238,0.127531,0.074176
0.0482439,0.181335,-2.89868,0.162857,0.684752,1.23175,0.166692,0.110824,0.103828
0.0587096,0.185058,-2.87248,0.070255,0.811297,1.33573,0.182759,0.0848972,0.131806
0.0698638,0.187447,-2.84497,-0.00284411,0.77874,1.34411,0.186039,0.070964,0.150817
0.0790337,0.188679,-2.81824,-0.0736711,0.613756,1.25809,0.181788,0.0542297,0.181839
0.0840292,0.187952,-2.79374,-0.201722,0.32867,1.11873,0.177115,0.0406836,0.204326
0.0834277,0.184713,-2.7718,-0.267287,0.0239366,1.0071,0.175914,0.0426584,0.183061
0.0779111,0.18247,-2.75119,-0.0857598,-0.187715,1.00347,0.151548,0.0700389,0.138252
0.0697932,0.184723,-2.73042,0.150854,-0.226792,1.04073,0.123131,0.0910531,0.104038
0.061273,0.190269,-2.70935,0.238186,-0.232403,1.03537,0.101797,0.0977842,0.0761495
0.0529807,0.196447,-2.68906,0.264949,-0.194687,0.972318,0.0793645,0.0817365,0.0779467
0.0459116,0.202908,-2.67031,0.277658,-0.133776,0.885802,0.0434555,0.0713918,0.0936716
0.040961,0.20896,-2.65325,0.257693,0.00482629,0.796487,0.00126197,0.0809472,0.0994054
0.0397927,0.214576,-2.63789,0.23438,0.203441,0.720586,-0.0333309,0.0894128,0.114599
0.0421801,0.219096,-2.62404,0.154097,0.300567,0.631295,-0.0587834,0.0819255,0.122458
0.0455845,0.221574,-2.61283,0.0460263,0.26367,0.457683,-0.0648099,0.0773094,0.113928
0.0481118,0.22201,-2.60549,-0.0240295,0.132365,0.2588,-0.0576093,0.0668247,0.0789576
0.0487264,0.221565,-2.60189,-0.0166309,0.097819,0.0963036,-0.0450598,0.0616598,0.00343442
0.0541662,0.221454,-2.60091,-0.0230322,0.472,0.00405391,-0.0654213,0.0573404,0.025952
0.0541662,0.221454,-2.60091,-0.0230322,0.472,0.00405391,-0.0654213,0.0573404,0.025952
0.0679418,0.220267,-2.60121,-0.0915598,0.868266,-0.0307949,-0.0910295,0.0678244,0.0216988
0.0856212,0.217619,-2.60139,-0.171742,0.804941,0.00609984,-0.0486486,0.021707,-0.0149861
0.0984406,0.213518,-2.60014,-0.253774,0.442899,0.0743036,0.0182385,-0.024749,-0.0321091
0.100775,0.208446,-2.59782,-0.233633,-0.0468881,0.0952144,0.0677723,-0.0415339,-0.146666
0.100756,0.204929,-2.59596,-0.159555,0.107612,0.0282579,0.0195921,-0.0391626,-0.128841
0.106683,0.201909,-2.59685,-0.12221,0.421162,-0.151646,-0.0224844,-0.0094206,-0.18131
0.115055,0.199666,-2.6012,-0.049845,0.269298,-0.272289,-0.0135365,0.0162431,-0.263484
0.116293,0.198423,-2.60672,-0.0126304,-0.32381,-0.270692,0.0213778,0.000102237,-0.300489
0.107964,0.196693,-2.6122,-0.158991,-0.575464,-0.294082,0.0132964,-0.0196154,-0.242109
0.0962254,0.189128,-2.61829,-0.529813,-0.634052,-0.376974,0.00521505,0.013625,-0.286703
0.0859628,0.174836,-2.62501,-0.79866,-0.528776,-0.397089,-0.0279685,0.072643,-0.303595
0.0772583,0.158453,-2.63155,-0.657018,-0.364552,-0.352968,-0.0660523,0.113555,-0.350129
0.074354,0.15124,-2.63723,0.0290238,-0.0548996,-0.259913,-0.0922974,0.142455,-0.240694
0.0744411,0.158661,-2.6422,0.68703,-0.0792251,-0.171853,-0.0611549,0.125556,-0.151663
0.0703159,0.174955,-2.64665,0.89143,-0.406686,-0.154857,-0.0398581,0.0936041,-0.0925128
0.0613139,0.191537,-2.651,0.744911,-0.525459,-0.158156,-0.0707903,0.074569,0.0155889
0.0524742,0.20401,-2.65473,0.519595,-0.385885,-0.129997,-0.101381,0.0541759,0.087167
0.0482416,0.213012,-2.6573,0.407336,-0.0847252,-0.0748887,-0.12715,0.0588317,0.136189
0.0498287,0.22115,-2.65888,0.427168,0.266866,-0.0558611,-0.115856,0.0599584,0.186883
0.0536311,0.228932,-2.66107,0.368742,0.0101408,-0.116265,-0.0679844,0.048227,0.120641
0.0543975,0.236643,-2.66477,0.420484,-0.000297171,-0.20613,-0.0491322,0.0457349,0.270329
0.0533268,0.244996,-2.67026,0.426326,-0.240244,-0.266043,-0.0426004,0.0405415,0.213174
0.0501786,0.252951,-2.67615,0.375632,-0.171861,-0.248471,-0.0474323,0.0282008,0.288859
0.0486985,0.258801,-2.68085,0.210246,-0.126167,-0.17233,-0.0550537,0.0131845,0.291952
0.0468717,0.261101,-2.68409,0.0488523,-0.13428,-0.14586,-0.0662015,0.00857189,0.269901
0.0451605,0.261457,-2.68785,0.0203528,-0.145234,-0.218947,-0.0561383,0.0203745,0.255145
0.0427316,0.261908,-2.6932,0.0540937,-0.232991,-0.287003,-0.0598165,0.0192693,0.226979
0.0387784,0.263157,-2.69962,0.0939409,-0.315824,-0.319377,-0.0648845,0.00405738,0.2085
0.0342662,0.264931,-2.70669,0.0900544,-0.31485,-0.35415,-0.0641311,-0.0107097,0.21134
0.0305996,0.265659,-2.71458,-0.00103634,-0.247927,-0.401576,-0.0560413,-0.0358557,0.190344
0.0284909,0.263739,-2.72347,-0.175169,-0.205225,-0.459126,-0.0455989,-0.0526933,0.159473
0.0268323,0.258186,-2.73319,-0.34764,-0.214608,-0.486678,-0.0361479,-0.0666331,0.110885
0.0244773,0.249893,-2.74318,-0.421708,-0.276181,-0.493616,-0.0242487,-0.0706315,0.0351921
0.0211826,0.241719,-2.75301,-0.368542,-0.280335,-0.474287,-0.0188257,-0.0693747,-0.0107198
0.0176834,0.234437,-2.76232,-0.347113,-0.291418,-0.430675,-0.017275,-0.0755206,-0.0707043
0.0139013,0.226961,-2.77047,-0.387052,-0.251945,-0.364705,-0.00965339,-0.0909008,-0.122663
0.0118862,0.218891,-2.77699,-0.40304,-0.0792554,-0.276725,-0.00876414,-0.104019,-0.149922
0.0130779,0.210793,-2.78173,-0.382627,0.0979372,-0.189949,0.00993229,-0.107659,-0.191896
0.0168175,0.203937,-2.78426,-0.288778,0.200535,-0.0654821,0.0254477,-0.111179,-0.205218
0.0207532,0.198948,-2.78458,-0.225755,0.163981,0.0135218,0.0399146,-0.110025,-0.208672
0.0225072,0.193923,-2.78417,-0.288998,0.00672773,0.00589815,0.0463675,-0.0967801,-0.212383
0.0214209,0.186884,-2.78453,-0.408513,-0.10377,-0.0561991,0.0498156,-0.0623561,-0.208525
0.0193917,0.177953,-2.7855,-0.449066,-0.0916856,-0.0336777,0.0548751,-0.0195179,-0.204286
0.0185279,0.170142,-2.78468,-0.311122,0.0182583,0.112518,0.0711267,0.00802174,-0.171667
0.0182324,0.166168,-2.7804,-0.0811569,-0.00152413,0.307398,0.109339,0.0232989,-0.128379
0.0148036,0.166698,-2.77221,0.0863954,-0.234202,0.477668,0.114308,0.00760183,-0.0632254
0.0068672,0.168002,-2.76224,-0.00684127,-0.347054,0.466692,0.127904,-0.012124,0.0020262
-0.000780004,0.165838,-2.75403,-0.199597,-0.257362,0.340333,0.174979,-0.00749846,0.0499093
-0.000780004,0.165838,-2.75403,-0.199597,-0.257362,0.340333,0.174979,-0.00749846,0.0499093
-0.00544738,0.161163,-2.74733,-0.231813,-0.10144,0.355603,0.157141,0.0308889,0.0750088
-0.00814906,0.157516,-2.73821,-0.109885,-0.0340578,0.560219,0.123252,0.0344135,0.0574725
-0.0102961,0.156603,-2.72473,0.0163599,0.0303361,0.746691,0.121773,0.0164983,0.0715575
-0.0117063,0.157327,-2.70881,0.0684038,0.0950902,0.794489,0.0924178,0.00271714,0.079623
-0.0110611,0.158546,-2.69322,0.0555127,0.213699,0.718469,0.0781982,-0.0127417,0.112031
-0.00798176,0.158923,-2.67994,-0.0088681,0.293357,0.583852,0.07061,-0.0084479,0.119142
-0.00357834,0.158127,-2.66905,-0.0555194,0.309376,0.503607,0.0715269,-0.00250416,0.123916
0.000907866,0.156943,-2.659,-0.0541391,0.283253,0.49123,0.0665624,0.0077396,0.116082
0.00444864,0.156732,-2.64887,0.0477681,0.234944,0.50652,0.0426945,0.0155572,0.0957957
0.00771684,0.159286,-2.63857,0.199214,0.243727,0.494648,0.0323742,0.00326371,0.109214
0.0105695,0.164153,-2.6292,0.262046,0.185235,0.427632,0.0342047,0.00278753,0.103796
0.0124589,0.169959,-2.621,0.308732,0.160781,0.388168,0.01656,-0.00213774,0.0764118
0.0154963,0.176723,-2.61372,0.339143,0.277978,0.328225,0.0078932,0.000374526,0.078774
0.0214113,0.182888,-2.60792,0.241108,0.402658,0.253079,0.00742025,0.00218216,0.0707132
0.0298846,0.186202,-2.60333,0.0692163,0.53005,0.204258,0.000451975,-0.0122753,0.0654055
0.0406944,0.185692,-2.59961,-0.130112,0.587634,0.154988,0.00264924,-0.0068408,0.0346684
0.0514488,0.181999,-2.59651,-0.222067,0.530999,0.140149,0.00432433,0.00242189,-0.0210522
0.0606481,0.178267,-2.5933,-0.153652,0.434301,0.150127,0.0125542,0.00114626,-0.0571162
0.0675768,0.176294,-2.59037,-0.0654018,0.320025,0.124597,0.00673294,0.0235269,-0.0983284
0.0727355,0.175773,-2.58809,-0.0123178,0.232689,0.0952415,-0.0197939,0.0515174,-0.12406
0.0767196,0.175514,-2.58653,-0.0488383,0.200131,0.0498194,-0.0373961,0.0802541,-0.137415
0.0801639,0.173144,-2.58583,-0.199481,0.143455,0.00737235,-0.0214772,0.0814908,-0.16933
0.0824047,0.168029,-2.5853,-0.297585,0.0979157,0.0046293,-0.00140975,0.0602145,-0.171925
0.0838791,0.161256,-2.58504,-0.383388,0.0621615,-0.0448207,-0.00134923,0.0603385,-0.153544
0.0850028,0.151394,-2.58644,-0.615189,0.0159791,-0.18537,0.0103547,0.0462326,-0.137276
0.0850111,0.135085,-2.59052,-0.964126,-0.0683406,-0.347905,0.0114,0.0276036,-0.158395
0.0834884,0.112937,-2.59676,-1.11453,-0.160006,-0.430111,-0.00351447,0.0378522,-0.181752
0.0810828,0.0924565,-2.60331,-0.794264,-0.137561,-0.360592,-0.0226342,0.0519043,-0.170628
0.0787696,0.0818589,-2.60835,-0.205782,-0.158156,-0.222606,-0.0305884,0.062282,-0.140075
0.0747277,0.0825329,-2.61205,0.257464,-0.298688,-0.156819,-0.0362723,0.0603445,-0.104223
0.0674029,0.0893023,-2.61555,0.391335,-0.431952,-0.146608,-0.0643979,0.0422171,-0.0720118
0.0596072,0.0962319,-2.61923,0.296683,-0.334864,-0.177622,-0.084046,0.0285785,-0.022935
0.0565329,0.100411,-2.62341,0.150709,0.00820535,-0.20306,-0.0863085,0.0165327,0.0390736
0.0603686,0.102429,-2.62737,0.0974799,0.311575,-0.165242,-0.0838042,0.0111701,0.0716668
0.068871,0.104991,-2.62986,0.180772,0.476164,-0.0635919,-0.0710927,0.0178227,0.109781
0.0784215,0.109538,-2.63039,0.271726,0.441047,0.0472592,-0.0415099,-0.00710599,0.136292
0.0854454,0.115564,-2.62886,0.303939,0.256867,0.135684,-0.0265752,-0.031864,0.166693
0.0881655,0.121649,-2.62663,0.271401,0.0366277,0.114121,-0.0319654,-0.026325,0.17865
0.0871873,0.126522,-2.62593,0.196413,-0.111245,-0.0159244,-0.045472,-0.0194451,0.198764
0.084248,0.1289,-2.6282,0.0578724,-0.194465,-0.186677,-0.0526734,-0.0108157,0.187863
0.081674,0.128374,-2.63348,-0.0656454,-0.0924163,-0.328642,-0.0632728,-0.00176927,0.1895
0.0827051,0.12528,-2.641,-0.174763,0.101571,-0.422846,-0.056466,0.00188993,0.17679
0.0872952,0.120791,-2.64924,-0.169179,0.235861,-0.408702,-0.0407423,-0.00256469,0.146847
0.0931853,0.11861,-2.6563,0.0466287,0.255414,-0.301891,-0.0416765,0.00384584,0.127185
0.0981368,0.122257,-2.66173,0.358288,0.138344,-0.208216,-0.0475349,0.000279225,0.137174
0.099156,0.130812,-2.66693,0.507096,-0.105957,-0.237823,-0.0557895,-0.0151911,0.148986
0.0962356,0.140017,-2.67395,0.444108,-0.246757,-0.372279,-0.0713431,-0.0412413,0.18569
0.0932284,0.146246,-2.68391,0.245985,-0.167247,-0.549513,-0.0892157,-0.0616269,0.214491
0.0932284,0.146246,-2.68391,0.245985,-0.167247,-0.549513,-0.0892157,-0.0616269,0.214491
0.093557,0.147615,-2.69692,0.0216594,0.0166075,-0.704375,-0.089597,-0.0810546,0.201062
0.0975443,0.14516,-2.71201,-0.114614,0.136576,-0.784491,-0.0669465,-0.0918608,0.160896
0.101714,0.140255,-2.72777,-0.204738,0.0308286,-0.800447,-0.0362257,-0.0920614,0.0686351
0.102285,0.134428,-2.74316,-0.197085,-0.1807,-0.753522,0.0160475,-0.0953309,-0.0357162
0.0985584,0.130079,-2.75692,-0.0813269,-0.362963,-0.629012,0.0501985,-0.0849022,-0.115448
0.0915321,0.129049,-2.76781,0.0841602,-0.448715,-0.447152,0.0638662,-0.0679794,-0.17128
0.0838389,0.131374,-2.77508,0.192117,-0.39002,-0.24222,0.0749399,-0.0722816,-0.183288
0.077503,0.135281,-2.77784,0.200202,-0.279527,0.0145835,0.0769074,-0.100299,-0.192729
0.0724414,0.13864,-2.77514,0.0961502,-0.191824,0.261399,0.0567954,-0.118518,-0.212205
0.0677286,0.13913,-2.76826,-0.100474,-0.191187,0.389533,0.0424895,-0.110662,-0.25261
0.0629755,0.13565,-2.76067,-0.29585,-0.173821,0.301828,0.0302804,-0.0653269,-0.284817
0.0595036,0.128353,-2.75609,-0.425968,-0.0927457,0.105761,0.0210225,-0.0107779,-0.32921
0.0596787,0.120876,-2.75465,-0.278398,0.142225,0.0239132,0.0385092,0.0150676,-0.325669
0.0645894,0.118329,-2.75317,0.0215223,0.332225,0.135031,0.0766539,0.0316426,-0.271225
0.0706201,0.121482,-2.7482,0.225558,0.289792,0.380663,0.115002,0.0149208,-0.192537
0.0738694,0.126937,-2.73878,0.212163,0.156775,0.561876,0.142017,-0.0113433,-0.108315
0.0757171,0.130368,-2.72739,0.0261119,0.199639,0.551852,0.138941,-0.027456,-0.0101061
0.0793591,0.129116,-2.7174,-0.227865,0.283579,0.423661,0.133481,-0.0492057,0.0588217
0.0844636,0.122836,-2.70866,-0.46594,0.32473,0.409984,0.147413,-0.077271,0.114873
0.0903423,0.112142,-2.69833,-0.670949,0.407978,0.525393,0.150719,-0.108384,0.147885
0.0993829,0.0988479,-2.68504,-0.755845,0.618731,0.65094,0.15804,-0.133323,0.164052
0.111087,0.0844559,-2.6699,-0.828899,0.647917,0.680901,0.164591,-0.132899,0.133818
0.121622,0.0688689,-2.65425,-0.877548,0.50709,0.678644,0.139646,-0.127505,0.092906
0.12944,0.0544004,-2.63915,-0.65122,0.397455,0.623837,0.12276,-0.111718,-0.0381529
0.137397,0.0498999,-2.62639,0.0930079,0.470564,0.580108,0.0778355,-0.0451984,-0.123969
0.147529,0.0614705,-2.61617,0.843272,0.572378,0.60147,0.0493889,0.0166625,-0.137716
0.15907,0.0841377,-2.60676,1.18286,0.645755,0.666726,0.0355354,0.00241917,-0.0892836
0.171453,0.110513,-2.59724,1.21503,0.665428,0.682555,0.0235726,0.00880203,0.00354272
0.18335,0.136088,-2.58845,1.13725,0.630887,0.606443,0.00667799,0.0188017,0.0732077
0.195053,0.160201,-2.58213,1.11105,0.634131,0.450625,-0.0129921,0.0329453,0.128571
0.207337,0.183555,-2.57903,1.09883,0.633376,0.324427,-0.0296828,0.0735327,0.177964
0.219379,0.20585,-2.5776,1.02173,0.570003,0.293558,-0.0318764,0.102334,0.220655
0.229313,0.22627,-2.57594,0.925627,0.444303,0.317359,-0.0148498,0.122583,0.239543
0.236409,0.244843,-2.57345,0.799607,0.332323,0.338854,-0.00673823,0.14191,0.263732
0.241741,0.259887,-2.56996,0.556027,0.28863,0.337661,-0.00303674,0.153791,0.284098
0.245944,0.269435,-2.56493,0.245719,0.25078,0.368924,-0.00165561,0.160184,0.284769
0.248112,0.27371,-2.55723,0.0149791,0.179765,0.460126,0.00193982,0.162105,0.237598
0.247928,0.275491,-2.54672,-0.0920319,0.0462727,0.552896,-0.00520071,0.164522,0.20008
0.242214,0.276018,-2.53419,-0.11804,-0.265854,0.627716,0.00477633,0.167272,0.0812945
0.230326,0.277258,-2.5203,-0.0876901,-0.531349,0.676309,-0.00474733,0.165229,0.00226718
0.2147,0.277765,-2.50657,-0.176665,-0.611169,0.604861,-0.0230035,0.166221,-0.0714258
0.200522,0.274993,-2.49421,-0.351736,-0.421893,0.492659,-0.0225988,0.14648,-0.132175
0.191659,0.267294,-2.48324,-0.625724,-0.192574,0.399368,-0.0309828,0.138436,-0.152918
0.185278,0.25274,-2.47238,-1.00688,-0.19724,0.348303,-0.0457988,0.100475,-0.188538
0.177693,0.229494,-2.46221,-1.4515,-0.327967,0.170081,-0.07099,0.0981975,-0.217745
0.168896,0.197085,-2.45655,-1.77362,-0.401661,-0.207734,-0.114197,0.14059,-0.262804
0.161664,0.161091,-2.45867,-1.63448,-0.337966,-0.557536,-0.126696,0.173334,-0.312698
0.157818,0.132148,-2.46681,-1.04212,-0.14643,-0.637048,-0.0858775,0.155567,-0.319622
0.157818,0.132148,-2.46681,-1.04212,-0.14643,-0.637048,-0.0858775,0.155567,-0.319622
0.157207,0.116068,-2.47547,-0.432203,-0.0554358,-0.429124,-0.0625351,0.121545,-0.261821
0.155955,0.110133,-2.48081,-0.12036,-0.140113,-0.203119,-0.0534304,0.0851757,-0.16987
