attitude_roll,attitude_pitch,attitude_yaw,rotationRate_x,rotationRate_y,rotationRate_z,acceleration_x,acceleration_y,acceleration_z
-0.0150436,0.252855,0.00191216,-0.854548,-0.596104,0.260072,-0.0377271,-0.135238,-0.279893
-0.0270499,0.236565,0.00675614,-0.775766,-0.423502,0.217896,-0.0512519,-0.072352,-0.279534
-0.0323944,0.222292,0.00946897,-0.622057,-0.0417453,0.0942045,-0.064981,-0.0413446,-0.292726
-0.0291329,0.212847,0.0103353,-0.304943,0.369534,0.0268619,-0.0778213,-0.0219264,-0.330995
-0.0196597,0.20998,0.0101629,-0.00567854,0.51951,-0.0385253,-0.0485681,0.00838202,-0.323057
-0.0101213,0.211208,0.00910598,0.0866236,0.397584,-0.0572635,0.03164,0.00524952,-0.275613
-0.00342069,0.212249,0.00762869,0.00634616,0.236301,-0.0930836,0.0731834,-0.00531358,-0.227509
-0.000648595,0.211838,0.00493141,-0.0244617,-0.0263713,-0.178518,0.0723809,0.010886,-0.185425
-0.00217776,0.212571,-0.000101982,0.124077,-0.209638,-0.323421,0.0421525,0.0390527,-0.13718
-0.00520652,0.217568,-0.00803683,0.373076,-0.252769,-0.441391,0.05498,0.0666703,-0.0738198
-0.00818563,0.227167,-0.0174772,0.558153,-0.239332,-0.486654,0.0873667,0.0785052,0.0184804
-0.00930386,0.238749,-0.0276704,0.568843,-0.0760828,-0.514172,0.0997686,0.072944,0.114583
-0.00593292,0.249414,-0.0379915,0.490849,0.14759,-0.486375,0.112347,0.0555674,0.163269
0.00107371,0.258732,-0.0474722,0.453405,0.299524,-0.439225,0.100372,0.0458944,0.18548
0.00966633,0.267715,-0.0564928,0.453108,0.308668,-0.438883,0.063371,0.0472587,0.208397
0.0172504,0.276631,-0.0660394,0.445174,0.166362,-0.465258,0.0415728,0.0515585,0.238968
0.0206788,0.284665,-0.0757696,0.368927,-0.0948312,-0.450657,0.0310734,0.0520609,0.273271
0.0192352,0.290375,-0.0849615,0.214166,-0.299412,-0.424937,-0.00173572,0.0451162,0.29054
0.0130052,0.292373,-0.0935663,-0.0064421,-0.605901,-0.398285,-0.0329455,0.0123922,0.306618
-0.000502467,0.289706,-0.101511,-0.251003,-0.989276,-0.344103,-0.0611029,-0.0361371,0.308593
-0.0214239,0.282715,-0.107955,-0.456839,-1.25611,-0.284756,-0.0927552,-0.0746736,0.276701
-0.0457193,0.271934,-0.113851,-0.628316,-1.30955,-0.234044,-0.147779,-0.116445,0.243909
-0.0699596,0.258889,-0.118312,-0.690939,-1.23645,-0.119003,-0.156899,-0.113195,0.19864
-0.0924485,0.24524,-0.120832,-0.680947,-1.04911,-0.0167953,-0.176787,-0.13215,0.159097
-0.110061,0.23261,-0.121519,-0.565793,-0.738041,0.0708669,-0.181145,-0.110471,0.0971854
-0.123032,0.223685,-0.121352,-0.301137,-0.598011,0.0232763,-0.213298,-0.0827408,0.0383185
-0.135229,0.220746,-0.122884,-0.0277608,-0.673848,-0.145629,-0.204911,-0.0756136,0.00851351
-0.148892,0.222282,-0.127669,0.0891948,-0.811312,-0.335952,-0.176215,-0.0937074,0.00992388
-0.164945,0.225059,-0.13546,0.0475697,-0.935722,-0.451744,-0.121147,-0.125774,0.0198392
-0.180247,0.226516,-0.145194,-0.0692713,-0.782639,-0.49144,-0.0721488,-0.14561,-0.018993
-0.191569,0.225976,-0.154838,-0.162085,-0.567611,-0.403461,-0.00828901,-0.156802,-0.101983
-0.19891,0.222622,-0.162185,-0.323395,-0.33918,-0.225637,0.0360935,-0.137825,-0.162836
-0.203981,0.215066,-0.166555,-0.493239,-0.308573,-0.0593363,0.0563465,-0.100187,-0.24956
-0.210691,0.204653,-0.169701,-0.590723,-0.42433,-0.053207,0.0405719,-0.0515333,-0.322367
-0.217751,0.192535,-0.174534,-0.712454,-0.322102,-0.158516,0.0530762,-0.0164315,-0.353972
-0.218629,0.178017,-0.182152,-0.863008,0.159043,-0.248089,0.0749598,-0.00294518,-0.403031
-0.207901,0.162616,-0.190208,-0.759408,0.733293,-0.172948,0.161997,0.047246,-0.510822
-0.190612,0.15144,-0.194102,-0.39633,0.887764,0.0152532,0.206365,0.113813,-0.544334
-0.173308,0.14774,-0.193852,0.0471219,0.798306,0.0275884,0.142624,0.171892,-0.500274
-0.161561,0.153993,-0.195297,0.549278,0.291678,-0.332554,0.0485578,0.218724,-0.367689
-0.160871,0.171049,-0.205443,0.952576,-0.371339,-0.944037,0.0209079,0.280842,-0.143436
-0.168949,0.195837,-0.226051,1.12769,-0.758143,-1.41864,0.0736234,0.254174,0.0667118
-0.179525,0.222356,-0.252536,0.986869,-0.812193,-1.529,0.168429,0.175591,0.241382
-0.188153,0.24233,-0.276998,0.499339,-0.573647,-1.11085,0.249359,0.0737817,0.339208
-0.191268,0.248556,-0.291798,-0.170074,-0.0607684,-0.396696,0.269376,-0.0109531,0.376108
-0.185918,0.239108,-0.293387,-0.744271,0.537905,0.435301,0.251275,-0.025966,0.290836
-0.175221,0.218656,-0.280962,-1.02222,0.762658,1.05832,0.189279,0.0441578,0.142761
-0.163634,0.193385,-0.261131,-1.11723,0.781552,1.21868,0.0555441,0.131482,0.0495948
-0.152485,0.168746,-0.242149,-0.985292,0.658828,0.960866,-0.0763069,0.166466,-0.0349654
-0.143507,0.151035,-0.230352,-0.558923,0.396809,0.430791,-0.142152,0.157175,-0.124269
-0.140079,0.145246,-0.228302,0.0187758,-0.0491973,-0.132096,-0.117586,0.14469,-0.101307
-0.145605,0.151384,-0.233702,0.474788,-0.563146,-0.430096,-0.0396434,0.0861553,0.0120839
-0.145605,0.151384,-0.233702,0.474788,-0.563146,-0.430096,-0.0396434,0.0861553,0.0120839
-0.158547,0.163886,-0.241046,0.601196,-0.793635,-0.445892,0.0329807,0.00903973,0.135054
-0.173588,0.175725,-0.246973,0.4411,-0.792944,-0.317238,0.0666642,-0.0326671,0.257858
-0.187588,0.182769,-0.25042,0.198552,-0.670957,-0.140602,0.0592538,-0.0765778,0.309172
-0.199731,0.185277,-0.250808,0.0543806,-0.532459,0.0498235,0.0639523,-0.0968173,0.3103
-0.208031,0.184797,-0.248273,-0.0473919,-0.241146,0.188983,0.0526116,-0.106292,0.295887
-0.210876,0.182087,-0.243649,-0.120519,0.0202349,0.31471,0.0362853,-0.121027,0.268247
-0.210189,0.177319,-0.237027,-0.218462,0.135083,0.421127,0.0135395,-0.122421,0.22021
-0.20914,0.169762,-0.229526,-0.379876,0.0992992,0.446181,-0.00535735,-0.10803,0.160758
-0.207791,0.158942,-0.22301,-0.533596,0.160995,0.410553,-0.0246036,-0.106908,0.0627435
-0.204942,0.146471,-0.217007,-0.550805,0.194703,0.433357,-0.0209434,-0.120807,-0.0763937
-0.201948,0.134411,-0.210866,-0.510862,0.19712,0.386042,-0.053428,-0.110042,-0.17369
-0.197985,0.123711,-0.206742,-0.44484,0.252695,0.222068,-0.0852653,-0.0972775,-0.252126
-0.193407,0.116331,-0.205648,-0.227086,0.169517,0.0242138,-0.100371,-0.101644,-0.347894
-0.193223,0.115197,-0.208127,0.042514,-0.194384,-0.252243,-0.122177,-0.123384,-0.370466
-0.197965,0.117642,-0.214698,0.010727,-0.261533,-0.399021,-0.0635049,-0.154755,-0.305681
-0.198846,0.117229,-0.222172,-0.189332,0.114482,-0.289714,0.0174868,-0.21002,-0.317372
-0.191371,0.113766,-0.225981,-0.172072,0.601342,-8.22181e-05,0.035411,-0.249166,-0.43401
-0.175755,0.112749,-0.223474,0.146423,0.946601,0.231218,0.0280356,-0.158913,-0.525762
-0.156981,0.11836,-0.216812,0.514405,0.969632,0.313838,0.0123299,-0.0385019,-0.517864
-0.140889,0.131176,-0.208769,0.882401,0.691739,0.266003,0.018245,0.0786758,-0.472363
-0.132802,0.151582,-0.202208,1.21525,0.202579,0.0930837,0.0303684,0.176377,-0.350966
-0.133664,0.177358,-0.198687,1.35807,-0.213321,-0.075451,0.0711173,0.240593,-0.164832
-0.140348,0.203715,-0.197047,1.24155,-0.364263,-0.104942,0.102007,0.235726,0.0355799
-0.146331,0.22548,-0.195389,0.929794,-0.147716,-0.0337467,0.115736,0.191134,0.17272
-0.145983,0.241192,-0.19241,0.701399,0.251837,0.0956954,0.12157,0.1622,0.197008
-0.138983,0.253863,-0.187252,0.652643,0.545714,0.207386,0.118044,0.164322,0.166487
-0.128697,0.266416,-0.180713,0.680749,0.623838,0.242954,0.0985001,0.168107,0.160646
-0.119015,0.278833,-0.174044,0.605859,0.495932,0.24141,0.0991335,0.167324,0.204424
-0.113334,0.288182,-0.167906,0.379199,0.234635,0.237182,0.108611,0.158905,0.275289
-0.113633,0.292743,-0.162179,0.145885,-0.102373,0.263083,0.103652,0.133581,0.323306
-0.120105,0.293047,-0.156051,-0.0361474,-0.343327,0.310365,0.0648277,0.108893,0.367036
-0.129959,0.290478,-0.149857,-0.132396,-0.457455,0.30037,0.0120124,0.0825222,0.39032
-0.14188,0.286566,-0.144436,-0.193151,-0.57832,0.266562,-0.0161713,0.0562957,0.413037
-0.154592,0.280966,-0.140113,-0.305962,-0.549721,0.232082,-0.0328925,0.0171829,0.414357
-0.16549,0.273057,-0.137004,-0.428724,-0.449036,0.184603,-0.0673353,-0.03376,0.383282
-0.172414,0.263374,-0.135916,-0.489287,-0.208051,0.0797017,-0.11649,-0.089819,0.302566
-0.174412,0.254209,-0.136873,-0.397689,-0.0781187,0.00617992,-0.1205,-0.136444,0.176812
-0.175902,0.248413,-0.13789,-0.188308,-0.077185,-0.00460215,-0.112556,-0.179564,0.0531777
-0.176827,0.24668,-0.138364,0.000773711,-0.0433705,-0.0142101,-0.124477,-0.212434,-0.0262734
-0.177047,0.248167,-0.138821,0.117752,0.0419966,-0.0541599,-0.129015,-0.190835,-0.0722171
-0.173993,0.250587,-0.139596,0.0831609,0.244501,-0.0578241,-0.10324,-0.140897,-0.125923
-0.166975,0.251157,-0.140917,-0.0529812,0.409267,-0.0783342,-0.0850016,-0.0915787,-0.203461
-0.158215,0.249475,-0.142797,-0.127838,0.373671,-0.0679379,-0.0531626,-0.057548,-0.327226
-0.152696,0.247058,-0.145148,-0.153007,0.129884,-0.143174,-0.04946,-0.0377807,-0.409261
-0.148917,0.244075,-0.150334,-0.223788,0.184328,-0.321067,-0.0180479,-0.00158176,-0.426395
-0.140014,0.240124,-0.158825,-0.272071,0.521909,-0.408087,0.0287112,0.0245055,-0.438145
-0.124535,0.23635,-0.166687,-0.170526,0.829856,-0.268572,0.106417,0.0580382,-0.44982
-0.105516,0.236119,-0.170554,0.123714,0.915472,-0.115529,0.117306,0.10205,-0.436536
-0.0897436,0.24179,-0.171722,0.411411,0.586779,-0.0796936,0.0856276,0.13858,-0.316779
-0.08292,0.251554,-0.173864,0.52368,0.0319106,-0.253986,0.0196103,0.163277,-0.130275
-0.08528,0.2626,-0.181787,0.506408,-0.448655,-0.61094,-0.0358769,0.17898,0.0755205
-0.08528,0.2626,-0.181787,0.506408,-0.448655,-0.61094,-0.0358769,0.17898,0.0755205
-0.093074,0.273259,-0.196276,0.416321,-0.666417,-0.843283,-0.0144211,0.142109,0.255115
-0.1012,0.28098,-0.212838,0.171067,-0.560761,-0.761493,0.0360458,0.0827173,0.35162
-0.106782,0.281194,-0.223925,-0.29878,-0.279582,-0.257658,0.0859748,0.0206366,0.387305
-0.108189,0.269401,-0.224293,-0.869282,0.130949,0.328667,0.0817142,0.00998908,0.3681
-0.104241,0.24728,-0.216532,-1.2027,0.436599,0.590009,0.00820576,0.097001,0.254541
-0.0957952,0.222269,-0.207293,-1.14405,0.614229,0.510265,-0.0670894,0.178619,0.114391
-0.0848406,0.202208,-0.201372,-0.766488,0.564285,0.228924,-0.12112,0.216351,0.027036
-0.0760945,0.191889,-0.200928,-0.263649,0.297471,-0.0939877,-0.122716,0.206019,0.0232539
-0.0729895,0.191052,-0.205081,0.105052,-0.0623769,-0.274607,-0.071789,0.157711,0.0856209
-0.0723346,0.194552,-0.212443,0.165462,0.0170343,-0.475677,-0.0194239,0.120116,0.190025
-0.0741794,0.198887,-0.219427,0.176926,-0.375108,-0.151212,0.0573612,0.00986467,0.24227
-0.0825174,0.198893,-0.218099,-0.2082,-0.355144,0.225392,0.0632055,0.00129557,0.337149
-0.0884514,0.190382,-0.213321,-0.561834,-0.149817,0.291572,-0.0054993,-0.0116782,0.355931
-0.0903462,0.177633,-0.208191,-0.622962,0.065933,0.319904,-0.0238367,-0.017178,0.276454
-0.0882732,0.165811,-0.202515,-0.496107,0.21718,0.348158,-0.0387524,-0.0620441,0.183906
-0.0845394,0.156407,-0.195729,-0.400742,0.241,0.416395,-0.0238154,-0.0976933,0.111036
-0.0825929,0.147632,-0.186798,-0.411793,0.0722914,0.539953,-0.00486992,-0.136717,0.0523551
-0.0836672,0.137947,-0.17579,-0.459171,0.0151038,0.61919,-0.0760225,-0.174838,-0.0122167
-0.0842665,0.127954,-0.164026,-0.424917,0.0898082,0.614434,-0.141558,-0.174794,-0.104803
-0.082704,0.119621,-0.153066,-0.305761,0.203201,0.541205,-0.174389,-0.164477,-0.194255
-0.0793694,0.114225,-0.143236,-0.163401,0.23949,0.497261,-0.154858,-0.165717,-0.265519
-0.0754324,0.110863,-0.133194,-0.0994515,0.254608,0.53851,-0.137306,-0.176961,-0.323205
-0.0723445,0.108368,-0.12171,-0.0763481,0.158307,0.614121,-0.128185,-0.165434,-0.380796
-0.0731306,0.105346,-0.109371,-0.176676,-0.108936,0.628,-0.129778,-0.158872,-0.391991
-0.0771876,0.0980309,-0.0968786,-0.472133,-0.114618,0.681888,-0.0902057,-0.14172,-0.383893
-0.0794732,0.0857123,-0.0834917,-0.603792,-0.0138028,0.742962,-0.0709874,-0.124598,-0.459132
-0.0808948,0.073688,-0.0693725,-0.454726,-0.0303641,0.740576,-0.0718175,-0.080874,-0.525964
-0.0836064,0.066209,-0.0566587,-0.185521,-0.179209,0.567738,-0.0905936,-0.0283523,-0.495514
-0.0902468,0.0639506,-0.0481663,0.00991201,-0.416145,0.288013,-0.096797,0.00786141,-0.367784
-0.0992918,0.0652797,-0.0452947,0.168265,-0.428169,0.00649911,-0.075353,0.0214101,-0.236186
-0.106805,0.0717194,-0.0461203,0.492769,-0.344647,-0.143043,-0.0153304,0.0528133,-0.147018
-0.113255,0.0860244,-0.0492243,0.897049,-0.337807,-0.328822,0.000534438,0.103725,-0.0212958
-0.118955,0.108078,-0.0548739,1.20372,-0.274083,-0.468507,0.0287792,0.130283,0.0997038
-0.121671,0.133808,-0.0622035,1.21044,-0.0545496,-0.557425,0.0525672,0.120973,0.225754
-0.118009,0.156729,-0.0706563,0.951845,0.298483,-0.532097,0.122243,0.129935,0.298744
-0.108443,0.174439,-0.0784427,0.747697,0.494465,-0.432973,0.144506,0.110674,0.275517
-0.0969751,0.188965,-0.0848868,0.643428,0.522198,-0.356022,0.135169,0.113899,0.23587
-0.0864467,0.201182,-0.090324,0.511627,0.402106,-0.28826,0.124652,0.109572,0.237082
-0.0800982,0.209532,-0.0943317,0.273204,0.139932,-0.159359,0.142487,0.0933013,0.258821
-0.0790764,0.211995,-0.0954299,-0.0316302,-0.0269788,0.0333982,0.153733,0.109183,0.294535
-0.0803331,0.208946,-0.0932223,-0.230436,-0.0415766,0.195275,0.0939891,0.108826,0.291654
-0.0821978,0.203101,-0.0887832,-0.310121,-0.0743189,0.266977,0.00641252,0.11014,0.275562
-0.0860747,0.195939,-0.0844104,-0.378357,-0.242733,0.206353,-0.0674862,0.0899355,0.280304
-0.0931114,0.187045,-0.0820938,-0.492624,-0.408799,0.10552,-0.103515,0.0478644,0.292068
-0.102696,0.176291,-0.0817234,-0.567034,-0.534692,0.0388932,-0.111476,-0.00438416,0.283895
-0.113368,0.164628,-0.0825931,-0.60064,-0.524546,0.000357999,-0.100486,-0.0436191,0.264723
-0.121732,0.152906,-0.0842807,-0.570226,-0.298755,-0.0186714,-0.104487,-0.0954458,0.214188
-0.12503,0.1432,-0.0854361,-0.398361,-0.0770378,0.0323317,-0.0957949,-0.12032,0.125105
-0.125885,0.137,-0.0849264,-0.213381,-0.0271457,0.0934661,-0.0796645,-0.109506,0.0607484
-0.128248,0.1341,-0.0832126,-0.0651847,-0.222111,0.0999063,-0.0508788,-0.09468,-0.00570315
-0.128248,0.1341,-0.0832126,-0.0651847,-0.222111,0.0999063,-0.0508788,-0.09468,-0.00570315
-0.1353,0.133351,-0.0817052,0.00164786,-0.446523,0.0504036,-0.0708539,-0.0954983,-0.0458444
-0.145633,0.133709,-0.0814938,0.0274444,-0.570501,-0.045617,-0.0740106,-0.0763909,-0.0752184
-0.156247,0.134178,-0.0841323,-0.0367383,-0.494127,-0.230712,-0.0690683,-0.0408458,-0.0681493
-0.163479,0.133275,-0.0902254,-0.137153,-0.306976,-0.315923,-0.00992604,-0.0502549,-0.117038
-0.167669,0.131366,-0.0960792,-0.136935,-0.209276,-0.205201,0.056514,-0.077035,-0.211514
-0.171906,0.129487,-0.099681,-0.112686,-0.300037,-0.1447,0.0425837,-0.0864353,-0.2696
-0.17872,0.127593,-0.10386,-0.169519,-0.390089,-0.240391,0.00448009,-0.0777391,-0.264589
-0.183216,0.12343,-0.109867,-0.371333,-0.0576982,-0.238277,0.0248773,-0.0908571,-0.262133
-0.177998,0.114881,-0.114394,-0.52162,0.503659,-0.0218433,0.0925947,-0.0899305,-0.375116
-0.165449,0.105187,-0.114108,-0.382673,0.69035,0.187439,0.0793731,-0.0274075,-0.527774
-0.154095,0.100333,-0.110845,-0.0320258,0.413063,0.174855,0.0206646,0.0756893,-0.574711
-0.151595,0.10253,-0.109347,0.238119,-0.160829,-0.0940223,-0.0252241,0.160868,-0.457837
-0.159436,0.109179,-0.114234,0.335093,-0.652062,-0.492836,-0.0593773,0.17517,-0.292609
-0.174204,0.11906,-0.125863,0.460063,-0.909915,-0.795153,-0.05178,0.156056,-0.130689
-0.190565,0.133063,-0.141516,0.636406,-0.893587,-0.974462,-0.00670296,0.143062,0.0124478
-0.204593,0.150732,-0.15843,0.750211,-0.735132,-0.989285,0.0395646,0.110031,0.139245
-0.214238,0.168415,-0.173213,0.636894,-0.44906,-0.780261,0.09639,0.0810263,0.256481
-0.21784,0.180179,-0.183202,0.276911,-0.0799603,-0.41092,0.132117,0.0689458,0.329671
-0.21551,0.182433,-0.18631,-0.109511,0.211838,0.0685866,0.160126,0.0838277,0.302194
-0.21166,0.17593,-0.182345,-0.444061,0.218714,0.412702,0.120613,0.136556,0.260642
-0.209095,0.1627,-0.175528,-0.679082,0.138284,0.474043,0.033172,0.179744,0.205016
-0.208416,0.147556,-0.170898,-0.678701,0.0265688,0.24928,-0.0609329,0.174273,0.144151
-0.206864,0.135867,-0.17176,-0.455099,0.139187,-0.0876848,-0.0973281,0.143429,0.0804089
-0.202574,0.131602,-0.176802,-0.0546188,0.189884,-0.278634,-0.0269124,0.0948455,0.0288515
-0.198352,0.135309,-0.181787,0.300075,0.178294,-0.25448,0.0749826,0.05964,0.0481681
-0.194885,0.144048,-0.183943,0.483553,0.122876,-0.121532,0.127729,0.0312763,0.119346
-0.192871,0.153348,-0.183246,0.405786,0.107789,0.00487975,0.106069,0.00890259,0.218873
-0.190887,0.159116,-0.181251,0.195302,0.125761,0.0674933,0.0709235,-0.0167409,0.264157
-0.188084,0.160965,-0.179408,0.0512358,0.181525,0.0732721,0.0334218,-0.0479504,0.240295
-0.185197,0.161684,-0.177611,0.0708697,0.11512,0.0881222,0.0320955,-0.0657346,0.186725
-0.184502,0.16281,-0.175324,0.0697273,-0.0018623,0.120739,0.0205545,-0.0895105,0.180996
-0.186041,0.162857,-0.172197,-0.0236903,-0.106278,0.192059,-0.00355843,-0.129305,0.180053
-0.188971,0.159588,-0.167984,-0.238695,-0.0821856,0.280794,-0.051004,-0.1625,0.172873
-0.190181,0.151227,-0.162955,-0.481696,0.0272011,0.366915,-0.092677,-0.170439,0.104125
-0.189975,0.138794,-0.157659,-0.619182,0.0689654,0.368106,-0.125222,-0.159457,-0.0168449
-0.189047,0.125409,-0.152904,-0.591134,0.0878716,0.354506,-0.119247,-0.151485,-0.149797
-0.186493,0.11362,-0.147586,-0.455087,0.256493,0.395663,-0.0962535,-0.136411,-0.258279
-0.180841,0.105569,-0.140357,-0.192088,0.345874,0.453439,-0.116066,-0.115895,-0.351114
-0.177074,0.103382,-0.131949,0.121092,0.074892,0.377187,-0.149772,-0.0816018,-0.391559
-0.17987,0.106846,-0.125719,0.284251,-0.26047,0.169418,-0.158346,-0.0381937,-0.313537
-0.18608,0.110306,-0.122836,0.0417578,-0.277791,0.0737487,-0.146073,-0.0477242,-0.164837
-0.189942,0.106486,-0.122003,-0.39809,-0.0953802,0.0996296,-0.133008,-0.0972675,-0.118869
-0.189974,0.0957905,-0.12112,-0.567138,0.0912947,0.178096,-0.0860651,-0.0862102,-0.2184
-0.187452,0.0856014,-0.119771,-0.376214,0.178217,0.123796,-0.0942793,-0.0197125,-0.315961
-0.182582,0.0803265,-0.119647,-0.152777,0.293849,-0.0168533,-0.0926059,0.0560396,-0.315111
-0.177243,0.079221,-0.121916,0.00343726,0.196372,-0.203724,-0.0612821,0.117636,-0.28006
-0.173653,0.0822839,-0.128747,0.188499,0.137368,-0.541711,-0.0588516,0.152122,-0.232407
-0.169241,0.0904414,-0.141489,0.397525,0.201654,-0.815626,0.00923793,0.144395,-0.178991
-0.162561,0.102597,-0.156113,0.551959,0.328051,-0.789036,0.112365,0.10617,-0.126131
-0.154167,0.116758,-0.16825,0.647396,0.346706,-0.624934,0.199005,0.0957253,-0.0821407
-0.146351,0.131389,-0.177456,0.661604,0.354997,-0.515555,0.205333,0.11383,-0.0025546
-0.146351,0.131389,-0.177456,0.661604,0.354997,-0.515555,0.205333,0.11383,-0.0025546
-0.13769,0.146002,-0.185343,0.69126,0.377457,-0.471705,0.184669,0.116157,0.0478223
-0.129444,0.161483,-0.192614,0.747497,0.344158,-0.447814,0.163994,0.101258,0.0993381
-0.121579,0.177593,-0.19933,0.760884,0.324993,-0.409497,0.15761,0.0811101,0.170961
-0.114633,0.192902,-0.204936,0.680049,0.252388,-0.303525,0.173586,0.0688593,0.248509
-0.110865,0.205176,-0.207747,0.499732,0.0593164,-0.0946447,0.19276,0.0484351,0.323326
-0.112359,0.212784,-0.206236,0.26931,-0.177086,0.15326,0.171407,0.0309907,0.388566
-0.119174,0.215399,-0.200927,0.0545796,-0.391064,0.317557,0.0989174,0.0127481,0.438041
-0.130257,0.213705,-0.193722,-0.139781,-0.56169,0.397641,0.0204588,-0.00753765,0.47172
-0.144398,0.207471,-0.185722,-0.383307,-0.66802,0.473646,-0.0164769,-0.0296561,0.488284
-0.159046,0.195435,-0.176596,-0.666172,-0.588028,0.596095,-0.0170021,-0.0446372,0.463288
-0.170865,0.17809,-0.166293,-0.862672,-0.409171,0.690561,-0.0358102,-0.0633897,0.373081
-0.179564,0.157371,-0.154956,-0.977369,-0.277672,0.762668,-0.0617812,-0.0727243,0.260002
-0.185953,0.135574,-0.143549,-0.932835,-0.217085,0.728269,-0.115077,-0.081089,0.104785
-0.191559,0.117146,-0.133596,-0.667203,-0.224465,0.571225,-0.162905,-0.0728951,-0.0484268
-0.19809,0.106358,-0.126632,-0.265137,-0.365774,0.308448,-0.200296,-0.0653516,-0.130198
-0.20573,0.103052,-0.123643,-0.0421768,-0.305509,0.0540936,-0.213809,-0.0602162,-0.113546
-0.209335,0.103038,-0.124526,0.0120117,-0.0737047,-0.118521,-0.19907,-0.0691722,-0.11262
-0.209128,0.104097,-0.127782,0.0209662,0.0332011,-0.220392,-0.14514,-0.0392644,-0.167494
-0.208165,0.105564,-0.133185,0.00375576,-0.00841868,-0.342173,-0.113776,-0.0111638,-0.225368
-0.20873,0.107214,-0.141348,-0.00732097,-0.136795,-0.492266,-0.0796781,0.00945961,-0.265558
-0.212275,0.110049,-0.152586,0.0625331,-0.361785,-0.665337,-0.041017,0.0243319,-0.298226
-0.22011,0.115554,-0.166978,0.164555,-0.531306,-0.853653,-0.013405,0.0135661,-0.281474
-0.227284,0.12312,-0.184185,0.173951,-0.335362,-0.957798,0.0199213,-0.0423216,-0.235363
-0.228141,0.129445,-0.201455,0.0368723,0.026951,-0.815689,0.119051,-0.0898039,-0.2345
-0.222675,0.131548,-0.21416,-0.0934395,0.325468,-0.438805,0.223249,-0.0915633,-0.30132
-0.215229,0.131072,-0.219226,-0.0355114,0.296301,-0.067372,0.22094,-0.0324344,-0.383122
-0.211657,0.131907,-0.218996,0.130657,0.0416882,0.0168213,0.116871,0.0501495,-0.36284
-0.215073,0.136943,-0.219341,0.360751,-0.422037,-0.190321,0.0306194,0.128016,-0.257878
-0.227565,0.147347,-0.22409,0.536663,-0.863519,-0.490577,0.0102404,0.165903,-0.075202
-0.244923,0.161033,-0.233143,0.555998,-0.935917,-0.678059,0.028041,0.140669,0.114343
-0.257715,0.173828,-0.244486,0.379175,-0.467302,-0.697462,0.0333337,0.0917165,0.237513
-0.257861,0.18135,-0.25511,0.0691054,0.260027,-0.463828,0.0620799,0.0544116,0.270463
-0.246606,0.180291,-0.26016,-0.309008,0.708005,0.0400062,0.11325,0.0527137,0.221286
-0.231919,0.168726,-0.256742,-0.738947,0.780425,0.524227,0.100971,0.119297,0.148753
-0.21866,0.148023,-0.247956,-1.05447,0.662346,0.73458,0.00890648,0.214118,0.0560597
-0.208299,0.123518,-0.239045,-1.10898,0.53075,0.58961,-0.139262,0.269979,-0.0448933
-0.198795,0.103139,-0.236084,-0.771715,0.436382,0.0657189,-0.259631,0.296026,-0.151094
-0.191369,0.0948817,-0.242791,-0.14406,0.24477,-0.553324,-0.26422,0.271039,-0.179135
-0.186135,0.101211,-0.257355,0.472897,0.162803,-0.935865,-0.175198,0.203485,-0.103998
-0.181509,0.117907,-0.274031,0.820862,0.0994205,-0.949,-0.0289612,0.11771,0.0257854
-0.179783,0.137941,-0.287687,0.861998,-0.124606,-0.729444,0.0622651,0.0560673,0.170353
-0.183462,0.155143,-0.296985,0.63063,-0.366962,-0.504508,0.0636813,0.0159107,0.308949
-0.191121,0.165908,-0.303939,0.306605,-0.497437,-0.387885,0.0395396,-0.00593351,0.381946
-0.200329,0.170874,-0.310464,0.0814856,-0.501544,-0.352263,0.0260799,-0.028458,0.381043
-0.207796,0.173186,-0.31716,0.042425,-0.364417,-0.349019,0.0138867,-0.0525014,0.327254
-0.212857,0.175749,-0.323818,0.0734832,-0.253676,-0.343131,0.0124734,-0.0872242,0.279956
-0.215269,0.178615,-0.329864,0.0776377,-0.103333,-0.296863,0.0291514,-0.128074,0.226926
-0.215201,0.180948,-0.334391,0.0517794,0.0451218,-0.172516,0.0464524,-0.157348,0.157471
-0.212787,0.182043,-0.335766,0.0251031,0.148414,0.0248833,0.0576558,-0.169791,0.0536408
-0.209868,0.181078,-0.333398,-0.0864091,0.1938,0.212137,0.0489795,-0.158777,-0.0231315
-0.209868,0.181078,-0.333398,-0.0864091,0.1938,0.212137,0.0489795,-0.158777,-0.0231315
-0.206808,0.176955,-0.328508,-0.204324,0.184561,0.337831,0.0390602,-0.146279,-0.120988
-0.204763,0.171191,-0.321549,-0.20664,0.137949,0.445995,0.0393213,-0.125375,-0.229997
-0.204398,0.165718,-0.312626,-0.147359,0.0299835,0.520921,0.0288562,-0.120685,-0.310461
-0.207486,0.161262,-0.302321,-0.0977812,-0.168458,0.568074,0.00995277,-0.134373,-0.350642
-0.213453,0.155978,-0.29099,-0.216304,-0.204717,0.64983,0.00787817,-0.14252,-0.334608
-0.217979,0.146798,-0.27852,-0.39845,-0.0558473,0.746691,0.0202207,-0.12564,-0.351349
-0.219297,0.135354,-0.265507,-0.417213,0.112411,0.745864,-0.00389776,-0.109841,-0.421091
-0.216755,0.125608,-0.253437,-0.234633,0.268538,0.605933,-0.0189322,-0.0529139,-0.467052
-0.212539,0.122695,-0.244452,0.161894,0.226887,0.319149,-0.0226842,-0.0119506,-0.461216
-0.210767,0.129475,-0.239629,0.589966,-0.00444868,0.0139147,-0.00274625,0.00444889,-0.352229
-0.21302,0.144643,-0.238456,0.896867,-0.177297,-0.199158,0.0274118,0.00641307,-0.177692
-0.215935,0.164798,-0.239293,1.02983,-0.0825793,-0.291666,0.0673153,0.0141044,0.00799155
-0.214611,0.185999,-0.240587,1.0012,0.227898,-0.276159,0.103917,0.0218425,0.137331
-0.205821,0.205639,-0.241184,0.917489,0.625651,-0.186464,0.112067,0.0256805,0.180086
-0.190749,0.223604,-0.240311,0.877207,0.879733,-0.0913679,0.113722,0.047002,0.164007
-0.17364,0.241131,-0.238178,0.886873,0.820124,-0.0162892,0.13385,0.0776682,0.138046
-0.161187,0.257718,-0.234269,0.786766,0.517416,0.127564,0.143196,0.0679999,0.169695
-0.156336,0.270271,-0.227225,0.552278,0.144955,0.350102,0.143013,0.0467621,0.22549
-0.158784,0.277188,-0.216625,0.29364,-0.0599836,0.541201,0.115965,0.0506144,0.281913
-0.163438,0.27905,-0.203498,0.108113,-0.0214261,0.669935,0.0638269,0.0723476,0.312231
-0.167407,0.277425,-0.188776,-0.0371291,0.012079,0.752803,0.0267106,0.102906,0.32428
-0.172163,0.272453,-0.173506,-0.207782,-0.0903411,0.772455,-0.00549135,0.120016,0.332634
-0.179826,0.264197,-0.158824,-0.363306,-0.279949,0.764923,-0.0308535,0.109858,0.335342
-0.189354,0.252888,-0.145106,-0.502519,-0.301811,0.75181,-0.0734237,0.0777006,0.324286
-0.197761,0.239605,-0.132465,-0.547017,-0.22844,0.693595,-0.128093,0.0524124,0.285841
-0.203634,0.226891,-0.122464,-0.499549,-0.120206,0.498999,-0.17417,0.0536233,0.239379
-0.205705,0.21626,-0.117051,-0.439044,0.0372164,0.22997,-0.197015,0.0435121,0.201949
-0.203338,0.208143,-0.11682,-0.340292,0.183959,-0.0348079,-0.20284,-0.00534673,0.135917
-0.19868,0.20353,-0.12047,-0.18049,0.177676,-0.210147,-0.152768,-0.0357413,0.0581308
-0.195457,0.202421,-0.126053,-0.054962,0.0238788,-0.290267,-0.0932132,-0.0665523,0.0158928
-0.195304,0.202493,-0.131772,-0.0652204,-0.107863,-0.245892,-0.0448552,-0.112517,0.00261724
-0.197129,0.201257,-0.135797,-0.138499,-0.142678,-0.104407,-0.0295945,-0.159703,-0.0377259
-0.199189,0.197489,-0.13678,-0.249136,-0.0690341,0.0806346,-0.0306268,-0.174276,-0.109566
-0.200249,0.191288,-0.135338,-0.320565,-0.0314719,0.166171,-0.0476957,-0.132768,-0.20012
-0.20261,0.184469,-0.133303,-0.281701,-0.207033,0.156898,-0.0454435,-0.0719922,-0.298747
-0.210675,0.179848,-0.131997,-0.150582,-0.565865,0.0437813,-0.0649895,-0.0455771,-0.348857
-0.222864,0.177839,-0.133261,-0.10155,-0.604802,-0.114223,-0.0685641,-0.0361099,-0.309278
-0.231354,0.175727,-0.136625,-0.206589,-0.26654,-0.134742,-0.0351764,-0.0449943,-0.265449
-0.230806,0.170506,-0.13987,-0.360488,0.26745,-0.0503288,0.0386468,-0.0119442,-0.312225
-0.222091,0.163703,-0.141421,-0.286243,0.504193,0.0557962,0.0875947,0.0611815,-0.421849
-0.213133,0.160803,-0.14084,0.0346905,0.354567,0.0263476,0.0588921,0.130036,-0.452701
-0.209925,0.165479,-0.141792,0.390214,-0.0827961,-0.260034,-0.00146107,0.196234,-0.320531
-0.214833,0.177002,-0.14891,0.559704,-0.493313,-0.659163,-0.0313424,0.201516,-0.0925893
-0.223946,0.191301,-0.161983,0.526363,-0.61234,-0.874019,0.000529185,0.157177,0.128446
-0.231935,0.203856,-0.17768,0.317921,-0.463685,-0.880994,0.0276225,0.0880821,0.278007
-0.234801,0.210359,-0.192796,-0.0373417,-0.09468,-0.69344,0.0386019,0.0273233,0.35728
-0.228952,0.208629,-0.204835,-0.398671,0.416031,-0.391087,0.0564931,-0.00177424,0.337079
-0.216365,0.198721,-0.211043,-0.699979,0.67443,0.00478158,0.0838841,0.0126319,0.241429
-0.201958,0.182258,-0.211765,-0.904353,0.727271,0.244719,0.0598146,0.0756747,0.126322
-0.189071,0.162794,-0.209598,-0.938441,0.590466,0.305624,-0.00756228,0.123044,0.0427406
-0.178773,0.145027,-0.208053,-0.747063,0.459154,0.137731,-0.0993741,0.143009,-0.0278091
-0.171418,0.133817,-0.210291,-0.388355,0.232729,-0.170984,-0.148465,0.146189,-0.0406619
-0.16811,0.13084,-0.217512,-0.0429864,0.014938,-0.462811,-0.122914,0.114659,0.0177285
-0.168014,0.133935,-0.227563,0.153307,-0.126021,-0.535726,-0.0449966,0.0498102,0.121834
-0.169949,0.138953,-0.236664,0.165217,-0.174662,-0.420444,0.0229251,-0.00564347,0.227116
-0.172294,0.142536,-0.24261,0.0869365,-0.132633,-0.217814,0.0502892,-0.0341551,0.284285
-0.173785,0.143737,-0.244925,-0.00802192,-0.0375498,-0.0390669,0.0343332,-0.0428384,0.30527
-0.17364,0.142456,-0.244746,-0.121962,0.042554,0.0726531,0.0271592,-0.0371784,0.299555
-0.172171,0.13865,-0.243077,-0.214259,0.132682,0.153621,0.0135955,-0.0450064,0.244041
-0.168897,0.133651,-0.240413,-0.21723,0.226726,0.185073,-0.00424103,-0.0561239,0.144475
-0.164422,0.129359,-0.23699,-0.142746,0.243593,0.232604,0.0114053,-0.0578306,0.0273887
-0.1612,0.126384,-0.231737,-0.0881302,0.138053,0.336421,0.00594836,-0.0917864,-0.0659268
-0.160716,0.122936,-0.224166,-0.144677,0.00855537,0.46199,-0.000927046,-0.113061,-0.108975
-0.162244,0.117553,-0.214485,-0.223183,-0.0325296,0.58047,-0.000531361,-0.116452,-0.154694
-0.164252,0.110796,-0.202434,-0.245747,-0.0213424,0.704652,-0.0125671,-0.112392,-0.209541
-0.165638,0.103634,-0.188731,-0.232622,0.0119719,0.74777,-0.0451705,-0.0907802,-0.256481
-0.167567,0.0970602,-0.175081,-0.198338,-0.0720231,0.687256,-0.106156,-0.108933,-0.300676
-0.169705,0.0910247,-0.163132,-0.208275,0.030879,0.587457,-0.129049,-0.127637,-0.332075
-0.167734,0.0855232,-0.153354,-0.153174,0.20843,0.465259,-0.120634,-0.127701,-0.38011
-0.164191,0.0821672,-0.145892,-0.0618052,0.207477,0.33028,-0.116272,-0.145525,-0.406136
-0.160147,0.0807509,-0.141117,-0.00440211,0.250765,0.146429,-0.0872876,-0.146739,-0.389167
-0.152836,0.0811651,-0.14097,0.0727154,0.498541,-0.138477,-0.0603264,-0.144861,-0.390231
-0.142453,0.0860318,-0.144585,0.390953,0.418038,-0.227353,0.0659921,-0.117703,-0.411892
-0.138128,0.0985274,-0.146079,0.823378,-0.0283496,-0.104909,0.15489,-0.0460564,-0.341599
-0.142567,0.117773,-0.145481,1.03102,-0.352779,-0.129402,0.0954463,-0.00225058,-0.110356
-0.14902,0.13696,-0.146279,0.810627,-0.248794,-0.236362,0.0430597,0.0103882,0.124218
-0.14902,0.13696,-0.146279,0.810627,-0.248794,-0.236362,0.0430597,0.0103882,0.124218
-0.150588,0.151093,-0.150292,0.574869,0.0391507,-0.352137,0.0588019,0.00914635,0.182436
-0.146873,0.16391,-0.155163,0.659474,0.226685,-0.294561,0.13059,0.0567009,0.141105
-0.141737,0.179054,-0.157721,0.779929,0.220877,-0.171347,0.142834,0.077345,0.162728
-0.138368,0.193683,-0.157917,0.626288,0.0936453,-0.0534478,0.118792,0.0768435,0.255737
-0.138103,0.202799,-0.156677,0.290411,-0.0210867,0.0404437,0.0800638,0.0724441,0.325665
-0.138521,0.205782,-0.155293,0.0564455,0.0310331,0.0420258,0.0383178,0.101275,0.320279
-0.13669,0.206151,-0.15452,0.0127325,0.161908,0.0279029,0.0191367,0.144727,0.280029
-0.133277,0.206495,-0.153767,0.0236349,0.172787,0.0456485,0.0213565,0.17082,0.263655
-0.131476,0.206485,-0.152612,-0.0206751,0.00261718,0.0681915,0.0118729,0.170551,0.277912
-0.134178,0.205042,-0.151278,-0.114961,-0.236822,0.0814027,-0.0378348,0.126903,0.315421
-0.140547,0.201046,-0.150208,-0.281196,-0.36047,0.0779052,-0.095601,0.0734129,0.348263
-0.147936,0.193454,-0.149885,-0.463096,-0.346461,0.0610025,-0.118902,0.0364576,0.343155
-0.152505,0.183611,-0.150816,-0.483415,-0.097262,-0.0178344,-0.153862,-0.00159226,0.27337
-0.151005,0.176346,-0.153635,-0.258729,0.177966,-0.143297,-0.190219,-0.050793,0.165579
-0.145448,0.173934,-0.157987,-0.0705442,0.271148,-0.238922,-0.17465,-0.0986857,0.100229
-0.139965,0.173419,-0.163264,-0.0821794,0.152566,-0.249272,-0.124944,-0.16415,0.0458181
-0.138792,0.171107,-0.167258,-0.224164,-0.0927482,-0.0803905,-0.0685075,-0.224212,-0.036118
-0.142015,0.164783,-0.166683,-0.375931,-0.210396,0.233775,0.00760198,-0.223703,-0.170984
-0.148641,0.156585,-0.160384,-0.316555,-0.340434,0.475784,0.0279509,-0.160949,-0.3202
-0.156777,0.150784,-0.150776,-0.0889874,-0.301376,0.522271,-0.0245144,-0.0603881,-0.398167
-0.164187,0.15096,-0.14148,0.260612,-0.344536,0.349844,-0.0606524,0.0405999,-0.423777
-0.175233,0.158945,-0.136388,0.596823,-0.744343,-0.00845026,-0.0488377,0.122251,-0.368257
-0.19551,0.172736,-0.137968,0.674973,-1.26284,-0.373511,0.00321971,0.139621,-0.239262
-0.220486,0.185853,-0.144528,0.439896,-1.26092,-0.48838,0.0673391,0.0939185,-0.0970277
-0.239341,0.192606,-0.151848,0.0361232,-0.699209,-0.31463,0.14253,0.0566215,-0.0312569
-0.244667,0.189463,-0.154917,-0.410471,0.10816,0.110384,0.186812,0.0655288,-0.0463806
-0.237719,0.177335,-0.152691,-0.668347,0.522665,0.332163,0.108945,0.0987854,-0.187575
-0.228129,0.162811,-0.149866,-0.64176,0.431774,0.232673,0.018666,0.170546,-0.29909
-0.222596,0.152338,-0.150821,-0.381004,0.0643482,-0.116936,-0.0445351,0.203721,-0.331286
-0.224923,0.1494,-0.158381,-0.0808636,-0.371344,-0.549981,-0.0902591,0.201701,-0.239127
-0.231138,0.153274,-0.172876,0.110307,-0.390972,-0.9217,-0.127772,0.144496,-0.07748
-0.232996,0.160976,-0.193119,0.159965,-0.0862533,-1.18646,-0.123425,0.0902892,0.0524559
-0.226326,0.169042,-0.217074,0.0619703,0.383094,-1.26887,-0.0721345,0.0410555,0.136999
-0.210113,0.173487,-0.240882,-0.147711,0.791738,-1.0801,0.0179856,-0.00272048,0.148614
-0.189296,0.172135,-0.259867,-0.352806,0.914766,-0.73066,0.0736162,0.00130272,0.105272
-0.169887,0.166053,-0.273671,-0.466132,0.778628,-0.547213,0.0358399,0.0670853,0.0551615
-0.154225,0.159093,-0.286232,-0.38922,0.591807,-0.594255,-0.0503062,0.117147,0.00998455
-0.1412,0.155518,-0.30067,-0.158875,0.508754,-0.783918,-0.117696,0.123535,-0.0125775
-0.128643,0.157811,-0.318535,0.158202,0.45508,-0.992142,-0.115844,0.121451,-0.0126521
-0.117619,0.166546,-0.338738,0.457191,0.308584,-1.06445,-0.0353683,0.108526,0.0156199
-0.110518,0.179953,-0.357854,0.63569,0.0682096,-0.939661,0.043144,0.091322,0.0979058
-0.108671,0.194529,-0.373264,0.628202,-0.155311,-0.723985,0.077145,0.0847079,0.204355
-0.110884,0.20711,-0.384281,0.484177,-0.266387,-0.491305,0.0771947,0.077443,0.295923
-0.11453,0.215331,-0.391059,0.262018,-0.218916,-0.264371,0.0622026,0.0591453,0.344285
-0.116995,0.219432,-0.394012,0.142912,-0.080687,-0.0815262,0.0520244,0.0575796,0.329975
-0.117482,0.222517,-0.393926,0.187706,0.00862766,0.0393394,0.0233183,0.0566988,0.287851
-0.118199,0.226566,-0.391553,0.227452,-0.0361701,0.14125,-0.00198755,0.0261616,0.263909
-0.12072,0.230045,-0.38738,0.145984,-0.122778,0.219202,-0.0136353,0.00527348,0.262468
-0.125349,0.230319,-0.382028,-0.0737328,-0.211992,0.296977,-0.0319367,-0.0306232,0.251233
-0.13242,0.224706,-0.375291,-0.424772,-0.361035,0.442838,-0.0384917,-0.0756726,0.214463
-0.142571,0.210495,-0.366372,-0.868462,-0.436507,0.61331,-0.0442449,-0.100107,0.143237
-0.152863,0.188022,-0.355949,-1.17266,-0.367386,0.716311,-0.0554473,-0.0895735,0.0122719
-0.159625,0.162006,-0.345598,-1.19658,-0.113885,0.681309,-0.0953913,-0.0754417,-0.174887
-0.160879,0.138916,-0.337039,-0.914847,0.0956114,0.506,-0.135257,-0.0650368,-0.346412
-0.160879,0.138916,-0.337039,-0.914847,0.0956114,0.506,-0.135257,-0.0650368,-0.346412
-0.159922,0.12385,-0.332238,-0.497444,-0.00366783,0.188847,-0.172148,-0.0667435,-0.446851
-0.162879,0.116845,-0.333238,-0.27308,-0.26096,-0.168117,-0.174685,-0.0965097,-0.419973
-0.165973,0.111895,-0.340262,-0.342115,-0.0738014,-0.426874,-0.105658,-0.120959,-0.357373
-0.163873,0.107049,-0.351398,-0.286795,0.163079,-0.564794,-0.0184731,-0.157438,-0.400591
-0.156039,0.105017,-0.363815,-0.0936571,0.509235,-0.626464,0.0541325,-0.143147,-0.443785
-0.141849,0.108127,-0.376599,0.225931,0.746598,-0.671012,0.115234,-0.118981,-0.462221
-0.123907,0.117994,-0.388972,0.594443,0.915569,-0.679421,0.144246,-0.102494,-0.432993
-0.103722,0.134906,-0.400304,0.9511,0.92095,-0.611261,0.200785,-0.0574735,-0.369255
-0.0853454,0.157592,-0.409249,1.20893,0.797848,-0.493226,0.219073,-0.0109364,-0.258754
-0.0695559,0.183839,-0.415918,1.34979,0.665854,-0.371323,0.21141,0.0558067,-0.119356
-0.0567275,0.211687,-0.420885,1.39326,0.519939,-0.298757,0.181896,0.115215,0.014832
-0.0476766,0.239149,-0.42507,1.31788,0.27845,-0.254587,0.17266,0.168043,0.145958
-0.0438555,0.263662,-0.428632,1.10672,0.0338344,-0.197118,0.186461,0.191785,0.264944
-0.0437076,0.283106,-0.430741,0.834112,-0.0498491,-0.0714985,0.194222,0.172101,0.345811
-0.0441814,0.296742,-0.429502,0.538071,0.0776836,0.132371,0.176911,0.135149,0.391442
-0.0420486,0.304602,-0.424071,0.271821,0.28664,0.351954,0.141099,0.11693,0.387144
-0.0377882,0.306873,-0.414409,-0.00438098,0.415669,0.556934,0.102955,0.110321,0.361309
-0.0340447,0.30366,-0.400991,-0.273642,0.333731,0.734958,0.0637003,0.123142,0.325446
-0.0339084,0.294897,-0.384709,-0.542011,0.149671,0.833118,-0.00961479,0.135337,0.287261
-0.0382975,0.281806,-0.368268,-0.688365,-0.144436,0.765732,-0.104305,0.144531,0.247845
-0.0477936,0.267024,-0.355108,-0.726441,-0.425794,0.544826,-0.186767,0.131142,0.238758
-0.0592091,0.252056,-0.347463,-0.728332,-0.494914,0.290449,-0.225959,0.0654199,0.241424
-0.0689892,0.237485,-0.344208,-0.705679,-0.390219,0.138189,-0.222032,-0.0254379,0.222825
-0.0760978,0.223944,-0.342908,-0.636843,-0.310782,0.0975487,-0.201112,-0.0835264,0.178369
-0.0824911,0.21206,-0.342155,-0.549114,-0.321928,0.0583263,-0.192489,-0.115088,0.142763
-0.0894995,0.201958,-0.342853,-0.465765,-0.397159,-0.0413115,-0.196738,-0.133748,0.11255
-0.0972735,0.193498,-0.345133,-0.401382,-0.409904,-0.0963685,-0.176482,-0.147963,0.0767656
-0.104548,0.186539,-0.348086,-0.319885,-0.384511,-0.115527,-0.151863,-0.163662,0.0089944
-0.11158,0.181247,-0.35113,-0.245466,-0.37488,-0.127715,-0.129916,-0.162747,-0.0676935
-0.117887,0.176988,-0.354022,-0.219234,-0.294746,-0.100974,-0.0864176,-0.146414,-0.142601
-0.122247,0.173404,-0.355864,-0.143716,-0.179129,-0.0262851,-0.0179931,-0.111765,-0.250451
-0.126242,0.172181,-0.355237,0.0352009,-0.255399,0.104507,0.0371615,-0.0617465,-0.347273
-0.134909,0.174404,-0.351934,0.218365,-0.585945,0.156783,0.0595225,0.00919969,-0.352289
-0.152533,0.179443,-0.348928,0.286741,-1.13159,0.0480409,0.0551878,0.0568388,-0.278229
-0.177682,0.183875,-0.348293,0.134771,-1.27409,-0.0432689,0.0604111,0.0505158,-0.15259
-0.199538,0.184281,-0.348691,-0.107616,-0.843876,0.0356194,0.0734158,0.0173463,-0.0903621
-0.20922,0.179203,-0.346567,-0.328776,-0.0799253,0.275295,0.0821482,0.0315781,-0.128673
-0.205836,0.170474,-0.341718,-0.412541,0.446386,0.334173,0.0513223,0.123782,-0.224874
-0.195138,0.161455,-0.338273,-0.382143,0.645429,0.143326,0.00383426,0.19884,-0.294296
-0.181527,0.155272,-0.340339,-0.245456,0.671279,-0.246718,-0.0252991,0.231873,-0.322331
-0.167961,0.154617,-0.350246,0.0387298,0.499253,-0.708248,-0.00381254,0.231318,-0.303406
-0.159006,0.162342,-0.367542,0.451869,0.0995784,-1.08508,0.0509238,0.193841,-0.232034
-0.156722,0.178277,-0.389546,0.753503,-0.195498,-1.2922,0.11662,0.143841,-0.0646845
-0.156818,0.198511,-0.413951,0.842754,-0.23895,-1.37846,0.160128,0.0717364,0.116357
-0.155254,0.218226,-0.439001,0.690873,-0.104004,-1.31818,0.187966,-0.0190824,0.254122
-0.150316,0.232094,-0.460535,0.328523,0.119307,-0.913666,0.249053,-0.110469,0.319818
-0.142378,0.234966,-0.472314,-0.231829,0.419726,-0.25085,0.28784,-0.163141,0.342229
-0.130557,0.224596,-0.472256,-0.769011,0.745649,0.374378,0.270227,-0.16187,0.276036
-0.116837,0.204997,-0.462678,-1.0169,0.78727,0.756552,0.18928,-0.0926397,0.118505
-0.104791,0.182933,-0.447913,-0.982375,0.689379,0.893485,0.0882055,-0.0492104,-0.00910968
-0.0955746,0.16384,-0.432154,-0.740277,0.487862,0.825677,0.00265956,-0.025521,-0.0972096
-0.0907106,0.151243,-0.418189,-0.378497,0.219344,0.659847,-0.0391099,0.00882122,-0.135246
-0.0898609,0.146486,-0.407093,-0.00142702,0.0607079,0.489374,-0.0678525,0.0286685,-0.105354
-0.0901688,0.148662,-0.397842,0.275891,0.0505004,0.425089,-0.0649687,0.0276625,-0.0233331
-0.0901688,0.148662,-0.397842,0.275891,0.0505004,0.425089,-0.0649687,0.0276625,-0.0233331
-0.0908692,0.154593,-0.388383,0.368665,0.019264,0.467467,-0.0449052,0.0237589,0.0784345
-0.0929687,0.16044,-0.377438,0.300904,-0.0671798,0.55937,-0.0218065,0.0314416,0.155593
-0.097428,0.164297,-0.364868,0.201126,-0.164094,0.63665,-0.0195298,0.0421442,0.206617
-0.103186,0.166213,-0.351188,0.134313,-0.186154,0.688545,-0.0317018,0.048246,0.228821
-0.109396,0.166964,-0.336675,0.0953041,-0.206968,0.721504,-0.0472168,0.0431426,0.234395
-0.116335,0.166807,-0.321885,0.0373226,-0.245199,0.729728,-0.067103,0.0265382,0.246987
-0.123851,0.164446,-0.307354,-0.104443,-0.257988,0.729667,-0.0877263,-0.00877969,0.24235
-0.13111,0.159056,-0.293165,-0.249737,-0.228368,0.730243,-0.105169,-0.0420996,0.197211
-0.136635,0.150734,-0.279287,-0.39404,-0.105605,0.745836,-0.114083,-0.0585308,0.126908
-0.139447,0.139765,-0.265711,-0.498592,0.0116037,0.738722,-0.103464,-0.0637387,0.0132292
-0.140566,0.127712,-0.252784,-0.504195,0.0363527,0.694529,-0.106261,-0.0589293,-0.112791
-0.140837,0.116176,-0.241346,-0.476093,0.0894433,0.586434,-0.12359,-0.0555178,-0.201649
-0.13937,0.10604,-0.232274,-0.392267,0.145946,0.446197,-0.145262,-0.0692834,-0.276077
-0.138422,0.098719,-0.225905,-0.253031,-0.0338363,0.280838,-0.151373,-0.0781534,-0.336805
-0.140457,0.0928805,-0.222527,-0.334467,-0.0574289,0.156979,-0.110318,-0.0866659,-0.300416
-0.139107,0.0825234,-0.2204,-0.679938,0.20035,0.223967,-0.0448876,-0.118956,-0.296889
-0.133862,0.0653328,-0.216959,-0.941364,0.334278,0.332353,-0.0391393,-0.141638,-0.413236
-0.127556,0.0462592,-0.213275,-0.840496,0.2998,0.256093,-0.0562448,-0.0839149,-0.548873
-0.123113,0.0337038,-0.211939,-0.343001,0.146917,0.0174897,-0.0618376,-0.0350587,-0.606597
-0.12131,0.0337829,-0.214733,0.329981,0.0171773,-0.292625,-0.0645427,-0.0126103,-0.557461
-0.122899,0.0476494,-0.221188,0.938349,-0.200795,-0.493267,-0.0391554,-0.0135412,-0.394671
-0.127374,0.0710296,-0.229036,1.23607,-0.265045,-0.5627,0.0162667,0.00232054,-0.15846
-0.131597,0.0975286,-0.236906,1.26083,-0.20688,-0.550869,0.0606322,0.0156326,0.039789
-0.132877,0.122783,-0.24406,1.14924,0.0406849,-0.478939,0.109531,0.0308303,0.14156
-0.127165,0.145675,-0.249457,1.077,0.452892,-0.343471,0.155371,0.064395,0.14568
-0.114529,0.167991,-0.252212,1.12047,0.742646,-0.205759,0.171294,0.113033,0.107576
-0.0988828,0.191176,-0.252911,1.17504,0.759618,-0.121685,0.159194,0.153972,0.0965993
-0.0861158,0.21418,-0.252813,1.09006,0.504771,-0.0822018,0.150512,0.173422,0.148197
-0.0792563,0.233435,-0.252146,0.823007,0.189669,0.00494476,0.150039,0.163373,0.225912
-0.0801992,0.246454,-0.249138,0.496846,-0.21311,0.200226,0.139933,0.124445,0.298072
-0.0894816,0.252203,-0.242062,0.132119,-0.508139,0.438292,0.101138,0.0796007,0.366926
-0.103371,0.249854,-0.231263,-0.259469,-0.581231,0.615098,0.00986489,0.0490353,0.416398
-0.117842,0.240113,-0.21864,-0.550611,-0.584954,0.698729,-0.0779881,0.0276376,0.394781
-0.133527,0.225927,-0.206235,-0.683597,-0.693016,0.664202,-0.144773,0.0205798,0.350982
-0.14995,0.210748,-0.196134,-0.659516,-0.726677,0.519575,-0.180745,0.0270013,0.29463
-0.165344,0.197778,-0.189635,-0.505891,-0.674361,0.305194,-0.207666,0.0154299,0.23729
-0.178292,0.189323,-0.187442,-0.292027,-0.576046,0.0525282,-0.218261,0.00170083,0.200725
-0.18789,0.185849,-0.189534,-0.0899991,-0.416554,-0.196312,-0.190972,-0.00113213,0.181273
-0.193437,0.187653,-0.19583,0.154195,-0.283534,-0.438769,-0.147888,0.00172405,0.143199
-0.197032,0.194766,-0.205781,0.333762,-0.263105,-0.658335,-0.0983774,0.00113897,0.130385
-0.198781,0.205047,-0.219484,0.39991,-0.189052,-0.859031,-0.0468505,-0.00347914,0.124277
-0.198373,0.216809,-0.236183,0.423142,-0.10567,-0.953975,0.0364548,-0.0122115,0.0815058
-0.195463,0.228048,-0.253135,0.327145,-0.000602714,-0.85483,0.14598,-0.0207956,0.0281465
-0.19275,0.234432,-0.266618,0.0177844,-0.0434134,-0.534942,0.222208,-0.0840242,-0.0126053
-0.192239,0.232416,-0.2743,-0.345898,-0.0950696,-0.173223,0.182869,-0.148089,-0.091566
-0.19445,0.223624,-0.277489,-0.558654,-0.175646,-0.00419926,0.0954285,-0.151191,-0.199603
-0.196938,0.211145,-0.279429,-0.7063,-0.0853909,0.0761568,0.0806504,-0.121689,-0.284227
-0.195352,0.19496,-0.279093,-0.891707,0.301578,0.292803,0.0997822,-0.125426,-0.377555
-0.185326,0.174906,-0.274694,-0.951411,0.715286,0.496406,0.0599189,-0.0756331,-0.506271
-0.173208,0.157451,-0.267498,-0.5836,0.524208,0.466385,-0.0314027,0.00218427,-0.619113
-0.169123,0.150848,-0.262681,0.0120568,-0.0630845,0.0532604,-0.149054,0.0786826,-0.556528
-0.174735,0.156399,-0.266964,0.408338,-0.493987,-0.556027,-0.214993,0.0932007,-0.336955
-0.183008,0.16887,-0.280941,0.561479,-0.532782,-0.994043,-0.197355,0.0148244,-0.121659
-0.189877,0.185425,-0.301015,0.699988,-0.50834,-1.22991,-0.112471,0.00592788,0.0456226
-0.189877,0.185425,-0.301015,0.699988,-0.50834,-1.22991,-0.112471,0.00592788,0.0456226
-0.195157,0.204569,-0.323194,0.728498,-0.448476,-1.25167,-0.00998271,0.0119219,0.203711
-0.199052,0.221142,-0.34392,0.449792,-0.375696,-1.01518,0.0557483,-0.0387582,0.343224
-0.201496,0.227597,-0.358792,-0.135394,-0.168515,-0.513832,0.0573249,-0.0874276,0.424258
-0.200735,0.219137,-0.36489,-0.813944,0.0917641,0.103026,0.0382645,-0.0815321,0.409046
-0.197551,0.196158,-0.362606,-1.37187,0.255018,0.51885,-0.0116728,0.0224022,0.300277
-0.1927,0.163531,-0.356679,-1.67828,0.34409,0.648867,-0.0857795,0.138556,0.16557
-0.185223,0.128485,-0.351796,-1.61756,0.455859,0.43662,-0.189865,0.197422,-0.00604159
-0.176507,0.0998561,-0.352873,-1.17858,0.380092,-0.0563514,-0.261364,0.207905,-0.152399
-0.170914,0.0840552,-0.362368,-0.531924,0.0453763,-0.589275,-0.211224,0.184786,-0.201155
-0.17464,0.0819161,-0.378008,0.00842578,-0.542995,-0.846927,-0.0705276,0.11431,-0.118885
-0.187516,0.0871572,-0.393551,0.18115,-0.808646,-0.740373,0.0349395,0.0153,0.0397152
-0.202842,0.0929739,-0.405499,0.149203,-0.794669,-0.534729,0.0583257,-0.0396522,0.183962
-0.214804,0.0972355,-0.413187,0.121467,-0.432969,-0.313035,0.052985,-0.0465182,0.256995
-0.218322,0.101114,-0.4167,0.194758,0.0375237,-0.113453,0.0107581,-0.0530648,0.272423
-0.213778,0.105788,-0.416398,0.256509,0.385898,0.0242984,-0.0228586,-0.0383764,0.277315
-0.204728,0.110542,-0.414418,0.249324,0.531444,0.0643207,-0.0447969,-0.018513,0.259212
-0.194377,0.115475,-0.411484,0.308777,0.509992,0.130203,-0.0445663,-0.0146031,0.186319
-0.186158,0.121861,-0.406917,0.395093,0.369501,0.180658,-0.0969125,-0.0393447,0.126817
-0.180189,0.128872,-0.402133,0.357262,0.297454,0.156242,-0.140814,-0.0600525,0.103673
-0.174988,0.133851,-0.39785,0.199762,0.303862,0.19403,-0.10891,-0.0848708,0.0563955
-0.168093,0.135451,-0.391512,0.0845639,0.490012,0.436222,-0.0462357,-0.110156,-0.0586625
-0.158486,0.134551,-0.378427,0.0442629,0.646182,0.872268,0.0253699,-0.0976054,-0.18581
-0.147204,0.132353,-0.357319,0.0678283,0.74747,1.19056,-0.01353,-0.0590278,-0.303432
-0.136535,0.131499,-0.332698,0.217228,0.602305,1.19096,-0.125104,-0.0106336,-0.390037
-0.132032,0.135669,-0.311169,0.483892,0.106866,0.8109,-0.210534,0.0307612,-0.420034
-0.135231,0.146066,-0.29948,0.679631,-0.186205,0.213725,-0.222512,0.0328758,-0.358945
-0.137786,0.159924,-0.296415,0.712146,0.0616335,-0.0503461,-0.142844,-0.0463688,-0.274559
-0.131367,0.173566,-0.296079,0.646957,0.603081,-0.0851185,-0.0930852,-0.158267,-0.267668
-0.114194,0.186266,-0.295924,0.621343,1.08397,-0.0672036,-0.061456,-0.20371,-0.2977
-0.0898203,0.198388,-0.296954,0.579466,1.29779,-0.178828,-0.0646324,-0.149606,-0.304099
-0.0645102,0.209986,-0.3011,0.556039,1.08495,-0.304649,-0.0161437,-0.078602,-0.269331
-0.0461383,0.221287,-0.307679,0.547586,0.606542,-0.392559,0.0471946,-0.00899948,-0.201173
-0.0371035,0.233398,-0.315695,0.655005,0.154775,-0.435911,0.0645927,0.0357282,-0.105649
-0.0330497,0.24825,-0.324552,0.797784,0.0995823,-0.479739,-0.0055669,0.0237536,-0.00466567
-0.0271453,0.265114,-0.334345,0.842703,0.247393,-0.515128,-0.0345057,0.0318706,0.0897835
-0.0183278,0.281894,-0.344693,0.811395,0.335525,-0.521249,-0.0146841,0.0625384,0.147732
-0.00853075,0.297842,-0.355162,0.775658,0.339086,-0.502855,0.0034859,0.0847943,0.169484
0.000669927,0.31305,-0.365051,0.746181,0.275984,-0.441944,0.0187413,0.101755,0.184156
0.00761392,0.327524,-0.373594,0.711275,0.144511,-0.369635,0.0164573,0.119628,0.21099
0.0113639,0.341376,-0.380924,0.689613,-0.00652181,-0.304824,0.0152473,0.131674,0.234715
0.0110453,0.354885,-0.386672,0.664973,-0.230372,-0.227146,0.0149118,0.138849,0.274635
0.00585966,0.367203,-0.391138,0.558327,-0.440576,-0.192977,0.00637185,0.148191,0.341095
-0.00289593,0.376682,-0.395322,0.38686,-0.572515,-0.204522,0.0078809,0.150369,0.400437
-0.0125232,0.382489,-0.399861,0.195606,-0.528589,-0.2169,0.02265,0.140396,0.427025
-0.0197853,0.385096,-0.404254,0.0758848,-0.357438,-0.192588,0.0291993,0.119926,0.410971
-0.0248554,0.386114,-0.407504,0.0132236,-0.290009,-0.10509,0.0372597,0.0923352,0.385017
-0.0309786,0.385098,-0.408402,-0.137158,-0.38309,0.0257862,0.0236698,0.0578856,0.372835
-0.0412041,0.379718,-0.406985,-0.40407,-0.571874,0.109572,-0.0344041,0.0210336,0.345141
-0.0532974,0.369101,-0.406168,-0.634069,-0.593947,-0.0211494,-0.145506,-0.0157637,0.262962
-0.0631026,0.356116,-0.41117,-0.662172,-0.537373,-0.412956,-0.255257,-0.0647544,0.118193
-0.0657261,0.345806,-0.425931,-0.416287,-0.202722,-0.882931,-0.292457,-0.123386,-0.0653029
-0.0592042,0.343563,-0.44737,0.0875811,0.0900199,-1.06715,-0.13777,-0.142679,-0.252258
-0.0503261,0.350806,-0.468922,0.470397,0.00497511,-0.965594,0.0202789,-0.184726,-0.347707
-0.0503261,0.350806,-0.468922,0.470397,0.00497511,-0.965594,0.0202789,-0.184726,-0.347707
-0.0480519,0.361247,-0.486218,0.440451,-0.417129,-0.692479,0.0538749,-0.273467,-0.348475
-0.0576951,0.367743,-0.497526,0.106337,-0.915097,-0.411211,0.0426385,-0.291735,-0.29589
-0.0743667,0.365005,-0.503949,-0.445329,-0.869783,-0.187402,0.0306921,-0.247234,-0.25921
-0.0853423,0.351954,-0.507411,-0.810212,-0.319684,-0.0429373,0.0188412,-0.169321,-0.381808
-0.0855736,0.336471,-0.508659,-0.680172,0.233928,0.0553091,0.0281406,-0.0191463,-0.569141
-0.0794763,0.327449,-0.507714,-0.18456,0.294914,0.0790047,0.0408878,0.125141,-0.66826
-0.0777163,0.328174,-0.50778,0.215236,-0.16334,-0.1215,0.0188836,0.244892,-0.543865
-0.085355,0.334355,-0.513568,0.321723,-0.810044,-0.484848,-0.00461362,0.27451,-0.317499
-0.10339,0.34152,-0.526356,0.267145,-1.37475,-0.759939,0.0145275,0.27802,-0.0637309
-0.127063,0.347797,-0.543843,0.169694,-1.51602,-0.950102,0.0414516,0.263786,0.144659
-0.147586,0.353378,-0.565075,0.123272,-1.21097,-1.08163,0.0831092,0.245803,0.284745
-0.159055,0.359205,-0.587125,0.132612,-0.695023,-1.02412,0.14962,0.205229,0.352216
-0.160013,0.364033,-0.606187,0.0198478,-0.0686348,-0.797526,0.15948,0.15376,0.413406
-0.14951,0.363253,-0.620467,-0.34187,0.609148,-0.51036,0.138349,0.117326,0.451936
-0.129173,0.35288,-0.630747,-0.828609,0.999823,-0.332349,0.0975157,0.119024,0.410498
-0.104906,0.333,-0.639679,-1.2224,1.10205,-0.278153,0.0613024,0.14562,0.287801
-0.0813595,0.307146,-0.647566,-1.38932,0.98829,-0.237818,0.056455,0.147142,0.127705
-0.0608323,0.280601,-0.654822,-1.27319,0.858249,-0.281377,0.0459964,0.13376,-0.0243934
-0.0431243,0.258871,-0.66286,-0.922026,0.700864,-0.38781,0.0329159,0.117882,-0.119897
-0.0282269,0.245231,-0.672396,-0.474217,0.548544,-0.475278,0.0257614,0.0767955,-0.163606
-0.0172887,0.240061,-0.682338,-0.0992371,0.293106,-0.462811,0.0496138,0.0334157,-0.12013
-0.0121747,0.239544,-0.690555,-0.0139455,0.0373965,-0.313239,0.0763868,-0.018966,-0.00210595
-0.0119778,0.238019,-0.694505,-0.156744,-0.0837154,-0.0598684,0.087354,-0.049027,0.0961574
-0.0144805,0.23362,-0.692969,-0.265214,-0.120866,0.213695,0.0699643,-0.0603852,0.134034
-0.0177575,0.228361,-0.686362,-0.222552,-0.0470543,0.421924,0.0261915,-0.050505,0.133538
-0.0207603,0.224926,-0.676451,-0.101301,-0.0525972,0.530438,-0.0266848,-0.0327952,0.141501
-0.0250451,0.2233,-0.665397,-0.0594419,-0.122827,0.542707,-0.0790949,-0.041231,0.178159
-0.0298808,0.221019,-0.654576,-0.155,-0.102573,0.525885,-0.113047,-0.0770563,0.199864
-0.0333463,0.216097,-0.643948,-0.305545,-0.012463,0.529582,-0.142362,-0.123564,0.175601
-0.034831,0.207905,-0.633137,-0.481778,0.0879704,0.579064,-0.115065,-0.150752,0.114713
-0.0345021,0.196174,-0.620152,-0.644435,0.210734,0.752126,-0.0425671,-0.155607,-0.00915927
-0.032541,0.1819,-0.603406,-0.708835,0.279564,0.931669,-0.0412132,-0.159968,-0.179739
-0.0309328,0.168118,-0.584687,-0.579596,0.160813,0.923008,-0.109416,-0.134659,-0.356779
-0.0349803,0.158585,-0.568137,-0.334129,-0.336362,0.722068,-0.157559,-0.115547,-0.462234
-0.0479485,0.152145,-0.556146,-0.305744,-0.695562,0.492434,-0.118288,-0.103492,-0.446556
-0.0620805,0.144783,-0.548163,-0.373643,-0.541139,0.35898,-0.0705054,-0.119959,-0.432474
-0.0690704,0.137591,-0.541985,-0.281683,-0.012091,0.302173,-0.031948,-0.138066,-0.48424
-0.0622496,0.133793,-0.537254,-0.0461768,0.771005,0.180336,0.0113605,-0.0791149,-0.528709
-0.0407053,0.136353,-0.534674,0.325547,1.33825,0.0682387,0.0558498,-0.0397738,-0.573411
-0.0122642,0.146859,-0.533901,0.734846,1.45213,-0.023205,0.0946973,0.0010827,-0.556325
0.0142316,0.166361,-0.53496,1.22656,1.14713,-0.0982491,0.144321,0.0631016,-0.453954
0.033749,0.194567,-0.53986,1.56529,0.731113,-0.319876,0.14678,0.0716985,-0.269595
0.0458895,0.226493,-0.548772,1.63563,0.2926,-0.381319,0.180411,0.104399,-0.0301823
0.0506168,0.257696,-0.557232,1.50027,0.0253511,-0.284513,0.174876,0.0903485,0.179593
0.0522714,0.284744,-0.563683,1.23705,-0.00786869,-0.201566,0.153592,0.0928162,0.329913
0.0544148,0.306689,-0.568352,0.991031,0.121323,-0.12142,0.15512,0.101204,0.394295
0.0608207,0.324504,-0.571026,0.823405,0.462105,-0.025115,0.168219,0.0955112,0.406399
0.0734039,0.34016,-0.570728,0.759673,0.781048,0.185137,0.195375,0.0791819,0.379525
0.0875769,0.355461,-0.564463,0.708961,0.803817,0.543876,0.2085,0.0866849,0.355036
0.0961608,0.368927,-0.550144,0.479828,0.525877,0.89927,0.186464,0.126179,0.382095
0.0937708,0.376574,-0.52873,0.076845,-0.00955524,1.15038,0.132501,0.16597,0.42734
0.0791483,0.376172,-0.502184,-0.31298,-0.439449,1.2959,0.0475565,0.178139,0.444607
0.0575352,0.369504,-0.473234,-0.509169,-0.650989,1.34706,-0.0325804,0.158532,0.424738
0.0327885,0.359905,-0.443992,-0.573594,-0.782502,1.34608,-0.0896574,0.146192,0.401309
0.0327885,0.359905,-0.443992,-0.573594,-0.782502,1.34608,-0.0896574,0.146192,0.401309
0.0064048,0.348636,-0.415613,-0.610533,-0.867392,1.28514,-0.143181,0.125506,0.401704
-0.0204081,0.336065,-0.390287,-0.644506,-0.960589,1.09921,-0.190436,0.103075,0.423477
-0.0465926,0.321495,-0.369888,-0.764589,-0.999431,0.893153,-0.193192,0.0703037,0.444805
-0.0704227,0.303629,-0.354125,-0.929958,-0.848738,0.720734,-0.18969,0.00894573,0.425571
-0.0876819,0.283249,-0.34157,-0.996521,-0.514404,0.675184,-0.140956,-0.06879,0.306928
-0.0976026,0.261675,-0.328099,-1.04867,-0.0840654,0.842548,-0.0843059,-0.111754,0.153057
-0.0978561,0.238529,-0.311217,-1.07982,0.468323,0.993778,-0.120948,-0.129663,-0.0680572
-0.0896905,0.216559,-0.292937,-0.917869,0.68855,0.970679,-0.148545,-0.0773361,-0.358017
-0.0811965,0.199993,-0.275764,-0.575042,0.43471,0.835409,-0.131493,0.00809518,-0.602247
-0.0816886,0.190672,-0.262066,-0.285193,-0.250021,0.564612,-0.132207,0.0571186,-0.688649
-0.0945752,0.184899,-0.255072,-0.261765,-0.862647,0.162417,-0.149302,0.0560393,-0.636077
-0.114903,0.179138,-0.255673,-0.324206,-1.10218,-0.121984,-0.107506,-0.00152151,-0.575683
-0.133497,0.173002,-0.260241,-0.319567,-0.759025,-0.233703,-0.0199786,-0.0343574,-0.538844
-0.141504,0.169005,-0.265895,-0.117233,-0.147506,-0.248722,0.0523071,-0.0129962,-0.541953
-0.14051,0.171044,-0.270604,0.269616,0.0808951,-0.252377,0.0998425,0.0365901,-0.522717
-0.13944,0.181039,-0.275628,0.635157,-0.106107,-0.40934,0.0700517,0.0819531,-0.385723
-0.143413,0.197874,-0.284692,0.897484,-0.493493,-0.721826,0.0488247,0.110327,-0.160698
-0.154741,0.219731,-0.299046,1.02815,-0.928229,-0.961677,0.0917786,0.12826,0.091416
-0.171819,0.24194,-0.316134,0.837759,-1.11811,-1.01512,0.135905,0.0821008,0.331335
-0.188296,0.257354,-0.333116,0.36062,-0.88207,-0.8389,0.163184,-0.000513136,0.487403
-0.197607,0.261437,-0.345265,-0.184636,-0.332801,-0.347415,0.19304,-0.0718993,0.513443
-0.195786,0.252062,-0.347768,-0.793958,0.507595,0.292058,0.186955,-0.0632816,0.491769
-0.178017,0.22911,-0.341146,-1.31562,1.37646,0.728733,0.171947,0.0503076,0.35449
-0.148873,0.197515,-0.327782,-1.54738,1.7234,1.06617,0.182961,0.17922,0.13356
-0.119796,0.164311,-0.308725,-1.45775,1.43994,1.18507,0.118724,0.250212,-0.104981
-0.101967,0.136233,-0.289476,-1.10313,0.551661,0.969247,0.0306876,0.28579,-0.254127
-0.104687,0.116776,-0.276343,-0.737888,-0.657399,0.515012,-0.0289677,0.268305,-0.225093
-0.126482,0.10269,-0.271947,-0.65308,-1.32849,0.11332,-0.0182722,0.203034,-0.060318
-0.152978,0.0904388,-0.273398,-0.552462,-1.27322,-0.0428285,0.0258438,0.0830523,0.0478965
-0.17416,0.0824669,-0.27503,-0.238645,-0.809897,0.0362799,0.0685208,0.0158756,0.0933417
-0.183916,0.0810661,-0.272761,0.137357,-0.140052,0.224815,0.0611101,-0.030122,0.140093
-0.180827,0.0848703,-0.26511,0.334808,0.485801,0.45597,0.0464443,-0.0557345,0.19213
-0.168848,0.0891432,-0.253614,0.257852,0.717991,0.568842,0.0278384,-0.0407814,0.23864
-0.157353,0.0906881,-0.241976,0.0833092,0.516864,0.535939,0.000649869,-0.0250521,0.240514
-0.150197,0.0899277,-0.231952,0.0193996,0.297418,0.47043,-0.044362,-0.0638953,0.190557
-0.146973,0.0891928,-0.222687,0.0325703,0.129154,0.462158,-0.0724753,-0.11109,0.153133
-0.145131,0.0875544,-0.213467,-0.0829025,0.157045,0.480569,-0.0873767,-0.13825,0.14686
-0.142427,0.0828688,-0.204182,-0.245916,0.19376,0.506565,-0.113806,-0.156759,0.0895354
-0.138794,0.0752814,-0.194598,-0.369061,0.250497,0.546642,-0.132628,-0.144669,-0.0105141
-0.133453,0.0652855,-0.184625,-0.48635,0.347567,0.58364,-0.154443,-0.133842,-0.122713
-0.126526,0.0534423,-0.173875,-0.529411,0.406689,0.633484,-0.156005,-0.112965,-0.269618
-0.120224,0.0423859,-0.162491,-0.409182,0.243702,0.621793,-0.166992,-0.091889,-0.435203
-0.117965,0.0342828,-0.151346,-0.285747,0.0376336,0.596379,-0.136451,-0.0507613,-0.519603
-0.119034,0.027543,-0.139816,-0.264721,-0.111011,0.632021,-0.0960898,-0.0340756,-0.528678
-0.122475,0.0201577,-0.127997,-0.339549,-0.180397,0.621857,-0.102755,-0.015885,-0.51021
-0.125114,0.0112354,-0.117377,-0.388274,-0.0560849,0.530364,-0.0786652,0.0405014,-0.530142
-0.125594,0.00459941,-0.109266,-0.117764,0.00682427,0.356611,-0.0481385,0.0889041,-0.599074
-0.125948,0.0068553,-0.103793,0.451841,-0.0611224,0.146626,-0.0168894,0.108967,-0.612696
-0.128456,0.0231521,-0.102471,1.20696,-0.198438,-0.250621,-0.033949,0.139025,-0.504538
-0.133949,0.0554338,-0.108016,1.88656,-0.361727,-0.712123,-0.000644028,0.164307,-0.260495
-0.14015,0.0988059,-0.119664,2.19129,-0.321691,-0.995033,0.0646387,0.15109,0.0266712
-0.143466,0.144665,-0.134474,2.09456,-0.195922,-1.09029,0.133028,0.103252,0.253253
-0.14279,0.18563,-0.150067,1.71855,0.0295468,-1.00043,0.204878,0.0737872,0.410669
-0.136176,0.217332,-0.163719,1.24147,0.362017,-0.75129,0.243509,0.0317567,0.463561
-0.136176,0.217332,-0.163719,1.24147,0.362017,-0.75129,0.243509,0.0317567,0.463561
-0.124246,0.238943,-0.172574,0.799965,0.607891,-0.371873,0.251799,-0.0047031,0.448566
-0.11079,0.250869,-0.174652,0.35248,0.654958,0.0172409,0.239564,-0.00842236,0.424352
-0.0996185,0.252879,-0.171387,-0.111156,0.53696,0.245914,0.181755,0.021341,0.392595
-0.090831,0.246718,-0.166213,-0.433579,0.506445,0.295079,0.124077,0.065557,0.322167
-0.0809579,0.236278,-0.16157,-0.534546,0.595304,0.236755,0.0599001,0.099213,0.226127
-0.0692731,0.226249,-0.158663,-0.41625,0.622993,0.120824,0.015879,0.123845,0.130701
-0.0587046,0.22063,-0.158006,-0.125851,0.394245,-0.0282232,0.00291214,0.146991,0.0826299
-0.0551628,0.22087,-0.160553,0.0983656,-0.109159,-0.215291,-0.0205301,0.134926,0.152614
-0.0600824,0.222749,-0.16571,0.0169668,-0.464329,-0.268641,-0.0333868,0.0340369,0.268471
-0.070138,0.220803,-0.170687,-0.254151,-0.609522,-0.195293,-0.0409196,-0.0688436,0.330958
-0.0802874,0.213251,-0.174295,-0.505801,-0.446223,-0.10198,-0.0801086,-0.121995,0.322695
-0.0859629,0.203315,-0.177017,-0.446931,-0.173816,-0.112593,-0.110781,-0.130389,0.209093
-0.0858712,0.198621,-0.18127,-0.0120843,0.0688262,-0.261367,-0.134625,-0.111627,0.0656862
-0.0830834,0.20421,-0.186993,0.494115,0.0664306,-0.323746,-0.109288,-0.131832,-0.00129855
-0.0810938,0.216638,-0.192687,0.628349,0.0146174,-0.347508,-0.124853,-0.175784,0.0300872
-0.0797946,0.227571,-0.199253,0.375703,-0.028684,-0.374286,-0.143094,-0.177068,0.0505243
-0.0795138,0.232116,-0.206108,0.0336321,-0.116287,-0.318606,-0.110658,-0.169591,-0.0302897
-0.0829278,0.230374,-0.211176,-0.227531,-0.358135,-0.152422,-0.0296309,-0.125616,-0.156794
-0.0929787,0.225253,-0.213272,-0.264738,-0.702056,-0.034644,0.00385989,-0.0708057,-0.306206
-0.109698,0.220678,-0.214707,-0.228004,-0.963158,-0.0775626,-0.0274693,-0.00683174,-0.355799
-0.127064,0.215429,-0.217924,-0.359416,-0.784532,-0.167264,-0.0383319,0.0245573,-0.330521
-0.137441,0.206986,-0.223146,-0.538489,-0.332776,-0.218944,-0.0393469,0.0418147,-0.360179
-0.137465,0.196566,-0.230064,-0.531952,0.169091,-0.312405,-0.0141349,0.125448,-0.45696
-0.131001,0.190259,-0.238318,-0.155091,0.237128,-0.431223,0.00598529,0.189297,-0.541931
-0.12704,0.194068,-0.249859,0.391548,-0.120386,-0.782072,-0.0194637,0.246166,-0.463966
-0.131568,0.208772,-0.268757,0.793307,-0.701515,-1.2393,-0.0111706,0.263793,-0.207155
-0.144134,0.229646,-0.294069,0.891207,-1.06578,-1.44784,0.0529961,0.219332,0.0940821
-0.159746,0.24961,-0.320852,0.638439,-1.07083,-1.40302,0.1009,0.12407,0.352469
-0.170932,0.261181,-0.345684,0.0803328,-0.62188,-1.12984,0.117075,0.0458341,0.523128
-0.171387,0.26002,-0.365445,-0.51524,0.0735698,-0.721081,0.0902766,-0.0301773,0.53943
-0.159843,0.24641,-0.378164,-1.01551,0.735248,-0.288537,0.0594768,-0.0337704,0.453098
-0.139949,0.223125,-0.384676,-1.36906,1.03622,-0.00911232,0.0245537,0.0377301,0.291726
-0.11906,0.193612,-0.386658,-1.56943,0.971783,0.181726,0.000409678,0.111349,0.130543
-0.102193,0.161515,-0.38622,-1.58277,0.723342,0.172294,-0.0779627,0.164262,-0.0229557
-0.0900648,0.132891,-0.388549,-1.24516,0.437889,-0.172126,-0.206733,0.179192,-0.173128
-0.0832281,0.11403,-0.398651,-0.704655,0.136322,-0.671255,-0.254215,0.186796,-0.216904
-0.0811817,0.106806,-0.417091,-0.188962,-0.110469,-1.06116,-0.219601,0.117208,-0.161744
-0.0822544,0.10834,-0.440064,0.126957,-0.222911,-1.19876,-0.135269,0.00558889,-0.0506976
-0.0841123,0.114382,-0.463247,0.265885,-0.205605,-1.12633,-0.0548109,-0.0760074,0.0539945
-0.0849408,0.121453,-0.483251,0.254019,-0.0912345,-0.904217,-0.0144953,-0.140168,0.123699
-0.0832428,0.127098,-0.498203,0.184553,0.0631399,-0.616407,0.0196404,-0.178618,0.131123
-0.0800576,0.130911,-0.507087,0.124902,0.133646,-0.296211,0.0418275,-0.177187,0.102816
-0.0770689,0.133476,-0.510112,0.118149,0.102562,-0.0401574,0.0190264,-0.159644,0.0440258
-0.0763557,0.136224,-0.509085,0.176666,-0.0242813,0.10864,-0.0134754,-0.1129,-0.0134631
-0.0787424,0.140528,-0.505929,0.27603,-0.174066,0.158737,-0.0540571,-0.0717414,-0.0432451
-0.084499,0.146466,-0.502234,0.33484,-0.349028,0.153112,-0.0818799,-0.0532607,-0.0370638
-0.0931419,0.152237,-0.498571,0.25288,-0.434687,0.16028,-0.0748316,-0.051659,9.53674e-05
-0.101633,0.15557,-0.494419,0.113037,-0.317961,0.227404,-0.06003,-0.0564218,0.00588155
-0.10663,0.156036,-0.489119,-0.0125588,-0.101584,0.271071,-0.0809459,-0.0597607,-0.0334455
-0.107192,0.154603,-0.484089,-0.0619024,0.111011,0.215225,-0.0983606,-0.0350383,-0.121831
-0.104741,0.153732,-0.481503,0.0191245,0.140539,0.0477838,-0.0872348,-0.00902854,-0.218793
-0.103266,0.155963,-0.481926,0.210411,-0.0247451,-0.115976,-0.0705929,-0.0147739,-0.288823
-0.104977,0.162134,-0.485355,0.336691,-0.164753,-0.28171,-0.0594314,-0.0275255,-0.259209
-0.105921,0.168642,-0.491151,0.212945,0.0249603,-0.340035,-0.00446551,-0.0345339,-0.157849
-0.105921,0.168642,-0.491151,0.212945,0.0249603,-0.340035,-0.00446551,-0.0345339,-0.157849
-0.1008,0.171078,-0.497538,-0.0299341,0.389134,-0.300226,0.0171295,-0.0787328,-0.144448
-0.0893146,0.169821,-0.503001,-0.110629,0.605151,-0.234007,0.0535042,-0.0700997,-0.235522
-0.0780871,0.169045,-0.507704,0.0127255,0.38556,-0.227446,0.0824501,-0.0367911,-0.30011
-0.0735213,0.171236,-0.51212,0.164246,0.0183837,-0.218386,0.0809715,-0.0224705,-0.240462
-0.0746343,0.17587,-0.515347,0.273343,-0.162841,-0.123649,0.0741473,-0.0295793,-0.126427
-0.0785266,0.182305,-0.516396,0.362392,-0.224964,-0.0407511,0.0496496,-0.00597453,-0.0142921
-0.0827039,0.190578,-0.516465,0.464,-0.180376,-0.0442398,0.0110762,0.0288272,0.067284
-0.0855418,0.200576,-0.516718,0.523121,-0.09923,-0.056398,0.0185391,0.0572657,0.130818
-0.0863212,0.21089,-0.516679,0.484243,0.0364062,-0.0267792,0.0286094,0.0680487,0.169593
-0.0834847,0.21902,-0.516338,0.311385,0.260844,-0.0208522,0.0109154,0.0672638,0.186563
-0.0759231,0.223314,-0.516861,0.129691,0.482042,-0.0689514,-0.00959034,0.066357,0.137658
-0.0647366,0.225811,-0.518165,0.145362,0.564959,-0.0490611,0.0169523,0.0597734,0.0204839
-0.0555443,0.229984,-0.517501,0.274122,0.328629,0.0968487,0.0631331,0.0548509,-0.0373073
-0.0538114,0.23546,-0.513623,0.25929,-0.0707861,0.247986,0.0615329,0.0677935,0.0304021
-0.0601892,0.239052,-0.507531,0.143343,-0.409939,0.293924,-0.00150948,0.0769153,0.123505
-0.0715294,0.241125,-0.502148,0.112911,-0.555825,0.200768,-0.0511283,0.106074,0.193822
-0.0830401,0.243386,-0.498913,0.146126,-0.508247,0.0993556,-0.0618644,0.104958,0.251516
-0.0931078,0.246639,-0.497255,0.188709,-0.472157,0.0334328,-0.0583692,0.0859891,0.304833
-0.102991,0.250227,-0.496888,0.160557,-0.522386,-0.0334531,-0.0560627,0.077275,0.37133
-0.114308,0.252698,-0.497774,0.0655544,-0.649194,-0.0722145,-0.0481479,0.0437944,0.424645
-0.127581,0.252559,-0.499176,-0.116757,-0.682796,-0.0593182,-0.0370644,-0.00361142,0.483981
-0.139632,0.247814,-0.500391,-0.378028,-0.533735,0.00596922,-0.0325689,-0.0507814,0.52247
-0.146983,0.237544,-0.500692,-0.632154,-0.166472,0.112987,-0.0430832,-0.0874378,0.483931
-0.145937,0.22334,-0.499934,-0.739696,0.266488,0.156121,-0.090965,-0.135706,0.338745
-0.138732,0.2082,-0.499051,-0.751148,0.385535,0.132701,-0.126906,-0.135693,0.15568
-0.133582,0.192312,-0.4997,-0.853237,0.0948989,0.00133768,-0.152473,-0.134174,0.0138513
-0.134017,0.174834,-0.503714,-0.908661,-0.194684,-0.156489,-0.124646,-0.140997,-0.16148
-0.138707,0.158881,-0.510189,-0.729527,-0.353851,-0.259983,-0.0747674,-0.13883,-0.355376
-0.143968,0.148742,-0.518473,-0.371088,-0.259684,-0.430283,-0.0698743,-0.100524,-0.47539
-0.14599,0.147565,-0.529959,0.0906161,-0.135324,-0.682303,-0.061416,-0.0597115,-0.540082
-0.147155,0.155879,-0.544966,0.491293,-0.266473,-0.910674,0.0132852,-0.0198008,-0.524205
-0.153102,0.17115,-0.563404,0.704679,-0.604135,-1.11104,0.0817034,-0.0379971,-0.421019
-0.162004,0.187784,-0.583408,0.579845,-0.579689,-1.04981,0.184462,-0.0576414,-0.258822
-0.167077,0.19897,-0.600527,0.228949,-0.219644,-0.783366,0.216136,-0.0882903,-0.165414
-0.163837,0.202235,-0.613219,-0.071464,0.288386,-0.506363,0.199439,-0.0702739,-0.187154
-0.153907,0.201791,-0.621052,-0.0535812,0.476974,-0.260235,0.172056,-0.00357075,-0.279781
-0.145395,0.203204,-0.624756,0.150017,0.229345,-0.145427,0.0902357,0.0570333,-0.299189
-0.146199,0.208437,-0.627238,0.321649,-0.399241,-0.20309,0.0226525,0.106498,-0.191444
-0.15888,0.216536,-0.632003,0.394497,-0.899236,-0.396532,-0.00804958,0.128178,-0.000313818
-0.175257,0.225827,-0.640645,0.366455,-0.835717,-0.577455,-0.0125453,0.0915732,0.168054
-0.184062,0.234432,-0.651627,0.284743,-0.242113,-0.599083,0.0205478,0.0047968,0.228998
-0.179202,0.240515,-0.660909,0.136526,0.510497,-0.354006,0.120547,-0.0556054,0.23319
-0.162673,0.241068,-0.662758,-0.137373,1.02715,0.211588,0.256669,-0.0623166,0.194698
-0.143646,0.232941,-0.652387,-0.526501,1.08352,0.892398,0.287312,-0.021739,0.128544
-0.128529,0.215421,-0.631302,-0.931862,0.870039,1.33233,0.198287,0.0853104,0.0621056
-0.119206,0.190508,-0.606195,-1.19544,0.589599,1.34606,0.0360538,0.178372,-0.0284476
-0.112958,0.164893,-0.585581,-1.04441,0.418419,0.923877,-0.115068,0.244652,-0.160094
-0.107111,0.147985,-0.57447,-0.474044,0.366815,0.3555,-0.140982,0.258484,-0.221997
-0.100191,0.145744,-0.572054,0.270232,0.345629,-0.0351533,-0.0871483,0.207118,-0.188263
-0.0938986,0.156387,-0.572315,0.704265,0.287058,-0.0505248,0.00483265,0.116947,-0.00773543
-0.0896304,0.170145,-0.570476,0.623019,0.142843,0.121136,0.0566475,0.0605144,0.198523
-0.0895464,0.178629,-0.565058,0.242714,-0.00927176,0.338709,0.0613468,0.0520698,0.352048
-0.0908958,0.178461,-0.556345,-0.161891,0.0632805,0.501581,0.0210003,0.0355932,0.404433
-0.0892326,0.172095,-0.546102,-0.329257,0.274439,0.552864,-0.0301983,0.0275697,0.349656
-0.0892326,0.172095,-0.546102,-0.329257,0.274439,0.552864,-0.0301983,0.0275697,0.349656
-0.084754,0.165482,-0.535445,-0.211589,0.327615,0.555173,-0.040573,0.035593,0.251582
-0.0811063,0.16207,-0.524494,-0.0600922,0.20594,0.558735,-0.064667,-0.00708076,0.204049
-0.0800685,0.160231,-0.513149,-0.0527397,0.0818651,0.571951,-0.120947,-0.077545,0.184055
-0.0813771,0.157605,-0.502187,-0.123003,-0.0041958,0.532574,-0.174664,-0.129607,0.153222
-0.0811994,0.15384,-0.492633,-0.182127,0.214127,0.435396,-0.224505,-0.152049,0.078211
-0.0759842,0.148977,-0.484293,-0.233902,0.388275,0.447321,-0.181567,-0.186626,-0.0699298
-0.0704865,0.143811,-0.474649,-0.199635,0.262007,0.553451,-0.105027,-0.183146,-0.23948
-0.0688281,0.139981,-0.462756,-0.0828028,0.0961737,0.63482,-0.0723713,-0.15674,-0.356669
-0.0694604,0.140293,-0.450507,0.22569,0.0121634,0.556622,-0.1198,-0.13098,-0.445959
-0.0708752,0.147778,-0.440627,0.562212,0.0268955,0.364466,-0.14834,-0.107337,-0.460099
-0.0688534,0.15928,-0.433816,0.580603,0.332141,0.253849,-0.0753671,-0.062523,-0.389998
-0.0583724,0.169041,-0.428165,0.435183,0.81378,0.261829,0.00623821,-0.0341401,-0.375384
-0.0385367,0.176507,-0.421464,0.360768,1.28913,0.36621,0.0778609,-0.0059267,-0.437639
-0.0104813,0.184137,-0.413061,0.461802,1.63284,0.426987,0.139088,0.0727928,-0.505592
0.0212181,0.196473,-0.405224,0.807442,1.62824,0.325472,0.153996,0.134009,-0.525792
0.0490408,0.217306,-0.401587,1.26799,1.16321,0.0999953,0.148634,0.176949,-0.431659
0.0650834,0.245703,-0.403495,1.5292,0.396691,-0.110692,0.168346,0.204771,-0.208097
0.067972,0.274805,-0.409085,1.35625,-0.223699,-0.200411,0.164182,0.189419,0.0593921
0.0604343,0.2974,-0.414132,0.915509,-0.617069,-0.125896,0.175851,0.155096,0.271235
0.048162,0.310674,-0.416451,0.440459,-0.619748,-0.0222597,0.148497,0.0985475,0.41161
0.0384751,0.316136,-0.416111,0.148551,-0.304631,0.0857949,0.11023,0.0519851,0.449054
0.0358258,0.318535,-0.41301,0.112575,0.129672,0.226,0.0863908,0.0180708,0.428029
0.0395046,0.321342,-0.406237,0.125044,0.419711,0.428177,0.0810424,0.00871125,0.42082
0.045448,0.32269,-0.395332,-0.0702384,0.483526,0.600714,0.0560795,0.0299028,0.419925
0.0489892,0.318769,-0.381727,-0.380308,0.267155,0.658906,0.0179047,0.0748876,0.391049
0.04698,0.309635,-0.367669,-0.565924,-0.0267579,0.633319,-0.0223905,0.111535,0.30613
0.0393948,0.299075,-0.354276,-0.508003,-0.356026,0.589743,-0.0355458,0.124165,0.22388
0.0247704,0.29098,-0.34203,-0.353401,-0.750832,0.570297,-0.0517876,0.0976969,0.237134
0.00307231,0.284143,-0.32988,-0.393777,-1.05233,0.581907,-0.0908855,0.0483552,0.330183
-0.0230252,0.27367,-0.317997,-0.660307,-1.21062,0.576879,-0.118474,0.00693071,0.398214
-0.0495087,0.257542,-0.30718,-0.895845,-1.09722,0.517365,-0.183558,-0.0456193,0.382643
-0.0698493,0.238665,-0.299165,-0.903152,-0.764058,0.360001,-0.247753,-0.0834035,0.280381
-0.0838813,0.222184,-0.295651,-0.689163,-0.573514,0.0900468,-0.261096,-0.12078,0.148655
-0.0930288,0.212517,-0.298311,-0.26267,-0.369781,-0.263628,-0.238053,-0.159319,0.0161232
-0.096294,0.213218,-0.306411,0.239693,-0.136598,-0.500645,-0.162929,-0.223285,-0.0969816
-0.09452,0.22129,-0.31672,0.393425,0.105354,-0.552043,-0.0906308,-0.288324,-0.114479
-0.088105,0.22709,-0.325375,0.0488954,0.322318,-0.288597,0.0644307,-0.322556,-0.140766
-0.0815829,0.223409,-0.326549,-0.395287,0.236956,0.22278,0.163772,-0.340442,-0.297245
-0.0824374,0.213477,-0.317868,-0.455686,-0.16713,0.661699,0.153366,-0.244196,-0.517153
-0.0928772,0.205506,-0.303932,-0.203738,-0.542813,0.699831,0.000429653,-0.143152,-0.598763
-0.106495,0.203223,-0.29238,0.0598917,-0.517739,0.430015,-0.0871932,-0.0368359,-0.56078
-0.115064,0.204852,-0.28605,0.148172,-0.216856,0.187861,-0.0823073,0.0256421,-0.490213
-0.119253,0.208396,-0.283536,0.245037,-0.204498,0.0209588,-0.0529764,0.0219393,-0.467961
-0.123844,0.214909,-0.28352,0.402718,-0.252573,-0.0851012,0.032399,0.0802477,-0.400207
-0.129246,0.22436,-0.284321,0.514795,-0.303544,-0.108299,0.115021,0.153544,-0.266136
-0.136183,0.235596,-0.285253,0.591654,-0.438956,-0.140633,0.126763,0.208596,-0.120993
-0.145908,0.248503,-0.287633,0.649949,-0.56974,-0.281358,0.083506,0.240323,0.0532665
-0.156506,0.26253,-0.292898,0.655712,-0.622059,-0.426834,0.0672297,0.255969,0.214401
-0.165965,0.276154,-0.300502,0.545666,-0.475101,-0.492998,0.0947359,0.240492,0.364327
-0.168844,0.285555,-0.308355,0.232007,0.0101306,-0.387714,0.121932,0.192426,0.447326
-0.16086,0.287457,-0.31435,-0.125135,0.605075,-0.21023,0.106934,0.146628,0.406777
-0.144369,0.282865,-0.317754,-0.359841,0.885885,-0.0581349,0.11421,0.16723,0.290846
-0.126851,0.273998,-0.319504,-0.551734,0.769979,-0.00403788,0.11021,0.21826,0.19158
-0.114458,0.260686,-0.321589,-0.81963,0.404555,-0.0496585,0.0573407,0.212196,0.152854
-0.114458,0.260686,-0.321589,-0.81963,0.404555,-0.0496585,0.0573407,0.212196,0.152854
-0.108414,0.241701,-0.325673,-1.0949,0.128231,-0.13523,0.0237274,0.161398,0.121314
-0.105348,0.219832,-0.331703,-1.09039,0.0884185,-0.210505,0.0123974,0.106462,0.0543249
-0.100887,0.201224,-0.338651,-0.820837,0.236632,-0.273041,-0.0104778,0.0387968,0.00764698
-0.0927039,0.188576,-0.34601,-0.516293,0.418676,-0.321904,-0.0085114,0.00449216,0.00777853
-0.0822303,0.180809,-0.353856,-0.366926,0.495685,-0.388274,-0.0209774,-0.0241843,0.0702946
-0.0695284,0.174124,-0.362976,-0.367658,0.598791,-0.456016,-0.0295243,-0.0581999,0.0850839
-0.0558909,0.168367,-0.372937,-0.247156,0.577205,-0.480391,-0.00904552,-0.0753929,0.0307375
-0.0443919,0.165745,-0.382601,-0.0670364,0.408998,-0.457418,0.0239938,-0.0933593,0.00497735
-0.0364682,0.1665,-0.391009,0.104496,0.241326,-0.364551,0.046866,-0.123453,0.00449711
-0.0318951,0.170232,-0.39716,0.23816,0.13994,-0.25853,0.0187639,-0.152077,0.0292185
-0.0287182,0.175925,-0.401479,0.314861,0.110649,-0.193184,-0.0210911,-0.164932,0.0547768
-0.0255689,0.182628,-0.404462,0.337622,0.170018,-0.112776,-0.0266932,-0.167522,0.0635842
-0.0206465,0.188666,-0.404849,0.250894,0.323288,0.0925224,-0.0119783,-0.187726,0.0649927
-0.013717,0.191907,-0.399958,0.0595023,0.467052,0.378843,-0.00826373,-0.196674,0.0463541
-0.00566094,0.190535,-0.390016,-0.184032,0.500377,0.578686,-0.0273852,-0.174339,-0.0239111
0.000769528,0.185386,-0.37721,-0.309577,0.370936,0.664695,-0.0660639,-0.135239,-0.152786
0.0038353,0.179017,-0.363564,-0.314705,0.162583,0.672706,-0.0944722,-0.109871,-0.288785
0.00137116,0.174342,-0.350699,-0.140039,-0.211025,0.583047,-0.137154,-0.102953,-0.413842
-0.00882937,0.173077,-0.339765,-0.0319221,-0.566457,0.50767,-0.117371,-0.0830659,-0.410288
-0.022083,0.170918,-0.329702,-0.197971,-0.550321,0.49651,-0.0854945,-0.0443452,-0.336619
-0.0326324,0.164352,-0.320068,-0.429863,-0.275148,0.473558,-0.115961,-0.0735998,-0.323235
-0.0341078,0.154733,-0.311638,-0.429778,0.222851,0.368715,-0.119932,-0.0386784,-0.414316
-0.0289258,0.150119,-0.306934,0.0408843,0.299348,0.0937914,-0.0927414,0.0412188,-0.511187
-0.0253225,0.157509,-0.308115,0.679866,-0.00271531,-0.224384,-0.0543088,0.0716691,-0.458206
-0.0275234,0.174854,-0.315036,0.962086,-0.285839,-0.482866,-0.0144798,0.0636735,-0.227504
-0.0314487,0.193788,-0.32501,0.863183,-0.254349,-0.523783,0.080675,0.0362812,-0.00725573
-0.0326311,0.208745,-0.334089,0.602357,-0.0127596,-0.400731,0.14883,0.00737284,0.106891
-0.0283802,0.219448,-0.340287,0.502031,0.27804,-0.25939,0.148164,0.0099269,0.073983
-0.0207379,0.231036,-0.344931,0.680627,0.348387,-0.247038,0.120573,0.0586978,-0.00161785
-0.0128961,0.247252,-0.35038,0.932747,0.301656,-0.304887,0.0964727,0.101491,0.0122938
-0.006031,0.267339,-0.3568,1.05283,0.241332,-0.327803,0.0873292,0.112036,0.113248
0.000407769,0.287672,-0.363069,0.916021,0.359779,-0.2597,0.0837612,0.0832815,0.253676
0.0114972,0.303165,-0.366187,0.675472,0.536686,-0.00615954,0.128889,0.0560194,0.239871
0.0183045,0.315703,-0.363523,0.571131,0.210546,0.266054,0.129696,0.0798175,0.21403
0.0168688,0.325522,-0.356888,0.391799,-0.13777,0.349298,0.0546813,0.12591,0.261985
0.00956444,0.331496,-0.350082,0.204869,-0.341758,0.304731,0.0191852,0.156939,0.323138
-0.000111299,0.334783,-0.343491,0.148173,-0.41274,0.337089,0.0485976,0.160671,0.336343
-0.0124081,0.337855,-0.335082,0.155064,-0.541196,0.468695,0.0664244,0.132307,0.367498
-0.0273992,0.339851,-0.323705,0.0434774,-0.567939,0.595515,0.0160022,0.0937374,0.425086
-0.0426069,0.338358,-0.310889,-0.15577,-0.521432,0.604607,-0.0498478,0.0683884,0.44922
-0.0558916,0.333142,-0.299363,-0.291795,-0.436775,0.494971,-0.110524,0.0567505,0.392518
-0.0671504,0.326738,-0.29112,-0.285831,-0.439364,0.324015,-0.120578,0.0604424,0.288695
-0.0778258,0.321321,-0.286652,-0.229058,-0.473546,0.136617,-0.132851,0.0459987,0.209024
-0.0865156,0.316902,-0.286109,-0.213379,-0.344528,-0.0385228,-0.139758,0.0155275,0.144238
-0.0904203,0.312927,-0.28908,-0.212863,-0.142354,-0.211818,-0.146891,0.00373739,0.0641879
-0.089983,0.308788,-0.295409,-0.255254,-0.0216691,-0.338629,-0.098669,-0.00861141,-0.0338177
-0.088206,0.304089,-0.303022,-0.272797,-0.0775605,-0.323141,-0.0377151,-0.0328509,-0.156233
-0.0912543,0.298751,-0.309862,-0.353991,-0.443094,-0.295461,-0.0380308,-0.0603641,-0.223397
-0.099467,0.289937,-0.317641,-0.601174,-0.543429,-0.376324,-0.0255539,-0.0436368,-0.245007
-0.107121,0.277233,-0.32759,-0.74439,-0.469371,-0.422923,0.0467117,-0.0286428,-0.320537
-0.110293,0.263009,-0.337906,-0.767094,-0.0922233,-0.417161,0.0744853,-0.0326608,-0.394122
-0.106704,0.249749,-0.348063,-0.641185,0.136403,-0.421411,0.0731224,-0.019868,-0.441795
-0.102294,0.240172,-0.357967,-0.401224,0.0189574,-0.448691,0.0754424,0.000488728,-0.446119
-0.101873,0.236067,-0.368648,-0.119062,-0.250391,-0.556178,0.054565,0.0178004,-0.35498
-0.101873,0.236067,-0.368648,-0.119062,-0.250391,-0.556178,0.054565,0.0178004,-0.35498
-0.107304,0.236999,-0.381185,0.0651312,-0.582203,-0.65868,0.0475249,0.0252836,-0.170904
-0.11779,0.240357,-0.394978,0.0857083,-0.749403,-0.710053,0.0522648,0.0138824,0.0350339
-0.127045,0.242255,-0.409916,-0.105624,-0.475557,-0.75265,0.0168791,-0.00923841,0.198327
-0.127936,0.239155,-0.425791,-0.40319,0.0211046,-0.725744,0.0156799,-0.0437728,0.260397
-0.118618,0.230681,-0.440508,-0.58114,0.550735,-0.579435,0.0562151,-0.0439429,0.197948
-0.101778,0.220225,-0.451833,-0.575605,0.839335,-0.419617,0.0665561,0.0108073,0.0865059
-0.0822683,0.208979,-0.460768,-0.644237,0.884379,-0.367347,0.038777,0.0655544,0.0353748
-0.0647684,0.196205,-0.469341,-0.673501,0.655005,-0.382046,0.0215197,0.0856036,-0.0391263
-0.0531074,0.18435,-0.47792,-0.535092,0.364967,-0.390565,0.00518593,0.0764807,-0.102895
-0.047018,0.176665,-0.485942,-0.266587,0.105136,-0.356209,-0.0135148,0.0538301,-0.0972801
-0.0458138,0.173905,-0.49276,-0.0592346,-0.0983353,-0.300609,-0.0346506,0.0460615,-0.0107915
-0.0486235,0.173834,-0.498101,0.00315024,-0.263914,-0.220152,-0.0421092,0.0407425,0.101654
-0.0552372,0.173405,-0.501338,-0.0855105,-0.456539,-0.0905237,-0.0379802,0.0334224,0.198985
-0.0650551,0.170093,-0.50204,-0.25552,-0.512626,0.0394287,-0.0431066,0.0358668,0.265512
-0.0740976,0.163662,-0.500927,-0.3653,-0.361171,0.0989254,-0.0615267,0.0350332,0.272153
-0.0790898,0.156292,-0.499448,-0.342196,-0.134698,0.0918726,-0.0815625,0.0479603,0.249585
-0.0806438,0.150258,-0.498686,-0.248631,-0.0414726,0.0327689,-0.0779592,0.0426531,0.220215
-0.0821023,0.146151,-0.499036,-0.174291,-0.119234,-0.0300158,-0.0699262,0.0235606,0.218291
-0.0848591,0.143122,-0.500503,-0.138705,-0.162993,-0.084651,-0.0744955,-0.0339869,0.222618
-0.087628,0.140525,-0.502684,-0.14861,-0.112056,-0.104687,-0.0738235,-0.0927255,0.220795
-0.0881779,0.136803,-0.50472,-0.243366,0.0426752,-0.0405582,-0.0654843,-0.137214,0.193351
-0.0855996,0.130341,-0.504498,-0.409883,0.22423,0.159324,-0.021416,-0.170214,0.11571
-0.0797163,0.119254,-0.498443,-0.653231,0.441735,0.544537,0.0133925,-0.194337,-0.0144364
-0.0704543,0.103384,-0.485352,-0.806543,0.594872,0.834447,-0.0410638,-0.168223,-0.191904
-0.0610485,0.0868692,-0.469903,-0.695872,0.42503,0.754725,-0.146174,-0.0860917,-0.390804
-0.0583471,0.0759325,-0.45918,-0.309147,-0.0866746,0.343598,-0.224431,-0.0300976,-0.543915
-0.0639863,0.073051,-0.456901,-0.0223878,-0.400727,-0.062896,-0.211023,-0.00799245,-0.565041
-0.0721714,0.0726585,-0.460523,-0.0919604,-0.392057,-0.272493,-0.127346,-0.0417396,-0.528474
-0.0771749,0.0691205,-0.467392,-0.317843,-0.13646,-0.341462,-0.0487419,-0.0758626,-0.540819
-0.0772227,0.0619971,-0.474089,-0.379633,0.0497461,-0.283121,0.125338,-0.000466395,-0.624387
-0.0750657,0.05871,-0.480154,0.0856619,0.128243,-0.310303,0.174979,0.0660615,-0.726412
-0.071841,0.0686773,-0.486265,0.86488,0.119517,-0.384452,0.194993,0.0990646,-0.701327
-0.0698847,0.0923373,-0.493285,1.37699,0.0413465,-0.48294,0.19244,0.117948,-0.469337
-0.0685625,0.12236,-0.501585,1.52545,-0.00565357,-0.539233,0.234501,0.129745,-0.206876
-0.0672446,0.152999,-0.510033,1.45903,0.0500523,-0.493721,0.294253,0.133772,0.00407487
-0.0622431,0.181129,-0.51757,1.30594,0.373508,-0.432979,0.304975,0.110041,0.146516
-0.04949,0.206533,-0.523935,1.22583,0.765066,-0.313054,0.341875,0.0791526,0.189906
-0.0312064,0.231341,-0.52695,1.25672,0.978788,-0.0640943,0.371923,0.0390214,0.206712
-0.0118776,0.25665,-0.523968,1.27411,1.00355,0.319629,0.388396,0.000499934,0.265426
0.00437509,0.281369,-0.512739,1.18255,0.912537,0.761592,0.328561,-0.0342036,0.353291
0.0145388,0.302822,-0.49206,0.914076,0.669082,1.25904,0.222573,-0.0414151,0.450644
0.0142013,0.316677,-0.4603,0.386896,0.250072,1.78885,0.11561,-0.00339326,0.54956
0.00166269,0.318464,-0.418066,-0.237484,-0.186018,2.20257,-0.0120618,0.0740488,0.585901
-0.0218516,0.307764,-0.369427,-0.766855,-0.658885,2.41156,-0.154927,0.13908,0.558041
-0.0532624,0.286617,-0.320191,-1.14379,-0.995254,2.35073,-0.309378,0.18046,0.493933
-0.0860135,0.259292,-0.276175,-1.25344,-1.0852,2.02762,-0.447894,0.201129,0.391297
-0.115413,0.232165,-0.243194,-1.10581,-1.02706,1.39587,-0.552728,0.206098,0.290488
-0.137658,0.210515,-0.225015,-0.807278,-0.78041,0.628932,-0.579429,0.197474,0.205962
-0.150672,0.197503,-0.221781,-0.434143,-0.450861,-0.102109,-0.541902,0.126,0.121992
-0.154299,0.193494,-0.230087,-0.0929828,-0.0691813,-0.604541,-0.420302,0.057477,0.0471638
-0.14947,0.197233,-0.245018,0.232225,0.240969,-0.873887,-0.27391,0.0125916,-0.0294818
-0.139296,0.206299,-0.26217,0.393174,0.414819,-0.881007,-0.11303,-0.00478639,-0.0748133
-0.128761,0.215962,-0.27688,0.342787,0.271663,-0.644999,0.0250958,-0.0282666,-0.130452
-0.12496,0.22193,-0.285892,0.121196,-0.108389,-0.3111,0.120907,-0.0366016,-0.193356
-0.12496,0.22193,-0.285892,0.121196,-0.108389,-0.3111,0.120907,-0.0366016,-0.193356
-0.130626,0.222377,-0.289728,-0.104899,-0.557263,-0.0969646,0.132388,-0.00651711,-0.239614
-0.147,0.220054,-0.291848,-0.135723,-1.09295,-0.110439,0.0783026,0.0103507,-0.26729
-0.168699,0.21768,-0.29563,-0.17342,-1.05895,-0.212458,0.0624972,0.0184702,-0.222122
-0.184763,0.214195,-0.301069,-0.271451,-0.652078,-0.227541,0.0998496,-0.0226535,-0.19761
-0.192612,0.208417,-0.306112,-0.386513,-0.262229,-0.147075,0.151132,-0.0515883,-0.23091
-0.194553,0.200839,-0.309974,-0.410396,-0.0412197,-0.0857679,0.171116,-0.0216387,-0.279508
-0.194394,0.194301,-0.31348,-0.281177,-0.0260066,-0.15323,0.132957,0.000377551,-0.296987
-0.193396,0.191903,-0.318774,-0.0440608,-0.00142123,-0.331947,0.0849199,0.0194474,-0.255865
-0.193187,0.195709,-0.327165,0.251164,-0.151429,-0.547084,0.0540605,0.0306135,-0.164825
-0.195311,0.204674,-0.338332,0.37499,-0.267933,-0.682859,0.0407438,0.010621,-0.00630051
-0.197301,0.213502,-0.350953,0.211083,-0.151412,-0.682671,0.0408004,-0.0251313,0.148856
-0.195414,0.217115,-0.362856,-0.0969874,0.0981574,-0.502009,0.0492029,-0.070613,0.212088
-0.188182,0.212905,-0.370932,-0.468577,0.468101,-0.183608,0.0447577,-0.0772283,0.217353
-0.175381,0.201111,-0.373913,-0.723317,0.711874,0.0842984,0.0114666,-0.0220899,0.145387
-0.159991,0.185165,-0.373506,-0.824414,0.80916,0.203825,-0.0393976,0.0712852,0.0477912
-0.144762,0.168508,-0.371936,-0.785438,0.718082,0.174565,-0.10742,0.122942,-0.0234836
-0.132021,0.154222,-0.372148,-0.611465,0.544642,-0.0292833,-0.180257,0.155701,-0.081701
-0.122912,0.145599,-0.377112,-0.283666,0.286097,-0.359755,-0.216295,0.183659,-0.106943
-0.118502,0.145102,-0.38791,0.098732,0.0166833,-0.676551,-0.204352,0.163148,-0.0617293
-0.117917,0.151393,-0.402054,0.324958,-0.151629,-0.749131,-0.125492,0.113843,0.059746
-0.119687,0.159909,-0.415097,0.341695,-0.215757,-0.615855,-0.0594442,0.0739168,0.183426
-0.123312,0.166474,-0.424706,0.169707,-0.311004,-0.398013,-0.0297624,0.0525014,0.286685
-0.128624,0.167701,-0.430494,-0.123593,-0.289767,-0.19519,-0.0409795,0.0366978,0.349866
-0.132386,0.163009,-0.433241,-0.358854,-0.109973,-0.017473,-0.0506127,0.0183064,0.342062
-0.132289,0.154806,-0.433666,-0.436828,0.0999325,0.0708252,-0.0758812,0.0135476,0.270928
-0.129075,0.146155,-0.433033,-0.403062,0.220217,0.111421,-0.0865078,-0.00368737,0.176619
-0.125063,0.138943,-0.431244,-0.275355,0.186306,0.145905,-0.103165,-0.0391466,0.0819017
-0.122215,0.134449,-0.429171,-0.161589,0.138411,0.0964159,-0.154977,-0.0591625,0.0309165
-0.119855,0.131958,-0.428789,-0.0829157,0.0905787,-0.034673,-0.192109,-0.0935526,-0.0285771
-0.118244,0.130877,-0.430501,-0.069862,0.0847997,-0.0930294,-0.156493,-0.116948,-0.0767543
-0.114885,0.128747,-0.43175,-0.156542,0.246986,0.0210265,-0.0726722,-0.139278,-0.14845
-0.10912,0.125251,-0.429501,-0.151677,0.336178,0.235116,-0.0474214,-0.157516,-0.291033
-0.103586,0.122316,-0.424239,-0.0704414,0.258353,0.273316,-0.0773036,-0.0982956,-0.388005
-0.101757,0.122598,-0.420418,0.1631,-0.0734739,0.0692791,-0.107112,-0.0424585,-0.447271
-0.107454,0.129792,-0.421427,0.544329,-0.473873,-0.231767,-0.092492,-0.0327576,-0.454301
-0.115927,0.143084,-0.425793,0.655924,-0.344251,-0.304145,-0.0363936,-0.0604069,-0.316606
-0.118414,0.153887,-0.429111,0.332908,0.0437175,-0.120586,0.0423701,-0.0917609,-0.19342
-0.114797,0.155708,-0.428085,-0.13099,0.317299,0.199978,0.0922551,-0.105144,-0.203186
-0.108994,0.149537,-0.422792,-0.377059,0.293927,0.334887,0.070302,-0.0140755,-0.286528
-0.10553,0.142268,-0.418362,-0.22865,0.095034,0.139038,0.0108558,0.0872378,-0.326782
-0.106632,0.14295,-0.419254,0.331664,-0.232196,-0.256981,-0.0183889,0.138389,-0.318922
-0.113044,0.156787,-0.426788,0.932191,-0.477302,-0.602125,0.00241117,0.14345,-0.196122
-0.119822,0.179776,-0.437901,1.16348,-0.326944,-0.731749,0.0491279,0.0998448,0.0159681
-0.120965,0.204151,-0.44967,1.09062,-0.0172537,-0.682224,0.110138,0.0748515,0.153825
-0.116227,0.224999,-0.459269,0.85213,0.299824,-0.490834,0.148748,0.0551673,0.227297
-0.10537,0.239723,-0.4651,0.555571,0.656756,-0.246693,0.158167,0.0510778,0.242215
-0.0896426,0.24876,-0.467114,0.352252,0.81769,-0.0395184,0.152822,0.0718706,0.191233
-0.0751103,0.254751,-0.46572,0.27567,0.628215,0.114969,0.121477,0.086431,0.124742
-0.0673497,0.259944,-0.461879,0.27342,0.224693,0.218323,0.0835926,0.0914228,0.110866
-0.0688179,0.264558,-0.456129,0.208893,-0.18798,0.302387,0.0400803,0.0867845,0.170229
-0.0763358,0.267141,-0.449151,0.111122,-0.344058,0.348753,-0.00488877,0.0776192,0.240987
-0.0854929,0.268449,-0.441597,0.0876489,-0.350171,0.35765,-0.0521299,0.0815353,0.284011
-0.0936068,0.269383,-0.434696,0.0587222,-0.287295,0.289095,-0.0952493,0.0860983,0.323363
-0.100466,0.269501,-0.429665,-0.000681317,-0.276988,0.187978,-0.1207,0.0629117,0.361708
-0.100466,0.269501,-0.429665,-0.000681317,-0.276988,0.187978,-0.1207,0.0629117,0.361708
-0.106691,0.268206,-0.42707,-0.12139,-0.273875,0.0650536,-0.148951,0.0141626,0.38653
-0.111555,0.263962,-0.426923,-0.307698,-0.19003,-0.00168845,-0.146377,-0.0347321,0.394346
-0.114504,0.256101,-0.428093,-0.482368,-0.135821,-0.0145758,-0.144019,-0.0808871,0.347387
-0.117207,0.245503,-0.429317,-0.568369,-0.175289,0.00591772,-0.149522,-0.11955,0.26141
-0.120669,0.234167,-0.430954,-0.567983,-0.189746,-0.0441033,-0.17803,-0.128685,0.182096
-0.123067,0.223719,-0.434469,-0.505532,-0.128633,-0.183507,-0.201943,-0.129171,0.0995404
-0.123673,0.215412,-0.441114,-0.392367,-0.0924017,-0.363221,-0.206199,-0.129069,-0.00139803
-0.123752,0.210491,-0.451207,-0.219287,-0.128091,-0.553207,-0.180649,-0.131972,-0.108652
-0.124036,0.209257,-0.463976,-0.0681654,-0.171767,-0.654232,-0.115385,-0.133621,-0.204027
-0.125123,0.210288,-0.477431,-0.00368534,-0.191484,-0.653819,-0.0396042,-0.128493,-0.268673
-0.126488,0.212716,-0.489984,0.109358,-0.227118,-0.595222,0.0131544,-0.114202,-0.345884
-0.130775,0.218581,-0.501205,0.341412,-0.451839,-0.585845,0.0289267,-0.082304,-0.396601
-0.13854,0.228604,-0.512071,0.467432,-0.511256,-0.59391,0.0624522,-0.0314693,-0.33352
-0.144284,0.237804,-0.522477,0.249779,-0.265724,-0.517993,0.10687,-0.0213279,-0.226351
-0.143609,0.239823,-0.530427,-0.170741,0.145579,-0.245893,0.186384,-0.0119043,-0.206894
-0.138444,0.233954,-0.533355,-0.399388,0.219072,0.00702641,0.198909,0.0355667,-0.30927
-0.136148,0.226553,-0.534092,-0.30329,-0.0242215,-0.019718,0.111324,0.103251,-0.362421
-0.13899,0.224344,-0.536914,0.0843648,-0.344781,-0.256744,0.0572058,0.160257,-0.328087
-0.147841,0.231723,-0.544594,0.520064,-0.691099,-0.583529,0.0343266,0.179072,-0.162009
-0.160167,0.246809,-0.556299,0.766322,-0.765329,-0.746909,0.057589,0.145755,0.0596719
-0.169881,0.264845,-0.568956,0.768005,-0.490845,-0.735722,0.0944601,0.127528,0.245551
-0.172247,0.279808,-0.580201,0.480715,-0.0247969,-0.582949,0.103451,0.0867178,0.37343
-0.165089,0.286106,-0.588546,-0.023131,0.498392,-0.291353,0.108893,0.0585861,0.418047
-0.150135,0.28004,-0.592376,-0.635885,0.860473,0.00357491,0.0974345,0.0674863,0.378563
-0.131784,0.262563,-0.592915,-1.05142,0.902406,0.171624,0.0783916,0.13567,0.212847
-0.11663,0.240145,-0.591569,-1.11513,0.617171,0.214889,0.0430192,0.16486,0.0434709
-0.108026,0.219399,-0.590197,-0.904458,0.302892,0.136708,-0.0162435,0.162712,-0.06056
-0.103208,0.204595,-0.590024,-0.573504,0.218313,0.040125,-0.0543517,0.13269,-0.0871325
-0.0991679,0.195363,-0.589985,-0.392339,0.175212,0.0880071,-0.0396882,0.0679474,-0.0487752
-0.0968444,0.187087,-0.587654,-0.425565,0.0933937,0.217482,-0.021083,0.0552602,-0.00597101
-0.0970931,0.178063,-0.583197,-0.417418,-0.0258574,0.303221,-0.0311333,0.0535121,-0.0126037
-0.0986738,0.170283,-0.577078,-0.27575,-0.015462,0.370471,-0.042178,0.0366791,-0.0538793
-0.0996938,0.166331,-0.569302,-0.0439794,0.0495633,0.441896,-0.0477952,0.0157543,-0.0905668
-0.0996903,0.166402,-0.559451,0.142534,0.100964,0.529671,-0.0402924,0.00412057,-0.111956
-0.0999639,0.169571,-0.547468,0.286533,0.0594487,0.610124,-0.0133281,0.0134553,-0.135062
-0.101987,0.175302,-0.534326,0.419448,-0.0405779,0.613794,-0.00971989,0.0330939,-0.147426
-0.10623,0.184067,-0.521005,0.594152,-0.141025,0.612305,0.0170661,0.0464631,-0.14391
-0.112175,0.196054,-0.506521,0.747168,-0.166443,0.676236,0.0456173,0.0409918,-0.111427
-0.118704,0.210114,-0.490646,0.826726,-0.19015,0.692954,0.0341253,0.0362541,-0.0756891
-0.127999,0.225532,-0.475137,0.880513,-0.401478,0.631664,0.0357326,0.0436783,-0.0584753
-0.139729,0.239687,-0.459394,0.683343,-0.343848,0.75293,0.151559,0.0849933,0.00228906
-0.147854,0.245621,-0.439005,0.133242,0.0489354,1.17593,0.256297,0.0301006,0.0491709
-0.150977,0.236771,-0.409928,-0.56777,0.273809,1.73412,0.241377,-0.0220121,0.0192549
-0.153666,0.216497,-0.375385,-0.832776,0.18279,1.8243,0.109328,0.0519827,-0.151765
-0.15962,0.196845,-0.343912,-0.568738,-0.149249,1.46599,-0.00385487,0.178974,-0.249857
-0.170318,0.187159,-0.322688,-0.0249141,-0.495378,0.710792,-0.0976399,0.212954,-0.257464
-0.181566,0.190709,-0.315244,0.467558,-0.387701,-0.00683314,-0.0927994,0.149638,-0.154738
-0.182604,0.203642,-0.318092,0.730083,0.279451,-0.454606,-0.00688405,-0.000292405,-0.0494123
-0.168317,0.221081,-0.325464,0.839415,0.953355,-0.500548,0.124368,-0.101272,-0.0196027
-0.143759,0.238958,-0.330995,0.840168,1.33851,-0.308454,0.23041,-0.143681,-0.0196079
-0.117,0.256097,-0.332244,0.844758,1.2304,-0.0154234,0.306133,-0.111867,-0.0263644
-0.0979638,0.27157,-0.327547,0.711143,0.788461,0.293714,0.276306,-0.100225,0.0337442
-0.0894519,0.282058,-0.317524,0.406593,0.349295,0.563206,0.216097,-0.0746488,0.131373
-0.0894519,0.282058,-0.317524,0.406593,0.349295,0.563206,0.216097,-0.0746488,0.131373
-0.0891747,0.285441,-0.303388,0.0610099,0.134207,0.753085,0.166432,-0.0406542,0.199835
-0.0909646,0.282929,-0.286383,-0.125738,0.192246,0.896011,0.115609,-0.00130242,0.193348
-0.0914839,0.278642,-0.267366,-0.113801,0.272124,0.951797,0.0595888,0.0551104,0.163372
-0.0913298,0.275494,-0.248509,-0.0388019,0.221519,0.866312,0.00229926,0.114002,0.166639
-0.0936952,0.273676,-0.232555,-0.0126098,-0.0434145,0.677709,-0.0390588,0.133768,0.215366
-0.100209,0.272057,-0.220525,-0.0423181,-0.264462,0.512131,-0.0576448,0.0983645,0.283324
-0.108574,0.269675,-0.210815,-0.103326,-0.277045,0.461121,-0.0517754,0.0446776,0.338523
-0.115442,0.26558,-0.201651,-0.206272,-0.164769,0.478763,-0.048276,0.0015586,0.363135
-0.120043,0.258966,-0.192012,-0.342016,-0.0536711,0.528177,-0.061057,-0.0239325,0.344373
-0.123725,0.249577,-0.181866,-0.461354,-0.0969909,0.559631,-0.0536779,-0.0238033,0.292847
-0.12948,0.238483,-0.171529,-0.510173,-0.205653,0.582058,-0.0495239,-0.0206379,0.225603
-0.135604,0.226529,-0.160783,-0.529361,-0.148562,0.613159,-0.0886018,-0.0544718,0.148383
-0.14107,0.214836,-0.149875,-0.47898,-0.183299,0.597417,-0.118856,-0.0551389,0.0401973
-0.147775,0.204121,-0.140016,-0.447461,-0.267552,0.494668,-0.129088,-0.0341562,-0.0403441
-0.153272,0.19451,-0.132959,-0.393354,-0.113537,0.337369,-0.156374,-0.0488713,-0.128046
-0.154902,0.187195,-0.128808,-0.255036,-0.0204711,0.176065,-0.148171,-0.0496754,-0.243406
-0.158165,0.183748,-0.127539,-0.0649554,-0.336528,-0.00844304,-0.0883393,-0.0355919,-0.324074
-0.168752,0.184425,-0.12974,0.0666785,-0.723156,-0.203696,-0.0256921,-0.0599816,-0.320061
-0.182468,0.185879,-0.133592,-0.0206207,-0.670356,-0.139169,0.0793472,-0.129948,-0.250735
-0.193162,0.183585,-0.133389,-0.207836,-0.345067,0.248777,0.207185,-0.189225,-0.243784
-0.196209,0.175168,-0.124439,-0.455371,0.184463,0.772362,0.2368,-0.172604,-0.25284
-0.192836,0.160568,-0.107776,-0.647821,0.356358,1.07051,0.129272,-0.123401,-0.312364
-0.190807,0.143502,-0.0888314,-0.628874,0.0744003,1.05987,0.023746,-0.0421552,-0.38313
-0.196339,0.130414,-0.0720802,-0.288882,-0.402539,0.780491,-0.0529905,0.0214327,-0.408523
-0.210582,0.127721,-0.0612077,0.252628,-0.862125,0.319367,-0.0924478,0.0671168,-0.323299
-0.229745,0.136812,-0.0568417,0.697364,-0.926133,-0.0748274,-0.0814973,0.0435506,-0.131047
-0.245011,0.153693,-0.0569662,0.90389,-0.557922,-0.315702,-0.0557332,0.00803809,0.0652056
-0.250359,0.173026,-0.059823,0.873718,-0.0240527,-0.406546,-0.00136958,0.0119009,0.189449
-0.24589,0.190081,-0.063485,0.680097,0.365216,-0.345544,0.0675267,0.0152321,0.244459
-0.236394,0.201923,-0.0660506,0.393671,0.507512,-0.164319,0.105783,0.0339731,0.260512
-0.226063,0.206089,-0.066165,0.00361499,0.514206,0.0550706,0.105202,0.0604376,0.244491
-0.216419,0.201837,-0.064266,-0.362835,0.506493,0.204829,0.0557113,0.101821,0.194334
-0.206121,0.19148,-0.0615217,-0.562248,0.570843,0.258128,-0.000903919,0.14182,0.103979
-0.194569,0.179382,-0.0593696,-0.559494,0.637544,0.162768,-0.0812586,0.173996,0.0221203
-0.180916,0.169672,-0.0602816,-0.385,0.703429,-0.090821,-0.150443,0.193746,-0.0362596
-0.166287,0.165983,-0.0660412,-0.0706792,0.643396,-0.403363,-0.166632,0.203811,-0.0547221
-0.153372,0.168693,-0.0762596,0.147083,0.477829,-0.605819,-0.125779,0.172899,0.0205131
-0.143254,0.173312,-0.08775,0.103101,0.349697,-0.552188,-0.0685871,0.095862,0.152725
-0.135911,0.174566,-0.0969737,-0.11857,0.213068,-0.357509,-0.0312234,0.0441026,0.231778
-0.132894,0.16984,-0.102633,-0.437978,-0.0113579,-0.138792,-0.033008,0.00712921,0.269325
-0.133923,0.158312,-0.105219,-0.708786,-0.116479,0.0287172,-0.0501692,-0.016482,0.24739
-0.135958,0.143504,-0.105299,-0.724639,-0.0747962,0.155408,-0.0808191,-0.0343412,0.174527
-0.136779,0.129762,-0.103469,-0.613913,0.0288968,0.195543,-0.116975,-0.0475122,0.116761
-0.1351,0.118108,-0.101332,-0.515431,0.152348,0.169203,-0.15168,-0.0636242,0.0752018
-0.131676,0.108502,-0.0996979,-0.418443,0.207256,0.120603,-0.16452,-0.0793178,0.0286196
-0.127108,0.101041,-0.0990366,-0.315571,0.256606,0.0390268,-0.170877,-0.0946269,-0.0178415
-0.121854,0.096044,-0.099832,-0.190484,0.266426,-0.0556349,-0.172679,-0.111684,-0.0649985
-0.116597,0.093718,-0.101967,-0.0683937,0.237111,-0.121821,-0.147926,-0.130418,-0.103113
-0.112376,0.09392,-0.104447,0.0638058,0.147215,-0.117376,-0.103229,-0.150862,-0.135626
-0.110658,0.0967778,-0.105833,0.201775,0.0203032,-0.0512486,-0.0687951,-0.167091,-0.15095
-0.111025,0.101878,-0.105746,0.299537,-0.0437553,-0.00161784,-0.0642155,-0.175291,-0.134708
-0.11204,0.108377,-0.104781,0.35547,-0.0350327,0.0219281,-0.0640216,-0.177784,-0.111832
-0.112803,0.116146,-0.103341,0.449957,-0.0417425,0.0252124,-0.0544546,-0.172842,-0.116077
-0.113568,0.126201,-0.102339,0.541328,0.00864954,-0.0476907,-0.0492284,-0.161792,-0.102143
-0.113568,0.126201,-0.102339,0.541328,0.00864954,-0.0476907,-0.0492284,-0.161792,-0.102143
-0.111346,0.135957,-0.102409,0.385574,0.2342,-0.0381606,0.0247635,-0.129598,-0.0475441
-0.104236,0.139469,-0.100447,-0.0477423,0.489572,0.240247,0.166865,-0.141058,-0.0603274
-0.0951357,0.132627,-0.0917172,-0.526082,0.479928,0.70218,0.189693,-0.196374,-0.171483
-0.0896098,0.117696,-0.0756262,-0.773873,0.268502,0.96376,0.131534,-0.120079,-0.319725
-0.0895533,0.100037,-0.0579505,-0.820525,-0.111677,0.925381,0.0189181,-0.0274643,-0.392196
-0.0986808,0.0818279,-0.0423459,-0.860947,-0.665014,0.77022,0.00294569,0.0444287,-0.38556
-0.116818,0.0635442,-0.0317541,-0.808492,-1.00227,0.460714,-0.0173493,0.081461,-0.318177
-0.136104,0.0503482,-0.0281156,-0.391428,-0.829511,0.0431142,-0.0833601,0.0625643,-0.245595
-0.147733,0.0504861,-0.032051,0.383473,-0.339733,-0.432953,-0.109461,0.0373573,-0.181281
-0.149364,0.0674173,-0.0424108,1.08728,0.100254,-0.823974,-0.0775721,0.0330492,-0.0461564
-0.143075,0.0946056,-0.0573236,1.31469,0.361766,-1.01204,0.0282561,0.038541,0.136708
-0.133678,0.121813,-0.0739348,1.10524,0.37166,-0.965613,0.132766,0.00853599,0.273453
-0.125045,0.14166,-0.0886672,0.664879,0.286332,-0.717699,0.204647,-0.0208464,0.337157
-0.119323,0.151615,-0.0982452,0.232426,0.159797,-0.343546,0.258162,-0.0257838,0.332833
-0.116611,0.154429,-0.101677,0.0583927,0.0751859,-0.05572,0.218158,-0.0211877,0.254964
-0.115344,0.155911,-0.101443,0.113713,0.0759679,0.0307587,0.133849,0.0155091,0.190398
-0.11329,0.159308,-0.10113,0.223207,0.139604,-0.0561548,0.0810529,0.0536086,0.157461
-0.109723,0.164818,-0.102544,0.300407,0.177766,-0.132293,0.109499,0.0847575,0.133654
-0.106999,0.171235,-0.104441,0.308111,0.0368225,-0.0983549,0.16723,0.095067,0.129062
-0.109339,0.176772,-0.104429,0.231357,-0.295376,0.0497702,0.197768,0.093364,0.166496
-0.119037,0.179407,-0.101527,0.0340991,-0.589682,0.19458,0.162931,0.0764261,0.265851
-0.132493,0.176492,-0.0969389,-0.270695,-0.651075,0.286988,0.102603,0.0219361,0.340568
-0.145505,0.167407,-0.0914484,-0.548467,-0.534581,0.373934,0.0643214,-0.0316309,0.343444
-0.154741,0.153762,-0.0855534,-0.684471,-0.302479,0.39801,0.0432818,-0.0492815,0.272018
-0.160352,0.139916,-0.0802682,-0.569248,-0.225433,0.325467,0.0364924,-0.0359549,0.145585
-0.16623,0.130265,-0.0767792,-0.322692,-0.346205,0.165131,0.0284586,-0.0343943,0.0699467
-0.174871,0.125761,-0.0759418,-0.133698,-0.496073,0.00723617,0.0300289,-0.0606509,0.0799993
-0.184425,0.124058,-0.0772162,-0.0724672,-0.436861,-0.104947,0.0254929,-0.117623,0.123131
-0.190261,0.123415,-0.0805221,-0.0603676,-0.160503,-0.20024,0.0289858,-0.15885,0.132094
-0.188612,0.123012,-0.0853915,-0.0732337,0.282522,-0.261882,0.0523966,-0.162973,0.069539
-0.178661,0.122392,-0.0910125,-0.0809526,0.589837,-0.274535,0.0931765,-0.1557,-0.0701539
-0.165722,0.121552,-0.0963495,-0.100991,0.585735,-0.217631,0.150075,-0.136117,-0.207379
-0.156625,0.119646,-0.0999108,-0.145611,0.219014,-0.113582,0.176278,-0.129174,-0.315475
-0.156356,0.116774,-0.102307,-0.182106,-0.19073,-0.0832453,0.182872,-0.117897,-0.378377
-0.160639,0.112407,-0.103704,-0.292197,-0.179388,0.0551151,0.200565,-0.129255,-0.376557
-0.161079,0.10455,-0.100693,-0.452149,0.196832,0.382232,0.174721,-0.169169,-0.393686
-0.153732,0.0930027,-0.0921404,-0.532395,0.558139,0.613582,0.112304,-0.0847742,-0.457837
-0.143724,0.0810455,-0.0807554,-0.456444,0.487286,0.677795,0.037169,-0.0127781,-0.511789
-0.139394,0.0728692,-0.0686449,-0.143761,-0.0256072,0.599988,-0.0528017,0.0322163,-0.509505
-0.147475,0.072851,-0.059407,0.259639,-0.699396,0.28673,-0.125482,0.0946066,-0.37354
-0.164982,0.0803856,-0.0563847,0.508854,-0.942228,-0.103101,-0.147193,0.110817,-0.14181
-0.180929,0.092574,-0.0591941,0.630001,-0.604807,-0.345544,-0.117,0.0698435,0.0501742
-0.18668,0.10635,-0.0634095,0.625027,-0.0212039,-0.261649,-0.0137238,0.0456026,0.174035
-0.182944,0.117067,-0.0628844,0.402188,0.35537,0.156161,0.0838324,0.00896549,0.242375
-0.175877,0.119208,-0.0540121,-0.0696693,0.416034,0.65456,0.0887539,0.0403429,0.294114
-0.170409,0.109501,-0.0395815,-0.62457,0.290398,0.876468,-0.00510532,0.129226,0.288237
-0.168023,0.0907091,-0.0252688,-0.948124,0.0891784,0.813269,-0.110432,0.199136,0.203391
-0.167931,0.0692506,-0.0150838,-0.955354,0.0372414,0.528146,-0.189245,0.234662,0.109226
-0.165425,0.0524787,-0.0114679,-0.578481,0.251964,0.094178,-0.230193,0.237773,0.00827551
-0.158436,0.0479333,-0.0152618,0.0799828,0.412281,-0.382369,-0.248245,0.217913,-0.037127
-0.150288,0.0570144,-0.0249938,0.609018,0.316908,-0.67973,-0.158092,0.209938,0.0406799
-0.144351,0.0724396,-0.0379955,0.62004,0.282925,-0.917575,-0.0634969,0.155643,0.208333
-0.143524,0.0784589,-0.0535145,-0.020669,-0.476083,-0.521682,0.187331,0.0145661,0.314386
-0.154022,0.0849219,-0.0604961,0.458976,-0.413545,-0.30235,-0.0267196,-0.0119819,0.236051
-0.154022,0.0849219,-0.0604961,0.458976,-0.413545,-0.30235,-0.0267196,-0.0119819,0.236051
-0.155261,0.0922343,-0.0633972,0.220825,0.15059,-0.160323,0.0492745,0.0373855,0.399009
-0.151414,0.0958152,-0.066542,0.0640598,0.223939,-0.161191,0.0268686,-0.0496561,0.377015
-0.14275,0.0958677,-0.068453,-0.0471903,0.637174,-0.0335462,0.0260424,-0.128934,0.262642
-0.128705,0.0959613,-0.067655,0.0834917,0.706289,0.12665,0.0131503,-0.199154,0.0969686
-0.117591,0.0982235,-0.0629774,0.172178,0.386184,0.297438,0.0151311,-0.207858,-0.00648934
-0.11504,0.100089,-0.0559886,0.068741,-0.0302424,0.363032,-0.0245213,-0.2165,-0.0257873
-0.118011,0.0992269,-0.0481843,-0.0494405,-0.137088,0.436397,-0.0375204,-0.222545,-0.0629721
-0.120239,0.0969145,-0.0381586,-0.0356437,0.0446686,0.588325,-0.0234665,-0.215615,-0.149665
-0.118362,0.0959086,-0.0248722,0.10138,0.236151,0.724466,-0.0476024,-0.204348,-0.260843
-0.115043,0.0974075,-0.0100568,0.181336,0.226245,0.713935,-0.0984923,-0.183676,-0.326291
-0.111562,0.0984486,0.00438361,0.0531266,0.304224,0.722967,-0.0615411,-0.130623,-0.358059
-0.104721,0.0960297,0.019705,-0.109678,0.509796,0.847336,-0.0381942,-0.134587,-0.464726
-0.0962931,0.0915491,0.0381222,-0.132241,0.466255,1.00685,-0.0242992,-0.0897617,-0.595456
-0.0910571,0.0876352,0.0578133,-0.0541193,0.203751,0.945789,-0.0459075,0.0149064,-0.647079
-0.0913305,0.0873608,0.0741398,0.207554,-0.0851454,0.656461,-0.0756634,0.097885,-0.623856
-0.0965685,0.0947455,0.0844271,0.634461,-0.326223,0.294682,-0.0808939,0.144851,-0.511198
-0.104389,0.111101,0.0885403,1.016,-0.385138,-0.0389193,-0.0394331,0.16028,-0.306284
-0.111062,0.133486,0.0877429,1.16564,-0.270108,-0.259714,0.0283813,0.145984,-0.0743895
-0.113848,0.15659,0.0839706,1.06734,-0.0523712,-0.357403,0.0930166,0.0998293,0.104646
-0.111905,0.176415,0.0790268,0.851241,0.141845,-0.331839,0.177809,0.0657597,0.197575
-0.106516,0.191941,0.0754278,0.676472,0.349502,-0.161347,0.253471,0.0378867,0.214018
-0.0976179,0.205077,0.0763491,0.674451,0.532525,0.126135,0.261604,-0.0081345,0.188053
-0.0886882,0.218747,0.0833849,0.740921,0.477175,0.42556,0.231283,0.00895311,0.201917
-0.0842488,0.232056,0.0950963,0.657958,0.200725,0.576867,0.136718,0.0385722,0.277209
-0.0867928,0.241992,0.108014,0.430072,-0.13509,0.569822,0.0378172,0.0650155,0.359664
-0.0938667,0.247401,0.118933,0.23233,-0.282415,0.421232,-0.0491091,0.0717437,0.39398
-0.101741,0.251089,0.12545,0.219926,-0.321616,0.167138,-0.0997241,0.0476231,0.387492
-0.106485,0.255863,0.127113,0.277193,-0.0840188,-0.0339805,-0.0890864,0.00298843,0.382834
-0.105977,0.262255,0.126692,0.348991,0.0904432,-0.0322152,-0.031658,-0.0671871,0.36844
-0.104597,0.268708,0.129202,0.2852,0.0970324,0.247947,0.0462769,-0.119387,0.367888
-0.105796,0.271144,0.138865,0.0331199,0.0451179,0.651395,0.0451766,-0.14339,0.375345
-0.109086,0.267639,0.155134,-0.200255,0.0465414,0.9064,-0.0610674,-0.115901,0.324404
-0.114219,0.260898,0.172856,-0.257853,-0.120531,0.823621,-0.189371,-0.0318768,0.242181
-0.122396,0.254416,0.186474,-0.232136,-0.337998,0.548751,-0.27924,0.0156111,0.175307
-0.131598,0.249151,0.193786,-0.19919,-0.3664,0.223305,-0.331604,0.0398702,0.127674
-0.137782,0.245689,0.194903,-0.119638,-0.208925,-0.0543601,-0.341906,0.0411828,0.0504231
-0.139903,0.244763,0.191651,-0.0209349,-0.0920758,-0.232292,-0.305505,0.0791637,-0.0375906
-0.140568,0.245634,0.185271,-0.000508077,-0.1605,-0.406802,-0.275141,0.126823,-0.104968
-0.143939,0.24618,0.174699,-0.117819,-0.460866,-0.628924,-0.268414,0.152789,-0.140536
-0.151233,0.243597,0.158709,-0.385906,-0.584745,-0.857864,-0.222489,0.146728,-0.145916
-0.155415,0.235344,0.139032,-0.730316,-0.229009,-0.873288,-0.0972342,0.134606,-0.168971
-0.150165,0.220748,0.120501,-0.959429,0.296104,-0.660499,0.035604,0.135753,-0.277281
-0.14086,0.203568,0.107542,-0.894497,0.28038,-0.3645,0.0890181,0.139558,-0.424697
-0.137358,0.189459,0.0984979,-0.594393,-0.146482,-0.395721,-0.013778,0.179173,-0.463927
-0.144072,0.18361,0.085998,-0.186074,-0.750309,-0.790314,-0.0995615,0.227716,-0.341296
-0.158215,0.184583,0.065215,-0.0745472,-0.945342,-1.20822,-0.0813263,0.224857,-0.0912614
-0.169952,0.186491,0.0391644,-0.182375,-0.663314,-1.3122,0.00706854,0.130663,0.0743386
-0.173548,0.184388,0.0130406,-0.506096,-0.14117,-1.15051,0.0768555,0.0494792,0.173131
-0.165974,0.173467,-0.00949552,-0.94544,0.493309,-0.861373,0.133208,0.0242366,0.173574
-0.147971,0.154575,-0.0283933,-1.1663,0.956153,-0.717157,0.134245,0.0686026,0.0404205
-0.124968,0.134093,-0.0457171,-1.06173,1.03164,-0.727422,0.101704,0.11419,-0.117932
-0.104365,0.117776,-0.0635924,-0.741172,0.767286,-0.877942,0.0610044,0.106533,-0.212099
-0.0912706,0.109221,-0.0842654,-0.31241,0.311752,-1.08812,0.0465945,0.0828197,-0.221491
-0.0857943,0.108529,-0.107557,0.00862086,0.0260323,-1.19016,0.0632886,0.0165195,-0.105258
-0.0857943,0.108529,-0.107557,0.00862086,0.0260323,-1.19016,0.0632886,0.0165195,-0.105258
-0.0844248,0.112602,-0.130504,0.193255,-0.141029,-1.09187,0.114384,-0.0591749,0.0272526
-0.0865964,0.119087,-0.149191,0.26777,-0.296727,-0.794374,0.16458,-0.0972584,0.147904
-0.0920517,0.124715,-0.161015,0.170591,-0.369278,-0.428304,0.168021,-0.11038,0.262355
-0.0977545,0.127198,-0.165922,0.0392232,-0.223896,-0.0900338,0.126809,-0.10665,0.321262
-0.0996315,0.127104,-0.164812,-0.0288037,0.0519213,0.188042,0.0594035,-0.0836872,0.327331
-0.0974173,0.125921,-0.159219,-0.0299489,0.210287,0.356133,-0.0144382,-0.0509554,0.290357
-0.0944191,0.124967,-0.151332,0.011096,0.155597,0.417056,-0.0746539,-0.0193707,0.237752
-0.0934953,0.124852,-0.142879,0.0511259,0.0512997,0.415286,-0.136265,-0.0132443,0.188673
-0.0942385,0.125446,-0.134927,0.0778655,-0.0392366,0.360232,-0.195291,-0.0210312,0.147545
-0.0962481,0.126008,-0.128151,0.0280531,-0.0830344,0.314848,-0.199554,-0.0176819,0.107948
-0.0995404,0.124565,-0.121634,-0.12163,-0.140991,0.349755,-0.165768,-0.0313199,0.0618793
-0.10313,0.119831,-0.114022,-0.265376,-0.123384,0.461316,-0.142435,-0.0322497,-0.0223187
-0.106197,0.113093,-0.104963,-0.292392,-0.0823039,0.486728,-0.17892,-0.0114309,-0.134544
-0.109802,0.107075,-0.097285,-0.221557,-0.261864,0.312923,-0.232096,0.00819164,-0.226162
-0.119147,0.101515,-0.0935634,-0.338231,-0.598224,0.142967,-0.183719,0.00765175,-0.226343
-0.131659,0.0915854,-0.0920288,-0.65022,-0.579823,0.16087,-0.0606778,0.00335312,-0.214317
-0.140409,0.0749759,-0.0895779,-0.957984,-0.219947,0.322831,-0.00679171,-0.0488279,-0.270649
-0.139983,0.0530176,-0.0846405,-1.11939,0.276119,0.441011,-0.0168738,-0.0314189,-0.39072
-0.132386,0.0301579,-0.0799471,-1.05333,0.417444,0.300908,-0.0231664,0.0361805,-0.526062
-0.126604,0.0115042,-0.079266,-0.759148,0.122749,-0.0115003,-0.0184111,0.0525194,-0.595121
-0.128785,0.00146987,-0.0843924,-0.291855,-0.323491,-0.369542,0.0037955,0.0156605,-0.571606
-0.137242,0.00170744,-0.0948497,0.166848,-0.471192,-0.653555,0.0544904,-0.0359056,-0.446294
-0.145912,0.010686,-0.108064,0.512802,-0.376372,-0.756984,0.150193,-0.0739548,-0.297807
-0.150461,0.0249772,-0.120904,0.688536,-0.0631369,-0.711792,0.201865,-0.0939678,-0.148539
-0.147447,0.0416401,-0.131405,0.807613,0.308488,-0.56323,0.211208,-0.0990885,-0.0477645
-0.139502,0.0599204,-0.138356,0.894263,0.422736,-0.402309,0.207892,-0.0575166,0.0306835
-0.131495,0.0793308,-0.143094,0.975704,0.322649,-0.340922,0.182233,-0.00932977,0.102629
-0.126092,0.10042,-0.146892,1.06275,0.20042,-0.310465,0.151172,0.00196952,0.186877
-0.121696,0.122076,-0.149985,1.03079,0.22494,-0.260905,0.134515,0.0113141,0.292224
-0.116041,0.14186,-0.15235,0.90777,0.320307,-0.204616,0.12452,0.0164152,0.358434
-0.108089,0.15971,-0.15396,0.882311,0.447791,-0.154139,0.112137,0.029317,0.337225
-0.0984202,0.178447,-0.154504,0.983221,0.498745,-0.102896,0.0923218,0.0514178,0.301441
-0.0890295,0.19854,-0.154364,1.00414,0.410381,-0.0729819,0.0764842,0.0857271,0.309206
-0.0842946,0.21725,-0.153617,0.834697,0.0572768,0.00798445,0.0854353,0.107971,0.361927
-0.0876983,0.230219,-0.150331,0.467963,-0.311531,0.224217,0.0685515,0.055858,0.427379
-0.0986822,0.234633,-0.142426,0.0431972,-0.566104,0.500271,0.0303929,0.003207,0.444385
-0.112282,0.229773,-0.130947,-0.40947,-0.47442,0.639485,-0.053939,-0.0424007,0.410488
-0.121075,0.217276,-0.119158,-0.649258,-0.164197,0.625665,-0.118297,-0.0669309,0.247141
-0.123986,0.203749,-0.109553,-0.526924,0.067252,0.470149,-0.136138,-0.0577291,0.021892
-0.123595,0.196324,-0.10285,-0.0973667,0.0690808,0.274419,-0.110564,-0.0442541,-0.17461
-0.124956,0.198828,-0.0986244,0.378098,-0.164993,0.115395,-0.0634318,-0.038548,-0.275071
-0.132812,0.208925,-0.095672,0.601513,-0.575151,0.0644427,-0.00789404,-0.0539593,-0.237636
-0.148416,0.219883,-0.0924098,0.476446,-0.877297,0.101472,-0.0196598,-0.0907986,-0.114594
-0.166571,0.226096,-0.0893518,0.158806,-0.798885,0.0956125,-0.0438621,-0.0974045,-0.0412895
-0.177407,0.223871,-0.087186,-0.386849,-0.154744,0.176077,0.0187234,-0.052866,-0.0278835
-0.173758,0.209885,-0.0840102,-0.861511,0.488537,0.382176,0.144448,0.0224041,-0.190908
-0.165742,0.191498,-0.0775773,-0.777661,0.373448,0.52213,0.122646,0.0728214,-0.407801
-0.163746,0.178957,-0.0700204,-0.293547,-0.0875153,0.360529,0.0321156,0.165842,-0.45969
-0.171825,0.178542,-0.0679089,0.259231,-0.659438,-0.182907,-0.0579638,0.22508,-0.301415
-0.186139,0.187907,-0.0747709,0.469449,-0.79546,-0.587405,-0.0465549,0.204442,-0.0232046
-0.195818,0.198697,-0.0862096,0.345419,-0.354224,-0.695811,-0.0205327,0.0842021,0.158397
-0.194377,0.205473,-0.0985761,0.0572322,0.241367,-0.580707,0.0165462,0.00916012,0.233844
-0.182042,0.204277,-0.107827,-0.357563,0.782824,-0.302511,0.0619633,0.00461696,0.237579
-0.163127,0.194444,-0.114298,-0.696968,0.895662,-0.175439,0.0650596,0.0673052,0.142568
-0.163127,0.194444,-0.114298,-0.696968,0.895662,-0.175439,0.0650596,0.0673052,0.142568
-0.146217,0.17941,-0.119799,-0.841236,0.661418,-0.151353,0.0413227,0.106611,0.0254669
-0.135156,0.163852,-0.126237,-0.750221,0.340165,-0.274165,-0.00559403,0.103549,-0.0558385
-0.129578,0.153063,-0.135251,-0.412087,0.0914741,-0.474685,-0.0273243,0.110077,-0.0878479
-0.127262,0.15039,-0.147088,-0.0137992,-0.0242231,-0.638508,-0.0151694,0.0738045,-0.0377308
-0.126496,0.154456,-0.159948,0.218329,-0.0874499,-0.651542,0.0352402,0.0374329,0.0747746
-0.126749,0.160805,-0.171282,0.241206,-0.120209,-0.518451,0.0902642,0.0104083,0.175271
-0.128267,0.165417,-0.179127,0.0959726,-0.159754,-0.308313,0.106425,-0.01127,0.250448
-0.13042,0.165495,-0.183322,-0.138255,-0.0968866,-0.105312,0.0865711,-0.03544,0.277124
-0.130854,0.161239,-0.184628,-0.288809,0.0612474,0.0209441,0.0465743,-0.0566833,0.243194
-0.127374,0.154988,-0.18411,-0.299219,0.279244,0.114595,0.0282016,-0.0795647,0.14337
-0.121633,0.149618,-0.1813,-0.196691,0.310571,0.242554,0.0550672,-0.0939966,0.028672
-0.117188,0.145484,-0.174888,-0.157475,0.216986,0.4451,0.0617758,-0.122378,-0.040086
-0.116299,0.140302,-0.164253,-0.255509,0.0159141,0.669087,0.0612617,-0.138082,-0.0621386
-0.120084,0.131928,-0.1495,-0.403505,-0.189929,0.878086,0.0467937,-0.135148,-0.0972953
-0.127234,0.120821,-0.131573,-0.462415,-0.284608,1.02147,0.019505,-0.123446,-0.161249
-0.135095,0.109843,-0.111724,-0.339675,-0.255466,1.07255,-0.0206225,-0.123776,-0.249641
-0.142537,0.103243,-0.091161,-0.0146492,-0.34589,1.02655,-0.0601178,-0.130705,-0.342087
-0.15546,0.102582,-0.0718535,0.169548,-0.729203,0.891069,-0.0806442,-0.162078,-0.344676
-0.170329,0.101528,-0.0539859,-0.0162466,-0.448735,0.923973,0.0313661,-0.123455,-0.279663
-0.174194,0.0967038,-0.0342329,-0.0619954,0.220985,1.10869,0.0923506,-0.110646,-0.374929
-0.168505,0.0933509,-0.0112804,0.148611,0.496261,1.15141,0.0872971,-0.010636,-0.505287
-0.161342,0.096978,0.00998687,0.598365,0.366491,0.830456,0.0328277,0.0838713,-0.563386
-0.159207,0.112664,0.024375,1.16186,-0.0387762,0.339699,0.0600724,0.167312,-0.494843
-0.165411,0.13764,0.0318953,1.34875,-0.45304,0.0562078,0.173324,0.173033,-0.262281
-0.177359,0.162291,0.037281,1.14512,-0.630044,0.0795343,0.286966,0.118367,-0.0367693
-0.189987,0.181046,0.0437013,0.819107,-0.467165,0.206148,0.312148,0.0815025,0.115722
-0.197089,0.193426,0.0516056,0.575428,-0.0750354,0.314653,0.259119,0.0577005,0.190732
-0.195884,0.202895,0.0603441,0.557508,0.364179,0.312254,0.177549,0.0640242,0.208253
-0.186929,0.214268,0.0675662,0.704194,0.642782,0.154538,0.11955,0.0920729,0.219845
-0.174346,0.229113,0.0718245,0.817415,0.679612,0.000979617,0.114106,0.0855889,0.265623
-0.162506,0.245716,0.0740801,0.845171,0.541031,-0.0403796,0.135707,0.0454662,0.330292
-0.153813,0.26202,0.0766463,0.810642,0.385049,0.0439075,0.173323,0.0124656,0.392683
-0.149499,0.276799,0.0818679,0.708098,0.197045,0.251022,0.205742,-0.0211864,0.457019
-0.149152,0.28689,0.0921596,0.414474,0.151139,0.586685,0.21377,-0.0541111,0.525613
-0.150209,0.288493,0.108735,-0.0401722,0.232528,0.981314,0.175077,-0.078651,0.564212
-0.15026,0.279385,0.131699,-0.515504,0.389293,1.3188,0.112579,-0.0709917,0.527024
-0.149951,0.26247,0.158297,-0.730538,0.30831,1.43159,0.0106064,0.00691894,0.371846
-0.152215,0.244213,0.184288,-0.672188,0.129254,1.29002,-0.108807,0.0626237,0.224856
-0.155116,0.228859,0.204951,-0.562046,0.118947,0.925925,-0.249207,0.0824421,0.142256
-0.153637,0.215521,0.218133,-0.571881,0.341637,0.552046,-0.300565,0.0837901,0.0665551
-0.145843,0.203443,0.224302,-0.51632,0.535934,0.264962,-0.276127,0.0437933,-0.0837091
-0.136376,0.193314,0.22798,-0.455326,0.445373,0.274461,-0.160097,0.0156747,-0.235899
-0.132081,0.182902,0.233404,-0.537606,0.0615405,0.398572,-0.123139,-0.0621495,-0.336265
-0.134827,0.168592,0.241221,-0.805688,-0.124027,0.562118,-0.0985201,-0.100394,-0.364342
-0.136518,0.147753,0.251585,-1.10903,0.163966,0.747522,-0.101107,-0.105134,-0.420794
-0.13192,0.123379,0.26449,-1.07172,0.422671,0.821664,-0.13469,-0.0481834,-0.585591
-0.124853,0.104136,0.277626,-0.626051,0.367102,0.704085,-0.134126,0.0419975,-0.694372
-0.123369,0.0959001,0.288329,-0.0837017,-0.15335,0.440976,-0.150245,0.0845836,-0.627807
-0.1328,0.0965872,0.293973,0.165782,-0.699766,0.10593,-0.165006,0.0861678,-0.400098
-0.149384,0.100769,0.293381,0.231993,-0.90459,-0.219243,-0.157697,0.0565917,-0.164103
-0.165555,0.107149,0.28741,0.320251,-0.72537,-0.444851,-0.0853677,0.0462143,-0.0033077
-0.175598,0.116485,0.279397,0.463263,-0.358626,-0.466108,0.00777183,0.0328024,0.11061
-0.178041,0.12744,0.273044,0.468722,0.0364428,-0.33678,0.0554262,0.0260055,0.224884
-0.1733,0.135161,0.269463,0.185581,0.366473,-0.150635,0.0715719,0.050308,0.328088
-0.1733,0.135161,0.269463,0.185581,0.366473,-0.150635,0.0715719,0.050308,0.328088
-0.164159,0.135056,0.26769,-0.222049,0.482275,-0.0464689,0.0584951,0.0917377,0.339129
-0.154376,0.12774,0.265336,-0.506672,0.464165,-0.090565,0.027572,0.148328,0.283981
-0.144866,0.11739,0.260386,-0.545426,0.433102,-0.254181,-0.0162099,0.170374,0.207157
-0.135529,0.109344,0.252059,-0.331511,0.416065,-0.452055,-0.0252382,0.162151,0.151661
-0.127079,0.107584,0.241157,0.01748,0.309688,-0.587657,0.0216037,0.120576,0.135173
-0.121022,0.112036,0.229432,0.249687,0.183694,-0.611219,0.0502675,0.0717781,0.212109
-0.117218,0.119033,0.21861,0.288731,0.0575517,-0.524021,0.089419,0.00748491,0.289669
-0.116171,0.124721,0.210797,0.157374,-0.0222164,-0.29809,0.144825,-0.0491251,0.340556
-0.116005,0.126144,0.208098,-0.0613601,0.0277818,0.0246782,0.159732,-0.102828,0.342015
-0.113515,0.122332,0.211699,-0.270228,0.289015,0.358321,0.115263,-0.14787,0.29928
-0.106025,0.115209,0.221071,-0.304882,0.548093,0.620188,0.0457686,-0.144979,0.177246
-0.0965019,0.108488,0.233859,-0.248276,0.490953,0.687214,-0.0476164,-0.105623,0.0439543
-0.0900524,0.10217,0.246423,-0.277253,0.281953,0.609209,-0.131348,-0.0788398,-0.017226
-0.0874076,0.0951124,0.257459,-0.332673,0.11006,0.565258,-0.167142,-0.081743,-0.0816691
-0.0861916,0.0871611,0.268054,-0.353743,0.127428,0.552835,-0.207043,-0.0937506,-0.176302
-0.0848493,0.0801794,0.278317,-0.240701,0.0705988,0.532615,-0.18498,-0.0538025,-0.288323
-0.0861878,0.0759062,0.288916,-0.106765,-0.126783,0.561319,-0.149869,-0.038806,-0.348988
-0.0919952,0.0738167,0.300091,-0.0197029,-0.374649,0.562025,-0.16461,-0.0776328,-0.366742
-0.101582,0.0722179,0.310978,-0.0625712,-0.460777,0.545184,-0.136726,-0.0610389,-0.32861
-0.110518,0.0680657,0.322466,-0.254734,-0.337992,0.678518,-0.0310141,-0.0296431,-0.294001
-0.1165,0.0576961,0.337739,-0.622552,-0.168989,0.968014,0.0113835,-0.046584,-0.302743
-0.120232,0.0399161,0.357043,-0.868348,-0.143794,1.09619,-0.0659438,-0.0128595,-0.401809
-0.125508,0.0209722,0.374242,-0.758292,-0.347962,0.785451,-0.166154,0.0883687,-0.509701
-0.134946,0.00843507,0.38267,-0.332196,-0.585991,0.189667,-0.203084,0.177914,-0.527391
-0.148418,0.00779844,0.379574,0.210963,-0.718187,-0.465567,-0.146504,0.208589,-0.427772
-0.161535,0.017933,0.367124,0.561665,-0.562205,-0.89585,-0.0586593,0.152484,-0.23121
-0.168902,0.0343235,0.348551,0.737437,-0.223741,-1.18434,0.0307028,0.0633541,-0.0824224
-0.168931,0.0539496,0.326938,0.829279,0.138588,-1.23691,0.131126,-0.0163282,-0.00199729
-0.1613,0.0748396,0.306647,0.902591,0.455394,-1.0965,0.208552,-0.0789016,0.011051
-0.149739,0.0967223,0.28945,1.02135,0.534709,-0.953793,0.262512,-0.0665755,0.00986898
-0.138376,0.121769,0.275242,1.27057,0.414048,-0.800078,0.280086,-0.0417241,0.0210102
-0.130551,0.150537,0.264862,1.41938,0.23021,-0.602538,0.257507,-0.05311,0.115058
-0.12726,0.179745,0.258704,1.38265,-0.0179195,-0.376534,0.237436,-0.0507896,0.243618
-0.130015,0.206098,0.25677,1.19456,-0.295744,-0.156597,0.212827,-0.0343411,0.36262
-0.138284,0.227323,0.258289,0.927377,-0.480146,0.0101634,0.176747,-0.00802828,0.454109
-0.14898,0.242792,0.261728,0.6671,-0.474212,0.0809506,0.118624,0.00852583,0.513202
-0.157736,0.253754,0.265317,0.479323,-0.298217,0.0902499,0.0806719,0.0216848,0.528241
-0.161963,0.261163,0.268301,0.303166,-0.0537569,0.0668669,0.0501511,0.0267585,0.532838
-0.161832,0.265323,0.270297,0.130251,0.108078,0.0822236,0.0423446,0.0171645,0.518973
-0.159995,0.265413,0.273422,-0.080575,0.12707,0.225328,0.0440852,-0.00687271,0.473183
-0.160008,0.2608,0.278607,-0.291673,-0.00678923,0.331192,-0.0354534,-0.0395093,0.387176
-0.16324,0.252325,0.283875,-0.456959,-0.163784,0.281327,-0.132669,-0.0443964,0.281191
-0.166928,0.242195,0.285814,-0.486055,-0.127061,0.0428332,-0.219845,-0.049045,0.150068
-0.167202,0.234456,0.282209,-0.310128,0.017284,-0.242693,-0.235743,-0.0738688,-0.0106347
-0.164412,0.232292,0.275084,-0.0156242,0.0848503,-0.376467,-0.142222,-0.0874185,-0.174137
-0.161794,0.235693,0.26829,0.211495,-0.0161138,-0.287844,0.0177955,-0.0735659,-0.277285
-0.164643,0.240115,0.266143,0.145756,-0.371003,0.0512414,0.10332,-0.0746553,-0.281632
