rotationRate_x,rotationRate_y,rotationRate_z,acceleration_x,acceleration_y,acceleration_z,relativeAltitude
-0.747702,0.0196948,-0.247786,0.00721112,-0.0234782,-0.0110093,0
-0.542566,-0.108924,-0.0604899,0.0926131,-0.0564692,-0.0180394,0
-0.379101,-0.354719,0.0128062,0.0553819,-0.0753386,-0.0430173,0
-0.252389,-0.585333,-0.0219482,0.0256537,-0.109482,-0.0973657,0
-0.146046,-0.652569,-0.113145,-0.00436257,-0.131707,-0.153554,0
-0.0335072,-0.47799,-0.143632,-0.0188129,-0.155055,-0.222864,0
0.0480126,-0.372215,-0.0899663,-0.0234398,-0.193001,-0.260462,0
-0.0215131,-0.431483,-0.0141652,-0.017979,-0.216456,-0.261553,0
-0.22621,-0.46617,0.0176898,-0.0197625,-0.247587,-0.258976,0
-0.479783,-0.402844,0.023288,0.0042161,-0.268784,-0.27775,0
-0.571058,-0.0519278,0.00198707,0.0163767,-0.23532,-0.282482,0
-0.417975,0.234929,0.0668249,0.0581312,-0.176367,-0.26869,0
-0.184173,0.274105,0.273491,0.12734,-0.126188,-0.197613,0
0.060219,0.260135,0.506007,0.177245,-0.096222,-0.115631,0
0.29352,0.207067,0.695907,0.195119,-0.0906285,-0.0543778,0
0.478602,0.138262,0.790464,0.18031,-0.0817787,-0.0109957,0
0.583034,-0.0320401,0.785046,0.168017,-0.0702671,-0.00526583,0
0.591422,-0.280821,0.823652,0.17562,-0.0442936,0.00451458,0
0.493277,-0.560106,0.850327,0.149313,-0.0134006,-0.0164784,0
0.347987,-0.662647,0.812313,0.0879946,0.0211478,-0.0871807,0
0.262233,-0.356721,0.727834,0.0280645,0.0441967,-0.16541,0
0.265149,0.168301,0.622536,-0.0131551,0.080653,-0.198514,0
0.350757,0.661615,0.595556,0.0124646,0.121192,-0.162308,0
0.502432,0.770755,0.709717,0.0745667,0.171179,-0.079812,0
0.708293,0.630341,0.970842,0.112194,0.222812,0.0143237,0
0.942358,0.462813,1.18908,0.0875039,0.257767,0.102091,0
1.1609,0.373659,1.24348,0.0272503,0.253012,0.15721,0
1.27542,0.252607,1.19664,-0.0142535,0.231749,0.196885,0
1.22595,0.204221,1.08459,-0.03473,0.194541,0.233153,0
1.02958,0.167742,0.927837,-0.0423429,0.178066,0.266618,0
0.749345,0.139454,0.781601,-0.0345687,0.158579,0.272865,0
0.437651,0.123474,0.624838,-0.0451031,0.133067,0.263252,0
0.156071,0.156269,0.392671,-0.0737741,0.0944628,0.231038,0
-0.0738475,0.219944,0.152378,-0.0762631,0.0689274,0.199092,0
-0.279116,0.285265,-0.079307,-0.0764077,0.0505366,0.175618,0
-0.521132,0.191278,-0.290721,-0.0569211,0.0461624,0.163078,0
-0.79838,-0.00108632,-0.448336,-0.0318423,0.0283474,0.123103,0
-0.985892,-0.174511,-0.538739,-0.0144544,0.0169318,0.0191119,0
-1.01459,-0.0571335,-0.519744,-0.00143093,-0.00806797,-0.118997,0
-0.94331,0.0899636,-0.460547,-0.0124509,-0.0336614,-0.237483,0
-0.84891,0.262589,-0.485115,-0.0748381,-0.0152301,-0.287777,0
-0.846585,0.30774,-0.555611,-0.0967225,-0.0445753,-0.281675,0
-0.924884,0.298583,-0.633977,-0.098967,-0.0685696,-0.26316,0
-0.904921,0.410887,-0.637923,-0.101334,-0.062853,-0.26945,0
-0.741197,0.520529,-0.570064,-0.0898056,-0.0396369,-0.247864,0
-0.48832,0.479421,-0.431814,-0.055511,-0.0227925,-0.19626,0
-0.180465,0.341633,-0.240409,-0.0340133,-0.00828466,-0.133004,0
0.118654,0.175095,-0.0618811,-0.0525913,0.00509071,-0.0630931,0
0.338804,-0.0186126,0.0621293,-0.0991865,0.00776765,0.00203401,0
0.457419,-0.200782,0.0705344,-0.162675,-0.00150901,0.0510281,0
0.49031,-0.386118,-0.0532272,-0.214488,-0.00948524,0.0750914,0
0.49031,-0.386118,-0.0532272,-0.214488,-0.00948524,0.0750914,0
0.450561,-0.5064,-0.272377,-0.258408,-0.00391948,0.0836547,0
0.305228,-0.525106,-0.535636,-0.289637,0.020124,0.0955144,0
0.113104,-0.465158,-0.784926,-0.291602,0.0465803,0.099407,0
-0.00333181,-0.326995,-0.999516,-0.270947,0.0758873,0.0884262,0
-0.0251659,-0.182839,-1.15662,-0.23032,0.114462,0.0899876,0
-0.0259402,-0.109845,-1.22913,-0.185477,0.146836,0.124198,0
-0.0276958,-0.130039,-1.26003,-0.138976,0.15409,0.166304,0
-0.0107984,-0.205341,-1.28393,-0.0999091,0.144049,0.186002,0
-0.00508007,-0.270465,-1.29452,-0.0740876,0.137508,0.203659,0
-0.0678561,-0.289804,-1.29054,-0.0619108,0.127351,0.224569,0
-0.197039,-0.272387,-1.27672,-0.0383548,0.098488,0.235735,0
-0.389383,-0.249262,-1.27755,-0.0231161,0.070958,0.242106,0
-0.606068,-0.283053,-1.27839,-0.0115604,0.044887,0.222003,0
-0.760512,-0.358164,-1.25207,0.00100093,0.0223262,0.163217,0
-0.754569,-0.29787,-1.18794,0.025477,-0.00207865,0.0684944,0
-0.630227,-0.246315,-1.05283,0.0634428,-0.00811011,-0.000149667,0
-0.432104,-0.226284,-0.840615,0.107637,-0.0382135,-0.057573,0
-0.199039,-0.171321,-0.615667,0.128954,-0.0724661,-0.123917,0
0.027328,-0.204223,-0.41368,0.12849,-0.0955707,-0.163259,0
0.146085,-0.185234,-0.233322,0.146647,-0.136956,-0.19455,0
0.0413255,-0.136481,-0.106507,0.158747,-0.189309,-0.185947,0
-0.346584,-0.452239,-0.120753,0.120727,-0.211492,-0.150741,0
-0.836998,-0.972258,-0.24807,0.0635154,-0.260021,-0.229704,0
-1.02307,-1.14424,-0.413813,0.0437269,-0.269679,-0.464492,0
-0.717489,-0.648176,-0.498507,0.0458049,-0.189522,-0.706334,0
-0.180113,0.189955,-0.323766,0.0934156,-0.0573435,-0.720936,0
0.260067,0.768553,0.0526078,0.18639,0.014324,-0.528469,0
0.543335,0.917171,0.459609,0.243835,0.0190573,-0.280714,0
0.765675,0.847451,0.803935,0.242097,0.0195349,-0.0659074,0
0.985401,0.710793,1.0568,0.207505,0.0361806,0.087092,0
1.13066,0.568029,1.22547,0.179543,0.0538457,0.211828,0
1.09163,0.342405,1.3306,0.174355,0.0677668,0.316134,0
0.900331,0.0337204,1.4107,0.197431,0.066516,0.36838,0
0.63352,-0.3026,1.45272,0.211921,0.0583047,0.366002,0
0.336756,-0.584328,1.46559,0.217196,0.073275,0.318286,0
0.0965356,-0.708149,1.50378,0.227818,0.10916,0.21857,0
-0.0394863,-0.689515,1.55563,0.230587,0.146933,0.096127,0
-0.0931614,-0.656797,1.61269,0.233069,0.171594,-0.0111226,0
-0.0288521,-0.703184,1.69535,0.246532,0.182727,-0.112917,0
0.241389,-0.656182,1.78992,0.260244,0.198347,-0.220956,0
0.638652,-0.399384,1.91075,0.246868,0.234828,-0.276452,0
0.958764,-0.0743601,2.03588,0.214433,0.268864,-0.224038,0
1.10494,0.135529,2.07808,0.173904,0.255053,-0.110627,0
1.08244,0.159206,1.97678,0.132896,0.213492,0.0118068,0
0.965859,0.145229,1.77025,0.10351,0.174662,0.0815896,0
0.804581,0.147834,1.53959,0.0972369,0.15512,0.120944,0
0.634893,0.172832,1.29916,0.0998765,0.134952,0.129124,0
0.463798,0.18759,1.05731,0.0961796,0.124581,0.120562,0
0.312359,0.140718,0.810031,0.0944573,0.120636,0.0953752,0
0.230281,0.236885,0.554018,0.0826057,0.117502,0.0373758,0
0.12291,0.47713,0.272572,0.0573654,0.124774,0.0119901,0
0.12291,0.47713,0.272572,0.0573654,0.124774,0.0119901,0
-0.0596169,0.827676,0.00811954,0.0315535,0.134717,0.0357092,0
-0.29964,1.01838,-0.172828,0.0296485,0.144252,0.0938823,0
-0.511098,1.06968,-0.226875,0.0507153,0.120548,0.129449,0
-0.660584,0.93914,-0.247714,0.0613639,0.0758682,0.133154,0
-0.730469,0.73562,-0.255141,0.0345915,0.0258444,0.10012,0
-0.768976,0.572787,-0.288823,-0.00948577,-0.0189565,0.0385962,0
-0.802686,0.501846,-0.30895,-0.0335446,-0.0913371,-0.0259977,0
-0.930336,0.227968,-0.370612,-0.0800716,-0.145695,-0.0847386,0
-1.12492,-0.0200269,-0.52633,-0.149003,-0.151124,-0.16301,0
-1.20356,0.0475421,-0.659485,-0.175656,-0.152741,-0.281955,0
-1.07665,0.423298,-0.724003,-0.180166,-0.119037,-0.370291,0
-0.750218,0.791653,-0.576879,-0.0968324,-0.0803063,-0.360816,0
-0.38459,0.75558,-0.277605,0.0169945,-0.0617313,-0.24583,0
-0.114391,0.348313,0.0863971,0.0916915,-0.0570764,-0.119213,0
0.111363,-0.108485,0.441777,0.103295,-0.0448944,-0.0440874,0
0.32381,-0.33127,0.691738,0.0397324,-0.0217118,-0.024623,0
0.474595,-0.37008,0.822512,-0.0272888,-0.0167588,-0.016205,0
0.547348,-0.359999,0.849732,-0.0748709,-0.0131,0.00457096,0
0.507696,-0.428996,0.775995,-0.113888,0.00295712,0.0421441,0
0.424386,-0.476901,0.634708,-0.136164,0.00717317,0.0536222,0
0.356322,-0.540677,0.453034,-0.134568,0.0227219,0.0518177,0
0.320932,-0.536859,0.288904,-0.0989431,0.0449422,0.0409933,0
0.276851,-0.485639,0.185389,-0.0487006,0.0770823,0.0457935,0
0.247823,-0.379206,0.133942,-8.08835e-05,0.0995533,0.0477168,0
0.274989,-0.245369,0.117122,0.0347669,0.119409,0.0555214,0
0.314307,-0.124836,0.0983464,0.0555662,0.131198,0.087406,0
0.31899,-0.0428694,0.0675984,0.077857,0.120315,0.14462,0
0.250785,0.0325803,-0.0104074,0.0872801,0.104611,0.205615,0
0.082489,0.0698902,-0.132881,0.0928392,0.0884152,0.258231,0
-0.136225,0.079089,-0.268026,0.111014,0.070232,0.275202,0
-0.311591,0.1222,-0.372817,0.145427,0.0648864,0.249765,0
-0.431389,0.189564,-0.401142,0.175913,0.0800224,0.205169,0
-0.45852,0.27999,-0.341977,0.208557,0.0886633,0.151117,0
-0.450444,0.324367,-0.177423,0.236533,0.094399,0.108141,0
-0.411036,0.376489,0.0551211,0.234759,0.0697353,0.0625188,0
-0.357075,0.399992,0.212831,0.181639,0.0176387,0.0176564,0
-0.331229,0.426253,0.233794,0.107331,-0.0471233,-0.0229135,0
-0.391829,0.460275,0.136978,0.051143,-0.107143,-0.0407195,0
-0.573107,0.434265,0.0312947,0.035607,-0.146662,-0.0460718,0
-0.796729,0.380733,0.0332631,0.0868039,-0.153292,-0.0758374,0
-0.883111,0.429753,0.179635,0.138314,-0.136737,-0.153193,0
-0.746139,0.564541,0.423526,0.176402,-0.120826,-0.236642,0
-0.434547,0.726211,0.748728,0.223194,-0.115248,-0.266253,0
-0.162195,0.766523,1.07537,0.260618,-0.136789,-0.208651,0
-0.158521,0.369451,1.34986,0.31163,-0.173474,-0.105914,0
-0.305725,-0.248234,1.65602,0.355617,-0.199343,-0.090317,0
-0.399151,-0.833663,1.89152,0.297756,-0.186398,-0.231843,0
-0.135593,-0.737463,2.04537,0.197201,-0.103414,-0.477087,0
0.368326,-0.218402,2.20551,0.169709,-0.0382927,-0.588288,0
0.83515,0.310599,2.36139,0.152797,0.0266693,-0.507319,0
0.83515,0.310599,2.36139,0.152797,0.0266693,-0.507319,0
1.07721,0.542428,2.5121,0.160331,0.0553468,-0.275558,0
1.13889,0.599685,2.62755,0.150643,0.0863016,-0.0518012,0
1.14133,0.616175,2.70015,0.142072,0.112555,0.103788,0
1.0565,0.464818,2.7782,0.162376,0.136486,0.221717,0
0.916532,0.149602,2.90994,0.198846,0.158951,0.27808,0
0.741463,-0.263362,2.98201,0.222768,0.149848,0.273859,0
0.55452,-0.686193,2.94845,0.231061,0.127869,0.208857,0
0.393313,-1.02492,2.83067,0.209424,0.127148,0.0874364,0
0.235761,-1.3593,2.66559,0.183348,0.146513,-0.0607547,0
0.294904,-1.42682,2.47253,0.20758,0.140933,-0.266735,0
0.684213,-0.891273,2.29304,0.225601,0.171269,-0.475973,0
1.1747,-0.0501668,2.28439,0.251354,0.259973,-0.499715,0
1.49495,0.505501,2.43221,0.285781,0.334414,-0.315764,0
1.58716,0.602564,2.53878,0.30057,0.32249,-0.0769363,0
1.54069,0.46393,2.50436,0.266229,0.288177,0.0922109,0
1.40681,0.340558,2.32007,0.213219,0.249499,0.177888,0
1.19865,0.287679,2.00258,0.177973,0.200274,0.203958,0
0.96032,0.310133,1.60768,0.169645,0.162596,0.205129,0
0.696033,0.361545,1.23177,0.182752,0.162995,0.189251,0
0.467101,0.439372,0.970016,0.217564,0.188388,0.16058,0
0.333101,0.527029,0.822296,0.246233,0.231423,0.0974305,0
0.297816,0.684616,0.778562,0.249981,0.264069,0.0317355,0
0.272599,0.803941,0.784674,0.221906,0.276717,-0.00667173,0
0.237091,0.85808,0.74868,0.15015,0.263828,-0.0231574,0
0.154869,0.914252,0.590952,0.0506095,0.236402,-0.033801,0
-0.031381,0.935458,0.31962,-0.0464791,0.209191,-0.0353725,0
-0.270012,1.01797,0.0474475,-0.11171,0.174949,-0.0539941,0
-0.548201,1.05143,-0.119489,-0.150326,0.129741,-0.0735512,0
-0.852407,0.998663,-0.295428,-0.203518,0.102069,-0.0994439,0
-1.11363,1.11257,-0.52465,-0.248855,0.0601197,-0.145918,0
-1.32406,1.25399,-0.74173,-0.269725,0.00978032,-0.178299,0
-1.42017,1.30177,-0.793997,-0.236929,-0.0122216,-0.19783,0
-1.28395,1.25745,-0.648489,-0.178894,-0.0176857,-0.226714,0
-0.974118,1.09716,-0.402974,-0.149534,-0.000966907,-0.224444,0
-0.554181,0.77326,-0.0814477,-0.116949,-0.00422418,-0.192029,0
-0.0704236,0.415201,0.264764,-0.104873,-0.00763866,-0.147179,0
0.370504,0.212502,0.527185,-0.150115,-0.00834334,-0.0785789,0
0.662575,0.0604009,0.671283,-0.203117,-0.0308265,0.010176,0
0.744657,-0.155172,0.658528,-0.251479,-0.0607092,0.102323,0
0.670196,-0.48924,0.500486,-0.276832,-0.0826952,0.162593,0
0.504311,-0.831433,0.211671,-0.294463,-0.0949751,0.168481,0
0.267974,-1.02547,-0.203431,-0.324216,-0.0879139,0.144328,0
-0.0804784,-1.10225,-0.686881,-0.320126,-0.0736704,0.113303,0
-0.456536,-0.972951,-1.14784,-0.256053,-0.0614553,0.0417659,0
-0.763918,-0.625966,-1.48764,-0.19656,-0.00722146,-0.0344778,0
-0.868774,-0.258659,-1.62898,-0.113499,0.0649046,-0.101256,0
-0.669571,0.0203119,-1.55052,-0.00955944,0.114003,-0.151801,0
-0.252487,0.241551,-1.37786,0.0543831,0.144024,-0.156439,0
0.156365,0.303643,-1.20878,0.0838486,0.148862,-0.0788226,0
0.390803,0.202654,-1.08573,0.0937889,0.118069,0.0460997,0
0.454729,0.123942,-1.06473,0.0859967,0.0813515,0.154842,0
0.454729,0.123942,-1.06473,0.0859967,0.0813515,0.154842,0
0.366728,0.135235,-1.10851,0.0729804,0.0634079,0.232118,0
0.167002,0.168974,-1.13899,0.0753698,0.051894,0.280852,0
-0.0546092,0.175627,-1.11178,0.0958286,0.0314087,0.291514,0
-0.214307,0.117372,-1.03389,0.112045,0.00479981,0.257515,0
-0.232608,0.0868907,-0.910981,0.116455,-0.0102782,0.191692,0
-0.14366,0.103562,-0.802028,0.112052,-0.0269166,0.12834,0
-0.052415,0.132512,-0.69398,0.116633,-0.0533758,0.0986968,0
-0.0717313,0.0994754,-0.584514,0.127121,-0.0843009,0.105449,0
-0.178622,-0.0252869,-0.472931,0.131644,-0.107412,0.0889515,0
-0.279636,-0.135912,-0.393339,0.120301,-0.127418,0.0238419,0
-0.384015,-0.13601,-0.342541,0.0932757,-0.129509,-0.0529304,0
-0.445507,0.0615033,-0.309219,0.0821143,-0.148988,-0.141746,0
-0.406079,0.370846,-0.286482,0.102159,-0.172367,-0.20302,0
-0.298752,0.645845,-0.194931,0.161166,-0.180039,-0.204194,0
-0.224375,0.979767,-0.01363,0.207261,-0.184297,-0.160928,0
-0.366364,1.06022,0.140617,0.23767,-0.219231,-0.0738296,0
-0.650753,0.488357,0.269071,0.278068,-0.265683,-0.0320127,0
-0.778403,-0.21669,0.382018,0.29344,-0.284564,-0.164958,0
-0.572194,-0.51771,0.568861,0.256322,-0.201203,-0.394742,0
-0.0571836,-0.231097,0.805685,0.205208,-0.0906452,-0.573382,0
0.483952,0.242145,1.05409,0.166757,-0.00409256,-0.582934,0
0.877906,0.603563,1.34481,0.149269,0.0497981,-0.459354,0
1.20866,0.874886,1.6256,0.102342,0.0964903,-0.280113,0
1.48603,0.991146,1.80991,0.0312256,0.145788,-0.0805692,0
1.60287,0.911252,1.91464,-0.0194969,0.167955,0.125413,0
1.46091,0.552582,1.93828,-0.0476855,0.163433,0.296245,0
1.11131,0.0257711,1.83215,-0.0728725,0.12078,0.370058,0
0.665066,-0.496312,1.53733,-0.103161,0.0668764,0.343446,0
0.205767,-0.889669,1.05615,-0.138496,0.0347764,0.250624,0
-0.205416,-0.972352,0.552293,-0.133991,0.0560937,0.104901,0
-0.426213,-0.719127,0.177232,-0.0697211,0.113487,-0.0632033,0
-0.347092,-0.166595,0.0928738,0.0417514,0.201688,-0.206287,0
-0.0677203,0.320761,0.364011,0.145866,0.318621,-0.225024,0
0.280242,0.545622,0.823837,0.208643,0.377908,-0.137979,0
0.607952,0.550659,1.21806,0.200394,0.376266,-0.00691044,0
0.827279,0.431114,1.42774,0.12585,0.348397,0.133806,0
0.879691,0.313378,1.46887,0.0367986,0.321055,0.247791,0
0.765756,0.228259,1.38655,-0.029749,0.291624,0.328728,0
0.548726,0.152532,1.22218,-0.0637669,0.249086,0.37278,0
0.300317,0.0813309,1.01929,-0.0719214,0.202204,0.384611,0
0.0827134,0.00358509,0.811364,-0.0579769,0.149705,0.362247,0
-0.131546,-0.104624,0.624809,-0.0425332,0.108426,0.324165,0
-0.317339,-0.186809,0.470012,-0.018149,0.0553719,0.267007,0
-0.507412,-0.266035,0.294925,-0.0243655,0.0123667,0.199523,0
-0.691814,-0.250062,0.0534416,-0.0568302,-0.036389,0.101463,0
-0.960697,-0.250637,-0.34071,-0.127484,-0.0971833,0.00438356,0
-1.33643,-0.237232,-0.761497,-0.141636,-0.161849,-0.0977954,0
-1.62936,-0.229185,-1.05779,-0.0943153,-0.202563,-0.247641,0
-1.58438,0.0435681,-1.21704,-0.0823787,-0.131125,-0.412678,0
-1.2908,0.417078,-1.18618,-0.0709316,-0.0414792,-0.494261,0
-1.2908,0.417078,-1.18618,-0.0709316,-0.0414792,-0.494261,0
-0.991088,0.59184,-1.01531,-0.0103973,-0.0289454,-0.469796,0
-0.795776,0.542721,-0.840252,0.0373721,-0.0627803,-0.386335,0
-0.682397,0.453112,-0.679923,0.0516335,-0.0801803,-0.325993,0
-0.552952,0.356413,-0.445421,0.0571123,-0.0654509,-0.307229,0
-0.271634,0.246324,-0.141429,0.0587676,-0.0451877,-0.318237,0
0.177033,0.153378,0.196385,0.0308641,-0.0192092,-0.317844,0
0.667165,0.176369,0.417347,-0.0578309,-0.00223219,-0.257493,0
1.02041,0.232901,0.47997,-0.149155,0.00206175,-0.126934,0
1.19968,0.20058,0.418684,-0.209253,-0.000920862,0.0255656,0
1.19536,0.0231349,0.245338,-0.251497,0.00233912,0.158225,0
1.02196,-0.257121,-0.00502278,-0.279295,0.00351515,0.244301,0
0.761111,-0.505891,-0.339389,-0.296887,0.0123041,0.267388,0
0.439711,-0.575931,-0.762135,-0.317659,0.026806,0.253443,0
0.060488,-0.439579,-1.21918,-0.319756,0.0491518,0.222207,0
-0.260662,-0.226916,-1.56323,-0.267804,0.0919331,0.172462,0
-0.361599,-0.0577007,-1.72696,-0.199411,0.148603,0.118773,0
-0.250571,0.0627242,-1.75313,-0.132937,0.20286,0.079602,0
-0.0367562,0.184683,-1.67781,-0.0643205,0.217833,0.0682933,0
0.161049,0.242879,-1.50942,-0.020629,0.228149,0.105395,0
0.265344,0.162826,-1.32195,0.00375886,0.204402,0.174233,0
0.258669,0.0126282,-1.19734,0.00878309,0.151028,0.23122,0
0.110758,-0.101166,-1.18445,-0.0100482,0.104325,0.258923,0
-0.133973,-0.122888,-1.22193,-0.00634905,0.0572726,0.255549,0
-0.400181,-0.120281,-1.2369,0.0178043,0.0215952,0.224164,0
-0.559899,-0.100784,-1.1971,0.0528485,-0.00378448,0.145564,0
-0.518459,-0.063474,-1.03668,0.108434,-0.0194826,0.0438697,0
-0.295219,-0.0141467,-0.749184,0.157342,-0.022745,-0.0413506,0
-0.0308891,0.0139178,-0.421956,0.183714,-0.0453092,-0.0769511,0
0.161677,0.0572116,-0.128125,0.179082,-0.0814037,-0.0724941,0
0.155312,0.0331992,0.0425171,0.133126,-0.125589,-0.034232,0
0.0107892,0.0165907,0.0900443,0.0793533,-0.181048,-0.03039,0
-0.172929,0.121941,-0.016108,0.00689743,-0.228108,-0.0704834,0
-0.351681,0.218481,-0.225794,-0.0190945,-0.275535,-0.114046,0
-0.585582,-0.0545587,-0.442601,0.00916752,-0.287098,-0.141407,0
-0.752388,-0.337717,-0.547135,0.06742,-0.278443,-0.247507,0
-0.709911,-0.325943,-0.52384,0.0947142,-0.21993,-0.407992,0
-0.43227,0.0345668,-0.413563,0.0931666,-0.13631,-0.521533,0
-0.0664048,0.42628,-0.208765,0.111444,-0.0703801,-0.51593,0
0.242089,0.546582,0.0602615,0.144233,-0.0292218,-0.405587,0
0.552886,0.535569,0.376274,0.163004,-0.00200699,-0.294391,0
0.874991,0.547539,0.659483,0.118648,0.0513537,-0.183199,0
1.12731,0.631845,0.879783,0.0621547,0.0945141,-0.0531353,0
1.23962,0.61286,1.0406,0.0264654,0.119089,0.0942526,0
1.19607,0.432478,1.15831,0.0189924,0.13149,0.223747,0
1.0383,0.130699,1.23491,0.0213894,0.132209,0.292183,0
0.770759,-0.119627,1.22531,0.00118616,0.131129,0.313165,0
0.358272,-0.331519,1.15482,-0.0122367,0.127916,0.316355,0
-0.0913586,-0.542873,1.01177,-0.0298319,0.119986,0.273757,0
-0.409528,-0.751638,0.777207,-0.0492215,0.119741,0.148277,0
-0.568725,-0.910264,0.564966,-0.0263865,0.137083,0.00248545,0
-0.530456,-0.832087,0.461236,0.0238296,0.162074,-0.159294,0
-0.26142,-0.470551,0.52176,0.0584102,0.231118,-0.266967,0
0.102415,-0.0411383,0.758568,0.0948247,0.301895,-0.258666,0
0.409979,0.265734,1.0697,0.106869,0.328706,-0.137676,0
0.580269,0.342153,1.23119,0.0693,0.293787,0.0305348,0
0.577819,0.251965,1.21611,0.0144997,0.242784,0.178209,0
0.440727,0.169426,1.09634,-0.0191115,0.192809,0.272798,0
0.226076,0.0675029,0.90354,-0.0327171,0.150884,0.325332,0
-0.00567601,-0.0813509,0.684423,-0.0303469,0.114935,0.332843,0
-0.226493,-0.264787,0.489786,-0.0167829,0.0843194,0.307232,0
-0.373505,-0.353988,0.332461,-0.000500813,0.0580389,0.224264,0
-0.435948,-0.285571,0.175992,-0.0079546,0.0462508,0.127042,0
-0.455979,-0.120346,-0.00271532,-0.0258067,0.0238568,0.0528947,0
-0.537097,-0.0571549,-0.203696,-0.020247,-0.0116758,0.0230589,0
-0.678215,-0.0841456,-0.407923,-0.0253578,-0.0467288,-0.0048064,0
-0.843015,-0.111063,-0.629648,-0.0444045,-0.0665217,-0.0666826,0
-0.941282,-0.068731,-0.801791,-0.0336263,-0.0830528,-0.159404,0
-0.884822,0.0621994,-0.856571,0.00326251,-0.0833285,-0.256835,0
-0.633957,0.283355,-0.7609,0.0284927,-0.0667292,-0.341135,0
-0.375594,0.333386,-0.616268,0.0272592,-0.0862363,-0.360305,0
-0.245107,0.190611,-0.573751,-0.0299771,-0.100148,-0.32842,0
-0.149246,0.115292,-0.634602,-0.0915509,-0.114858,-0.314531,0
-0.0598119,0.217143,-0.758488,-0.129441,-0.114661,-0.308473,0
0.0741743,0.454336,-0.813032,-0.123069,-0.0981021,-0.278893,0
0.201595,0.514507,-0.757109,-0.0985041,-0.049623,-0.179525,0
0.273981,0.321532,-0.640382,-0.074942,-0.0303384,-0.0716838,0
0.273981,0.321532,-0.640382,-0.074942,-0.0303384,-0.0716838,0
0.335029,0.0409832,-0.559201,-0.0843861,-0.0255157,-0.00854588,0
0.377938,-0.149945,-0.562783,-0.128979,-0.0140299,0.0119081,0
0.429355,-0.153665,-0.607357,-0.173502,0.012428,0.02135,0
0.498516,-0.0823836,-0.65579,-0.187433,0.0468171,0.0505659,0
0.572258,-0.0530603,-0.692134,-0.178626,0.0685485,0.0976932,0
0.593027,-0.183929,-0.731448,-0.170686,0.0802114,0.15073,0
0.533696,-0.497826,-0.80118,-0.176671,0.0928255,0.17818,0
0.401692,-0.820627,-0.95225,-0.195393,0.0955275,0.154788,0
0.256597,-0.972448,-1.18733,-0.235765,0.114192,0.0788373,0
0.189877,-0.968615,-1.41965,-0.23895,0.152151,-0.00315571,0
0.161144,-0.814379,-1.61585,-0.203361,0.194905,-0.0548123,0
0.105993,-0.517419,-1.74293,-0.153826,0.228307,-0.0611754,0
-0.0149623,-0.151982,-1.81261,-0.104303,0.25021,-0.0267378,0
-0.132,0.0546647,-1.77324,-0.0386859,0.255921,0.0349599,0
-0.120874,0.0801389,-1.64043,0.0260886,0.23514,0.075457,0
-0.0261759,0.0136792,-1.49199,0.0600225,0.205512,0.117541,0
0.0250779,-0.0739613,-1.34112,0.0842746,0.161048,0.170921,0
-0.0558276,-0.140587,-1.23532,0.0929682,0.113265,0.223664,0
-0.248206,-0.149715,-1.20891,0.0996276,0.0599772,0.255709,0
-0.535395,-0.105108,-1.23154,0.11468,0.0130903,0.262171,0
-0.84782,-0.0606604,-1.20177,0.15027,-0.0113173,0.238422,0
-1.02192,0.0131542,-1.11072,0.180918,-0.0256173,0.149493,0
-0.980597,0.03161,-0.930634,0.229516,-0.0344827,0.0458974,0
-0.756944,0.0578884,-0.621314,0.284272,-0.0367989,-0.0522069,0
-0.442176,0.0706087,-0.207445,0.315193,-0.0337311,-0.105181,0
-0.124477,0.0598176,0.231434,0.325756,-0.0461707,-0.11766,0
0.078012,0.116375,0.58707,0.303154,-0.0778196,-0.101167,0
0.125624,0.227866,0.829322,0.236062,-0.105965,-0.0637815,0
0.0673887,0.248918,0.959856,0.176859,-0.141152,-0.0287846,0
0.040288,0.210189,1.01624,0.1307,-0.164907,-0.0433157,0
0.053935,0.200876,1.0108,0.0841956,-0.167342,-0.0807312,0
0.0789155,0.36498,0.965479,0.0582095,-0.172873,-0.112797,0
0.0535031,0.440924,0.860547,0.0527025,-0.18857,-0.110403,0
-0.0995729,0.213452,0.804271,0.0733443,-0.159914,-0.0757835,0
-0.327508,-0.100483,0.795449,0.0906764,-0.137749,-0.118067,0
-0.434962,-0.241678,0.811701,0.0908482,-0.103327,-0.25381,0
-0.299094,-0.0879757,0.84335,0.0737776,-0.0418099,-0.404502,0
0.0212867,0.227986,0.945538,0.0527254,0.0323872,-0.472278,0
0.366453,0.473121,1.14638,0.0454799,0.108284,-0.42694,0
0.620308,0.516901,1.38005,0.0513066,0.134793,-0.295164,0
0.827177,0.491749,1.55574,0.0196765,0.149279,-0.163851,0
0.962934,0.431769,1.67458,-0.0253911,0.176932,-0.0333185,0
1.02302,0.361594,1.78323,-0.0534489,0.195519,0.0801736,0
1.03343,0.323094,1.83682,-0.082219,0.207529,0.169722,0
0.953605,0.263435,1.80335,-0.116274,0.210512,0.255837,0
0.771269,0.109019,1.7024,-0.128798,0.192947,0.324402,0
0.520364,-0.141917,1.55211,-0.124549,0.171002,0.358471,0
0.232563,-0.427668,1.33018,-0.115934,0.146791,0.343596,0
-0.0680666,-0.704348,1.04372,-0.100371,0.115744,0.28528,0
-0.354245,-0.873252,0.751279,-0.0583664,0.102815,0.180488,0
-0.683986,-0.940221,0.455987,-0.0256406,0.112319,0.0581608,0
-1.00087,-0.882461,0.160097,0.0221932,0.103755,-0.0883341,0
-1.05579,-0.603097,0.00213617,0.091977,0.13527,-0.284538,0
-0.731391,-0.165333,0.079746,0.168296,0.214478,-0.447917,0
-0.731391,-0.165333,0.079746,0.168296,0.214478,-0.447917,0
-0.19627,0.240869,0.414382,0.24955,0.286597,-0.474519,0
0.341462,0.460637,0.821762,0.27148,0.312402,-0.379637,0
0.707609,0.427754,1.07826,0.218496,0.28196,-0.218536,0
0.815598,0.281581,1.13088,0.136205,0.232685,-0.0593846,0
0.767063,0.214285,1.02467,0.0563727,0.186024,0.0255045,0
0.636221,0.185438,0.825117,0.00188787,0.160259,0.0703214,0
0.423211,0.0663078,0.589556,-0.0334627,0.133113,0.0815139,0
0.217445,-0.00910606,0.299393,-0.0883554,0.131814,0.0548857,0
0.175385,0.10355,-0.06914,-0.138548,0.123933,-0.0225266,0
0.186001,0.342381,-0.477637,-0.142943,0.113591,-0.0430286,0
0.0456114,0.602118,-0.771494,-0.101002,0.13121,0.0191422,0
-0.204032,0.819014,-0.901727,-0.0444254,0.14094,0.0943354,0
-0.398699,0.842781,-0.917456,-0.00176945,0.131883,0.115182,0
-0.392528,0.740562,-0.873171,0.0194399,0.105154,0.0742646,0
-0.244984,0.703396,-0.798963,0.0171694,0.0945948,0.0241454,0
-0.124038,0.715162,-0.691095,-0.00256627,0.0923765,0.026626,0
-0.120455,0.696544,-0.596135,-0.021484,0.0737138,0.0649749,0
-0.184646,0.631348,-0.547691,-0.0295338,0.0419459,0.095621,0
-0.283819,0.522873,-0.493667,-0.0297959,0.0255028,0.0995896,0
-0.451628,0.29157,-0.409138,-0.021205,0.0169399,0.103546,0
-0.628848,-0.0154441,-0.322815,-0.0232889,0.00312269,0.0674238,0
-0.713722,-0.225274,-0.235567,-0.0434332,0.00985843,-0.0364214,0
-0.567324,-0.199744,-0.113224,-0.0401845,0.0214892,-0.162877,0
-0.147831,0.0907146,0.0752652,-0.0194589,0.0391518,-0.25079,0
0.272829,0.246274,0.337951,0.0058466,0.0653337,-0.185031,0
0.489465,0.147674,0.577897,0.0189047,0.0368671,-0.0299314,0
0.512566,-0.0753378,0.658075,-0.0134171,-0.00556952,0.0993361,0
0.395568,-0.236592,0.60953,-0.043287,-0.0509057,0.161964,0
0.219767,-0.248828,0.448222,-0.075266,-0.077549,0.171448,0
-0.0125265,-0.173359,0.211021,-0.0859343,-0.111334,0.165233,0
-0.253132,-0.101171,-0.0621465,-0.0794938,-0.126366,0.151665,0
-0.497293,-0.0717967,-0.333676,-0.0593863,-0.132118,0.125073,0
-0.68196,-0.119595,-0.579768,-0.0185776,-0.131075,0.0687363,0
-0.808338,-0.240156,-0.77202,0.0187217,-0.103082,-0.0131729,0
-0.835608,-0.315768,-0.860024,0.0733526,-0.0652621,-0.116177,0
-0.678619,-0.183743,-0.778755,0.139558,-0.00331876,-0.234995,0
-0.345198,0.112829,-0.537235,0.195667,0.0543258,-0.30258,0
0.0164726,0.444291,-0.193318,0.222709,0.0964052,-0.269585,0
0.254885,0.602942,0.153755,0.21674,0.102683,-0.154551,0
0.33015,0.490859,0.395972,0.178098,0.0780241,-0.023221,0
0.301295,0.287754,0.514204,0.128127,0.0415758,0.0536224,0
0.220382,0.141831,0.507741,0.0732484,0.00865337,0.0633912,0
0.124279,0.113573,0.438611,0.0317054,-0.00247359,0.0386143,0
0.0500141,0.176149,0.380968,0.0109461,0.00844574,0.00299299,0
0.0292875,0.262836,0.360475,-0.00110818,0.0323249,-0.0289506,0
0.0457971,0.292533,0.36255,-0.00339241,0.0472916,-0.038387,0
0.0704399,0.271466,0.374009,-0.00786945,0.0482965,-0.0374332,0
0.0753415,0.248155,0.381963,-0.013125,0.049951,-0.0242362,0
0.0406087,0.259297,0.381186,-0.0186421,0.0512514,-0.00634545,0
-0.0247394,0.264409,0.392341,-0.0250768,0.055484,0.0124431,0
-0.0633132,0.252843,0.404956,-0.0312939,0.0531457,0.0109805,0
-0.0795803,0.185578,0.412199,-0.039265,0.0517501,0.00921446,0
-0.079491,0.109414,0.421612,-0.0400396,0.0492209,0.00422871,0
-0.079491,0.109414,0.421612,-0.0400396,0.0492209,0.00422871,0
-0.0659725,0.032817,0.431973,-0.045463,0.0511176,-0.00225359,0
-0.052533,0.0158685,0.452126,-0.0442442,0.0480494,-0.0136434,0
-0.0370986,0.0421633,0.467797,-0.0522986,0.0424442,-0.0194777,0
-0.00485156,0.0309998,0.473496,-0.0578746,0.0348257,-0.0113618,0
0.0230238,-0.00937258,0.451582,-0.0632687,0.023481,0.00252438,0
0.0392093,-0.0470493,0.407897,-0.072312,0.0123176,0.0112021,0
0.0443561,-0.0500133,0.350132,-0.0798588,0.00724861,0.0212561,0
0.0318509,-0.0326152,0.265484,-0.0824319,-0.000871122,0.0320724,0
-0.0251114,-0.00679471,0.16139,-0.0810927,-0.0111081,0.0545806,0
-0.130629,-0.0208386,0.0477231,-0.0750833,-0.0168981,0.0721281,0
-0.212397,-0.049835,-0.0459403,-0.054297,-0.0272375,0.0611145,0
-0.253574,-0.0338811,-0.125025,-0.0429949,-0.0176783,0.0343603,0
-0.278483,-0.000669862,-0.167283,-0.0219973,-0.00933245,0.0142288,0
-0.296836,0.0222383,-0.180337,-0.000898272,-0.00446299,0.00274289,0
-0.291862,0.00194886,-0.164596,0.0179975,2.64645e-05,-0.0106527,0
-0.262665,-0.0112073,-0.133769,0.0271317,0.00282866,-0.0291497,0
-0.221547,-0.0068969,-0.0946338,0.0363626,0.00196046,-0.0415077,0
-0.192029,0.0187813,-0.040835,0.0464564,0.00649071,-0.0450093,0
-0.149733,0.07982,0.0459795,0.0544389,0.0107143,-0.0441639,0
-0.09957,0.067015,0.130038,0.0529664,0.0144348,-0.0255548,0
-0.0685817,-0.0214897,0.200334,0.0455875,0.0023711,0.000835299,0
-0.0868024,-0.141025,0.238165,0.0369384,-0.00893363,0.0159363,0
-0.117339,-0.153887,0.262047,0.0218069,-0.0135641,-0.00185007,0
-0.121267,-0.0819195,0.264732,0.00444812,-0.012727,-0.0344148,0
-0.108567,-0.0670184,0.26981,0.00389843,-0.0160695,-0.0394183,0
-0.0602848,-0.0762422,0.288211,0.00749178,-0.0201832,-0.0430751,0
-0.00980081,-0.113301,0.295292,0.00328046,-0.0189117,-0.0392147,0
0.0251322,-0.160967,0.315187,0.0146709,-0.0222236,-0.0185807,0
0.0117056,-0.231198,0.328215,0.0169015,-0.023811,-0.00226986,0
0.0203196,-0.203902,0.31362,0.00642833,-0.0275788,-0.0217445,0
0.0547222,-0.141062,0.289599,-0.00536859,-0.0191082,-0.0292698,0
0.0597799,-0.154094,0.26982,-0.00191207,-0.0193466,-0.00310963,0
0.0280776,-0.268215,0.240263,-0.00409292,-0.0163562,0.0237501,0
-0.0105353,-0.328277,0.162917,-0.0132633,-0.0195781,0.0134204,0
-0.0284709,-0.308643,0.0962854,0.00117888,-0.0177309,-0.00883549,0
0.0200298,-0.272541,0.100467,0.0296168,0.00567031,-0.0273727,0
0.0595909,-0.158509,0.126079,0.0536394,0.0205461,-0.0208668,0
0.0477082,-0.0407119,0.175239,0.0602514,0.0253459,0.0107994,0
0.0280946,-0.0335312,0.180368,0.0516265,0.018848,0.0442574,0
0.0290032,-0.0780967,0.168506,0.048496,0.0067046,0.0582339,0
0.0303196,-0.0920466,0.137392,0.0385828,0.00262225,0.0531617,0
0.00461305,-0.062552,0.0895452,0.0260087,0.00363404,0.0519589,0
-0.0643582,-0.0213211,0.0203918,0.0157189,-0.000965893,0.0499798,0
-0.134853,-0.0113087,-0.0513996,0.0146643,-0.000995189,0.0403818,0
-0.155289,-0.0137595,-0.111477,0.0140746,0.000307709,0.0102606,0
-0.146569,-0.00871145,-0.153383,0.0235353,0.00728393,-0.0250955,0
-0.131267,0.0234665,-0.146806,0.0348279,0.0197756,-0.0516403,0
-0.104991,0.0601432,-0.10234,0.0391235,0.0284331,-0.0717398,0
-0.021637,0.0899119,-0.0615528,0.0270116,0.0272824,-0.0972809,0
0.0818139,0.121425,-0.0480122,0.00176312,0.0274831,-0.0982459,0
0.148851,0.105792,-0.0381563,-0.0153652,0.026704,-0.0602705,0
0.173915,0.064012,-0.0464235,-0.0287358,0.0185101,-0.015827,0
0.156467,-0.000595636,-0.0773056,-0.0451461,0.0141602,0.0239207,0
0.1297,-0.0745006,-0.106364,-0.0457999,0.0069893,0.0511442,0
0.1297,-0.0745006,-0.106364,-0.0457999,0.0069893,0.0511442,0
0.0950583,-0.0917714,-0.164635,-0.050528,0.00161493,0.0631442,0
-0.00314977,-0.0815345,-0.236003,-0.0433145,-0.00329024,0.082702,0
-0.120429,-0.074712,-0.270383,-0.0238928,-0.0123829,0.0877317,0
-0.166319,-0.119969,-0.268103,-0.00165468,-0.00954702,0.0613668,0
-0.130944,-0.19868,-0.2322,0.0115373,-0.00528258,0.0223022,0
-0.0775992,-0.260865,-0.192434,0.0190177,-0.00948411,-0.00529081,0
-0.052781,-0.256544,-0.185868,0.00329448,-0.0105145,-0.026836,0
-0.0480127,-0.192388,-0.2276,-0.0167087,-0.0194679,-0.0404647,0
-0.037178,-0.154745,-0.28729,-0.0181943,-0.0287963,-0.0431691,0
-0.0272574,-0.176035,-0.320485,-0.00912686,-0.0262122,-0.0364097,0
-0.013418,-0.244219,-0.339544,-0.0070339,-0.020587,-0.0402762,0
0.0229805,-0.27424,-0.373282,-0.020974,-0.0180157,-0.0612551,0
0.0504728,-0.22189,-0.455767,-0.0452377,-0.0105755,-0.0765188,0
0.0659442,-0.114943,-0.537767,-0.0564364,-0.00369754,-0.0702643,0
0.0762293,-0.0634928,-0.61398,-0.0552492,0.00740343,-0.0389706,0
0.0832512,-0.0991275,-0.66103,-0.0504501,0.0207293,0.00503433,0
0.0807692,-0.177293,-0.701579,-0.0520833,0.0324643,0.0364202,0
0.0801826,-0.225842,-0.750757,-0.0666472,0.0467024,0.0460395,0
0.0625494,-0.23539,-0.81271,-0.0769217,0.0565084,0.051865,0
0.0452071,-0.210438,-0.886646,-0.097424,0.0696486,0.0592738,0
0.0219404,-0.200306,-0.965678,-0.107106,0.0819143,0.0768457,0
-0.00464416,-0.282991,-1.03616,-0.104613,0.0856049,0.104038,0
-0.0596497,-0.46503,-1.10818,-0.10656,0.0900191,0.115162,0
-0.129355,-0.612418,-1.18828,-0.115589,0.0970387,0.0987042,0
-0.178556,-0.653463,-1.29416,-0.126862,0.105396,0.0650793,0
-0.217515,-0.708548,-1.37871,-0.119594,0.116756,0.0501868,0
-0.303176,-0.958015,-1.41051,-0.0902592,0.12412,0.0554925,0
-0.40201,-1.31292,-1.45568,-0.0954838,0.122964,0.0122005,0
-0.458247,-1.48626,-1.54966,-0.123596,0.117373,-0.101646,0
-0.396833,-1.40456,-1.66846,-0.13502,0.126577,-0.20775,0
-0.279809,-1.17128,-1.8065,-0.15199,0.143015,-0.272455,0
-0.231964,-0.907729,-1.9239,-0.155633,0.166793,-0.25642,0
-0.22839,-0.67365,-2.01394,-0.147511,0.176793,-0.199151,0
-0.193457,-0.501197,-2.12534,-0.139793,0.182412,-0.12638,0
-0.159118,-0.428333,-2.24487,-0.128591,0.191328,-0.0417789,0
-0.168325,-0.434247,-2.32034,-0.0987112,0.2034,0.0359227,0
-0.248156,-0.597194,-2.34929,-0.0566533,0.204604,0.092704,0
-0.405544,-0.906369,-2.34093,0.00313444,0.193122,0.0997227,0
-0.536995,-1.0683,-2.26673,0.0514613,0.186532,0.00740033,0
-0.51753,-0.985172,-2.17036,0.064399,0.204909,-0.137237,0
-0.321451,-0.764664,-2.01632,0.0820139,0.220469,-0.271328,0
-0.00397808,-0.452008,-1.82831,0.0842878,0.22422,-0.346638,0
0.350851,-0.114126,-1.67149,0.0630129,0.21266,-0.338724,0
0.630309,0.124102,-1.56528,0.0345408,0.202132,-0.221973,0
0.733227,0.204885,-1.53112,0.00489046,0.18774,-0.0463328,0
0.667905,0.18451,-1.54765,-0.0194992,0.16756,0.0978406,0
0.501757,0.088279,-1.62977,-0.0430724,0.146506,0.179607,0
0.2871,-0.0565155,-1.75913,-0.0596168,0.129458,0.210389,0
0.0853769,-0.135673,-1.8859,-0.0562444,0.128013,0.185823,0
-0.0419615,-0.115492,-1.95623,-0.0409474,0.143687,0.123007,0
-0.0700558,-0.0382289,-1.93938,-0.0160302,0.172041,0.0477371,0
-0.0326863,0.0252081,-1.83796,0.0121987,0.1918,0.00185406,0
0.0458662,0.0885539,-1.6937,0.0302242,0.194801,-0.0298339,0
0.158174,0.12293,-1.5381,0.0316502,0.188192,-0.0570836,0
0.158174,0.12293,-1.5381,0.0316502,0.188192,-0.0570836,0
0.273689,0.154487,-1.41868,0.0183363,0.180501,-0.0656983,0
0.33177,0.205026,-1.27006,0.0111298,0.179901,-0.048254,0
0.34231,0.216241,-1.12111,-0.00400203,0.181973,-0.0324962,0
0.392717,0.163109,-0.978693,-0.034278,0.172091,-0.037899,0
0.506518,-0.0456688,-0.79315,-0.038837,0.182296,-0.0431149,0
0.64436,-0.154602,-0.53933,-0.0542551,0.201582,-0.0756527,0
0.78078,-0.108923,-0.341044,-0.0801545,0.20675,-0.072638,0
0.803891,-0.115974,-0.279151,-0.0822803,0.132991,0.00208962,0
0.601764,-0.304845,-0.329848,-0.0597596,0.010361,0.145317,0
0.050331,-0.698504,-0.274258,-0.0495325,-0.0626825,0.268018,0
-1.0987,-0.628644,-0.0918066,0.0396964,-0.0454344,0.389693,0
-2.4718,-1.8541,-0.228355,-0.116162,-0.082899,0.377795,0
-2.26432,-2.28854,-1.30322,-0.447011,-0.0252405,-0.137102,0
-1.71161,-2.37547,-1.85717,-0.293139,0.0384623,-0.355714,0
-1.85893,-2.35224,-1.50826,-0.0193655,0.0608399,-0.0550427,0
-1.28087,-1.23762,-1.51372,0.0624798,-0.0342786,0.0165193,0
0.28136,-1.3375,-2.49794,-0.250298,-0.265306,-0.5407,0
0.984085,-2.11248,-2.63877,-0.00420465,-0.327026,-0.362507,0
0.721136,-2.75761,-2.0183,0.327263,-0.0529442,0.00589806,0
0.301674,-3.06678,-1.43188,0.388723,0.103645,0.169279,0
-0.0824425,-2.71431,-0.814939,0.369245,0.0686056,0.0500011,0
-1.15036,-0.224748,-1.08691,0.15412,0.0826494,0.0440252,0
-1.06613,0.617959,-1.74834,-0.102913,0.0937139,-0.0834985,0
-0.457777,0.778561,-1.88247,0.106923,0.00213119,-0.277928,0
-0.25307,0.781847,-1.91683,0.202377,-0.112084,-0.279437,0
-0.369148,0.299693,-1.85742,0.220163,-0.0315811,0.00279742,0
-0.787713,-0.975683,-1.51215,0.197394,0.0593052,0.210803,0
-1.12648,-0.710428,-1.55474,0.173672,-0.00853644,0.176873,0
-1.30523,-0.118669,-1.3685,0.161735,-0.0121694,0.151973,0
-1.30879,1.12433,-1.01117,0.227386,-0.0527623,0.118669,0
-1.30358,1.37316,-0.906912,0.225789,-0.103528,0.110352,0
-0.520963,0.925665,-1.03237,0.06714,-0.0746721,-0.317385,0
0.145443,1.2071,-0.597783,0.397602,-0.0873413,-0.0148132,0
0.613228,1.12579,-0.496768,0.188034,-0.107145,-0.0645671,0
0.590079,1.19576,-0.447644,0.168488,-0.0693691,0.0287147,0
0.360929,1.00295,-0.453614,0.0917725,-0.0849851,0.0944265,0
0.0614628,0.830399,-0.448141,0.0780216,-0.0889211,0.128142,0
-0.12846,0.654003,-0.408378,0.0700689,-0.102008,0.129001,0
-0.214415,0.604368,-0.372504,0.0251884,-0.122631,0.116804,0
-0.270532,0.656473,-0.350067,-0.0359456,-0.140252,0.117275,0
-0.411795,0.700231,-0.349871,-0.0759611,-0.14232,0.143395,0
-0.583613,0.648289,-0.403102,-0.122846,-0.152016,0.143293,0
-0.631412,0.644515,-0.507344,-0.173887,-0.157753,0.102616,0
-0.5286,0.679428,-0.607797,-0.235093,-0.170737,0.0364795,0
-0.428514,0.582413,-0.698063,-0.265379,-0.170835,0.012579,0
-0.392343,0.372414,-0.783512,-0.281902,-0.183007,0.00873774,0
-0.382427,0.219533,-0.892777,-0.329934,-0.190379,0.00702941,0
-0.317574,0.167407,-1.04999,-0.373926,-0.186747,-0.0102284,0
-0.20487,0.142576,-1.22896,-0.405923,-0.182553,-0.0396284,0
-0.138653,0.0222062,-1.36435,-0.418956,-0.185333,-0.0571213,0
-0.0950795,-0.103776,-1.41751,-0.445494,-0.188738,-0.105036,0
0.0475487,-0.48786,-1.38444,-0.458415,-0.163016,-0.217421,0
-0.0613156,-0.607648,-1.37516,-0.47434,-0.0910752,-0.232184,0
-0.544669,-0.305731,-1.48894,-0.549268,-0.0378283,-0.252995,0
-0.544669,-0.305731,-1.48894,-0.549268,-0.0378283,-0.252995,0
-0.796371,0.0254714,-1.78949,-0.616446,-0.0149129,-0.442613,0
-0.470426,0.0911509,-2.13554,-0.516913,0.0596732,-0.723264,0
0.209854,-0.131413,-2.54388,-0.364685,0.150373,-0.850694,0
1.01363,-0.506941,-2.99225,-0.253312,0.197965,-0.81024,0
1.76102,-0.809864,-3.28321,-0.134349,0.236037,-0.648953,0
2.15596,-0.989616,-3.33812,-0.0358042,0.256908,-0.403748,0
2.08365,-0.952047,-3.24942,0.0146682,0.24897,-0.163882,0
1.76249,-0.78211,-3.06712,0.0448063,0.226825,-0.0168208,0
1.48665,-0.571682,-2.81082,0.0745421,0.207255,0.0305728,0
1.37597,-0.414021,-2.55265,0.08155,0.203614,0.0271927,0
1.37685,-0.379127,-2.34115,0.0668831,0.223116,0.0313172,0
1.45277,-0.46329,-2.1885,0.0480668,0.249052,0.0444308,0
1.50097,-0.632186,-2.06936,0.0344592,0.275399,0.0868813,0
1.41994,-0.755476,-1.9762,0.0181036,0.296533,0.164275,0
1.32397,-0.755135,-1.91317,-0.0168577,0.298994,0.213125,0
1.29296,-0.626811,-1.8694,-0.0520509,0.307081,0.233105,0
1.3077,-0.47212,-1.84308,-0.0690676,0.326918,0.248633,0
1.29949,-0.347108,-1.78691,-0.0618398,0.335016,0.257244,0
1.20982,-0.254903,-1.63761,-0.0416072,0.327391,0.268467,0
1.02642,-0.151643,-1.41748,-0.0288016,0.314927,0.2765,0
0.783803,-0.0972317,-1.14974,-0.0288237,0.306242,0.263031,0
0.522529,-0.148183,-0.881317,-0.0389062,0.2992,0.230715,0
0.225838,-0.267879,-0.653223,-0.065777,0.30004,0.193421,0
-0.0901989,-0.431196,-0.490001,-0.0810189,0.303145,0.146164,0
-0.325277,-0.561168,-0.356023,-0.073888,0.288247,0.065183,0
-0.536783,-0.557892,-0.160055,-0.0317247,0.26577,-0.00283206,0
-0.834577,-0.586133,0.056291,0.0278755,0.246321,-0.0493666,0
-1.16835,-0.725243,0.221324,0.0727165,0.225031,-0.106305,0
-1.36473,-0.842637,0.317018,0.109864,0.189041,-0.185902,0
-1.4647,-0.831137,0.357387,0.14036,0.115358,-0.251548,0
-1.53313,-0.862444,0.40877,0.227174,0.0617576,-0.290027,0
-1.58367,-0.796538,0.528981,0.322869,-0.0126463,-0.31998,0
-1.60877,-0.447526,0.722882,0.392576,-0.11238,-0.34585,0
-1.4811,-0.0803856,0.942817,0.457187,-0.203834,-0.419426,0
-1.17718,-0.00469124,1.13142,0.505412,-0.224345,-0.481222,0
-0.757914,-0.166952,1.13188,0.506293,-0.191581,-0.470862,0
-0.235867,-0.377902,0.958895,0.483324,-0.150084,-0.404423,0
0.366908,-0.434451,0.745303,0.479778,-0.115799,-0.2974,0
0.92979,-0.215319,0.629274,0.490788,-0.100257,-0.148759,0
1.29649,0.270277,0.687104,0.505472,-0.0813436,0.0111018,0
1.44995,0.808329,0.870283,0.502053,-0.0559562,0.14468,0
1.46492,1.34529,1.13235,0.458731,-0.0176659,0.228224,0
1.41727,1.83329,1.39713,0.391175,0.0401192,0.266408,0
1.32898,2.20227,1.60157,0.309249,0.115297,0.282196,0
1.19267,2.32416,1.75731,0.232617,0.186345,0.277467,0
0.978471,2.15149,1.8785,0.177415,0.246751,0.275515,0
0.683,1.75087,1.9613,0.130148,0.297502,0.272852,0
0.343395,1.31871,2.0338,0.0932494,0.334325,0.280975,0
-0.00990311,1.02382,2.09331,0.0512811,0.350645,0.292074,0
-0.321576,0.85369,2.11769,0.0100079,0.359478,0.291447,0
-0.517714,0.780355,2.10944,-0.0319871,0.353996,0.262809,0
-0.581857,0.701164,2.08345,-0.0886846,0.332632,0.210901,0
-0.640332,0.527579,2.0641,-0.129866,0.29376,0.177218,0
-0.754582,0.280362,2.0492,-0.183118,0.227944,0.115767,0
-0.754582,0.280362,2.0492,-0.183118,0.227944,0.115767,0
-0.976533,0.166634,1.99796,-0.26295,0.183172,0.0655019,0
-1.37671,0.400579,1.91631,-0.347253,0.132381,0.0165816,0
-1.92222,0.798738,1.85775,-0.377806,0.0681575,-0.0781054,0
-2.26049,0.983729,1.81568,-0.397474,0.00527373,-0.267201,0
-2.1198,0.892322,1.67661,-0.475407,-0.0548556,-0.492724,0
-1.69931,0.777151,1.34317,-0.565011,-0.0462497,-0.635606,0
-1.19939,0.70365,0.799868,-0.631183,-0.0344286,-0.677679,0
-0.673079,0.416781,0.167396,-0.654175,-0.051205,-0.671487,0
-0.173802,-0.0905588,-0.357833,-0.592951,-0.0771016,-0.621483,0
0.163739,-0.570196,-0.755532,-0.503549,-0.0940073,-0.503339,0
0.310388,-0.891885,-1.07399,-0.436099,-0.0988662,-0.337522,0
0.430984,-1.11669,-1.35343,-0.391461,-0.0936382,-0.197321,0
0.543647,-1.21461,-1.59521,-0.342447,-0.0741819,-0.0862407,0
0.568,-1.15763,-1.80197,-0.299901,-0.0578019,-0.00314152,0
0.48589,-0.993198,-1.94171,-0.260986,-0.0477652,0.0432439,0
0.331724,-0.635859,-2.05097,-0.232044,-0.0238733,0.04592,0
0.281092,-0.162025,-2.16597,-0.188257,0.019327,-0.0456821,0
0.423501,0.104817,-2.28442,-0.12244,0.0848267,-0.182258,0
0.740598,0.0603588,-2.41234,-0.0527633,0.143258,-0.281368,0
1.10564,-0.290236,-2.50495,0.0232627,0.205866,-0.304312,0
1.33464,-0.716035,-2.55742,0.0753807,0.259274,-0.228329,0
1.42886,-1.02216,-2.59107,0.0848804,0.299562,-0.112979,0
1.50207,-1.1743,-2.61661,0.107253,0.334681,-0.00928897,0
1.55746,-1.2023,-2.64161,0.135177,0.367538,0.0968675,0
1.60831,-1.13353,-2.64064,0.162135,0.379631,0.19345,0
1.62068,-0.986578,-2.56294,0.1877,0.374906,0.269511,0
1.51484,-0.845728,-2.36634,0.203175,0.347805,0.331545,0
1.23374,-0.722468,-2.06939,0.211317,0.305641,0.379436,0
0.841192,-0.618266,-1.72258,0.201904,0.241826,0.396923,0
0.403411,-0.452324,-1.34089,0.172449,0.170963,0.370091,0
0.0150725,-0.322765,-0.931532,0.156088,0.117224,0.29844,0
-0.293145,-0.303023,-0.506709,0.172181,0.0857811,0.192292,0
-0.561537,-0.289461,-0.000665251,0.208969,0.0650877,0.0884506,0
-0.872335,-0.271459,0.550353,0.235091,0.0480009,0.0142508,0
-1.18216,-0.352542,0.968969,0.189653,0.0243259,-0.0739746,0
-1.43977,-0.436115,1.21411,0.161283,0.0201906,-0.163524,0
-1.6437,-0.6231,1.38919,0.2014,0.0422335,-0.24,0
-1.78154,-0.793748,1.51596,0.242881,0.00240514,-0.30519,0
-1.806,-0.797136,1.67355,0.271273,-0.0452546,-0.347694,0
-1.66063,-0.681581,1.7748,0.288361,-0.0783059,-0.381496,0
-1.34972,-0.611496,1.74342,0.30031,-0.0692522,-0.391555,0
-0.903552,-0.659058,1.58963,0.298761,-0.0451377,-0.359654,0
-0.384916,-0.691436,1.32669,0.281773,-0.0214239,-0.283057,0
0.141803,-0.590909,0.982609,0.266397,0.00895709,-0.166681,0
0.610175,-0.297015,0.638354,0.272586,0.0317219,-0.0324824,0
0.936131,0.103734,0.441278,0.307173,0.0351215,0.0945544,0
1.04585,0.553937,0.411985,0.328292,0.0220578,0.205062,0
1.02375,0.975069,0.512061,0.337398,0.00765428,0.263891,0
0.90582,1.29029,0.714382,0.329464,0.0153489,0.29189,0
0.747932,1.47362,0.909557,0.27504,0.0419315,0.281798,0
0.587704,1.41924,1.07876,0.237976,0.0778309,0.259837,0
0.364985,1.17098,1.19189,0.192085,0.115174,0.247705,0
0.12229,0.891716,1.22209,0.138515,0.143337,0.230418,0
0.12229,0.891716,1.22209,0.138515,0.143337,0.230418,0
-0.0651693,0.776984,1.25938,0.103201,0.139542,0.209595,0
-0.156496,0.768333,1.32339,0.076321,0.122882,0.16751,0
-0.190093,0.780441,1.40983,0.0733865,0.121025,0.127934,0
-0.235776,0.794701,1.49602,0.0563755,0.122291,0.104232,0
-0.269199,0.713656,1.53185,0.0191799,0.120643,0.0769881,0
-0.265072,0.474361,1.49725,-0.0269822,0.122515,0.0467351,0
-0.307477,0.187625,1.40573,-0.0829966,0.103324,0.043238,0
-0.448847,0.0258898,1.28819,-0.13936,0.0713537,0.057963,0
-0.618533,0.0965549,1.16766,-0.195838,0.0176068,0.0337617,0
-0.709638,0.32226,1.01446,-0.240323,-0.0358282,-0.0593161,0
-0.709286,0.432975,0.866044,-0.240888,-0.0835096,-0.203954,0
-0.737122,0.458587,0.72457,-0.241524,-0.148168,-0.331962,0
-0.894141,0.636174,0.66097,-0.234849,-0.200027,-0.425209,0
-1.08934,0.987706,0.606809,-0.247048,-0.234064,-0.514044,0
-0.970931,0.957093,0.478648,-0.261364,-0.239486,-0.683114,0
-0.486093,0.457875,0.234858,-0.231615,-0.172084,-0.78134,0
0.052346,-0.16413,-0.160778,-0.224439,-0.117473,-0.69798,0
0.455667,-0.638396,-0.532269,-0.198149,-0.0781681,-0.484841,0
0.724404,-0.920171,-0.779483,-0.165326,-0.0697675,-0.229659,0
0.862384,-1.02582,-0.938702,-0.132483,-0.0519548,-0.00822628,0
0.843905,-0.956506,-1.06574,-0.106492,-0.0185877,0.170236,0
0.670376,-0.734829,-1.18507,-0.100523,-0.00238961,0.297136,0
0.461195,-0.395418,-1.30448,-0.113615,-0.00103199,0.351536,0
0.332218,0.0252438,-1.35465,-0.108975,-0.00266373,0.329921,0
0.297763,0.414139,-1.3609,-0.104785,0.0194554,0.270111,0
0.35525,0.552694,-1.45333,-0.1019,0.0638513,0.185338,0
0.507769,0.546904,-1.5598,-0.100232,0.106034,0.116342,0
0.716304,0.444026,-1.65948,-0.106535,0.132769,0.077956,0
0.928836,0.244852,-1.74994,-0.10922,0.152092,0.0703401,0
1.06966,0.0323815,-1.77952,-0.0901689,0.16342,0.101962,0
1.13102,-0.083921,-1.74714,-0.0730733,0.156243,0.147117,0
1.05999,-0.0958011,-1.6561,-0.0717677,0.155499,0.201564,0
0.931841,-0.0917582,-1.53373,-0.0744534,0.142496,0.226748,0
0.754435,-0.0539831,-1.33809,-0.0681391,0.131348,0.226975,0
0.505805,-0.08407,-1.08497,-0.0722711,0.105802,0.208137,0
0.25636,-0.190675,-0.826623,-0.0788773,0.0698242,0.156782,0
0.00289062,-0.296522,-0.521896,-0.0751201,0.0461739,0.107806,0
-0.212071,-0.34626,-0.176269,-0.0425031,0.0269709,0.0306845,0
-0.379534,-0.247312,0.289157,0.036968,0.0187961,-0.0627453,0
-0.665692,-0.0171663,0.807761,0.063966,0.0403142,-0.105196,0
-0.991335,-0.016556,1.16897,0.00816377,0.0545278,-0.183179,0
-1.20998,-0.357961,1.27769,-0.0316701,0.061281,-0.312616,0
-1.342,-0.815217,1.32957,0.0153412,0.0904999,-0.373935,0
-1.52694,-1.08052,1.46624,0.0830195,0.0452903,-0.35069,0
-1.76021,-1.11528,1.68349,0.15235,-0.0191175,-0.308708,0
-1.80663,-1.04992,1.79318,0.18058,-0.0630341,-0.316477,0
-1.52359,-0.931982,1.72429,0.174535,-0.064565,-0.360192,0
-0.955511,-0.889489,1.45658,0.152397,-0.0539958,-0.378238,0
-0.228653,-1.01069,1.02462,0.152939,-0.0236901,-0.329865,0
0.478071,-1.09568,0.505519,0.177825,0.0232192,-0.206597,0
0.996291,-0.919112,0.0290341,0.22629,0.0589901,-0.0363654,0
1.31663,-0.530638,-0.261236,0.294105,0.0598126,0.10402,0
1.43586,-0.029144,-0.371389,0.348585,0.0322323,0.207221,0
1.42055,0.469303,-0.278038,0.387465,0.0144665,0.269597,0
1.42055,0.469303,-0.278038,0.387465,0.0144665,0.269597,0
1.28228,0.939285,-0.0190911,0.401325,0.0119565,0.307227,0
1.0506,1.32082,0.295829,0.37262,0.0198756,0.323358,0
0.769361,1.49281,0.573917,0.315941,0.0515166,0.31429,0
0.49583,1.43271,0.759893,0.246143,0.0971833,0.286489,0
0.241056,1.17303,0.865081,0.184756,0.14178,0.263737,0
0.0202261,0.826936,0.908872,0.12911,0.168603,0.258437,0
-0.135382,0.531306,0.903956,0.0847618,0.177084,0.272572,0
-0.22341,0.410511,0.905179,0.0590817,0.17602,0.30594,0
-0.312075,0.515135,0.916101,0.0392598,0.170404,0.348675,0
-0.440397,0.695294,0.9516,0.0117648,0.143348,0.369636,0
-0.592639,0.860173,0.961958,-0.0419719,0.123292,0.346174,0
-0.728585,1.00591,0.961647,-0.0981471,0.0876871,0.283858,0
-0.830446,1.11116,0.952303,-0.159336,0.0515874,0.177359,0
-0.959964,1.19149,0.947721,-0.183202,0.0147753,0.0482336,0
-1.18179,1.23571,1.00461,-0.178768,-0.0285113,-0.104183,0
-1.38707,1.28715,1.02435,-0.23274,-0.0785852,-0.273284,0
-1.27423,1.15347,0.896413,-0.306829,-0.11152,-0.493543,0
-0.812279,0.532988,0.67826,-0.336615,-0.133916,-0.688211,0
-0.446347,-0.105539,0.384353,-0.367442,-0.159784,-0.711921,0
-0.450134,-0.39373,0.186761,-0.360059,-0.203607,-0.606254,0
-0.52643,-0.38034,0.0855884,-0.318254,-0.269884,-0.553983,0
-0.345077,-0.433342,0.0250463,-0.268288,-0.274924,-0.590077,0
0.0275298,-0.583548,-0.121263,-0.252057,-0.225927,-0.586005,0
0.334162,-0.786328,-0.354961,-0.255302,-0.169168,-0.472222,0
0.51725,-0.92042,-0.578314,-0.247157,-0.137604,-0.328284,0
0.66764,-0.940426,-0.759442,-0.223645,-0.106308,-0.216224,0
0.773373,-0.814573,-0.914359,-0.193378,-0.0745759,-0.133018,0
0.805822,-0.581662,-1.05994,-0.172378,-0.0373651,-0.0745341,0
0.799478,-0.311228,-1.21333,-0.145526,0.00299129,-0.0422375,0
0.88326,-0.161026,-1.36194,-0.105426,0.0483592,-0.0507031,0
1.0543,-0.189292,-1.46532,-0.0487114,0.108009,-0.0531056,0
1.21711,-0.333193,-1.55433,-0.0116945,0.158357,-0.00713837,0
1.33303,-0.496558,-1.65443,0.0129134,0.209178,0.0735595,0
1.43373,-0.635783,-1.76182,0.0301668,0.247195,0.159954,0
1.50489,-0.704288,-1.84396,0.0476203,0.275896,0.243439,0
1.53834,-0.667878,-1.90399,0.0598895,0.291665,0.320339,0
1.5457,-0.496012,-1.93151,0.0588102,0.300774,0.376638,0
1.49628,-0.245241,-1.9013,0.0620682,0.310279,0.422123,0
1.32815,-0.042102,-1.78499,0.0665688,0.30631,0.454284,0
1.01694,0.107809,-1.57591,0.0503652,0.285914,0.472861,0
0.599885,0.261981,-1.29266,0.0119978,0.249563,0.461905,0
0.185254,0.389592,-0.971029,-0.0400781,0.212394,0.392989,0
-0.251833,0.434692,-0.645507,-0.0816924,0.195289,0.299694,0
-0.654963,0.402646,-0.352289,-0.0950962,0.170118,0.168333,0
-0.855873,0.322885,-0.0473448,-0.0644499,0.144017,-0.0113544,0
-0.908024,0.325828,0.312054,-0.0274914,0.129149,-0.169354,0
-1.1173,0.368478,0.623428,-0.043383,0.103491,-0.240351,0
-1.45993,0.287138,0.812275,-0.0264352,0.105897,-0.300387,0
-1.6884,0.0462343,0.90044,0.0318781,0.0662216,-0.389695,0
-1.73397,-0.123468,0.986137,0.103307,-0.00406805,-0.454515,0
-1.59392,-0.290504,1.11361,0.172545,-0.0881116,-0.493417,0
-1.40338,-0.434505,1.28843,0.244721,-0.124251,-0.483752,0
-1.19663,-0.646369,1.40083,0.267928,-0.114024,-0.416333,0
-0.891568,-0.939207,1.3584,0.235902,-0.076318,-0.335318,0
-0.891568,-0.939207,1.3584,0.235902,-0.076318,-0.335318,0
-0.511993,-1.18637,1.16397,0.204735,-0.00340831,-0.229006,0
-0.169577,-1.23285,0.817043,0.185075,0.0603684,-0.0900558,0
0.1067,-1.004,0.412884,0.186143,0.0885142,0.0373925,0
0.359475,-0.528936,0.100915,0.205139,0.0846275,0.122788,0
0.585047,0.0328827,-0.0618264,0.243173,0.0515665,0.17133,0
0.739152,0.4914,-0.0523411,0.268566,0.0287622,0.204844,0
0.732533,0.786578,0.0829617,0.279474,0.0291941,0.239799,0
0.586177,0.879069,0.253422,0.255225,0.0359955,0.268125,0
0.374902,0.887567,0.368399,0.188548,0.0573001,0.282039,0
0.252279,0.851326,0.401472,0.118617,0.0822044,0.261123,0
0.167657,0.74456,0.385109,0.0854795,0.118366,0.25101,0
0.043809,0.607887,0.362448,0.0628006,0.125634,0.261609,0
-0.148216,0.530556,0.433414,0.0623635,0.102355,0.281565,0
-0.3479,0.55558,0.558549,0.0408608,0.0737866,0.278405,0
-0.467833,0.57703,0.652155,0.0106033,0.058585,0.239833,0
-0.412429,0.561945,0.641681,-0.0426397,0.0502043,0.163653,0
-0.309483,0.488775,0.5936,-0.0979454,0.0351914,0.11217,0
-0.34026,0.319728,0.517918,-0.138552,0.0038583,0.0900501,0
-0.52754,0.170731,0.453685,-0.168311,-0.0499337,0.0797901,0
-0.772573,0.158867,0.421402,-0.204886,-0.10109,0.0327915,0
-0.962503,0.252063,0.456386,-0.201926,-0.154191,-0.0748181,0
-1.09535,0.203094,0.54932,-0.174334,-0.196011,-0.216541,0
-1.23654,0.0541719,0.568961,-0.213182,-0.24967,-0.349055,0
-1.26696,0.0573471,0.539137,-0.243275,-0.263337,-0.489189,0
-1.05658,0.189764,0.384717,-0.281976,-0.259178,-0.63424,0
-0.543263,0.124495,0.0730112,-0.316141,-0.217939,-0.753191,0
0.110238,-0.277266,-0.263156,-0.305113,-0.181236,-0.773199,0
0.566678,-0.720038,-0.576444,-0.265298,-0.136797,-0.626869,0
0.805463,-1.07404,-0.786689,-0.219882,-0.118137,-0.404055,0
0.93196,-1.30668,-0.912159,-0.18351,-0.102025,-0.200873,0
0.919779,-1.38462,-1.02147,-0.157768,-0.0645299,-0.0218999,0
0.784013,-1.29488,-1.13818,-0.144907,-0.0285903,0.111388,0
0.604143,-0.983718,-1.25169,-0.140589,-0.00564289,0.162204,0
0.486943,-0.494783,-1.33726,-0.142443,0.00649005,0.147326,0
0.511,-0.0196858,-1.38216,-0.104999,0.0396087,0.0743026,0
0.632101,0.202929,-1.42352,-0.0543626,0.0963112,-0.0104194,0
0.809367,0.132125,-1.42047,-0.0200091,0.14223,-0.057015,0
0.975957,-0.119124,-1.40521,-0.00674944,0.176331,-0.0564296,0
1.11045,-0.403243,-1.39367,-0.000669666,0.217763,-0.00127995,0
1.18253,-0.572415,-1.34516,0.00506998,0.244342,0.0937192,0
1.16236,-0.5875,-1.22663,0.0234214,0.259028,0.196881,0
1.04256,-0.529301,-1.01898,0.0503223,0.266645,0.281038,0
0.816151,-0.344455,-0.774684,0.0561696,0.258391,0.343015,0
0.584459,-0.0421113,-0.506186,0.0335677,0.234264,0.347908,0
0.417386,0.14189,-0.232883,0.0270526,0.233435,0.290341,0
0.254742,0.108231,0.0236681,0.0413878,0.248959,0.219676,0
0.0854555,-0.123007,0.224619,0.0331094,0.249717,0.157328,0
-0.0533477,-0.401778,0.383244,0.0398277,0.256248,0.0928049,0
-0.243965,-0.573863,0.521501,0.0603863,0.237494,0.0649865,0
-0.48116,-0.589916,0.725647,0.100151,0.188039,0.049569,0
-0.694837,-0.481786,0.948506,0.122558,0.152353,0.0189727,0
-0.872103,-0.405674,1.10142,0.109736,0.121187,-0.0343559,0
-1.1008,-0.314235,1.10331,0.100629,0.0967548,-0.0658455,0
-1.26265,-0.157214,1.06131,0.12128,0.0778711,-0.0991707,0
-1.26265,-0.157214,1.06131,0.12128,0.0778711,-0.0991707,0
-1.36147,0.202817,1.05674,0.145384,0.04007,-0.140312,0
-1.402,0.686628,1.01798,0.139057,-0.00788757,-0.191066,0
-1.27548,1.00539,0.877023,0.110826,-0.0376906,-0.292341,0
-1.00548,1.08467,0.615431,0.0656757,-0.0472953,-0.36745,0
-0.573855,0.856883,0.219495,0.026293,-0.0745422,-0.400845,0
0.00151502,0.369525,-0.101334,0.0534928,-0.103761,-0.390822,0
0.449131,-0.0443997,-0.231273,0.116182,-0.092585,-0.261021,0
0.623964,-0.119266,-0.303968,0.111773,-0.108904,-0.0700669,0
0.601951,0.0546827,-0.299576,0.131603,-0.100524,0.0740064,0
0.571035,0.371479,-0.231232,0.155269,-0.0750781,0.136632,0
0.600168,0.753701,-0.0827817,0.166824,-0.0391117,0.149845,0
0.63065,1.04424,0.0491559,0.140005,-2.24113e-05,0.142938,0
0.614993,1.08822,0.145388,0.0990975,0.0433079,0.123763,0
0.554092,0.913456,0.239102,0.0746462,0.0781623,0.119923,0
0.508664,0.646685,0.316252,0.0440603,0.0988858,0.141241,0
0.440212,0.398704,0.412022,0.0127469,0.116466,0.193363,0
0.26958,0.191782,0.493942,-0.0124686,0.135765,0.27662,0
0.0522198,0.087182,0.55311,-0.0347811,0.139852,0.338214,0
-0.167312,0.110158,0.617211,-0.0651411,0.127434,0.371467,0
-0.389239,0.238481,0.704479,-0.0868738,0.11497,0.381045,0
-0.571378,0.399811,0.762456,-0.133795,0.0983953,0.343878,0
-0.681931,0.524025,0.752877,-0.182531,0.0806415,0.259385,0
-0.726918,0.569692,0.702882,-0.223998,0.0651198,0.153284,0
-0.812788,0.508002,0.634638,-0.250874,0.0385685,0.0601879,0
-0.954578,0.461646,0.618042,-0.276399,-0.0156531,-0.0327263,0
-1.04733,0.503841,0.612345,-0.307496,-0.0622672,-0.160492,0
-1.00965,0.462074,0.53486,-0.337846,-0.0818232,-0.301224,0
-0.838699,0.238119,0.393318,-0.349905,-0.0801514,-0.43905,0
-0.60117,-0.32653,0.190708,-0.363612,-0.0781378,-0.520398,0
-0.43578,-0.896144,-0.0970705,-0.398217,-0.103713,-0.512852,0
-0.394022,-1.10877,-0.364869,-0.392732,-0.116475,-0.431922,0
-0.401948,-0.987913,-0.569695,-0.352431,-0.152754,-0.363728,0
-0.295527,-0.805398,-0.714362,-0.287693,-0.163681,-0.357359,0
-0.0843901,-0.699495,-0.86804,-0.241659,-0.13381,-0.352172,0
0.136468,-0.712607,-1.07313,-0.216583,-0.0863129,-0.296637,0
0.340578,-0.835516,-1.29652,-0.201456,-0.0442227,-0.20574,0
0.465378,-1.00879,-1.50505,-0.197988,-0.00682242,-0.0952946,0
0.43537,-1.09714,-1.70669,-0.191942,0.0265042,0.0206196,0
0.257138,-0.922429,-1.95373,-0.198551,0.0625676,0.114401,0
0.0865301,-0.505243,-2.1826,-0.207386,0.0898684,0.128532,0
0.081223,0.00661378,-2.43386,-0.205344,0.125471,0.064269,0
0.273306,0.34731,-2.69538,-0.151095,0.202111,-0.0476359,0
0.622191,0.544165,-2.93972,-0.121399,0.253188,-0.127666,0
1.04158,0.511319,-3.14429,-0.101211,0.294246,-0.149958,0
1.33443,0.263419,-3.27295,-0.0878085,0.331936,-0.0896732,0
1.36662,-0.016572,-3.31837,-0.0856355,0.354996,0.0435627,0
1.21249,-0.276073,-3.29719,-0.0881014,0.352889,0.166507,0
0.952418,-0.426542,-3.20704,-0.0928677,0.339455,0.259301,0
0.667811,-0.418542,-3.08246,-0.100427,0.31284,0.312172,0
0.447652,-0.21777,-2.93232,-0.115409,0.281874,0.319149,0
0.3408,0.141917,-2.74548,-0.146062,0.246302,0.290057,0
0.343306,0.488769,-2.55349,-0.198186,0.197314,0.223221,0
0.425143,0.762957,-2.39153,-0.268922,0.158021,0.127781,0
0.521866,0.854265,-2.213,-0.321655,0.126787,0.00587052,0
0.521866,0.854265,-2.213,-0.321655,0.126787,0.00587052,0
0.547601,0.75061,-1.92506,-0.338913,0.0785774,-0.115921,0
0.439112,0.480283,-1.47342,-0.321392,0.0173644,-0.240079,0
0.154065,0.12242,-0.879468,-0.296803,-0.0247598,-0.336056,0
-0.178465,-0.336037,-0.319965,-0.307979,-0.0323648,-0.430713,0
-0.314171,-0.908559,0.0760085,-0.316253,0.0232933,-0.528316,0
-0.270861,-1.59454,0.255402,-0.306016,0.101416,-0.576707,0
-0.263225,-2.14116,0.245035,-0.267496,0.167987,-0.50367,0
-0.368877,-2.43801,0.263782,-0.152655,0.198475,-0.361366,0
-0.593646,-2.41726,0.380594,-0.0523458,0.164377,-0.214464,0
-0.818811,-2.289,0.479839,0.0387681,0.102755,-0.140745,0
-0.906514,-2.22238,0.562299,0.138258,0.0716177,-0.127816,0
-0.892377,-2.1814,0.528341,0.202383,0.0562355,-0.11497,0
-0.82555,-2.19562,0.370721,0.24777,0.0464541,-0.0972561,0
-0.746236,-2.27927,0.200566,0.303016,0.0619002,-0.0657467,0
-0.713071,-2.16485,-0.0653711,0.342876,0.113594,-0.0138306,0
-0.693073,-1.70019,-0.645413,0.341349,0.208787,0.0277452,0
-0.397622,-0.788364,-1.53303,0.375491,0.274521,0.0043295,0
0.171504,-0.0520639,-2.15077,0.517848,0.233311,-0.00770921,0
0.706382,0.0843704,-2.20349,0.645978,0.165226,0.0415242,0
0.859611,0.0810731,-1.97783,0.610406,0.0335922,0.172908,0
0.55634,0.245579,-1.59086,0.51073,-0.0462998,0.331612,0
0.00706428,0.502628,-1.12395,0.44478,-0.0536255,0.422758,0
-0.407895,0.635403,-0.825457,0.370409,-0.0243791,0.404401,0
-0.398427,0.638852,-0.702831,0.28873,0.0148113,0.290248,0
-0.092451,0.671681,-0.583744,0.223139,0.0361677,0.20349,0
0.0728491,0.784324,-0.492568,0.135003,0.0294647,0.215425,0
-0.029927,0.930929,-0.452403,0.049209,0.0170175,0.23641,0
-0.158158,1.0109,-0.40155,0.0296341,0.00288591,0.201078,0
-0.190667,1.01223,-0.221866,0.0444897,-0.0224749,0.126571,0
-0.221455,0.91328,0.091407,0.0470436,-0.0610408,0.0685515,0
-0.342468,0.793589,0.447475,0.0206988,-0.08346,0.0449219,0
-0.549026,0.542583,0.822672,-0.0128466,-0.096341,0.0203878,0
-0.756478,0.236535,1.14878,-0.0481087,-0.0871555,-0.0205924,0
-0.856287,0.0227352,1.32925,-0.114559,-0.0803267,-0.0724251,0
-0.830897,-0.0208725,1.37696,-0.170134,-0.074471,-0.131092,0
-0.686677,0.0107065,1.34817,-0.194031,-0.0817685,-0.197252,0
-0.493112,0.0630955,1.30442,-0.176443,-0.0968206,-0.25209,0
-0.285767,-0.0084932,1.27554,-0.144751,-0.115407,-0.292717,0
-0.218483,-0.366994,1.31522,-0.116159,-0.139561,-0.277461,0
-0.477697,-0.767571,1.38029,-0.125539,-0.19182,-0.196173,0
-0.87595,-0.858204,1.46731,-0.114134,-0.221364,-0.143057,0
-1.14407,-0.465553,1.57811,-0.0922558,-0.239963,-0.189517,0
-1.0321,-0.00151471,1.53493,-0.132741,-0.213099,-0.325256,0
-0.515307,0.200406,1.22761,-0.210492,-0.153016,-0.463852,0
0.110611,0.197285,0.687194,-0.262896,-0.0762597,-0.473098,0
0.615877,0.0797666,-0.0260156,-0.261937,-0.0314704,-0.369448,0
0.925412,-0.130346,-0.576793,-0.189653,-0.035651,-0.224061,0
1.10065,-0.299598,-0.746661,-0.132898,-0.0766449,-0.0773355,0
1.06569,-0.405708,-0.761162,-0.147467,-0.0593357,0.0614365,0
0.887957,-0.445008,-0.821918,-0.177801,0.016578,0.15183,0
0.617494,-0.291763,-1.08199,-0.231886,0.0829579,0.196141,0
0.32845,-0.0510989,-1.46176,-0.27186,0.0947296,0.186377,0
0.275688,0.252254,-1.82459,-0.254468,0.111064,0.0707336,0
0.275688,0.252254,-1.82459,-0.254468,0.111064,0.0707336,0
0.553301,0.474829,-2.08607,-0.207743,0.121776,-0.0746648,0
0.978182,0.611851,-2.2226,-0.158514,0.139214,-0.152743,0
1.32699,0.654897,-2.27936,-0.140144,0.153678,-0.152097,0
1.49177,0.607421,-2.26671,-0.131252,0.169778,-0.106595,0
1.50421,0.451874,-2.1533,-0.112004,0.185873,-0.0584654,0
1.3843,0.226715,-1.97801,-0.100091,0.200058,-0.00556767,0
1.20222,-0.0351713,-1.75042,-0.0842023,0.208752,0.0415059,0
0.982138,-0.269024,-1.45716,-0.0626013,0.213982,0.0827602,0
0.779449,-0.411625,-1.1453,-0.0531714,0.213634,0.113828,0
0.648827,-0.422795,-0.869014,-0.0601218,0.22046,0.121511,0
0.618933,-0.382019,-0.678628,-0.0881051,0.24425,0.104544,0
0.651173,-0.39406,-0.529382,-0.0925097,0.272568,0.0825037,0
0.67628,-0.430574,-0.354978,-0.0874016,0.277829,0.078831,0
0.62826,-0.492647,-0.100009,-0.0684589,0.266837,0.0892831,0
0.410442,-0.606142,0.241435,-0.0318851,0.26813,0.130568,0
-0.00744744,-0.711231,0.61138,0.00620164,0.287129,0.169317,0
-0.443726,-0.94563,0.922638,0.0196225,0.28819,0.15561,0
-0.885587,-1.07902,1.10451,0.0139239,0.282834,0.140252,0
-1.22578,-1.09733,1.24373,0.0513356,0.250837,0.0977077,0
-1.52462,-0.935931,1.4528,0.131179,0.169249,0.0509716,0
-1.82747,-0.607939,1.71707,0.221972,0.0904177,-0.0191942,0
-2.06496,-0.250409,1.99107,0.304455,0.0208889,-0.150151,0
-2.15321,0.00930331,2.16006,0.335868,-0.0255007,-0.307571,0
-1.99856,0.112746,2.20926,0.342475,-0.0574537,-0.465176,0
-1.57402,-0.0677206,2.08856,0.357834,-0.0522158,-0.579603,0
-0.914795,-0.547376,1.73397,0.368835,-0.0186681,-0.601365,0
-0.164844,-1.01468,1.23766,0.372598,-0.00426212,-0.504851,0
0.495524,-1.12337,0.805462,0.374041,-0.0165912,-0.300855,0
0.987254,-0.83279,0.507904,0.404149,-0.0529935,-0.0997323,0
1.2712,-0.319907,0.378899,0.464729,-0.0886012,0.0459227,0
1.37168,0.332166,0.540865,0.54851,-0.115909,0.144936,0
1.20913,1.08939,0.963728,0.589121,-0.116789,0.221045,0
0.90111,1.87218,1.47409,0.539824,-0.116193,0.239476,0
0.644119,2.36313,1.91718,0.479084,-0.0578011,0.158076,0
0.423335,2.4371,2.25326,0.413163,0.0482937,0.0542321,0
0.308983,2.11078,2.42196,0.341426,0.139704,-0.0579816,0
0.233924,1.52306,2.42251,0.250041,0.210721,-0.120125,0
0.220246,0.861109,2.36122,0.171027,0.249093,-0.138726,0
0.204481,0.361086,2.32932,0.123484,0.257952,-0.106024,0
0.173571,0.110539,2.28412,0.0814757,0.249031,-0.0290156,0
0.165348,0.0447938,2.24014,0.0569839,0.23627,0.0297847,0
0.188077,0.137869,2.1947,0.0247266,0.225582,0.0638509,0
0.186101,0.288054,2.11803,-0.0144067,0.204772,0.0787253,0
0.162738,0.35111,2.03754,-0.041838,0.179957,0.0547829,0
0.158749,0.272916,1.92183,-0.077707,0.162718,-0.00277328,0
0.148304,0.0769555,1.74351,-0.114687,0.146577,-0.0653543,0
0.103611,-0.0842417,1.52532,-0.145372,0.126293,-0.110317,0
-0.0175027,-0.280007,1.33732,-0.147839,0.0846741,-0.149978,0
-0.196909,-0.129658,1.19352,-0.102469,0.0441775,-0.186462,0
-0.141236,0.448527,1.16547,0.0107823,0.0203554,-0.30828,0
0.183519,0.991729,1.22443,0.0720742,0.00590654,-0.437736,0
0.653069,0.963051,1.25697,0.0780665,0.0162979,-0.493261,0
1.17722,0.409461,1.15137,0.0818224,0.0571497,-0.448872,0
1.48614,-0.261018,0.942115,0.0945809,0.120501,-0.249389,0
1.48614,-0.261018,0.942115,0.0945809,0.120501,-0.249389,0
1.49079,-0.655716,0.820831,0.114763,0.134437,0.00418824,0
1.292,-0.711521,0.800637,0.142181,0.104112,0.1945,0
0.99353,-0.505287,0.928446,0.175588,0.0761208,0.300395,0
0.697613,-0.0135041,1.14811,0.177789,0.0624234,0.329249,0
0.397273,0.581749,1.44487,0.174885,0.0529952,0.2986,0
-0.035765,1.08115,1.73113,0.18141,0.0781608,0.250541,0
-0.520203,1.41029,1.93726,0.174182,0.110153,0.139375,0
-0.837166,1.68709,2.15627,0.175649,0.149393,-0.0398825,0
-0.862789,1.7283,2.29459,0.134274,0.172553,-0.23547,0
-0.590035,1.32095,2.20836,0.0679823,0.204253,-0.39437,0
-0.172877,0.57781,1.92651,0.0316001,0.245311,-0.436834,0
0.179839,-0.112116,1.58107,0.0110237,0.263912,-0.335772,0
0.345689,-0.417963,1.37438,0.0208424,0.249832,-0.136651,0
0.376041,-0.443386,1.26741,0.0576462,0.212579,0.0367098,0
0.333795,-0.297278,1.21578,0.100967,0.188151,0.160787,0
0.279156,-0.020063,1.22687,0.129202,0.162708,0.243621,0
0.213113,0.393026,1.28076,0.127203,0.125312,0.296201,0
0.126027,0.897309,1.35661,0.102272,0.0912442,0.319909,0
0.0624598,1.25616,1.42669,0.0875252,0.070101,0.302839,0
0.0204021,1.3277,1.50356,0.0712271,0.0572758,0.248543,0
-0.0414315,1.20631,1.5485,0.00372937,0.0318802,0.211672,0
-0.135276,1.08884,1.52907,-0.0858251,0.0135131,0.205016,0
-0.241295,1.01181,1.46793,-0.16234,-0.0169423,0.177805,0
-0.332991,1.02509,1.41694,-0.216934,-0.0543621,0.137621,0
-0.434985,1.06656,1.47901,-0.226315,-0.0971243,0.0792747,0
-0.597226,1.11585,1.63459,-0.240765,-0.128782,0.0149106,0
-0.752771,1.12374,1.76365,-0.28203,-0.145753,-0.0683534,0
-0.794872,1.09678,1.7475,-0.350167,-0.128365,-0.17573,0
-0.649624,1.03205,1.54988,-0.426758,-0.109854,-0.281335,0
-0.339491,0.705586,1.26197,-0.492388,-0.10349,-0.373007,0
-0.154876,0.295752,0.976465,-0.520362,-0.136557,-0.386787,0
-0.157644,0.0327402,0.78765,-0.469006,-0.146665,-0.340428,0
-0.234689,-0.046044,0.713561,-0.393437,-0.168914,-0.312275,0
-0.281916,-0.0203315,0.659245,-0.349168,-0.175252,-0.322609,0
-0.19334,-0.0403955,0.489311,-0.309413,-0.129065,-0.3585,0
-0.0156211,-0.206402,0.268296,-0.255233,-0.0906769,-0.375779,0
0.153516,-0.491269,0.054758,-0.201316,-0.0802185,-0.3359,0
0.269074,-0.734788,-0.124812,-0.142929,-0.0625381,-0.247486,0
0.314945,-0.804057,-0.266691,-0.0791651,-0.0402171,-0.150089,0
0.300966,-0.729243,-0.373894,-0.0166489,-0.0191736,-0.0673881,0
0.368481,-0.484457,-0.531213,0.0197958,0.0090854,-0.0295459,0
0.651437,-0.10319,-0.758331,0.0658154,0.0446636,-0.0435956,0
1.02915,0.219766,-0.944241,0.150314,0.0805944,-0.0495275,0
1.25759,0.368303,-0.989682,0.259625,0.107152,-0.0126856,0
1.23806,0.402118,-0.846719,0.362394,0.119809,0.0401015,0
1.0547,0.371151,-0.536717,0.429625,0.118103,0.081248,0
0.824462,0.265638,-0.177047,0.441333,0.120633,0.103511,0
0.64246,0.12266,0.0983481,0.383711,0.136077,0.109319,0
0.527904,-0.0115517,0.247377,0.30247,0.16257,0.135665,0
0.456941,-0.0544714,0.309532,0.233757,0.177462,0.179503,0
0.427657,0.0470189,0.31544,0.181857,0.1756,0.220659,0
0.457749,0.178187,0.336705,0.167053,0.174531,0.245845,0
0.443338,0.285133,0.386974,0.158205,0.175583,0.285201,0
0.283456,0.366868,0.459133,0.13245,0.15779,0.334505,0
0.283456,0.366868,0.459133,0.13245,0.15779,0.334505,0
0.00702451,0.425538,0.557078,0.101558,0.127563,0.353189,0
-0.2763,0.379648,0.633169,0.0654574,0.102405,0.3263,0
-0.491358,0.250623,0.622361,0.0308855,0.0893027,0.263294,0
-0.613389,0.127146,0.506428,-0.0140428,0.0792317,0.195356,0
-0.648539,0.131929,0.344148,-0.055883,0.0516047,0.140252,0
-0.585483,0.116329,0.243616,-0.0565887,-0.00338024,0.0711873,0
-0.466965,0.0124764,0.159534,-0.0372353,-0.0463396,0.0119911,0
-0.343994,-0.155678,0.0777904,-0.0281238,-0.0784686,-0.0235518,0
-0.347892,-0.146389,-0.0213039,-0.0472373,-0.0917954,0.00963384,0
-0.463902,0.24112,-0.154557,-0.128803,-0.128136,0.0659366,0
-0.326497,0.506644,-0.254845,-0.152959,-0.172486,-0.103139,0
-0.183182,0.40339,-0.365337,-0.087189,-0.152201,-0.176298,0
-0.0844854,0.273687,-0.485558,-0.087217,-0.151134,-0.195946,0
0.04472,0.0560139,-0.556826,-0.0886048,-0.165186,-0.2172,0
0.141761,-0.0526842,-0.585535,-0.0888056,-0.181466,-0.231802,0
0.210295,-0.106993,-0.544532,-0.0560043,-0.180807,-0.236677,0
0.216541,-0.0923403,-0.430382,-0.020782,-0.170294,-0.223715,0
0.126381,-0.0479769,-0.317006,-0.00682502,-0.13588,-0.202109,0
0.0138029,-0.163651,-0.26193,-0.013155,-0.0953879,-0.187031,0
-0.041669,-0.396892,-0.27883,-0.0231353,-0.0655204,-0.174501,0
0.0200254,-0.594527,-0.331862,-0.0298483,-0.0285017,-0.145218,0
0.169449,-0.61204,-0.45208,-0.0481042,0.00748266,-0.0919752,0
0.39292,-0.548684,-0.611947,-0.0648062,0.0369573,-0.0379838,0
0.594699,-0.539971,-0.763487,-0.0647369,0.0636877,0.0305809,0
0.624997,-0.542288,-0.860897,-0.0592404,0.0749468,0.109046,0
0.492787,-0.418859,-0.957419,-0.0658052,0.0758974,0.166221,0
0.313208,-0.188175,-1.03398,-0.0612216,0.0762278,0.166906,0
0.156273,0.0648853,-1.05228,-0.0381525,0.0775517,0.125442,0
0.0364845,0.24164,-0.998341,0.000132143,0.0795235,0.0628524,0
-0.0489405,0.348313,-0.916868,0.0275293,0.084904,-0.0146607,0
-0.0974134,0.340198,-0.84232,0.0357079,0.0935433,-0.0712504,0
-0.0482451,0.241241,-0.795573,0.0143627,0.105705,-0.117462,0
0.127631,0.0588179,-0.786426,0.00285461,0.123019,-0.140547,0
0.305534,-0.180962,-0.861647,0.00207674,0.144152,-0.102837,0
0.363718,-0.342138,-0.888273,0.0244735,0.155402,-0.00955111,0
0.288949,-0.326572,-0.80162,0.0461239,0.128908,0.0900223,0
0.200324,-0.158346,-0.636116,0.0605503,0.0951338,0.135419,0
0.170739,0.0780282,-0.46416,0.0558744,0.0879644,0.135719,0
0.225245,0.256526,-0.333218,0.0367063,0.0911181,0.0998373,0
0.283729,0.336697,-0.241302,0.00685212,0.0995456,0.0583946,0
0.292943,0.310503,-0.174461,-0.0179544,0.100412,0.0224332,0
0.285506,0.19052,-0.0975304,-0.0167561,0.0965314,-0.0160302,0
0.252873,0.109797,0.00213248,-0.0207791,0.0847462,-0.040164,0
0.207489,0.104569,0.106601,-0.0138533,0.0788044,-0.0515974,0
0.146524,0.10306,0.182734,-0.00249867,0.0787136,-0.0659904,0
-0.000331823,-0.0670418,0.264159,-0.00324883,0.0441951,-0.0781133,0
-0.257215,-0.114768,0.380822,0.0315385,0.0272899,-0.0676994,0
-0.489718,-0.0761736,0.573385,0.0879169,0.0113183,-0.0734097,0
-0.629005,0.0670108,0.743123,0.0790978,-0.0148425,-0.0945567,0
-0.602655,0.114265,0.806851,0.0677502,-0.00160623,-0.135851,0
-0.419005,0.134203,0.758315,0.050479,0.0229287,-0.151616,0
-0.176281,0.131005,0.674276,0.0321049,0.0243848,-0.128988,0
0.0194936,0.0350085,0.583719,0.0312043,0.0342028,-0.0848731,0
0.094563,-0.158519,0.508149,0.0410233,0.0460101,-0.0148346,0
0.094563,-0.158519,0.508149,0.0410233,0.0460101,-0.0148346,0.00793457
0.101164,-0.294316,0.431681,0.0428859,0.0545395,0.0567355,0.00793457
0.166505,-0.27043,0.345796,0.0456923,0.0610765,0.0968784,0.00793457
0.268311,-0.114306,0.260722,0.0543022,0.0689017,0.111084,0.00793457
0.318475,0.133781,0.179392,0.0763923,0.0676249,0.119559,0.00793457
0.336708,0.401852,0.172499,0.108227,0.0584645,0.0877771,0.00793457
0.31097,0.600741,0.296524,0.169118,0.0528232,0.0343313,0.00793457
0.0818233,0.708495,0.503125,0.227991,0.0626549,0.00295359,0.00793457
-0.234504,0.67599,0.733486,0.235175,0.0670562,-0.041176,0.00793457
-0.402657,0.514438,0.880878,0.191479,0.0838645,-0.103156,0.00793457
-0.351959,0.158714,0.848416,0.118265,0.098857,-0.137466,0.00793457
-0.161542,-0.263633,0.69761,0.0733077,0.121632,-0.105967,0.00793457
0.00808548,-0.515851,0.513851,0.0424269,0.115186,0.00569099,0.00793457
0.0843994,-0.452635,0.398278,0.0306866,0.075559,0.125066,0.00793457
0.0821077,-0.195411,0.345942,0.031403,0.0299118,0.208389,0.00793457
0.00762155,0.136016,0.37599,0.040447,-0.00539833,0.233905,0.00793457
-0.0915357,0.501859,0.440636,0.0282293,-0.034541,0.208211,0.00793457
-0.198707,0.692375,0.461653,0.0247781,-0.0349728,0.135284,0.00793457
-0.305285,0.625555,0.418996,0.0304409,-0.0228537,0.0501174,0.00793457
-0.357778,0.43068,0.39258,0.0376769,-0.0259948,-0.0324187,0.00793457
-0.348849,0.204158,0.405474,0.0504285,-0.0358244,-0.0901425,0.00793457
-0.292808,-0.00621214,0.409309,0.0454995,-0.0431866,-0.114741,0.00793457
-0.186168,-0.135845,0.348834,0.0116585,-0.0362512,-0.105665,0.00793457
-0.0558942,-0.183858,0.235454,-0.0150721,-0.024161,-0.078512,0.00793457
0.0179458,-0.181253,0.121358,-0.0246019,-0.0221365,-0.0322874,0.00793457
0.0376711,-0.17188,0.0485886,-0.00618206,-0.0337611,0.00581193,0.00793457
0.0699869,-0.163872,0.0402686,0.0185475,-0.0513913,0.0222715,0.00793457
0.0938521,-0.171389,0.0522204,0.0309979,-0.0552583,0.0367686,0.00793457
0.119372,-0.15966,0.0391648,0.0277062,-0.0534503,0.0498484,0.00793457
0.126755,-0.129187,0.0108359,0.0296719,-0.0464896,0.060026,0.00793457
0.122187,-0.128774,-0.0232865,0.0367015,-0.0492311,0.0610197,0.00793457
0.0884666,-0.130671,-0.0245074,0.053339,-0.056854,0.0566195,0.00793457
0.0273636,-0.124504,0.00294234,0.0658941,-0.0731592,0.0452147,0.00793457
-0.0408232,-0.148901,0.0583331,0.0860946,-0.0825891,0.0223822,0.00793457
-0.0752014,-0.196191,0.0936018,0.0852558,-0.0888951,-0.00725645,0.00793457
-0.0819759,-0.292735,0.109765,0.0749262,-0.0845404,-0.0262108,0.00793457
-0.204171,-0.370769,0.119964,0.0511,-0.0847415,-0.0104191,0.00793457
-0.38142,-0.256455,0.0714061,0.0418488,-0.0761445,-0.00320441,0.00793457
-0.413628,-0.075307,0.0993412,0.0732281,-0.0695355,-0.0664907,0.00793457
-0.332779,0.0617938,0.126931,0.076071,-0.0743727,-0.141297,0.00793457
-0.155701,0.0880332,0.081158,0.0641037,-0.0493532,-0.187503,0.00793457
0.034837,-0.0687249,0.0276842,0.0553832,-0.0209293,-0.18715,0.00793457
0.0963878,-0.263654,-0.0216093,0.0491112,-0.00949413,-0.116657,0.00793457
0.0294605,-0.310345,-0.0338935,0.0472244,-0.0111693,-0.0240552,0.00793457
-0.0234229,-0.186721,-0.00754264,0.0569437,-0.0163936,0.024276,0.00793457
-0.0286993,0.0163122,0.0105148,0.0578387,-0.0125154,0.0365531,0.00793457
0.025454,0.104587,0.0171737,0.0648683,-0.004403,0.0214949,0.00793457
0.0873642,0.059781,0.0446689,0.0811448,0.00773269,0.00812328,0.00793457
0.0876977,-0.0287086,0.0626587,0.0753814,0.0194193,0.0275667,0.00793457
0.0645122,-0.070919,0.0753786,0.0673489,0.0307054,0.0490617,0.00793457
0.0637677,-0.0417417,0.0900889,0.0671569,0.0369831,0.0571515,0.00793457
0.0899658,0.0450265,0.10377,0.0615885,0.0418507,0.0613769,0.00793457
0.100735,0.156924,0.139392,0.0603145,0.0482216,0.0570648,0.00793457
0.104631,0.236058,0.16379,0.0434386,0.056172,0.0443131,0.00793457
0.125114,0.232439,0.193446,0.0434903,0.0727978,0.018337,0.00793457
0.125114,0.232439,0.193446,0.0434903,0.0727978,0.018337,0.00793457
0.144532,0.179012,0.225996,0.0350935,0.0807697,0.00559253,0.00793457
0.132324,0.117022,0.264492,0.0206136,0.0883525,0.022064,0.00793457
0.0850822,0.0970942,0.288136,-0.00222585,0.0958312,0.0501536,0.00793457
0.046158,0.183033,0.335327,-0.0121556,0.0935375,0.0613219,0.00793457
0.00398341,0.36232,0.422476,-0.018472,0.0823841,0.0463912,0.00793457
-0.0624608,0.567091,0.514147,-0.0431824,0.0813891,0.0101635,0.00793457
-0.115629,0.612339,0.572848,-0.0584998,0.0935397,-0.0639274,0.00793457
-0.154695,0.476968,0.618228,-0.0603266,0.108166,-0.136734,0.00793457
-0.208743,0.24536,0.653223,-0.0563651,0.107557,-0.161203,0.00793457
-0.253223,0.00151452,0.690948,-0.0478544,0.0956501,-0.149037,0.00793457
-0.343062,0.00242885,0.751908,-0.034587,0.0779189,-0.0824239,0.00793457
-0.361569,0.130182,0.834985,-0.0149296,0.0529956,-0.0372395,0.00793457
-0.281038,0.374023,0.97829,-0.000491504,0.0486076,0.00505042,0.00793457
-0.289935,0.629712,1.07969,-0.0242425,0.0400184,0.0494238,0.00793457
-0.42621,0.781278,1.1238,-0.0495603,0.0610682,0.0585783,0.00793457
-0.705385,0.483814,1.10756,-0.0467077,0.0701871,0.10711,0.00793457
-0.849398,0.23915,1.12396,-0.0172006,0.0578406,0.0684578,0.00793457
-0.818582,0.22112,1.01531,-0.0466249,0.0608198,0.0289749,0.00793457
-0.654097,0.242398,0.900272,-0.0549682,0.049778,-0.0010736,0.00793457
-0.446315,0.263674,0.856733,-0.060645,0.0473931,-0.0110815,0.00793457
-0.340384,0.391287,0.956446,-0.0617477,0.00876646,-0.0060029,0.00793457
-0.264624,0.432576,0.969577,-0.0988607,-0.00343601,-0.0343256,0.00793457
-0.160935,0.139622,0.855966,-0.0739692,0.0296373,-0.0612884,0.00793457
-0.0061424,-0.042435,0.684017,-0.0842738,0.0533815,-0.0699658,0.00793457
0.474973,0.0598667,0.676422,-0.115697,0.00891902,-0.0732023,0.00793457
0.692158,0.604763,0.606135,-0.178545,-0.01941,-0.0632288,0.00793457
0.666567,0.556859,0.473545,-0.147968,-0.00304332,-0.028729,0.00793457
0.694779,0.525775,0.469547,-0.143835,-0.0137168,-0.0349343,0.00793457
