attitude_roll,attitude_pitch,attitude_yaw,rotationRate_x,rotationRate_y,rotationRate_z,acceleration_x,acceleration_y,acceleration_z
-0.0447481,0.161392,0.00361945,0.0488359,-0.212897,0.0171468,0.0527884,0.00381687,-0.00537753
-0.049601,0.162755,0.0043673,0.0758229,-0.184447,0.0288827,0.0141202,-0.0146898,-0.0236759
-0.0516618,0.163659,0.00409585,-0.00416362,-0.0412421,-0.0582969,-0.0347597,-0.0238681,-0.0214994
-0.051158,0.162521,0.00239089,-0.108641,0.0489757,-0.0942064,-0.0232075,-0.0307895,-0.00892967
-0.0501876,0.160194,0.000256356,-0.11881,-0.00912366,-0.102487,-0.0193386,-0.0191703,-0.00956064
-0.0504614,0.158474,-0.00190313,-0.0635431,-0.0576715,-0.102786,-0.0132109,-0.0154977,-0.019525
-0.0514533,0.157791,-0.00424747,-0.0304875,-0.0556862,-0.128772,-0.0236712,-0.0190717,-0.0241213
-0.0518536,0.15733,-0.00704123,-0.0421007,-0.0301637,-0.147951,-0.0277129,-0.0172835,-0.00235635
-0.0518711,0.156598,-0.0103451,-0.0522284,-0.021157,-0.175639,-0.0233562,-0.0189071,0.0136873
-0.051574,0.155794,-0.0141755,-0.0556805,-0.00897205,-0.194826,-0.0218118,-0.00651762,0.0252867
-0.0516389,0.154845,-0.0183315,-0.0668535,-0.054903,-0.215388,-0.0119441,-0.00660102,0.0385373
-0.0524293,0.153893,-0.0230104,-0.0667474,-0.0905532,-0.246783,-0.00625848,-0.0113708,0.0409773
-0.0539772,0.152853,-0.0282695,-0.0755638,-0.127197,-0.260208,0.0023882,-0.00557873,0.0382624
-0.0557126,0.151495,-0.0334502,-0.0905344,-0.112418,-0.249841,0.00473782,0.00389804,0.0254191
-0.0569174,0.150056,-0.0387182,-0.084044,-0.08804,-0.269353,-0.00721389,0.000842839,0.00924098
-0.0575414,0.148806,-0.0446949,-0.0807033,-0.0604854,-0.31528,-0.0150253,-0.00962502,0.00635499
-0.0578106,0.147601,-0.051635,-0.0866666,-0.0719319,-0.359388,-0.0120027,-0.00555311,0.014513
-0.0582658,0.146211,-0.0590545,-0.0895425,-0.0862498,-0.36603,-0.000493947,0.00204496,0.0192217
-0.0588105,0.145182,-0.0667396,-0.054975,-0.0738925,-0.392702,-0.00865995,0.00137737,0.00464517
-0.0589442,0.144677,-0.0750945,-0.0506487,-0.0665625,-0.431822,-0.0227448,0.00577596,0.0122175
-0.0592859,0.143984,-0.0841988,-0.0729758,-0.091914,-0.463551,-0.0189071,0.00632611,0.0205062
-0.0598417,0.142858,-0.0937243,-0.0948643,-0.100289,-0.473741,-0.0230023,0.0155879,0.0150189
-0.0604873,0.141546,-0.103772,-0.0905347,-0.100834,-0.51896,-0.0449209,0.00955853,0.000243008
-0.0604853,0.140568,-0.114778,-0.074495,-0.0588193,-0.567919,-0.0589374,-0.000794291,-0.00619608
-0.0598845,0.139694,-0.126617,-0.0844471,-0.0416166,-0.601411,-0.0641931,-0.000484109,0.00989157
-0.0585886,0.13862,-0.139264,-0.0965976,-0.0103886,-0.650966,-0.0735068,-0.00812475,0.0234525
-0.0570992,0.137362,-0.153056,-0.106999,-0.0283047,-0.706366,-0.0740235,-0.0180983,0.0336134
-0.0555955,0.136084,-0.167513,-0.103794,-0.0124412,-0.715799,-0.0635381,-0.0166033,0.0338714
-0.0536384,0.134832,-0.181932,-0.0975967,0.0206024,-0.706266,-0.0536091,-0.0184389,0.0326812
-0.05099,0.133722,-0.196025,-0.0895075,0.0568194,-0.694675,-0.0593351,-0.0311815,0.0331805
-0.0478267,0.132613,-0.210125,-0.0945268,0.0716826,-0.699755,-0.0642293,-0.0503314,0.0445144
-0.04455,0.130994,-0.224385,-0.135096,0.0618899,-0.69817,-0.0635885,-0.0619769,0.0610208
-0.0420407,0.128311,-0.238174,-0.191756,-0.00129079,-0.655813,-0.0529064,-0.0734571,0.0690282
-0.0411979,0.124634,-0.251389,-0.230629,-0.0798005,-0.658834,-0.0882073,-0.0932019,0.0557323
-0.0415183,0.120065,-0.265345,-0.292166,-0.117096,-0.712105,-0.118872,-0.119847,0.0353718
-0.0418947,0.114249,-0.2803,-0.339157,-0.0877637,-0.746277,-0.118211,-0.141691,0.00721157
-0.0410221,0.108833,-0.295517,-0.246823,0.00812469,-0.739805,-0.103641,-0.148172,-0.0382011
-0.0390734,0.106021,-0.309983,-0.0960467,0.0185562,-0.682475,-0.0786639,-0.139951,-0.0329242
-0.0372151,0.105608,-0.323127,-0.0146538,0.0240176,-0.63492,-0.0789065,-0.145641,0.01231
-0.0361499,0.105494,-0.335805,-0.0529215,-0.0499782,-0.633335,-0.0929957,-0.162554,0.0680097
-0.0360318,0.104556,-0.348812,-0.0853831,-0.0638568,-0.664683,-0.0988468,-0.181966,0.07063
-0.0356856,0.103158,-0.362676,-0.107072,-0.0422429,-0.710164,-0.110035,-0.179191,0.0496537
-0.0350166,0.101292,-0.37721,-0.133693,-0.0514172,-0.729414,-0.0920621,-0.175264,0.0364856
-0.0348828,0.0990721,-0.391898,-0.137687,-0.0820182,-0.721393,-0.0686431,-0.161832,0.00566047
-0.0352081,0.0971376,-0.406066,-0.096411,-0.0695224,-0.677271,-0.0418694,-0.143005,-0.0576839
-0.0344294,0.0966304,-0.418894,0.00674528,0.0352525,-0.599934,-0.0195405,-0.121904,-0.125067
-0.03154,0.09812,-0.430296,0.0899477,0.139852,-0.545528,-0.00838133,-0.108672,-0.14416
-0.026729,0.100257,-0.44078,0.0790571,0.244554,-0.507428,-0.00101153,-0.0910268,-0.114233
-0.0205035,0.101423,-0.450683,0.00433877,0.254515,-0.482964,0.000987524,-0.0574729,-0.0827863
-0.0168317,0.100703,-0.459916,-0.0991264,0.0117047,-0.426234,-0.000985131,-0.0180277,-0.0866739
-0.0202328,0.097811,-0.467176,-0.177065,-0.42135,-0.318443,0.0234763,-0.0351878,-0.1504
-0.028407,0.095508,-0.473565,-0.0392734,-0.355701,-0.311437,-0.0347756,-0.0331313,-0.303024
-0.028407,0.095508,-0.473565,-0.0392734,-0.355701,-0.311437,-0.0347756,-0.0331313,-0.303024
-0.0303877,0.0971078,-0.479384,0.188255,0.140304,-0.271865,-0.0585815,-0.0148916,-0.380705
-0.0214975,0.102994,-0.484593,0.361385,0.648843,-0.270379,-0.0760455,-0.0114149,-0.277013
-0.00729042,0.110212,-0.490172,0.328917,0.64381,-0.296018,-0.0922107,-0.0123559,-0.0361534
0.00314048,0.115806,-0.496159,0.24654,0.284902,-0.299175,-0.0804968,-0.0272899,0.122035
0.00539938,0.120816,-0.502244,0.282975,-0.0996887,-0.301892,-0.0496258,-0.0126865,0.129613
0.00222029,0.127086,-0.507916,0.334579,-0.245711,-0.257464,-0.0374655,0.0297446,0.0872241
-0.00152354,0.13355,-0.512418,0.305451,-0.173848,-0.204045,-0.040467,0.0604302,0.0617577
-0.0037011,0.139248,-0.516491,0.271194,-0.114328,-0.206497,-0.0626495,0.0716907,0.0500825
-0.00602248,0.144545,-0.520731,0.26266,-0.195383,-0.212777,-0.0626134,0.0835415,0.051016
-0.0104624,0.150051,-0.524792,0.291205,-0.297656,-0.200422,-0.056794,0.0960826,0.0429849
-0.0161634,0.15612,-0.529042,0.303326,-0.330643,-0.238967,-0.0672554,0.102005,0.0371321
-0.0215582,0.161672,-0.534616,0.230201,-0.288567,-0.326407,-0.0842849,0.102329,0.0538537
-0.0255782,0.165119,-0.5422,0.0961622,-0.258367,-0.435874,-0.0904646,0.110369,0.0789564
-0.0295371,0.166043,-0.552151,-0.0185725,-0.304345,-0.550133,-0.086001,0.12068,0.0805581
-0.0336228,0.165499,-0.564359,-0.0603965,-0.287982,-0.65139,-0.0702975,0.121837,0.0455169
-0.0359178,0.164816,-0.578515,-0.0542682,-0.168771,-0.737922,-0.060356,0.130441,0.0133086
-0.0354592,0.164344,-0.593954,-0.0477538,-0.0414538,-0.779361,-0.0394583,0.134247,0.0197955
-0.0327854,0.164028,-0.609942,-0.0433852,0.0304723,-0.801041,-0.0293365,0.135233,0.0585724
-0.0298272,0.163612,-0.626468,-0.0611755,-0.0180091,-0.832445,-0.0190069,0.12199,0.107178
-0.0287311,0.162295,-0.643453,-0.109829,-0.144688,-0.83703,-0.00831726,0.115975,0.135881
-0.0293469,0.160536,-0.660541,-0.116475,-0.181861,-0.853435,-0.00704543,0.107327,0.116187
-0.0303189,0.158428,-0.678255,-0.153474,-0.19045,-0.894768,-0.0194886,0.10726,0.102379
-0.031153,0.155379,-0.696929,-0.211106,-0.184718,-0.947887,-0.0185437,0.0939023,0.0909129
-0.0318608,0.151252,-0.716705,-0.261203,-0.181998,-0.991614,-0.0144678,0.0900532,0.067534
-0.0325042,0.146252,-0.737048,-0.302864,-0.194054,-1.00364,0.0048535,0.0828799,0.0463579
-0.0337713,0.140862,-0.757457,-0.295008,-0.223251,-1.00435,0.0166152,0.0609903,0.0148908
-0.0354457,0.136053,-0.777903,-0.253237,-0.222,-1.00955,0.00679045,0.0393205,-0.0207886
-0.0367907,0.132261,-0.798616,-0.209376,-0.191353,-1.04432,-0.0106885,0.0164125,-0.0448354
-0.0371476,0.12889,-0.820392,-0.221656,-0.123938,-1.11027,-0.0340767,0.002313,-0.0501625
-0.0364814,0.125137,-0.843355,-0.233287,-0.0870229,-1.16115,-0.0377255,-0.00974113,-0.0536914
-0.0350768,0.121307,-0.867722,-0.233632,-0.0937507,-1.24426,-0.0452358,-0.024147,-0.051218
-0.0338249,0.117947,-0.893178,-0.186617,-0.0886676,-1.27374,-0.0361492,-0.0332964,-0.054467
-0.0330577,0.115973,-0.918851,-0.0989426,-0.114785,-1.26923,-0.0252301,-0.0225617,-0.0579039
-0.0328133,0.115422,-0.944098,-0.0484084,-0.162231,-1.24757,-0.0187109,-0.0319897,-0.0310379
-0.0337477,0.115822,-0.969278,-0.00526951,-0.184553,-1.27592,-0.0391014,-0.0397104,-0.0231498
-0.0344066,0.116376,-0.995564,-0.0379028,-0.190421,-1.34689,-0.0563176,-0.0567226,0.00026226
-0.035297,0.116065,-1.02328,-0.0798164,-0.227073,-1.41224,-0.0500308,-0.0563294,0.01339
-0.0367036,0.11559,-1.0521,-0.0612176,-0.246643,-1.44691,-0.0350981,-0.0413905,-0.00511426
-0.0387133,0.115999,-1.08105,-0.00437926,-0.283893,-1.43228,-0.00794327,-0.0284108,-0.0254699
-0.0411184,0.117616,-1.10946,0.0448575,-0.290342,-1.40596,-0.00254276,-0.0205796,-0.0356412
-0.0435175,0.11999,-1.13773,0.0676439,-0.279109,-1.42158,-0.0124732,-0.0303377,-0.0396394
-0.0455091,0.122868,-1.16671,0.0944314,-0.269975,-1.47205,-0.0176395,-0.0392143,-0.0466523
-0.046469,0.126597,-1.19653,0.135234,-0.169284,-1.51468,-0.000123102,-0.0361091,-0.0555824
-0.0447681,0.129485,-1.22734,-0.0270157,-0.0990116,-1.55574,0.0127317,-0.0199093,-0.00286472
-0.042509,0.127026,-1.25939,-0.349647,-0.106378,-1.62379,0.0123228,-0.00841616,0.0156593
-0.0414573,0.119918,-1.29344,-0.46995,-0.243935,-1.73549,-0.0260825,0.00508303,-0.0794457
-0.0447664,0.112818,-1.32891,-0.35165,-0.465632,-1.74066,0.00346655,0.0161586,-0.211057
-0.0488033,0.110534,-1.36309,-0.0210453,-0.220912,-1.64394,0.0600828,0.0494576,-0.334984
-0.0448644,0.114252,-1.39455,0.198216,0.228134,-1.50242,0.078294,0.0788784,-0.272641
-0.0351954,0.118986,-1.42315,0.133636,0.321673,-1.37249,0.0811123,0.0626451,-0.0614269
-0.0280707,0.121827,-1.44985,0.0967595,0.0945205,-1.31193,0.0662653,0.0108995,0.0348761
-0.0280707,0.121827,-1.44985,0.0967595,0.0945205,-1.31193,0.0662653,0.0108995,0.0348761
-0.0262901,0.124748,-1.47627,0.119824,-0.247213,-1.31486,0.0363061,0.0126843,0.0539742
-0.0294919,0.128059,-1.50176,0.144777,-0.352327,-1.22167,0.0563457,0.0213553,0.0320603
-0.0323875,0.132101,-1.52521,0.189556,-0.2147,-1.13021,0.0203198,0.0587651,-0.00787449
-0.0321917,0.13687,-1.5476,0.213209,-0.0846454,-1.125,-0.0319577,0.0523065,-0.000221848
-0.0301655,0.1416,-1.57083,0.18498,-0.0466446,-1.20456,-0.0885645,0.0455463,0.0429621
-0.0275576,0.145614,-1.59578,0.141638,-0.055335,-1.27828,-0.106069,0.055622,0.0803347
-0.0248255,0.148817,-1.62159,0.119389,-0.0461558,-1.27899,-0.0942411,0.085433,0.0933482
-0.0218535,0.151816,-1.64708,0.122665,-0.0431535,-1.25516,-0.0880798,0.112354,0.0926016
-0.019159,0.154377,-1.67218,0.0723587,-0.0858699,-1.24394,-0.0965638,0.131518,0.0958058
-0.018302,0.155069,-1.69737,-0.0482878,-0.223288,-1.24538,-0.105683,0.145721,0.097485
-0.0196716,0.153802,-1.72211,-0.112673,-0.270651,-1.19594,-0.0980241,0.156736,0.0385112
-0.0207925,0.152162,-1.74552,-0.0947304,-0.193316,-1.12142,-0.0970183,0.16363,-0.029987
-0.0207088,0.151039,-1.76747,-0.0690021,-0.141155,-1.0511,-0.0972806,0.140822,-0.0431672
-0.0203447,0.150177,-1.78806,-0.0656414,-0.140849,-0.997671,-0.0925414,0.10312,-0.0251929
-0.0205213,0.149063,-1.80793,-0.0890572,-0.17382,-0.977015,-0.0990468,0.0690138,-0.00256956
-0.0212248,0.14724,-1.82757,-0.13694,-0.184552,-0.968124,-0.103411,0.0551561,0.0188489
-0.0220715,0.144374,-1.84686,-0.188635,-0.181782,-0.941118,-0.0899612,0.0381299,0.0349026
-0.0228672,0.140669,-1.86555,-0.220406,-0.151057,-0.906654,-0.0761614,0.0153889,0.0346633
-0.0224542,0.136672,-1.88338,-0.212713,-0.0505183,-0.850309,-0.064305,-0.00642323,0.0312883
-0.0206538,0.133249,-1.89985,-0.162495,0.000546242,-0.78235,-0.0498433,-0.028537,0.0458252
-0.0189642,0.130704,-1.91506,-0.130187,-0.0473942,-0.727995,-0.0450111,-0.0531392,0.088338
-0.0193685,0.128428,-1.92904,-0.12504,-0.176958,-0.662493,-0.0339845,-0.0764686,0.125825
-0.0222986,0.126388,-1.94192,-0.106049,-0.261918,-0.620692,-0.0315464,-0.0947274,0.116777
-0.0257985,0.124898,-1.95413,-0.0719694,-0.227082,-0.590353,-0.0328923,-0.104522,0.0804271
-0.0279218,0.124407,-1.96556,-0.00326795,-0.124265,-0.545224,-0.0254441,-0.111326,0.0468925
-0.0282134,0.125601,-1.97605,0.0925274,-0.0368872,-0.50575,-0.0178653,-0.111942,0.0391673
-0.0270674,0.128676,-1.98585,0.182642,0.0240723,-0.480376,-0.0126342,-0.122228,0.0551206
-0.0254233,0.133216,-1.9952,0.238871,0.0103105,-0.464397,0.000552334,-0.130697,0.0834863
-0.0245236,0.138226,-2.00417,0.231323,-0.0471489,-0.441304,0.0117292,-0.134568,0.0996765
-0.0245941,0.142716,-2.01292,0.202866,-0.0654066,-0.440975,0.00346748,-0.137614,0.0704666
-0.0240862,0.146951,-2.02175,0.203644,-0.00810933,-0.44102,-0.000742426,-0.131806,0.0077951
-0.0222031,0.151148,-2.03027,0.198369,0.0833429,-0.410986,-0.00225237,-0.113816,-0.0473351
-0.0175628,0.155238,-2.03851,0.200653,0.276732,-0.429867,-0.00854358,-0.108003,-0.0831158
-0.00997888,0.159078,-2.04763,0.135534,0.258097,-0.469389,0.000956748,-0.113092,-0.0508224
-0.00730813,0.160064,-2.05656,-0.0453371,-0.182132,-0.40807,0.0370608,-0.0823637,-0.00379133
-0.0149979,0.157921,-2.06485,-0.162823,-0.669998,-0.430823,-0.00591085,-0.0599583,-0.103222
-0.0273241,0.155162,-2.07438,-0.110711,-0.620991,-0.503104,-0.0348362,-0.04744,-0.31942
-0.0322037,0.155302,-2.08433,0.106414,0.0503117,-0.469516,0.00446682,-0.023926,-0.455861
-0.0221237,0.159679,-2.09308,0.283223,0.748374,-0.40692,0.00462851,0.0294388,-0.40368
-0.00482783,0.165869,-2.10026,0.306661,0.767779,-0.312435,0.0220954,0.0398504,-0.169193
0.00808232,0.171999,-2.10571,0.324397,0.392257,-0.230899,0.0265981,0.0229432,-0.0109728
0.0132716,0.17925,-2.10977,0.41255,0.112412,-0.155153,0.0233182,0.0434806,0.0349622
0.0157159,0.187803,-2.1123,0.428456,0.0933803,-0.092919,0.000124961,0.085398,0.0527605
0.0180863,0.195313,-2.11411,0.314892,0.107374,-0.0712355,-0.0136369,0.094403,0.0898506
0.0193372,0.199943,-2.1152,0.155473,-0.0353631,-0.0177926,-0.0101771,0.121984,0.111334
0.0158949,0.20238,-2.1144,0.115956,-0.279414,0.105496,0.00893567,0.158887,0.0779933
0.00822949,0.205115,-2.11146,0.156623,-0.42633,0.170256,-0.0172275,0.177801,0.000961781
-0.0014171,0.208471,-2.10809,0.16754,-0.445794,0.140431,-0.0650962,0.171396,-0.0487368
-0.00983711,0.211367,-2.1064,0.119675,-0.350325,0.0129151,-0.118449,0.175098,-0.0788819
-0.0146893,0.213405,-2.10752,0.0914749,-0.147055,-0.115039,-0.123645,0.174206,-0.0987024
-0.0146893,0.213405,-2.10752,0.0914749,-0.147055,-0.115039,-0.123645,0.174206,-0.0987024
-0.0129128,0.219625,-2.11444,0.223923,0.091809,-0.22745,-0.137972,0.209288,-0.0308922
-0.00994986,0.224421,-2.12016,0.239997,0.0724467,-0.350651,-0.187535,0.187096,0.0514282
-0.00709162,0.228761,-2.1293,0.178394,-0.00306189,-0.551497,-0.230093,0.163676,0.117555
-0.00509409,0.231469,-2.14265,0.0885375,-0.0961747,-0.75061,-0.252961,0.15911,0.141317
-0.00387627,0.232455,-2.15998,0.00436364,-0.182205,-0.938523,-0.248212,0.157827,0.14015
-0.00333999,0.231772,-2.18089,-0.0769465,-0.241514,-1.10003,-0.227264,0.150173,0.128727
-0.00344484,0.229616,-2.20473,-0.148805,-0.324219,-1.22545,-0.204592,0.156315,0.111215
-0.00522753,0.226282,-2.23097,-0.19301,-0.43965,-1.33765,-0.180849,0.157598,0.0744544
-0.00832341,0.222154,-2.25955,-0.242335,-0.495709,-1.45065,-0.155272,0.14599,0.0327492
-0.011924,0.216927,-2.28985,-0.309232,-0.521489,-1.50564,-0.13304,0.14687,0.00232726
-0.0158838,0.210948,-2.32101,-0.320669,-0.536581,-1.54381,-0.130236,0.134756,-0.0371525
-0.0203789,0.205341,-2.35311,-0.298346,-0.586243,-1.60059,-0.137689,0.116224,-0.0717184
-0.0257031,0.200605,-2.38643,-0.255647,-0.611302,-1.66054,-0.143394,0.0989667,-0.0965952
-0.0305689,0.197075,-2.42091,-0.192861,-0.532901,-1.72054,-0.142192,0.0852209,-0.1186
-0.03343,0.194963,-2.45638,-0.128884,-0.464926,-1.75674,-0.122346,0.0737658,-0.0985186
-0.0367867,0.194236,-2.4921,-0.0635566,-0.583018,-1.74932,-0.0896457,0.0657888,-0.0525494
-0.0430458,0.195219,-2.5276,0.024803,-0.71789,-1.75276,-0.078604,0.0624807,-0.0355589
-0.0509548,0.197878,-2.5636,0.0591176,-0.758804,-1.80925,-0.0801882,0.0568641,-0.0284159
-0.058815,0.2003,-2.60122,-0.039543,-0.781621,-1.89782,-0.0817832,0.0640904,-0.0031023
-0.066835,0.200861,-2.64093,-0.140992,-0.797087,-2.00778,-0.0763575,0.0694163,-0.0238947
-0.0739639,0.200242,-2.68359,-0.218191,-0.783772,-2.17892,-0.0982497,0.0913318,-0.0510728
-0.0810789,0.198533,-2.72955,-0.295429,-0.841501,-2.29874,-0.0638198,0.10252,-0.0728512
-0.088122,0.196708,-2.77703,-0.27154,-0.767513,-2.33468,-0.014382,0.136894,-0.136646
-0.0922081,0.19631,-2.82436,-0.18851,-0.556159,-2.29145,0.0276411,0.162214,-0.185819
-0.0924517,0.197262,-2.86998,-0.135406,-0.37219,-2.18408,0.0815117,0.162965,-0.1686
-0.0908608,0.19861,-2.91308,-0.121014,-0.348672,-2.04207,0.116509,0.15298,-0.118581
-0.0908561,0.199786,-2.95269,-0.105706,-0.43457,-1.84608,0.148161,0.142048,-0.0855637
-0.0931623,0.20156,-2.98817,-0.029867,-0.506115,-1.64413,0.156849,0.122973,-0.0894803
-0.097806,0.204959,-3.01961,0.0696402,-0.602505,-1.46679,0.145945,0.109197,-0.0833338
-0.104288,0.209781,-3.04774,0.119734,-0.603609,-1.34071,0.12385,0.088052,-0.0756535
-0.110401,0.214673,-3.07361,0.0887138,-0.562874,-1.23752,0.112073,0.0754853,-0.0482808
-0.116593,0.218854,-3.09759,0.0748354,-0.572367,-1.14748,0.101973,0.0648737,-0.0328302
-0.12283,0.22351,-3.12,0.126646,-0.553235,-1.09437,0.0662664,0.0635419,-0.0425056
-0.128486,0.228938,3.14139,0.128362,-0.46076,-1.10421,0.0435973,0.0540764,-0.0330365
-0.132073,0.233664,3.11947,0.0645952,-0.433514,-1.07392,0.038587,0.0722565,0.0106934
-0.134645,0.236879,3.09777,-0.0281273,-0.332098,-1.0635,0.0533418,0.0676162,0.0270587
-0.136011,0.238337,3.07651,-0.0973422,-0.317131,-1.01423,0.0514523,0.0751978,0.0382126
-0.138016,0.23915,3.05566,-0.0919026,-0.405904,-1.01443,0.0430868,0.0558461,0.0322629
-0.142424,0.240507,3.03493,-0.0518905,-0.520564,-0.99724,0.0451451,0.0515797,0.0168341
-0.149464,0.242865,3.01561,0.0128204,-0.635438,-0.891756,0.0752476,0.0674499,0.00557709
-0.158128,0.246189,2.99911,0.068295,-0.616609,-0.748068,0.096066,0.068554,-0.0147097
-0.165413,0.250114,2.98471,0.0836503,-0.459449,-0.720997,0.06571,0.0450911,-0.0232682
-0.169358,0.253632,2.96946,0.000484968,-0.294344,-0.805302,0.0362499,0.0133724,-0.00210989
-0.16836,0.254825,2.95209,-0.173037,-0.0674211,-0.866844,0.0448752,-0.0121913,0.0146788
-0.164177,0.252835,2.93381,-0.288527,0.00897822,-0.839653,0.0771441,-0.0222192,0.0045194
-0.159886,0.250259,2.9165,-0.214668,-0.0232845,-0.774819,0.100734,-0.0304217,-0.0554412
-0.156986,0.249646,2.90122,-0.0880179,-0.0594704,-0.678792,0.106482,-0.0250645,-0.0976033
-0.154908,0.25075,2.88807,-0.00387674,-0.0397362,-0.610655,0.100926,-0.0360187,-0.115139
-0.152002,0.253034,2.87576,0.0459129,0.0143276,-0.609575,0.069661,-0.0375601,-0.115332
-0.148747,0.256326,2.86351,0.10746,-0.00796549,-0.613111,0.0654301,-0.0392267,-0.107914
-0.148747,0.256326,2.86351,0.10746,-0.00796549,-0.613111,0.0654301,-0.0392267,-0.107914
-0.146092,0.260981,2.85144,0.173562,-0.0315499,-0.603872,0.0759766,-0.0307137,-0.105739
-0.143815,0.266182,2.84054,0.180134,-0.0142495,-0.500281,0.109556,-0.00188872,-0.0880702
-0.141559,0.270691,2.83228,0.153252,0.0160597,-0.365134,0.118783,0.0145596,-0.0726483
-0.139233,0.274438,2.82582,0.133878,0.0332776,-0.311524,0.0927885,0.00155097,-0.070587
-0.137184,0.278108,2.82002,0.17074,0.0281114,-0.299432,0.0640101,-0.0141594,-0.0790126
-0.134487,0.283088,2.8143,0.245205,0.0819177,-0.319339,0.0428683,-0.00546834,-0.0834611
-0.130421,0.288873,2.80841,0.237673,0.171382,-0.314605,0.0491162,0.00906959,-0.0436244
-0.124283,0.293409,2.80242,0.130513,0.272992,-0.314245,0.047056,0.0305956,0.0188193
-0.116199,0.295295,2.79627,-0.00455449,0.349628,-0.27469,0.070362,0.039023,0.0524528
-0.109096,0.295637,2.79174,0.023745,0.231905,-0.15264,0.10228,0.0594004,0.0257434
-0.106048,0.297691,2.79099,0.184369,0.0420696,0.0686112,0.111096,0.0774325,0.00417334
-0.108342,0.302597,2.79503,0.338779,-0.146192,0.238106,0.0769573,0.0723991,0.00444984
-0.114781,0.309772,2.80108,0.423953,-0.304379,0.230801,0.0192499,0.036302,0.0255887
-0.122449,0.317441,2.80562,0.368828,-0.302429,0.100846,-0.0212736,0.00612113,0.0467753
-0.128074,0.323285,2.80734,0.226465,-0.188612,0.00415078,-0.0237136,0.0160935,0.0535747
-0.129572,0.326478,2.80735,0.091155,0.057841,-0.0457548,-0.0111909,0.0291134,0.0336593
-0.125914,0.327445,2.80614,0.00273315,0.239639,-0.0760593,-0.011386,0.03772,0.0201969
-0.120373,0.32783,2.80461,0.0441228,0.235239,-0.0701905,-0.00333239,0.0348497,0.0112273
-0.116606,0.330377,2.80379,0.209194,0.111079,-0.0346461,0.0094946,0.0412579,-0.00682306
-0.115656,0.336016,2.80408,0.331965,-0.000139449,-0.00521242,0.00333878,0.0551314,0.0156038
-0.117092,0.342428,2.80524,0.299663,-0.110952,0.0428546,0.015575,0.0652059,0.0776739
-0.120783,0.347229,2.8074,0.201026,-0.17109,0.0950389,0.0147883,0.0649789,0.107266
-0.125039,0.349851,2.80988,0.0952077,-0.169852,0.088564,-0.0138833,0.0600125,0.100791
-0.1284,0.350847,2.8111,0.028454,-0.119006,-0.000491196,-0.0513842,0.0365799,0.0647438
-0.130247,0.351165,2.81011,-0.00171542,-0.112314,-0.0830598,-0.057414,0.0351696,0.0485882
-0.131939,0.351545,2.80827,0.0308872,-0.108913,-0.088416,-0.0308013,0.0465274,0.0253934
-0.133371,0.352776,2.80674,0.0727994,-0.087792,-0.0639911,-0.0100397,0.0681758,0.0164939
-0.134613,0.354522,2.80618,0.085089,-0.0538244,-0.0179144,0.00379072,0.0766498,0.0288461
-0.135763,0.355827,2.80642,0.0366554,-0.0616607,0.0272544,-0.00423549,0.0829241,0.0576549
-0.137766,0.355936,2.8075,-0.00724555,-0.0908331,0.0558277,-0.02446,0.0669128,0.0672948
-0.139205,0.355571,2.80783,-0.0213409,-0.0326723,-0.0351223,-0.0803427,0.0397911,0.0540358
-0.13869,0.35483,2.8058,-0.0789973,0.00353823,-0.136988,-0.0947929,0.0253945,0.0664122
-0.137447,0.353138,2.80204,-0.12609,-0.013863,-0.186549,-0.0838732,0.0359375,0.0777587
-0.136617,0.35106,2.79767,-0.128167,-0.0499593,-0.196437,-0.0681743,0.0425014,0.0745466
-0.136319,0.349006,2.79287,-0.138225,-0.0830522,-0.229742,-0.0704922,0.0395496,0.0758929
-0.136277,0.346736,2.78716,-0.163344,-0.100194,-0.272533,-0.0757973,0.034379,0.0744219
-0.136073,0.343884,2.78062,-0.204775,-0.0947839,-0.302859,-0.0788168,0.0376925,0.066951
-0.135506,0.340432,2.7733,-0.22312,-0.0953583,-0.338549,-0.0849105,0.0267655,0.0494024
-0.134943,0.337048,2.76506,-0.218929,-0.113794,-0.389509,-0.0890542,0.0253133,0.0327049
-0.133878,0.333526,2.75589,-0.253109,-0.0903317,-0.418376,-0.0817319,0.0334769,0.0352547
-0.132684,0.329159,2.74638,-0.2901,-0.0984307,-0.421866,-0.0746521,0.03771,0.0286034
-0.131377,0.324837,2.73645,-0.254815,-0.0936854,-0.467379,-0.0897185,0.0260179,-0.00400668
-0.12982,0.321488,2.7253,-0.223717,-0.097174,-0.53839,-0.102458,0.0200496,-0.00951946
-0.127998,0.318439,2.71307,-0.236719,-0.110631,-0.571675,-0.0809478,0.02776,0.0078131
-0.12627,0.315058,2.70065,-0.244573,-0.100013,-0.558699,-0.0635376,0.0366168,0.0129874
-0.124379,0.311781,2.68834,-0.22346,-0.096508,-0.571779,-0.0737102,0.0335917,0.00559324
-0.122717,0.309162,2.67571,-0.190719,-0.126218,-0.590957,-0.0747853,0.0303957,0.00873387
-0.121902,0.306707,2.66287,-0.212268,-0.180477,-0.593099,-0.0708118,0.042857,0.0361786
-0.12177,0.303398,2.64995,-0.266117,-0.193078,-0.599717,-0.0646205,0.0414861,0.0501808
-0.121888,0.298958,2.63654,-0.327029,-0.21485,-0.619514,-0.0599544,0.0434106,0.0499181
-0.121888,0.298958,2.63654,-0.327029,-0.21485,-0.619514,-0.0599544,0.0434106,0.0499181
-0.122376,0.293617,2.62284,-0.362302,-0.24702,-0.610731,-0.047948,0.0533631,0.0460072
-0.123766,0.287829,2.60963,-0.366933,-0.275768,-0.578971,-0.0379243,0.0514344,0.03037
-0.126533,0.281811,2.59694,-0.386001,-0.356616,-0.556713,-0.0326518,0.0352217,0.0208215
-0.130436,0.275299,2.58463,-0.411147,-0.367469,-0.53497,-0.0353533,0.0171352,-0.00565463
-0.134309,0.268585,2.57269,-0.399244,-0.330308,-0.530248,-0.0456995,-0.00428587,-0.0438185
-0.136507,0.262751,2.56026,-0.336296,-0.213618,-0.586875,-0.0697897,-0.0263947,-0.073303
-0.136517,0.2582,2.54667,-0.303778,-0.144704,-0.654494,-0.0695289,-0.0382388,-0.0545955
-0.135621,0.253968,2.53186,-0.321397,-0.154968,-0.708445,-0.0484216,-0.0407757,-0.00887573
-0.135383,0.249441,2.51638,-0.332199,-0.206209,-0.71873,-0.021917,-0.0375006,0.00330484
-0.136292,0.244843,2.50077,-0.32962,-0.267221,-0.719462,-0.00461037,-0.0345884,-0.00592357
-0.138046,0.240482,2.48547,-0.30527,-0.272226,-0.693665,0.0147972,-0.0501897,-0.0296544
-0.139897,0.236742,2.47091,-0.266381,-0.240551,-0.661169,0.0195546,-0.0579745,-0.0520993
-0.140609,0.233437,2.45681,-0.262611,-0.167591,-0.658439,0.0133286,-0.0739294,-0.0514949
-0.140143,0.229843,2.44259,-0.290589,-0.106544,-0.671341,0.00998943,-0.0904283,-0.0366221
-0.138764,0.225819,2.42801,-0.300656,-0.104495,-0.679098,0.0116539,-0.100528,-0.0280433
-0.138402,0.222222,2.41384,-0.243623,-0.175655,-0.642208,0.0232706,-0.103486,-0.0302548
-0.139825,0.21981,2.40073,-0.18111,-0.231958,-0.593738,0.0243523,-0.101643,-0.0398114
-0.14143,0.218128,2.38878,-0.158168,-0.180448,-0.548113,0.0149227,-0.101835,-0.0360225
-0.142037,0.216435,2.37735,-0.178246,-0.130657,-0.543121,-0.00194098,-0.116336,-0.014764
-0.142163,0.214137,2.36568,-0.208772,-0.136412,-0.562065,-0.023188,-0.132589,0.005068
-0.142634,0.21188,2.35334,-0.181786,-0.173087,-0.606766,-0.0385796,-0.144316,0.0020417
-0.143686,0.21044,2.34064,-0.142326,-0.195267,-0.591198,-0.0139434,-0.137515,-0.00140738
-0.145172,0.209726,2.32908,-0.0925016,-0.190249,-0.519568,0.0180795,-0.123793,0.00399339
-0.146697,0.209938,2.31909,-0.0311887,-0.16747,-0.46025,0.033236,-0.121587,0.0162297
-0.147776,0.211056,2.31013,0.00258108,-0.125313,-0.433387,0.0387927,-0.130534,0.0489554
-0.148089,0.212188,2.3012,-0.0275302,-0.0966352,-0.450815,0.0503058,-0.133258,0.100799
-0.148283,0.212236,2.29181,-0.104391,-0.125875,-0.448859,0.0833142,-0.123751,0.141487
-0.149085,0.21095,2.2829,-0.150809,-0.132172,-0.38809,0.12278,-0.0976944,0.138983
-0.149736,0.209087,2.27532,-0.135432,-0.0827806,-0.321245,0.143808,-0.0873398,0.113057
-0.14921,0.207608,2.26897,-0.112338,0.00149101,-0.270102,0.157993,-0.0779069,0.09978
-0.147515,0.206021,2.26394,-0.121935,0.0695902,-0.191426,0.166379,-0.0607528,0.106817
-0.145008,0.203898,2.26039,-0.133916,0.100206,-0.12847,0.155179,-0.0504261,0.105604
-0.141863,0.201771,2.2579,-0.127046,0.153522,-0.0803318,0.147217,-0.0688217,0.0887069
-0.138484,0.198874,2.2568,-0.170924,0.181784,0.0187702,0.138617,-0.0574695,0.0879396
-0.133994,0.195347,2.25737,-0.160442,0.281345,0.0706386,0.101252,-0.0674902,0.0452463
-0.1276,0.19252,2.2585,-0.100149,0.363194,0.0779361,0.0627536,-0.0903592,0.0102124
-0.12103,0.191058,2.25985,-0.0528573,0.301711,0.0671649,0.0268172,-0.0785196,0.0227175
-0.117615,0.189122,2.26067,-0.143124,0.048897,0.033166,-0.0143258,-0.0623543,0.0319638
-0.118468,0.185416,2.26033,-0.224948,-0.118095,-0.0250063,-0.0675658,-0.0635696,-0.0496336
-0.119845,0.181163,2.25902,-0.186029,0.0318107,-0.0434423,-0.0797554,-0.0527978,-0.199187
-0.114572,0.179211,2.25783,-0.00650582,0.488329,-0.0488053,-0.104276,-0.030029,-0.310507
-0.100163,0.180952,2.25694,0.154196,0.891535,-0.0526127,-0.123729,-0.0155298,-0.282442
-0.0826118,0.184355,2.25622,0.148594,0.777802,-0.0512936,-0.148861,0.00571582,-0.113316
-0.070731,0.186445,2.25502,0.0493285,0.363604,-0.0919089,-0.162807,0.000399485,0.00296324
-0.0668797,0.186804,2.25209,-0.0219533,0.00874626,-0.211456,-0.189582,-0.00345874,-0.0155199
-0.0670636,0.18619,2.24626,-0.0812773,-0.134632,-0.346703,-0.202608,0.00544333,-0.0886909
-0.0699091,0.185012,2.23872,-0.0731236,-0.253136,-0.374357,-0.148808,0.0357952,-0.149579
-0.0726931,0.184968,2.2314,0.0313081,-0.129475,-0.332282,-0.0844782,0.0563365,-0.214936
-0.0715149,0.187485,2.22557,0.173311,0.144636,-0.256189,-0.0371284,0.0646536,-0.215882
-0.065635,0.191964,2.22144,0.217632,0.344219,-0.184586,-0.0132993,0.0675722,-0.122136
-0.058125,0.196104,2.21845,0.179641,0.305408,-0.146815,-0.0292332,0.0611981,0.00265998
-0.0534242,0.200027,2.21548,0.211431,0.0893668,-0.170192,-0.0326115,0.0360061,0.066752
-0.0532064,0.205184,2.21193,0.281593,-0.10995,-0.201213,-0.0173006,0.0361909,0.0790632
-0.055053,0.210962,2.20799,0.260227,-0.142438,-0.220425,-0.00814531,0.059361,0.0921932
-0.0569558,0.215487,2.20316,0.16677,-0.165975,-0.286576,-0.0122015,0.0694292,0.114265
-0.0587372,0.218117,2.19643,0.0508123,-0.16885,-0.388393,-0.00775085,0.0719673,0.111555
-0.0606565,0.218602,2.18781,-0.0390612,-0.191659,-0.447166,0.0126069,0.0873029,0.0787306
-0.0618201,0.218488,2.17847,-0.0145355,-0.120119,-0.462887,0.031122,0.103549,0.014248
-0.0612645,0.219338,2.16904,0.0376942,-0.0390651,-0.459274,0.0402434,0.115212,-0.00796717
-0.0595623,0.220817,2.15987,0.0474984,0.00773819,-0.446915,0.0537482,0.11867,0.0170184
-0.0574907,0.222044,2.15098,0.0168837,-0.0058396,-0.432627,0.057376,0.122522,0.0532902
-0.0558359,0.222149,2.14208,-0.0586575,-0.0223965,-0.435807,0.065605,0.109136,0.0820298
-0.0544799,0.220784,2.13321,-0.12357,-0.0327177,-0.423015,0.0798646,0.0979773,0.0944566
-0.0534104,0.218395,2.12446,-0.162921,-0.0639651,-0.414856,0.0906302,0.0863375,0.0985727
-0.0536473,0.215262,2.11602,-0.196112,-0.144876,-0.393793,0.105363,0.0719716,0.0947319
-0.0553758,0.211448,2.10796,-0.229124,-0.189998,-0.376096,0.103279,0.0641089,0.0632197
-0.0575543,0.206888,2.10013,-0.272033,-0.183827,-0.364394,0.0977541,0.0526897,0.0233955
-0.0591533,0.201738,2.09253,-0.277909,-0.120234,-0.352515,0.0866065,0.0338686,-0.0243284
-0.0591382,0.19701,2.08511,-0.231853,-0.0226591,-0.348205,0.0585861,0.0201855,-0.0712137
-0.0575443,0.193326,2.07772,-0.181255,0.0292949,-0.362407,0.0298756,0.00337246,-0.0839744
-0.0553168,0.190495,2.07002,-0.151598,0.0410925,-0.37783,0.0104805,-0.0121322,-0.0668324
-0.0534052,0.187914,2.06208,-0.155013,0.000541748,-0.38581,-0.00104187,-0.0208775,-0.0398785
-0.0523892,0.185243,2.05426,-0.151388,-0.0476493,-0.370927,-0.0122971,-0.027881,-0.0281616
-0.0523482,0.182893,2.04672,-0.12086,-0.0773861,-0.362069,-0.0254527,-0.0423222,-0.0317277
-0.052584,0.181254,2.03923,-0.0853215,-0.081649,-0.371426,-0.0466441,-0.0500225,-0.0328473
-0.052584,0.180092,2.03134,-0.0784563,-0.071142,-0.405094,-0.0601218,-0.0599551,-0.0161592
-0.052584,0.180092,2.03134,-0.0784563,-0.071142,-0.405094,-0.0601218,-0.0599551,-0.0161592
-0.0527304,0.178872,2.02243,-0.0869277,-0.105114,-0.472332,-0.0665126,-0.0769935,0.00318509
-0.0534884,0.177798,2.01204,-0.0734724,-0.160564,-0.545102,-0.0701368,-0.0794698,0.00866109
-0.0552769,0.176992,2.00035,-0.0699007,-0.21775,-0.603195,-0.0544247,-0.0721454,0.0165962
-0.0575484,0.176245,1.98765,-0.0793346,-0.229435,-0.641769,-0.0318142,-0.0613454,0.0190731
-0.0600368,0.175331,1.97432,-0.0932138,-0.258862,-0.659278,-0.00698959,-0.0507859,0.0219726
-0.0633877,0.174444,1.96093,-0.0774096,-0.308765,-0.658944,0.0248779,-0.0519493,0.0136377
-0.0673674,0.174028,1.94735,-0.0597837,-0.324675,-0.679848,0.0429843,-0.0515192,0.00171942
-0.0712272,0.173734,1.93346,-0.0732259,-0.302947,-0.681715,0.0778625,-0.0546169,0.005337
-0.0749113,0.173081,1.91966,-0.0904782,-0.314695,-0.670521,0.116951,-0.0581285,0.00449777
-0.0792358,0.172363,1.90624,-0.0792519,-0.342861,-0.65021,0.144371,-0.0619484,-0.0136821
-0.0839331,0.172022,1.89311,-0.0624976,-0.356842,-0.632707,0.18065,-0.0694254,-0.0329677
-0.0889378,0.172048,1.88073,-0.0410558,-0.353882,-0.583489,0.227173,-0.0740392,-0.0569268
-0.0937503,0.172389,1.8696,-0.0286859,-0.324359,-0.513998,0.254961,-0.0698426,-0.0796801
-0.098185,0.173002,1.86013,0.00722295,-0.257697,-0.423083,0.290168,-0.0825595,-0.102008
-0.100638,0.17471,1.85256,0.0884756,-0.11944,-0.340728,0.29387,-0.0865227,-0.127002
-0.100831,0.177825,1.84665,0.157332,-0.0224007,-0.269945,0.284025,-0.0976014,-0.106706
-0.0997632,0.18167,1.84221,0.158718,0.0576099,-0.216038,0.287809,-0.119682,-0.0612335
-0.0982311,0.183854,1.83812,0.00826829,-0.0154557,-0.201472,0.250504,-0.110393,-0.000551283
-0.0985303,0.18345,1.83385,-0.0870882,-0.0880785,-0.24416,0.188761,-0.1058,-0.0346102
-0.100493,0.181137,1.82699,-0.228516,-0.236604,-0.392623,0.146534,-0.121015,-0.059821
-0.103755,0.176046,1.81855,-0.32704,-0.196167,-0.345339,0.209574,-0.123919,-0.136489
-0.10414,0.171513,1.81322,-0.138539,0.0862615,-0.113733,0.23855,-0.0695455,-0.27175
-0.0998358,0.17187,1.81364,0.175915,0.328972,0.138025,0.211269,-0.0496933,-0.309419
-0.0934291,0.176876,1.81831,0.330258,0.344907,0.243476,0.106028,-0.0415897,-0.210813
-0.0892852,0.182736,1.82307,0.273463,0.153189,0.143453,-0.0299784,-0.0448569,-0.0899485
-0.087027,0.186997,1.82446,0.169156,0.13419,-0.0432318,-0.108995,-0.0464819,-0.0664092
-0.0820297,0.19011,1.82274,0.153804,0.372883,-0.124666,-0.133894,0.00808878,-0.102938
-0.0708841,0.19422,1.82085,0.249463,0.682053,-0.0788192,-0.147883,0.0715564,-0.107676
-0.0567342,0.200611,1.82064,0.39771,0.694487,0.0155251,-0.169073,0.100697,-0.0355173
-0.0448681,0.209902,1.82179,0.515278,0.497905,0.0323031,-0.23114,0.127279,0.0567178
-0.0383445,0.220061,1.82266,0.48167,0.163715,0.00543516,-0.275318,0.14877,0.146126
-0.0370684,0.228643,1.82287,0.381101,0.0212801,-0.0245919,-0.274329,0.147478,0.179437
-0.0358478,0.235234,1.82202,0.279255,0.0863719,-0.0844172,-0.283857,0.148704,0.177768
-0.0339144,0.239795,1.82008,0.173076,0.0329386,-0.113777,-0.261297,0.133286,0.209323
-0.0345055,0.242462,1.81777,0.0910834,-0.165069,-0.118817,-0.231021,0.107617,0.233905
-0.0397796,0.243992,1.81528,0.0586204,-0.407081,-0.136903,-0.203169,0.0699933,0.217767
-0.0480126,0.245118,1.81179,0.0323951,-0.467635,-0.219341,-0.19311,0.0297804,0.177609
-0.0553913,0.245286,1.806,-0.0605824,-0.404209,-0.344855,-0.166417,-0.00847879,0.163496
-0.0603624,0.243317,1.79764,-0.172815,-0.294058,-0.45133,-0.127532,-0.0268378,0.154095
-0.0629382,0.240302,1.78728,-0.170513,-0.223674,-0.531185,-0.0802374,-0.0436054,0.118147
-0.0640621,0.238417,1.77582,-0.0923576,-0.168482,-0.560053,-0.021548,-0.0474202,0.0903406
-0.0641962,0.237594,1.76455,-0.078033,-0.116573,-0.52056,0.0382564,-0.0444661,0.115581
-0.0641885,0.235927,1.75445,-0.161092,-0.130513,-0.449748,0.0852863,-0.0479172,0.160954
-0.065578,0.232702,1.74585,-0.20125,-0.219056,-0.364406,0.12216,-0.0642834,0.167733
-0.0693766,0.229525,1.73901,-0.150925,-0.303834,-0.279633,0.141539,-0.0760891,0.12077
-0.0740734,0.227557,1.73432,-0.0857698,-0.253931,-0.156824,0.165604,-0.0748172,0.0758886
-0.0777413,0.226153,1.73233,-0.0740178,-0.161617,-0.0265572,0.177721,-0.0781843,0.0642138
-0.0803806,0.224711,1.73291,-0.061377,-0.102474,0.0947426,0.177015,-0.0969539,0.0592354
-0.082999,0.223577,1.73578,-0.0243822,-0.102072,0.192739,0.155731,-0.110236,0.0445231
-0.0861018,0.223138,1.74032,0.0121732,-0.10347,0.249085,0.132707,-0.130882,0.0282207
-0.0888653,0.223001,1.7455,0.013175,-0.0518245,0.248824,0.103763,-0.157719,0.00747699
-0.0904714,0.222853,1.75026,0.0176984,-0.00212303,0.219287,0.093424,-0.180461,-0.0163887
-0.0907475,0.223032,1.75436,0.0101622,0.0337387,0.183615,0.099197,-0.186878,-0.0390661
-0.0901625,0.222827,1.75787,-0.0223414,0.0824785,0.169579,0.105194,-0.180013,-0.0647109
-0.0901625,0.222827,1.75787,-0.0223414,0.0824785,0.169579,0.105194,-0.180013,-0.0647109
-0.0888925,0.222181,1.76156,-0.0110761,0.125149,0.20158,0.121582,-0.172847,-0.110326
-0.0867377,0.222433,1.76631,0.0759231,0.205811,0.265139,0.13317,-0.160362,-0.163099
-0.0818714,0.224516,1.77232,0.157798,0.398999,0.279869,0.125183,-0.155707,-0.187971
-0.0754599,0.226463,1.77761,0.0393457,0.318016,0.229886,0.0865555,-0.114213,-0.117296
-0.0725606,0.224806,1.78218,-0.162067,0.0702121,0.23583,0.0933169,-0.0776047,-0.10126
-0.0732307,0.2212,1.78716,-0.120779,0.0214452,0.285039,0.104738,-0.0636958,-0.236239
-0.0723164,0.220557,1.79428,0.122479,0.249577,0.434623,0.100883,-0.0166087,-0.362376
-0.0667215,0.224614,1.80527,0.33038,0.552676,0.597646,0.0949961,0.0249301,-0.341132
-0.0566467,0.230252,1.81821,0.272382,0.699461,0.605345,0.0329208,0.031812,-0.188887
-0.046739,0.232951,1.82976,0.0535205,0.51963,0.497936,-0.0126911,0.00894082,-0.0438507
-0.0413331,0.232479,1.83916,-0.0260823,0.261118,0.440551,-0.00144669,0.0203077,-0.0371323
-0.0389154,0.232695,1.84917,0.1172,0.269379,0.559705,0.0444946,0.071986,-0.124719
-0.0343724,0.236845,1.86255,0.339747,0.502855,0.718425,0.0338336,0.113543,-0.147723
-0.026895,0.243956,1.87783,0.376867,0.560624,0.725605,-0.0149658,0.10098,-0.0199207
-0.0209599,0.249636,1.89211,0.21097,0.369665,0.641762,-0.0402838,0.0738025,0.132501
-0.0187149,0.251828,1.90413,0.0403683,0.150113,0.52208,-0.0523262,0.0747514,0.176877
-0.0201009,0.251454,1.91428,-0.0425613,-0.00859421,0.484046,-0.00868491,0.0990779,0.13425
-0.0229608,0.250371,1.92477,-0.039826,0.00092262,0.546917,0.0175433,0.152823,0.0660079
-0.0254492,0.249487,1.9369,-0.0163595,0.0570242,0.63551,0.0233617,0.178563,0.0284788
-0.0272739,0.24896,1.95051,-0.00358354,0.0875529,0.676571,0.0152298,0.174131,0.0336585
-0.0285533,0.248737,1.96438,0.024306,0.125854,0.670308,-0.00627995,0.143625,0.0443297
-0.0291114,0.249429,1.97815,0.0885106,0.151715,0.667671,-0.0183785,0.129754,0.0565489
-0.0298834,0.251521,1.99205,0.159562,0.105942,0.671928,-0.0385354,0.12673,0.0877163
-0.0317553,0.254672,2.00595,0.18778,0.059373,0.661398,-0.0570273,0.11704,0.123966
-0.0342484,0.257815,2.01908,0.163076,0.0255722,0.592619,-0.0759445,0.0967651,0.153623
-0.0368557,0.259836,2.03011,0.0600289,-0.0144382,0.458402,-0.10271,0.0800574,0.179536
-0.0406153,0.259117,2.03805,-0.101669,-0.170559,0.315182,-0.101163,0.0545976,0.191466
-0.0463988,0.256128,2.04264,-0.157574,-0.26657,0.142162,-0.0956491,0.029719,0.126417
-0.0516123,0.253236,2.04382,-0.125983,-0.209,-0.00698591,-0.0647409,0.0205724,0.043188
-0.0543038,0.251005,2.04288,-0.104002,-0.080907,-0.0559996,-0.00143982,0.0306805,0.00426847
-0.0548292,0.249122,2.04174,-0.0899637,-0.0182898,-0.0370359,0.0558719,0.0378896,0.00670481
-0.0556129,0.247563,2.04112,-0.0738365,-0.0983291,-0.0190346,0.078258,0.0241559,0.0152243
-0.058337,0.246155,2.04043,-0.0756614,-0.167657,-0.0469944,0.0732549,0.00296883,0.00757444
-0.0606532,0.24452,2.03876,-0.106341,-0.0838911,-0.114371,0.0738734,-0.019674,-0.0163174
-0.060361,0.24189,2.0355,-0.17165,0.0268596,-0.173673,0.0957081,-0.0373325,-0.0285009
-0.0586433,0.238507,2.03222,-0.163004,0.043495,-0.112638,0.149877,-0.0483094,-0.0445507
-0.0578695,0.236315,2.03095,-0.0540636,-0.00250423,0.00377561,0.174409,-0.0524844,-0.0802776
-0.0581647,0.236634,2.03213,0.0918452,0.00197944,0.105565,0.166467,-0.0772138,-0.104707
-0.058258,0.239669,2.035,0.217664,0.0492047,0.145354,0.129788,-0.103836,-0.101642
-0.0579276,0.244474,2.0384,0.264834,0.0541146,0.157584,0.108756,-0.116581,-0.0670226
-0.0581867,0.249598,2.04212,0.271225,-0.00281628,0.176533,0.0960552,-0.120005,-0.0421497
-0.0593899,0.255495,2.04628,0.358002,0.0156657,0.173826,0.0754794,-0.124595,-0.0762817
-0.0589186,0.262758,2.04925,0.336535,0.0748246,0.0536591,0.00774545,-0.0926116,-0.0594968
-0.0585989,0.266889,2.04897,0.0516088,-0.081926,-0.112597,-0.0231436,-0.0573898,0.0153087
-0.0611901,0.265161,2.04379,-0.245712,-0.306233,-0.388923,-0.0735841,-0.0537619,-0.0134404
-0.0655774,0.258937,2.03312,-0.408337,-0.345353,-0.57314,-0.0366602,-0.0521899,-0.160796
-0.066418,0.25228,2.02071,-0.30825,0.000605079,-0.564679,0.00869593,0.0105529,-0.333884
-0.0591731,0.249093,2.01004,-0.0788871,0.420273,-0.451495,0.0281539,0.0551039,-0.39108
-0.0471091,0.249411,2.00149,0.0419776,0.53687,-0.389832,0.0179246,0.0614846,-0.278172
-0.0350401,0.25025,1.99356,-0.0134869,0.456785,-0.380831,-0.0158172,0.050503,-0.124106
-0.0252975,0.249772,1.98635,-0.0234175,0.363685,-0.30317,-0.0257982,0.0651301,-0.0517269
-0.0165156,0.251234,1.98168,0.17915,0.408444,-0.148291,-0.036036,0.0986364,-0.0668346
-0.00804402,0.256885,1.98035,0.367677,0.399745,0.0086158,-0.0701466,0.129069,-0.0168387
-0.00804402,0.256885,1.98035,0.367677,0.399745,0.0086158,-0.0701466,0.129069,-0.0168387
-0.00159209,0.26484,1.98168,0.405224,0.232815,0.0917672,-0.112675,0.133383,0.0847774
0.000122709,0.272109,1.98344,0.318094,0.00943639,0.0675107,-0.148647,0.122355,0.164165
-0.0010075,0.277036,1.98431,0.167415,-0.0806709,0.014239,-0.178169,0.144081,0.181291
-0.0025472,0.278495,1.98391,-0.0246456,-0.0867794,-0.0516244,-0.187843,0.161612,0.186138
-0.00410195,0.276286,1.982,-0.186137,-0.133584,-0.12778,-0.16007,0.133364,0.17566
-0.0065586,0.271981,1.9791,-0.231898,-0.189943,-0.135516,-0.114837,0.12156,0.134347
-0.0102229,0.267776,1.97683,-0.179873,-0.233491,-0.0738399,-0.0639178,0.11473,0.0910357
-0.0144714,0.265047,1.97592,-0.0997706,-0.216193,-0.0111053,-0.0293388,0.0909948,0.0720959
-0.0185418,0.263578,1.97625,-0.0522953,-0.173993,0.041185,-0.0116253,0.0633777,0.0815548
-0.0216562,0.262652,1.97721,-0.0486163,-0.123771,0.0436522,-0.0209277,0.032988,0.106561
-0.0244043,0.261266,1.97779,-0.0953529,-0.144667,0.0127705,-0.0216227,0.0012233,0.137514
-0.0276339,0.25879,1.97756,-0.156229,-0.189446,-0.0296385,-0.015648,-0.0222563,0.145164
-0.0315243,0.255324,1.9765,-0.189309,-0.219904,-0.0606265,-0.0129291,-0.0369464,0.121306
-0.0351284,0.251558,1.97485,-0.197611,-0.176004,-0.0872655,-0.00506195,-0.0475039,0.0820487
-0.0374149,0.247339,1.97256,-0.232903,-0.104975,-0.11907,-0.00541911,-0.0570706,0.0566574
-0.0377771,0.242654,1.96973,-0.241066,0.00181324,-0.13245,0.00417579,-0.0717776,0.0235542
-0.0360369,0.238122,1.96711,-0.221207,0.101072,-0.0976964,0.0219511,-0.068047,0.0125642
-0.0336634,0.234303,1.96568,-0.163037,0.0810175,-0.0287073,0.0444868,-0.0684482,0.0240815
-0.0330267,0.231785,1.96584,-0.0992782,-0.0201886,0.0530659,0.0574979,-0.0678009,0.0401406
-0.0348114,0.229875,1.96761,-0.106989,-0.102326,0.119396,0.0542747,-0.0630991,0.0621401
-0.037433,0.227169,1.97007,-0.176522,-0.0994876,0.122583,0.03718,-0.0628199,0.0628588
-0.0397619,0.22309,1.97227,-0.230321,-0.0959159,0.109224,0.036264,-0.066201,0.0419068
-0.0421734,0.219053,1.97433,-0.17726,-0.117998,0.119246,0.0517736,-0.0623582,-0.0140067
-0.044622,0.216701,1.97709,-0.0709052,-0.0730453,0.174306,0.0773164,-0.0562316,-0.0584481
-0.0455779,0.216236,1.98161,0.0247565,0.083486,0.269674,0.0937566,-0.0522296,-0.0702314
-0.0436972,0.217015,1.98791,0.0694126,0.22427,0.336054,0.0719404,-0.0592663,-0.0409282
-0.0405911,0.218437,1.99483,0.0949601,0.205124,0.329641,0.0487253,-0.098558,0.0075683
-0.038744,0.220073,2.00123,0.0797518,0.119785,0.288251,0.0350841,-0.126181,0.0439815
-0.0379502,0.220777,2.00665,0.00685635,0.0930335,0.243622,0.0382257,-0.140265,0.0449714
-0.0369923,0.220162,2.01129,-0.0412734,0.0929354,0.214997,0.0565991,-0.151745,-0.00118482
-0.0360877,0.219595,2.0157,0.0192978,0.123352,0.230081,0.0777703,-0.154739,-0.0826179
-0.0326382,0.22124,2.02081,0.144652,0.339931,0.252743,0.100547,-0.14877,-0.142325
-0.026648,0.222986,2.02533,-0.0206369,0.294393,0.184753,0.0600734,-0.0984676,-0.0469859
-0.0249306,0.21905,2.02838,-0.358824,-0.0853251,0.104222,0.0485176,-0.0817085,0.0183119
-0.0303203,0.210102,2.02846,-0.492137,-0.39012,-0.0689766,0.0114911,-0.0789315,-0.140314
-0.0359807,0.201525,2.02634,-0.346933,-0.123117,-0.0637623,0.0543185,-0.0238511,-0.37988
-0.0338147,0.19813,2.02793,0.0375656,0.354776,0.248902,0.114766,0.0618111,-0.476423
-0.0235387,0.202194,2.03574,0.326735,0.805704,0.478104,0.0990611,0.0943125,-0.376066
-0.00865249,0.207622,2.04657,0.186935,0.834327,0.554208,0.00654403,0.0784632,-0.11598
0.00344019,0.209741,2.05774,0.0706657,0.585677,0.534732,-0.0507585,0.0187078,0.0279143
0.0100125,0.212422,2.06874,0.222867,0.337078,0.56585,-0.05535,0.033887,0.0202599
0.0138137,0.219164,2.0814,0.419836,0.337626,0.690158,-0.0485322,0.0763915,0.0153695
0.0171282,0.22832,2.09617,0.444258,0.312413,0.744195,-0.0647785,0.0815961,0.0905282
0.019399,0.236151,2.11077,0.30368,0.248802,0.687642,-0.0955195,0.0595234,0.162233
0.0193588,0.240872,2.12373,0.158101,0.0438947,0.581385,-0.115997,0.0662476,0.176042
0.015691,0.243551,2.13465,0.0969959,-0.139322,0.490681,-0.101256,0.0801547,0.132935
0.00988205,0.245145,2.14428,0.0449391,-0.183703,0.458371,-0.0813485,0.117346,0.0752948
0.00441142,0.245316,2.15366,-0.0323779,-0.133852,0.459442,-0.07714,0.15189,0.0320476
-0.000444361,0.244145,2.16299,-0.0645468,-0.152069,0.446237,-0.0845907,0.149731,0.00414258
-0.00600753,0.243215,2.17148,-0.02773,-0.19108,0.374226,-0.0962505,0.131587,-0.022674
-0.010972,0.242426,2.17857,-0.0553482,-0.100067,0.325135,-0.0830532,0.122413,-0.0285522
-0.0123918,0.240827,2.1851,-0.0840861,0.10387,0.315577,-0.0752158,0.116771,-0.0203123
-0.0109712,0.239654,2.1916,-0.0162752,0.164438,0.324254,-0.0689628,0.101121,0.0128045
-0.0100472,0.239921,2.19836,0.0304072,0.0683138,0.326947,-0.0642,0.0744327,0.0867711
-0.0100472,0.239921,2.19836,0.0304072,0.0683138,0.326947,-0.0642,0.0744327,0.0867711
-0.0117806,0.239951,2.2045,-0.0325199,-0.0866834,0.263451,-0.0796063,0.0375209,0.16162
-0.0150392,0.238394,2.2087,-0.115536,-0.13071,0.147535,-0.0813949,-0.000307679,0.171621
-0.0181039,0.235585,2.21039,-0.150923,-0.118368,0.0254997,-0.077383,-0.0108816,0.142858
-0.0197338,0.23268,2.21,-0.141237,-0.0670957,-0.0514244,-0.0513863,-0.00539061,0.116203
-0.0209978,0.229726,2.20857,-0.162155,-0.0996189,-0.0695549,-0.0113546,0.0104558,0.124317
-0.0232899,0.226223,2.20715,-0.190235,-0.169296,-0.0593321,0.0280504,0.0106601,0.118253
-0.0269845,0.222678,2.20586,-0.151263,-0.208625,-0.0626556,0.0373777,-0.00393461,0.065317
-0.0301085,0.220759,2.20453,-0.0516612,-0.12406,-0.0614939,0.0435031,-0.0156184,-0.0017004
-0.0313354,0.220305,2.20342,-0.00610391,-0.0201719,-0.0421666,0.0544531,-0.0168856,-0.01444
-0.0309814,0.220229,2.20264,-0.0130862,0.016524,-0.039392,0.0613258,-0.0340189,-0.000801861
-0.0308091,0.219919,2.20185,-0.0259278,-0.0304448,-0.0368694,0.0696895,-0.0565836,0.00241423
-0.0324978,0.219251,2.20103,-0.0475734,-0.156977,-0.0413695,0.0614232,-0.0695805,-0.0114999
-0.0362192,0.217935,2.19992,-0.0906808,-0.231799,-0.0664934,0.060898,-0.0874058,-0.055117
-0.0400289,0.215732,2.19805,-0.131791,-0.184904,-0.106799,0.0556311,-0.101001,-0.11965
-0.0420096,0.213381,2.19551,-0.108426,-0.069831,-0.124462,0.0581346,-0.110302,-0.186521
-0.0413937,0.211736,2.19314,-0.072467,0.0832831,-0.100507,0.0721045,-0.117754,-0.215019
-0.0392364,0.209701,2.19087,-0.15764,0.0406108,-0.120524,0.0320499,-0.111871,-0.172043
-0.0399847,0.205479,2.18736,-0.274655,-0.21715,-0.221826,-0.0262049,-0.11089,-0.150191
-0.0449294,0.200119,2.18139,-0.267517,-0.327126,-0.323621,-0.0206945,-0.141684,-0.237361
-0.0486615,0.196004,2.17487,-0.160467,-0.120567,-0.268349,-0.00151382,-0.0987667,-0.332885
-0.0459909,0.195286,2.17084,0.0753696,0.287529,-0.137785,-0.00520739,-0.0689988,-0.36204
-0.0378704,0.198811,2.16854,0.241632,0.435986,-0.115505,-0.038629,-0.0687312,-0.228653
-0.029297,0.203856,2.16616,0.240092,0.356709,-0.135613,-0.0464175,-0.0807564,-0.0338833
-0.0230121,0.20835,2.16327,0.211179,0.172833,-0.152595,-0.0540714,-0.0533163,0.0765337
-0.0224231,0.212839,2.16046,0.255145,-0.15868,-0.113303,-0.0167046,-0.00855233,0.110094
-0.0272,0.219278,2.15936,0.394304,-0.296713,-0.0135977,-0.00720694,0.0571396,0.0585795
-0.0321165,0.228324,2.16006,0.49545,-0.148454,0.0434909,-0.0283994,0.105771,0.0155064
-0.0333759,0.237857,2.16119,0.438602,0.025639,0.027271,-0.0613656,0.124933,0.0555934
-0.0333175,0.245269,2.16148,0.303792,-0.051323,-0.0261389,-0.090885,0.145619,0.115865
-0.0356253,0.250456,2.16032,0.21842,-0.196784,-0.108313,-0.110345,0.16232,0.115157
-0.0389461,0.254294,2.15744,0.156215,-0.167752,-0.184979,-0.118978,0.179205,0.0810751
-0.0395525,0.256611,2.15311,0.0468732,-0.00133188,-0.235441,-0.0984713,0.186681,0.0820082
-0.0371412,0.256383,2.14828,-0.0813034,0.0900097,-0.22241,-0.0590517,0.180081,0.121508
-0.035508,0.254124,2.14415,-0.146086,-0.0591666,-0.166442,-0.026934,0.165308,0.154347
-0.038201,0.251314,2.14127,-0.143069,-0.271838,-0.105953,-0.0158492,0.133061,0.146453
-0.0439965,0.248601,2.13952,-0.137089,-0.30764,-0.0546881,-0.0192746,0.10289,0.112683
-0.0482435,0.245962,2.13835,-0.127274,-0.12742,-0.0551865,-0.0321145,0.0649924,0.0720312
-0.0482394,0.243738,2.13687,-0.10934,0.062329,-0.0829441,-0.0338777,0.0193771,0.0706017
-0.0464069,0.241895,2.13521,-0.0750075,0.0591364,-0.0584721,-0.00618407,-0.0109604,0.115974
-0.046066,0.240975,2.13457,-0.021383,-0.0442578,0.00543325,0.0244555,-0.0281805,0.150221
-0.04839,0.240674,2.13519,-0.01235,-0.167722,0.0436153,0.0246076,-0.0541845,0.171457
-0.051993,0.240452,2.13553,-0.00627291,-0.152142,-0.0258095,-0.000978112,-0.103273,0.142815
-0.0532384,0.240404,2.13379,-0.0177842,-0.00932319,-0.143496,-0.0115341,-0.122623,0.114031
-0.051785,0.239751,2.12983,-0.0688386,0.0411155,-0.226639,0.000919245,-0.123821,0.111147
-0.0499491,0.238296,2.12485,-0.101988,0.012022,-0.239812,0.0249427,-0.122,0.0883123
-0.0480202,0.235926,2.1198,-0.172077,0.0862267,-0.23391,0.0475114,-0.11846,0.0396132
-0.0436456,0.232371,2.1151,-0.183049,0.251571,-0.207903,0.0396057,-0.121689,-0.0431998
-0.0366065,0.230102,2.11082,-0.0420464,0.323711,-0.196944,0.0128066,-0.135296,-0.116304
-0.0304575,0.23143,2.10721,0.149625,0.178035,-0.157127,0.00589833,-0.135575,-0.114774
-0.0282434,0.23516,2.10429,0.17826,-0.00840262,-0.147184,-0.00447422,-0.12868,-0.0638758
-0.0285525,0.237509,2.10114,0.0344177,-0.0583987,-0.171092,-0.020501,-0.126473,-0.042202
-0.0277674,0.2369,2.0973,-0.0867672,0.0532959,-0.191068,-0.0287366,-0.120336,-0.0986782
-0.0239865,0.235637,2.09378,-0.0178042,0.261925,-0.134483,-0.00776066,-0.116605,-0.181845
-0.0180581,0.236726,2.09172,0.100368,0.218181,-0.0661531,-0.0108888,-0.0902162,-0.167009
-0.0180581,0.236726,2.09172,0.100368,0.218181,-0.0661531,-0.0108888,-0.0902162,-0.167009
-0.0163815,0.23867,2.09145,0.081265,-0.0814885,0.0329535,0.00740212,-0.075311,-0.0716137
-0.0206108,0.239869,2.09203,0.0406026,-0.269749,0.00249034,-0.00114464,-0.103046,-0.0675793
-0.0248016,0.240358,2.09132,0.0121879,-0.134406,-0.0591957,-0.0147779,-0.098604,-0.124902
-0.0252375,0.240867,2.09015,0.0447253,0.0481731,-0.0498318,-0.00103683,-0.0623128,-0.150638
-0.0232268,0.24252,2.08939,0.112538,0.118685,-0.0292575,0.0210651,-0.0413446,-0.115463
-0.0209948,0.244804,2.08899,0.101164,0.0803255,-0.0119388,0.041806,-0.0260208,-0.0439602
-0.0200647,0.246449,2.08897,0.0694298,0.0110795,0.00785567,0.0598472,-0.0041765,0.000305593
-0.0208432,0.24763,2.08904,0.0495764,-0.0987799,-0.00277305,0.0722995,0.0159348,0.00454867
-0.0239571,0.248588,2.08913,0.0553108,-0.205789,0.025768,0.0886177,0.0381651,-0.0216179
-0.0286479,0.250438,2.09078,0.155409,-0.193099,0.14119,0.124857,0.0855661,-0.0817034
-0.0316157,0.254923,2.09549,0.298786,0.0404261,0.294772,0.151255,0.12418,-0.104761
-0.0296793,0.260415,2.10268,0.233043,0.296465,0.375717,0.137927,0.136007,-0.0251702
-0.0263596,0.262813,2.11105,0.0448233,0.186862,0.425179,0.117783,0.127169,0.0844071
-0.0277019,0.263115,2.12005,0.0427478,-0.0796135,0.441519,0.10281,0.112705,0.0769998
-0.0331267,0.264658,2.12934,0.130909,-0.183828,0.45685,0.0887912,0.131452,0.0180278
-0.0385418,0.266954,2.13946,0.111236,-0.0677358,0.513731,0.0846986,0.153291,-0.000813365
-0.0411427,0.267828,2.15023,0.0131349,0.0873373,0.51686,0.0554881,0.15543,0.0104528
-0.0411991,0.266886,2.16046,-0.0603399,0.160836,0.472637,0.0229904,0.136578,0.0215175
-0.0402947,0.265228,2.16961,-0.0580011,0.164821,0.427488,0.00158276,0.127348,0.0287484
-0.0394718,0.264264,2.17847,-0.0020171,0.153415,0.446244,0.010519,0.131636,0.0458015
-0.0389335,0.264165,2.18826,0.0179049,0.153393,0.492637,0.00919218,0.132381,0.0873667
-0.0390352,0.263715,2.19848,-0.0278081,0.0970392,0.489906,-0.0158059,0.111285,0.142412
-0.0403424,0.26234,2.20815,-0.0711117,0.0249541,0.451618,-0.0300791,0.0828883,0.163074
-0.0426311,0.260298,2.21697,-0.0949959,-0.0261996,0.408979,-0.0302743,0.074583,0.166668
-0.045689,0.257832,2.22456,-0.126029,-0.0858013,0.331587,-0.034343,0.0596566,0.162225
-0.0492208,0.254593,2.23027,-0.178173,-0.119053,0.238896,-0.0238113,0.0445611,0.161662
-0.052467,0.250199,2.23396,-0.235347,-0.112386,0.145176,0.00897052,0.033333,0.141801
-0.0550836,0.24545,2.23626,-0.218061,-0.0898925,0.116906,0.0569457,0.0320859,0.0973715
-0.0570021,0.241471,2.23884,-0.164424,-0.0421825,0.162864,0.0939231,0.0387988,0.0556071
-0.0582134,0.238544,2.24257,-0.110332,0.0156632,0.205301,0.0962364,0.0213374,0.030584
-0.0582695,0.236354,2.24605,-0.10476,0.0461986,0.131231,0.056587,-0.0201434,0.0294929
-0.058023,0.233489,2.24784,-0.181457,-0.00173959,0.0675263,0.046575,-0.0511278,0.0386869
-0.0594064,0.228881,2.24838,-0.275226,-0.130792,0.014177,0.0369186,-0.0624489,0.0130048
-0.0626165,0.222909,2.24779,-0.315386,-0.193281,-0.034392,0.0324477,-0.0842154,-0.0653337
-0.0658204,0.216845,2.24632,-0.288951,-0.152991,-0.0653415,0.0233543,-0.107284,-0.163519
-0.0675763,0.212289,2.24467,-0.159803,-0.0464341,-0.0575748,0.0170132,-0.128123,-0.248206
-0.0659567,0.211053,2.2435,0.00376991,0.18484,-0.0669272,0.0137415,-0.152067,-0.280632
-0.0618031,0.210752,2.24106,-0.0868311,0.133846,-0.172542,-0.0466737,-0.129397,-0.168402
-0.0604744,0.207509,2.23602,-0.254457,-0.146564,-0.298186,-0.0512869,-0.133241,-0.0988184
-0.0650244,0.202664,2.22902,-0.242337,-0.406393,-0.33741,-0.00403922,-0.120025,-0.174102
-0.0711651,0.199953,2.22298,-0.0512537,-0.266046,-0.223467,0.0363022,-0.0582281,-0.318669
-0.0725135,0.20154,2.21984,0.171435,0.054402,-0.109605,0.0267331,-0.0160389,-0.353122
-0.069333,0.205682,2.21823,0.199369,0.178108,-0.0974209,-0.00620306,-0.0282022,-0.234993
-0.0663367,0.209068,2.2156,0.126443,0.0619479,-0.194028,-0.0442557,-0.0375846,-0.124909
-0.0643292,0.211687,2.21063,0.111125,0.0503202,-0.293232,-0.0554057,-0.0144536,-0.118598
-0.0619561,0.215008,2.20492,0.2023,0.0807269,-0.26277,-0.0385845,0.0521617,-0.137128
-0.0583591,0.220805,2.20097,0.359241,0.197628,-0.151233,-0.0171562,0.104697,-0.126983
-0.0527158,0.229295,2.1996,0.46454,0.335125,-0.0421848,-0.0430633,0.138607,-0.0525351
-0.0452181,0.238715,2.19927,0.457993,0.382357,-0.0571255,-0.0942932,0.129841,0.0617139
-0.0380944,0.247089,2.19752,0.363553,0.272581,-0.150823,-0.131208,0.122024,0.156578
-0.0337398,0.253007,2.19343,0.215156,0.0569634,-0.248113,-0.144251,0.148235,0.213554
-0.0334008,0.256033,2.18856,0.0748498,-0.124735,-0.221619,-0.10307,0.184733,0.220036
-0.0353561,0.256494,2.18478,-0.0355345,-0.155031,-0.14625,-0.0799739,0.209685,0.194739
-0.0378557,0.255245,2.18232,-0.0910722,-0.160097,-0.097754,-0.0637823,0.180156,0.165852
-0.0378557,0.255245,2.18232,-0.0910722,-0.160097,-0.097754,-0.0637823,0.180156,0.165852
-0.0409481,0.253217,2.18024,-0.122173,-0.205576,-0.100487,-0.0644642,0.141176,0.15628
-0.0448518,0.250698,2.17796,-0.13479,-0.232918,-0.103462,-0.0478276,0.104815,0.142631
-0.0489373,0.248081,2.17616,-0.132195,-0.214399,-0.0530467,-0.0201762,0.0966641,0.12716
-0.0523388,0.245749,2.17573,-0.10434,-0.137185,0.0183711,-0.00328819,0.0827456,0.116714
-0.0547236,0.243896,2.1762,-0.0817974,-0.0922576,0.0224677,-0.0168992,0.0411832,0.129169
-0.0562787,0.241932,2.17586,-0.127399,-0.088731,-0.0514479,-0.0310214,-0.00781168,0.166544
-0.0581889,0.238642,2.17366,-0.210781,-0.156589,-0.146479,-0.033229,-0.0427149,0.185485
-0.0609538,0.233882,2.16955,-0.29241,-0.220865,-0.214397,-0.0211714,-0.0549568,0.167607
-0.0647307,0.227541,2.16451,-0.365095,-0.260818,-0.229525,0.000533514,-0.0587037,0.119233
-0.0685047,0.220544,2.15942,-0.350817,-0.22066,-0.213589,0.0101526,-0.0648091,0.0351202
-0.0707835,0.214877,2.15504,-0.239668,-0.09639,-0.172419,0.0148073,-0.0765675,-0.0454177
-0.070893,0.211238,2.1517,-0.155721,0.0121037,-0.132274,0.0191189,-0.0844728,-0.0658216
-0.0692878,0.208565,2.14891,-0.135399,0.0742828,-0.128174,0.0115187,-0.106482,-0.0462656
-0.06739,0.20629,2.14617,-0.101635,0.0531577,-0.116124,0.0243312,-0.116078,-0.0359668
-0.0661607,0.204949,2.14442,-0.0417251,0.0376129,-0.0328205,0.046693,-0.102101,-0.0400078
-0.0655594,0.20464,2.14474,0.00697803,0.0245583,0.0573614,0.0447517,-0.089113,-0.0378466
-0.0657445,0.204826,2.14627,0.00361586,-0.0226538,0.0757342,0.0139546,-0.105761,-0.020257
-0.0669231,0.204695,2.14735,-0.0115461,-0.0652714,0.026059,-0.0200179,-0.129556,-0.0228551
-0.0682174,0.204926,2.14743,0.0374768,-0.0548205,-0.0149218,-0.0110967,-0.139477,-0.0528795
-0.0684767,0.20638,2.14739,0.104375,0.0413573,0.0103835,0.0122991,-0.122596,-0.0735331
-0.0665253,0.208752,2.14812,0.12512,0.159859,0.0432537,0.0282594,-0.114661,-0.0572293
-0.0636265,0.210866,2.14925,0.0878831,0.130429,0.0478785,0.0299793,-0.124693,-0.0061689
-0.0624153,0.212385,2.15043,0.0788472,0.0120246,0.0608095,0.0460198,-0.1381,0.00269663
-0.0631984,0.21447,2.15204,0.14278,-0.0170346,0.0902086,0.0424681,-0.134323,-0.0464678
-0.0622806,0.217827,2.15396,0.177127,0.138091,0.0590389,0.0208222,-0.135378,-0.0792803
-0.0596416,0.219823,2.15435,0.00242574,0.0982815,-0.0332459,-0.0336402,-0.0999519,-0.020077
-0.0590086,0.218213,2.15201,-0.162023,-0.08877,-0.207691,-0.0459702,-0.118186,-0.0311964
-0.0606622,0.214781,2.14529,-0.213861,-0.1982,-0.410021,-0.0550867,-0.105989,-0.141214
-0.061059,0.211344,2.1362,-0.174086,0.00178374,-0.430945,-0.0133041,-0.0480693,-0.266794
-0.0566872,0.209861,2.12816,-0.00124014,0.308985,-0.343746,0.0210968,0.00521432,-0.324704
-0.0458179,0.212254,2.12216,0.184052,0.609658,-0.263906,-0.00103279,0.0396739,-0.284469
-0.0325357,0.216464,2.11782,0.202849,0.580863,-0.170403,-0.00304964,0.056712,-0.11057
-0.0224102,0.220562,2.11527,0.211552,0.3808,-0.100382,-0.0424045,0.0495275,0.008214
-0.0163634,0.225293,2.11365,0.260459,0.180893,-0.0703547,-0.0907097,0.0519437,0.0456128
-0.0135534,0.230847,2.11262,0.290874,0.109927,-0.0464538,-0.116506,0.0587123,0.070933
-0.011259,0.236428,2.11134,0.259566,0.0893181,-0.0951976,-0.151942,0.0665985,0.0930451
-0.00941523,0.240972,2.10865,0.191853,0.0104689,-0.172056,-0.167523,0.0642694,0.111826
-0.00991878,0.24418,2.10465,0.124646,-0.200055,-0.220367,-0.153202,0.0842133,0.110547
-0.0155605,0.24616,2.09975,0.080629,-0.462171,-0.255021,-0.150025,0.119033,0.0856436
-0.0245954,0.247854,2.09397,0.0806384,-0.546183,-0.317403,-0.143654,0.137719,0.0155348
-0.0323549,0.249625,2.08646,0.0733881,-0.398765,-0.413094,-0.157756,0.151613,-0.0386279
-0.0365255,0.251394,2.07771,0.0853069,-0.239619,-0.428558,-0.12201,0.162328,-0.050573
-0.03789,0.253861,2.06953,0.134379,-0.122388,-0.369569,-0.0944672,0.18997,-0.0275567
-0.0387803,0.256846,2.06272,0.126567,-0.160818,-0.311694,-0.0943371,0.194842,0.0373765
-0.0417338,0.258957,2.05637,0.0513963,-0.298138,-0.324879,-0.12361,0.172286,0.0954394
-0.0470386,0.259467,2.04892,-0.0245376,-0.415688,-0.400394,-0.14129,0.138844,0.0975531
-0.0535357,0.259192,2.04017,-0.0330627,-0.441561,-0.43413,-0.115666,0.133665,0.0607172
-0.0594845,0.259425,2.03134,0.00712142,-0.381964,-0.426643,-0.101475,0.134806,0.0262753
-0.0646371,0.260234,2.02208,0.00460877,-0.386786,-0.492554,-0.118735,0.10449,0.0381187
-0.0698181,0.260526,2.01027,-0.0528619,-0.432345,-0.660887,-0.139288,0.0597433,0.0618315
-0.0749466,0.26019,1.99477,-0.0858221,-0.477772,-0.825581,-0.136323,0.0504465,0.0537927
-0.0800438,0.25993,1.97654,-0.0732362,-0.492305,-0.934152,-0.115049,0.0634857,0.0222432
-0.0844302,0.260486,1.9561,-0.0356846,-0.446373,-1.05194,-0.112195,0.0654115,-0.0145482
-0.0860084,0.261778,1.93285,-0.0379134,-0.326753,-1.20904,-0.136858,0.0651035,-0.0244098
-0.0860084,0.261778,1.93285,-0.0379134,-0.326753,-1.20904,-0.136858,0.0651035,-0.0244098
-0.0848832,0.263211,1.90583,-0.0486017,-0.267305,-1.41468,-0.151079,0.0513507,-0.0131367
-0.0822024,0.264312,1.875,-0.0918431,-0.287404,-1.54674,-0.140377,0.076812,0.00594312
-0.0801833,0.264664,1.84283,-0.118025,-0.354648,-1.55993,-0.114067,0.10944,0.00463611
-0.0800465,0.264834,1.81029,-0.108768,-0.485589,-1.5853,-0.107733,0.100799,-0.0102139
-0.0819684,0.265555,1.77721,-0.0721996,-0.542892,-1.61461,-0.0971103,0.0739834,-0.035714
-0.0827461,0.267581,1.74347,0.0118941,-0.394553,-1.67049,-0.0960097,0.0616252,-0.0709604
-0.0794317,0.271082,1.70779,0.0308681,-0.265078,-1.79271,-0.153133,0.108961,-0.0396477
-0.0762867,0.273695,1.67021,-0.0396758,-0.444218,-1.82481,-0.103244,0.124249,0.04085
-0.0747482,0.274861,1.6325,-0.140325,-0.511434,-1.83199,-0.0776912,0.11765,0.0410742
-0.0756414,0.273609,1.59383,-0.279103,-0.474357,-1.89271,-0.0646623,0.0880637,0.0138209
-0.0728902,0.269367,1.55341,-0.415995,-0.378708,-1.97765,-0.0701049,0.0710992,0.0118407
-0.0687554,0.263812,1.5109,-0.407483,-0.377601,-2.0751,-0.0709741,0.0820822,-0.0161261
-0.0673508,0.258964,1.46832,-0.336287,-0.60497,-1.98786,0.00112157,0.106024,-0.0314159
-0.0722115,0.256224,1.42824,-0.209737,-0.853013,-1.84799,0.0523374,0.128186,-0.057445
-0.0806353,0.254932,1.39233,-0.21075,-0.872399,-1.62311,0.0830107,0.144056,-0.0717645
-0.0888472,0.252879,1.36043,-0.246854,-0.727545,-1.4644,0.0690781,0.130244,-0.0911801
-0.0939147,0.250624,1.3307,-0.236316,-0.521289,-1.39362,0.0338555,0.0978769,-0.141026
-0.0956097,0.249081,1.30304,-0.154622,-0.350525,-1.25098,0.033253,0.102287,-0.160806
-0.0964536,0.250285,1.27924,0.0674616,-0.346045,-1.07375,0.0483054,0.100463,-0.152162
-0.098663,0.25542,1.25847,0.215173,-0.401837,-1.00152,0.00543313,0.099667,-0.09858
-0.102067,0.261023,1.23853,0.10981,-0.437145,-0.9819,-0.00986826,0.0965245,-0.00533229
-0.105347,0.262851,1.2187,-0.123868,-0.393682,-0.947369,-0.00746819,0.107705,0.0445434
-0.106926,0.261352,1.1992,-0.187628,-0.256729,-0.913158,-0.0199641,0.111415,-0.00682199
-0.106185,0.260374,1.18052,-0.0964444,-0.174606,-0.873693,-0.0319248,0.105572,-0.0487161
-0.106022,0.260792,1.16319,-0.0554009,-0.271065,-0.798143,-0.0293466,0.0913571,-0.00214499
-0.108354,0.260791,1.14741,-0.11544,-0.366959,-0.726196,-0.0273808,0.0786,0.0477698
-0.112407,0.259195,1.13246,-0.198065,-0.412069,-0.703349,-0.0368098,0.0562137,0.0508133
-0.116774,0.256316,1.11756,-0.246735,-0.407999,-0.703685,-0.0397173,0.0305118,0.02486
-0.121081,0.252986,1.1027,-0.249021,-0.399639,-0.680905,-0.0404227,0.0223299,-0.00762326
-0.125722,0.24983,1.08875,-0.226205,-0.41057,-0.626552,-0.0399092,0.00424354,-0.0232666
-0.13022,0.24748,1.07551,-0.172796,-0.350684,-0.63478,-0.055073,-0.0428496,-0.039088
-0.132728,0.246377,1.06135,-0.119501,-0.245522,-0.724323,-0.0792225,-0.081868,-0.0256507
-0.132675,0.246381,1.04532,-0.0903996,-0.150141,-0.813604,-0.0786485,-0.094742,0.0144094
-0.13139,0.246674,1.02798,-0.111452,-0.172797,-0.858864,-0.0534034,-0.076758,0.0837622
-0.131702,0.246374,1.00998,-0.144562,-0.29817,-0.869403,-0.00824879,-0.0636821,0.128946
-0.134321,0.245481,0.992101,-0.178969,-0.393533,-0.83694,0.0327649,-0.0379223,0.134654
-0.138296,0.243386,0.974884,-0.266156,-0.384714,-0.803008,0.0624422,-0.0256727,0.125187
-0.140768,0.238886,0.957791,-0.407578,-0.280897,-0.78031,0.0727204,-0.0456366,0.105455
-0.142267,0.232649,0.94088,-0.415655,-0.274326,-0.774894,0.0798772,-0.0815931,0.0594656
-0.144289,0.227544,0.923852,-0.327914,-0.322619,-0.79033,0.0944892,-0.0936737,0.0106999
-0.14749,0.224139,0.90763,-0.247777,-0.34629,-0.713032,0.150757,-0.0714343,-0.01529
-0.15116,0.221863,0.89383,-0.180596,-0.323328,-0.589974,0.189787,-0.0505523,-0.0345966
-0.155009,0.220596,0.882262,-0.120945,-0.318456,-0.520204,0.193876,-0.0596463,-0.0430885
-0.158547,0.219974,0.87165,-0.115431,-0.250286,-0.495911,0.193477,-0.0706141,-0.0501918
-0.160329,0.219111,0.86171,-0.12453,-0.146363,-0.444084,0.19199,-0.0550533,-0.0530138
-0.160414,0.218229,0.853089,-0.0946148,-0.050862,-0.375184,0.200937,-0.0522979,-0.0643739
-0.158879,0.2179,0.845969,-0.0461127,0.0584848,-0.300445,0.19158,-0.0478731,-0.0736327
-0.155427,0.218473,0.840955,0.0288462,0.177285,-0.191326,0.168532,-0.038144,-0.0732732
-0.150378,0.220351,0.838144,0.112942,0.258836,-0.118233,0.118053,-0.0375614,-0.0464835
-0.144565,0.223279,0.836349,0.134675,0.279546,-0.109335,0.075499,-0.0549542,0.00597405
-0.138479,0.225849,0.834653,0.0902825,0.299698,-0.0906702,0.0454045,-0.0510293,0.0484502
-0.131872,0.227738,0.833066,0.076251,0.323889,-0.0908177,0.0133189,-0.0283609,0.0633775
-0.125572,0.228977,0.831407,0.000727624,0.237983,-0.0766646,-0.0127003,-0.0106437,0.101118
-0.125572,0.228977,0.831407,0.000727624,0.237983,-0.0766646,-0.0127003,-0.0106437,0.101118
-0.122657,0.22798,0.829832,-0.110171,0.0294464,-0.0804411,-0.0135369,-0.0449548,0.118067
-0.12242,0.225832,0.82716,-0.125136,-0.0340275,-0.154201,-0.0696301,-0.0418301,0.0490861
-0.12207,0.223743,0.823233,-0.141862,-0.0225528,-0.196868,-0.100338,-0.0213742,-0.00311416
-0.12168,0.221022,0.818632,-0.181031,-0.0275785,-0.221486,-0.101726,-0.0185656,-0.028519
-0.120459,0.217922,0.812809,-0.195755,0.0286447,-0.322189,-0.145781,-0.0273285,-0.0719556
-0.117315,0.214698,0.804312,-0.226457,0.102282,-0.455439,-0.175329,-0.0361236,-0.103238
-0.11256,0.211296,0.793893,-0.226463,0.144035,-0.501777,-0.150856,-0.0293777,-0.120072
-0.106741,0.208426,0.783357,-0.164311,0.239051,-0.491027,-0.136017,-0.0223273,-0.140461
-0.0984966,0.207236,0.773032,-0.0625454,0.366639,-0.514638,-0.135273,-0.0403838,-0.132814
-0.0884029,0.207437,0.762167,-0.03306,0.401415,-0.545141,-0.131546,-0.0563766,-0.0672209
-0.078041,0.207757,0.75079,-0.0240732,0.399088,-0.568548,-0.121957,-0.0606871,-0.0169901
-0.0685886,0.208434,0.739218,0.0119726,0.301609,-0.561728,-0.11404,-0.0357474,0.0111662
-0.0612595,0.210059,0.728034,0.0775839,0.190217,-0.547965,-0.122635,-0.0220277,0.0147583
-0.0563674,0.212672,0.716727,0.113173,0.0841517,-0.57713,-0.157517,-0.00349702,0.0132258
-0.0527376,0.215608,0.704424,0.106182,0.0170615,-0.654107,-0.18569,0.0121287,0.0107667
-0.0498972,0.218438,0.690264,0.112254,-0.0305647,-0.739479,-0.19992,0.0366357,-6.02007e-05
-0.047271,0.221355,0.675061,0.0976631,-0.039229,-0.745434,-0.180767,0.0721973,-0.00975704
-0.0451126,0.223438,0.660351,0.0429562,-0.0703916,-0.700469,-0.180297,0.108852,-0.00332874
-0.0439583,0.224677,0.646061,0.0302647,-0.130253,-0.716701,-0.199668,0.0956097,-0.0171798
-0.043331,0.226141,0.630752,0.0435164,-0.143049,-0.786726,-0.225501,0.0834871,-0.0278561
-0.0424992,0.227256,0.61443,-0.00690668,-0.142447,-0.797732,-0.215244,0.0990687,0.000843942
-0.0421423,0.227569,0.598466,-0.0131285,-0.197879,-0.758194,-0.193881,0.0987639,0.0199836
-0.043968,0.228368,0.583371,0.0281172,-0.343617,-0.704283,-0.189182,0.0958947,0.0300112
-0.0497622,0.229918,0.570041,0.0654934,-0.532637,-0.609099,-0.17755,0.0952527,0.0433417
-0.0588633,0.232606,0.557654,0.134352,-0.658832,-0.640231,-0.209158,0.0688926,0.0302522
-0.0695539,0.236342,0.543186,0.138527,-0.740996,-0.808569,-0.236511,0.0355702,0.0292222
-0.0800888,0.240135,0.524612,0.0944216,-0.733388,-1.02534,-0.220586,0.0249431,0.0223306
-0.0885754,0.242975,0.501986,-0.000545758,-0.659953,-1.17977,-0.184982,0.0599574,0.0220278
-0.0948212,0.244535,0.47667,-0.0675492,-0.568425,-1.29121,-0.119868,0.0827425,0.00989777
-0.0985845,0.245188,0.448759,-0.132755,-0.504416,-1.42224,-0.0911337,0.106767,0.00845701
-0.101214,0.245023,0.418153,-0.177973,-0.521485,-1.53542,-0.0451807,0.124476,0.0134457
-0.104696,0.244565,0.386033,-0.182112,-0.603419,-1.54369,0.0313118,0.156258,0.00507593
-0.109746,0.24435,0.355283,-0.157429,-0.638319,-1.4152,0.107249,0.191083,-0.0186359
-0.115389,0.244527,0.327463,-0.129992,-0.5892,-1.28281,0.133147,0.198198,-0.041739
-0.120173,0.24517,0.301658,-0.104304,-0.511137,-1.23216,0.109829,0.180527,-0.056035
-0.123745,0.246122,0.276198,-0.112911,-0.483345,-1.24132,0.0847828,0.167061,-0.0473022
-0.127252,0.246712,0.250456,-0.140348,-0.489119,-1.25138,0.0866742,0.158554,-0.0410347
-0.130476,0.246815,0.224481,-0.179911,-0.468282,-1.25594,0.0775335,0.156945,-0.0540956
-0.132842,0.246332,0.198329,-0.199711,-0.404761,-1.26407,0.0645038,0.142515,-0.0824476
-0.134127,0.245834,0.172062,-0.183287,-0.375624,-1.25437,0.0536394,0.126743,-0.102238
-0.135658,0.246025,0.14643,-0.124463,-0.398994,-1.22097,0.0531521,0.114019,-0.119269
-0.137297,0.247723,0.121552,-0.0325231,-0.360893,-1.20727,0.0332308,0.101673,-0.138634
-0.137119,0.251095,0.0964947,0.0230262,-0.224867,-1.27209,-0.0275236,0.10781,-0.128693
-0.133401,0.254565,0.068938,-0.0692763,-0.123426,-1.43257,-0.104832,0.130319,-0.0559011
-0.128841,0.25527,0.0376167,-0.26016,-0.230599,-1.58888,-0.0992351,0.118809,0.0256916
-0.125721,0.25303,0.00286928,-0.369679,-0.316435,-1.71891,-0.0703293,0.089771,0.0125648
-0.122307,0.250168,-0.0334467,-0.332593,-0.218593,-1.73087,-0.0327816,0.0865712,-0.0656037
-0.116605,0.248681,-0.0689139,-0.222757,-0.113417,-1.66942,-0.0126346,0.103929,-0.0890407
-0.111085,0.248715,-0.102818,-0.163587,-0.196684,-1.61347,-0.00656822,0.0901984,-0.0344402
-0.108315,0.248783,-0.136022,-0.196927,-0.334324,-1.60149,-0.0187452,0.073556,0.0216842
-0.107443,0.247796,-0.169034,-0.241833,-0.375136,-1.58028,-0.0193456,0.0714092,0.0223215
-0.107013,0.246367,-0.201466,-0.229708,-0.371835,-1.53384,-0.016625,0.0843821,-0.00954348
-0.107044,0.245493,-0.232556,-0.175683,-0.406167,-1.46217,-0.0153209,0.0863424,-0.0319183
-0.108502,0.245831,-0.262251,-0.103211,-0.4587,-1.4238,-0.024117,0.0789186,-0.0414141
-0.108502,0.245831,-0.262251,-0.103211,-0.4587,-1.4238,-0.024117,0.0789186,-0.0414141
-0.110664,0.247085,-0.29144,-0.0931582,-0.464418,-1.41164,-0.0362417,0.0795549,-0.0355693
-0.112534,0.248158,-0.320509,-0.113872,-0.439315,-1.41933,-0.0541072,0.0882552,-0.0280218
-0.113723,0.249302,-0.350179,-0.0912041,-0.403526,-1.45588,-0.0719759,0.0884178,-0.0390518
-0.114008,0.251234,-0.380175,-0.0486185,-0.374949,-1.45303,-0.0716029,0.103031,-0.0390398
-0.114072,0.253859,-0.409788,-0.0212894,-0.381812,-1.43696,-0.0773083,0.124401,-0.0174662
-0.114341,0.25672,-0.439394,-0.0353852,-0.39393,-1.45697,-0.0836773,0.13248,0.0127768
-0.114672,0.258852,-0.469791,-0.0960639,-0.418755,-1.49688,-0.0998405,0.138692,0.0400171
-0.115677,0.259824,-0.500896,-0.148543,-0.490997,-1.5057,-0.0886955,0.141188,0.0525819
-0.118192,0.260327,-0.531913,-0.14616,-0.549046,-1.48236,-0.0695128,0.149776,0.032242
-0.121389,0.261143,-0.562016,-0.124699,-0.538268,-1.42463,-0.055225,0.158149,0.0127735
-0.124289,0.262171,-0.59142,-0.130858,-0.516224,-1.42378,-0.0551018,0.14634,0.020223
-0.126909,0.262609,-0.62115,-0.194731,-0.530581,-1.44066,-0.0504697,0.133304,0.0437955
-0.130503,0.262082,-0.651157,-0.224434,-0.59945,-1.43494,-0.0359774,0.13455,0.0437907
-0.134968,0.261486,-0.680943,-0.220213,-0.60951,-1.40828,-0.00742078,0.129397,0.0170209
-0.139278,0.261052,-0.710038,-0.213119,-0.561831,-1.39584,-0.00700408,0.120967,0.00388265
-0.142412,0.260471,-0.739703,-0.257228,-0.523865,-1.44662,-0.00503832,0.0934278,0.0091601
-0.14462,0.258915,-0.77045,-0.318817,-0.489926,-1.4773,0.006531,0.0901382,0.0151861
-0.146413,0.256726,-0.801638,-0.333702,-0.480499,-1.48065,0.034084,0.0932254,0.000609457
-0.148106,0.254663,-0.83268,-0.313067,-0.468578,-1.46489,0.0626668,0.0864832,-0.0154262
-0.149493,0.253004,-0.862972,-0.290596,-0.428255,-1.41177,0.0859526,0.087243,-0.0285801
-0.150732,0.251597,-0.891883,-0.270441,-0.416011,-1.34672,0.0933862,0.0922282,-0.0250858
-0.152551,0.250277,-0.919716,-0.271491,-0.456723,-1.31319,0.0977722,0.08831,-0.0138434
-0.15434,0.249227,-0.947306,-0.23952,-0.390816,-1.32911,0.074088,0.068936,-0.0392576
-0.154902,0.24886,-0.975243,-0.216522,-0.351471,-1.3405,0.0693602,0.0695724,-0.0454014
-0.154271,0.249139,-1.0032,-0.180547,-0.275551,-1.35177,0.0669609,0.06792,-0.0481371
-0.152602,0.249557,-1.03137,-0.210341,-0.259762,-1.35629,0.0671167,0.0743221,-0.0122863
-0.151142,0.24885,-1.05956,-0.272583,-0.295829,-1.34023,0.0763487,0.0705235,0.019564
-0.15069,0.247422,-1.08757,-0.273634,-0.33795,-1.33168,0.0743818,0.0670791,0.00631994
-0.150534,0.246059,-1.11528,-0.270219,-0.322086,-1.30711,0.0785088,0.0671918,-0.0138361
-0.150006,0.244184,-1.1424,-0.317877,-0.288777,-1.27413,0.0827854,0.0628553,-0.017109
-0.149266,0.241298,-1.16892,-0.339019,-0.276261,-1.23268,0.0930884,0.0427048,-0.0258527
-0.148575,0.238572,-1.1943,-0.291914,-0.260335,-1.16808,0.0943677,0.0356316,-0.0513119
-0.147977,0.236663,-1.21803,-0.249288,-0.23667,-1.09463,0.0945455,0.023339,-0.0490267
-0.147569,0.234841,-1.24052,-0.263926,-0.255318,-1.05215,0.0765614,0.00145696,-0.0193422
-0.148004,0.232312,-1.26251,-0.302852,-0.278731,-1.03747,0.0568937,-0.0212826,-0.00820529
-0.148001,0.229225,-1.28462,-0.321097,-0.236864,-1.05425,0.0401192,-0.0354724,-0.0220177
-0.147519,0.226087,-1.30699,-0.307493,-0.221406,-1.05856,0.0291232,-0.0440536,-0.0365219
-0.147242,0.223514,-1.32923,-0.262508,-0.249613,-1.05315,0.0279794,-0.0451271,-0.0476338
-0.147524,0.221694,-1.35108,-0.23626,-0.258069,-1.03768,0.0257771,-0.0478021,-0.0483297
-0.147636,0.220161,-1.37283,-0.232528,-0.223475,-1.05176,0.00861581,-0.0526703,-0.0462891
-0.146671,0.218546,-1.39515,-0.251372,-0.166344,-1.08494,0.00564522,-0.0607618,-0.0389065
-0.144844,0.216368,-1.41782,-0.290858,-0.149656,-1.07261,0.0206718,-0.0534288,-0.0196733
-0.143357,0.213313,-1.4399,-0.313604,-0.194009,-1.01735,0.0348922,-0.0501569,-0.00870383
-0.14408,0.210257,-1.46061,-0.265715,-0.306193,-0.954574,0.0467614,-0.0700822,-0.0322629
-0.146054,0.208572,-1.48015,-0.177954,-0.277146,-0.92172,0.0338759,-0.0912002,-0.0771173
-0.146542,0.208318,-1.49897,-0.124536,-0.15948,-0.897477,0.0234458,-0.09801,-0.0829332
-0.145196,0.208748,-1.51706,-0.0945923,-0.0969125,-0.867271,0.0239759,-0.0976505,-0.0486501
-0.143699,0.209461,-1.53475,-0.0874109,-0.127183,-0.868397,0.0179134,-0.101256,-0.00282484
-0.143118,0.210276,-1.55297,-0.0924944,-0.201974,-0.91037,0.00724022,-0.0979409,0.0261564
-0.14389,0.211055,-1.57192,-0.0917682,-0.259086,-0.938047,0.0230703,-0.0933805,0.0260705
-0.145076,0.212125,-1.59112,-0.0682265,-0.248692,-0.935887,0.0522918,-0.0859859,-0.000396311
-0.14557,0.213782,-1.60964,-0.0308247,-0.184919,-0.881634,0.0901947,-0.0683909,-0.0172769
-0.144622,0.216256,-1.6268,0.0367611,-0.0937908,-0.819287,0.105163,-0.0544077,-0.0225024
-0.142921,0.219685,-1.64257,0.0732639,-0.101856,-0.758356,0.112705,-0.0485422,0.00764143
-0.142921,0.219685,-1.64257,0.0732639,-0.101856,-0.758356,0.112705,-0.0485422,0.00764143
-0.142875,0.223039,-1.65709,0.0565735,-0.208832,-0.698363,0.118186,-0.0541045,0.0434179
-0.144531,0.226039,-1.67062,0.06106,-0.247151,-0.657416,0.1192,-0.0663928,0.0237725
-0.145947,0.229615,-1.68343,0.125466,-0.171523,-0.638198,0.0952408,-0.0573397,-0.0222245
-0.145806,0.234433,-1.69603,0.160224,-0.119391,-0.657573,0.0773817,-0.0412221,-0.0221258
-0.145122,0.238859,-1.70932,0.0741029,-0.135126,-0.690943,0.0774118,-0.0346157,0.0193178
-0.145098,0.241205,-1.72332,-0.0233263,-0.195915,-0.686565,0.0965194,-0.0204957,0.0224007
-0.145853,0.242757,-1.73711,0.00340999,-0.194687,-0.656433,0.12722,-0.00792678,-0.0467075
-0.145846,0.245658,-1.74963,0.104939,-0.0958443,-0.58015,0.155966,0.0156102,-0.105842
-0.144412,0.25008,-1.75992,0.179765,-0.0149614,-0.470885,0.180846,0.0398396,-0.102686
-0.142559,0.255031,-1.76766,0.195398,-0.0125254,-0.349184,0.183319,0.0513167,-0.0643622
-0.141971,0.259571,-1.77362,0.166495,-0.0812856,-0.308093,0.148168,0.0365579,-0.025081
-0.142375,0.263071,-1.7799,0.0893373,-0.116992,-0.350206,0.112308,0.00391293,-0.00961286
-0.142323,0.264867,-1.78765,-0.0155792,-0.0712016,-0.413092,0.0978185,-0.0125113,-0.0162647
-0.140919,0.265099,-1.79633,-0.0681949,-0.0240321,-0.406689,0.118441,-0.00896111,-0.0387928
-0.139419,0.265002,-1.80385,-0.029996,-0.0295226,-0.302878,0.149543,0.000833064,-0.0673741
-0.138956,0.266043,-1.80865,0.0683964,-0.0550031,-0.17124,0.1586,0.00699487,-0.0803695
-0.139991,0.268461,-1.81072,0.136939,-0.101876,-0.0664197,0.144378,0.00775599,-0.060633
-0.142502,0.271485,-1.81096,0.157086,-0.149631,-0.001628,0.133355,0.00513145,-0.0274399
-0.146096,0.274462,-1.80985,0.154867,-0.179334,0.0741102,0.13616,0.0175046,-0.0040583
-0.150796,0.277345,-1.80675,0.180537,-0.203226,0.180572,0.150023,0.0365441,0.0010727
-0.156299,0.280546,-1.80179,0.203053,-0.218237,0.227884,0.127697,0.0494637,0.00587744
-0.162287,0.283525,-1.79681,0.160503,-0.236015,0.185403,0.095814,0.0389426,0.0187646
-0.167724,0.285578,-1.7934,0.106383,-0.198101,0.104124,0.0717223,0.0412332,0.00209552
-0.170948,0.287492,-1.7916,0.122895,-0.0585655,0.0363339,0.0670651,0.0641264,-0.0426753
-0.170357,0.29024,-1.79091,0.167203,0.101501,-0.00863976,0.0806565,0.086048,-0.0475011
-0.167707,0.293363,-1.79052,0.15233,0.138551,0.00448049,0.115036,0.112172,0.00591898
-0.165247,0.295863,-1.78958,0.121762,0.114205,0.0496233,0.137436,0.131089,0.0521019
-0.163975,0.297562,-1.78778,0.0829192,0.0560127,0.0871922,0.130997,0.138451,0.0712968
-0.163475,0.298586,-1.78564,0.0552221,0.064824,0.0996175,0.126769,0.133036,0.0657985
-0.162519,0.29869,-1.78331,-0.00633685,0.0876965,0.131844,0.12751,0.133685,0.0702653
-0.161934,0.297273,-1.77999,-0.0717124,0.0544721,0.217526,0.144314,0.133689,0.0730245
-0.162813,0.294833,-1.7749,-0.0747908,0.012275,0.302717,0.141184,0.129691,0.0452709
-0.164409,0.292585,-1.76825,-0.0416312,0.0185368,0.356834,0.116461,0.111167,0.0113471
-0.16603,0.290591,-1.76097,-0.0419232,0.0286595,0.355906,0.0847305,0.0854836,0.010345
-0.16709,0.288308,-1.7542,-0.0740984,0.0561678,0.328386,0.0691324,0.0639939,0.0152745
-0.167641,0.285375,-1.74782,-0.103298,0.0570596,0.341175,0.0748269,0.0642776,0.0115494
-0.168885,0.282311,-1.74044,-0.0719048,0.0234232,0.414728,0.0951755,0.0626032,-0.00628322
-0.170952,0.27976,-1.73159,-0.0450781,0.0175977,0.461762,0.0792627,0.0503559,-0.0178388
-0.17333,0.277039,-1.7224,-0.0766544,-0.00481474,0.450483,0.0516596,0.0201519,-0.00720924
-0.175692,0.2737,-1.71422,-0.104734,0.0104138,0.375572,0.0364935,-0.00788721,-0.014614
-0.176429,0.270731,-1.70762,-0.072002,0.0832712,0.307612,0.0330899,-0.0181328,-0.044775
-0.175919,0.268701,-1.702,-0.0312129,0.111374,0.269749,0.0484634,-0.0229271,-0.0501074
-0.175426,0.267399,-1.69677,-0.0156752,0.0601562,0.263808,0.0695398,-0.0190403,-0.0345786
-0.176182,0.26619,-1.69096,-0.00430559,0.0295544,0.307986,0.0807198,-0.0127144,-0.0349416
-0.177239,0.265397,-1.68461,0.036192,0.0347058,0.303705,0.0635871,-0.0207277,-0.053623
-0.178239,0.265392,-1.67856,0.0637195,0.0190036,0.270181,0.0502547,-0.0361739,-0.0560049
-0.179125,0.265785,-1.67343,0.0592641,0.0203277,0.218595,0.0485453,-0.0469796,-0.0470574
-0.180358,0.266307,-1.66891,0.0749574,-0.0441253,0.210197,0.0779354,-0.0413341,-0.0388143
-0.182458,0.267066,-1.66455,0.05882,-0.0592354,0.202525,0.107937,-0.0409525,-0.0329221
-0.185276,0.266871,-1.6595,0.0229787,-0.0770839,0.288533,0.142159,-0.0383946,-0.0258153
-0.188225,0.266245,-1.65319,0.0288056,-0.0788282,0.310989,0.119365,-0.0508084,-0.0494055
-0.191866,0.265488,-1.64733,-0.0154482,-0.109851,0.247521,0.0825545,-0.0695285,-0.043511
-0.194171,0.262599,-1.64432,-0.240459,-0.0560018,0.0890595,0.045759,-0.0753852,-0.0179747
-0.195352,0.255247,-1.64552,-0.482405,-0.11284,-0.0387776,0.0569332,-0.100146,-0.0293192
-0.195352,0.255247,-1.64552,-0.482405,-0.11284,-0.0387776,0.0569332,-0.100146,-0.0293192
-0.197189,0.246011,-1.64818,-0.416742,-0.09654,-0.000909584,0.129911,-0.101632,-0.163803
-0.197044,0.24072,-1.64752,-0.0757161,0.13148,0.184997,0.17409,-0.0529644,-0.289432
-0.194165,0.241351,-1.64128,0.231023,0.275248,0.387578,0.187858,-0.0421588,-0.26154
-0.191467,0.245203,-1.63151,0.29045,0.202863,0.456452,0.14411,-0.0411667,-0.106386
-0.191249,0.248427,-1.6214,0.21443,0.0703514,0.440028,0.104141,-0.0568699,-0.00186348
-0.192302,0.251,-1.61227,0.234254,0.080469,0.390613,0.0819201,-0.0538275,-0.0214964
-0.191623,0.255088,-1.60325,0.34073,0.211538,0.397818,0.0730678,-0.0288884,-0.0614838
-0.188937,0.261123,-1.59347,0.426382,0.300331,0.416894,0.0622621,-0.00288156,-0.040197
-0.18511,0.268425,-1.58327,0.469108,0.343704,0.413786,0.0445445,0.0182042,0.00725728
-0.180959,0.276007,-1.57335,0.442123,0.32105,0.393525,0.025853,0.0473424,0.0613394
-0.177918,0.282786,-1.56383,0.39361,0.238348,0.395823,0.0190879,0.0819497,0.093942
-0.176959,0.288418,-1.55389,0.329172,0.143297,0.456365,0.0339388,0.1228,0.103712
-0.177418,0.292074,-1.54263,0.212109,0.147318,0.539028,0.0220869,0.158606,0.0942122
-0.178086,0.292778,-1.53037,0.0722176,0.136297,0.604336,0.00939073,0.145836,0.0839202
-0.179143,0.291502,-1.51718,0.0493631,0.142993,0.662832,0.000854537,0.121681,0.0345108
-0.180431,0.290546,-1.50239,0.114168,0.143925,0.757863,-0.00832008,0.120918,-0.00540257
-0.18262,0.290499,-1.48541,0.164902,0.113967,0.833845,-0.0133195,0.109886,0.00561512
-0.185929,0.290506,-1.4678,0.133615,0.0535609,0.820391,-0.0421249,0.0883014,0.0425385
-0.189944,0.28952,-1.4511,0.0683975,0.0269617,0.773528,-0.0510948,0.0641182,0.0586523
-0.193611,0.287626,-1.43565,0.0292338,0.0450907,0.729315,-0.0423981,0.047303,0.0452666
-0.196225,0.285343,-1.42096,0.0219038,0.105941,0.706848,-0.0288726,0.033882,0.0275154
-0.197258,0.283213,-1.40697,0.0355496,0.17364,0.651633,-0.0279214,0.00775987,0.0254354
-0.196812,0.281629,-1.39417,0.0551226,0.204829,0.595963,-0.0123245,-0.0131254,0.04321
-0.19649,0.280712,-1.3817,0.0911268,0.156065,0.609263,0.0300857,-0.0124188,0.0698412
-0.197468,0.28046,-1.3686,0.128069,0.106536,0.641851,0.0502316,-0.0108456,0.0803154
-0.199397,0.280539,-1.35461,0.139811,0.0951051,0.670616,0.0433771,-0.0156983,0.0810578
-0.200994,0.280584,-1.34077,0.12717,0.129815,0.625706,0.0214257,-0.031173,0.0778107
-0.201483,0.280527,-1.32809,0.111306,0.164473,0.580322,0.0286337,-0.0463033,0.0748025
-0.201571,0.280422,-1.31571,0.120727,0.166299,0.597461,0.0586603,-0.0389892,0.0702061
-0.202102,0.280641,-1.30256,0.156419,0.1406,0.637581,0.0776114,-0.0422112,0.0623385
-0.203103,0.281309,-1.2887,0.174232,0.147668,0.657972,0.0804237,-0.051946,0.0540749
-0.203704,0.281864,-1.2747,0.148572,0.184314,0.644007,0.075678,-0.055838,0.0612841
-0.203508,0.281788,-1.26148,0.101292,0.201619,0.605442,0.0925419,-0.0708038,0.0665767
-0.202789,0.280866,-1.24937,0.0375291,0.206247,0.553659,0.0972727,-0.0730773,0.0644946
-0.201909,0.278304,-1.23853,-0.0863475,0.166803,0.526998,0.116011,-0.0709322,0.0718423
-0.202211,0.273402,-1.2284,-0.187917,0.0887088,0.535239,0.146623,-0.0671343,0.0388512
-0.203338,0.267198,-1.21767,-0.187796,0.102594,0.615625,0.16772,-0.0557482,-0.050199
-0.203316,0.261933,-1.20473,-0.0666073,0.259365,0.72423,0.176217,-0.0526364,-0.149249
-0.200065,0.258876,-1.18865,0.0743873,0.482536,0.863492,0.192339,-0.0557582,-0.178748
-0.193792,0.257358,-1.17015,0.0781672,0.555957,0.917607,0.138067,-0.0135097,-0.10963
-0.190245,0.253501,-1.15073,-0.09568,0.255802,1.00958,0.135509,-0.00868055,-0.00605971
-0.192696,0.247323,-1.13083,-0.118319,0.0509629,0.974823,0.103998,-0.0368981,-0.0759926
-0.194932,0.241784,-1.11266,-0.095911,0.197682,0.883221,0.0422682,-0.00874937,-0.190283
-0.193797,0.236661,-1.09495,-0.0587541,0.310684,0.923785,0.083733,0.030647,-0.225042
-0.190432,0.232794,-1.07592,0.019698,0.459397,0.9909,0.106342,0.0708458,-0.243295
-0.185698,0.22971,-1.05444,0.0610093,0.477828,1.13468,0.0957984,0.102313,-0.210611
-0.18336,0.227397,-1.03005,0.165741,0.286854,1.22404,0.0656407,0.0841003,-0.185569
-0.184848,0.227487,-1.00486,0.274786,0.151424,1.18598,0.0236052,0.0649309,-0.180834
-0.187192,0.228624,-0.980282,0.26977,0.208033,1.15565,0.0395494,0.0623307,-0.168585
-0.186456,0.229642,-0.956035,0.278711,0.428466,1.16347,0.0897818,0.0854176,-0.175134
-0.18161,0.231101,-0.930401,0.332776,0.613807,1.31455,0.163528,0.138733,-0.154609
-0.176818,0.233913,-0.898981,0.512386,0.572666,1.65749,0.218945,0.192586,-0.10104
-0.175795,0.240154,-0.860919,0.744645,0.403531,1.85642,0.16148,0.215696,-0.0278757
-0.180183,0.249031,-0.819876,0.803261,0.142442,1.90132,0.109594,0.202703,0.0855268
-0.180183,0.249031,-0.819876,0.803261,0.142442,1.90132,0.109594,0.202703,0.0855268
-0.190386,0.256858,-0.778993,0.680244,-0.128384,1.85045,0.0948639,0.209579,0.159174
-0.203845,0.261422,-0.740073,0.497804,-0.193024,1.75776,0.089052,0.229569,0.148323
-0.216522,0.261722,-0.703838,0.251239,-0.107625,1.67927,0.110793,0.250795,0.0950791
-0.225118,0.257085,-0.66982,0.038877,0.127924,1.66046,0.11655,0.27622,0.00198221
-0.228768,0.249745,-0.635934,0.0161,0.338962,1.71472,0.109741,0.283625,-0.104701
-0.229462,0.243582,-0.600982,0.165538,0.420119,1.72676,0.0726985,0.263046,-0.160731
-0.229059,0.240646,-0.565385,0.319997,0.473833,1.71555,0.0510699,0.225955,-0.144179
-0.227832,0.239544,-0.529801,0.325879,0.493922,1.67997,0.0300701,0.213029,-0.0618209
-0.225937,0.237246,-0.49534,0.197573,0.516394,1.64188,0.0195487,0.192195,0.0189254
-0.222722,0.233099,-0.462501,0.127348,0.564785,1.5733,-0.00305997,0.16384,0.0385835
-0.218786,0.229161,-0.430954,0.170093,0.542158,1.52472,-0.0149326,0.147906,0.0373427
-0.215558,0.226683,-0.400285,0.220723,0.455488,1.45293,-0.0244896,0.131073,0.0636981
-0.214053,0.225079,-0.371453,0.205047,0.337229,1.33355,-0.032987,0.112054,0.103775
-0.214086,0.222862,-0.345511,0.108771,0.246924,1.20221,-0.0231161,0.0965258,0.122972
-0.214237,0.219204,-0.32236,0.0241061,0.259857,1.0943,-0.0130512,0.0957793,0.0941986
-0.213963,0.215073,-0.30089,0.0363387,0.212583,1.07278,0.0198503,0.0927833,0.0445423
-0.215067,0.212351,-0.278336,0.185097,0.169307,1.14544,0.0611121,0.092503,-0.0197442
-0.216018,0.212612,-0.254131,0.330709,0.268492,1.14956,0.0276461,0.0867616,-0.061394
-0.214483,0.214503,-0.230648,0.318672,0.385715,1.04896,-0.000180826,0.043764,-0.0264156
-0.210213,0.215386,-0.210025,0.186711,0.46682,0.912836,0.00015682,0.00336738,0.0251217
-0.205146,0.214468,-0.192331,0.0938173,0.402177,0.812934,0.0191418,-0.00645664,0.0305151
-0.201824,0.213036,-0.176329,0.0924227,0.255812,0.760482,0.0310993,0.00383243,-0.00132257
-0.201576,0.211914,-0.160619,0.105318,0.118913,0.790849,0.077907,0.000141636,-0.0395097
-0.202835,0.210861,-0.14337,0.133828,0.136553,0.892709,0.0979103,-0.00462613,-0.0933583
-0.202696,0.210011,-0.124552,0.133258,0.275822,0.900881,0.061649,-0.025828,-0.11899
-0.200374,0.207511,-0.107663,-0.0774417,0.254583,0.758742,-0.0281492,-0.0289908,-0.0443125
-0.200335,0.200784,-0.0955366,-0.333084,-0.00547986,0.527503,-0.0428544,-0.0680637,-0.0040127
-0.204279,0.191334,-0.088444,-0.424827,-0.245469,0.391869,0.0164198,-0.0885176,-0.0946919
-0.211351,0.182394,-0.080968,-0.271389,-0.264141,0.541587,0.093234,-0.0214507,-0.255939
-0.214787,0.177038,-0.0686529,0.00146311,0.152601,0.741236,0.0849144,0.00930573,-0.36288
-0.210572,0.175624,-0.0535921,0.128605,0.531466,0.70884,0.0174651,-0.009039,-0.317969
-0.199851,0.174383,-0.0407673,-0.0268358,0.697561,0.548678,-0.0578902,-0.0362623,-0.158013
-0.188671,0.170388,-0.031789,-0.162382,0.567185,0.415034,-0.079017,-0.0394198,-0.0743585
-0.179289,0.166763,-0.0245781,-0.0254932,0.545318,0.364098,-0.0737317,-0.0128414,-0.133272
-0.167365,0.167671,-0.0170748,0.235474,0.790293,0.353371,-0.0920073,0.026262,-0.172424
-0.15118,0.172478,-0.00903267,0.326292,0.934839,0.363166,-0.10372,0.0685966,-0.0724761
-0.134868,0.176932,-0.000674028,0.214163,0.82296,0.391863,-0.111963,0.108811,0.0753789
-0.122844,0.179202,0.00769366,0.13289,0.524579,0.389437,-0.142428,0.135062,0.118646
-0.116098,0.180952,0.0158794,0.149223,0.333154,0.399325,-0.144019,0.149616,0.0859987
-0.11108,0.183309,0.0246694,0.175802,0.364948,0.433112,-0.15663,0.169284,0.0441111
-0.104055,0.185939,0.0338543,0.174267,0.506164,0.433807,-0.166096,0.149408,0.0446167
-0.0951186,0.188124,0.042582,0.124905,0.520441,0.397673,-0.175408,0.119099,0.0980182
-0.08748,0.189383,0.050375,0.0745586,0.376473,0.35795,-0.165979,0.0957844,0.155855
-0.0826064,0.190261,0.0573865,0.075063,0.269728,0.323035,-0.14647,0.0761236,0.165572
-0.0783701,0.191292,0.0636901,0.0666552,0.28632,0.292246,-0.12434,0.0601836,0.172075
-0.073386,0.191698,0.0697839,0.00917889,0.316667,0.317406,-0.0901628,0.0399826,0.20809
-0.0687298,0.190467,0.0767131,-0.0873815,0.275246,0.368945,-0.0666909,0.0193193,0.250121
-0.0660048,0.18743,0.0844202,-0.158338,0.119858,0.403631,-0.0746788,-0.0129295,0.259751
-0.0669143,0.184136,0.0925457,-0.0985607,-0.0503057,0.410334,-0.0913856,-0.0571981,0.202376
-0.0705114,0.182377,0.100113,-0.0473125,-0.158616,0.336429,-0.115087,-0.0796182,0.156265
-0.0750535,0.180443,0.105811,-0.120297,-0.186749,0.238264,-0.113841,-0.113961,0.138511
-0.0789709,0.17677,0.109283,-0.211506,-0.135543,0.137936,-0.0994035,-0.126944,0.0946911
-0.0807772,0.172503,0.111306,-0.17682,0.0004403,0.107241,-0.0665653,-0.128522,0.0105867
-0.079836,0.170286,0.113706,-0.011795,0.120532,0.155686,-0.0333864,-0.120346,-0.0606174
-0.079836,0.170286,0.113706,-0.011795,0.120532,0.155686,-0.0333864,-0.120346,-0.0606174
-0.0779897,0.171755,0.117932,0.186164,0.119018,0.251598,-0.00667074,-0.111712,-0.0725639
-0.0776844,0.176066,0.124096,0.266169,0.00388924,0.312929,-0.01449,-0.101194,-0.0263636
-0.0803064,0.180358,0.130954,0.201949,-0.138809,0.324538,-0.024795,-0.103547,0.0114318
-0.0852429,0.182806,0.137612,0.10006,-0.209353,0.309616,-0.032383,-0.0965306,-0.0161284
-0.0896155,0.18405,0.144008,0.0954148,-0.0828255,0.307046,-0.0335674,-0.0967724,-0.10697
-0.0908186,0.185977,0.150151,0.150375,0.123777,0.283009,-0.0449796,-0.100585,-0.162026
-0.0856741,0.189437,0.156048,0.237982,0.477931,0.234618,-0.0651313,-0.11449,-0.17971
-0.0762221,0.193849,0.159931,0.194185,0.470887,0.113786,-0.0940707,-0.102269,-0.0832399
-0.0709753,0.195703,0.161941,-0.00314285,0.073527,0.0804762,-0.0315427,-0.0859698,0.0310234
-0.0726269,0.194305,0.163345,-0.107974,-0.166258,0.0697825,0.0261689,-0.0833589,-0.0187494
-0.0758566,0.191865,0.164976,-0.115444,-0.077853,0.126046,0.0587988,-0.038756,-0.143274
-0.0757611,0.189585,0.168575,-0.0951613,0.139094,0.24264,0.0981058,-0.00680023,-0.195188
-0.0739894,0.186728,0.174297,-0.176401,0.0905769,0.331383,0.107915,0.00638491,-0.138541
-0.0762541,0.181386,0.181007,-0.285743,-0.17864,0.360357,0.0958198,-0.0074583,-0.125388
-0.0816976,0.17578,0.187774,-0.194142,-0.21287,0.347598,0.0702021,-0.0110823,-0.216661
-0.085541,0.173549,0.195202,0.0418124,-0.0045419,0.420547,0.100343,0.00281827,-0.292595
-0.0838596,0.17602,0.205732,0.283104,0.356776,0.607074,0.132653,0.0471828,-0.257544
-0.0771542,0.182092,0.220801,0.419796,0.530275,0.817732,0.12927,0.0828824,-0.114231
-0.0707527,0.189787,0.239337,0.482494,0.441142,0.929222,0.0991332,0.0665646,0.0444067
-0.0673558,0.198581,0.259176,0.527859,0.282335,0.954009,0.0793337,0.0606667,0.14475
-0.0672908,0.207527,0.279236,0.482411,0.106393,0.947447,0.07097,0.0772874,0.201579
-0.0717039,0.214399,0.298694,0.326674,-0.127465,0.91635,0.085078,0.0912697,0.237487
-0.0801565,0.217851,0.317847,0.176217,-0.301712,0.928354,0.117576,0.0898504,0.207558
-0.0910238,0.219126,0.336824,0.120611,-0.362605,0.908818,0.107554,0.102509,0.125917
-0.102587,0.219217,0.354756,0.0502466,-0.393274,0.823506,0.093655,0.0995611,0.0671124
-0.113238,0.217766,0.369978,-0.0348343,-0.337953,0.660967,0.074775,0.0908658,0.0160887
-0.121601,0.215147,0.381299,-0.0869953,-0.238754,0.474012,0.0650843,0.0999807,-0.0467333
-0.1262,0.212639,0.38956,-0.0482383,-0.0250578,0.38178,0.107558,0.120998,-0.106026
-0.12546,0.211868,0.397572,0.0838208,0.272394,0.434058,0.154804,0.160345,-0.119278
-0.11963,0.213773,0.408415,0.217413,0.515255,0.601804,0.195043,0.183035,-0.0386734
-0.112112,0.216443,0.422415,0.184143,0.498239,0.711605,0.167067,0.175954,0.117936
-0.106823,0.217343,0.437051,0.0574972,0.338241,0.678602,0.110856,0.119399,0.226965
-0.104988,0.215761,0.449365,-0.0909273,0.109714,0.535037,0.0677588,0.0758155,0.265335
-0.106875,0.211659,0.458787,-0.211487,-0.0849982,0.44485,0.0829439,0.0604547,0.244108
-0.111347,0.206004,0.467491,-0.242297,-0.159194,0.485663,0.121509,0.0694488,0.162186
-0.116014,0.200571,0.477572,-0.180142,-0.0849651,0.552858,0.116256,0.0581459,0.0650558
-0.118843,0.19641,0.488235,-0.119818,0.00739636,0.520696,0.0784272,0.0194901,0.0150391
-0.120254,0.192883,0.497482,-0.131182,0.012434,0.421656,0.0549956,-0.020179,0.00973767
-0.12145,0.189276,0.504894,-0.129787,0.00330717,0.354858,0.0517117,-0.030953,-0.0179984
-0.122506,0.186219,0.511751,-0.0883886,0.0335281,0.371368,0.0662545,-0.0230155,-0.0676377
-0.122044,0.183718,0.519266,-0.0705499,0.134677,0.391556,0.0545987,-0.0318976,-0.0950799
-0.120233,0.18126,0.526624,-0.0973765,0.165821,0.344619,0.0120523,-0.0667246,-0.0868993
-0.118167,0.178167,0.532158,-0.141059,0.133006,0.229256,-0.0312822,-0.107122,-0.0760682
-0.117079,0.175057,0.535164,-0.128985,0.0226654,0.0974379,-0.0359292,-0.136031,-0.0804506
-0.117699,0.172439,0.535614,-0.137426,-0.0567098,-0.00504692,-0.00670478,-0.143264,-0.0972083
-0.118217,0.169628,0.535149,-0.1438,0.0329923,0.000187373,0.0397108,-0.132072,-0.136405
-0.116457,0.166321,0.534766,-0.212234,0.0997231,0.004145,0.0398529,-0.0994288,-0.142306
-0.115595,0.160978,0.534296,-0.325668,-0.0825374,-1.23968e-05,0.0348515,-0.0773258,-0.111252
-0.120263,0.154261,0.532711,-0.345107,-0.364976,-0.0730416,0.0335418,-0.0859128,-0.154952
-0.126367,0.148489,0.530572,-0.241492,-0.226766,-0.0426527,0.0521036,-0.0545404,-0.268844
-0.128,0.145801,0.530967,-0.00264187,0.0820265,0.129871,0.0850518,-0.0068448,-0.308667
-0.12419,0.147559,0.535584,0.203772,0.332995,0.284276,0.0867891,0.0101525,-0.207999
-0.118108,0.15078,0.542035,0.154495,0.31757,0.292207,0.0444145,-0.0168135,-0.00610268
-0.118108,0.15078,0.542035,0.154495,0.31757,0.292207,0.0444145,-0.0168135,-0.00610268
-0.114836,0.151596,0.547067,-0.0182068,0.0790723,0.192009,0.0127297,-0.0402223,0.118175
-0.116336,0.149784,0.550426,-0.0952812,-0.15724,0.179947,0.0387092,-0.00717804,0.105487
-0.120443,0.148309,0.554327,0.0102615,-0.158976,0.219706,0.0621009,0.0284119,0.0109406
-0.122613,0.149358,0.55916,0.144442,0.0299193,0.241041,0.0582457,0.0418855,-0.0433832
-0.121069,0.152066,0.564302,0.16552,0.178725,0.234439,0.0469616,0.055381,0.0033195
-0.118311,0.153992,0.569197,0.0744209,0.136099,0.219861,0.0330971,0.0628997,0.0834468
-0.117985,0.154146,0.573321,0.00473007,-0.0355273,0.179733,0.0118235,0.0669728,0.0943868
-0.119779,0.153965,0.576071,0.0197368,-0.0728468,0.0941762,-0.0120323,0.0632999,0.0242119
-0.120017,0.154532,0.577338,0.0563986,0.0988103,0.0355582,-0.0181112,0.0769374,-0.0483514
-0.115936,0.155786,0.578281,0.080675,0.30562,0.049753,-0.00698546,0.112966,-0.0592692
-0.109554,0.157501,0.58005,0.120107,0.334509,0.104139,0.00162785,0.127035,-0.0180238
-0.104441,0.160027,0.582932,0.167136,0.21154,0.1464,0.00849766,0.114514,0.0317246
-0.101904,0.163365,0.586637,0.207267,0.127115,0.182463,0.0135359,0.0960038,0.0673061
-0.0998244,0.166972,0.590987,0.196186,0.167222,0.206368,0.00922244,0.0818773,0.0997289
-0.0964777,0.170044,0.595608,0.157508,0.246889,0.212385,0.00651416,0.0605221,0.137061
-0.0918851,0.172315,0.600032,0.105003,0.28241,0.197608,0.000950098,0.0518039,0.176439
-0.087041,0.173235,0.603984,0.00709625,0.254415,0.185788,0.0228096,0.0429294,0.211162
-0.0838309,0.17152,0.607299,-0.154891,0.104238,0.161943,0.0287475,0.025584,0.247964
-0.0841797,0.166875,0.610417,-0.265646,-0.0741045,0.195806,0.0690422,-0.00540733,0.215359
-0.086651,0.161018,0.61448,-0.277644,-0.0864809,0.25909,0.0684402,-0.0012978,0.113244
-0.0885245,0.155194,0.619912,-0.25734,-0.00843021,0.329341,0.0689444,-0.0148464,0.0266849
-0.0887868,0.149815,0.626815,-0.213776,0.0817804,0.399676,0.0702057,-0.0245879,-0.0222983
-0.0878203,0.14555,0.635285,-0.130772,0.138316,0.48406,0.06908,-0.0296006,-0.0473303
-0.0859895,0.143426,0.646088,0.0125073,0.20984,0.604028,0.0806226,-0.0345097,-0.0584804
-0.0833334,0.143561,0.659399,0.093214,0.226196,0.71259,0.072783,-0.0345442,-0.0231363
-0.0816053,0.144251,0.674538,0.0955056,0.164714,0.76832,0.0470989,-0.0588853,0.0230331
-0.0808085,0.14485,0.689909,0.0842633,0.139747,0.744774,0.0111193,-0.091923,0.0277261
-0.0807898,0.145095,0.704671,0.0686277,0.0813948,0.707169,-0.0058241,-0.104727,0.0163246
-0.0811731,0.145553,0.718148,0.0882324,0.067175,0.622947,-0.0166972,-0.123545,-0.0222855
-0.0817404,0.146429,0.730141,0.0836979,0.0547157,0.564768,0.00434442,-0.119322,-0.0425386
-0.0822895,0.146598,0.741449,0.0227604,0.0579786,0.5632,0.0323802,-0.101363,-0.0563712
-0.0828078,0.14591,0.753096,0.0181003,0.0565035,0.595015,0.0637375,-0.0999074,-0.0996028
-0.0831021,0.145902,0.765254,0.0832043,0.0978696,0.612586,0.0686053,-0.0996099,-0.157502
-0.0814786,0.147107,0.777908,0.136897,0.295542,0.626028,0.0918621,-0.109038,-0.18904
-0.0751344,0.148762,0.790851,0.0965161,0.458743,0.648728,0.104249,-0.093317,-0.148112
-0.0699968,0.14836,0.804809,-0.0290398,0.219342,0.747753,0.128666,-0.0637923,-0.0600837
-0.0706193,0.146324,0.820367,-0.0540787,-0.0450339,0.789411,0.138151,-0.0773576,-0.0943594
-0.0752376,0.144431,0.836268,-0.013485,-0.127834,0.805551,0.113004,-0.0639103,-0.18852
-0.0780712,0.143689,0.852771,0.068151,0.102091,0.834767,0.093149,-0.0294431,-0.276473
-0.0751115,0.144923,0.869955,0.189053,0.447277,0.858554,0.0895894,-0.00933158,-0.282911
-0.066768,0.148341,0.887937,0.266714,0.599169,0.901359,0.0925056,0.0168006,-0.188342
-0.0590229,0.15244,0.906961,0.250099,0.422108,0.955437,0.0982827,0.0397291,-0.0444762
-0.0560917,0.155928,0.926894,0.222836,0.198225,0.996667,0.101845,0.0498892,0.023622
-0.0559788,0.159539,0.947669,0.26084,0.181573,1.03866,0.0962701,0.0748631,0.00621623
-0.0547211,0.16411,0.969632,0.32185,0.30463,1.11036,0.0970957,0.109542,-0.00441456
-0.0518605,0.16996,0.993253,0.378182,0.347827,1.18612,0.105503,0.120894,0.0343459
-0.0505497,0.176074,1.01812,0.347351,0.204568,1.23213,0.102756,0.125834,0.107518
-0.0530118,0.180757,1.04369,0.240448,-0.0116033,1.26579,0.100708,0.13264,0.15649
-0.0599995,0.183084,1.07003,0.153963,-0.181455,1.31209,0.108141,0.14181,0.145778
-0.0686793,0.18437,1.09702,0.154549,-0.169731,1.32436,0.0873598,0.146722,0.0750489
-0.0762039,0.185774,1.12344,0.165239,-0.105786,1.25462,0.0530919,0.13829,0.0362616
-0.0828194,0.186857,1.14788,0.130786,-0.101673,1.1334,0.0376906,0.118908,0.0371168
-0.0883571,0.187393,1.16984,0.11546,-0.0350282,1.02834,0.0402192,0.126805,0.0194778
-0.0920672,0.188356,1.1904,0.164366,0.0593322,0.986484,0.0628301,0.152653,0.00250614
-0.0920672,0.188356,1.1904,0.164366,0.0593322,0.986484,0.0628301,0.152653,0.00250614
-0.0934067,0.190055,1.21037,0.176412,0.163235,0.961817,0.0698173,0.165597,0.026938
-0.0936135,0.191611,1.22977,0.142179,0.171569,0.921453,0.0625456,0.161998,0.087172
-0.0946148,0.192137,1.24783,0.0727466,0.0594582,0.843856,0.0686417,0.144235,0.139287
-0.0969626,0.191393,1.2642,0.00238939,0.0264104,0.771166,0.0766715,0.135997,0.145357
-0.0994214,0.189195,1.2789,-0.0850346,0.00109457,0.692169,0.0779859,0.13097,0.153758
-0.102053,0.185346,1.29189,-0.171169,-0.020573,0.617932,0.0983006,0.102606,0.148627
-0.104743,0.179932,1.30303,-0.253808,-0.053924,0.527672,0.102085,0.087929,0.127023
-0.107555,0.173559,1.31232,-0.264414,-0.0479656,0.467372,0.132285,0.0589193,0.0693269
-0.109545,0.16818,1.32124,-0.165616,0.00571743,0.478323,0.162105,0.0591421,0.00457883
-0.110051,0.164877,1.33125,-0.0646803,0.112298,0.546062,0.17914,0.0610122,-0.023664
-0.109423,0.162817,1.34275,-0.0223762,0.123562,0.594631,0.17113,0.0403485,-0.00644696
-0.108572,0.161506,1.35441,0.0201967,0.162659,0.564711,0.135742,0.000495628,-0.0104787
-0.106768,0.160977,1.36545,0.0320248,0.181836,0.529484,0.123605,-0.0174823,-0.00261927
-0.105369,0.159889,1.37606,-0.039177,0.119806,0.533624,0.135998,-0.028841,0.0195808
-0.105606,0.157548,1.38666,-0.0687319,0.0296727,0.535849,0.127465,-0.0451297,-0.0126075
-0.107375,0.155542,1.39731,-0.0125217,-0.0189486,0.536992,0.121637,-0.0572583,-0.0762793
-0.108049,0.154202,1.40806,-0.0500344,0.12045,0.525186,0.118598,-0.0769842,-0.0980875
-0.106997,0.149426,1.4175,-0.35402,0.0704605,0.443603,0.0847746,-0.0838869,-0.041838
-0.109826,0.138361,1.4231,-0.66721,-0.290492,0.20176,-0.00562353,-0.0927927,-0.0758419
-0.117739,0.124037,1.42309,-0.714697,-0.421948,-0.00107965,0.0380123,-0.142195,-0.273143
-0.12403,0.111738,1.4222,-0.486487,-0.134656,0.113395,0.133698,-0.0563414,-0.464462
-0.120066,0.105158,1.42691,-0.104176,0.524113,0.438515,0.20072,-0.0127879,-0.520221
-0.107614,0.104948,1.43829,0.167661,0.75065,0.668146,0.172642,0.0148656,-0.363016
-0.0975473,0.106689,1.45267,0.112738,0.362489,0.709674,0.11132,-0.0373276,-0.111319
-0.095753,0.1064,1.46631,0.0126908,0.00442826,0.648103,0.0758401,-0.0616622,-0.0326558
-0.0975889,0.105601,1.47942,0.0581503,0.0326083,0.69171,0.0846386,-0.00470291,-0.116
-0.095474,0.10707,1.49513,0.254876,0.345999,0.860742,0.0922044,0.060982,-0.188569
-0.0887033,0.112617,1.51454,0.465646,0.509402,1.00432,0.0579814,0.0920845,-0.135928
-0.0814853,0.121338,1.53616,0.568581,0.433295,1.04897,0.00718838,0.0818253,-0.00661778
-0.0775215,0.131015,1.55774,0.562308,0.235929,1.01299,-0.0544606,0.0928598,0.099994
-0.0783028,0.14063,1.57817,0.536242,0.00975052,0.923679,-0.0957671,0.125382,0.120364
-0.0818284,0.148975,1.59651,0.433664,-0.0584522,0.820539,-0.108621,0.130206,0.130527
-0.0840179,0.155169,1.61228,0.313757,0.101024,0.683244,-0.132635,0.156623,0.112811
-0.0822746,0.159161,1.62522,0.195107,0.254849,0.572357,-0.113803,0.164471,0.112271
-0.0787452,0.161612,1.63654,0.155865,0.257742,0.536093,-0.0714243,0.172278,0.129785
-0.0762958,0.164087,1.64774,0.180837,0.16823,0.553349,-0.0197268,0.17507,0.144709
-0.0754508,0.166845,1.65951,0.171097,0.108204,0.58376,0.0204385,0.161814,0.179094
-0.0757843,0.168604,1.67154,0.0855281,0.0685172,0.587311,0.0327529,0.147207,0.211537
-0.0763824,0.168139,1.68333,-0.0482926,0.0605862,0.578552,0.0336367,0.14182,0.22547
-0.0770788,0.165238,1.69455,-0.154765,0.0610049,0.553957,0.042537,0.110501,0.20246
-0.0771989,0.160459,1.7055,-0.235531,0.103924,0.574895,0.0657557,0.0846521,0.165717
-0.0769964,0.154431,1.71733,-0.26843,0.090438,0.641548,0.0744486,0.0653323,0.13779
-0.07783,0.148008,1.72999,-0.285465,0.0246715,0.651044,0.0510531,0.0308454,0.108509
-0.0790259,0.140932,1.74222,-0.326752,0.0597137,0.60721,0.0328119,-0.0113437,0.0674704
-0.0783655,0.133009,1.75356,-0.37444,0.154742,0.586583,0.0473358,-0.0326971,0.0318267
-0.0763313,0.124618,1.76536,-0.355291,0.198034,0.662536,0.0813575,-0.0310385,-0.00469315
-0.074541,0.117521,1.77956,-0.233239,0.132018,0.799128,0.10176,-0.0316298,-0.0421413
-0.0746734,0.113246,1.79636,-0.0711044,0.0556015,0.893218,0.0817404,-0.0533013,-0.0727273
-0.0753554,0.11162,1.81447,0.028124,0.0957866,0.906882,0.0468616,-0.0817117,-0.0775399
-0.074666,0.111062,1.83233,0.0383159,0.175456,0.868865,0.0289101,-0.0955263,-0.0543402
-0.0722085,0.110478,1.84922,0.0296875,0.242388,0.814611,0.00844306,-0.099021,-0.0394482
-0.0691638,0.110232,1.86521,0.0642412,0.23285,0.785219,0.0138798,-0.0927497,-0.0348435
-0.0663556,0.111047,1.88115,0.123173,0.233156,0.804537,0.033199,-0.0775354,-0.0356445
-0.0631881,0.112813,1.89792,0.155411,0.268238,0.853428,0.0447546,-0.0585387,-0.0257956
-0.0631881,0.112813,1.89792,0.155411,0.268238,0.853428,0.0447546,-0.0585387,-0.0257956
-0.0598949,0.114789,1.91569,0.142235,0.250849,0.894021,0.0355852,-0.0478169,0.00198311
-0.0574958,0.116106,1.93371,0.0949416,0.202987,0.883254,0.0100345,-0.055313,0.0160248
-0.0559819,0.116494,1.95096,0.036085,0.14271,0.832363,-0.0058889,-0.0621143,0.00475836
-0.0554942,0.115747,1.96749,-0.00939221,0.121215,0.832043,0.0118207,-0.0539755,-0.0433155
-0.0536552,0.115198,1.98469,0.0655394,0.306409,0.882305,0.0330562,-0.0376905,-0.135468
-0.0476289,0.116277,2.00286,0.0851046,0.434754,0.919436,0.038241,-0.0246255,-0.122976
-0.042728,0.115166,2.02165,-0.136825,0.241111,0.950782,0.0534032,-0.0222955,-0.00664592
-0.0444948,0.108943,2.03995,-0.397198,-0.224181,0.872646,0.0343746,-0.0460727,-0.0185242
-0.0541556,0.098769,2.05513,-0.514365,-0.54389,0.700098,-0.00897027,-0.0662475,-0.165833
-0.0652786,0.0893907,2.06798,-0.313363,-0.399242,0.662467,0.0473632,-0.0501784,-0.391933
-0.0694197,0.0853624,2.08237,0.0102865,0.13751,0.836105,0.103963,0.0483172,-0.464949
-0.0638219,0.0861226,2.10123,0.159562,0.50209,1.03622,0.11263,0.100573,-0.347455
-0.0561547,0.0887027,2.1242,0.259715,0.437461,1.23841,0.130551,0.0854125,-0.16816
-0.0507063,0.0948403,2.15061,0.492244,0.3476,1.34311,0.0918234,0.0793783,-0.0684413
-0.0472316,0.104488,2.1782,0.570423,0.245372,1.35411,0.0378166,0.0847366,0.0583631
-0.0470848,0.113449,2.20541,0.438038,0.0734764,1.31892,0.0436063,0.0596629,0.183221
-0.0503009,0.119256,2.23202,0.278525,-0.116589,1.29717,0.0417439,0.0668498,0.213718
-0.0578384,0.122561,2.25794,0.205145,-0.319301,1.26279,0.0377498,0.0753636,0.185175
-0.0692519,0.124825,2.28283,0.186493,-0.500266,1.18317,0.0204405,0.0913135,0.113086
-0.0818284,0.127219,2.30565,0.225449,-0.447222,1.05661,-0.00759216,0.104598,0.0241373
-0.0922246,0.130178,2.32575,0.229366,-0.318552,0.912056,-0.00390008,0.115833,-0.0224863
-0.0990383,0.132746,2.34344,0.194739,-0.125809,0.82487,0.020614,0.129991,-0.0346053
-0.101702,0.13494,2.35995,0.197446,0.0601804,0.790766,0.0378751,0.150705,-0.0322924
-0.10177,0.137885,2.37599,0.259072,0.141937,0.762727,0.036269,0.151914,-0.00533873
-0.100832,0.142034,2.39123,0.294712,0.150818,0.698429,0.0242231,0.140641,0.0572898
-0.0997863,0.146005,2.40494,0.222814,0.146299,0.611894,0.0144544,0.138589,0.141543
-0.0988981,0.147656,2.41647,0.0501084,0.107401,0.514662,0.0182101,0.125132,0.19887
-0.0986947,0.146239,2.42614,-0.0903392,0.0530513,0.456749,0.0309851,0.112515,0.20404
-0.0992725,0.143158,2.43487,-0.112756,0.0181903,0.440678,0.0561341,0.0944366,0.158451
-0.0998329,0.140765,2.44362,-0.0365251,0.0598479,0.447393,0.0675534,0.0767787,0.107844
-0.0992962,0.139712,2.45231,0.00488772,0.103139,0.412429,0.0547102,0.0520542,0.103695
-0.098274,0.138567,2.45964,-0.069123,0.0919373,0.319874,0.0483474,0.0148941,0.1374
-0.0974722,0.135418,2.46501,-0.185606,0.0760469,0.249579,0.0607214,-0.0125786,0.132626
-0.09607,0.130775,2.46902,-0.223154,0.114597,0.194834,0.0683241,-0.0192251,0.0730863
-0.0939248,0.126341,2.47205,-0.189201,0.127212,0.146654,0.0755374,-0.0356009,0.0169997
-0.092176,0.122615,2.47448,-0.166966,0.0916427,0.141687,0.0924074,-0.0427772,-0.0104393
-0.0908019,0.119069,2.47744,-0.162474,0.0792727,0.182004,0.0998772,-0.0467241,-0.0271773
-0.0894873,0.115498,2.4809,-0.164013,0.0996196,0.180072,0.0807006,-0.072518,-0.0485399
-0.0873732,0.111796,2.4837,-0.186624,0.142947,0.12554,0.0628831,-0.109613,-0.0622185
-0.0845105,0.107776,2.48554,-0.189243,0.170378,0.101097,0.0780761,-0.125373,-0.0772977
-0.0808686,0.104551,2.48773,-0.10547,0.216657,0.151726,0.113054,-0.119897,-0.107923
-0.076231,0.103307,2.49162,0.00429794,0.3066,0.248023,0.147757,-0.116436,-0.117809
-0.0704973,0.102542,2.4971,-0.0777221,0.271413,0.300639,0.134675,-0.11184,-0.0562924
-0.0678109,0.0986878,2.50306,-0.254479,0.035805,0.309311,0.0980537,-0.0876601,-0.0152094
-0.0712178,0.0926227,2.50821,-0.290518,-0.323215,0.242168,0.0699371,-0.0916376,-0.0945637
-0.0794205,0.0875272,2.5126,-0.170721,-0.373143,0.249476,0.0958944,-0.0757164,-0.25326
-0.084078,0.0854563,2.5182,0.00768643,-0.0425472,0.328116,0.106957,-0.0198876,-0.352292
-0.082658,0.0865804,2.52591,0.145751,0.216828,0.429369,0.131998,0.00209109,-0.311209
-0.0793744,0.0888628,2.5355,0.139774,0.152984,0.503566,0.120284,0.0236061,-0.175524
-0.0793703,0.0904088,2.546,0.101608,-0.0769515,0.520541,0.0827626,0.0316766,-0.0983754
-0.0837847,0.0920968,2.55645,0.173273,-0.227663,0.505151,0.0555611,0.0465106,-0.131175
-0.0884078,0.09605,2.56724,0.315836,-0.105109,0.540481,0.0497082,0.0887917,-0.189176
-0.0892928,0.102696,2.57936,0.448503,0.149177,0.606994,0.0491994,0.129157,-0.171112
-0.0850119,0.111063,2.59282,0.4838,0.394257,0.650554,0.0392357,0.145564,-0.0789489
-0.0850119,0.111063,2.59282,0.4838,0.394257,0.650554,0.0392357,0.145564,-0.0789489
-0.077909,0.119131,2.6068,0.433251,0.452763,0.663833,-0.00774334,0.156324,0.0472583
-0.0715567,0.126293,2.62039,0.382844,0.317333,0.629459,-0.0386319,0.149227,0.137294
-0.0690147,0.132568,2.63313,0.336236,0.112233,0.58949,-0.0625502,0.150826,0.179433
-0.069745,0.137814,2.64476,0.260445,-0.00690609,0.516073,-0.082904,0.161319,0.182935
-0.0716402,0.141127,2.65444,0.128591,-0.0474169,0.421803,-0.0884954,0.164188,0.181259
-0.0730346,0.141541,2.66208,-0.0272728,0.0331947,0.343774,-0.071864,0.157167,0.16099
-0.0722299,0.139487,2.6685,-0.111184,0.133864,0.314211,-0.0507414,0.157758,0.127674
-0.0700876,0.137031,2.67481,-0.0747499,0.143168,0.336194,-0.017815,0.140677,0.105259
-0.0685581,0.135904,2.68186,0.00141961,0.103559,0.372552,-0.0025618,0.127521,0.105929
-0.0678938,0.135821,2.6898,0.0304644,0.0781444,0.415082,0.00638013,0.103345,0.124403
-0.0671441,0.135663,2.69828,-0.00476873,0.110587,0.419039,-0.00468973,0.082116,0.148293
-0.066076,0.134082,2.70634,-0.101315,0.0943849,0.382978,-0.0122166,0.0483383,0.175187
-0.0652962,0.130684,2.71285,-0.194286,0.0842101,0.273869,-0.0346107,0.0077083,0.163326
-0.0639538,0.125616,2.71692,-0.290686,0.0882328,0.173676,-0.0356077,-0.0176429,0.134547
-0.0633023,0.118793,2.71973,-0.356416,0.0171919,0.163729,0.00644828,-0.0237284,0.0904661
-0.0630948,0.111696,2.72295,-0.321957,0.0497947,0.210267,0.0286635,-0.0201131,0.0107578
-0.0616083,0.105675,2.72748,-0.250017,0.150869,0.275387,0.0306167,-0.0289212,-0.043079
-0.058602,0.100997,2.73319,-0.188311,0.200849,0.319271,0.0314145,-0.0532579,-0.0465986
-0.055336,0.0973627,2.74004,-0.136512,0.191906,0.39123,0.0378645,-0.0674335,-0.0335879
-0.0523573,0.0947651,2.74859,-0.0754548,0.186854,0.4743,0.047048,-0.0790218,-0.0316384
-0.0495595,0.0931503,2.75867,-0.0464903,0.189468,0.542096,0.0483174,-0.0971852,-0.0217169
-0.0478105,0.0917664,2.77017,-0.0285487,0.0745985,0.606072,0.0432577,-0.117942,-0.00853455
-0.0489303,0.0915648,2.78261,0.0779213,-0.063241,0.631298,0.0338591,-0.147165,-0.0378669
-0.0517078,0.0933992,2.79533,0.15238,-0.0722391,0.626284,0.0357888,-0.160597,-0.0702797
-0.05366,0.0956039,2.80789,0.119185,-0.0071139,0.611767,0.0420368,-0.158448,-0.0695522
-0.0547507,0.0968494,2.82004,0.0764573,0.00756005,0.59507,0.0629813,-0.164807,-0.0777871
-0.0557437,0.097858,2.83214,0.10479,0.0133209,0.613758,0.0877664,-0.154816,-0.126981
-0.0560173,0.100217,2.8452,0.205984,0.098355,0.682531,0.114743,-0.131411,-0.181108
-0.0544444,0.104566,2.85999,0.30267,0.215354,0.770427,0.136121,-0.119959,-0.194375
-0.0502813,0.110239,2.87624,0.321598,0.359844,0.805935,0.143156,-0.121567,-0.162432
-0.0456559,0.114269,2.89254,0.138561,0.284361,0.792684,0.125802,-0.118432,-0.0882453
-0.0438368,0.114611,2.90818,0.000126101,0.059656,0.751487,0.0951863,-0.104177,-0.118507
-0.0460321,0.11493,2.92292,0.135822,-0.0937099,0.726565,0.106519,-0.102562,-0.268209
-0.0494112,0.119598,2.9383,0.408991,-0.00984438,0.798135,0.130459,-0.0423391,-0.36329
-0.048694,0.129602,2.95617,0.667681,0.314821,0.920923,0.135883,0.0164464,-0.346461
-0.0417593,0.142737,2.9758,0.694666,0.595661,0.962639,0.0875262,0.057658,-0.177628
-0.0337124,0.15434,2.99557,0.535083,0.453232,0.948079,0.0579483,0.0637929,0.00886828
-0.0304583,0.163252,3.01495,0.444506,0.192959,0.947738,0.0585215,0.0808784,0.0625708
-0.0307209,0.172344,3.0349,0.563984,0.168142,1.00271,0.0635862,0.124068,-0.0101219
-0.029264,0.184857,3.05617,0.738963,0.360818,1.05946,0.0535874,0.161772,-0.0285819
-0.0250568,0.199118,3.07894,0.717996,0.476055,1.14387,0.0725785,0.194326,0.0781851
-0.0205489,0.211341,3.1031,0.551294,0.436465,1.18534,0.055689,0.204339,0.195348
-0.0195949,0.219981,3.12715,0.361752,0.148517,1.14954,0.0258506,0.196543,0.255316
-0.0249666,0.22489,-3.13276,0.187642,-0.149316,1.12349,0.0397773,0.196373,0.238599
-0.0340185,0.226942,-3.10965,0.0998833,-0.195251,1.13438,0.0590797,0.214455,0.135615
-0.0422022,0.228038,-3.08617,0.106463,-0.0898571,1.1492,0.0461633,0.226051,0.0317468
-0.0484273,0.229369,-3.06296,0.124795,-0.0226102,1.10439,0.0250763,0.205543,-0.0040772
-0.0538382,0.230655,-3.04126,0.101509,-0.043115,0.994883,0.0105932,0.177254,0.00959718
-0.0589504,0.230752,-3.02239,0.00532694,-0.01111,0.861474,-0.0110658,0.166667,0.0328084
-0.0616537,0.229131,-3.00584,-0.0558508,0.119696,0.76907,-0.00187016,0.173237,0.0227798
-0.0613515,0.227502,-2.99047,-0.00642146,0.237473,0.747346,0.02859,0.164982,0.026462
-0.0598072,0.227113,-2.97509,0.0449653,0.242805,0.754187,0.0260253,0.159171,0.0790392
-0.0592917,0.226929,-2.95997,0.00794063,0.127585,0.714702,0.0208419,0.127665,0.15217
-0.0608955,0.225327,-2.94628,-0.0993171,0.0318961,0.625987,0.0112695,0.0904137,0.195067
-0.0608955,0.225327,-2.94628,-0.0993171,0.0318961,0.625987,0.0112695,0.0904137,0.195067
-0.0630952,0.221146,-2.93496,-0.248258,-0.000880226,0.508088,0.00423628,0.0616639,0.19566
-0.0653728,0.214765,-2.92596,-0.31537,-0.0334915,0.42443,0.0330179,0.0340558,0.147105
-0.0676522,0.208306,-2.91794,-0.267609,-0.0262629,0.417761,0.0630875,0.0324861,0.0747927
-0.0697933,0.203392,-2.90933,-0.162953,-0.00253815,0.458652,0.0814827,0.0276611,0.020597
-0.0712397,0.200525,-2.8999,-0.0615078,0.0471548,0.482381,0.0826468,0.00535107,-0.00378561
-0.0717114,0.19925,-2.89003,-0.0145082,0.0968418,0.48839,0.0771445,-0.0125761,0.0069471
-0.0716851,0.19784,-2.88039,-0.0748854,0.0752853,0.470332,0.0727137,-0.0310173,0.043115
-0.0727434,0.194883,-2.87131,-0.158763,-0.00603247,0.436413,0.0643301,-0.0554629,0.0492307
-0.0753433,0.190271,-2.86337,-0.247338,-0.0955812,0.374889,0.049118,-0.0703505,0.0147966
-0.0785288,0.184387,-2.85677,-0.279501,-0.08141,0.312468,0.0412449,-0.0870728,-0.0581581
-0.0805557,0.178504,-2.85161,-0.268535,-0.0398826,0.248414,0.0415312,-0.0982608,-0.120506
-0.0819034,0.173142,-2.84724,-0.230581,-0.016654,0.235014,0.0580971,-0.10238,-0.153203
-0.0836408,0.16898,-2.84261,-0.139125,-0.0338069,0.267719,0.0880907,-0.105917,-0.161595
-0.0830769,0.167332,-2.83663,0.0101492,0.181363,0.319291,0.0994767,-0.107862,-0.185245
-0.081749,0.166716,-2.82998,-0.050102,0.0152983,0.354186,0.097112,-0.0903419,-0.0852277
-0.0842193,0.164105,-2.82268,-0.141657,-0.126867,0.374307,0.0958985,-0.0792001,-0.0624334
-0.0877693,0.160791,-2.81576,-0.119843,-0.0730697,0.344204,0.0714807,-0.0830802,-0.140066
-0.0881748,0.158783,-2.80885,-0.0141033,0.138378,0.364253,0.0791861,-0.0778603,-0.192761
-0.0848453,0.159214,-2.80084,0.117736,0.293966,0.42256,0.0844804,-0.0499694,-0.151774
-0.0811017,0.161379,-2.79176,0.150023,0.187255,0.449975,0.0835765,-0.0489302,-0.0347313
-0.0810232,0.163155,-2.78254,0.0956429,-0.0238954,0.44183,0.0943098,-0.0579198,0.0463794
-0.084422,0.163575,-2.77356,0.0152816,-0.153289,0.444987,0.0979056,-0.0317183,0.0401902
-0.0889245,0.16249,-2.76466,-0.0403746,-0.130484,0.432507,0.0775514,-0.00478917,-0.0246552
-0.0916077,0.160982,-2.75664,-0.0357915,-0.00518433,0.366361,0.0587721,-0.00449212,-0.101404
-0.0916365,0.159796,-2.74987,-0.0253061,0.104315,0.313153,0.0443066,0.0184461,-0.135016
-0.089531,0.158708,-2.74416,-0.027662,0.192052,0.26338,0.0336917,0.035514,-0.14758
-0.0858418,0.158537,-2.73918,0.0755953,0.265655,0.230792,0.0191094,0.0564336,-0.158755
-0.0802553,0.161182,-2.73423,0.223609,0.375879,0.247248,0.0204294,0.086281,-0.132884
-0.0727084,0.166182,-2.72824,0.30417,0.465977,0.304785,0.0180089,0.113828,-0.0384464
-0.0648102,0.171706,-2.72131,0.274105,0.41695,0.337735,-0.00892621,0.123866,0.0726733
-0.0592091,0.175959,-2.71387,0.194504,0.26164,0.368719,-0.0404484,0.133594,0.140915
-0.0570693,0.178852,-2.70632,0.143353,0.12469,0.340715,-0.0904322,0.137022,0.142282
-0.0552104,0.180877,-2.70025,0.090789,0.175841,0.235496,-0.148095,0.126151,0.114908
-0.0519893,0.181742,-2.6967,0.0152079,0.203954,0.113408,-0.160072,0.12099,0.120751
-0.0484952,0.181255,-2.6951,-0.0486661,0.149683,0.062868,-0.129747,0.120388,0.133783
-0.0469827,0.180209,-2.6937,-0.04469,0.0325397,0.0866729,-0.0763995,0.123571,0.12095
-0.0471439,0.179574,-2.69151,-0.0175047,0.00584096,0.125127,-0.0818205,0.13465,0.0980458
-0.0471161,0.179067,-2.68935,-0.0361838,0.026144,0.0765349,-0.106898,0.101695,0.0941549
-0.0466801,0.177664,-2.68875,-0.105212,0.0283339,-0.00101911,-0.099564,0.0668068,0.111498
-0.0456514,0.174963,-2.68919,-0.158917,0.0718052,-0.017071,-0.0602401,0.06134,0.109424
-0.0439891,0.171429,-2.6893,-0.19769,0.0852174,0.0238155,-0.0231065,0.0640229,0.114424
-0.0429853,0.167165,-2.68839,-0.219358,0.00987803,0.0807065,-0.00102302,0.0289817,0.117321
-0.0441055,0.1629,-2.68648,-0.196637,-0.0714719,0.119722,0.000477627,-0.00119588,0.0915908
-0.0455996,0.159033,-2.68444,-0.19408,-0.0336791,0.0931693,-0.0192921,-0.0272902,0.0644185
-0.0459256,0.154705,-2.68323,-0.234192,0.0170679,0.0498069,-0.0104098,-0.059077,0.0657659
-0.0452011,0.14979,-2.68257,-0.243969,0.0682127,0.0503414,0.00782966,-0.0588991,0.0582576
-0.0437684,0.145463,-2.68088,-0.177268,0.0904205,0.150204,0.0563385,-0.0472339,0.0424617
-0.0429197,0.142719,-2.67645,-0.0830657,0.0557278,0.295111,0.0836537,-0.0464857,0.0456383
-0.043157,0.141643,-2.66949,-0.0077401,0.0187685,0.386482,0.0566427,-0.0744673,0.0558361
-0.0439505,0.141364,-2.66149,0.000773438,0.0237008,0.393276,0.0167036,-0.110998,0.0676668
-0.0441841,0.140575,-2.65446,-0.0551646,0.0421077,0.303873,-0.0270515,-0.143396,0.0719941
-0.0443947,0.138626,-2.64929,-0.109637,0.012981,0.233305,-0.0104891,-0.161317,0.0500236
-0.0447556,0.135951,-2.64485,-0.134523,0.0168276,0.22724,0.0132151,-0.150829,0.00336111
-0.0447556,0.135951,-2.64485,-0.134523,0.0168276,0.22724,0.0132151,-0.150829,0.00336111
-0.0449124,0.132955,-2.64038,-0.143936,0.0311271,0.230959,0.0265872,-0.150411,-0.0497724
-0.0446961,0.129725,-2.63612,-0.160401,0.0505233,0.202547,0.0217685,-0.161548,-0.0997553
-0.0435778,0.126406,-2.63267,-0.149987,0.127589,0.15195,0.0179936,-0.170759,-0.156503
-0.0396609,0.123444,-2.63055,-0.163659,0.251541,0.0779234,0.0200311,-0.166298,-0.190366
-0.0367987,0.118986,-2.62922,-0.28377,0.0362979,0.0817552,0.0447089,-0.126107,-0.17208
-0.037897,0.112845,-2.62762,-0.295326,-0.11463,0.0992971,0.0564152,-0.103565,-0.271982
-0.0401336,0.108621,-2.6256,-0.111326,-0.0304395,0.118849,0.0565489,-0.0940312,-0.417155
-0.0377642,0.108476,-2.62274,0.0953602,0.322551,0.168685,0.0641446,-0.0686473,-0.465128
-0.0280022,0.112226,-2.61836,0.281485,0.689666,0.247935,0.0546473,-0.0395443,-0.385342
-0.0138961,0.118506,-2.61303,0.335389,0.724172,0.272995,0.0265393,-0.0294454,-0.187362
-0.0019422,0.125029,-2.60743,0.325045,0.526101,0.282039,0.0290266,-0.0360169,-0.0118972
0.00540077,0.13163,-2.60137,0.332532,0.296171,0.326406,0.0367144,-0.0100003,0.0775317
0.00895111,0.138202,-2.59402,0.324044,0.182873,0.411636,0.0544735,0.0233521,0.112389
0.0114011,0.144859,-2.58482,0.334653,0.201055,0.502751,0.0662483,0.0436603,0.122168
0.0138239,0.151651,-2.57392,0.329903,0.177501,0.588957,0.0779794,0.0609218,0.146143
0.0137903,0.157957,-2.56121,0.277787,0.00961234,0.671718,0.0947039,0.0801521,0.177169
0.00920814,0.162829,-2.54697,0.186682,-0.260684,0.745424,0.100334,0.0994277,0.184057
-0.000503316,0.165928,-2.53122,0.129397,-0.413627,0.811939,0.104012,0.113928,0.114149
-0.0112552,0.168536,-2.51433,0.147249,-0.365009,0.850296,0.0798668,0.139327,0.00525445
-0.0208344,0.17124,-2.49705,0.139022,-0.319076,0.844271,0.041097,0.168512,-0.0517201
-0.0298781,0.173269,-2.4805,0.110999,-0.295479,0.77954,0.00601927,0.16569,-0.0929584
-0.0368981,0.175199,-2.46552,0.145119,-0.120326,0.692924,-0.0165467,0.159534,-0.147051
-0.0386426,0.178272,-2.45214,0.212719,0.189569,0.621941,-0.0403485,0.171988,-0.153515
-0.0345488,0.182619,-2.43961,0.267777,0.412098,0.606005,-0.0480638,0.178569,-0.0674321
-0.0283202,0.187933,-2.4271,0.296377,0.415852,0.602095,-0.0575093,0.168976,0.072178
-0.0236907,0.193026,-2.41551,0.231039,0.244713,0.517425,-0.0965635,0.138302,0.204816
-0.0228132,0.196356,-2.40596,0.117281,0.0260936,0.415105,-0.119519,0.107618,0.284453
-0.0251953,0.197394,-2.39887,0.00523812,-0.111406,0.280784,-0.128983,0.0781027,0.285064
-0.0291433,0.196422,-2.395,-0.0913008,-0.206485,0.103429,-0.14467,0.0589618,0.256783
-0.0338382,0.193639,-2.39472,-0.183386,-0.246871,-0.0589516,-0.112751,0.0387449,0.202367
-0.0382057,0.189697,-2.39701,-0.208179,-0.236947,-0.140529,-0.0756327,0.0395749,0.134451
-0.0426109,0.186133,-2.40022,-0.152321,-0.262211,-0.155912,-0.0213245,0.028139,0.0655143
-0.0467544,0.184138,-2.40376,-0.0662524,-0.209788,-0.187081,-0.0117005,0.00893579,0.00440472
-0.0493942,0.183441,-2.40823,-0.0378908,-0.142784,-0.251271,-0.0170366,-0.000172347,-0.0156276
-0.0513309,0.182788,-2.41406,-0.0534373,-0.165333,-0.315434,-0.00229608,-0.0156614,-0.00721228
-0.053238,0.181952,-2.42087,-0.0661606,-0.141963,-0.344135,0.0219236,-0.0195047,-0.0200679
-0.0547921,0.180842,-2.42787,-0.0833206,-0.137999,-0.341759,0.0285572,-0.0145083,-0.0257793
-0.0564644,0.179334,-2.43502,-0.106629,-0.189238,-0.361419,0.0236537,-0.0376443,-0.030377
-0.0601093,0.177626,-2.44304,-0.103081,-0.299643,-0.426577,0.00927738,-0.0679049,-0.0534614
-0.0649503,0.176336,-2.45253,-0.0857844,-0.34082,-0.495562,0.0121403,-0.0827243,-0.0979204
-0.0694462,0.175542,-2.46288,-0.0653981,-0.274949,-0.517299,0.0295208,-0.0774489,-0.144191
-0.0712982,0.175147,-2.47376,-0.0670197,-0.122938,-0.559062,0.0369752,-0.0861534,-0.169519
-0.0719331,0.173349,-2.486,-0.214417,-0.180769,-0.636433,0.00814122,-0.059024,-0.141558
-0.0744944,0.168954,-2.50034,-0.306426,-0.306256,-0.745843,-0.0292496,-0.046876,-0.182698
-0.0781676,0.16498,-2.51628,-0.18527,-0.293409,-0.76983,-0.00350829,-0.0443701,-0.297245
-0.079108,0.164764,-2.53111,0.0571342,-0.0112047,-0.679707,0.00947379,-0.00907648,-0.360561
-0.0743207,0.169019,-2.54368,0.242299,0.237842,-0.61066,-0.0135215,0.00448808,-0.284244
-0.0677519,0.174771,-2.55592,0.221683,0.165856,-0.648823,-0.0644043,-0.0127628,-0.0928561
