attitude_roll,attitude_pitch,attitude_yaw,rotationRate_x,rotationRate_y,rotationRate_z,acceleration_x,acceleration_y,acceleration_z
0.0127015,0.107807,-0.000685329,-0.0236155,0.0471536,0.0010522,-0.00150372,-0.000555791,0.0115398
0.0132044,0.107574,-0.000662198,0.0079064,-0.015346,9.84077e-05,0.00364172,0.00102827,-0.00380725
0.012844,0.107769,-0.000634943,-0.00305062,0.00612202,0.00192252,0.00291696,0.000688255,0.00264615
0.0130084,0.107675,-0.000630632,0.00251848,-0.00807807,2.77541e-05,0.00162425,-7.73221e-05,0.00929183
0.0128885,0.107755,-0.000606474,-0.00413258,0.00626411,0.000682634,0.00160615,0.000597708,0.0047071
0.012891,0.107756,-0.000614646,0.00957363,-0.0171149,0.00111623,0.00134427,0.000782177,0.00154835
0.0128719,0.107776,-0.000614943,-0.00906459,0.0134399,-0.00194237,0.00140913,0.000298165,0.0109764
0.0128935,0.107746,-0.000618659,0.00581641,-0.00772368,0.000560341,0.00382901,0.00118363,-0.00278401
0.0129147,0.107748,-0.000620297,-0.002569,0.00949426,0.000325766,0.000573032,-0.000126615,0.0133135
0.0129043,0.107796,-0.000607661,0.00402124,-0.00475848,-0.0014555,0.00452026,0.00101936,-0.00153828
0.0129436,0.107749,-0.000609819,-0.00219627,0.00407656,0.0020958,0.000559613,-0.000399895,0.010368
0.0129144,0.10776,-0.000622945,0.000554761,-0.00196992,0.000327852,0.000832781,0.00162467,0.000800014
0.0129463,0.107725,-0.000622877,0.000378589,-0.000434799,0.000779835,0.00156393,0.000613853,0.00548774
0.0129547,0.107748,-0.000604906,0.000551076,0.00115024,0.000483376,0.00179975,0.00109388,0.0052411
0.0129651,0.107759,-0.000599999,0.00193359,-0.00250285,0.000949539,0.00262862,0.000387751,0.00340873
0.0129498,0.107751,-0.000576642,-0.00113816,0.00227082,-0.000559815,0.00194196,0.00114308,0.00650728
0.0129364,0.107754,-0.000578466,0.000400031,-0.00160746,0.000204548,0.00299289,0.000108816,0.00373
0.0129609,0.107736,-0.000573293,-0.000169154,-0.00098185,0.000534669,0.00135111,-0.000153944,0.0043878
0.0129855,0.107749,-0.000561346,0.00252465,0.00151171,0.000504455,0.00323399,0.000393599,0.004798
0.0129948,0.107764,-0.000536399,0.000528061,-0.00141681,0.00135459,0.00235499,8.82447e-05,0.00417066
0.0129955,0.107752,-0.000517024,-3.33679e-05,0.00145612,0.0024462,0.00163713,0.000167802,0.00496536
0.0129888,0.107734,-0.000503153,-0.000275268,-0.00255273,-0.000733604,0.00167424,0.000973031,0.00481492
0.0129866,0.107715,-0.00051306,-0.00143837,-0.000613417,-0.00201461,0.00167648,0.000710152,0.00582409
0.0129987,0.107726,-0.000537781,0.000689629,-0.0014581,0.00155168,0.00207638,0.000614069,0.00530398
0.0130162,0.107711,-0.000536987,-0.000996083,-0.000601661,0.000480667,0.00196742,0.000569403,0.00384039
0.0130438,0.107686,-0.00051877,-0.00194661,-0.000407783,-0.000118539,0.00136011,0.00028497,0.00437683
0.0130703,0.107681,-0.00053617,0.00135321,0.00232264,0.00156412,0.00162368,0.000859678,0.00457537
0.0130682,0.107678,-0.000530881,-0.000316058,0.00107389,0.00241553,0.00158,0.000307254,0.00443846
0.0130752,0.107688,-0.000534145,-0.00215633,0.00117912,-0.00176015,0.00193928,0.000423767,0.00500184
0.0130808,0.107664,-0.000554372,-0.0010043,-0.00059725,0.000823947,0.00089613,0.000400051,0.00442451
0.0130786,0.107657,-0.00054731,0.000813268,0.00101275,0.00191126,0.00163067,0.000347435,0.00520349
0.0130821,0.107656,-0.000543426,0.00103857,0.00221543,0.000100067,0.0021918,-0.000294127,0.00442529
0.0130702,0.107684,-0.00053719,0.000760993,0.000841355,0.00106544,0.00125759,0.00041981,0.00518543
0.0130751,0.107662,-0.000550013,-0.00150907,0.00126963,0.00255858,0.00157315,0.000184432,0.00486732
0.013099,0.107636,-0.000550472,-0.001214,0.00219043,0.000829243,0.00156458,0.00101308,0.00421363
0.0131058,0.107655,-0.00056061,0.00326609,-0.001467,-0.00107665,0.00154263,-5.21541e-06,0.00482184
0.0131066,0.107682,-0.000563678,0.00219546,0.00118171,0.00109102,0.00154187,-0.000436462,0.00448328
0.0131281,0.107669,-0.000546764,-0.0014461,0.000308464,0.00145647,0.00148997,0.000740893,0.00391984
0.0131329,0.107635,-0.000539482,-0.00412722,-0.00149038,-0.000604074,0.00186663,0.000325501,0.00502205
0.0131042,0.107642,-0.000540163,0.000197383,-0.00168478,0.000673135,0.00166621,-7.92593e-05,0.00454861
0.0130947,0.107646,-0.000532473,0.00200579,0.000764708,-0.000709431,0.00198087,-0.000167385,0.00540286
0.0130972,0.107646,-0.000533113,-0.000769409,-0.00173125,-0.00048111,0.00203945,0.000290684,0.00407529
0.0131101,0.107641,-0.000542944,-0.000752821,0.00110243,0.00113123,0.0019808,0.000438079,0.00537264
0.013123,0.107636,-0.000527355,0.00114088,0.00228089,0.000671472,0.00144922,0.000647083,0.00450325
0.0131233,0.107654,-0.000538924,0.000340375,-0.00258645,-0.000413676,0.00149473,0.00048209,0.00489801
0.0131003,0.107662,-0.000537469,-0.000132967,0.000456241,0.00137104,0.00145648,-2.89381e-05,0.00462282
0.0131018,0.107648,-0.000521603,-2.70556e-05,-9.03318e-05,0.0010284,0.00154657,0.00041455,0.00549406
0.0131205,0.107623,-0.000515583,-0.000701132,-0.00103625,-0.000674007,0.00187892,0.000435531,0.00451994
0.0131075,0.10764,-0.000515192,0.000117218,-0.00166325,0.000430266,0.00227332,-2.00719e-05,0.00462502
0.0131107,0.107667,-0.000525589,0.000221514,0.000755763,-0.000173074,0.00162935,0.000434063,0.00393546
0.0131161,0.107671,-0.000522242,-0.000355767,0.00228211,0.000104715,0.00188338,0.00074321,0.0054456
0.0131145,0.107654,-0.000517796,-0.00021064,0.00204431,7.0977e-05,0.00177809,0.000573248,0.00460827
0.0131145,0.107654,-0.000517796,-0.00021064,0.00204431,7.0977e-05,0.00177809,0.000573248,0.00460827
0.0131062,0.107642,-0.000535112,0.000783836,-0.000979684,-0.000229002,0.00181687,0.00111055,0.0054794
0.0131477,0.107682,-0.000613965,-0.00153734,0.00911798,0.0021498,-0.00338183,-0.000634186,0.00347555
0.0131502,0.10769,-0.000626646,0.00130738,0.0132143,-0.00038117,0.00186476,0.000502877,0.0041461
0.0132705,0.107674,-0.000642337,-0.00229778,0.00066484,0.000719693,0.00362193,0.000609085,0.00495493
0.0132863,0.107657,-0.000647722,-0.000256637,-0.00491962,0.00193272,0.00108849,0.00130899,0.00382739
0.0132728,0.107682,-0.000685334,-0.00139661,0.000423755,-0.00535637,0.000628904,0.000662178,0.00532031
0.0132945,0.107694,-0.000748753,0.00108294,0.00156823,-0.00268423,0.00182805,0.000567503,0.0053798
0.00946998,0.10896,-0.00256685,0.245185,-0.777272,-0.410944,0.0668955,0.00177981,-0.0329828
0.00363584,0.107918,-0.01978,-0.0335994,-0.0879776,-1.18885,0.36928,0.286892,-0.0202131
0.0145984,0.108221,-0.0368022,0.0546086,0.321599,-0.334454,-0.435792,0.00269398,0.357966
0.00565169,0.10927,-0.0348383,0.00087743,-0.95257,0.352814,-0.141345,-0.256686,-0.425703
-0.0129827,0.106759,-0.0274456,-0.24568,-0.782172,0.344433,-0.0531927,0.104603,-0.0983675
-0.0264911,0.100092,-0.0222695,-0.353936,-0.464317,0.157166,-0.0680507,0.233988,-0.0268079
-0.0289259,0.0945218,-0.0230515,-0.189689,0.212757,-0.1947,0.022201,0.283941,0.0953242
-0.0174628,0.0923223,-0.027271,-0.0286224,0.937321,-0.137806,0.0712206,0.355832,-0.00820988
0.0122604,0.0958995,-0.0281573,0.423371,1.93417,0.0328858,0.196338,0.379261,0.00512654
0.0520298,0.109378,-0.0252874,0.903843,1.94329,0.37783,0.227739,0.382964,-0.343884
0.0852266,0.133607,-0.0119864,1.40208,1.45594,1.13176,0.163438,0.270554,-0.509747
0.104772,0.169254,0.0159809,1.84947,0.953556,1.92786,0.142062,0.258566,-0.550304
0.114119,0.214674,0.0576897,2.17477,0.826174,2.56164,0.157877,0.373704,-0.435407
0.120878,0.265806,0.107768,2.25257,1.08999,2.78419,0.202758,0.493949,-0.259445
0.131249,0.315604,0.160213,2.00222,1.41052,2.78617,0.217342,0.51646,-0.101939
0.143184,0.358698,0.214073,1.52174,1.47897,2.81046,0.196235,0.490277,-0.0154119
0.151222,0.391551,0.271357,0.915449,1.42155,2.9573,0.120918,0.426041,0.00230128
0.150576,0.413708,0.33616,0.408984,1.00741,3.25245,0.0715704,0.371276,-0.0352606
0.136042,0.429316,0.410797,0.201928,0.593185,3.68858,0.0424567,0.289967,0.0158096
0.109644,0.442422,0.496618,0.136089,0.43274,4.1228,0.0285223,0.278532,0.0736143
0.0790695,0.450956,0.589275,-0.117856,0.535481,4.1588,-0.0247499,0.285832,0.115999
0.0522101,0.449551,0.67897,-0.553709,0.678942,3.82544,-0.117009,0.315695,0.126008
0.0309702,0.437641,0.761186,-0.91458,0.723213,3.5334,-0.132799,0.321555,0.139862
0.0141709,0.418657,0.837549,-1.10946,0.764705,3.35268,-0.122017,0.282968,0.185379
0.000907251,0.395632,0.91033,-1.21885,0.784362,3.29137,-0.104917,0.212631,0.200371
-0.0103383,0.370961,0.981709,-1.17555,0.739004,3.31914,-0.118554,0.184152,0.161727
-0.0216585,0.348193,1.05339,-0.968356,0.635911,3.40069,-0.136671,0.174619,0.0945404
-0.0341127,0.329151,1.1275,-0.737392,0.556217,3.61349,-0.142484,0.166227,0.0690729
-0.0483499,0.312596,1.20542,-0.629328,0.485456,3.79952,-0.147676,0.181981,0.049044
-0.0637322,0.29545,1.28574,-0.66014,0.36534,3.87871,-0.171599,0.186221,0.0271319
-0.0794684,0.276779,1.3651,-0.622076,0.328576,3.79337,-0.176719,0.180134,-0.00191069
-0.0930914,0.259452,1.44177,-0.447206,0.305985,3.69339,-0.184248,0.196263,-0.0131027
-0.107913,0.245498,1.51737,-0.190731,0.085929,3.71861,-0.142947,0.168943,-0.0230833
-0.126128,0.235814,1.59494,0.101773,-0.0629537,3.8427,-0.118609,0.156806,0.0138409
-0.14754,0.229545,1.67458,0.312203,-0.244808,3.84682,-0.110512,0.174647,0.0216318
-0.171629,0.225443,1.75273,0.485244,-0.372914,3.67806,-0.107628,0.158932,0.0423145
-0.19581,0.223123,1.82756,0.604251,-0.35801,3.51638,-0.0950061,0.164818,0.0746326
-0.217972,0.220946,1.90026,0.60891,-0.240632,3.43736,-0.0559749,0.181692,0.112684
-0.236382,0.216344,1.97103,0.47805,-0.0503822,3.35127,-0.0116591,0.175354,0.15891
-0.249295,0.207935,2.03835,0.282227,0.181184,3.19616,0.00137007,0.126301,0.194458
-0.25579,0.196466,2.10141,0.182446,0.417933,3.0322,-0.0080221,0.0718524,0.175628
-0.257358,0.185813,2.16016,0.268104,0.497673,2.76463,-0.058311,0.0328291,0.121928
-0.257358,0.185813,2.16016,0.268104,0.497673,2.76463,-0.058311,0.0328291,0.121928
-0.257186,0.178949,2.21319,0.381449,0.478058,2.4332,-0.106834,0.00851628,0.0487273
-0.256679,0.174311,2.26074,0.314505,0.370658,2.20807,-0.146141,-0.0376605,0.00546819
-0.259115,0.167503,2.30408,0.105961,0.133824,2.08298,-0.110504,-0.114545,-0.00844419
-0.264388,0.157742,2.3439,-0.0090279,0.00226834,1.93081,-0.0664957,-0.182068,0.00433969
-0.270484,0.148441,2.3794,0.0626071,-0.0554002,1.66805,-0.022163,-0.206199,-0.0232283
-0.276048,0.142745,2.41013,0.201536,-0.067421,1.40909,-0.0239178,-0.188337,-0.0408401
-0.282681,0.140212,2.43669,0.26091,-0.26226,1.17857,-0.0478264,-0.151461,-0.069987
-0.294609,0.138908,2.45923,0.23485,-0.594142,1.00137,-0.0424027,-0.13705,-0.0898686
-0.310906,0.136716,2.47843,0.0919641,-0.728547,0.88088,-0.0241123,-0.136491,-0.0465273
-0.325737,0.130396,2.49465,-0.204705,-0.447934,0.841919,0.011703,-0.105935,-0.0498249
-0.330192,0.117892,2.50761,-0.558084,0.184243,0.745306,-0.000322521,-0.0662339,-0.076333
-0.321413,0.100376,2.51509,-0.826798,0.722689,0.492138,-0.0752394,-0.00974674,-0.177308
-0.304319,0.0819609,2.51601,-0.841955,0.943626,0.157735,-0.152732,0.0115721,-0.289752
-0.285435,0.0675916,2.51214,-0.594857,0.857921,-0.0708949,-0.191999,-0.0158491,-0.366565
-0.270422,0.0606091,2.50898,-0.145613,0.655421,0.0160344,-0.167862,-0.0972648,-0.323786
-0.257108,0.060139,2.51094,0.228905,0.383207,0.234233,-0.0752766,-0.175783,-0.147336
-0.251228,0.0661226,2.52234,0.540003,0.389428,0.678145,-0.121822,-0.144573,0.0157312
-0.246073,0.0725609,2.53938,0.456284,0.288726,0.751699,-0.057688,0.00317663,0.00888938
-0.239227,0.0752233,2.55374,0.110537,0.47867,0.508391,-0.150285,0.0365172,0.0929806
-0.228453,0.0721224,2.55859,-0.274095,0.640802,0.0288024,-0.175958,0.067223,0.0198714
-0.213419,0.0656356,2.554,-0.408176,0.821637,-0.287257,-0.182132,0.039374,-0.0154383
-0.196184,0.0595487,2.54599,-0.314876,0.806712,-0.33284,-0.158705,0.0142255,-0.0617076
-0.181195,0.0566451,2.53984,-0.0663278,0.623229,-0.194306,-0.132645,-0.0404615,-0.0466504
-0.171127,0.0586082,2.53831,0.228559,0.35308,0.0264352,-0.100508,-0.0766029,-0.00308424
-0.167023,0.0651825,2.54258,0.471153,0.105266,0.276728,-0.0616141,-0.0786624,0.0682185
-0.166348,0.0743182,2.55155,0.541348,0.0667093,0.439587,-0.0212307,-0.0467828,0.146346
-0.16489,0.0825468,2.5628,0.4235,0.162126,0.505106,0.000224367,-0.00627668,0.209808
-0.16141,0.0873139,2.57314,0.206894,0.277986,0.417701,0.00580099,0.0140067,0.226803
-0.15548,0.0885169,2.58029,0.0430179,0.368974,0.258337,-0.00839579,0.0303113,0.226211
-0.148099,0.0882808,2.58404,0.00406278,0.377894,0.133585,-0.0249679,0.0314646,0.204913
-0.142016,0.0880689,2.58666,0.0133772,0.228452,0.149407,-0.020676,-0.00671031,0.170331
-0.139577,0.0879292,2.59106,0.0332078,0.0613123,0.302981,-0.00769936,-0.0495436,0.158431
-0.140414,0.0874569,2.59906,0.0184762,-0.065845,0.479955,0.0137165,-0.0554462,0.143417
-0.142868,0.0857452,2.60973,-0.0436595,-0.0608167,0.578835,0.0232522,-0.0608441,0.13977
-0.14404,0.082453,2.62155,-0.112965,0.0452958,0.616516,0.0122559,-0.0445019,0.123031
-0.1436,0.0775516,2.63333,-0.201907,0.0729676,0.602736,0.0017159,-0.0267893,0.058632
-0.143794,0.070939,2.6444,-0.287856,-0.0247978,0.585616,-0.00497988,-0.0348943,-0.0125351
-0.145937,0.0627216,2.65551,-0.358192,-0.101023,0.641363,-0.0100479,-0.0135675,-0.0777304
-0.148876,0.0532187,2.66822,-0.383276,-0.117656,0.745546,0.00205956,0.00561682,-0.126475
-0.152019,0.0434906,2.68273,-0.349518,-0.132062,0.818487,0.0197449,-0.0263014,-0.140351
-0.155777,0.0345066,2.69856,-0.288709,-0.176282,0.870319,0.033702,-0.0298923,-0.148271
-0.160319,0.0267205,2.7159,-0.204777,-0.234978,0.973786,0.0346066,0.00886468,-0.144981
-0.165814,0.0193204,2.73662,-0.214642,-0.238956,1.19202,0.0786142,0.00724957,-0.0994406
-0.170254,0.00902018,2.76097,-0.408805,-0.1646,1.33063,0.0791399,0.0559715,-0.110308
-0.172759,-0.00547689,2.78531,-0.5728,-0.0769385,1.2842,0.0475089,0.125428,-0.179741
-0.172965,-0.0210153,2.80784,-0.533714,0.025268,1.19622,0.0198293,0.15434,-0.215975
-0.170889,-0.0340457,2.82965,-0.360762,0.106871,1.16976,0.00890301,0.115665,-0.202866
-0.167482,-0.0429851,2.85207,-0.131105,0.136093,1.18257,0.0156516,0.0572785,-0.149547
-0.163645,-0.0469218,2.87582,0.136894,0.140095,1.21541,0.0315871,0.0454722,-0.0762135
-0.159733,-0.0456869,2.90139,0.377209,0.121427,1.27695,0.0481704,0.0833575,-0.018521
-0.159733,-0.0456869,2.90139,0.377209,0.121427,1.27695,0.0481704,0.0833575,-0.018521
-0.155944,-0.0411262,2.92932,0.474793,0.146709,1.40544,0.059295,0.140297,0.00830084
-0.151336,-0.0365408,2.96004,0.426422,0.189444,1.52872,0.0504383,0.172437,0.0259966
-0.145753,-0.0335761,2.99235,0.349616,0.262628,1.59768,0.0302717,0.179489,0.0304347
-0.138215,-0.0317475,3.02546,0.302993,0.38124,1.63029,0.00861666,0.176434,0.0419816
-0.128648,-0.030394,3.0586,0.271224,0.454999,1.60327,-0.0304723,0.155692,0.0396028
-0.119147,-0.0291077,3.09034,0.251469,0.366177,1.50609,-0.0700581,0.125316,0.0115328
-0.112574,-0.0272144,3.12003,0.28853,0.20543,1.41107,-0.0805305,0.105937,-0.0172873
-0.109438,-0.0236429,-3.13476,0.381279,0.0244437,1.36285,-0.0635711,0.0778151,-0.0163767
-0.110152,-0.0181999,-3.10658,0.460099,-0.140342,1.36725,-0.0183088,0.0514577,0.00598186
-0.112898,-0.0117685,-3.07816,0.478471,-0.15116,1.37143,0.0319159,0.0410425,0.0400433
-0.115003,-0.00569118,-3.04977,0.431406,-0.0656256,1.36569,0.0640433,0.0366979,0.0779272
-0.114764,-0.00150861,-3.02221,0.288579,0.0796323,1.2846,0.0652721,0.0448477,0.0971347
-0.112556,-0.000145541,-2.99803,0.123968,0.115335,1.07916,0.0399615,0.0566783,0.0821885
-0.11059,-0.00117098,-2.97864,-0.00780031,0.0756384,0.847956,0.0276006,0.0463145,0.0503175
-0.109872,-0.00401631,-2.96375,-0.11078,-0.00165559,0.667094,0.0329445,0.0334747,0.00868684
-0.110416,-0.0083946,-2.95227,-0.189638,-0.0523423,0.519803,0.0525407,-0.00953877,-0.0121824
-0.111508,-0.01343,-2.9435,-0.197041,-0.0695418,0.412847,0.073486,-0.0493334,-0.0205519
-0.112769,-0.0173968,-2.93627,-0.109504,-0.0513289,0.345268,0.0953163,-0.0585945,-0.0309771
-0.113133,-0.0194531,-2.92996,-0.0253556,-0.00407454,0.303265,0.0853129,-0.0776792,-0.0301555
-0.113116,-0.0199923,-2.92434,0.0397459,-0.0181538,0.268224,0.0678082,-0.103273,-0.0470403
-0.113791,-0.0189587,-2.91866,0.130698,-0.0570971,0.293996,0.0461117,-0.123389,-0.0484701
-0.115653,-0.0155951,-2.91188,0.279757,-0.145488,0.334817,0.0191284,-0.113785,-0.0528521
-0.11935,-0.0093201,-2.9046,0.415476,-0.255336,0.29253,-0.0226314,-0.0945859,-0.0444646
-0.127391,-0.000555059,-2.89854,0.5106,-0.572162,0.200072,-0.0214057,-0.0929621,-0.0447093
-0.142207,0.00907172,-2.89316,0.482521,-0.878404,0.231594,0.0147692,-0.0995403,-0.0171999
-0.161245,0.0155819,-2.88586,0.232902,-0.960272,0.39163,0.0320331,-0.0272348,-0.0164332
-0.178605,0.0148225,-2.87701,-0.160672,-0.698755,0.470931,0.0420786,0.00113491,0.0110382
-0.187804,0.00677182,-2.86916,-0.447423,-0.221353,0.419509,0.0131752,0.0542878,0.0127742
-0.189392,-0.00419817,-2.86416,-0.493708,0.0110839,0.275392,-0.0407134,0.110182,-0.0433414
-0.189816,-0.0133336,-2.86121,-0.322813,-0.114679,0.207666,-0.0779552,0.107608,-0.0594454
-0.195288,-0.0184402,-2.85726,-0.110264,-0.433345,0.290464,-0.0725394,0.0810483,-0.0312905
-0.205401,-0.0208905,-2.85008,-0.0087179,-0.531694,0.46056,-0.0237303,0.0354314,0.0546018
-0.214031,-0.0233999,-2.83997,-0.0396812,-0.312034,0.55753,0.0137189,0.0501498,0.125246
-0.216446,-0.0276412,-2.82917,-0.150764,0.0234448,0.566517,0.00708161,0.110638,0.124762
-0.213931,-0.0337778,-2.81926,-0.219805,0.174211,0.531109,-0.0138767,0.146801,0.0667801
-0.209632,-0.0402671,-2.80934,-0.197216,0.192885,0.574657,-0.0486754,0.161923,0.0235946
-0.205744,-0.0461606,-2.79769,-0.140899,0.151501,0.686518,-0.0578091,0.143889,0.00867409
-0.202389,-0.0516422,-2.78367,-0.110508,0.10595,0.77079,-0.0577727,0.110338,0.0261044
-0.200401,-0.0564301,-2.76854,-0.048268,0.0025479,0.790531,-0.0559694,0.0783656,0.0468321
-0.200914,-0.0593452,-2.75292,0.0814786,-0.146096,0.793346,-0.0437063,0.0530402,0.0627086
-0.204186,-0.0596031,-2.73594,0.23116,-0.279384,0.868595,-0.0206119,0.020541,0.0852755
-0.209321,-0.0578126,-2.71653,0.330078,-0.329511,0.988177,-0.0046946,0.0101366,0.109595
-0.214611,-0.0552877,-2.69427,0.370525,-0.309376,1.11438,0.0109058,0.0036853,0.142162
-0.218946,-0.0531061,-2.66989,0.363151,-0.259543,1.20704,0.00881033,0.0193372,0.152378
-0.222606,-0.0514867,-2.64359,0.367027,-0.236616,1.30745,0.00920655,0.0458263,0.133518
-0.225545,-0.0504452,-2.61512,0.357387,-0.193215,1.43143,-0.00606248,0.100135,0.103987
-0.226827,-0.0507442,-2.58449,0.291889,-0.0820464,1.52636,-0.0260278,0.132261,0.07805
-0.22573,-0.0526071,-2.55285,0.245804,0.0142723,1.57533,-0.0509512,0.132812,0.0507209
-0.223858,-0.0546394,-2.52065,0.285365,-0.0143891,1.59325,-0.0618774,0.0912467,0.0264344
-0.223043,-0.0553254,-2.48714,0.396447,-0.0997627,1.68046,-0.0646781,0.0740059,0.0170717
-0.223043,-0.0553254,-2.48714,0.396447,-0.0997627,1.68046,-0.0646781,0.0740059,0.0170717
-0.224129,-0.054191,-2.4508,0.499465,-0.199626,1.81966,-0.0456467,0.0338635,0.0222781
-0.226154,-0.0527222,-2.41142,0.502959,-0.182614,1.95478,-0.0302464,0.0272431,0.0315468
-0.22647,-0.0524608,-2.36972,0.447299,-0.0714242,2.05889,-0.0351994,0.060692,0.0386609
-0.225302,-0.0538447,-2.32746,0.360852,-0.0550723,2.05066,-0.0450963,0.0545799,0.0193193
-0.224545,-0.0564055,-2.28592,0.315461,-0.0991839,2.03518,-0.0539665,0.0437069,-0.00378209
-0.224818,-0.0595239,-2.24449,0.29933,-0.169482,2.03986,-0.0493015,0.0161187,-0.0171871
-0.226432,-0.0627392,-2.20324,0.307195,-0.240025,2.02485,-0.043212,-0.0155483,-0.0117424
-0.228966,-0.0657168,-2.16231,0.321839,-0.265526,1.9893,-0.0337728,-0.0386461,-0.00195563
-0.231218,-0.0685093,-2.12278,0.30002,-0.218629,1.88298,-0.0187952,-0.0653733,0.0165452
-0.231919,-0.0714098,-2.08604,0.256684,-0.0956958,1.73245,-0.0145299,-0.0603322,0.0259378
-0.230077,-0.0745275,-2.05245,0.206113,0.0289549,1.57702,-0.0145388,-0.0687821,0.0261676
-0.226158,-0.0777758,-2.02238,0.158008,0.123463,1.40576,-0.022079,-0.0866543,0.0151682
-0.220906,-0.0808083,-1.99567,0.14292,0.181342,1.24785,-0.033509,-0.0854353,-0.00445902
-0.215097,-0.0829136,-1.97187,0.165371,0.203812,1.10944,-0.0357344,-0.0873504,-0.0252104
-0.20923,-0.0835937,-1.94971,0.236644,0.182314,1.07115,-0.0435682,-0.0751345,-0.0439318
-0.204343,-0.082472,-1.92706,0.334184,0.107238,1.11195,-0.0383202,-0.080288,-0.0594426
-0.201076,-0.0798854,-1.90292,0.392114,0.013495,1.18339,-0.0459696,-0.0472992,-0.0616179
-0.200552,-0.0766419,-1.87759,0.417404,-0.162637,1.19972,-0.0451949,-0.0158216,-0.0528576
-0.204122,-0.0733594,-1.85295,0.388262,-0.378332,1.11445,-0.0615548,0.00351921,-0.0350675
-0.212184,-0.0705151,-1.83074,0.337703,-0.565961,0.98159,-0.0559346,-0.00212776,-0.0177302
-0.222514,-0.0683226,-1.81111,0.29184,-0.564723,0.884367,-0.0270097,-0.011705,0.00784498
-0.231032,-0.067376,-1.79321,0.192907,-0.384002,0.828779,0.00319745,-0.0292696,0.0404663
-0.23551,-0.068602,-1.77717,0.061124,-0.173871,0.73781,0.0189234,-0.0457668,0.0426789
-0.236313,-0.0714538,-1.76386,-0.0152978,-0.0163383,0.612811,0.019396,-0.0476808,0.0257877
-0.235122,-0.0745654,-1.75314,-0.0332045,0.0512737,0.499604,0.018386,-0.0427885,-0.0117379
-0.233351,-0.0774769,-1.74454,-0.0479074,0.0506944,0.391325,0.0159612,-0.0484077,-0.0261611
-0.232173,-0.0798741,-1.73821,-0.0286811,0.0209417,0.275593,0.0229992,-0.0578623,-0.0319481
-0.231402,-0.0808803,-1.7336,0.0365481,0.0178786,0.198079,0.0393995,-0.0682494,-0.0223899
-0.230842,-0.0805085,-1.7299,0.0718896,0.0167196,0.161488,0.0540603,-0.0647507,-0.0144355
-0.229782,-0.0800205,-1.7263,0.0596603,0.066752,0.179831,0.0653544,-0.0501041,-0.016796
-0.227335,-0.0796717,-1.72228,0.0632733,0.1605,0.201303,0.0729792,-0.0517096,-0.0105704
-0.222714,-0.0790644,-1.71785,0.102317,0.24986,0.2133,0.065051,-0.0382868,-0.0117387
-0.217076,-0.077276,-1.71304,0.168208,0.257233,0.208523,0.049449,-0.0295307,-0.0162357
-0.212083,-0.0744264,-1.70846,0.207449,0.181232,0.17133,0.0297687,-0.00770725,-0.0255695
-0.209518,-0.0704462,-1.7045,0.257614,0.0579874,0.129446,0.0279071,0.00528038,-0.0263242
-0.208977,-0.0657934,-1.70134,0.254402,-0.019796,0.0785793,0.030848,0.0167126,-0.00400597
-0.20975,-0.0611024,-1.6994,0.241367,-0.06098,0.0131501,0.0513481,0.0115522,0.0182652
-0.211054,-0.0565183,-1.69858,0.215956,-0.0614714,-0.0161133,0.0736278,0.00238026,0.0381847
-0.211988,-0.0528046,-1.69805,0.145988,-0.0290243,-0.00209926,0.0895354,-0.00837696,0.0474952
-0.211965,-0.0508401,-1.69744,0.0582894,0.0332783,0.0187366,0.0924186,-0.0215976,0.0457379
-0.210291,-0.0504876,-1.69709,-0.00829912,0.122625,-0.0021662,0.08267,-0.0240532,0.0432829
-0.207092,-0.0508044,-1.69783,-0.0287655,0.189044,-0.0630333,0.066983,-0.0253156,0.0181112
-0.203129,-0.0510319,-1.69966,-0.0320529,0.193231,-0.1055,0.0444447,-0.027145,-0.000381172
-0.199785,-0.0512805,-1.70213,-0.0421927,0.132121,-0.128459,0.0257276,-0.0323065,-0.0178527
-0.198231,-0.0514531,-1.70498,-0.0271704,0.042569,-0.1436,0.019978,-0.0312887,-0.0348275
-0.198311,-0.0511049,-1.70825,-0.00288501,-0.0373823,-0.188621,0.0157874,-0.0160637,-0.0373588
-0.199792,-0.0501172,-1.71255,0.00157895,-0.0854528,-0.25044,0.0229844,-0.00558633,-0.0260971
-0.201641,-0.0492956,-1.71812,-0.0441837,-0.066924,-0.315373,0.0335001,-0.000996839,-0.0157137
-0.202785,-0.0489073,-1.72533,-0.0606436,-0.0112677,-0.39158,0.0483258,-0.00211962,-0.0165654
-0.202604,-0.0483448,-1.73371,-0.0641212,0.0586673,-0.428681,0.0571865,-0.00755448,-0.0118176
-0.202604,-0.0483448,-1.73371,-0.0641212,0.0586673,-0.428681,0.0571865,-0.00755448,-0.0118176
-0.201365,-0.0480657,-1.74262,-0.08567,0.101465,-0.441164,0.0574728,-0.0187197,-0.015905
-0.19962,-0.0479103,-1.75186,-0.0743413,0.113139,-0.471613,0.0588485,-0.0248817,-0.0236225
-0.197423,-0.0468853,-1.76189,-0.0168276,0.152113,-0.535855,0.0549978,-0.0284965,-0.0167029
-0.194535,-0.044466,-1.77311,0.0352596,0.18566,-0.598917,0.0525097,-0.0365015,-0.015987
-0.190897,-0.0409694,-1.78495,0.0681791,0.227004,-0.608735,0.0481621,-0.0445437,-0.00502765
-0.185944,-0.0377133,-1.79649,0.0310582,0.31966,-0.579949,0.0443464,-0.0518492,0.0110246
-0.178796,-0.035564,-1.80781,-0.0218085,0.427672,-0.57031,0.0306374,-0.054279,0.023628
-0.169937,-0.0343165,-1.81941,-0.050633,0.487979,-0.597039,0.010543,-0.0403217,0.021148
-0.160388,-0.0334037,-1.83207,-0.0667426,0.491914,-0.658311,-0.013361,-0.025768,0.0148892
-0.151952,-0.0326816,-1.84576,-0.0725141,0.388799,-0.690711,-0.0183601,-0.0443029,0.0100749
-0.146091,-0.0319186,-1.85967,-0.0517254,0.238666,-0.683482,-0.0157575,-0.0696634,0.00839031
-0.142736,-0.0307032,-1.87277,-0.00743976,0.15267,-0.616326,0.00114836,-0.0758186,0.0096581
-0.140235,-0.0286935,-1.88398,0.0515806,0.142536,-0.509239,0.0206391,-0.0675995,0.0158528
-0.137466,-0.0262285,-1.89274,0.0622499,0.159025,-0.397004,0.0255364,-0.0517381,0.016837
-0.134076,-0.0239499,-1.90004,0.0646103,0.197493,-0.362091,0.0197444,-0.0326603,0.0205568
-0.129745,-0.0214654,-1.9073,0.0848755,0.24791,-0.392692,0.00087212,-0.0151465,0.0243713
-0.124885,-0.0184827,-1.91516,0.106231,0.246997,-0.412894,-0.00842582,-0.0210908,0.0172043
-0.120422,-0.015185,-1.92305,0.123806,0.205433,-0.401996,-0.0152887,-0.0217151,0.00585765
-0.116843,-0.0113772,-1.93047,0.163843,0.156047,-0.37288,-0.0177528,-0.0151458,-0.00328165
-0.114424,-0.00697137,-1.93724,0.187199,0.0820667,-0.350344,-0.0221806,-0.000837217,-0.00935578
-0.113512,-0.00250677,-1.94377,0.170734,0.0140798,-0.353408,-0.0295538,0.0187488,-0.0041194
-0.113595,0.00125256,-1.95081,0.116231,-0.00851445,-0.387706,-0.0287844,0.0280471,0.00580704
-0.113627,0.00400362,-1.95869,0.0719379,0.00425529,-0.416075,-0.0221314,0.0231535,0.017866
-0.112983,0.00591989,-1.96687,0.0231358,0.0602004,-0.404336,-0.015952,0.0135341,0.0276949
-0.111106,0.00669811,-1.97478,-0.0311853,0.117076,-0.390002,-0.0142931,0.00201368,0.030967
-0.108241,0.00641703,-1.98274,-0.0775406,0.154326,-0.389543,-0.0240981,-0.00150226,0.0245837
-0.10507,0.00548748,-1.9903,-0.0930857,0.150023,-0.352199,-0.034956,-0.000524434,0.0203797
-0.102342,0.00412418,-1.99767,-0.118167,0.114861,-0.375042,-0.0470687,-0.0140795,0.012673
-0.100191,0.00231715,-2.00601,-0.135316,0.100832,-0.426794,-0.0550362,-0.0150625,0.00836432
-0.0981578,0.000697002,-2.01455,-0.108832,0.0902539,-0.39551,-0.0586921,-0.0141345,0.0128711
-0.0966856,-0.000674051,-2.02233,-0.109528,0.0584222,-0.364797,-0.0594707,-0.0317104,0.00608683
-0.0954602,-0.00215456,-2.02985,-0.0955975,0.0694814,-0.372944,-0.0635136,-0.0323059,0.00682789
-0.093953,-0.002706,-2.03741,-0.0330646,0.080405,-0.371108,-0.0694697,-0.0174307,0.00910532
-0.0925088,-0.00252791,-2.04499,-0.024748,0.0654117,-0.384345,-0.0739441,-0.0285136,0.00872141
-0.0913815,-0.00208155,-2.05296,0.0147381,0.0446264,-0.399621,-0.0723352,-0.0398165,0.0098483
-0.0909748,-0.000278341,-2.06047,0.0868415,-0.00201512,-0.356044,-0.0706649,-0.0281256,0.0104825
-0.0911732,0.00195923,-2.067,0.0620802,-0.0163128,-0.313268,-0.071215,-0.0230498,0.0203198
-0.0912978,0.00352173,-2.0732,0.0575419,0.0216623,-0.335786,-0.0624092,-0.000674365,0.0215859
-0.089597,0.0054945,-2.08089,0.0575642,0.140662,-0.449169,-0.0700241,0.0410018,0.0374167
-0.086292,0.00678066,-2.09051,-0.0158914,0.165357,-0.489214,-0.0694565,0.0340329,0.019648
-0.083848,0.00645034,-2.09937,-0.0852227,0.0574943,-0.365834,-0.0712812,0.0121266,0.00104374
-0.0844888,0.00493843,-2.10497,-0.105485,-0.128191,-0.173379,-0.0667052,-0.011953,-0.0117732
-0.0887793,0.00305337,-2.10696,-0.0917832,-0.284463,-0.0195738,-0.0555942,-0.025099,-0.0104737
-0.0952496,0.00155268,-2.10676,-0.0578856,-0.342539,0.0418547,-0.040606,-0.0272863,0.0111063
-0.102505,0.000114244,-2.10602,-0.093617,-0.385357,0.0366146,-0.0388025,-0.0098344,0.0328063
-0.110358,-0.00304398,-2.1059,-0.222085,-0.377199,0.0025097,-0.049565,0.0135882,0.0477452
-0.117795,-0.00861554,-2.10767,-0.345913,-0.381143,-0.130918,-0.0634352,0.00980201,0.060172
-0.125531,-0.0158443,-2.11296,-0.421726,-0.379779,-0.302209,-0.0863318,-0.0255024,0.0355554
-0.133623,-0.023066,-2.12152,-0.3774,-0.41201,-0.43869,-0.105472,-0.0954058,-0.00464606
-0.142624,-0.0278077,-2.13186,-0.217019,-0.435063,-0.497005,-0.108463,-0.15195,-0.0501633
-0.142624,-0.0278077,-2.13186,-0.217019,-0.435063,-0.497005,-0.108463,-0.15195,-0.0501633
-0.151069,-0.0283523,-2.14216,0.0249296,-0.380937,-0.492053,-0.0805831,-0.186094,-0.065528
-0.158249,-0.0240766,-2.14993,0.26036,-0.313626,-0.303739,-0.0593143,-0.184139,-0.0694068
-0.164591,-0.0174277,-2.15223,0.328545,-0.319827,-0.0341902,-0.0477541,-0.139619,-0.071007
-0.171189,-0.0116434,-2.1501,0.265602,-0.344735,0.113637,-0.0510315,-0.0847785,-0.0555927
-0.178598,-0.00732011,-2.14709,0.228025,-0.397822,0.0868525,-0.0407532,-0.0392413,-0.0559108
-0.186599,-0.0024671,-2.14504,0.29218,-0.39112,0.0330584,-0.0190419,-0.0182446,-0.0383582
-0.194422,0.00386594,-2.14337,0.349375,-0.381204,0.0308093,0.00876483,-0.0219061,-0.0272554
-0.201765,0.0107632,-2.14041,0.375925,-0.345199,0.13286,0.0356688,-0.0401402,0.00100464
-0.208343,0.0172836,-2.13509,0.363988,-0.301503,0.252401,0.0504206,-0.0361687,0.0199465
-0.213951,0.023009,-2.12793,0.336093,-0.251081,0.316443,0.0456403,-0.0180085,0.0453309
-0.218777,0.0274948,-2.12036,0.251834,-0.209506,0.307575,0.0326587,0.00484734,0.0626171
-0.222589,0.0299573,-2.11436,0.115165,-0.141258,0.206516,0.0268546,0.0264739,0.0684584
-0.224561,0.0304873,-2.11148,0.0060138,-0.048868,0.0643241,0.0240125,0.0357317,0.0639469
-0.224931,0.0298154,-2.11139,-0.0638726,0.00151657,-0.0252594,0.0249876,0.0226395,0.0474353
-0.224793,0.028492,-2.11207,-0.0684659,0.00190405,0.00872706,0.0313469,-0.00769037,0.0349609
-0.225006,0.0267584,-2.11145,-0.0902957,-0.017056,0.0871748,0.0314434,-0.0202571,0.0220817
-0.225174,0.0241494,-2.10969,-0.120198,0.0104663,0.129665,0.0277913,-0.0228194,0.0183859
-0.224401,0.0211338,-2.10777,-0.126078,0.0777315,0.115359,0.019806,-0.0189678,0.0157864
-0.222029,0.0183997,-2.10639,-0.101188,0.149318,0.0816572,0.00329897,-0.0135684,0.00684267
-0.219196,0.0166667,-2.10501,-0.0368981,0.119841,0.0960589,-0.00989528,-0.0144314,-0.017578
-0.217764,0.0162063,-2.10272,0.0388503,0.0230737,0.143628,-0.0135196,-0.01715,-0.0343958
-0.218241,0.0168961,-2.09899,0.10207,-0.059597,0.200513,-0.00696784,-0.0194816,-0.0279031
-0.219706,0.0182485,-2.09399,0.127922,-0.0713485,0.255263,0.00190294,-0.0169392,-0.00679064
-0.221141,0.0194683,-2.08816,0.110876,-0.0596859,0.280159,0.0102104,-0.00770874,0.00491238
-0.222043,0.0200994,-2.08223,0.0750232,-0.020472,0.26912,0.00452608,0.00415267,0.0154442
-0.222437,0.0199729,-2.07725,0.0226533,-0.00858313,0.211667,-0.00197119,0.0105112,0.0111638
-0.222449,0.019099,-2.07375,-0.033861,0.0121796,0.145069,-0.00987451,0.00536499,0.0191274
-0.2221,0.0174602,-2.07185,-0.0809283,0.0247634,0.0757315,-0.0076143,-0.010861,0.0157852
-0.221492,0.0155003,-2.07138,-0.094891,0.0304562,0.0162781,-0.00173096,-0.0272248,0.0142415
-0.220897,0.0135674,-2.07169,-0.102719,0.0284095,-0.00280123,0.000899568,-0.0349406,0.00803638
-0.220376,0.0113472,-2.07229,-0.126384,0.0392123,-0.00442692,0.00427324,-0.0388849,0.00524765
-0.219383,0.00884261,-2.07326,-0.132724,0.0639891,-0.0363669,0.00700189,-0.0379867,0.00106394
-0.217817,0.00671086,-2.0746,-0.111325,0.0906744,-0.0428301,0.00819324,-0.0348388,-0.00353944
-0.21583,0.0047727,-2.07577,-0.118062,0.106179,-0.0239501,0.00361517,-0.0326265,-0.00671744
-0.213924,0.00237058,-2.07676,-0.147344,0.076999,-0.0281872,-0.00985752,-0.0202581,-0.0106818
-0.212645,-0.000438376,-2.07821,-0.164252,0.0521163,-0.0575703,-0.0168748,-0.0191303,-0.00581551
-0.211615,-0.00315016,-2.08041,-0.154828,0.056755,-0.09625,-0.0104512,-0.0246497,-0.00329947
-0.210519,-0.00526437,-2.08307,-0.114072,0.050203,-0.104405,-0.00674924,-0.0275879,-0.00405496
-0.209788,-0.00673925,-2.08518,-0.0878928,0.0155078,-0.0668108,-0.00540517,-0.0343423,-0.00244647
-0.209802,-0.00817258,-2.08688,-0.0884152,-0.0117284,-0.0735442,-0.00588202,-0.0244535,-0.00555742
-0.210148,-0.00907882,-2.0888,-0.0503329,-0.0157005,-0.0912808,0.000954315,-0.0251309,0.00548667
-0.210522,-0.00952625,-2.09087,-0.0507799,-0.00805279,-0.0920215,0.00560723,-0.0140884,0.00734228
-0.210445,-0.0103448,-2.09275,-0.0803424,0.0114797,-0.0762107,0.00621729,-0.00758265,0.0205644
-0.209887,-0.0118791,-2.09481,-0.114588,0.0518,-0.100265,0.0103828,0.00179309,0.020649
-0.208505,-0.0136541,-2.0978,-0.123039,0.0813225,-0.149694,0.0131001,0.0018036,0.0203798
-0.206927,-0.0152962,-2.10122,-0.111548,0.0780986,-0.134233,0.01558,-0.00237136,0.00684208
-0.205754,-0.0168646,-2.10352,-0.0869262,0.0348306,-0.0559944,0.0171425,-0.0133999,-0.00675136
-0.205517,-0.0181475,-2.10413,-0.049651,-0.0128025,0.0183596,0.018203,-0.0149726,-0.0115773
-0.205639,-0.0190676,-2.10351,-0.0371658,-0.00476033,0.053365,0.0164728,-0.00331934,0.00203764
-0.205474,-0.0200346,-2.10261,-0.0420205,0.020877,0.056398,0.0131026,0.010637,0.000130296
-0.20468,-0.021352,-2.1014,-0.0697028,0.0519768,0.0902738,0.00763528,0.0118528,0.00612468
-0.203465,-0.0235286,-2.09973,-0.109216,0.0627151,0.115384,0.00506322,0.00891384,-0.00177956
-0.202071,-0.0260901,-2.09796,-0.101949,0.0636104,0.107725,0.00145771,0.00121092,-0.00406361
-0.200775,-0.0281623,-2.09622,-0.0615834,0.0526784,0.11201,0.00269423,-0.0120453,-0.00807077
-0.199913,-0.0294934,-2.0937,-0.0181169,0.0198117,0.169552,0.00877023,-0.0274596,-0.00360352
-0.199964,-0.0305331,-2.08957,-0.00722635,-0.0383024,0.246637,0.00611319,-0.0308792,0.0144527
-0.201633,-0.0317353,-2.0847,-0.015727,-0.160451,0.233459,-0.0153162,-0.0313332,0.0219112
-0.20634,-0.0325348,-2.08097,0.0114236,-0.320406,0.145887,-0.0473811,-0.0270968,0.0175607
-0.21396,-0.0325497,-2.07865,0.0252251,-0.438906,0.0955336,-0.0507206,-0.0329864,0.0236619
-0.222884,-0.0328914,-2.07648,-0.0283114,-0.437941,0.133264,-0.0348285,-0.0243405,0.032964
-0.230107,-0.0352096,-2.07388,-0.143594,-0.269253,0.161913,-0.00919676,-0.0217287,0.0536661
-0.230107,-0.0352096,-2.07388,-0.143594,-0.269253,0.161913,-0.00919676,-0.0217287,0.0536661
-0.233259,-0.0398273,-2.07204,-0.249627,-0.0555754,0.108421,0.00606665,-0.0222538,0.0568483
-0.232817,-0.0452562,-2.07171,-0.255374,0.0864308,0.0608093,0.013534,-0.0277998,0.0299922
-0.230683,-0.0502753,-2.07136,-0.221022,0.11304,0.105746,0.0106717,-0.0471871,-0.00559431
-0.228688,-0.0548573,-2.06931,-0.173531,0.0681636,0.197282,0.00139852,-0.0468799,-0.0401195
-0.227496,-0.0586986,-2.06525,-0.105878,0.0310235,0.276877,-0.0058673,-0.0196023,-0.0590752
-0.227072,-0.0613244,-2.05977,-0.0221885,-0.0241163,0.309237,-0.00509474,0.00399121,-0.0699059
-0.227721,-0.0623552,-2.05317,0.068391,-0.0791987,0.357046,0.000434831,0.019274,-0.0550993
-0.229298,-0.0622127,-2.04496,0.12082,-0.12545,0.438539,0.0131699,0.0296855,-0.0277525
-0.231427,-0.0622837,-2.03492,0.0848197,-0.146763,0.529866,0.0187476,0.0366641,0.00895882
-0.233522,-0.0638133,-2.02389,0.0155171,-0.126561,0.556016,0.0209279,0.0422634,0.0361238
-0.234869,-0.06656,-2.01332,-0.0431578,-0.0728181,0.535264,0.0235059,0.0422997,0.051385
-0.23512,-0.0706375,-2.00312,-0.120738,-0.0311378,0.547311,0.0220059,0.0339898,0.0482472
-0.234599,-0.0764595,-1.99286,-0.206042,0.00385459,0.576146,0.0196768,0.0165258,0.0320371
-0.233148,-0.0837546,-1.98237,-0.253703,0.0578204,0.597228,0.017463,0.000205629,0.0143332
-0.23103,-0.0914038,-1.97176,-0.232165,0.0572854,0.608433,0.0174232,-0.0148452,-0.0239187
-0.229167,-0.0984752,-1.96004,-0.185503,0.00779484,0.687169,0.0183482,-0.0327338,-0.0432218
-0.22824,-0.104972,-1.94628,-0.136104,-0.0495133,0.786721,0.0221523,-0.0469177,-0.0509031
-0.228131,-0.11098,-1.93042,-0.0987146,-0.0976153,0.879756,0.0276985,-0.0558208,-0.0374254
-0.227938,-0.117444,-1.91246,-0.143401,-0.0741278,0.990078,0.0243856,-0.0585806,-0.00301981
-0.226176,-0.126202,-1.89356,-0.297364,0.0365748,1.00939,0.0143396,-0.0538613,0.0219411
-0.22132,-0.138162,-1.87597,-0.467387,0.216056,0.933989,-0.0052758,-0.056607,0.0304596
-0.213016,-0.152061,-1.8609,-0.545637,0.385489,0.807476,-0.0328825,-0.0474415,-0.00247788
-0.202608,-0.165703,-1.84832,-0.51112,0.427013,0.685931,-0.0625331,-0.0476205,-0.054212
-0.193105,-0.177446,-1.83733,-0.415583,0.315179,0.606106,-0.0814007,-0.0650814,-0.0932319
-0.186714,-0.186314,-1.82733,-0.257145,0.14011,0.519747,-0.0788579,-0.0853845,-0.0966571
-0.18363,-0.191333,-1.81835,-0.0737018,0.00635744,0.432296,-0.0634082,-0.0916571,-0.0713754
-0.182748,-0.192686,-1.81046,0.079558,-0.0576937,0.350054,-0.0405029,-0.0825174,-0.0386498
-0.182725,-0.191148,-1.8036,0.183556,-0.0644739,0.288824,-0.0174613,-0.0729055,0.00346702
-0.18229,-0.188255,-1.79716,0.20032,-0.00320634,0.283151,0.00162672,-0.0601614,0.0438302
-0.180096,-0.185785,-1.79116,0.147583,0.118351,0.236146,0.00891247,-0.0426436,0.0597918
-0.176025,-0.183585,-1.78698,0.155289,0.209863,0.131933,0.0121714,-0.0131672,0.0513921
-0.170886,-0.180362,-1.78414,0.201827,0.233573,0.0973877,0.00506541,0.00596292,0.0557076
-0.166161,-0.176707,-1.78152,0.190075,0.182304,0.0945605,0.00138399,0.00115238,0.0573868
-0.162957,-0.173428,-1.7793,0.169577,0.0907457,0.0627754,-0.00389329,0.018038,0.0589401
-0.161875,-0.170034,-1.77814,0.180539,-0.0115223,-0.00769871,-0.00262406,0.0379831,0.0714798
-0.163471,-0.16656,-1.77839,0.147621,-0.138902,-0.0619117,0.0138705,0.0402182,0.0813969
-0.16775,-0.164265,-1.77935,0.0556573,-0.253713,-0.0561116,0.0359785,0.0419175,0.0832865
-0.173158,-0.164203,-1.78007,-0.0559295,-0.249475,-0.0187059,0.0504085,0.0405892,0.0856414
-0.177069,-0.165986,-1.78039,-0.112168,-0.111751,0.0150844,0.0573303,0.0272797,0.0795538
-0.177327,-0.168333,-1.78019,-0.108336,0.0832595,0.0462169,0.0551776,-0.00213373,0.0734636
-0.174099,-0.170464,-1.77925,-0.0821465,0.205534,0.0817147,0.037654,-0.0180736,0.0466886
-0.169322,-0.172319,-1.77749,-0.0683872,0.222275,0.119806,0.00825813,-0.0261271,0.0229654
-0.164961,-0.173923,-1.77501,-0.0490831,0.163472,0.139402,-0.011298,-0.0230227,0.00399858
-0.16206,-0.175136,-1.77268,-0.0329937,0.0818476,0.0949117,-0.0283109,0.000913799,-0.0108963
-0.161011,-0.175835,-1.77178,-0.0219663,0.0100238,0.00612917,-0.0359114,0.0171012,-0.0114611
-0.161527,-0.176375,-1.77235,-0.0457333,-0.0509967,-0.0489188,-0.040385,0.0191796,-0.00426573
-0.163282,-0.177425,-1.77392,-0.0832608,-0.0856706,-0.0925611,-0.035627,0.0147278,-0.00407147
-0.165713,-0.178816,-1.77661,-0.0925461,-0.104124,-0.147206,-0.0277377,0.00269283,-0.0017767
-0.168488,-0.180099,-1.78033,-0.0866885,-0.107493,-0.18698,-0.0195291,0.00651166,-0.00738525
-0.168488,-0.180099,-1.78033,-0.0866885,-0.107493,-0.18698,-0.0195291,0.00651166,-0.00738525
-0.171281,-0.181016,-1.78437,-0.0665902,-0.0961304,-0.18166,-0.00706787,2.5034e-05,-0.0137646
-0.174021,-0.181526,-1.7878,-0.0374051,-0.113736,-0.136512,0.00197986,0.0010948,-0.0245569
-0.176917,-0.181522,-1.79015,-0.00286684,-0.128779,-0.0932654,0.00898083,0.000808835,-0.0211624
-0.179663,-0.180986,-1.79174,0.0294994,-0.111193,-0.0701869,0.0149518,-0.000541165,-0.0122538
-0.181768,-0.179976,-1.79289,0.0496027,-0.0809134,-0.0586329,0.0164112,-0.00877874,0.00288755
-0.183339,-0.178791,-1.79378,0.0427879,-0.0618646,-0.0498839,0.012461,-0.00503454,0.00661421
-0.184604,-0.178157,-1.79469,-0.00291615,-0.0571958,-0.0579076,0.00192578,0.00572151,0.0067718
-0.185745,-0.178213,-1.79636,-0.0249717,-0.0309602,-0.111011,0.00227974,0.00810765,-0.00244737
-0.186826,-0.177974,-1.79909,0.00669951,-0.0372209,-0.142351,0.00591248,0.00582521,-0.0154355
-0.18827,-0.176939,-1.80145,0.0484476,-0.0717738,-0.0951826,0.0130185,-0.00992545,-0.0173215
-0.190036,-0.17544,-1.80227,0.0806004,-0.0962022,-0.0151611,0.0189259,-0.0193134,-0.00472546
-0.191686,-0.173708,-1.80161,0.10004,-0.0788987,0.0363013,0.0200444,-0.0205985,0.0160747
-0.192674,-0.172141,-1.80028,0.0762615,-0.0360972,0.0567088,0.016703,-0.0124478,0.032877
-0.192868,-0.17135,-1.7991,0.0198184,-0.00672596,0.0390361,0.00385503,-0.0078387,0.0421283
-0.192649,-0.171567,-1.79878,-0.0314029,0.0144158,-0.00696439,-0.00785436,-0.0129814,0.0422096
-0.192382,-0.172202,-1.79946,-0.0387098,0.0101116,-0.0437782,-0.0139466,-0.02,0.0298395
-0.192758,-0.17254,-1.80048,-0.0161732,-0.0345847,-0.0397167,-0.0162946,-0.026772,0.00961584
-0.193985,-0.172636,-1.801,-0.00388782,-0.0680153,-0.00955891,-0.0156607,-0.0251882,-0.000215173
-0.195528,-0.172579,-1.80125,0.010032,-0.070422,-0.0206466,-0.0175855,-0.0201735,-0.00397885
-0.196822,-0.172083,-1.80184,0.0214819,-0.0533635,-0.043251,-0.0189282,-0.0125889,-0.00502872
-0.197971,-0.17152,-1.80264,0.014472,-0.0451498,-0.0426295,-0.0179672,-0.00861706,-0.00903225
-0.199205,-0.171003,-1.80344,0.0165222,-0.055434,-0.0397575,-0.0151093,-0.00720698,-0.013443
-0.200506,-0.170263,-1.80413,0.0362778,-0.0569549,-0.0414636,-0.0129587,-0.00707279,-0.0127349
-0.201831,-0.16927,-1.80478,0.0487556,-0.0753857,-0.0409638,-0.0128964,-0.00633824,-0.00918478
-0.203452,-0.167963,-1.80531,0.0569284,-0.0729207,-0.0260781,-0.0113326,-0.0031728,-0.00106704
-0.205122,-0.16708,-1.8055,0.0204837,-0.0796971,-0.0116255,-0.00361708,-0.00430109,0.00243562
-0.206658,-0.166782,-1.80592,0.00160967,-0.0645645,-0.0378082,-0.000950024,-0.00261843,0.0142139
-0.207863,-0.166492,-1.80684,0.00992639,-0.0379349,-0.0512124,0.00557911,-0.00636125,0.0182734
-0.208675,-0.166203,-1.80753,-0.00267306,-0.0358878,-0.0148341,0.00481556,-0.0138888,0.0177428
-0.209433,-0.166482,-1.80758,-0.0258525,-0.0419402,0.0109686,0.00434777,-0.0211365,0.0121102
-0.21013,-0.167014,-1.80745,-0.0204916,-0.0325789,0.00847912,0.00246793,-0.0187775,0.00940895
-0.210694,-0.167221,-1.80735,-7.80039e-05,-0.0285503,0.0102303,-0.000199318,-0.0185087,0.00191951
-0.211133,-0.167262,-1.8069,0.00137404,-0.0239998,0.0312309,-0.00441641,-0.0215861,-0.00170261
-0.211314,-0.167363,-1.80625,0.00135625,-0.00257238,0.0353843,-0.00593868,-0.0200223,-0.00451839
-0.211094,-0.167317,-1.80549,0.0143044,0.0121571,0.0394589,-0.0077824,-0.0129577,-0.00722706
-0.210732,-0.167063,-1.80451,0.0294655,0.0101067,0.0495098,-0.00984633,-0.0141869,-0.0101628
-0.210485,-0.16642,-1.80333,0.0526462,-0.0116924,0.0490577,-0.0127025,-0.0141638,-0.00683367
-0.210758,-0.165144,-1.80204,0.0911158,-0.039208,0.0514969,-0.0140738,-0.0134386,-0.00180113
-0.211563,-0.163451,-1.80056,0.0933461,-0.0610125,0.0572294,-0.0136811,-0.0116616,0.0085417
-0.212759,-0.162152,-1.79914,0.054305,-0.071039,0.0519213,-0.00880608,-0.00929725,0.0207213
-0.214084,-0.161799,-1.79819,-0.00290455,-0.0667859,0.0302766,-0.00688994,0.00515077,0.0241315
-0.215151,-0.162391,-1.79818,-0.0548699,-0.0309306,-0.0148129,-0.0022499,0.00340688,0.0235698
-0.215522,-0.163698,-1.79905,-0.0842916,0.00497594,-0.0336432,0.00245711,-0.00596978,0.0103753
-0.215521,-0.165212,-1.79988,-0.0771373,0.00631259,-0.00860256,0.00405079,-0.0155048,-0.00700212
-0.215465,-0.166697,-1.80008,-0.0687241,0.000589428,0.0162646,0.0011979,-0.0239885,-0.0125706
-0.215372,-0.167926,-1.79995,-0.0442429,0.0142298,0.013901,0.00159869,-0.0321893,-0.0163521
-0.214794,-0.168363,-1.8,0.00427702,0.0436865,-0.00181769,0.00207928,-0.037625,-0.0215204
-0.213691,-0.168009,-1.79964,0.0244059,0.0505293,0.0357967,-0.0036094,-0.0277388,-0.0226198
-0.213691,-0.168009,-1.79964,0.0244059,0.0505293,0.0357967,-0.0036094,-0.0277388,-0.0226198
-0.212569,-0.167694,-1.79851,0.0181445,0.0441804,0.0591887,-0.0102491,-0.0259942,-0.024608
-0.211323,-0.167223,-1.79756,0.0437451,0.0688719,0.0200892,-0.013112,-0.0233328,-0.0217704
-0.20974,-0.165899,-1.7972,0.0855504,0.0872488,-0.00591206,-0.0137387,-0.0195856,-0.018849
-0.207996,-0.163855,-1.79696,0.111194,0.0759821,-0.00485542,-0.017473,-0.0219485,-0.0191559
-0.206621,-0.161369,-1.79631,0.142286,0.0521604,0.0139107,-0.0209911,-0.0179388,-0.0135542
-0.205694,-0.158079,-1.79545,0.192068,0.0314508,0.00352096,-0.0205752,-0.00915156,-0.00295162
-0.205153,-0.153924,-1.79471,0.222741,0.00919108,-0.0159115,-0.0167857,0.00551181,0.00787544
-0.205039,-0.149322,-1.79392,0.232694,-0.0168386,0.00521547,-0.0108644,0.00731437,0.0227848
-0.205644,-0.145138,-1.79235,0.201143,-0.0613843,0.0554141,-0.00398867,0.0206236,0.0361268
-0.206664,-0.142138,-1.79042,0.128613,-0.0579312,0.057765,-0.00161602,0.0331292,0.0541475
-0.207448,-0.140422,-1.78926,0.0728389,-0.0290808,0.014237,0.00555687,0.036995,0.0535682
-0.207932,-0.139302,-1.78887,0.0493325,-0.0289012,0.00706374,0.00878939,0.0307341,0.0472287
-0.208673,-0.13879,-1.78829,0.00874458,-0.0572615,0.0444122,0.0129852,0.0152501,0.0387847
-0.21007,-0.139544,-1.78701,-0.0556938,-0.0950371,0.0909175,0.0159955,0.0079881,0.0362128
-0.211942,-0.142037,-1.78542,-0.156901,-0.113108,0.111068,0.00870189,0.0197105,0.0288754
-0.21404,-0.146741,-1.7843,-0.270107,-0.104517,0.0890892,0.00135647,0.0326949,0.0141947
-0.215649,-0.152996,-1.78453,-0.325582,-0.0445683,0.00889979,0.000513822,0.0251815,0.00615287
-0.216115,-0.158923,-1.78676,-0.285502,0.0318816,-0.0866263,0.0078003,-0.0182554,-0.0056023
-0.215493,-0.163228,-1.78973,-0.191374,0.0709612,-0.0915744,0.0156742,-0.064131,-0.0209769
-0.214413,-0.165688,-1.79159,-0.0856471,0.0606853,-0.023655,0.0179961,-0.0916273,-0.0301458
-0.213496,-0.166445,-1.79107,0.022326,0.0189166,0.0930865,0.00924256,-0.0969216,-0.0282603
-0.213264,-0.165801,-1.78817,0.0894737,-0.0441008,0.155418,-0.00182298,-0.0647923,-0.0248118
-0.213534,-0.164616,-1.78486,0.0751949,-0.0368973,0.12697,-0.0159713,-0.0355318,0.0053668
-0.213633,-0.164118,-1.78294,0.0112201,0.00563556,0.046142,-0.01566,-0.0274871,0.0181821
-0.212875,-0.163996,-1.78285,0.00234533,0.0565607,-0.0325445,-0.0173934,-0.0359734,0.025867
-0.21178,-0.163299,-1.78366,0.0368629,0.0580352,-0.0424395,-0.0194639,-0.0539927,0.0195835
-0.211199,-0.162182,-1.78402,0.0518511,0.00510417,-0.0159988,-0.0262577,-0.0513796,0.00692612
-0.211748,-0.160929,-1.78411,0.0622858,-0.0490319,-0.0298348,-0.0310261,-0.0323662,0.00369835
-0.213286,-0.159434,-1.78492,0.0595827,-0.0766152,-0.0787399,-0.0283167,-0.0127783,0.00893646
-0.21519,-0.15805,-1.78673,0.028644,-0.07984,-0.118034,-0.0220232,-0.00671224,0.0183177
-0.217188,-0.15721,-1.78922,-0.00714755,-0.0733707,-0.129366,-0.0131857,-0.0057449,0.0144528
-0.219191,-0.15694,-1.79182,-0.0251348,-0.0828134,-0.119643,-0.00350866,-0.0035411,0.00463557
-0.221125,-0.156946,-1.79429,-0.0246718,-0.0645351,-0.118097,0.00326777,-0.00534758,0.00116599
-0.222582,-0.15676,-1.79664,-0.00327169,-0.0450025,-0.108006,0.00837067,-0.00566706,-0.0016095
-0.223801,-0.156207,-1.79869,0.0130582,-0.0480597,-0.101971,0.013379,-0.00887431,-0.00759035
-0.225051,-0.155312,-1.8004,0.0345127,-0.0436536,-0.0813543,0.0181993,-0.00887519,-0.00495261
-0.226079,-0.154383,-1.80148,0.0262664,-0.0372813,-0.0419351,0.0181079,-0.00302847,0.00106329
-0.226388,-0.154047,-1.80201,-0.004416,0.00851795,-0.0269183,0.0182493,-0.00147639,0.00946778
-0.225774,-0.154039,-1.80263,-0.00359672,0.0603656,-0.0327035,0.016407,0.000530526,0.00685841
-0.224463,-0.15375,-1.80309,0.0173613,0.0790238,-0.00688816,0.0152757,-0.00588271,-0.00143033
-0.222673,-0.153534,-1.80233,0.014555,0.0776523,0.0831944,0.00475426,-0.00710294,-0.00701785
-0.220747,-0.153885,-1.79977,0.00940478,0.0703856,0.151713,-0.00462188,0.00143059,-0.0149831
-0.218878,-0.154295,-1.79717,0.0156236,0.0734931,0.085962,-0.0123886,0.0126675,-0.0158015
-0.217334,-0.153881,-1.79648,0.0414806,0.0659776,-0.023575,-0.0166415,0.0105284,-0.00944322
-0.216634,-0.152388,-1.79735,0.0864878,0.0233201,-0.0739702,-0.0116984,-0.0123035,-0.0043264
-0.216568,-0.150281,-1.79799,0.0956815,-0.0188653,-0.0252309,-0.00504149,-0.0331994,0.0103871
-0.217086,-0.148735,-1.79729,0.071124,-0.0321005,0.0535443,0.00213048,-0.0335631,0.0248603
-0.217351,-0.147998,-1.79582,0.0347568,-5.45094e-05,0.0600162,0.00279172,-0.0137605,0.0371324
-0.217351,-0.147998,-1.79582,0.0347568,-5.45094e-05,0.0600162,0.00279172,-0.0137605,0.0371324
-0.216493,-0.147913,-1.79505,-0.0102837,0.0647378,0.00919696,-0.00514551,-0.00371228,0.0469404
-0.215115,-0.148362,-1.79523,-0.0370279,0.0645763,-0.00710921,-0.0139977,-0.00951305,0.0330529
-0.214393,-0.149171,-1.7954,-0.048026,0.00696492,0.0100146,-0.0225182,-0.0131968,0.0159829
-0.214859,-0.150162,-1.79538,-0.0489679,-0.0472165,0.00501733,-0.0238393,-0.0142377,0.0134822
-0.216155,-0.151013,-1.7958,-0.039372,-0.0687624,-0.0230219,-0.0195628,-0.0125916,0.00948232
-0.21751,-0.151602,-1.79657,-0.0358404,-0.0530755,-0.0392554,-0.0131319,-0.00498006,0.00726122
-0.218683,-0.152179,-1.79767,-0.0443565,-0.0460339,-0.0543188,-0.0105841,-0.00245294,0.00117248
-0.219799,-0.152806,-1.79902,-0.044558,-0.0395946,-0.0543484,-0.00429471,-0.00301176,-0.00665241
-0.220841,-0.153281,-1.80021,-0.028286,-0.0493431,-0.045897,0.00285894,-0.00995082,-0.0121361
-0.222077,-0.153297,-1.80102,0.00689271,-0.0545855,-0.0244384,0.00934505,-0.0106832,-0.00999588
-0.223196,-0.153172,-1.80117,-0.00408143,-0.0507568,0.00554161,0.00893216,-0.0069589,-7.4327e-05
-0.223936,-0.15337,-1.80116,-0.0120257,-0.0168351,-0.00546267,0.0114698,-0.00993216,0.00507456
-0.223785,-0.153265,-1.80139,0.0179147,0.0344129,-0.0170425,0.0140591,-0.0105911,0.00294131
-0.2228,-0.152568,-1.80141,0.0401785,0.0546383,0.00182994,0.00973116,-0.0160818,-0.000981569
-0.221806,-0.151789,-1.8007,0.0439353,0.0283153,0.04578,0.00120001,-0.0199502,-0.00566989
-0.221366,-0.151226,-1.79936,0.0342517,0.00402022,0.0586965,-0.00733881,-0.0105287,-0.00112742
-0.221098,-0.150808,-1.79851,0.0276565,0.010898,0.00670834,-0.00999449,-0.00784238,0.00819308
-0.220728,-0.150035,-1.79863,0.0437755,0.0202775,-0.0287544,-0.00896798,-0.00898486,0.0146425
-0.220555,-0.149025,-1.79886,0.0407589,-0.00358172,-0.00870744,-0.00762232,-0.0128388,0.0203351
-0.221029,-0.148747,-1.79863,-0.0178323,-0.0418284,0.013603,-0.00901721,-0.00867248,0.0277495
-0.221892,-0.149743,-1.7989,-0.0784013,-0.0284949,-0.0282513,-0.00696613,-0.00419544,0.0365118
-0.222174,-0.151221,-1.80051,-0.0979186,0.0242926,-0.0802497,-0.00207359,-0.0107986,0.0323585
-0.221792,-0.152871,-1.80253,-0.102379,0.0325877,-0.0716151,-0.0029847,-0.0227137,0.0137652
-0.22179,-0.1545,-1.80413,-0.0844066,-0.00841517,-0.0457189,-0.00664285,-0.0303809,-0.00596297
-0.222332,-0.155602,-1.80532,-0.0449129,-0.0254026,-0.0521297,-0.0105222,-0.026496,-0.0101227
-0.223113,-0.155841,-1.80679,-0.0110692,-0.0179638,-0.0780692,-0.0076267,-0.0277698,-0.00942898
-0.22363,-0.155334,-1.8083,0.0234066,-0.00346219,-0.0707574,-0.000916183,-0.0314647,-0.0071919
-0.223958,-0.154144,-1.80935,0.0692408,-0.0144106,-0.0509313,0.00333145,-0.034531,-0.0122577
-0.224523,-0.152038,-1.80937,0.127676,-0.0376945,0.0126043,0.00252824,-0.0226842,-0.0124045
-0.225199,-0.149682,-1.80782,0.119917,-0.0505401,0.0705104,-0.00459872,-0.00427176,-0.00372458
-0.225837,-0.147943,-1.80619,0.0854761,-0.0321809,0.0382865,-0.00783327,0.00474128,0.00297755
-0.226249,-0.146288,-1.80536,0.0856606,-0.0273441,0.0103712,-0.0127217,0.0208138,0.0113623
-0.226844,-0.144773,-1.80506,0.0559918,-0.0474911,-0.014006,-0.0151051,0.0255166,0.00943005
-0.22813,-0.14416,-1.80523,-0.00260295,-0.0716795,-0.0147836,-0.00845914,0.0275577,0.00903076
-0.229611,-0.144528,-1.80588,-0.041851,-0.053537,-0.0415985,0.00932902,0.0231803,0.0101572
-0.23044,-0.145243,-1.80719,-0.047122,-0.0106947,-0.0586487,0.0216704,0.00857218,0.0127841
-0.230592,-0.146042,-1.80818,-0.0499263,0.00851494,-0.00752659,0.0298165,-0.0105132,0.00647235
-0.230365,-0.147209,-1.80786,-0.0456163,0.0140014,0.0609943,0.0320765,-0.0226545,0.00213093
-0.229695,-0.148266,-1.80645,-0.0175898,0.0301685,0.0944048,0.0275508,-0.0277283,0.00686073
-0.228532,-0.148798,-1.80449,0.00915428,0.0530806,0.106846,0.0201568,-0.0271558,0.0120349
-0.227072,-0.149034,-1.8023,0.0157358,0.0490397,0.105417,0.00880902,-0.0255579,0.0162789
-0.225859,-0.149247,-1.80006,0.00627154,0.0367966,0.113397,-0.0038265,-0.0305143,0.0212323
-0.225041,-0.149754,-1.79799,-0.0115292,0.0171519,0.0899083,-0.0150378,-0.0277045,0.0186081
-0.224484,-0.150412,-1.79688,-0.026345,0.0178701,0.0253243,-0.0236845,-0.0285988,0.0195965
-0.224216,-0.150898,-1.79709,-0.0264435,0.00673424,-0.0341712,-0.0307185,-0.0305143,0.009727
-0.224588,-0.150934,-1.79847,-0.00781618,-0.0237604,-0.0908037,-0.0347559,-0.0355393,-0.00253654
-0.225705,-0.150203,-1.80069,0.028166,-0.0503205,-0.134999,-0.0336391,-0.038402,-0.00707078
-0.227271,-0.14847,-1.80354,0.0711368,-0.051649,-0.174734,-0.0270066,-0.0295473,-0.0140032
-0.227271,-0.14847,-1.80354,0.0711368,-0.051649,-0.174734,-0.0270066,-0.0295473,-0.0140032
-0.228815,-0.145729,-1.80684,0.116382,-0.0474138,-0.192463,-0.0195233,-0.00684723,-0.022914
-0.230283,-0.142257,-1.80991,0.146635,-0.0532854,-0.182119,-0.0147298,0.0168831,-0.0274591
-0.232109,-0.138084,-1.81248,0.197995,-0.093047,-0.146052,-0.0047944,0.0278971,-0.0291218
-0.23507,-0.133346,-1.81396,0.203361,-0.178137,-0.117588,-0.000708148,0.0342543,-0.0115382
-0.239472,-0.129882,-1.81564,0.0760648,-0.224233,-0.129815,-0.00786491,0.0478816,0.0169917
-0.244036,-0.129341,-1.81852,-0.0716165,-0.162982,-0.168077,-0.0220697,0.0393542,0.0308382
-0.24744,-0.130263,-1.82331,-0.104587,-0.128146,-0.274321,-0.0292473,0.029437,0.00776094
-0.251051,-0.130284,-1.83003,-0.052608,-0.159915,-0.361799,-0.0385649,0.00590242,-0.0190191
-0.256288,-0.128625,-1.83758,0.0324034,-0.262041,-0.390681,-0.0228793,-0.0225582,-0.0311167
-0.263774,-0.125002,-1.8445,0.134754,-0.384211,-0.352542,0.0026494,-0.0300115,-0.0210628
-0.272305,-0.120137,-1.84971,0.184618,-0.380867,-0.269333,0.0347289,-0.0442259,0.0230296
-0.279635,-0.115237,-1.85281,0.187841,-0.293006,-0.156027,0.0611918,-0.0403667,0.048913
-0.284317,-0.111396,-1.85395,0.139626,-0.150294,-0.0580706,0.0701453,-0.0271352,0.0665293
-0.285803,-0.109593,-1.85381,0.0309486,-0.00228977,0.00948888,0.0654235,-0.0129384,0.0712638
-0.284675,-0.110001,-1.85349,-0.0515776,0.101492,0.0198406,0.0555616,-0.0110852,0.0524018
-0.281988,-0.111121,-1.85353,-0.0429089,0.168122,0.00938797,0.0389096,-0.0158907,0.0253961
-0.278482,-0.111499,-1.85339,0.0136171,0.174042,0.0249219,0.0282399,-0.0276496,0.00221074
-0.275186,-0.111011,-1.85217,0.0665419,0.131575,0.0745055,0.0176727,-0.0327039,-0.0145878
-0.272775,-0.109824,-1.84979,0.111383,0.084481,0.115894,0.00711644,-0.0260615,-0.0176743
-0.27101,-0.108033,-1.84657,0.136408,0.0641814,0.135942,-0.00273123,-0.00409397,-0.00728029
-0.269269,-0.106272,-1.84341,0.10788,0.075606,0.115194,-0.0124206,0.011039,0.00183171
-0.267429,-0.104896,-1.84082,0.0940547,0.075854,0.0976211,-0.0179006,0.0219746,-0.00120533
-0.266079,-0.103598,-1.83843,0.0912638,0.0237566,0.102029,-0.018809,0.0297052,-0.00917447
-0.26621,-0.102442,-1.83573,0.0852809,-0.0698137,0.122996,-0.0148376,0.0353406,-0.0144041
-0.268076,-0.101764,-1.8325,0.0609961,-0.138395,0.171388,-0.00486544,0.0356487,-0.00527549
-0.270487,-0.102195,-1.82856,-0.0024605,-0.124893,0.212661,0.0118702,0.03696,0.0129955
-0.27202,-0.10426,-1.82448,-0.0800493,-0.0712347,0.229662,0.0249397,0.0300692,0.0232768
-0.272711,-0.107494,-1.82049,-0.108988,-0.040067,0.244736,0.0363584,0.0154847,0.0153469
-0.273004,-0.110983,-1.81561,-0.0811413,-0.0506247,0.323664,0.042198,-0.009269,0.00547212
-0.273153,-0.114422,-1.80869,-0.0637446,-0.043561,0.419029,0.0405425,-0.0333463,0.015451
-0.272769,-0.118087,-1.80056,-0.0685409,-0.00715639,0.435555,0.031409,-0.0356894,0.0214617
-0.271564,-0.121591,-1.79292,-0.0627457,0.0347648,0.381248,0.0163953,-0.0269011,0.0249808
-0.270059,-0.124701,-1.78617,-0.0537844,0.0273691,0.351703,0.007835,-0.0341376,0.0141329
-0.268872,-0.127323,-1.77939,-0.0222594,0.00101652,0.369989,0.00291961,-0.0452837,0.0157003
-0.268157,-0.12969,-1.77193,-0.0152964,-0.0206092,0.401376,-0.00704601,-0.0442891,0.0198228
-0.267503,-0.132472,-1.76426,-0.0549419,-0.00256073,0.386477,-0.0198983,-0.035466,0.0273647
-0.266035,-0.13564,-1.7579,-0.0745549,0.0674122,0.295492,-0.0300802,-0.0285808,0.03001
-0.263623,-0.138406,-1.75349,-0.0751934,0.0995151,0.205213,-0.0408919,-0.029444,0.0232973
-0.261654,-0.140842,-1.75024,-0.0707856,0.0400238,0.173961,-0.0516681,-0.0347709,0.00206822
-0.261356,-0.142932,-1.74718,-0.0454313,-0.0514451,0.163162,-0.0577202,-0.0312706,-0.0103635
-0.26282,-0.144263,-1.74449,-0.0140996,-0.118832,0.130008,-0.0566151,-0.0240424,-0.0136387
-0.264978,-0.145178,-1.74246,-0.0277346,-0.119984,0.0841603,-0.0549847,-0.00886486,-0.00651056
-0.26708,-0.146047,-1.74167,-0.0375094,-0.103325,0.014659,-0.0518509,0.00226808,-0.013176
-0.269538,-0.146272,-1.7421,0.00283462,-0.127002,-0.0280749,-0.0402379,0.00877455,-0.0370759
-0.272505,-0.145726,-1.74238,0.0349682,-0.161922,-0.0102919,-0.0265393,0.00937586,-0.049382
-0.275785,-0.144762,-1.74211,0.0686568,-0.162215,0.00573661,-0.0137645,0.0208434,-0.0648967
-0.278785,-0.142778,-1.74153,0.147076,-0.135964,-0.00246063,0.0015443,0.0424901,-0.0806645
-0.281066,-0.138747,-1.74029,0.273864,-0.109898,0.0181846,0.0212358,0.0388374,-0.0806381
-0.281066,-0.138747,-1.74029,0.273864,-0.109898,0.0181846,0.0212358,0.0388374,-0.0806381
-0.28279,-0.132386,-1.73729,0.416305,-0.11374,0.093654,0.0367261,0.034428,-0.0664173
-0.284801,-0.123846,-1.73177,0.540731,-0.146051,0.184634,0.0495671,0.0385342,-0.0286359
-0.286998,-0.114024,-1.7247,0.584831,-0.136313,0.201796,0.059389,0.0561599,0.0145305
-0.287945,-0.103954,-1.7176,0.563467,-0.0263324,0.181267,0.0655151,0.07325,0.0596104
-0.28647,-0.0945586,-1.71101,0.510759,0.104776,0.183515,0.0647987,0.0798987,0.0683196
-0.282698,-0.0866403,-1.70434,0.428523,0.201955,0.229884,0.0508504,0.0792701,0.0442288
-0.277278,-0.0800855,-1.69711,0.419361,0.266748,0.277538,0.0300329,0.0800954,0.0125087
-0.271183,-0.072985,-1.68857,0.490633,0.266835,0.356637,0.0176624,0.0737931,-0.00760102
-0.265762,-0.06535,-1.67802,0.511682,0.192763,0.447155,0.0014025,0.0814861,-0.0346645
-0.261769,-0.0578076,-1.66615,0.522203,0.136715,0.48554,-0.00980034,0.096613,-0.0325975
-0.258559,-0.0501024,-1.65399,0.526158,0.12542,0.483844,-0.0108685,0.100111,-0.0158074
-0.255383,-0.0426231,-1.64199,0.48591,0.141783,0.484362,-0.00400674,0.0739212,0.00846636
-0.251551,-0.0363082,-1.63007,0.420597,0.189158,0.50536,0.00190081,0.0349279,0.0310301
-0.246802,-0.0314077,-1.61809,0.350461,0.245721,0.527623,-0.000398934,0.00923163,0.0462772
-0.241095,-0.0278524,-1.60637,0.276512,0.29386,0.513144,-0.0082594,-0.0130324,0.0624821
-0.234316,-0.0256521,-1.59552,0.190635,0.343858,0.478354,-0.0211482,-0.0326531,0.0764334
-0.226792,-0.0245732,-1.58587,0.135628,0.37548,0.426688,-0.0342479,-0.0372813,0.0776599
-0.219271,-0.0240501,-1.5779,0.0955588,0.353425,0.333012,-0.0453921,-0.034378,0.0601702
-0.212355,-0.0236095,-1.57175,0.0777374,0.32335,0.259812,-0.0553639,-0.0413991,0.0496221
-0.206594,-0.0232477,-1.56678,0.064555,0.243126,0.225824,-0.0573633,-0.0501621,0.0229348
-0.202181,-0.0227969,-1.56206,0.0782387,0.196596,0.232293,-0.0562035,-0.0573256,0.0075441
-0.198377,-0.0217909,-1.55716,0.113223,0.173062,0.220061,-0.058767,-0.0540005,0.00333315
-0.195005,-0.0202544,-1.55264,0.119367,0.150143,0.185489,-0.0667811,-0.0430496,0.00225347
-0.192355,-0.0184249,-1.5492,0.128079,0.100339,0.112745,-0.0703821,-0.0437077,-0.000924826
-0.191015,-0.0157232,-1.54706,0.17711,0.0245225,0.0510346,-0.0624723,-0.0586608,-0.00279105
-0.191325,-0.0117593,-1.54563,0.232144,-0.0532758,0.0201402,-0.0506215,-0.0744421,-0.00294918
-0.192947,-0.00694934,-1.54428,0.260796,-0.103276,0.0132495,-0.0371343,-0.0782688,0.00835145
-0.195099,-0.001629,-1.54327,0.279696,-0.116894,-0.0202457,-0.0255886,-0.0663415,0.0163361
-0.197694,0.00397825,-1.5428,0.264944,-0.140789,-0.0422537,-0.0220376,-0.0354962,0.0265196
-0.201044,0.00889201,-1.54297,0.194392,-0.186324,-0.0744674,-0.0153723,-0.0197946,0.0309673
-0.205156,0.0125565,-1.54433,0.134864,-0.214177,-0.124882,-0.000321016,-0.0157336,0.0301909
-0.209752,0.0157416,-1.54655,0.119078,-0.234341,-0.146757,0.0198828,-0.0115265,0.0196637
-0.214418,0.0183948,-1.54896,0.0855401,-0.231036,-0.140237,0.0380293,-0.0135734,0.0123509
-0.218943,0.02034,-1.55134,0.0565697,-0.2233,-0.127781,0.0544184,-0.0113234,0.0060159
-0.223365,0.0219485,-1.55329,0.0546839,-0.230652,-0.0952536,0.0656518,-0.00849454,0.00342602
-0.228114,0.0231703,-1.55458,0.0271055,-0.241394,-0.05634,0.0748045,-0.0203193,0.00773823
-0.232741,0.0235095,-1.55544,-0.0111528,-0.206394,-0.0350414,0.0831212,-0.0332248,0.0121213
-0.235889,0.023075,-1.55596,-0.0420445,-0.107862,-0.00241806,0.0844753,-0.0512678,0.0271629
-0.23695,0.0218257,-1.55579,-0.0794207,-0.01246,0.0437574,0.071216,-0.0667228,0.0346931
-0.236687,0.0196927,-1.55524,-0.111156,0.0297378,0.0570221,0.0477317,-0.0784836,0.0293351
-0.23576,0.0171159,-1.55483,-0.135951,0.0580395,0.0379793,0.0262425,-0.0873619,0.0386466
-0.234246,0.0140178,-1.55528,-0.176143,0.0910755,-0.0145891,0.00589108,-0.0971582,0.0417468
-0.231993,0.0104266,-1.55705,-0.214733,0.125912,-0.0766145,-0.0189041,-0.0889388,0.0353061
-0.229091,0.00654215,-1.56047,-0.240741,0.149212,-0.172391,-0.0415587,-0.0805093,0.0148374
-0.226074,0.00297782,-1.56603,-0.221781,0.138626,-0.283421,-0.0564725,-0.0722785,-0.0194688
-0.223837,0.000823255,-1.57342,-0.153388,0.0774674,-0.380688,-0.0647246,-0.072953,-0.0461877
-0.223092,0.000609117,-1.58216,-0.0616466,0.00170723,-0.460209,-0.0642309,-0.0755627,-0.0604267
-0.22377,0.0025586,-1.59183,0.0361086,-0.0612044,-0.514598,-0.0564439,-0.0699511,-0.0604122
-0.22377,0.0025586,-1.59183,0.0361086,-0.0612044,-0.514598,-0.0564439,-0.0699511,-0.0604122
-0.225225,0.00621509,-1.60184,0.0809513,-0.0799175,-0.535386,-0.0412505,-0.0548811,-0.0476902
-0.226494,0.0104299,-1.61215,0.0930384,-0.049903,-0.558903,-0.0273262,-0.0426709,-0.0263105
-0.226977,0.0149968,-1.62303,0.110189,-0.0186005,-0.598923,-0.0161874,-0.0371278,-0.0099352
-0.227138,0.0200531,-1.63445,0.128222,-0.0175831,-0.617824,-0.00866589,-0.0436232,0.00260717
-0.227257,0.0253355,-1.6459,0.123448,-0.0145146,-0.605354,-0.00468601,-0.0536314,0.0186074
-0.226847,0.0300735,-1.65703,0.0811908,0.0359054,-0.581202,-0.00401559,-0.0434325,0.0355699
-0.225331,0.0338153,-1.66822,0.026111,0.0783578,-0.591472,-0.0138352,-0.0244797,0.0383261
-0.223008,0.0365072,-1.68021,-0.0194556,0.101601,-0.638874,-0.0271066,-0.00820908,0.0320362
-0.220844,0.0391524,-1.69328,0.00122128,0.0535083,-0.679925,-0.0297409,0.000644505,0.0122728
-0.220226,0.042665,-1.70651,0.0514736,-0.0524817,-0.667235,-0.0267132,-0.00545889,0.000167608
-0.221615,0.0467564,-1.71877,0.069859,-0.129426,-0.607671,-0.0151913,-0.0062696,0.00348455
-0.223793,0.050594,-1.72989,0.0508169,-0.122714,-0.559767,-0.00195652,0.00417051,0.0208273
-0.22542,0.0539819,-1.7406,0.0446641,-0.0933869,-0.563245,0.00651546,0.0141303,0.0323778
-0.226792,0.0575434,-1.7516,0.0600428,-0.113431,-0.572138,0.0108581,0.0244764,0.0246292
-0.229346,0.0611928,-1.7621,0.052184,-0.208156,-0.518966,0.014742,0.028333,0.0167618
-0.234082,0.0640738,-1.77154,0.011839,-0.308563,-0.459572,0.0228565,0.0326426,0.00968719
-0.239829,0.0660123,-1.78034,-0.0304566,-0.300286,-0.436369,0.0344287,0.0433814,0.010721
-0.244481,0.0668681,-1.78883,-0.0900669,-0.20839,-0.394387,0.0468712,0.047577,0.000229597
-0.247153,0.0663315,-1.79645,-0.139928,-0.108214,-0.328082,0.0505489,0.0397632,-0.0181304
-0.247877,0.0648969,-1.80301,-0.145584,-0.0174142,-0.276224,0.0498537,0.0179917,-0.0359318
-0.247359,0.0639143,-1.80845,-0.0708126,0.022011,-0.221732,0.0426843,-0.00409184,-0.0525742
-0.24676,0.0644187,-1.81213,0.0279396,0.0152116,-0.140612,0.0299812,-0.0199458,-0.0559688
-0.246305,0.0660246,-1.81384,0.077399,0.0257231,-0.0691003,0.019307,-0.0243858,-0.038305
-0.245296,0.0680274,-1.81463,0.0927409,0.0855793,-0.0666619,0.0053584,-0.00909718,-0.0112889
-0.242743,0.0701728,-1.81594,0.0836515,0.156543,-0.113188,-0.0103627,-0.00376774,0.0165417
-0.238932,0.0723726,-1.81815,0.0771196,0.187952,-0.146988,-0.0252001,-0.00486949,0.0243305
-0.235105,0.0747213,-1.82079,0.089829,0.161066,-0.156353,-0.0320941,-0.0152834,0.0271494
-0.232283,0.077521,-1.82318,0.128255,0.109486,-0.12951,-0.0332783,-0.0131022,0.0270293
-0.230246,0.0805453,-1.82465,0.125032,0.0825848,-0.088669,-0.0333409,-0.00648633,0.0363564
-0.228293,0.0829686,-1.82564,0.0859005,0.112702,-0.0605786,-0.0344729,0.0117065,0.0384372
-0.225754,0.0844853,-1.82628,0.0464636,0.147661,-0.0376239,-0.0395764,0.0272102,0.0271339
-0.222654,0.0855225,-1.82663,0.0612969,0.156858,-0.0148061,-0.045903,0.0282589,0.00415987
-0.219878,0.0874586,-1.82568,0.140694,0.128411,0.0750065,-0.0497828,0.0226804,-0.0188948
-0.21809,0.0903644,-1.82225,0.213532,0.0956804,0.184858,-0.0503406,0.0266277,-0.0305396
-0.217035,0.0940903,-1.81689,0.262582,0.0645476,0.247226,-0.0539735,0.0525393,-0.027642
-0.216846,0.0982257,-1.81063,0.267001,0.0165853,0.267144,-0.0580727,0.0728909,-0.0180252
-0.217783,0.101943,-1.80431,0.234675,-0.0400579,0.260914,-0.0472785,0.0726676,-0.0105322
-0.219367,0.105287,-1.79816,0.227255,-0.0468447,0.265441,-0.0320211,0.0558065,-0.000728786
-0.22097,0.10866,-1.7914,0.249544,-0.0347692,0.321098,-0.0132256,0.0278032,0.00408012
-0.222579,0.112141,-1.78286,0.26718,-0.026962,0.424709,-0.00279388,0.000364296,0.0138219
-0.22434,0.115247,-1.77276,0.251415,-0.0340945,0.464819,-0.00992392,-7.42674e-05,0.0236495
-0.226442,0.117857,-1.76284,0.215048,-0.065464,0.420297,-0.0285253,0.00837712,0.0370472
-0.229015,0.119804,-1.75456,0.157616,-0.095412,0.335485,-0.0318567,-0.0145006,0.0557311
-0.23155,0.120672,-1.74783,0.0728916,-0.0606948,0.299167,-0.0243646,-0.0434542,0.0759447
-0.232316,0.119676,-1.74198,-0.0424642,0.0659667,0.291933,-0.00885695,-0.0614567,0.0897105
-0.229695,0.116303,-1.7369,-0.1709,0.247168,0.265183,-0.00536405,-0.0596026,0.0933479
-0.22423,0.110947,-1.73331,-0.256828,0.321621,0.200154,-0.020604,-0.0521222,0.0542526
-0.218082,0.104972,-1.73091,-0.262337,0.311863,0.171244,-0.0347876,-0.0557275,0.0156178
-0.218082,0.104972,-1.73091,-0.262337,0.311863,0.171244,-0.0347876,-0.0557275,0.0156178
-0.212446,0.0994383,-1.72846,-0.22318,0.28077,0.185447,-0.0436079,-0.0641776,-0.0137762
-0.206321,0.0946103,-1.72518,-0.18063,0.380885,0.225432,-0.0412794,-0.0642527,-0.0118381
-0.198361,0.0904444,-1.72121,-0.143829,0.45648,0.25418,-0.0359055,-0.0500596,-0.0195879
-0.189241,0.0867476,-1.71644,-0.130611,0.466552,0.26815,-0.0520649,-0.0335546,-0.0128331
-0.180626,0.0833622,-1.71179,-0.11231,0.422985,0.244277,-0.0611207,-0.0219589,-0.0105753
-0.173394,0.0805924,-1.70741,-0.0840047,0.330774,0.243917,-0.0613253,-0.0236055,0.00133902
-0.167258,0.07783,-1.70234,-0.113014,0.335537,0.30485,-0.0476168,-0.0345837,0.0334902
-0.160263,0.0736411,-1.6959,-0.199035,0.417026,0.39462,-0.0346713,-0.0404086,0.052335
-0.151732,0.0672744,-1.68785,-0.299184,0.477992,0.490793,-0.0549412,-0.0158299,0.034462
-0.142585,0.0591606,-1.67862,-0.348999,0.471704,0.518128,-0.0857767,0.0147993,-0.00847709
-0.134602,0.0513898,-1.66957,-0.274116,0.362454,0.47947,-0.115676,0.034369,-0.0634693
-0.129244,0.0461049,-1.6608,-0.130357,0.214412,0.458592,-0.122809,0.029838,-0.085505
-0.126779,0.0438135,-1.65195,0.012668,0.0762041,0.449229,-0.107645,0.0255958,-0.0744226
-0.126442,0.043906,-1.64299,0.0954473,0.00990844,0.437477,-0.0784683,0.0341873,-0.0307288
-0.126662,0.0446766,-1.63404,0.0723698,0.0167926,0.43537,-0.0502547,0.0530846,0.0174122
-0.126251,0.0440491,-1.62541,-0.0322708,0.0583304,0.424122,-0.0355066,0.0654735,0.0544026
-0.125193,0.0414065,-1.61758,-0.124026,0.072965,0.375361,-0.0217862,0.0775275,0.0593774
-0.124142,0.0377745,-1.61078,-0.147334,0.0482153,0.348344,-0.0137469,0.0738068,0.0500987
-0.12399,0.0339255,-1.60388,-0.145758,-0.00441115,0.390401,-0.00145929,0.0582874,0.029365
-0.124559,0.0302299,-1.59559,-0.10948,-0.0180252,0.477428,0.0121502,0.0434852,0.0226525
-0.124761,0.0272276,-1.5853,-0.0597126,0.0290655,0.573084,0.024981,0.0375239,0.0298235
-0.124232,0.0247564,-1.57324,-0.0355062,0.0460283,0.642847,0.0277598,0.039204,0.0258025
-0.124104,0.0226331,-1.55998,-0.016423,-0.00958323,0.684911,0.0195056,0.0426812,0.023076
-0.125325,0.0206684,-1.54621,-0.0130103,-0.0890364,0.69298,0.016526,0.0403508,0.02672
-0.128335,0.0183675,-1.53241,-0.044411,-0.174804,0.703031,0.0212261,0.0297038,0.0307631
-0.132514,0.0150314,-1.51864,-0.107512,-0.20633,0.695921,0.0313422,0.013978,0.0365311
-0.136164,0.0104645,-1.50527,-0.160298,-0.125906,0.682601,0.0441985,-0.00140703,0.0497566
-0.137911,0.00531715,-1.49218,-0.162644,-0.0434882,0.682175,0.0522675,-0.0177999,0.0409216
-0.138646,0.000394101,-1.47877,-0.139467,-0.0421924,0.708755,0.0436897,-0.0328701,0.0282609
-0.140239,-0.00400824,-1.46482,-0.101752,-0.124059,0.721944,0.0327533,-0.0476636,0.0119795
-0.143569,-0.0075968,-1.45074,-0.0502447,-0.216931,0.718747,0.0274261,-0.0588968,0.00123399
-0.148649,-0.0102043,-1.43624,-0.00194921,-0.299993,0.746471,0.0262231,-0.0688895,-0.00294656
-0.155034,-0.012583,-1.42129,-0.0147677,-0.341946,0.747977,0.0213297,-0.0731906,-0.00100929
-0.16155,-0.0155802,-1.40719,-0.0579115,-0.31243,0.673975,0.0204936,-0.0786594,0.00434595
-0.167177,-0.0190778,-1.3951,-0.0846803,-0.269683,0.574922,0.019168,-0.0930818,0.0015955
-0.171905,-0.022679,-1.3847,-0.0938266,-0.224054,0.510424,0.013316,-0.102542,-0.0118493
-0.175711,-0.0262718,-1.37561,-0.104461,-0.17685,0.441614,0.0117692,-0.113839,-0.02503
-0.178795,-0.0296383,-1.36805,-0.087411,-0.154558,0.365401,0.00817928,-0.116594,-0.0446327
-0.181341,-0.0322282,-1.36133,-0.0505108,-0.122788,0.335076,0.00239854,-0.109081,-0.0493177
-0.183267,-0.0341513,-1.3554,-0.0362229,-0.0745217,0.271693,-0.002327,-0.102519,-0.0529032
-0.183723,-0.0354,-1.35091,0.00328887,0.0138007,0.19454,-0.00567047,-0.087242,-0.0519
-0.182701,-0.0356314,-1.34747,0.0306198,0.061944,0.142789,-0.0143978,-0.0676826,-0.0520424
-0.181336,-0.0355134,-1.34528,0.0236777,0.0628133,0.0631442,-0.0180883,-0.0466449,-0.0601989
-0.180303,-0.0347198,-1.3448,0.0730376,0.0325016,-0.021528,-0.00950059,-0.0323019,-0.0529211
-0.180259,-0.0324293,-1.34525,0.132834,-0.0248154,-0.0574658,0.00534685,-0.0313707,-0.0320856
-0.181274,-0.0292333,-1.346,0.158219,-0.0648165,-0.0750026,0.0239252,-0.0456629,-0.00664306
-0.182466,-0.0255941,-1.34698,0.180066,-0.0411866,-0.0831141,0.04338,-0.0480523,0.02452
-0.18262,-0.0218287,-1.34788,0.165411,0.0257339,-0.0703172,0.0512837,-0.0457527,0.0536326
-0.18262,-0.0218287,-1.34788,0.165411,0.0257339,-0.0703172,0.0512837,-0.0457527,0.0536326
-0.181392,-0.0188166,-1.34852,0.118202,0.0946331,-0.0479295,0.0456019,-0.0376449,0.061407
-0.179157,-0.0165533,-1.34907,0.100751,0.124456,-0.0520695,0.0260304,-0.0230681,0.0570558
-0.176654,-0.0137043,-1.35005,0.168352,0.118003,-0.0918463,-0.00035128,-0.00731049,0.0454258
-0.175257,-0.0085911,-1.35129,0.30992,-0.00317966,-0.105925,-0.0152966,-0.00842316,0.0346943
-0.177434,-0.00102632,-1.35131,0.421726,-0.218284,-0.0141311,-0.0173277,-0.0116922,0.0270086
-0.183503,0.00753442,-1.34877,0.448661,-0.362703,0.106419,-0.00428252,0.00350601,0.0452706
-0.191152,0.0153159,-1.34444,0.378366,-0.374049,0.158822,0.010219,0.038234,0.0705686
-0.198054,0.0208689,-1.34012,0.238728,-0.297974,0.14894,0.0111872,0.0606776,0.0842723
-0.203467,0.0233878,-1.33701,0.0682591,-0.238992,0.103028,0.00675961,0.0698182,0.0702295
-0.208141,0.0229474,-1.33591,-0.0838691,-0.232038,0.0169022,0.00988564,0.0555076,0.0394233
-0.212507,0.0201395,-1.33707,-0.211557,-0.194038,-0.0791143,0.0202866,0.0234493,0.00906044
-0.215126,0.0153532,-1.34104,-0.333041,-0.05012,-0.201166,0.0344293,0.000597354,-0.0276822
-0.213252,0.00915263,-1.34733,-0.384616,0.24816,-0.275916,0.0431128,-0.0319394,-0.032825
-0.206719,0.00336365,-1.3553,-0.348831,0.392846,-0.366528,0.0524927,-0.0159082,-0.087519
-0.19788,-0.00234414,-1.36411,-0.387272,0.485296,-0.362421,0.030331,-0.0355473,-0.102189
-0.187753,-0.00856856,-1.37195,-0.33621,0.487474,-0.282176,0.00694209,-0.0801627,-0.104127
-0.178425,-0.0120151,-1.37729,-0.0957864,0.427444,-0.16898,0.00292155,-0.100241,-0.121644
-0.17129,-0.0110696,-1.37904,0.157425,0.284847,-0.0134769,-0.00871018,-0.113654,-0.118363
-0.167208,-0.00554131,-1.37691,0.419584,0.119914,0.116305,-0.0129094,-0.108233,-0.0779266
-0.166237,0.00440791,-1.3721,0.606839,-0.0277659,0.182762,-0.018153,-0.0492725,-0.0228131
-0.16776,0.0160826,-1.36606,0.614539,-0.105544,0.21023,-0.0216455,0.00216586,0.0407959
-0.170408,0.0263684,-1.36022,0.472456,-0.134047,0.184595,-0.0222469,0.0380383,0.0896958
-0.172726,0.0333423,-1.35608,0.27902,-0.0704192,0.0952284,-0.0236465,0.057445,0.128631
-0.173535,0.0368449,-1.35462,0.0904272,-0.00788166,-0.00573467,-0.0233292,0.0659351,0.126509
-0.173297,0.0372358,-1.35535,-0.0597376,0.0180035,-0.0639311,-0.0261598,0.0515246,0.109583
-0.173108,0.0353061,-1.35726,-0.151167,-0.0145695,-0.0884738,-0.0287139,0.0324606,0.0697064
-0.174038,0.0324664,-1.3597,-0.154347,-0.0849846,-0.0953873,-0.0242727,0.0245566,0.027023
-0.176512,0.0300463,-1.36174,-0.117503,-0.165714,-0.0591626,-0.013737,0.0188876,0.00716537
-0.180312,0.0281017,-1.36293,-0.100726,-0.214446,-0.0262126,0.00391158,0.0157536,0.00093174
-0.184751,0.0259858,-1.36361,-0.119321,-0.215661,-0.00321794,0.0184936,0.0152864,-0.000824511
-0.188676,0.023379,-1.36384,-0.145465,-0.164891,0.0284669,0.0337289,0.0144963,-0.000665665
-0.191144,0.0199874,-1.36373,-0.179021,-0.0759395,0.0431361,0.0421932,0.00780955,-0.00389737
-0.19163,0.0161958,-1.36348,-0.17616,0.0145313,0.0584615,0.0469564,-0.0113165,-0.00859183
-0.190901,0.012827,-1.36262,-0.131227,0.0454661,0.0889587,0.0401923,-0.0279296,-0.0243507
-0.190039,0.010371,-1.36105,-0.0745577,0.0261122,0.115213,0.0290211,-0.0329184,-0.0371753
-0.189566,0.00890697,-1.3587,-0.0282802,0.00956707,0.138587,0.0209144,-0.0303693,-0.0309381
-0.189553,0.00805842,-1.35579,-0.00914096,-0.0134876,0.163511,0.0164778,-0.030226,-0.0225362
-0.18975,0.0071995,-1.35244,-0.0228354,-0.00710694,0.178217,0.0144147,-0.0281399,-0.0107262
-0.189494,0.00585138,-1.34918,-0.0556595,0.0278594,0.156785,0.00684018,-0.0162739,0.000286579
-0.1884,0.00401499,-1.34683,-0.0811029,0.0778771,0.106869,0.00248641,-0.0143719,-0.000750184
-0.186561,0.00209876,-1.34541,-0.0775945,0.0881743,0.0767838,-0.00227937,-0.0217813,-0.00906867
-0.184828,0.000592463,-1.34402,-0.0376824,0.0838777,0.0922631,0.00120597,-0.0347927,-0.0141331
-0.182692,0.000297104,-1.34204,0.0530236,0.151572,0.101508,0.00263062,-0.0348744,0.00182134
-0.178411,0.00203992,-1.34042,0.129694,0.261203,0.010694,-0.000833139,-0.0122118,0.044275
-0.173266,0.00428179,-1.34095,0.0613471,0.243862,-0.0880478,-0.0057476,0.00390029,0.0355551
-0.169056,0.00482854,-1.34291,-0.048167,0.173045,-0.0976957,-0.0196165,-0.0120172,0.0461879
-0.166724,0.0032265,-1.34477,-0.135521,0.074965,-0.0642085,-0.029071,-0.01838,0.0367725
-0.165666,0.000404445,-1.34646,-0.155543,0.0246015,-0.0660562,-0.03875,-0.0343246,0.0326344
-0.165666,0.000404445,-1.34646,-0.155543,0.0246015,-0.0660562,-0.03875,-0.0343246,0.0326344
-0.165743,-0.00171533,-1.34819,-0.0766477,-0.0344353,-0.0597534,-0.0369653,-0.0382601,0.0139436
-0.167336,-0.00242015,-1.34914,-0.0199017,-0.132422,-0.0211794,-0.0386592,-0.0327241,-0.00216073
-0.170923,-0.00249912,-1.34922,0.00826629,-0.205421,0.0151613,-0.0268693,-0.023602,-0.0103787
-0.1755,-0.00226247,-1.34859,0.0080227,-0.233781,0.041504,-0.0139377,0.00709115,-0.00573486
-0.180095,-0.00285,-1.3477,-0.0671155,-0.210612,0.0468744,-0.00375375,0.0311161,0.000210524
-0.183833,-0.0051244,-1.34736,-0.152718,-0.153038,0.0325629,0.0156069,0.0310695,0.00126469
-0.186377,-0.00883125,-1.34735,-0.203102,-0.109413,0.0408131,0.0283566,0.0200385,-0.00812483
-0.188396,-0.0133222,-1.34697,-0.22547,-0.0845741,0.0844532,0.0421564,-0.00306796,-0.0176135
-0.189798,-0.0182334,-1.34586,-0.228083,-0.060838,0.110429,0.0458371,-0.00588809,-0.0301448
-0.190753,-0.0231342,-1.34418,-0.218872,-0.0424831,0.146686,0.0473968,-0.00204446,-0.0345142
-0.191292,-0.0280601,-1.34173,-0.212519,-0.026778,0.181656,0.046376,0.00360553,-0.0361899
-0.191388,-0.0327145,-1.33874,-0.178739,0.00928327,0.19557,0.047832,0.0151886,-0.0356604
-0.190534,-0.0362708,-1.33556,-0.113637,0.0602209,0.1805,0.0441175,0.0283886,-0.0244494
-0.188742,-0.0384881,-1.33263,-0.0483577,0.0913833,0.149037,0.0404663,0.0379984,-0.0196766
-0.186738,-0.0389913,-1.33012,0.0560105,0.0833442,0.100756,0.0393492,0.0591021,-0.0184522
-0.185014,-0.0366254,-1.32858,0.200852,0.0901476,-0.00227293,0.0411068,0.0984841,0.00713098
-0.182709,-0.0312043,-1.32956,0.285709,0.132914,-0.203792,0.0242415,0.157705,0.0678985
-0.179572,-0.0247364,-1.33503,0.232974,0.242435,-0.459845,0.00506143,0.208039,0.109275
-0.17372,-0.0188377,-1.34741,0.116161,0.331442,-0.834582,-0.00786251,0.196938,0.159334
-0.16799,-0.015153,-1.36373,-0.0195113,0.224587,-0.758087,0.00136425,0.119155,0.114579
-0.166206,-0.0145185,-1.37533,-0.102666,-0.0126539,-0.360277,0.0144385,0.0235374,0.0745099
-0.167901,-0.0160893,-1.37878,-0.0941464,-0.13327,0.0237853,0.0316551,-0.0147001,0.0658882
-0.170957,-0.0176686,-1.37613,-0.0182819,-0.170818,0.240223,0.032801,0.0182515,0.0414667
-0.174724,-0.0187236,-1.36974,0.0130985,-0.209333,0.401851,0.0272602,0.0655365,0.00633049
-0.17877,-0.0203867,-1.36056,-0.0172254,-0.214537,0.503589,0.0112632,0.104599,-0.00153863
-0.18264,-0.0226413,-1.35072,-0.0177152,-0.180479,0.478926,0.0122383,0.158727,-0.0375754
-0.185142,-0.0240956,-1.34177,0.0424025,-0.103208,0.437913,0.0212522,0.169373,-0.0544388
-0.186438,-0.0240794,-1.33228,0.148979,-0.050802,0.516214,0.0426056,0.156038,-0.0896356
-0.1872,-0.0218979,-1.3194,0.311717,-0.0758506,0.711553,0.0591716,0.124436,-0.0954346
-0.189045,-0.0168299,-1.30138,0.516177,-0.142254,0.96035,0.0712262,0.127366,-0.0990708
-0.192368,-0.00921736,-1.27789,0.658344,-0.209082,1.1851,0.0753158,0.165893,-0.0792785
-0.196822,-0.000429047,-1.25028,0.719411,-0.241433,1.32872,0.0812199,0.202177,-0.0354509
-0.201435,0.00829964,-1.22025,0.711993,-0.200918,1.42208,0.0847585,0.232512,0.0175732
-0.204931,0.0157288,-1.18881,0.635978,-0.108294,1.49228,0.0827015,0.243115,0.0615497
-0.20661,0.0209274,-1.15615,0.536034,-0.00146264,1.59044,0.0837301,0.220663,0.0849171
-0.206438,0.0238704,-1.12134,0.472604,0.0905674,1.74055,0.075903,0.184803,0.0923038
-0.205278,0.0254564,-1.08368,0.453007,0.0824191,1.88623,0.0719989,0.15439,0.0724981
-0.204947,0.0266076,-1.04383,0.46236,0.0548629,1.95343,0.0539228,0.167962,0.0644338
-0.204867,0.0272739,-1.00392,0.394072,0.0647906,1.89861,0.0289989,0.179965,0.0693306
-0.203941,0.0263097,-0.966584,0.25885,0.126664,1.75239,0.000754029,0.173218,0.0727787
-0.201793,0.0233315,-0.932451,0.147544,0.1783,1.65382,-0.0171265,0.146132,0.0431933
-0.198371,0.0189538,-0.899482,0.0797021,0.212288,1.64226,-0.0371398,0.114228,0.0187566
-0.194454,0.0136373,-0.8675,0.0217772,0.215123,1.54765,-0.060342,0.0949509,0.00514036
-0.190914,0.00829037,-0.839816,-0.0219628,0.161965,1.24231,-0.0896388,0.104588,0.000245392
-0.188848,0.00260632,-0.818617,-0.165178,0.0388243,0.966766,-0.112901,0.0826996,0.00358003
-0.190596,-0.00689721,-0.800624,-0.431043,-0.210749,1.01982,-0.0953651,0.0117337,-0.0315597
-0.195435,-0.022193,-0.7803,-0.661526,-0.269126,1.24673,-0.0555954,-0.0612233,-0.0120913
-0.198041,-0.0417926,-0.757621,-0.788064,-0.0286859,1.31472,0.0161116,-0.108767,-0.0109113
-0.198041,-0.0417926,-0.757621,-0.788064,-0.0286859,1.31472,0.0161116,-0.108767,-0.0109113
-0.19397,-0.0625127,-0.735109,-0.772324,0.330925,1.28603,0.0552641,-0.122866,-0.0255375
-0.182768,-0.0817074,-0.712201,-0.673383,0.591564,1.30987,0.0368896,-0.131376,-0.037667
-0.167155,-0.0990665,-0.687833,-0.616549,0.724799,1.37078,-0.00571828,-0.157239,-0.0525097
-0.149277,-0.115281,-0.661886,-0.559442,0.765494,1.40666,-0.0471644,-0.167272,-0.0838469
-0.131689,-0.128651,-0.635106,-0.360688,0.634423,1.40132,-0.0674239,-0.160691,-0.134344
-0.116881,-0.13626,-0.606981,-0.0389011,0.463969,1.45707,-0.0708059,-0.179891,-0.130393
-0.105346,-0.13732,-0.576361,0.258124,0.259827,1.56194,-0.0596877,-0.198671,-0.103589
-0.0970182,-0.133439,-0.542714,0.444493,0.124285,1.70166,-0.0615725,-0.194323,-0.056733
-0.0896787,-0.126887,-0.506098,0.520543,0.140544,1.81507,-0.0714702,-0.170324,0.013472
-0.082193,-0.119902,-0.468814,0.478609,0.13226,1.76613,-0.0820326,-0.152177,0.0514804
-0.075314,-0.113398,-0.434139,0.449062,0.153318,1.58255,-0.113091,-0.11993,0.0885239
-0.0693454,-0.106315,-0.404268,0.466503,0.108309,1.30635,-0.128779,-0.110585,0.116552
-0.0661622,-0.098595,-0.379636,0.440792,-0.0486877,1.08275,-0.132693,-0.108079,0.136582
-0.0672333,-0.0926961,-0.359241,0.252506,-0.253395,0.889258,-0.151978,-0.10181,0.149692
-0.0732046,-0.0914392,-0.343937,-0.0164756,-0.466771,0.586253,-0.140133,-0.0990939,0.14907
-0.0834692,-0.0945658,-0.33646,-0.228175,-0.626448,0.173498,-0.120613,-0.0762976,0.142579
-0.0974445,-0.10146,-0.336737,-0.475224,-0.75096,-0.115182,-0.11546,-0.0701739,0.108592
-0.112663,-0.113214,-0.34186,-0.736041,-0.690417,-0.23747,-0.0835619,-0.146541,0.112848
-0.126546,-0.128572,-0.348392,-0.82701,-0.605949,-0.196828,0.00405756,-0.243468,0.0680596
-0.138837,-0.144031,-0.352833,-0.733316,-0.572031,-0.00408489,0.0720933,-0.31251,0.0179797
-0.150473,-0.157447,-0.351711,-0.572488,-0.607721,0.304799,0.0883439,-0.336912,-0.00939953
-0.162507,-0.168726,-0.34452,-0.425562,-0.699522,0.543363,0.0749921,-0.318347,-0.0409368
-0.175276,-0.177479,-0.333813,-0.249669,-0.748771,0.614482,0.0610145,-0.26888,-0.054013
-0.188196,-0.183052,-0.32296,-0.115958,-0.722632,0.500845,0.0443889,-0.211344,-0.0623588
-0.200666,-0.186303,-0.315353,-0.0660881,-0.659666,0.280395,0.047573,-0.17482,-0.0722556
-0.212414,-0.188174,-0.312306,-0.0509296,-0.533044,0.0639957,0.0769875,-0.159569,-0.0805636
-0.221138,-0.189296,-0.312395,-0.0716984,-0.342008,-0.035271,0.0986462,-0.179333,-0.0583048
-0.226799,-0.191558,-0.314213,-0.199404,-0.180973,-0.0783228,0.11688,-0.211614,-0.0647177
-0.229607,-0.196664,-0.317233,-0.361952,-0.0315,-0.0996529,0.105944,-0.216379,-0.0824441
-0.229966,-0.204395,-0.321729,-0.473372,0.0752763,-0.146967,0.0725805,-0.195834,-0.125589
-0.229088,-0.213281,-0.3275,-0.50713,0.121504,-0.202697,0.0337113,-0.173551,-0.170537
-0.228284,-0.221763,-0.334862,-0.465131,0.108153,-0.293764,0.0116424,-0.150049,-0.216225
-0.228385,-0.2285,-0.342977,-0.365544,0.0502683,-0.321394,-0.00378385,-0.139145,-0.230224
-0.230244,-0.233458,-0.351174,-0.295451,-0.0686735,-0.338891,0.00478444,-0.148549,-0.24082
-0.234957,-0.236854,-0.358686,-0.179148,-0.193568,-0.275161,0.0312946,-0.174373,-0.254319
-0.239751,-0.236793,-0.363376,0.0968122,-0.147167,-0.14505,0.0484159,-0.214262,-0.186218
-0.241044,-0.23207,-0.362315,0.371434,0.0240356,0.145464,0.0141318,-0.149518,-0.155804
-0.235461,-0.224644,-0.354815,0.488721,0.372101,0.331057,-0.0893885,0.00304034,-0.110132
-0.222552,-0.21637,-0.347398,0.464551,0.747272,0.124915,-0.141834,0.0527393,-0.0294296
-0.204387,-0.206749,-0.347269,0.493324,1.03038,-0.336208,-0.157648,0.0279517,0.0458567
-0.183155,-0.193423,-0.355183,0.673181,1.16612,-0.631089,-0.123739,-0.0224962,0.0885035
-0.162562,-0.175934,-0.36548,0.849574,1.08025,-0.605107,-0.102935,0.00600278,0.0459696
-0.143278,-0.157531,-0.372672,0.814555,0.976504,-0.355463,-0.114824,0.0308641,0.0428818
-0.12352,-0.142639,-0.375555,0.603203,1.08126,-0.143875,-0.136773,0.0331828,0.0932189
-0.101556,-0.132453,-0.377278,0.393707,1.06041,-0.190938,-0.130371,0.0541523,0.060978
-0.0806726,-0.124906,-0.382615,0.335679,1.11554,-0.408655,-0.16635,0.0941076,0.0483391
-0.0619311,-0.117322,-0.391548,0.341867,0.787149,-0.476893,-0.199413,0.0555542,0.048076
-0.0526507,-0.1107,-0.400035,0.265586,0.244279,-0.406456,-0.214358,0.00762875,0.0421538
-0.0526507,-0.1107,-0.400035,0.265586,0.244279,-0.406456,-0.214358,0.00762875,0.0421538
-0.0527557,-0.105783,-0.407931,0.196519,-0.114522,-0.410274,-0.155846,-0.0451768,0.0760497
-0.0568454,-0.101356,-0.416645,0.196059,-0.168493,-0.482069,-0.0795088,-0.070436,0.129232
-0.0608693,-0.0973446,-0.426838,0.118829,-0.131001,-0.535243,-0.0309022,-0.0697253,0.141616
-0.0634258,-0.0965956,-0.43788,-0.138905,-0.010155,-0.57867,-0.0352855,-0.0498758,0.157506
-0.0639571,-0.101754,-0.451837,-0.448302,0.110746,-0.792931,-0.033112,-0.0337689,0.120601
-0.0622784,-0.111266,-0.471525,-0.585735,0.259289,-1.08966,-0.0385494,-0.0440354,0.104179
-0.0588405,-0.121436,-0.496673,-0.560645,0.357015,-1.30751,-0.0331639,-0.0799241,0.068463
-0.0548299,-0.130329,-0.524574,-0.472005,0.388988,-1.36059,-0.0114887,-0.132555,0.0320365
-0.0509857,-0.137276,-0.551645,-0.361633,0.349466,-1.25005,-0.00640056,-0.150518,0.00360262
-0.0483201,-0.142627,-0.575621,-0.298605,0.244173,-1.09187,-0.024653,-0.141442,-0.01813
-0.0479183,-0.147255,-0.597423,-0.267846,0.132384,-1.0349,-0.0416992,-0.109294,-0.0519359
-0.0486437,-0.151554,-0.618858,-0.263503,0.10724,-1.05716,-0.0621622,-0.0685466,-0.0742009
-0.0499914,-0.155567,-0.640907,-0.229758,0.0781699,-1.09065,-0.0717876,-0.0376154,-0.117894
-0.0528988,-0.15842,-0.663493,-0.175359,-0.00465613,-1.10415,-0.070026,-0.0578894,-0.121524
-0.0566631,-0.161104,-0.685784,-0.217217,-0.00814802,-1.05374,-0.0598384,-0.0824355,-0.129554
-0.0596728,-0.164802,-0.706655,-0.267831,0.0567996,-0.99233,-0.073449,-0.0734199,-0.126755
-0.0608349,-0.169777,-0.727282,-0.352903,0.168568,-1.00534,-0.104429,-0.0768607,-0.111339
-0.0607634,-0.176303,-0.749081,-0.405431,0.191065,-1.11484,-0.157561,-0.0465607,-0.116546
-0.0624873,-0.182069,-0.774616,-0.292496,0.0611608,-1.35239,-0.177889,-0.0611155,-0.100739
-0.0688817,-0.183643,-0.804281,-0.0502138,-0.158033,-1.50299,-0.151538,-0.11401,-0.0443999
-0.0790036,-0.180544,-0.83508,0.0988481,-0.279057,-1.50139,-0.0981424,-0.195236,0.0687514
-0.0889172,-0.17685,-0.864672,-0.0151426,-0.141537,-1.42344,-0.0718408,-0.195247,0.150726
-0.0940191,-0.177357,-0.893968,-0.31973,0.155938,-1.44938,-0.0867148,-0.125922,0.174989
-0.0930144,-0.184697,-0.925609,-0.71087,0.519444,-1.56976,-0.140709,-0.0505925,0.147993
-0.0857636,-0.200557,-0.960761,-1.17093,0.862602,-1.71026,-0.229337,0.0319101,0.0610403
-0.0743618,-0.22467,-1.00043,-1.46907,1.08409,-1.975,-0.296821,0.0606927,-0.0508978
-0.0621906,-0.250123,-1.04663,-1.2818,1.1546,-2.29384,-0.31193,0.00197279,-0.143968
-0.0537242,-0.26727,-1.09631,-0.650584,0.914914,-2.29524,-0.288632,-0.0988317,-0.228638
-0.051116,-0.270606,-1.14029,0.0832125,0.51067,-1.85154,-0.254003,-0.174283,-0.246085
-0.0521714,-0.262235,-1.17248,0.533939,0.247633,-1.28981,-0.232762,-0.18348,-0.173914
-0.0542278,-0.248074,-1.19455,0.732383,0.148391,-0.954145,-0.211359,-0.101631,-0.0886478
-0.0544105,-0.231888,-1.21248,0.754281,0.279274,-0.906145,-0.209386,-0.0123931,0.020973
-0.0511426,-0.216553,-1.23145,0.657597,0.464545,-1.02311,-0.217331,0.0351809,0.0931494
-0.0450633,-0.203802,-1.25311,0.503978,0.565572,-1.13227,-0.226819,0.0324077,0.112007
-0.0378215,-0.19406,-1.27569,0.387875,0.608773,-1.07629,-0.211448,-0.0257453,0.10037
-0.0292664,-0.185954,-1.29582,0.365988,0.603859,-0.915775,-0.191793,-0.0712669,0.07995
-0.0203224,-0.177793,-1.31281,0.416921,0.564149,-0.778125,-0.17464,-0.10357,0.0584503
-0.0123592,-0.168293,-1.32744,0.503328,0.478278,-0.676836,-0.173683,-0.0952649,0.0368832
-0.00624821,-0.157578,-1.34065,0.534887,0.333157,-0.635055,-0.188241,-0.0751093,0.0285608
-0.00289909,-0.147077,-1.35364,0.500821,0.197148,-0.656371,-0.198777,-0.0464646,0.0179014
-0.00205319,-0.137004,-1.3673,0.516398,0.0775772,-0.686302,-0.184657,-0.0326021,0.00208694
-0.00367701,-0.125648,-1.38088,0.607863,-0.0721707,-0.64354,-0.15663,-0.0436073,-0.00331241
-0.00868084,-0.112963,-1.39248,0.630545,-0.29567,-0.503021,-0.127178,-0.0506503,-0.000475347
-0.0172099,-0.100862,-1.40126,0.53847,-0.418299,-0.396028,-0.103972,-0.0277237,0.0253643
-0.0262449,-0.0916476,-1.40943,0.348904,-0.369269,-0.452226,-0.0792758,0.00233748,0.0568923
-0.0329203,-0.0866972,-1.41985,0.102325,-0.212934,-0.602904,-0.06691,0.0340321,0.0643842
-0.0377718,-0.0866508,-1.43334,-0.144278,-0.17949,-0.712541,-0.0507729,0.0319879,0.0258263
-0.0432958,-0.0914498,-1.44698,-0.3753,-0.248184,-0.591999,-0.0473678,0.0220657,-0.0469667
-0.0432958,-0.0914498,-1.44698,-0.3753,-0.248184,-0.591999,-0.0473678,0.0220657,-0.0469667
-0.0502808,-0.0996878,-1.45787,-0.467514,-0.34141,-0.46123,-0.0360188,0.0319623,-0.10867
-0.0587464,-0.108625,-1.46606,-0.469996,-0.412381,-0.272634,-0.00765806,-0.0299055,-0.102854
-0.0680777,-0.118447,-1.4689,-0.542176,-0.460671,0.0539911,-0.00648699,-0.0566625,-0.0778341
-0.0762387,-0.131094,-1.46706,-0.704191,-0.36288,0.153284,-0.035603,-0.0404937,-0.0303507
-0.0828768,-0.146417,-1.46785,-0.797398,-0.288548,-0.169074,-0.0968299,0.0058848,-0.0201532
-0.089457,-0.160608,-1.47816,-0.652731,-0.210772,-0.730736,-0.115852,0.0146418,-0.000215411
-0.0965375,-0.16844,-1.49897,-0.294911,-0.165019,-1.19343,-0.0774617,0.000720397,0.0273235
-0.104504,-0.168408,-1.52547,0.0031319,-0.192474,-1.33196,-0.0235501,-0.0369974,0.0641842
-0.113021,-0.164572,-1.55109,0.0721949,-0.228833,-1.17396,-0.00321501,-0.0211911,0.071305
-0.120428,-0.161002,-1.57222,0.0244064,-0.146788,-0.928091,-0.00705695,0.0402539,0.0647569
-0.123556,-0.159331,-1.5892,-0.0623772,0.118019,-0.766997,-0.0479969,0.10741,0.0586033
-0.120567,-0.159561,-1.6044,-0.132663,0.40322,-0.735552,-0.111981,0.146383,0.0401275
-0.113954,-0.160455,-1.62052,-0.126941,0.484085,-0.839198,-0.170316,0.144386,0.00168735
-0.108126,-0.160194,-1.63899,-0.0305659,0.355353,-0.966185,-0.199588,0.113119,-0.018645
-0.106426,-0.157299,-1.65931,0.106402,0.110648,-1.03877,-0.198599,0.0730544,-0.0158741
-0.109876,-0.151821,-1.68032,0.197476,-0.107757,-1.07708,-0.174916,0.0569833,0.00713354
-0.116524,-0.145149,-1.70279,0.206354,-0.204013,-1.20783,-0.143172,0.0591262,0.0511644
-0.124099,-0.138348,-1.72835,0.154977,-0.182611,-1.37404,-0.116141,0.0654465,0.0816137
-0.13093,-0.132573,-1.75725,0.0449647,-0.0999537,-1.52338,-0.0964959,0.0721762,0.0898426
-0.136229,-0.128938,-1.78942,-0.116103,-0.000868853,-1.66272,-0.0792937,0.0590254,0.0883003
-0.139501,-0.128454,-1.82465,-0.307272,0.120495,-1.78956,-0.0784819,0.046261,0.0804238
-0.141061,-0.130741,-1.86303,-0.436368,0.209793,-1.92812,-0.0855359,0.0622432,0.0416763
-0.142377,-0.134352,-1.90464,-0.487542,0.190165,-2.08139,-0.0933603,0.0693598,0.00093478
-0.14551,-0.137739,-1.94937,-0.466295,0.103512,-2.22849,-0.0820079,0.0747472,-0.0503954
-0.150704,-0.139348,-1.99621,-0.351457,0.0360806,-2.302,-0.0517147,0.0679969,-0.0716531
-0.156468,-0.13748,-2.04304,-0.16268,0.0424876,-2.26853,-0.0116711,0.0479958,-0.0685487
-0.16124,-0.131669,-2.0875,0.0303022,0.0853391,-2.14085,0.0131869,0.0261514,-0.0458676
-0.164021,-0.122998,-2.12835,0.137033,0.167565,-1.96674,0.0176135,0.00873549,-0.00666881
-0.16462,-0.114037,-2.16572,0.138504,0.21169,-1.835,0.00883701,0.00281753,0.0162366
-0.163311,-0.105125,-2.20121,0.163083,0.298283,-1.78909,-0.0138486,0.0216713,0.0532688
-0.160158,-0.0957356,-2.23654,0.19137,0.361884,-1.8195,-0.0261775,0.0361551,0.0570682
-0.155896,-0.0860014,-2.27213,0.202885,0.369398,-1.79625,-0.0352345,0.0306819,0.0591882
-0.152143,-0.0767233,-2.3067,0.189917,0.283707,-1.73561,-0.0518153,0.0382355,0.0317443
-0.14912,-0.0676085,-2.34057,0.205838,0.26814,-1.74245,-0.0558577,0.0437254,0.03747
-0.145189,-0.0575251,-2.37558,0.297943,0.336364,-1.85609,-0.063583,0.0532245,0.0394471
-0.140166,-0.0449304,-2.41263,0.410991,0.35072,-1.94943,-0.0581418,0.0579291,0.030316
-0.135603,-0.0311697,-2.45042,0.408393,0.218642,-1.94827,-0.0703527,0.0667053,0.0135779
-0.13395,-0.0191395,-2.48719,0.261215,0.0564106,-1.81329,-0.0531511,0.0548059,0.00775218
-0.133051,-0.0119695,-2.5208,-0.0168465,0.140252,-1.58841,-0.0435896,0.0616851,0.022768
-0.126881,-0.0113325,-2.55104,-0.303586,0.530841,-1.43298,-0.0531241,0.104055,0.0460817
-0.112934,-0.0159072,-2.58074,-0.474571,0.859107,-1.47219,-0.0876676,0.118615,0.0387616
-0.0963414,-0.0219611,-2.61262,-0.42417,0.794454,-1.62497,-0.117835,0.0935498,0.000875294
-0.0844507,-0.0258784,-2.6468,-0.257217,0.453189,-1.69897,-0.128507,0.0865056,-0.044257
-0.0798414,-0.0262059,-2.68054,-0.0724893,0.123967,-1.62111,-0.107008,0.0864682,-0.0420563
-0.0794541,-0.0249092,-2.71189,-0.0791857,0.0428413,-1.49842,-0.0585172,0.0667377,-0.000580132
-0.078251,-0.0251374,-2.74128,-0.1597,0.160632,-1.42499,-0.0170683,0.0454678,0.0411807
-0.0744119,-0.0263877,-2.76945,-0.17262,0.267992,-1.36035,-0.0228506,0.0414713,0.0731947
-0.0704909,-0.0278342,-2.79644,-0.160232,0.191424,-1.31508,-0.0350634,0.0468003,0.0523517
-0.0704909,-0.0278342,-2.79644,-0.160232,0.191424,-1.31508,-0.0350634,0.0468003,0.0523517
-0.0684384,-0.0288453,-2.82311,-0.113239,0.0908377,-1.33281,-0.0386686,0.0388163,0.0503904
-0.0679845,-0.0285826,-2.85005,-0.0389651,0.0522768,-1.33284,-0.0201388,0.0271465,0.0569748
-0.0669569,-0.0270605,-2.87625,0.00652002,0.122205,-1.2672,-0.00208733,0.00550519,0.081592
-0.0645915,-0.025238,-2.90064,0.00314649,0.167288,-1.16516,-9.49055e-05,-0.00126362,0.0835192
-0.0618826,-0.0241576,-2.92312,-0.0417581,0.135718,-1.07961,-0.0347631,0.0200039,0.080833
-0.0605936,-0.0243823,-2.94497,-0.111661,0.0479647,-1.10763,-0.0654228,0.0354805,0.0751234
-0.0608207,-0.0256992,-2.96833,-0.15459,-0.0142672,-1.21021,-0.0738499,0.0381923,0.0712162
-0.0620342,-0.0275078,-2.99351,-0.185487,-0.0320998,-1.26727,-0.0684001,0.0060194,0.0714751
-0.0638811,-0.0297584,-3.01904,-0.191211,-0.067075,-1.23797,-0.0550718,-0.0267936,0.0630702
-0.066411,-0.0319664,-3.04349,-0.184339,-0.113974,-1.17463,-0.0422686,-0.0619444,0.0628071
-0.0698152,-0.034065,-3.06695,-0.183344,-0.154767,-1.14875,-0.0546411,-0.0671698,0.0582798
-0.0742328,-0.0360189,-3.09034,-0.179528,-0.207951,-1.16013,-0.0547287,-0.0726321,0.0558186
-0.0799468,-0.0380546,-3.11426,-0.215895,-0.268848,-1.20018,-0.0586239,-0.0699972,0.0487882
-0.0867301,-0.0409451,-3.13932,-0.277417,-0.306823,-1.25876,-0.0500326,-0.0847415,0.0440208
-0.0939802,-0.0447348,3.11779,-0.326903,-0.299468,-1.28456,-0.0398579,-0.0928155,0.0277485
-0.101094,-0.0489154,3.09111,-0.341147,-0.288076,-1.3109,-0.0288676,-0.108664,0.0105042
-0.10852,-0.0526551,3.06414,-0.301113,-0.313867,-1.30813,-0.0190559,-0.116107,-0.0137147
-0.116673,-0.0551186,3.03763,-0.234289,-0.351117,-1.27309,-0.00167255,-0.124137,-0.0254273
-0.12518,-0.0561458,3.01229,-0.166126,-0.344702,-1.21878,0.0162278,-0.127588,-0.0274851
-0.132655,-0.0551414,2.98783,-0.0342308,-0.244906,-1.21123,0.0385286,-0.124022,-0.0339739
-0.137321,-0.0506953,2.9644,0.159469,-0.10828,-1.11438,0.0562851,-0.120162,-0.0425162
-0.140004,-0.0437997,2.94628,0.242816,-0.102075,-0.733616,0.0168699,-0.0708241,-0.0637738
-0.143081,-0.0381203,2.93592,0.155079,-0.163135,-0.41223,-0.0205047,-0.0100806,-0.0800295
-0.147076,-0.0347622,2.9285,0.0999295,-0.204729,-0.410723,-0.039776,0.0490157,-0.081279
-0.151106,-0.0303305,2.91962,0.221576,-0.168746,-0.522002,-0.028889,0.05816,-0.0552608
-0.154519,-0.0231371,2.91023,0.330542,-0.151158,-0.471607,0.00119939,0.0147222,-0.0369743
-0.158365,-0.0150988,2.90401,0.349786,-0.224496,-0.24884,0.0233937,-0.0408702,-0.0227275
-0.163173,-0.00784196,2.90235,0.327736,-0.245996,-0.0496298,0.0221405,-0.0377337,0.0149152
-0.16771,-0.00207133,2.90284,0.235901,-0.196067,-0.0278752,0.00215977,0.00282687,0.0384273
-0.170701,0.00159794,2.90171,0.103843,-0.0929325,-0.154163,-0.0120733,0.0200765,0.0460421
-0.171609,0.00333655,2.89748,-0.00066724,-0.0106212,-0.280972,-0.0187015,0.0184581,0.0324249
-0.17155,0.00326307,2.89122,-0.113882,0.00681407,-0.322856,-0.0174015,-0.00953893,-0.000996709
-0.171378,0.00143089,2.88446,-0.168556,0.00230813,-0.291239,-0.00785002,-0.0436587,-0.0294361
-0.171218,-0.000879661,2.87893,-0.143705,0.0152885,-0.221315,-0.0165524,-0.049906,-0.0392959
-0.171297,-0.00229429,2.87436,-0.0756174,-0.018025,-0.207805,-0.02885,-0.0414024,-0.046468
-0.172367,-0.00250434,2.8695,-0.036238,-0.0897181,-0.278839,-0.0447334,-0.0209979,-0.0387168
-0.174738,-0.00199735,2.86266,-0.0431911,-0.120961,-0.399,-0.0312746,-0.022093,-0.0143294
-0.17685,-0.00155244,2.85348,-0.0784619,-0.0716728,-0.508724,-0.000416711,-0.0249898,0.0214195
-0.177526,-0.00185293,2.84232,-0.148049,-0.000260187,-0.566211,0.0183301,-0.0418919,0.0414872
-0.176508,-0.00342109,2.83025,-0.204243,0.0961272,-0.586752,0.031717,-0.0457794,0.0490933
-0.17391,-0.00561999,2.81777,-0.226277,0.162698,-0.589505,0.0360233,-0.0473526,0.0419223
-0.170508,-0.00848065,2.80569,-0.259311,0.175445,-0.540881,0.0281215,-0.0497707,0.0306445
-0.167235,-0.0123095,2.79465,-0.29711,0.167137,-0.483797,0.0168768,-0.0596876,0.0237397
-0.163788,-0.0165264,2.7842,-0.274692,0.197098,-0.47766,0.0062198,-0.057175,0.0170148
-0.159797,-0.0195543,2.77403,-0.176628,0.203674,-0.460397,0.00199808,-0.0609195,0.00696832
-0.156445,-0.0208291,2.7655,-0.0903568,0.13334,-0.352897,-0.0145449,-0.0602562,-0.00231022
-0.154974,-0.0209723,2.75894,-0.020952,0.033089,-0.305113,-0.0259931,-0.0493825,-0.0101722
-0.155301,-0.0196892,2.75308,0.0551609,-0.0438254,-0.291166,-0.0356302,-0.0253793,-0.000675499
-0.155301,-0.0196892,2.75308,0.0551609,-0.0438254,-0.291166,-0.0356302,-0.0253793,-0.000675499
-0.156771,-0.0175168,2.74746,0.0602196,-0.0846994,-0.294744,-0.0408547,-0.00511035,0.00859642
-0.158534,-0.0156209,2.74138,0.0330547,-0.076691,-0.329602,-0.0387732,0.00859553,0.012318
-0.160033,-0.0138952,2.73484,0.0343202,-0.0632332,-0.341747,-0.0353821,0.0212922,0.00551361
-0.161149,-0.0119233,2.72803,0.0539642,-0.0414534,-0.351209,-0.0295312,0.0223025,-0.000514328
-0.161944,-0.00949938,2.72139,0.0846621,-0.0325574,-0.337435,-0.0251562,0.0235209,-0.00623184
-0.162601,-0.00635937,2.71505,0.119369,-0.0155533,-0.334465,-0.0203236,0.0319861,-0.00266647
-0.162654,-0.00262499,2.70879,0.144547,0.0142234,-0.343308,-0.0141339,0.0467983,0.00436044
-0.161896,0.00140688,2.70257,0.150991,0.0604971,-0.324677,-0.0110365,0.0509218,0.0187676
-0.160506,0.0053623,2.69697,0.145398,0.0773314,-0.287692,-0.00633715,0.0601567,0.0160782
-0.158771,0.00908924,2.69203,0.136595,0.0801617,-0.256934,-0.0032482,0.0557506,0.0262457
-0.157272,0.0124489,2.68761,0.126592,0.0640377,-0.236073,-0.0101355,0.0725835,0.0278496
-0.1562,0.0157929,2.68328,0.133506,0.0348707,-0.243032,-0.00442745,0.0741878,0.0275584
-0.156209,0.0191362,2.67909,0.130019,-0.0454853,-0.210328,-0.0011923,0.0711371,0.0219298
-0.157654,0.0221088,2.67592,0.115251,-0.109663,-0.151872,0.00493975,0.0632448,0.0201634
-0.160316,0.0244609,2.67394,0.0804667,-0.147166,-0.0743508,0.00977191,0.0645129,0.0162242
-0.162932,0.0256884,2.67331,0.0280898,-0.102431,-0.0192883,0.011096,0.0705008,0.0246232
-0.164399,0.0258277,2.67293,-0.00457533,-0.046731,-0.034141,0.00176978,0.0730051,0.0257845
-0.165038,0.025672,2.67204,-0.00861971,-0.0352269,-0.0485407,-0.00670838,0.0733835,0.0251191
-0.166054,0.0255573,2.67118,-0.00935978,-0.0793595,-0.0305206,-0.0144188,0.0724297,0.0162723
-0.167975,0.0251457,2.67071,-0.0298532,-0.108589,-0.0119128,0.000735864,0.0538297,0.0134916
-0.170124,0.0244496,2.67052,-0.0232136,-0.107687,0.00153608,0.0217932,0.0370053,0.0206543
-0.172286,0.0240556,2.67081,0.002049,-0.104129,0.0395311,0.0358867,0.0129145,0.0208297
-0.174678,0.0239108,2.67243,0.0168546,-0.131631,0.126301,0.0478873,-0.0146808,0.0191385
-0.177642,0.0234827,2.67601,0.00430909,-0.152537,0.219604,0.05102,-0.0318629,0.0242139
-0.180715,0.022241,2.68068,-0.0413912,-0.135601,0.248975,0.0504461,-0.0364461,0.0305609
-0.183004,0.0199464,2.68524,-0.100761,-0.0841168,0.23284,0.0422229,-0.0388317,0.0327275
-0.184462,0.0166917,2.68913,-0.142136,-0.0672832,0.206311,0.0285614,-0.0468771,0.0166353
-0.185784,0.0129561,2.69253,-0.156762,-0.0692187,0.192925,0.0182132,-0.0565632,-0.000353515
-0.187146,0.0093274,2.69561,-0.141087,-0.0650928,0.174791,0.0182467,-0.06599,-0.024019
-0.188287,0.00635538,2.6985,-0.10676,-0.0539551,0.164998,0.0105063,-0.0618818,-0.034585
-0.189405,0.00410827,2.70113,-0.0749356,-0.0675955,0.138477,0.0045568,-0.0562249,-0.0515374
-0.190922,0.00261128,2.70368,-0.0338916,-0.0963157,0.138178,-0.00240584,-0.0577982,-0.0480961
-0.193104,0.00191469,2.70621,0.00235018,-0.112986,0.119061,-0.00185026,-0.0474321,-0.0455965
-0.195022,0.00198185,2.70811,0.0261026,-0.0829654,0.065068,0.00367799,-0.0380113,-0.0328897
-0.19629,0.00265353,2.70911,0.0553767,-0.0536474,0.0245776,0.0126583,-0.03795,-0.0230518
-0.197165,0.00391078,2.71,0.0768565,-0.0439985,0.0427862,0.018246,-0.0407821,-0.0163299
-0.19803,0.00537827,2.71146,0.0834422,-0.0353965,0.0695061,0.0209235,-0.0410694,-0.00725949
-0.19843,0.00661364,2.71316,0.0626476,-0.00322695,0.0657744,0.0218028,-0.0279169,0.00299984
-0.198132,0.00746565,2.71448,0.0417594,0.0243915,0.0510236,0.0164277,-0.0168416,0.0121623
-0.19766,0.00797429,2.71544,0.0194182,0.00931758,0.0336626,0.00891533,-0.0100768,0.00329417
-0.197689,0.00813133,2.71598,-0.00746183,-0.016986,0.0199281,0.00280921,-0.0130784,0.00330257
-0.198057,0.00783927,2.71613,-0.0317577,-0.0127756,0.00173598,0.00597775,-0.0155524,0.00282055
-0.198227,0.00728258,2.71608,-0.0251661,-0.0112748,0.00557469,0.00745779,-0.0104176,-0.00538754
-0.198438,0.0071848,2.71596,0.0105723,-0.016876,-0.0157448,0.00565025,-0.0162374,-0.0053215
-0.198946,0.00775346,2.71561,0.0308618,-0.0484372,-0.0218238,0.00855871,-0.0121745,-0.0103699
-0.200207,0.00856074,2.71539,0.0339007,-0.0738461,-0.0204782,0.00848073,-0.00678959,-0.0024628
-0.201517,0.00903384,2.7149,-0.00578839,-0.0497193,-0.0380718,0.0208717,-0.00363096,0.00885326
-0.20213,0.00889091,2.7139,-0.0312656,-0.017233,-0.0510729,0.0280495,-0.00389595,0.0123937
-0.20213,0.00889091,2.7139,-0.0312656,-0.017233,-0.0510729,0.0280495,-0.00389595,0.0123937
-0.201915,0.0083462,2.71262,-0.0512928,0.0189911,-0.0641261,0.0321118,-0.0117801,0.0162409
-0.201186,0.00768455,2.71109,-0.0445853,0.0464466,-0.06444,0.0396696,-0.0236264,0.0120584
-0.200117,0.00720978,2.70992,-0.0292156,0.052097,-0.0368593,0.0341668,-0.0266189,0.00871968
-0.199016,0.00677813,2.7092,-0.031303,0.0584148,-0.0285755,0.0304948,-0.0283475,0.00755227
-0.19785,0.00622058,2.70842,-0.0390206,0.0556339,-0.0360212,0.0228213,-0.0187122,0.0019874
-0.196543,0.00567694,2.70725,-0.0398236,0.0631794,-0.066246,0.0147654,-0.00865097,0.00233817
-0.19522,0.00543186,2.70562,-0.0214238,0.055137,-0.0813519,0.0120186,-0.0101473,0.000796437
-0.19418,0.00550527,2.70393,-0.0187521,0.0342687,-0.0793158,0.012386,-0.0200531,0.00188237
-0.193654,0.00562501,2.70257,-0.00133391,0.0128338,-0.0604599,0.00704809,-0.0137841,0.000884473
-0.19335,0.00609376,2.70131,0.0130062,0.0180692,-0.0774252,0.0114644,-0.020487,0.00527364
-0.193055,0.00673722,2.69969,0.013427,0.0138972,-0.0857596,0.0103348,-0.00565285,0.00351048
-0.19284,0.00713301,2.69816,-0.0138197,0.0006089,-0.0754359,-5.43892e-05,0.00437123,0.00777572
-0.192859,0.00680534,2.69636,-0.0574813,-1.04262e-05,-0.103984,-0.00270528,0.00891112,0.00614154
-0.192786,0.00604349,2.69355,-0.0700145,0.0102961,-0.155492,-0.000517234,0.0103771,0.0081439
-0.192408,0.00551897,2.68998,-0.056918,0.0230268,-0.168526,0.00713769,0.00332179,0.00944006
-0.192024,0.00498417,2.68685,-0.0493829,0.0169971,-0.124096,0.0140405,-0.00703965,0.00167304
-0.191817,0.0046008,2.68459,-0.0234389,0.00739593,-0.0928164,0.0191014,-0.00958977,0.00336236
-0.191615,0.00473898,2.68272,0.00586534,0.018403,-0.0985375,0.0196048,0.00577668,0.00578058
-0.191285,0.00527896,2.68085,0.00983135,0.00852582,-0.0885576,0.018212,0.0121455,0.00149202
-0.191154,0.00576618,2.67933,0.00958179,-0.000572857,-0.0641557,0.0187551,0.0067886,0.00503892
-0.190857,0.00610962,2.67844,0.00401999,0.0163279,-0.0336297,0.0200951,0.00920723,0.008313
-0.190382,0.00629617,2.67799,0.0078926,0.0202062,-0.0162963,0.0174009,0.00245103,0.0119876
-0.190124,0.00637196,2.67797,0.00290388,7.77692e-05,0.0161691,0.0183374,-0.00157779,0.0130736
-0.190248,0.00624009,2.67864,-0.00228766,-0.010109,0.0491316,0.017376,-0.00138923,0.0162706
-0.190401,0.0058316,2.67969,-0.0233098,-0.00857756,0.049515,0.0117741,-0.00207236,0.0272915
-0.190331,0.00493312,2.68026,-0.0530555,0.0048528,0.0234402,0.0050692,0.00287328,0.0254325
-0.189889,0.00361549,2.68017,-0.0778836,0.0313744,-0.00351248,0.00236255,-0.00785901,0.0225309
-0.189056,0.0020795,2.67976,-0.0761112,0.0439546,-0.000774096,0.00355951,-0.019771,0.00694495
-0.188203,0.000605573,2.67986,-0.0669237,0.0369461,0.0366948,-0.00431226,-0.0304917,0.00165951
-0.187891,-0.000835535,2.68057,-0.0565281,0.00189306,0.0549922,-0.0108904,-0.0245628,-0.0147618
-0.187864,-0.0018349,2.68138,-0.0269745,0.0078641,0.0391484,-0.012794,-0.0284003,-0.00946331
-0.187598,-0.00194352,2.6819,0.0192924,0.0124142,0.0212031,-0.00959153,-0.0264643,-0.0184623
-0.187724,-0.00107511,2.68269,0.0684484,-0.023655,0.0469529,-0.0110394,-0.0368416,-0.0113434
-0.188561,0.000211767,2.68416,0.0693663,-0.0619058,0.0659826,-0.0115596,-0.0328692,-0.00274086
-0.189891,0.00135318,2.68552,0.0583457,-0.0597653,0.0397392,-0.00723183,-0.0275926,0.0136248
-0.190799,0.00235569,2.68604,0.0314063,-0.0305276,-0.00250324,-0.0019774,-0.0221498,0.0241477
-0.191313,0.0027461,2.68582,-0.00819625,-0.0259219,-0.0172831,-0.00437205,-0.0128788,0.0162977
-0.191895,0.0023297,2.68533,-0.0490764,-0.0289873,-0.0239969,-0.0070658,-0.0127306,0.0114729
-0.192499,0.00151115,2.68446,-0.056018,-0.026947,-0.0408768,-0.00610602,-0.00942929,0.000510037
-0.192969,0.000749923,2.6833,-0.0465806,-0.0204746,-0.05266,-0.00645345,-0.00750496,-0.00740689
-0.193477,0.000254515,2.68208,-0.0294242,-0.0217583,-0.0540273,-0.000751555,-0.0144701,-0.0111816
-0.193925,0.000121813,2.6811,-0.00917593,-0.0139903,-0.0424407,0.00397599,-0.017975,-0.00582045
-0.194046,0.000324824,2.68035,0.00762439,-0.00199047,-0.0300759,0.0114953,-0.0179856,-0.00111359
-0.194125,0.000457289,2.6802,-0.0035612,-0.0108836,0.0107555,0.00754446,-0.010651,0.00207549
-0.194541,9.71225e-06,2.68046,-0.0390363,-0.0158676,0.0121327,0.00757062,-0.00391168,0.00487924
-0.194793,-0.000736416,2.67999,-0.0427773,-0.00859308,-0.039695,0.0148067,-0.00119407,0.00986558
-0.194475,-0.00123252,2.67907,-0.0316396,0.0207666,-0.0285057,0.0187365,-0.0190699,0.0199822
-0.194159,-0.00189484,2.67896,-0.0363023,0.00535494,0.0314776,0.0230803,-0.0342739,0.0104749
-0.194159,-0.00189484,2.67896,-0.0363023,0.00535494,0.0314776,0.0230803,-0.0342739,0.0104749
-0.194127,-0.00280833,2.67984,-0.0378481,0.0042182,0.0625122,0.0165791,-0.0415808,0.0169944
-0.193878,-0.00369749,2.68089,-0.0270277,0.0228295,0.0502067,0.012641,-0.0363207,0.014995
-0.19331,-0.00427559,2.68154,-0.0285753,0.0274546,0.030035,-0.000184804,-0.0310546,0.015514
-0.193147,-0.00522822,2.68198,-0.064452,-0.0262634,0.0301057,-0.0144903,-0.0270939,0.00647706
-0.194015,-0.00678712,2.68208,-0.102311,-0.0583941,0.0080109,-0.0140834,-0.0327879,0.00135714
-0.195404,-0.0091464,2.68147,-0.147288,-0.0781472,-0.0166759,-0.00800934,-0.0299286,-0.0129834
-0.197222,-0.0122213,2.68056,-0.183045,-0.112313,-0.0052132,-0.00696522,-0.0349718,-0.0261112
-0.199688,-0.0161628,2.68003,-0.225822,-0.116253,0.0347105,-0.0098379,-0.0348693,-0.0390425
-0.201846,-0.0208329,2.67985,-0.240001,-0.0907918,0.0315415,-0.0157821,-0.0207397,-0.0381994
-0.20332,-0.0251116,2.67883,-0.207582,-0.0597804,-0.0459802,-0.0145877,-0.018746,-0.0297572
-0.204512,-0.028449,2.67664,-0.168636,-0.0579682,-0.08963,-0.00791532,-0.0212734,-0.0167193
-0.205825,-0.0308851,2.67415,-0.135164,-0.0722843,-0.0939944,0.00423469,-0.0222283,0.00723445
-0.207424,-0.0330727,2.67174,-0.140292,-0.0768602,-0.0938813,0.0178239,-0.0252235,0.0273154
-0.20887,-0.035592,2.66922,-0.167509,-0.0532984,-0.0955948,0.0281462,-0.0243234,0.0439
-0.209359,-0.0386927,2.66666,-0.188343,0.00703656,-0.0874507,0.0359401,-0.0272998,0.0534667
-0.208851,-0.042398,2.66444,-0.227596,0.03843,-0.0481301,0.0302854,-0.0411492,0.0546306
-0.208408,-0.047089,2.66291,-0.256668,0.0046819,-0.00667012,0.0123827,-0.0391521,0.0350622
-0.208619,-0.0520333,2.66179,-0.251217,-0.0212747,-0.00486526,-0.00740509,-0.0344011,0.0309642
-0.209018,-0.0567694,2.66044,-0.238983,-0.0164928,-0.0305358,-0.0232118,-0.0292272,0.0288596
-0.209428,-0.0609264,2.65842,-0.207103,-0.0228934,-0.0865156,-0.0367483,-0.0255798,0.0288559
-0.210596,-0.0639366,2.65525,-0.154279,-0.0870168,-0.156987,-0.0441009,-0.02451,0.0197012
-0.213516,-0.0658306,2.65124,-0.120753,-0.178364,-0.188533,-0.0460996,-0.0208153,0.0253308
-0.218133,-0.067216,2.64689,-0.124977,-0.233923,-0.209929,-0.0350124,-0.0189322,0.0433277
-0.223423,-0.0692253,2.6416,-0.186824,-0.245789,-0.258931,-0.0236973,-0.00677676,0.0536349
-0.228623,-0.0721011,2.63496,-0.238269,-0.224766,-0.318177,-0.0203515,-0.00157341,0.0675641
-0.233576,-0.0756894,2.627,-0.29566,-0.210968,-0.370535,-0.0185485,-0.000360653,0.0583622
-0.238844,-0.0801985,2.61768,-0.353036,-0.239026,-0.421437,-0.020605,0.00768664,0.0272967
-0.244644,-0.0851399,2.60717,-0.36351,-0.255716,-0.467652,-0.00939853,0.0126498,0.00467306
-0.250861,-0.0895563,2.59603,-0.324138,-0.276853,-0.490078,0.0101672,0.00889111,-0.0190849
-0.257962,-0.0930851,2.58544,-0.277821,-0.33734,-0.421709,0.030587,-0.00376296,-0.0477874
-0.265773,-0.0961472,2.57699,-0.234651,-0.339128,-0.314308,0.0503825,-0.0158599,-0.0556647
-0.272218,-0.0989195,2.57012,-0.215213,-0.219655,-0.277867,0.0629334,-0.0169252,-0.0452852
-0.275747,-0.101136,2.56358,-0.167291,-0.0712615,-0.289481,0.061249,-0.0140949,-0.0426183
-0.277076,-0.101879,2.55693,-0.0747787,-0.00962755,-0.317184,0.0552983,-0.0183437,-0.0535191
-0.277924,-0.100696,2.55093,0.0209689,-0.0206654,-0.279374,0.0448356,-0.0303659,-0.0444494
-0.278524,-0.0985345,2.54646,0.0498591,0.0140008,-0.206506,0.0428144,-0.0346848,-0.0175056
-0.277721,-0.0969367,2.54286,0.000923217,0.109456,-0.189875,0.0327343,-0.0286086,0.0128627
-0.274696,-0.0962785,2.53886,-0.0468761,0.221664,-0.205889,0.00910345,-0.0301049,0.0248989
-0.269749,-0.0967268,2.53411,-0.129431,0.322461,-0.243202,-0.0271303,-0.0382111,0.0194827
-0.262887,-0.0980425,2.52757,-0.144571,0.412507,-0.36005,-0.0654604,-0.0471499,0.0015797
-0.255068,-0.0976245,2.5186,-0.0277207,0.432051,-0.50208,-0.101658,-0.0693016,-0.0178877
-0.248358,-0.0937859,2.50817,0.136625,0.32034,-0.583382,-0.130984,-0.110357,-0.0315856
-0.244004,-0.0866055,2.49716,0.2865,0.220558,-0.656956,-0.144158,-0.148097,-0.0116062
-0.240437,-0.0759202,2.48472,0.453134,0.278446,-0.80534,-0.131242,-0.163723,0.0323706
-0.233383,-0.06126,2.46992,0.618481,0.566303,-0.965286,-0.0966631,-0.185596,0.0890761
-0.218326,-0.0424714,2.45294,0.850087,1.03635,-1.08169,-0.0509033,-0.228005,0.110391
-0.197864,-0.018142,2.43508,1.14981,0.953186,-1.14974,-0.0380299,-0.185225,0.0377156
-0.180599,0.0106842,2.41697,1.27708,0.676766,-1.19254,-0.184237,-0.0401887,0.0465769
-0.180599,0.0106842,2.41697,1.27708,0.676766,-1.19254,-0.184237,-0.0401887,0.0465769
-0.172888,0.0384963,2.39538,1.0268,0.0566707,-1.40186,-0.207066,0.146031,-0.0886053
-0.174019,0.060865,2.36933,0.742554,-0.229636,-1.50527,-0.0972438,0.161612,-0.0922443
-0.175384,0.0791476,2.3423,0.595698,-0.0183138,-1.41709,0.0441641,0.117761,-0.0492609
-0.170219,0.0939571,2.31885,0.452217,0.29827,-1.11656,0.118953,0.0550159,-0.0163426
-0.160831,0.105328,2.30124,0.405328,0.450622,-0.79408,0.12385,0.0102847,-0.0410808
-0.151113,0.116748,2.2892,0.557888,0.377555,-0.579229,0.0834435,0.0229165,-0.0736676
-0.14203,0.131247,2.27428,0.582424,0.206979,-0.982895,0.0234078,0.410106,-0.0252056
-0.140008,0.143633,2.25975,0.454311,-0.154873,-0.604956,0.0836093,0.029874,-0.0879903
-0.143477,0.154031,2.25005,0.421428,-0.240798,-0.54301,0.132137,0.198436,-0.0497791
-0.144451,0.163018,2.2395,0.297346,-0.0651256,-0.587394,0.147442,0.226369,0.0495701
-0.14493,0.168428,2.23118,0.117382,-0.120057,-0.264576,0.132385,0.0779108,-0.00417656
-0.149887,0.170356,2.23083,0.122291,-0.413323,0.254339,0.134699,-0.0215834,-0.0795718
-0.163525,0.173138,2.24321,0.289285,-0.60741,0.727598,0.0515069,0.0167259,-0.0602574
-0.176496,0.17593,2.2556,0.166057,-0.472152,0.350833,0.0394936,0.0549982,-0.0186918
-0.185382,0.178023,2.25851,0.120114,-0.392837,-0.0631439,-0.0432156,0.051291,-0.00515604
-0.191749,0.181587,2.25573,0.168685,-0.289689,-0.252197,-0.100857,0.0110501,0.0178088
-0.197634,0.186284,2.25128,0.201143,-0.367043,-0.22817,-0.0454965,-0.0329157,-0.00777406
-0.204393,0.190843,2.24766,0.149408,-0.376377,-0.25146,-0.0797196,-0.0251721,0.0465816
-0.21063,0.193733,2.24109,-0.000363328,-0.393335,-0.452062,-0.0628404,0.0270722,0.0579634
-0.215971,0.19489,2.2296,-0.107905,-0.358489,-0.664221,-0.0331844,0.012598,0.0605572
-0.219915,0.19535,2.21472,-0.16385,-0.296888,-0.730788,0.00951459,0.00265788,0.0569174
-0.222291,0.194647,2.1998,-0.233013,-0.218853,-0.669681,0.0154192,-0.0247039,0.0580956
-0.223313,0.192198,2.18598,-0.287553,-0.164988,-0.583384,0.0334239,-0.0572128,0.0262285
-0.223085,0.18804,2.17518,-0.34784,0.00891968,-0.342204,0.0696339,-0.053163,0.0136015
-0.21989,0.182592,2.1684,-0.309349,0.179356,-0.199888,0.129871,-0.0255434,-0.0187719
-0.214882,0.178743,2.16385,-0.139075,0.207005,-0.1677,0.112362,-0.00364992,-0.0428517
-0.210761,0.178999,2.16072,0.106615,0.129345,-0.13725,0.0870568,-0.0123388,-0.0614643
-0.210201,0.184249,2.15961,0.381288,-0.103887,-0.0617012,0.0360111,-0.053425,-0.0711417
-0.215609,0.193946,2.16219,0.589977,-0.399859,0.121089,-0.0061335,-0.0730143,-0.0553538
-0.229157,0.20497,2.16926,0.604463,-0.769351,0.283175,-0.0382647,-0.0507499,-0.0371584
-0.246717,0.215344,2.17675,0.549592,-0.811252,0.156084,-0.0142421,-0.00541709,0.0190228
-0.262084,0.224417,2.18096,0.443014,-0.620345,0.001233,0.0260805,-0.0111964,0.0085575
-0.273727,0.233141,2.18263,0.449943,-0.496218,-0.0245694,0.0347973,-0.016905,-0.0308217
-0.284458,0.241725,2.18677,0.482753,-0.509254,0.201599,0.0417344,-0.0635397,-0.00336337
-0.298035,0.249454,2.19648,0.524947,-0.596635,0.470444,0.0574262,-0.100811,0.00790071
-0.313678,0.256567,2.21157,0.578085,-0.557362,0.690592,0.0745062,-0.101707,0.0480445
-0.328824,0.262859,2.23064,0.582893,-0.423428,0.826554,0.0976349,-0.0479581,0.0423475
-0.340477,0.268143,2.24989,0.514078,-0.24051,0.70027,0.0985841,0.0326414,0.0696018
-0.348035,0.272739,2.2633,0.312379,-0.225526,0.295739,0.0718072,0.100562,0.0744259
-0.355402,0.275099,2.2649,-0.0282926,-0.410902,-0.169767,0.0262133,0.16657,-0.0432713
-0.360838,0.275232,2.26119,-0.0352462,-0.292931,-0.134519,0.0106535,-0.0346111,0.0982632
-0.368218,0.27592,2.26004,0.0635566,-0.423006,0.0196774,0.0280401,-0.0216505,-0.0028016
-0.377338,0.277601,2.26212,0.165258,-0.455384,0.0824892,-0.00292826,-0.0677019,0.0102688
-0.388669,0.280586,2.26556,0.232695,-0.585967,0.118193,-0.0119005,-0.0964328,-0.043286
-0.402458,0.284308,2.27026,0.275867,-0.639428,0.149465,0.0030174,-0.0772946,-0.0564565
-0.416986,0.287878,2.27593,0.267632,-0.622009,0.222738,0.0107912,-0.0593585,-0.0566306
-0.430079,0.289581,2.28395,0.188705,-0.46036,0.396669,0.0084385,-0.0791039,-0.00604796
-0.441396,0.288795,2.29365,0.12677,-0.387076,0.459053,-0.00230858,-0.0474015,-0.00557107
-0.451079,0.28628,2.3029,0.0242368,-0.309438,0.430496,-0.0170012,-0.0477383,0.0123054
-0.451079,0.28628,2.3029,0.0242368,-0.309438,0.430496,-0.0170012,-0.0477383,0.0123054
-0.458622,0.282538,2.3096,-0.0692612,-0.24786,0.292944,-0.0298728,-0.0225213,-0.00169659
-0.464214,0.279035,2.31332,-0.0614764,-0.198287,0.192601,-0.0207692,-0.0108882,-0.0150754
-0.46855,0.277469,2.31689,0.0945779,-0.15451,0.199035,-0.00478175,-0.0139037,0.000920177
-0.473203,0.278066,2.32283,0.193002,-0.138414,0.288502,-0.00778055,-0.0122617,-0.00282729
-0.477702,0.278183,2.3314,0.173378,-0.0791066,0.43374,-0.00459009,-0.00676268,0.0180216
-0.481504,0.275757,2.34147,0.0382977,-0.0452688,0.512012,0.0139143,-0.0119348,0.0174873
-0.483817,0.270149,2.35024,-0.141927,0.0409148,0.479317,0.0117064,-0.00412107,0.0329139
-0.484402,0.261937,2.35638,-0.28336,0.0451007,0.419503,-0.00453579,-0.0209095,0.00929391
-0.485853,0.253629,2.36108,-0.202972,-0.0828587,0.388362,-0.0212888,-0.020337,-0.0043183
-0.491062,0.247953,2.36773,-0.00165368,-0.246795,0.43491,-0.0586975,-0.0345637,-0.0150861
-0.497783,0.245062,2.37626,0.134247,-0.186396,0.417709,-0.0123578,-0.0401444,0.00909925
-0.502306,0.244852,2.38524,0.254246,-0.0537657,0.35085,0.0139173,-0.033619,0.0244808
-0.505325,0.245914,2.3946,0.260415,-0.0189261,0.419292,0.0377038,-0.0183827,0.0355519
-0.507518,0.24619,2.40605,0.342992,0.201844,0.48379,0.0455284,-0.0425745,0.0294868
-0.506116,0.248152,2.41836,0.374462,0.18874,0.45878,0.0366912,-0.00313605,0.0147276
-0.505921,0.250481,2.4308,0.414294,0.137028,0.49476,0.0285571,-0.0308163,-0.0184901
-0.506114,0.252406,2.4446,0.375616,0.192496,0.581942,0.0455934,-0.0652682,0.0184305
-0.506514,0.251692,2.45991,0.278086,0.131051,0.753161,0.0510842,-0.0680501,0.0230371
-0.507971,0.247835,2.47705,0.197959,0.148342,0.851461,0.0105454,-0.0864356,0.0123353
-0.51038,0.242577,2.49441,0.15714,0.0400446,0.865821,0.0182427,-0.0850815,-0.00326824
-0.514946,0.236651,2.51131,0.129564,-0.0264245,0.850763,-0.0011577,-0.108782,-0.00565302
-0.517968,0.229718,2.52875,0.0994215,0.118568,0.973875,0.00945273,-0.0824619,0.0485793
-0.519323,0.220114,2.54849,0.00985506,0.171315,1.17447,0.00555861,-0.103635,0.0203199
-0.520439,0.206371,2.56972,-0.188601,0.153472,1.26004,-1.508e-05,-0.0903179,0.0214325
-0.522076,0.189062,2.58828,-0.38169,0.0726808,1.14808,-0.0472389,-0.0703936,0.0242992
-0.522482,0.171064,2.60321,-0.42925,0.145592,1.03113,-0.0489615,-0.0282709,0.0858073
-0.521067,0.152984,2.61646,-0.481162,0.201871,1.00133,-0.0448429,-0.02202,0.0579344
-0.519411,0.134234,2.62914,-0.515558,0.113403,1.01477,0.00758988,-0.00462693,0.0408747
-0.52086,0.115098,2.64214,-0.475296,-0.0527698,1.03034,0.0345254,-0.0175561,0.00932699
-0.523312,0.097794,2.65558,-0.354388,-0.0912329,0.987092,0.0533024,-0.00200158,0.0625002
-0.527618,0.08218,2.66916,-0.335754,-0.162247,0.938677,-0.0073629,0.00588524,0.0303894
-0.52998,0.0667781,2.6808,-0.407566,0.00998675,0.822721,-0.035299,0.0208302,0.0831233
-0.529236,0.0515766,2.68951,-0.443898,0.114585,0.69469,-0.0117279,0.0338384,0.0711213
-0.525972,0.0374769,2.69607,-0.435649,0.228478,0.573913,0.0360035,0.0481952,0.0715042
-0.521353,0.0251911,2.70156,-0.335414,0.230811,0.51467,0.0284741,0.0203668,0.0239909
-0.516815,0.0165943,2.70885,0.00875401,0.298102,0.571335,0.0294919,-0.0268482,0.00100672
-0.50784,0.0141235,2.72293,0.429301,0.586828,0.794187,0.0142578,-0.0855473,0.0315924
-0.496404,0.0144507,2.74483,0.601827,0.552242,1.09303,0.0344447,-0.129608,-0.0633722
-0.486855,0.0127208,2.77144,0.429002,0.427903,1.29509,0.0371623,-0.0617118,0.00118387
-0.477587,0.00437243,2.79572,-0.0719573,0.598057,1.17694,-0.0384291,0.0118646,0.06774
-0.462064,-0.0112816,2.81115,-0.589587,0.89675,0.892461,-0.112032,0.0351665,0.106854
-0.442726,-0.0310997,2.81836,-0.820272,0.99101,0.626714,-0.117061,0.010806,0.0379771
-0.422442,-0.0508066,2.82071,-0.836169,1.04185,0.396619,-0.0622654,-0.01926,-0.00589561
-0.401798,-0.0685068,2.81941,-0.837357,0.985596,0.209053,-0.0195576,-0.00384741,-0.0146455
-0.383102,-0.0857221,2.81595,-0.872724,0.931973,0.144675,0.0282041,-0.0185394,-0.0369558
-0.363761,-0.103761,2.81274,-0.918332,1.04105,0.233927,0.0286067,-0.0328652,-0.0169028
-0.341084,-0.123516,2.81215,-0.923509,1.21322,0.388086,0.0268915,-0.0381042,-0.0360699
-0.315055,-0.142885,2.81513,-0.785443,1.32997,0.504153,0.0629978,-0.0213815,-0.0571855
-0.315055,-0.142885,2.81513,-0.785443,1.32997,0.504153,0.0629978,-0.0213815,-0.0571855
-0.286982,-0.158956,2.82209,-0.527619,1.34686,0.614174,0.064799,-0.0401693,-0.0798594
-0.258698,-0.170021,2.83206,-0.282799,1.27409,0.597945,0.0778935,-0.0429976,-0.0736281
-0.233144,-0.176853,2.8416,-0.160991,1.10038,0.470423,0.10283,-0.0428145,-0.0596258
-0.211145,-0.181004,2.84847,-0.105299,0.983078,0.261533,0.0949341,-0.0263157,-0.0199478
-0.192365,-0.183316,2.85081,-0.0591352,0.822262,0.018187,0.0848279,0.00491887,-0.0349983
-0.178413,-0.182063,2.84977,0.183879,0.578973,-0.124974,0.0812582,0.0044273,-0.0560798
-0.169692,-0.174723,2.84739,0.492732,0.354395,-0.230118,0.0840167,-0.013786,-0.0649837
-0.16495,-0.161874,2.84364,0.674355,0.183989,-0.344084,0.0781026,-0.0222062,-0.0310619
-0.163539,-0.147253,2.83825,0.643915,0.0480826,-0.408659,0.0931629,-0.0424577,0.00816035
-0.16382,-0.134226,2.83225,0.538774,0.0254796,-0.360444,0.102371,-0.0551948,0.0346525
-0.163213,-0.123472,2.82805,0.448253,0.0939375,-0.219691,0.103375,-0.0715071,0.0550653
-0.160804,-0.115293,2.82621,0.316836,0.167426,-0.0937547,0.100089,-0.0746475,0.0556036
-0.156567,-0.109904,2.82616,0.223241,0.254364,0.0055924,0.0864296,-0.0834836,0.0497562
-0.150611,-0.106054,2.82777,0.180992,0.310528,0.0917383,0.0734392,-0.0886893,0.0299997
-0.143687,-0.102941,2.83095,0.167096,0.341943,0.163166,0.0667668,-0.0887819,0.0128217
-0.136305,-0.100271,2.83494,0.154704,0.354782,0.175069,0.0665359,-0.0757953,-0.0086056
-0.128883,-0.0976662,2.83785,0.144195,0.338593,0.0679036,0.055847,-0.0525585,-0.0162701
-0.123045,-0.0946968,2.83833,0.169174,0.244901,-0.0512906,0.0583269,-0.0372127,-0.0370009
-0.119079,-0.0904716,2.83695,0.23594,0.16133,-0.124,0.0658825,-0.0382698,-0.0346866
-0.116604,-0.0848349,2.83469,0.287417,0.120467,-0.15368,0.0762184,-0.0342112,-0.0361651
-0.113979,-0.0783083,2.83281,0.330987,0.14704,-0.0889892,0.0850174,-0.0432855,-0.021908
-0.111041,-0.0714158,2.83287,0.332589,0.145718,0.0115527,0.106792,-0.0467884,-0.024958
-0.108546,-0.066262,2.83416,0.17261,0.0941393,0.0615817,0.142198,-0.0410974,-0.010905
-0.105484,-0.0641568,2.83667,0.0950811,0.23447,0.167792,0.109467,-0.0544386,0.0324654
-0.0978155,-0.0619582,2.84108,0.169032,0.502934,0.224229,0.026122,-0.0395796,0.048776
