attitude_roll,attitude_pitch,attitude_yaw,rotationRate_x,rotationRate_y,rotationRate_z,acceleration_x,acceleration_y,acceleration_z
0.00609995,0.253209,-0.000776436,-0.26614,-0.175425,0.445023,0.0198209,0.0248495,-0.113707
-0.000881183,0.250141,0.00913911,-0.0226744,-0.24802,0.52218,0.0133049,0.0483825,-0.13592
-0.0081805,0.252944,0.0202173,0.312379,-0.191801,0.52582,-0.0140068,0.0582233,-0.104774
-0.0136193,0.261804,0.0299359,0.548734,-0.102426,0.394277,-0.0262282,0.0680127,-0.0485541
-0.0166693,0.272935,0.0368921,0.536169,-0.0243014,0.266616,-0.0235908,0.0662664,0.0271506
-0.0179511,0.282145,0.0416282,0.388564,0.0321095,0.176345,-0.00456443,0.0702254,0.0872741
-0.0176881,0.288501,0.0445731,0.260959,0.052516,0.0950755,0.0193671,0.0777127,0.125193
-0.0176028,0.293006,0.0459355,0.201856,-0.0121787,0.0354459,0.0471862,0.0846229,0.13106
-0.0195677,0.296767,0.046505,0.179424,-0.177511,0.0153718,0.0749245,0.0878401,0.115161
-0.0242858,0.300294,0.0467373,0.174603,-0.268628,-0.00594514,0.0908694,0.0855961,0.0861629
-0.0298068,0.303458,0.0461371,0.133699,-0.290666,-0.0608503,0.0983107,0.0855649,0.0511141
-0.0347762,0.305541,0.0448364,0.0728238,-0.234305,-0.0599126,0.118074,0.0784432,0.0255564
-0.0384394,0.306504,0.0441015,0.0239491,-0.149308,-0.0130727,0.121218,0.0750885,-0.0076524
-0.0406569,0.306471,0.0442923,-0.0277329,-0.082427,0.0237034,0.0963079,0.0729359,-0.0329792
-0.0423335,0.305267,0.0443714,-0.0920728,-0.0982636,-0.0228922,0.0615587,0.0554613,-0.0661154
-0.0443346,0.302844,0.043033,-0.143326,-0.151235,-0.0843981,0.0542508,0.0258364,-0.095045
-0.046374,0.299845,0.0408119,-0.151188,-0.0836339,-0.114552,0.0544667,0.00786588,-0.106817
-0.04411,0.296342,0.03742,-0.234927,0.168486,-0.195336,0.0538466,-0.00668243,-0.0750215
-0.0391357,0.289456,0.0323433,-0.469757,0.149871,-0.250959,0.0407634,-0.0165713,-0.0807409
-0.0354838,0.278301,0.0263434,-0.639326,0.0283541,-0.281487,0.027428,-0.0389979,-0.0974314
-0.0347186,0.265519,0.0197145,-0.636994,-0.119135,-0.309658,0.0233481,-0.0700029,-0.140453
-0.0358496,0.25423,0.0130098,-0.49676,-0.144352,-0.286797,0.0195684,-0.100581,-0.168308
-0.0366762,0.246803,0.00754623,-0.254409,-0.0683808,-0.217093,0.0140572,-0.134876,-0.174371
-0.0360995,0.24439,0.00329779,-0.0107739,0.0199003,-0.199584,-0.0116727,-0.156412,-0.152539
-0.0338718,0.245778,-0.00122137,0.119938,0.0781581,-0.253127,-0.0347641,-0.157629,-0.111861
-0.03117,0.248792,-0.00705736,0.146666,0.0386366,-0.327862,-0.0496743,-0.143705,-0.0834147
-0.0292273,0.251623,-0.0144651,0.1128,-0.0216137,-0.389128,-0.0671103,-0.0973833,-0.071058
-0.0277383,0.253957,-0.0223122,0.114921,-0.0109403,-0.359827,-0.0826672,-0.0331883,-0.0796113
-0.025381,0.257392,-0.0287548,0.225796,0.0941909,-0.270452,-0.100961,0.0348173,-0.0916344
-0.0215623,0.263512,-0.033542,0.366659,0.143259,-0.223392,-0.133038,0.0914819,-0.0817862
-0.0181228,0.271513,-0.0383276,0.404075,0.0566324,-0.257517,-0.1555,0.127457,-0.05054
-0.0165931,0.279072,-0.0437555,0.328763,-0.0396353,-0.271512,-0.15446,0.158078,-0.00604492
-0.016114,0.284601,-0.0488806,0.220696,-0.034898,-0.221404,-0.140007,0.187314,0.0340664
-0.0147003,0.288407,-0.0527569,0.172793,0.0792715,-0.160142,-0.140708,0.199511,0.0703499
-0.011355,0.291842,-0.0555924,0.168007,0.157707,-0.11909,-0.138784,0.192029,0.118695
-0.00753565,0.295197,-0.0576477,0.166444,0.162944,-0.0874256,-0.130303,0.166325,0.16677
-0.00372537,0.298682,-0.0595667,0.181303,0.15641,-0.106922,-0.121638,0.145122,0.210571
-0.000117425,0.302581,-0.0621085,0.210048,0.123661,-0.13179,-0.0996041,0.129558,0.248501
0.00263604,0.306654,-0.0649319,0.181035,0.0582852,-0.136089,-0.0711013,0.115286,0.293754
0.00368738,0.309086,-0.0678825,0.0469839,-0.038274,-0.14526,-0.047168,0.095478,0.318862
0.00322509,0.308021,-0.0712271,-0.159721,-0.104109,-0.177028,-0.03472,0.0640678,0.324406
0.00208068,0.302627,-0.0757102,-0.372697,-0.123612,-0.257707,-0.0188623,0.0201972,0.290187
0.00187169,0.293412,-0.0819772,-0.544939,-0.0771523,-0.338887,-0.00118134,-0.0127663,0.249757
0.00317502,0.281107,-0.0896456,-0.677655,-0.00529886,-0.391303,0.0191817,-0.0277714,0.197148
0.00591326,0.266892,-0.0976182,-0.727598,0.0548484,-0.363871,0.0622893,-0.0549447,0.142374
0.00926533,0.252658,-0.103986,-0.674901,0.121817,-0.256296,0.0884258,-0.0851049,0.0806977
0.0133245,0.240427,-0.107842,-0.532116,0.184621,-0.136272,0.0879808,-0.105404,0.0294388
0.0173676,0.231371,-0.109599,-0.369591,0.158539,-0.0513346,0.0839719,-0.125882,-0.00521785
0.0193044,0.225289,-0.109765,-0.248243,0.00483548,0.0156945,0.0770403,-0.148636,-0.0433201
0.0174054,0.220763,-0.109314,-0.218161,-0.176239,0.011381,0.0626382,-0.161412,-0.0822175
0.0132216,0.21599,-0.109419,-0.274337,-0.220421,-0.0316023,0.0582987,-0.165111,-0.122457
0.0105239,0.209489,-0.110664,-0.374862,-0.0298052,-0.101687,0.0513214,-0.166766,-0.173894
0.0137548,0.201202,-0.113589,-0.45559,0.27098,-0.195593,0.0581783,-0.175428,-0.219637
0.0137548,0.201202,-0.113589,-0.45559,0.27098,-0.195593,0.0581783,-0.175428,-0.219637
0.0210364,0.190749,-0.118407,-0.593641,0.324204,-0.29707,0.0716166,-0.173001,-0.266127
0.0277799,0.176985,-0.124994,-0.758962,0.231929,-0.377506,0.106798,-0.170464,-0.317026
0.033228,0.161003,-0.131909,-0.791165,0.201128,-0.322591,0.169005,-0.177292,-0.375279
0.0380712,0.146877,-0.135828,-0.552366,0.248785,-0.080868,0.226218,-0.169949,-0.439615
0.0452611,0.140806,-0.133604,-0.0338383,0.518814,0.278418,0.23807,-0.155268,-0.429551
0.0565046,0.145693,-0.125326,0.446917,0.676353,0.539839,0.208879,-0.143137,-0.334134
0.0675226,0.157998,-0.113608,0.677197,0.592631,0.683244,0.186436,-0.176292,-0.205121
0.0760327,0.17332,-0.0998227,0.737094,0.474215,0.7764,0.153664,-0.172304,-0.0788175
0.0806879,0.189507,-0.0844592,0.771728,0.270478,0.86671,0.129995,-0.142329,-0.0154369
0.0815526,0.20744,-0.0670204,0.877876,0.180041,0.977898,0.119427,-0.111245,0.0276011
0.0811845,0.22722,-0.0482538,0.923068,0.213557,0.992858,0.101943,-0.0567892,0.0710326
0.0824225,0.246181,-0.0296446,0.785399,0.340032,0.968863,0.0905173,-0.015621,0.12267
0.0841842,0.260775,-0.0106017,0.513671,0.273089,0.9958,0.0841023,0.0172133,0.127854
0.0823759,0.270629,0.00970604,0.332241,0.0569217,1.03901,0.0856596,0.0386544,0.0746694
0.0746461,0.278308,0.0313784,0.278833,-0.257713,1.09647,0.0505462,0.0855811,-0.0159331
0.0605605,0.285084,0.0536611,0.251318,-0.503743,1.06408,-0.00678059,0.129871,-0.110999
0.0442371,0.291224,0.0741011,0.27086,-0.499696,0.913594,-0.043856,0.149216,-0.190322
0.0319813,0.298068,0.091105,0.367961,-0.191528,0.747553,-0.0488917,0.184101,-0.219724
0.0285988,0.307376,0.105732,0.521072,0.290163,0.69372,-0.0416895,0.232201,-0.188143
0.0334486,0.319665,0.120481,0.657009,0.596637,0.753164,-0.0265145,0.264291,-0.108151
0.0409258,0.334086,0.136345,0.711812,0.620539,0.787927,-0.0282915,0.271814,-0.00171351
0.0466484,0.348704,0.152048,0.667724,0.461957,0.747894,-0.0467242,0.274129,0.0874453
0.0487446,0.361676,0.166494,0.55149,0.254326,0.66534,-0.0592144,0.273902,0.143697
0.0473889,0.371823,0.179585,0.406388,0.0885535,0.610139,-0.0623531,0.265887,0.16173
0.0441691,0.379298,0.1916,0.296362,0.0465759,0.529162,-0.0848549,0.271559,0.150904
0.0421175,0.384894,0.201367,0.230561,0.11569,0.397983,-0.0999987,0.267856,0.123404
0.042562,0.389562,0.208331,0.210734,0.18831,0.257114,-0.103326,0.243705,0.0904518
0.0455391,0.39377,0.211781,0.189226,0.254214,0.0720029,-0.098619,0.22045,0.0775715
0.0517472,0.396498,0.211221,0.0651604,0.350188,-0.103141,-0.0747957,0.196447,0.0869865
0.0610235,0.395719,0.207856,-0.123313,0.446552,-0.201475,-0.0517256,0.166646,0.0818602
0.0720431,0.391686,0.203129,-0.237118,0.450333,-0.255298,-0.0339366,0.136966,0.0517976
0.0822267,0.386248,0.197768,-0.256978,0.350262,-0.267372,-0.0200376,0.113684,0.000805438
0.0892427,0.38109,0.192985,-0.210655,0.167705,-0.210769,-0.0333531,0.0801691,-0.0569252
0.0920901,0.377398,0.189577,-0.128314,-0.0121688,-0.1336,-0.0442287,0.0361207,-0.0900138
0.091779,0.375585,0.187632,-0.027133,-0.0406205,-0.080188,-0.0731461,-0.0207869,-0.107817
0.093182,0.375697,0.184981,0.0375352,0.0839992,-0.189769,-0.124887,-0.0519477,-0.0741042
0.0974596,0.374918,0.17865,-0.0808186,0.074189,-0.419036,-0.183076,-0.0472867,-0.0175273
0.10148,0.369836,0.167081,-0.333731,-0.131809,-0.70837,-0.194386,-0.0906403,0.0109792
0.102097,0.35829,0.149922,-0.64894,-0.390947,-1.00653,-0.178028,-0.130208,-0.0135539
0.101494,0.34067,0.127837,-0.873526,-0.384744,-1.218,-0.157173,-0.129016,-0.0575128
0.103939,0.319746,0.103124,-0.93838,-0.149434,-1.30445,-0.139936,-0.0911462,-0.130378
0.111171,0.299345,0.0780573,-0.805878,0.0978812,-1.27272,-0.113012,-0.0873535,-0.196044
0.121388,0.283127,0.0544517,-0.523381,0.2167,-1.15411,-0.1069,-0.0780162,-0.21822
0.130888,0.273518,0.0329353,-0.157573,0.108927,-1.01858,-0.119773,-0.0662288,-0.213881
0.135668,0.271879,0.0133381,0.246571,-0.174418,-0.876237,-0.14066,-0.0438665,-0.18276
0.134599,0.27813,-0.00467215,0.583563,-0.381462,-0.767809,-0.168526,-0.0059447,-0.126396
0.131708,0.289379,-0.021951,0.720845,-0.358689,-0.74175,-0.205747,0.0301234,-0.0408922
0.131247,0.301548,-0.0398899,0.688208,-0.200717,-0.811346,-0.241238,0.0649434,0.0417123
0.134237,0.311646,-0.0595411,0.54286,-0.12177,-0.91467,-0.268516,0.0981605,0.0944665
0.137382,0.317532,-0.0809606,0.304903,-0.259048,-1.02006,-0.283134,0.128767,0.107943
0.136502,0.317882,-0.103475,0.0276716,-0.531286,-1.08089,-0.275944,0.141779,0.0813528
0.136502,0.317882,-0.103475,0.0276716,-0.531286,-1.08089,-0.275944,0.141779,0.0813528
0.130806,0.313568,-0.125619,-0.159579,-0.700738,-1.05644,-0.279286,0.161284,0.0216343
0.122927,0.306906,-0.146658,-0.231928,-0.715007,-1.0169,-0.289999,0.17615,-0.0503349
0.11526,0.299952,-0.167031,-0.211685,-0.646224,-0.999925,-0.292777,0.15665,-0.10415
0.109182,0.294732,-0.187276,-0.0743944,-0.554264,-0.979004,-0.277912,0.128359,-0.123067
0.104694,0.293061,-0.207386,0.116812,-0.480632,-0.952082,-0.255077,0.100041,-0.108104
0.101528,0.295248,-0.227484,0.281722,-0.430047,-0.949169,-0.238127,0.0725783,-0.0466251
0.0987001,0.299522,-0.248307,0.322015,-0.473535,-0.995747,-0.209509,0.0415999,0.0293949
0.095309,0.303494,-0.270371,0.267575,-0.520807,-1.06497,-0.173595,0.00538364,0.100602
0.091406,0.305802,-0.293975,0.166524,-0.569265,-1.16127,-0.128685,-0.022001,0.133753
0.0879674,0.305839,-0.319426,0.0617844,-0.52294,-1.25356,-0.0799166,-0.0414209,0.146899
0.0868294,0.304059,-0.346812,-0.00618889,-0.418687,-1.36392,-0.045221,-0.0445074,0.127872
0.0878668,0.300898,-0.376214,-0.06787,-0.361602,-1.45198,0.00140926,-0.0469754,0.0908211
0.0898923,0.296346,-0.406359,-0.127235,-0.300136,-1.43763,0.0592682,-0.0476028,0.0406374
0.0941405,0.291086,-0.435249,-0.129411,-0.089626,-1.35626,0.0885265,-0.0332128,-0.00675815
0.102271,0.28658,-0.462143,-0.0516305,0.121809,-1.25447,0.0968647,-0.0253708,-0.0479779
0.112268,0.284135,-0.487181,0.0546394,0.120543,-1.16377,0.0942415,-0.0320199,-0.0611991
0.118382,0.282579,-0.510755,0.0240441,-0.209902,-1.12009,0.0475124,-0.00238624,-0.0729474
0.116298,0.278793,-0.534362,-0.131175,-0.614104,-1.18444,-0.00449984,0.0318182,-0.129487
0.109775,0.272725,-0.558773,-0.180757,-0.637292,-1.20257,0.00336576,0.0463346,-0.196153
0.106574,0.268287,-0.582469,0.0295857,-0.262991,-1.08966,0.0162536,0.0828597,-0.231613
0.112024,0.270645,-0.603107,0.435381,0.250702,-0.854803,0.00380588,0.123722,-0.192359
0.124627,0.281042,-0.620111,0.757749,0.478894,-0.665463,-0.0126776,0.141507,-0.0842822
0.137097,0.295934,-0.634894,0.872879,0.308845,-0.550362,-0.00146987,0.10331,0.0218194
0.14351,0.311348,-0.647995,0.803747,-0.0991687,-0.479061,-0.00810517,0.0960146,0.07887
0.140138,0.324424,-0.659556,0.630194,-0.583827,-0.440669,-0.0333486,0.106345,0.0685782
0.128712,0.333373,-0.670919,0.391026,-0.890445,-0.526584,-0.0973799,0.144264,0.0206541
0.114168,0.336637,-0.685012,0.0816217,-1.00402,-0.775457,-0.165982,0.178322,-0.0372035
0.100354,0.33264,-0.704354,-0.286553,-0.99254,-1.07782,-0.177259,0.181139,-0.0912034
0.0896918,0.321535,-0.728576,-0.573199,-0.829544,-1.28877,-0.155645,0.167692,-0.160073
0.0836258,0.307146,-0.755175,-0.590206,-0.588798,-1.32411,-0.117247,0.161226,-0.223394
0.0823242,0.295953,-0.780884,-0.2756,-0.302874,-1.20333,-0.0990724,0.151149,-0.240318
0.0851071,0.293332,-0.804518,0.203922,-0.133973,-1.08518,-0.0952895,0.135045,-0.181708
0.0886762,0.299487,-0.827652,0.562867,-0.227638,-1.08612,-0.100563,0.105287,-0.0561399
0.0888848,0.310179,-0.852391,0.678367,-0.502743,-1.17505,-0.0992107,0.091316,0.0609465
0.0844826,0.321007,-0.879779,0.598829,-0.788527,-1.34093,-0.0883573,0.0904402,0.147285
0.0764742,0.328718,-0.911427,0.400834,-1.00737,-1.59463,-0.0729041,0.0960695,0.177822
0.0671189,0.33188,-0.948471,0.16595,-1.11907,-1.87585,-0.0431298,0.118485,0.162312
0.0579935,0.330566,-0.990913,-0.0391097,-1.1783,-2.13335,-0.010786,0.165139,0.0989624
0.0490663,0.325859,-1.0381,-0.178256,-1.24594,-2.34647,0.0379308,0.206215,0.00128973
0.0387657,0.319345,-1.08906,-0.251464,-1.41308,-2.49666,0.111763,0.243953,-0.122042
0.0260355,0.312671,-1.14163,-0.233305,-1.44157,-2.49513,0.185679,0.296599,-0.240579
0.0156438,0.30823,-1.19252,-0.101493,-1.10283,-2.34343,0.213381,0.369611,-0.295093
0.0127068,0.307219,-1.23975,0.0498589,-0.624034,-2.16138,0.212193,0.410319,-0.280419
0.0176307,0.308014,-1.28396,0.0626135,-0.241887,-2.06473,0.206528,0.407353,-0.196686
0.028265,0.307162,-1.32677,-0.0704369,-0.0154909,-2.01332,0.216805,0.344759,-0.0730642
0.0416138,0.30287,-1.36791,-0.216487,0.0881275,-1.91392,0.228328,0.266324,0.0237723
0.0542783,0.29575,-1.40613,-0.309525,0.0259576,-1.76278,0.237136,0.194778,0.0727746
0.0626266,0.286929,-1.44058,-0.382174,-0.211078,-1.59205,0.233125,0.117786,0.0895616
0.0638056,0.276332,-1.47188,-0.48235,-0.523461,-1.47793,0.206082,0.0539714,0.0615913
0.0596775,0.264294,-1.50073,-0.539521,-0.635221,-1.36603,0.169373,0.0160189,0.0270507
0.0543418,0.252391,-1.52703,-0.483812,-0.545212,-1.23846,0.119708,0.0139865,-0.0313259
0.0543418,0.252391,-1.52703,-0.483812,-0.545212,-1.23846,0.119708,0.0139865,-0.0313259
0.0510783,0.243445,-1.5511,-0.25772,-0.369243,-1.1473,0.0750832,-0.0101272,-0.0861266
0.0497841,0.240467,-1.57411,0.0706124,-0.343426,-1.10854,0.0379262,-0.0283084,-0.11245
0.0478256,0.243458,-1.59706,0.30949,-0.41774,-1.11097,0.00951068,-0.0429971,-0.0848751
0.0440313,0.249691,-1.62054,0.391509,-0.531937,-1.14047,-0.0171546,-0.0401728,-0.0472701
0.0385573,0.256486,-1.64526,0.379555,-0.634222,-1.23114,-0.0479984,-0.0188389,-0.0293117
0.0318887,0.262981,-1.67252,0.367405,-0.72639,-1.38556,-0.0723978,0.011059,-0.0427147
0.0254683,0.269835,-1.70316,0.404441,-0.697918,-1.54846,-0.0723804,0.0493785,-0.0602707
0.0221763,0.277527,-1.73676,0.432663,-0.527088,-1.65102,-0.0525455,0.103705,-0.0456111
0.0235763,0.285274,-1.77138,0.411816,-0.29669,-1.64191,-0.0140765,0.136706,-0.00459498
0.0290039,0.292168,-1.8053,0.353108,-0.146022,-1.5978,0.00454722,0.155567,0.0435074
0.0359162,0.296967,-1.83848,0.220891,-0.162923,-1.55716,0.0202592,0.147373,0.0894772
0.0400072,0.298507,-1.87052,0.0469749,-0.384924,-1.4969,0.0371201,0.120082,0.102259
0.0389088,0.296615,-1.9015,-0.114817,-0.635509,-1.48071,0.0472418,0.102068,0.0957291
0.0333279,0.291957,-1.93254,-0.236736,-0.790035,-1.51058,0.0606635,0.0794534,0.0691805
0.0268316,0.285289,-1.96417,-0.341171,-0.719923,-1.53866,0.0924811,0.0540176,0.0515812
0.0237055,0.276265,-1.99629,-0.493593,-0.472975,-1.56743,0.120567,0.0395942,0.0556676
0.0253037,0.264131,-2.02842,-0.635933,-0.241176,-1.54612,0.164206,0.0108876,0.0600424
0.0294265,0.249933,-2.05908,-0.685513,-0.145983,-1.44956,0.212001,-0.0313932,0.0469702
0.0334863,0.23595,-2.08721,-0.615463,-0.138106,-1.32608,0.237086,-0.0700512,0.0324014
0.0362949,0.223716,-2.11319,-0.51909,-0.1757,-1.24878,0.247912,-0.104653,0.0270042
0.0373976,0.212905,-2.13769,-0.485716,-0.248926,-1.18661,0.261582,-0.143955,0.02581
0.0364695,0.202053,-2.16089,-0.517866,-0.323705,-1.117,0.28209,-0.173403,0.00682199
0.0335501,0.190721,-2.18219,-0.538842,-0.38184,-1.01356,0.290795,-0.187676,-0.0398182
0.0285026,0.179224,-2.20144,-0.551199,-0.475607,-0.915241,0.274692,-0.188525,-0.123336
0.0219004,0.167695,-2.21873,-0.548426,-0.465247,-0.812012,0.257934,-0.202032,-0.206083
0.0164996,0.157251,-2.23367,-0.44434,-0.296093,-0.665822,0.238664,-0.202268,-0.276923
0.0151887,0.150599,-2.2449,-0.182814,0.0105009,-0.443716,0.208739,-0.189264,-0.312458
0.0194573,0.15013,-2.25145,0.141885,0.301205,-0.213189,0.173863,-0.184372,-0.287787
0.0276761,0.155547,-2.25382,0.381858,0.456117,-0.0126326,0.137838,-0.202502,-0.202835
0.0367886,0.164538,-2.25273,0.498101,0.460476,0.134725,0.080965,-0.206488,-0.101545
0.0448603,0.175312,-2.24963,0.565416,0.379357,0.199827,0.0223704,-0.20327,-0.0211098
0.0503745,0.187386,-2.24615,0.627514,0.238052,0.188539,-0.0102414,-0.212971,0.0230574
0.0533578,0.2005,-2.24382,0.655919,0.105113,0.0920077,-0.0419186,-0.198241,0.0684925
0.0545892,0.213061,-2.24411,0.584059,0.0194588,-0.0563734,-0.0519093,-0.178989,0.105983
0.0552014,0.223151,-2.24757,0.436598,-0.0183474,-0.225622,-0.0388975,-0.158213,0.125651
0.0567122,0.229839,-2.25402,0.266519,0.029968,-0.355575,-0.0227815,-0.116936,0.124207
0.059379,0.233258,-2.26205,0.134713,0.040792,-0.387911,0.00418321,-0.0767585,0.0905275
0.061871,0.235275,-2.26978,0.136364,0.0267895,-0.341942,0.0258705,-0.0470869,0.0321283
0.063927,0.238502,-2.27629,0.226248,0.0219993,-0.271135,0.0310035,-0.00815307,-0.0100586
0.0658619,0.243549,-2.28125,0.303217,0.0681939,-0.168686,0.0428632,0.00547685,-0.0251157
0.0685967,0.249625,-2.2838,0.309392,0.149541,-0.0330898,0.0393708,0.0176709,-0.0135137
0.0724593,0.255451,-2.28357,0.271295,0.240526,0.0865021,0.0121372,0.0195429,0.00363052
0.0774052,0.261009,-2.2815,0.273679,0.296128,0.142467,-0.0254688,0.0114883,0.0140644
0.0826129,0.266868,-2.279,0.284315,0.280567,0.138772,-0.0641561,0.0141232,0.034722
0.0870226,0.272439,-2.27671,0.243792,0.211084,0.125551,-0.0950293,0.0140766,0.0580752
0.090179,0.27674,-2.27487,0.167569,0.160449,0.0848393,-0.123389,0.0202761,0.0722393
0.0925637,0.279399,-2.27399,0.090838,0.1064,0.0201684,-0.139461,0.0186366,0.0788563
0.0947228,0.280732,-2.27452,0.0495937,0.0938772,-0.0597249,-0.143735,0.0166828,0.0863064
0.0971852,0.281259,-2.2766,0.0274124,0.104517,-0.133503,-0.130543,0.0203024,0.0959896
0.100302,0.281483,-2.27986,0.0258492,0.10396,-0.171191,-0.0985887,0.0222573,0.115072
0.103086,0.281732,-2.28343,0.035563,0.0778323,-0.15836,-0.0616919,0.0190784,0.131639
0.104978,0.282077,-2.28661,0.023485,0.0249743,-0.145693,-0.0353522,0.017548,0.149314
0.104978,0.282077,-2.28661,0.023485,0.0249743,-0.145693,-0.0353522,0.017548,0.149314
0.105901,0.281779,-2.28964,-0.038752,-0.0149497,-0.15091,-0.00578522,0.00470388,0.166607
0.105766,0.279285,-2.29295,-0.192658,-0.0920365,-0.190031,0.0120618,-0.00732154,0.17103
0.103841,0.27289,-2.29655,-0.409988,-0.200212,-0.218018,0.0347943,-0.017655,0.152587
0.100242,0.262309,-2.29991,-0.600236,-0.23783,-0.204209,0.0622233,-0.0251278,0.116448
0.0965548,0.248779,-2.30255,-0.706302,-0.184071,-0.180048,0.0834125,-0.0305886,0.0535818
0.0942911,0.234118,-2.30454,-0.722811,-0.103775,-0.147025,0.110276,-0.0400179,-0.00070256
0.0927559,0.219786,-2.30542,-0.68679,-0.0673215,-0.0642723,0.144423,-0.0570493,-0.0484843
0.0915134,0.20679,-2.3043,-0.614465,-0.0277578,0.0667736,0.178521,-0.0712921,-0.0775395
0.0905605,0.195671,-2.30005,-0.529129,0.0112414,0.255897,0.197223,-0.0844911,-0.100434
0.0892441,0.186873,-2.29191,-0.408948,0.015466,0.453785,0.18446,-0.0929604,-0.126911
0.0869906,0.181307,-2.28063,-0.236895,-0.0450157,0.593895,0.163719,-0.106626,-0.146026
0.0832641,0.179341,-2.26748,-0.0755351,-0.0835033,0.669656,0.128524,-0.108683,-0.151802
0.0792792,0.179755,-2.25363,-0.0111854,-0.0594717,0.684935,0.0894382,-0.108718,-0.144645
0.0763304,0.180631,-2.23979,-0.0147197,0.0172444,0.671519,0.059399,-0.112998,-0.142928
0.0750108,0.18131,-2.22644,-0.0134311,0.0792968,0.640242,0.030948,-0.103236,-0.152092
0.0742923,0.18242,-2.21386,0.042276,0.0753561,0.601378,0.000142969,-0.0886555,-0.17322
0.0734416,0.185296,-2.20224,0.167939,0.0503153,0.560211,-0.0247257,-0.0687836,-0.184502
0.0720952,0.191098,-2.19156,0.33517,0.0135038,0.535943,-0.0335358,-0.0430187,-0.17058
0.0704028,0.200044,-2.18105,0.473265,0.030373,0.559156,-0.0393245,-0.0211212,-0.125535
0.069311,0.21091,-2.17025,0.515867,0.08643,0.562041,-0.0554833,0.00327942,-0.0602583
0.0695193,0.221436,-2.15999,0.448583,0.147484,0.509347,-0.0739623,0.011608,0.00111955
0.0706213,0.229945,-2.15059,0.335984,0.1687,0.465664,-0.0841625,0.0156896,0.0325006
0.0716001,0.236484,-2.14193,0.272465,0.118202,0.4212,-0.0928785,0.0329,0.03442
0.0711584,0.242437,-2.13434,0.27336,0.00936968,0.350101,-0.0963935,0.0362272,0.0334999
0.0682589,0.248243,-2.1284,0.25694,-0.159103,0.26773,-0.0918872,0.0399971,0.0340134
0.0619099,0.252847,-2.12385,0.164061,-0.354119,0.204779,-0.0869265,0.0445336,0.0245159
0.0528694,0.255378,-2.12031,0.0785283,-0.442575,0.145098,-0.0892626,0.045412,-0.0134441
0.044041,0.256986,-2.11853,0.0872481,-0.373102,0.0261837,-0.101922,0.0579842,-0.0628148
0.0381691,0.259371,-2.11954,0.164509,-0.239322,-0.113299,-0.0926695,0.0666994,-0.0830417
0.0356618,0.263661,-2.12315,0.280212,-0.109536,-0.21201,-0.0732405,0.0694547,-0.0623779
0.0355911,0.270208,-2.12839,0.37984,-0.0538487,-0.272137,-0.0389311,0.0642647,1.60933e-05
0.0360799,0.277753,-2.13495,0.378363,-0.0828402,-0.336501,-0.0111147,0.0574441,0.083973
0.0359163,0.284311,-2.14315,0.293661,-0.161487,-0.431069,0.0230891,0.0424893,0.15107
0.0351432,0.288433,-2.15352,0.15332,-0.201041,-0.554135,0.0527108,0.0407676,0.195571
0.0350617,0.289445,-2.16638,-0.0124109,-0.174129,-0.668588,0.0954015,0.0411122,0.225254
0.0357884,0.286892,-2.18099,-0.193649,-0.165858,-0.725675,0.152739,0.031264,0.231127
0.036926,0.280878,-2.1959,-0.347435,-0.13453,-0.712052,0.202566,0.0278248,0.213163
0.0378692,0.272008,-2.20958,-0.481153,-0.146921,-0.634899,0.231522,0.0274556,0.174594
0.0378213,0.261322,-2.22154,-0.528174,-0.181515,-0.570161,0.244447,0.00826603,0.122814
0.0366948,0.250492,-2.23269,-0.509892,-0.206299,-0.552303,0.249844,4.75943e-05,0.076491
0.0349054,0.239879,-2.24346,-0.524658,-0.235923,-0.52275,0.252753,-0.00110787,0.0427507
0.032328,0.228531,-2.25309,-0.576407,-0.241409,-0.447064,0.251858,-0.00460857,0.00281876
0.0296467,0.216552,-2.26105,-0.58538,-0.196829,-0.369736,0.228496,-0.00350465,-0.051724
0.027948,0.20505,-2.26762,-0.530586,-0.103998,-0.301489,0.204865,-0.00936645,-0.0960537
0.0280839,0.195499,-2.27253,-0.403661,0.0125837,-0.203865,0.174557,-0.0257448,-0.120922
0.0299312,0.188933,-2.27543,-0.240005,0.112345,-0.111703,0.11677,-0.0339145,-0.117814
0.0328944,0.185595,-2.2772,-0.0919446,0.139051,-0.0834504,0.0591986,-0.0515836,-0.0880632
0.0356981,0.184911,-2.27893,0.0231719,0.0992242,-0.0935904,0.00504855,-0.0722293,-0.0384713
0.0372857,0.186116,-2.28142,0.101473,0.00503431,-0.15166,-0.0393646,-0.0885165,0.00826198
0.0369305,0.188406,-2.28551,0.131368,-0.108962,-0.247997,-0.0674577,-0.103722,0.037222
0.0351449,0.19024,-2.29202,0.0581987,-0.189442,-0.384439,-0.083225,-0.117348,0.0541675
0.0351449,0.19024,-2.29202,0.0581987,-0.189442,-0.384439,-0.083225,-0.117348,0.0541675
0.0323773,0.189826,-2.30104,-0.0678918,-0.256295,-0.49614,-0.0916046,-0.125551,0.0371101
0.0284403,0.187392,-2.31211,-0.121035,-0.339971,-0.59646,-0.0913236,-0.134443,-0.0175223
0.0241307,0.184951,-2.3252,-0.0801348,-0.314768,-0.702835,-0.0979356,-0.131928,-0.0631325
0.0206802,0.183036,-2.34078,-0.106196,-0.339909,-0.838452,-0.101586,-0.128425,-0.0757524
0.0153686,0.178132,-2.3594,-0.387804,-0.54776,-1.00351,-0.0982089,-0.120538,-0.0867863
0.00734898,0.166381,-2.38153,-0.74788,-0.578981,-1.19447,-0.095077,-0.125599,-0.143536
0.00136487,0.149172,-2.40753,-0.92495,-0.419799,-1.37091,-0.061393,-0.124391,-0.239744
-0.000982498,0.131043,-2.43588,-0.850751,-0.202057,-1.39711,0.000577348,-0.124184,-0.337111
0.000149684,0.116786,-2.46181,-0.551587,-0.0148633,-1.14284,0.0710336,-0.127819,-0.384802
0.00316423,0.109728,-2.48169,-0.14626,0.0633502,-0.843606,0.0841198,-0.118794,-0.379646
0.00583785,0.1111,-2.49626,0.296725,0.039429,-0.616036,0.0676387,-0.120314,-0.333956
0.00729352,0.121797,-2.50673,0.779976,-0.0168574,-0.431906,0.0239648,-0.0984898,-0.263523
0.0072626,0.141588,-2.51467,1.16895,-0.103715,-0.362951,-0.0580627,-0.0289439,-0.152687
0.00471521,0.166631,-2.52268,1.2955,-0.293811,-0.443154,-0.13641,0.0409982,-0.0455085
-0.0017895,0.191644,-2.53392,1.1817,-0.555237,-0.672907,-0.186537,0.111463,0.0386977
-0.0112685,0.213125,-2.55003,0.949811,-0.676522,-0.906786,-0.201664,0.187483,0.0815454
-0.0198515,0.229979,-2.56988,0.717536,-0.591791,-1.04259,-0.20014,0.257422,0.0974265
-0.0236987,0.243306,-2.59218,0.583753,-0.310463,-1.15226,-0.205715,0.317329,0.117476
-0.0207825,0.254797,-2.61692,0.50808,-0.0057397,-1.27407,-0.207322,0.355595,0.16175
-0.011414,0.264046,-2.64434,0.365539,0.207604,-1.38317,-0.189284,0.366793,0.228295
0.000874857,0.269886,-2.67328,0.210637,0.23075,-1.39849,-0.141697,0.344839,0.281474
0.0124627,0.272696,-2.70176,0.0980721,0.158544,-1.33296,-0.0972222,0.322567,0.326133
0.0221125,0.273243,-2.72811,0.00278959,0.100166,-1.19856,-0.0694776,0.288929,0.364643
0.0299926,0.271615,-2.75188,-0.110005,0.0348911,-1.10394,-0.0615883,0.240013,0.396377
0.0350133,0.26732,-2.77432,-0.244694,-0.13812,-1.07342,-0.0360211,0.177233,0.393808
0.0361457,0.2604,-2.79593,-0.375137,-0.299091,-1.04153,-0.0243147,0.117681,0.371601
0.0343765,0.250564,-2.81714,-0.548594,-0.413737,-1.04951,-0.0120715,0.0670113,0.345444
0.0299729,0.236596,-2.83855,-0.777955,-0.542464,-1.0656,0.0190385,0.000477687,0.290003
0.023768,0.218804,-2.85994,-0.928006,-0.531478,-1.06677,0.0483646,-0.0551999,0.205939
0.0193146,0.199298,-2.88156,-0.964255,-0.344453,-1.094,0.0635579,-0.0834671,0.117566
0.0187741,0.179542,-2.90359,-0.967823,-0.134941,-1.09604,0.10131,-0.125742,0.0443753
0.0209972,0.159899,-2.92514,-0.944401,-0.0122363,-1.06247,0.137246,-0.172477,-0.0385785
0.0244207,0.141422,-2.94561,-0.845221,0.0214354,-0.998073,0.16006,-0.191782,-0.113779
0.0257192,0.125482,-2.96445,-0.694836,-0.173548,-0.896896,0.182356,-0.202515,-0.192608
0.0217944,0.11294,-2.98057,-0.520253,-0.375287,-0.728748,0.219267,-0.228654,-0.26178
0.0163148,0.103829,-2.99367,-0.373149,-0.260786,-0.60707,0.20231,-0.22169,-0.291956
0.0164724,0.0970107,-3.00528,-0.305639,0.167861,-0.577113,0.175027,-0.229268,-0.274978
0.0233632,0.0902059,-3.0175,-0.368984,0.36943,-0.664452,0.178562,-0.267796,-0.262867
0.0318073,0.0811683,-3.03143,-0.506305,0.30829,-0.741586,0.200191,-0.298682,-0.25607
0.0366627,0.0693226,-3.04578,-0.61121,0.0672211,-0.696451,0.231652,-0.280968,-0.313299
0.0373177,0.0571703,-3.05735,-0.52672,-0.0447013,-0.495288,0.255766,-0.258321,-0.390207
0.0375611,0.0489448,-3.06455,-0.244863,0.0622083,-0.24592,0.255004,-0.220545,-0.42808
0.0417467,0.0475176,-3.06683,0.0975341,0.367986,0.002802,0.227752,-0.188188,-0.407745
0.0508823,0.0514789,-3.06516,0.252622,0.501151,0.178246,0.210849,-0.17387,-0.338219
0.0597233,0.0574741,-3.05986,0.320037,0.398752,0.392418,0.205959,-0.184837,-0.283842
0.0657975,0.066318,-3.05,0.528506,0.280478,0.653156,0.181205,-0.136596,-0.25071
0.0697088,0.0813006,-3.03503,0.875887,0.233582,0.940371,0.13445,-0.0627098,-0.196611
0.0726368,0.103831,-3.01523,1.21334,0.233861,1.17113,0.0906902,-0.0149012,-0.0985386
0.0740032,0.131784,-2.99236,1.36999,0.15571,1.28304,0.0482112,0.0225465,0.0158528
0.0717531,0.160454,-2.96832,1.27772,-0.0380047,1.28048,0.00903282,0.0610725,0.0973772
0.0643165,0.184912,-2.94489,0.985115,-0.306084,1.1819,-0.00984697,0.0823583,0.131891
0.0519482,0.202454,-2.9231,0.647743,-0.48637,1.06009,-0.026374,0.112665,0.121687
0.0519482,0.202454,-2.9231,0.647743,-0.48637,1.06009,-0.026374,0.112665,0.121687
0.0374383,0.21342,-2.90322,0.379562,-0.526853,0.935782,-0.045171,0.170452,0.0706521
0.0237588,0.220089,-2.88557,0.270045,-0.440114,0.813414,-0.0404107,0.195626,0.000184596
0.0131445,0.226401,-2.87014,0.362512,-0.272757,0.707216,-0.0199651,0.211746,-0.0434107
0.00678614,0.235777,-2.85632,0.574691,-0.031673,0.662117,0.00739397,0.23807,-0.0393013
0.00500078,0.249371,-2.84247,0.755549,0.163518,0.701113,0.0218721,0.267928,0.0320441
0.00496212,0.26513,-2.82761,0.793,0.18812,0.740021,0.0159022,0.278484,0.123891
0.00408661,0.280513,-2.81211,0.727698,0.129766,0.756833,0.0150703,0.256509,0.213332
0.00133729,0.294057,-2.79645,0.618522,0.0456845,0.734989,-0.00897032,0.243451,0.259275
-0.00208079,0.305,-2.78223,0.463176,0.0316296,0.609166,-0.0359028,0.226089,0.300799
-0.00481802,0.312079,-2.77119,0.241166,0.0378603,0.438491,-0.0295334,0.184724,0.316463
-0.00621052,0.314293,-2.76364,-0.0167909,0.0346865,0.28195,-0.0178059,0.150208,0.319893
-0.00791375,0.311659,-2.75892,-0.233494,-0.067079,0.176688,0.00699838,0.121855,0.277648
-0.0113312,0.305666,-2.75594,-0.349438,-0.177624,0.11844,0.0261713,0.0929513,0.21297
-0.016231,0.298185,-2.75414,-0.392894,-0.251546,0.0592846,0.0299031,0.0799793,0.140865
-0.0216307,0.289965,-2.75402,-0.434668,-0.275816,-0.0370718,0.024495,0.0691833,0.0727452
-0.0260908,0.280486,-2.75627,-0.52854,-0.228064,-0.161499,0.0226727,0.050352,0.0215375
-0.0285841,0.268587,-2.76145,-0.681701,-0.158842,-0.303067,0.027464,0.0278209,-0.0318831
-0.0289418,0.253753,-2.76924,-0.812908,-0.0788176,-0.389291,0.036205,0.00895745,-0.101657
-0.0276796,0.237419,-2.7778,-0.812951,0.00703676,-0.376453,0.0530686,-0.0150343,-0.190915
-0.0239635,0.222986,-2.7853,-0.634339,0.186375,-0.31597,0.0665961,-0.0467101,-0.240157
-0.0191095,0.211992,-2.79166,-0.499885,0.13251,-0.28364,0.0447578,-0.0386002,-0.256345
-0.0159606,0.202306,-2.79778,-0.502982,0.0629982,-0.314016,0.00777617,-0.0465997,-0.231884
-0.0141316,0.191265,-2.8054,-0.62774,-0.0283861,-0.420215,0.00484027,-0.0896541,-0.229042
-0.0129563,0.177326,-2.81492,-0.764957,-0.000927521,-0.477177,0.0228541,-0.121484,-0.25406
-0.00984642,0.162015,-2.82422,-0.752845,0.15883,-0.412371,0.0331396,-0.126245,-0.289251
-0.00443491,0.14857,-2.83195,-0.573505,0.246223,-0.343467,0.0237647,-0.119615,-0.321344
0.00133654,0.139485,-2.8383,-0.330824,0.220335,-0.282809,0.00931182,-0.11707,-0.308984
0.00578259,0.135447,-2.84316,-0.0747661,0.167178,-0.19743,-0.00518028,-0.0961226,-0.255254
0.00970473,0.136436,-2.84607,0.179771,0.202813,-0.0847982,-0.0201124,-0.0674626,-0.177919
0.014851,0.142731,-2.84665,0.443193,0.294906,0.0322884,-0.0613914,-0.0202288,-0.0893185
0.0207419,0.153715,-2.8452,0.635824,0.304989,0.128364,-0.107425,0.0279735,0.0056814
0.0250969,0.167511,-2.84246,0.719168,0.147483,0.155077,-0.153603,0.0642968,0.0826619
0.0246561,0.181957,-2.84026,0.705978,-0.167922,0.0858872,-0.197922,0.117753,0.121834
0.0183326,0.195139,-2.84022,0.596269,-0.446715,-0.0637374,-0.229516,0.168924,0.140722
0.00904149,0.205322,-2.84351,0.417953,-0.515799,-0.246402,-0.24489,0.22967,0.156034
0.000940196,0.211675,-2.85038,0.21999,-0.413634,-0.412795,-0.219074,0.26126,0.158222
-0.002971,0.214082,-2.86012,0.020167,-0.177273,-0.530608,-0.193081,0.265323,0.158076
-0.00199268,0.212556,-2.87196,-0.166238,0.0144361,-0.618506,-0.161962,0.236792,0.144562
0.00192559,0.208113,-2.88525,-0.261421,0.070396,-0.676914,-0.112754,0.189966,0.137448
0.00582219,0.202621,-2.8993,-0.2765,0.0361905,-0.695214,-0.0602074,0.146657,0.132587
0.00932412,0.196662,-2.91335,-0.318587,0.0375008,-0.675974,-0.0126538,0.11396,0.141799
0.0130717,0.18923,-2.92633,-0.408472,0.0884376,-0.594637,0.0383552,0.065346,0.146479
0.0173656,0.180509,-2.93696,-0.427597,0.146626,-0.467485,0.0716168,0.0119435,0.128364
0.0217139,0.172382,-2.94522,-0.360603,0.113415,-0.373878,0.073977,-0.0246989,0.113517
0.0235439,0.165831,-2.95198,-0.28049,-0.0571347,-0.307847,0.0713857,-0.071012,0.0977941
0.0218411,0.16066,-2.95753,-0.230971,-0.188756,-0.256616,0.0748774,-0.116428,0.0882049
0.0186935,0.155892,-2.96215,-0.243419,-0.16813,-0.20236,0.0648931,-0.131909,0.0742182
0.0174343,0.150934,-2.96518,-0.245738,0.0168958,-0.103278,0.0547863,-0.152586,0.0659344
0.0201866,0.146496,-2.96628,-0.184635,0.247951,-0.0230627,0.0339097,-0.181908,0.0570345
0.0201866,0.146496,-2.96628,-0.184635,0.247951,-0.0230627,0.0339097,-0.181908,0.0570345
0.0275866,0.144181,-2.96656,-0.0350105,0.471545,-0.0230607,0.000153642,-0.206675,0.0660143
0.0378925,0.144858,-2.96756,0.0959638,0.488522,-0.0847395,-0.030666,-0.222347,0.0799568
0.046018,0.147035,-2.9703,0.113787,0.283574,-0.176199,-0.0208624,-0.236383,0.0769688
0.049974,0.148225,-2.97472,0.0168755,0.034515,-0.261988,0.00110113,-0.241126,0.0580362
0.0490365,0.147066,-2.98086,-0.101555,-0.213813,-0.342551,0.0177812,-0.227258,-0.0237941
0.0445863,0.143738,-2.98794,-0.187981,-0.294086,-0.362266,0.0364698,-0.196783,-0.14829
0.0411478,0.139386,-2.99497,-0.195422,-0.13943,-0.348387,0.0439033,-0.158551,-0.249962
0.0420694,0.136594,-3.00146,-0.0223486,0.196994,-0.302108,0.0513981,-0.14006,-0.340391
0.0527099,0.138699,-3.00751,0.245767,0.742467,-0.303269,0.0478113,-0.12766,-0.322579
0.0699258,0.144161,-3.01453,0.2947,0.817564,-0.346924,0.0683376,-0.109038,-0.258809
0.0848631,0.147998,-3.02129,0.119981,0.542918,-0.276087,0.119214,-0.134494,-0.188304
0.0929795,0.148171,-3.02566,-0.0373425,0.221961,-0.153657,0.143203,-0.12503,-0.19655
0.0960158,0.147551,-3.02728,0.034872,0.0799835,-0.00722793,0.135749,-0.0850094,-0.255
0.0968583,0.150876,-3.02623,0.306599,0.0423171,0.139837,0.122058,-0.0408881,-0.284045
0.0980458,0.160267,-3.02297,0.579609,0.146018,0.262174,0.111023,-0.0134532,-0.238946
0.101842,0.173914,-3.01802,0.707383,0.326549,0.360036,0.0922961,0.017384,-0.142503
0.109276,0.188986,-3.01139,0.706584,0.538997,0.441776,0.0769653,0.0405702,-0.0304076
0.120561,0.203385,-3.00344,0.627928,0.728324,0.492118,0.0486983,0.0521905,0.0634811
0.133975,0.216108,-2.99489,0.529885,0.752601,0.496672,0.0282088,0.046965,0.123321
0.145616,0.227156,-2.98625,0.450348,0.574774,0.483124,0.0233746,0.0318324,0.147166
0.152045,0.236429,-2.97827,0.34735,0.219988,0.419408,0.0335097,0.0294597,0.152676
0.150859,0.243002,-2.97118,0.189142,-0.155354,0.368116,0.0547662,0.0403917,0.136171
0.143943,0.246239,-2.96392,0.0365006,-0.330207,0.3806,0.0773261,0.0640705,0.0950143
0.135042,0.247036,-2.95585,-0.0577345,-0.351205,0.404337,0.0905856,0.0945526,0.0322704
0.125987,0.246364,-2.94703,-0.112626,-0.332706,0.443589,0.120191,0.10298,-0.0403987
0.117405,0.245506,-2.93653,-0.074184,-0.264883,0.569566,0.15043,0.105214,-0.100964
0.110341,0.247214,-2.92298,0.118122,-0.0844347,0.763756,0.155621,0.133162,-0.132353
0.107279,0.253998,-2.90573,0.376609,0.211617,0.968628,0.11972,0.164057,-0.0918481
0.108412,0.265733,-2.88513,0.555832,0.395691,1.12182,0.0735151,0.169675,-0.00421977
0.11032,0.280134,-2.86253,0.619646,0.38551,1.18281,0.0289002,0.142268,0.100409
0.110732,0.294781,-2.83963,0.573303,0.293761,1.14889,-0.0240281,0.132861,0.193483
0.108669,0.30716,-2.81812,0.426027,0.141885,1.01872,-0.053147,0.120178,0.237063
0.104178,0.315772,-2.79956,0.240438,-0.0329602,0.828233,-0.0514691,0.0893286,0.249313
0.0968051,0.320344,-2.78434,0.0785987,-0.213165,0.670103,-0.0170299,0.0717443,0.215084
0.0874462,0.321961,-2.77111,-0.0271568,-0.285444,0.604881,0.00611147,0.0928557,0.16777
0.078349,0.322061,-2.7583,-0.0505847,-0.184131,0.615247,0.0294998,0.102747,0.11459
0.0725058,0.321978,-2.74528,-0.0624959,0.0124856,0.61409,0.0422576,0.0925362,0.0840126
0.0703955,0.320972,-2.73236,-0.136976,0.171457,0.599393,0.0470549,0.0650927,0.0737914
0.070429,0.317745,-2.71996,-0.280093,0.18112,0.543202,0.0395055,0.0327316,0.0646375
0.0685736,0.311343,-2.70862,-0.418345,-0.0289841,0.494709,0.0456295,-0.00523233,0.0104464
0.0636291,0.303698,-2.69749,-0.382647,-0.0631624,0.529111,0.0785144,-0.0362917,-0.0481668
0.0618966,0.298466,-2.68494,-0.201061,0.265062,0.65466,0.0912836,-0.0490238,-0.062567
0.0642407,0.296471,-2.66944,-0.133381,0.373238,0.790502,0.0723932,-0.0695015,-0.0460571
0.0661722,0.29327,-2.65256,-0.31817,0.311251,0.775583,0.0207295,-0.0784844,-0.0244974
0.0673138,0.284059,-2.6376,-0.736782,0.191633,0.564066,-0.0367659,-0.105534,-0.0149044
0.0652163,0.264224,-2.62749,-1.29474,-0.13951,0.263739,-0.0726892,-0.150568,-0.110014
0.05859,0.234894,-2.62305,-1.59247,-0.397295,0.0139809,-0.0542629,-0.162997,-0.277772
0.0492651,0.204044,-2.6215,-1.41969,-0.431955,0.00794369,-0.0179044,-0.0850431,-0.469321
0.0492651,0.204044,-2.6215,-1.41969,-0.431955,0.00794369,-0.0179044,-0.0850431,-0.469321
0.0436399,0.181102,-2.6182,-0.841792,-0.0348905,0.24076,-0.0323229,0.0093987,-0.540164
0.0455685,0.171977,-2.60969,-0.0959492,0.338136,0.540659,-0.0867203,0.0469849,-0.530499
0.0510553,0.1779,-2.59775,0.613091,0.386681,0.619819,-0.154995,0.0514289,-0.434469
0.0563609,0.196109,-2.58759,1.10651,0.322528,0.446296,-0.259017,0.096939,-0.246769
0.0605978,0.220923,-2.58249,1.29904,0.203011,0.191024,-0.329887,0.175155,-0.0544614
0.0639035,0.246784,-2.58305,1.26227,0.103879,-0.0815602,-0.355367,0.24212,0.109096
0.0665038,0.270191,-2.58912,1.09194,0.00452071,-0.357486,-0.366702,0.294854,0.219097
0.0692084,0.288104,-2.60107,0.747702,-0.0587549,-0.66682,-0.381824,0.326997,0.277732
0.0728109,0.297647,-2.6193,0.32555,-0.115092,-1.01331,-0.401549,0.332227,0.278066
0.0773743,0.298627,-2.64454,-0.030244,-0.162701,-1.3835,-0.402123,0.337345,0.236848
0.0835105,0.292724,-2.67659,-0.293603,-0.149089,-1.69733,-0.362107,0.354067,0.193108
0.0905695,0.282191,-2.71252,-0.440144,-0.178096,-1.7852,-0.269699,0.327395,0.131972
0.0957423,0.269791,-2.74747,-0.459088,-0.260343,-1.66204,-0.19663,0.288624,0.0758371
0.0982751,0.258469,-2.77932,-0.358335,-0.329825,-1.51826,-0.170801,0.25171,0.0497487
0.0977869,0.249764,-2.80899,-0.229109,-0.470615,-1.44003,-0.155271,0.190778,0.0270249
0.0942754,0.243672,-2.83806,-0.104316,-0.564987,-1.42671,-0.138917,0.115551,-0.00282979
0.0904773,0.240241,-2.86726,0.00682907,-0.517624,-1.43508,-0.135489,0.0888429,0.00839984
0.0876443,0.237622,-2.89722,-0.0344164,-0.468451,-1.49312,-0.120381,0.0704145,0.0327299
0.086484,0.233032,-2.9284,-0.168784,-0.373427,-1.56912,-0.0762595,0.0057396,0.0611007
0.0868146,0.225397,-2.96086,-0.31616,-0.349776,-1.64687,-0.0430543,-0.0347917,0.0523029
0.0862092,0.215458,-2.99394,-0.368319,-0.438238,-1.62694,0.00150544,-0.0637477,-0.0077672
0.0832679,0.206884,-3.02489,-0.188015,-0.475747,-1.44913,0.0415419,-0.099398,-0.0936239
0.081369,0.204917,-3.05267,0.244424,-0.246934,-1.29057,0.0263783,-0.101126,-0.137305
0.0847904,0.212276,-3.0791,0.66798,0.00505312,-1.25025,-0.0132383,-0.0956346,-0.105853
0.0910407,0.224897,-3.10646,0.76774,-0.00246136,-1.3027,-0.00157405,-0.138627,-0.0315546
0.0967449,0.236132,-3.13513,0.578841,-0.08787,-1.37888,0.0135388,-0.16959,0.028098
0.100966,0.241665,3.1178,0.262156,-0.199174,-1.49221,0.0164682,-0.174133,0.00312072
0.10452,0.241611,3.08584,0.0906857,-0.184294,-1.59562,0.0168338,-0.173864,-0.0992407
0.111,0.240315,3.05196,0.161469,0.0650797,-1.69139,0.0191357,-0.150297,-0.205063
0.12436,0.240375,3.01575,0.223749,0.379024,-1.79935,0.0392096,-0.133744,-0.227368
0.14165,0.238639,2.97801,0.067511,0.374666,-1.83875,0.0702827,-0.125803,-0.230011
0.153727,0.232485,2.94122,-0.133676,-0.0474838,-1.78079,0.101882,-0.0939144,-0.3044
0.156199,0.223843,2.90682,-0.166274,-0.429248,-1.64746,0.140049,-0.0488804,-0.403762
0.15477,0.218103,2.87619,0.112863,-0.310956,-1.36878,0.16499,-0.00577489,-0.452184
0.158254,0.221399,2.85106,0.605725,0.126258,-0.998767,0.14537,0.0625208,-0.411813
0.168363,0.235145,2.83175,1.01905,0.382344,-0.651055,0.124213,0.090375,-0.277186
0.178842,0.254997,2.8173,1.13751,0.297201,-0.398296,0.104305,0.0833274,-0.11384
0.186722,0.275969,2.80706,1.09697,0.233615,-0.20105,0.0501753,0.0876493,0.0285978
0.192764,0.296379,2.79986,1.04267,0.145318,-0.099701,-0.00345591,0.121847,0.122036
0.19557,0.316085,2.7944,0.987136,-0.0422617,-0.035196,-0.0262206,0.134456,0.178008
0.193813,0.334215,2.7903,0.848729,-0.271144,-0.00260315,-0.0369255,0.141764,0.217615
0.186878,0.348523,2.7873,0.594214,-0.524861,-0.0052816,-0.0413516,0.146839,0.235144
0.174893,0.357132,2.78528,0.288049,-0.726934,-0.0293185,-0.0409229,0.148493,0.222004
0.159738,0.359905,2.78364,0.0290341,-0.814978,-0.0823377,-0.0433236,0.160932,0.166614
0.145589,0.358616,2.78138,-0.105248,-0.656919,-0.143878,-0.0342687,0.179028,0.10853
0.136263,0.355516,2.77835,-0.153494,-0.378501,-0.172198,-0.0151035,0.186102,0.0682272
0.131872,0.352024,2.77567,-0.142159,-0.168618,-0.106503,0.00927932,0.170924,0.0329895
0.131872,0.352024,2.77567,-0.142159,-0.168618,-0.106503,0.00927932,0.170924,0.0329895
0.129983,0.350222,2.77505,-0.0136887,-0.0615495,0.0291071,0.0209812,0.161923,0.0172797
0.128208,0.352049,2.77697,0.177719,-0.0619835,0.169188,-0.00237054,0.169391,0.0357463
0.125252,0.357736,2.78085,0.324334,-0.106698,0.25045,-0.0398981,0.155193,0.08861
0.121055,0.365236,2.78522,0.349591,-0.157091,0.235514,-0.0813,0.139137,0.154957
0.11632,0.371959,2.78878,0.270301,-0.172997,0.168267,-0.104307,0.119087,0.203581
0.112169,0.376146,2.79087,0.117768,-0.162041,0.0637706,-0.110288,0.101714,0.234408
0.109282,0.376723,2.79068,-0.0503906,-0.126105,-0.0724352,-0.0991432,0.0591598,0.2393
0.107656,0.374317,2.78826,-0.15206,-0.138987,-0.168783,-0.0663782,0.0163328,0.223633
0.104846,0.370504,2.78478,-0.188141,-0.291057,-0.192373,-0.036807,-0.0185448,0.189966
0.0986596,0.366187,2.78085,-0.207676,-0.463353,-0.219956,-0.00371217,-0.0705617,0.147161
0.0898414,0.360985,2.77595,-0.274483,-0.575496,-0.299388,0.00189266,-0.106216,0.0903609
0.0803571,0.353629,2.76864,-0.412665,-0.631273,-0.450298,-0.00291603,-0.123804,0.037451
0.0707658,0.342767,2.7584,-0.596712,-0.665901,-0.578119,0.0222277,-0.152981,-0.0469332
0.0620268,0.328624,2.74632,-0.722709,-0.598426,-0.640604,0.0329591,-0.158781,-0.145146
0.0555667,0.313471,2.73363,-0.684278,-0.417884,-0.63705,0.0447941,-0.163623,-0.245924
0.0532738,0.301336,2.72118,-0.438905,-0.190722,-0.611836,0.0487754,-0.170763,-0.317593
0.0546539,0.295044,2.709,-0.130564,-0.0314056,-0.580633,0.0539655,-0.177495,-0.331748
0.0595287,0.293824,2.69706,0.025269,0.126604,-0.575518,0.0527058,-0.20297,-0.275143
0.0636746,0.292983,2.68532,-0.0619226,-0.0691938,-0.553672,0.0286186,-0.201944,-0.249678
0.0633297,0.289834,2.67348,-0.174033,-0.319325,-0.615911,-0.00673844,-0.175816,-0.246388
0.0584558,0.285108,2.65999,-0.199772,-0.514166,-0.694373,-0.0302614,-0.141148,-0.301239
0.0524848,0.28145,2.64619,-0.0615202,-0.432951,-0.627313,-0.0296141,-0.0994176,-0.348408
0.0489809,0.282123,2.63461,0.19395,-0.247002,-0.472093,-0.0241985,-0.0580455,-0.355459
0.0474562,0.288128,2.62612,0.439263,-0.158145,-0.32116,-0.0487941,-0.0302651,-0.339223
0.0464813,0.298509,2.61975,0.61546,-0.12926,-0.259706,-0.109778,0.0102672,-0.290541
0.0464188,0.311832,2.61331,0.738204,-0.0750319,-0.298637,-0.165456,0.0710699,-0.221554
0.0464817,0.327147,2.60587,0.819655,-0.184366,-0.32812,-0.19842,0.136284,-0.16316
0.0435482,0.343604,2.59807,0.854082,-0.34737,-0.334025,-0.232503,0.207351,-0.109685
0.0387134,0.360466,2.58973,0.861523,-0.403283,-0.394948,-0.271003,0.272739,-0.0462307
0.0352893,0.376987,2.57871,0.814274,-0.330429,-0.584791,-0.300093,0.318103,0.0432585
0.0357027,0.39149,2.56292,0.668275,-0.215938,-0.821933,-0.290899,0.329304,0.13498
0.0402785,0.402192,2.54253,0.465386,-0.124512,-1.00282,-0.246558,0.327471,0.227274
0.0474453,0.408534,2.51901,0.271135,-0.0997076,-1.11956,-0.194205,0.32503,0.29335
0.0551949,0.411385,2.49361,0.145219,-0.146694,-1.1823,-0.145764,0.320809,0.332042
0.0615462,0.412114,2.46758,0.070849,-0.280927,-1.18381,-0.0959237,0.305317,0.366079
0.0647019,0.411644,2.44206,0.0361071,-0.423362,-1.14764,-0.0550137,0.274857,0.384838
0.0649614,0.410627,2.41739,-2.91783e-05,-0.529068,-1.11893,-0.0377145,0.258346,0.409306
0.0630575,0.407823,2.39304,-0.160654,-0.63329,-1.13419,-0.0233474,0.231313,0.436029
0.0587599,0.400344,2.36821,-0.455932,-0.78295,-1.19505,-0.00943519,0.18246,0.427776
0.0520153,0.387227,2.34226,-0.700513,-0.874872,-1.26808,0.0148764,0.128263,0.357645
0.0444793,0.370509,2.31507,-0.832063,-0.879851,-1.33222,0.0348771,0.100233,0.250267
0.0379303,0.352053,2.28709,-0.892721,-0.73964,-1.34625,0.05965,0.060432,0.143543
0.0351959,0.333382,2.2598,-0.864365,-0.433346,-1.27888,0.0877816,0.0188609,0.0466201
0.0376484,0.316069,2.23453,-0.772602,-0.140141,-1.1685,0.107673,-0.016239,-0.0260543
0.0433276,0.300756,2.2121,-0.67395,-0.00578416,-1.026,0.131558,-0.0868293,-0.0908123
0.0484719,0.287459,2.19297,-0.578747,-0.057394,-0.873964,0.137007,-0.155586,-0.155425
0.0500225,0.275383,2.17644,-0.562193,-0.263824,-0.777481,0.129708,-0.199261,-0.211307
0.0469566,0.263298,2.16182,-0.569221,-0.399223,-0.686527,0.127576,-0.241565,-0.281713
0.0469566,0.263298,2.16182,-0.569221,-0.399223,-0.686527,0.127576,-0.241565,-0.281713
0.043385,0.251845,2.14872,-0.502827,-0.24007,-0.642267,0.102147,-0.255432,-0.349077
0.0461998,0.242774,2.13575,-0.340285,0.230805,-0.659763,0.0794233,-0.262167,-0.365093
0.0572696,0.236433,2.12146,-0.260809,0.458013,-0.773203,0.0725432,-0.26761,-0.336802
0.0691348,0.229144,2.1051,-0.380277,0.289022,-0.843153,0.109926,-0.28076,-0.300224
0.0750709,0.219173,2.08878,-0.470037,-0.047,-0.798367,0.151434,-0.25705,-0.328429
0.0756537,0.209352,2.07435,-0.365379,-0.143608,-0.663587,0.191358,-0.226302,-0.385685
0.0762765,0.204095,2.06369,-0.0568656,0.0264988,-0.402594,0.222788,-0.169755,-0.389218
0.0814736,0.206401,2.05861,0.320134,0.400977,-0.076111,0.224192,-0.117235,-0.291714
0.0921402,0.21536,2.05908,0.533469,0.627649,0.184419,0.214376,-0.0856782,-0.149513
0.103417,0.227277,2.06389,0.592838,0.570427,0.396886,0.20298,-0.0910502,-0.0205306
0.111043,0.240584,2.07251,0.643303,0.383,0.578291,0.185727,-0.0631977,0.07534
0.113755,0.255506,2.08454,0.700123,0.197767,0.750292,0.180382,-0.022701,0.129312
0.112192,0.271334,2.10035,0.684656,0.0556534,0.944051,0.181385,0.0121727,0.163549
0.105921,0.285994,2.12029,0.540184,-0.161206,1.10884,0.175152,0.0415103,0.180003
0.093088,0.296569,2.14335,0.282056,-0.4617,1.18042,0.160158,0.0480845,0.156581
0.0734323,0.301133,2.16745,-0.0176675,-0.790737,1.13822,0.115009,0.0730767,0.0795482
0.0490353,0.299902,2.19033,-0.215269,-0.948233,1.03379,0.0698409,0.116136,-0.0457066
0.0238952,0.296253,2.21127,-0.173788,-0.870607,0.959999,0.0677699,0.143256,-0.161542
0.00571534,0.295436,2.23058,0.0762977,-0.334396,0.882907,0.0569865,0.178654,-0.161214
0.000219509,0.298955,2.24869,0.25529,0.30117,0.867022,0.058506,0.213315,-0.0659465
0.00510312,0.304815,2.26779,0.316287,0.689011,0.974519,0.100509,0.187324,0.0674155
0.0124064,0.311947,2.29026,0.388874,0.647977,1.18279,0.118945,0.18028,0.169331
0.0137383,0.321431,2.31722,0.532904,0.314825,1.3857,0.100705,0.187033,0.22491
0.00765589,0.333584,2.34741,0.627765,0.0655678,1.4563,0.063094,0.177163,0.278847
-0.0025657,0.34574,2.37755,0.553296,-0.059388,1.36558,0.0296813,0.147441,0.311885
-0.0135704,0.354494,2.40461,0.32818,-0.118695,1.14805,0.00770612,0.108651,0.320777
-0.0242168,0.357953,2.42639,0.0617208,-0.181096,0.888861,0.00571188,0.072358,0.270616
-0.0334327,0.356605,2.44307,-0.139889,-0.139564,0.687644,0.0290653,0.0455214,0.197459
-0.039564,0.351952,2.45586,-0.265162,-0.0170303,0.530913,0.0463454,0.0283856,0.102915
-0.0409544,0.34557,2.4652,-0.343242,0.227846,0.372179,0.0608614,0.0213963,0.0178065
-0.0348175,0.337049,2.47096,-0.509681,0.571621,0.206544,0.057449,0.00598118,-0.0433179
-0.0227636,0.324696,2.4738,-0.698507,0.675286,0.116132,0.0516931,-0.0184583,-0.13314
-0.0118752,0.31053,2.47599,-0.665851,0.434178,0.128345,0.0380861,-0.0423521,-0.246351
-0.0080337,0.300095,2.47934,-0.336893,0.067328,0.203835,0.031463,-0.0539982,-0.343795
-0.00900274,0.297653,2.48433,0.0853561,0.0735471,0.263529,0.00660785,-0.052731,-0.351461
-0.00719254,0.301581,2.48983,0.248227,0.210969,0.251427,-0.0377031,-0.0693948,-0.280325
-0.00601049,0.304629,2.49439,0.0172878,0.0272326,0.165388,-0.0953252,-0.0873746,-0.231743
-0.0074597,0.30139,2.49571,-0.330992,-0.105914,-0.0596345,-0.163592,-0.0859646,-0.214764
-0.00750863,0.292445,2.49138,-0.531837,0.0218931,-0.333489,-0.176831,-0.0974178,-0.247624
-0.00162055,0.282205,2.48299,-0.452416,0.318747,-0.432624,-0.1633,-0.0825639,-0.287589
0.00838747,0.275563,2.47455,-0.191339,0.407777,-0.367908,-0.148925,-0.0481018,-0.286098
0.0174396,0.274663,2.46785,0.102529,0.301168,-0.282852,-0.146531,-0.0159635,-0.234025
0.0234667,0.279044,2.46219,0.333097,0.154701,-0.258439,-0.16663,0.0250252,-0.153615
0.0273153,0.287207,2.45665,0.479083,0.0920793,-0.254556,-0.194238,0.0813704,-0.0568371
0.0303313,0.297376,2.45095,0.540848,0.0311967,-0.257622,-0.214802,0.130491,0.0236925
0.0312882,0.308173,2.44508,0.547287,-0.127545,-0.278401,-0.241144,0.163808,0.0759885
0.0285377,0.318538,2.43795,0.497774,-0.374998,-0.391953,-0.269179,0.199546,0.102475
0.0220582,0.32706,2.42737,0.368762,-0.593323,-0.597721,-0.26248,0.215121,0.124419
0.0220582,0.32706,2.42737,0.368762,-0.593323,-0.597721,-0.26248,0.215121,0.124419
0.0134872,0.332138,2.41238,0.152775,-0.727221,-0.800987,-0.223962,0.231247,0.133326
0.00492277,0.332666,2.3941,-0.0771362,-0.700866,-0.908664,-0.175841,0.249263,0.116474
-0.00115394,0.329601,2.37451,-0.213629,-0.528504,-0.932374,-0.138206,0.270367,0.0950509
-0.00380315,0.324899,2.35487,-0.239903,-0.376096,-0.913829,-0.104626,0.268645,0.0791001
-0.00479551,0.321152,2.33635,-0.125321,-0.340448,-0.843768,-0.0738646,0.240816,0.0805905
-0.00665213,0.320115,2.31948,0.0180418,-0.369059,-0.749591,-0.053485,0.216348,0.104345
-0.00907402,0.321913,2.30442,0.132466,-0.335721,-0.693791,-0.0517865,0.200125,0.159454
-0.0110969,0.324672,2.28993,0.100782,-0.336071,-0.695673,-0.0442469,0.168379,0.20998
-0.0134324,0.32543,2.27469,-0.0480892,-0.395454,-0.752273,-0.0323627,0.118896,0.235559
-0.0168653,0.323095,2.2581,-0.204074,-0.464113,-0.813095,-0.0139154,0.0776199,0.223025
-0.0208365,0.317827,2.24048,-0.353149,-0.482619,-0.845712,0.00335781,0.0503724,0.203022
-0.0249358,0.309815,2.22233,-0.481413,-0.485634,-0.858911,0.0192601,0.0163842,0.154593
-0.0293726,0.299824,2.20399,-0.550628,-0.503804,-0.856265,0.0457126,-0.0225347,0.0889639
-0.0343742,0.289251,2.18584,-0.551632,-0.514438,-0.840785,0.0678213,-0.0470566,0.0254119
-0.0392727,0.279443,2.16843,-0.46912,-0.438161,-0.776269,0.0977219,-0.0843633,-0.0415156
-0.0415942,0.272507,2.153,-0.282985,-0.187548,-0.671761,0.111779,-0.106769,-0.0737293
-0.0390247,0.268923,2.14016,-0.14654,0.0866065,-0.556137,0.107284,-0.117928,-0.0785465
-0.0329072,0.266489,2.12922,-0.154731,0.199374,-0.49571,0.116731,-0.160528,-0.0676203
-0.0267288,0.262899,2.11911,-0.232869,0.143399,-0.475937,0.121755,-0.199118,-0.068472
-0.0220062,0.258008,2.10901,-0.265383,0.0692317,-0.489823,0.117605,-0.210986,-0.080865
-0.018207,0.25314,2.0987,-0.231087,0.0710003,-0.498932,0.125704,-0.211118,-0.101793
-0.0127019,0.249407,2.08839,-0.150843,0.282949,-0.490786,0.139292,-0.201626,-0.115751
-0.000404725,0.247331,2.07838,-0.084319,0.633666,-0.481262,0.180019,-0.193476,-0.0601245
0.0135495,0.245082,2.069,-0.129442,0.509129,-0.407572,0.244928,-0.208795,-0.0963779
0.0236813,0.242503,2.06245,-0.127987,0.297399,-0.230602,0.280008,-0.202082,-0.10459
0.0248558,0.238456,2.05952,-0.299678,-0.267923,-0.0692307,0.284398,-0.148167,-0.169679
0.0158713,0.230199,2.06018,-0.494317,-0.524947,0.123107,0.278905,-0.134835,-0.235776
0.00544963,0.221097,2.06502,-0.368655,-0.333584,0.336637,0.265847,-0.0928187,-0.29755
0.00202885,0.217367,2.07424,0.0198076,0.228925,0.575575,0.251208,-0.0392537,-0.272267
0.00984374,0.222095,2.08848,0.426023,0.835781,0.805112,0.229122,-0.0134143,-0.184048
0.0245792,0.233015,2.10659,0.59455,0.941286,0.975055,0.207502,0.00947677,-0.0786499
0.0357585,0.245402,2.12823,0.552659,0.668991,1.16762,0.191471,0.0281784,0.00266868
0.0391881,0.256083,2.15374,0.413899,0.290624,1.33406,0.157443,0.0418825,0.0282772
0.0342919,0.263985,2.18221,0.278813,-0.0154744,1.43054,0.096236,0.0627334,-0.00110638
0.024255,0.269371,2.21172,0.178854,-0.210987,1.41729,0.0106948,0.100918,-0.0469498
0.0114099,0.272727,2.24026,0.116021,-0.28159,1.33309,-0.0422074,0.137691,-0.0947925
-0.000876781,0.275133,2.26726,0.128748,-0.1892,1.27874,-0.04655,0.160836,-0.11653
-0.00947718,0.278642,2.29382,0.255781,0.0794252,1.28346,-0.041334,0.171703,-0.10859
-0.0117259,0.285358,2.3212,0.445675,0.464633,1.34228,-0.0566959,0.183829,-0.0528798
-0.00767095,0.295393,2.34971,0.56782,0.700173,1.37376,-0.0973214,0.193398,0.0457711
-0.00252854,0.307057,2.37865,0.606315,0.632059,1.38056,-0.132874,0.181161,0.131187
-0.0014216,0.319359,2.40691,0.630841,0.337844,1.29252,-0.155602,0.159845,0.17992
-0.00603741,0.332016,2.43255,0.631748,0.0260031,1.11586,-0.166717,0.144751,0.229855
-0.0144094,0.343521,2.45378,0.517544,-0.132183,0.869851,-0.170225,0.141202,0.277109
-0.0225518,0.351291,2.46965,0.269008,-0.128686,0.607105,-0.159064,0.146509,0.302109
-0.0282652,0.353499,2.48006,-0.0145595,-0.0676982,0.375158,-0.132284,0.144324,0.286975
-0.0309321,0.351018,2.48588,-0.195171,3.85451e-06,0.183493,-0.0847892,0.134305,0.243017
-0.0309321,0.351018,2.48588,-0.195171,3.85451e-06,0.183493,-0.0847892,0.134305,0.243017
-0.0310992,0.346146,2.48809,-0.277114,0.0576967,0.047227,-0.0344556,0.118114,0.18596
-0.0300745,0.339542,2.48799,-0.396494,0.0173336,-0.0324853,-0.00373608,0.117204,0.136954
-0.0308204,0.330267,2.48649,-0.522022,-0.150861,-0.0705973,0.0187741,0.1073,0.0529436
-0.0352798,0.319473,2.48476,-0.553608,-0.351135,-0.0565739,0.0333351,0.0934696,-0.0413935
-0.043105,0.30825,2.48314,-0.577756,-0.458641,-0.0532591,0.0313713,0.0740061,-0.133514
-0.0501149,0.296618,2.48143,-0.589498,-0.238671,-0.0661308,0.0172362,0.0159658,-0.204706
-0.0511929,0.284471,2.47851,-0.656517,0.0323699,-0.166156,-0.028538,-0.0206351,-0.260014
-0.046991,0.27023,2.47239,-0.802881,0.20788,-0.36602,-0.089878,-0.031097,-0.286622
-0.0397625,0.253154,2.46208,-0.932515,0.222255,-0.539656,-0.0807624,-0.0819084,-0.321746
-0.0326353,0.234768,2.44971,-0.913128,0.194927,-0.567172,-0.0638161,-0.123614,-0.376842
-0.0263774,0.219077,2.43886,-0.650878,0.175262,-0.422396,-0.0577369,-0.139849,-0.425944
-0.0216007,0.21041,2.43184,-0.226145,0.151848,-0.257475,-0.100551,-0.141466,-0.439412
-0.0181063,0.210113,2.42725,0.171906,0.114362,-0.213218,-0.177331,-0.116992,-0.407483
-0.0146466,0.216479,2.42225,0.433862,0.125677,-0.305419,-0.267877,-0.0769255,-0.316322
-0.0101957,0.22676,2.41437,0.577733,0.139016,-0.486763,-0.346084,-0.0220808,-0.206238
-0.00466109,0.239442,2.40224,0.675854,0.13045,-0.699525,-0.38361,0.047295,-0.106604
0.00164625,0.253504,2.3859,0.716252,0.0943408,-0.882755,-0.396216,0.127873,-0.0125525
0.00759651,0.267836,2.36591,0.721253,-0.0251299,-1.0412,-0.39229,0.209424,0.0509116
0.0122452,0.281867,2.34239,0.698719,-0.137643,-1.20622,-0.379544,0.286267,0.10843
0.0165613,0.294503,2.31539,0.585052,-0.18822,-1.36554,-0.359186,0.357311,0.17201
0.0217066,0.303588,2.28527,0.365809,-0.191836,-1.48679,-0.315497,0.393459,0.234456
0.0269061,0.307606,2.25344,0.111986,-0.249277,-1.52326,-0.257085,0.393949,0.266712
0.0306933,0.306679,2.22157,-0.107673,-0.341295,-1.51134,-0.212484,0.379791,0.27499
0.0320643,0.302211,2.19023,-0.225457,-0.461712,-1.48764,-0.164899,0.339029,0.258862
0.0310976,0.296544,2.15952,-0.232553,-0.51674,-1.45861,-0.108562,0.289989,0.244815
0.0297046,0.291285,2.12966,-0.21344,-0.47867,-1.41663,-0.0682441,0.252485,0.256251
0.0289129,0.285778,2.10047,-0.268968,-0.423316,-1.39949,-0.034908,0.209653,0.266873
0.0291466,0.278397,2.07154,-0.397987,-0.362752,-1.39497,0.00649501,0.144688,0.28604
0.0294784,0.268175,2.04328,-0.541443,-0.387083,-1.34411,0.051566,0.076618,0.278214
0.0272076,0.255786,2.01696,-0.611183,-0.528692,-1.22159,0.0990165,0.00778216,0.229451
0.0210401,0.242586,1.99353,-0.655359,-0.653524,-1.0849,0.122201,-0.0445454,0.171982
0.012593,0.228601,1.97231,-0.708623,-0.654272,-1.01724,0.118106,-0.10154,0.0928189
0.00578921,0.213928,1.9514,-0.731423,-0.470076,-1.04902,0.0969887,-0.157268,0.000793576
0.00332083,0.199523,1.92961,-0.69033,-0.205198,-1.08291,0.114024,-0.194879,-0.0765306
0.00616848,0.186096,1.90776,-0.650044,0.0598964,-1.05435,0.148906,-0.229374,-0.118954
0.0122863,0.172819,1.88734,-0.665968,0.159622,-0.959047,0.173032,-0.258704,-0.166933
0.0179691,0.159197,1.86928,-0.657524,0.0975511,-0.847269,0.174016,-0.270902,-0.240435
0.0213321,0.146486,1.85353,-0.570537,-0.006148,-0.732435,0.173921,-0.263934,-0.304758
0.0231689,0.136704,1.84057,-0.360809,0.0705125,-0.580211,0.186568,-0.261625,-0.346647
0.0280404,0.131825,1.83002,-0.116204,0.23232,-0.481521,0.187157,-0.245632,-0.34392
0.0331262,0.130334,1.82153,-0.0343545,0.138826,-0.351498,0.19119,-0.221948,-0.333839
0.0352894,0.129117,1.81585,-0.0803209,0.00576311,-0.221498,0.193649,-0.22317,-0.324676
0.035172,0.127164,1.81225,-0.0825915,-0.028763,-0.149769,0.165253,-0.211527,-0.354528
0.035817,0.126869,1.81005,0.0931992,0.0894739,-0.0609194,0.133134,-0.170819,-0.368475
0.0402866,0.131957,1.81,0.427874,0.373266,0.0771934,0.106833,-0.132021,-0.315422
0.0506211,0.144069,1.81237,0.755865,0.680465,0.20852,0.0832102,-0.0941758,-0.182633
0.0659769,0.161431,1.81663,0.922188,0.912574,0.303475,0.0631782,-0.0760859,-0.0103883
0.0842128,0.180271,1.82191,0.891367,0.951127,0.355654,0.0450268,-0.0587413,0.131447
0.0842128,0.180271,1.82191,0.891367,0.951127,0.355654,0.0450268,-0.0587413,0.131447
0.099997,0.197283,1.82824,0.731941,0.705328,0.42752,0.0493228,-0.0514609,0.197368
0.108128,0.210733,1.8365,0.51472,0.256202,0.514739,0.062179,-0.0389004,0.195144
0.106185,0.219837,1.84707,0.281289,-0.217794,0.621004,0.0555005,-0.0106431,0.147804
0.0939148,0.224813,1.8609,0.0883984,-0.70527,0.75403,0.031401,0.0369039,0.0357714
0.0730236,0.22668,1.87671,-0.0106727,-0.993264,0.778457,-0.0232102,0.0721401,-0.109325
0.0497816,0.227722,1.89185,0.0653778,-0.911841,0.686991,-0.0741722,0.0860493,-0.247238
0.0332546,0.232662,1.90438,0.407733,-0.400733,0.548845,-0.116444,0.121255,-0.320496
0.0292194,0.245406,1.91437,0.826466,0.214216,0.476601,-0.130436,0.148163,-0.287852
0.0362309,0.264976,1.92343,1.06116,0.676309,0.461691,-0.140305,0.148682,-0.148816
0.0495209,0.28706,1.93156,1.0939,0.827531,0.410208,-0.183873,0.140418,0.00816715
0.0636739,0.309212,1.93748,1.08333,0.723273,0.261959,-0.237234,0.141985,0.133749
0.0749743,0.330572,1.93891,1.03052,0.437154,0.0134919,-0.259844,0.150024,0.220086
0.0822401,0.349699,1.93454,0.894356,0.149755,-0.280529,-0.261059,0.155435,0.276709
0.0869578,0.364893,1.92374,0.702016,-0.0057724,-0.595766,-0.223876,0.172814,0.305632
0.0931744,0.375212,1.90712,0.457908,0.0377242,-0.83699,-0.162785,0.197799,0.329684
0.101582,0.380251,1.88752,0.235724,0.0743693,-0.897587,-0.0884729,0.220763,0.302676
0.110198,0.381717,1.86831,0.115564,0.0569897,-0.853226,-0.0337921,0.229524,0.25983
0.117302,0.381253,1.8505,0.023623,0.00308067,-0.790051,0.0147223,0.218229,0.214255
0.123087,0.378735,1.83453,-0.0976811,-0.0225718,-0.713053,0.0470573,0.198206,0.182526
0.127435,0.373754,1.82048,-0.235258,-0.0648508,-0.646597,0.0697477,0.188355,0.150389
0.129934,0.365804,1.80845,-0.422695,-0.120554,-0.56162,0.0968076,0.181034,0.124832
0.128659,0.353403,1.79965,-0.708961,-0.342587,-0.399781,0.128907,0.156258,0.0820267
0.120241,0.335979,1.79579,-0.947583,-0.635478,-0.174168,0.144553,0.110227,-0.0103452
0.104799,0.316577,1.79655,-0.940835,-0.85981,0.0146775,0.126208,0.0772002,-0.143362
0.0869437,0.300431,1.79991,-0.66968,-0.73044,0.141431,0.105105,0.0479615,-0.240126
0.0744124,0.28996,1.80461,-0.447603,-0.425947,0.220739,0.0645325,0.0195564,-0.25422
0.065438,0.28126,1.80987,-0.487977,-0.355699,0.20769,-0.00149681,-0.0118319,-0.235152
0.0561279,0.27028,1.81363,-0.626839,-0.48631,0.0681586,-0.047348,-0.0651978,-0.223857
0.0454948,0.25669,1.81352,-0.719981,-0.548477,-0.152726,-0.0572032,-0.123194,-0.243986
0.0371537,0.241883,1.80918,-0.727859,-0.363541,-0.310995,-0.0442883,-0.150026,-0.270809
0.0334318,0.228009,1.8027,-0.61483,-0.171934,-0.343207,-0.0201245,-0.147497,-0.304304
0.0326576,0.218084,1.79651,-0.337941,-0.0559963,-0.292097,-0.0055875,-0.135905,-0.321433
0.0333544,0.214891,1.79116,0.0367254,0.00580793,-0.244287,-0.010166,-0.117569,-0.293121
0.0350335,0.219042,1.78655,0.376902,0.0554986,-0.192719,-0.0337774,-0.0806939,-0.212481
0.0369579,0.228649,1.78261,0.572262,0.0354363,-0.159699,-0.0621719,-0.038795,-0.118778
0.0376503,0.240804,1.779,0.632693,-0.0680802,-0.151375,-0.0938673,0.00294863,-0.0372015
0.0361329,0.252921,1.77493,0.580934,-0.171114,-0.212856,-0.130328,0.0488172,0.0151763
0.0332067,0.26335,1.76863,0.474968,-0.284034,-0.363357,-0.146253,0.0882436,0.0498604
0.0293823,0.271248,1.75922,0.341357,-0.32739,-0.513336,-0.14337,0.127721,0.0664455
0.0264836,0.276352,1.74734,0.200868,-0.268641,-0.609533,-0.125375,0.162664,0.0763286
0.026064,0.278912,1.73403,0.102735,-0.132142,-0.661293,-0.102767,0.184611,0.0777894
0.0289877,0.280271,1.71993,0.0840822,0.0325109,-0.680786,-0.0867822,0.196508,0.0908563
0.0345644,0.281811,1.70573,0.115851,0.10628,-0.672581,-0.0692509,0.197559,0.125004
0.040843,0.284086,1.69184,0.158002,0.143158,-0.647994,-0.0385236,0.180945,0.173534
0.0477536,0.28668,1.67851,0.143801,0.17863,-0.61582,-0.0108446,0.165704,0.230037
0.0557787,0.288114,1.66588,0.0458995,0.271358,-0.587196,0.00381441,0.145396,0.29042
0.0646001,0.286757,1.65414,-0.116564,0.251525,-0.546898,0.0133524,0.113974,0.326733
0.0646001,0.286757,1.65414,-0.116564,0.251525,-0.546898,0.0133524,0.113974,0.326733
0.0710547,0.282295,1.6436,-0.250936,0.0698381,-0.498208,0.0333318,0.0714986,0.31824
0.0725363,0.275743,1.63396,-0.329076,-0.193844,-0.473456,0.04553,0.0410457,0.270331
0.068294,0.267869,1.62518,-0.396471,-0.439427,-0.4178,0.0650826,0.0134256,0.20858
0.0605735,0.258949,1.61811,-0.442842,-0.49351,-0.31435,0.0901177,-0.0148858,0.142423
0.0527311,0.249811,1.61354,-0.434719,-0.382105,-0.187684,0.0964208,-0.0407121,0.0604773
0.0483143,0.241941,1.6113,-0.326026,-0.0922475,-0.0667106,0.0971693,-0.0843873,-0.00682056
0.0489823,0.236693,1.6111,-0.208194,0.110735,0.00929223,0.0826515,-0.117561,-0.0357001
0.0504817,0.232494,1.61172,-0.237191,0.00870321,0.0252477,0.0797121,-0.177126,-0.0471879
0.048141,0.226353,1.61253,-0.386303,-0.218317,0.0238552,0.0835068,-0.227922,-0.0902516
0.0422469,0.2172,1.61328,-0.527584,-0.329662,0.00771255,0.0722528,-0.24387,-0.164641
0.0358072,0.205536,1.61351,-0.623597,-0.283304,-0.0264617,0.0731693,-0.248041,-0.252465
0.0324577,0.192909,1.61322,-0.611654,-0.0309599,-0.0458976,0.0830791,-0.252179,-0.32351
0.0362676,0.182206,1.61238,-0.433726,0.386399,-0.0706931,0.114594,-0.250227,-0.347858
0.0459984,0.175291,1.61138,-0.274293,0.526436,-0.036642,0.182414,-0.236662,-0.32496
0.0555762,0.170078,1.61245,-0.267343,0.413126,0.134973,0.257739,-0.226218,-0.269597
0.0604985,0.165032,1.61819,-0.251063,0.168793,0.412762,0.306723,-0.206459,-0.250591
0.0608925,0.162485,1.62995,-0.0468879,0.115466,0.732594,0.335256,-0.177325,-0.24672
0.0617155,0.165642,1.64777,0.250478,0.271844,1.03437,0.311482,-0.120789,-0.202668
0.0649162,0.174709,1.67094,0.493546,0.41749,1.29023,0.273718,-0.0837772,-0.114251
0.0687577,0.188071,1.69826,0.64823,0.455975,1.47319,0.263029,-0.0697493,-0.00393277
0.0723959,0.203834,1.72878,0.694826,0.508747,1.61846,0.23518,-0.0303018,0.0971854
0.0760048,0.219923,1.76224,0.660575,0.546398,1.76413,0.230524,-0.00213623,0.166395
0.0781453,0.235274,1.79891,0.587851,0.477791,1.9157,0.239255,0.0119482,0.203064
0.0761569,0.248925,1.83886,0.459697,0.246338,2.06202,0.256035,0.038766,0.205947
0.0668546,0.25931,1.8826,0.260206,-0.0683678,2.23993,0.275776,0.0533649,0.178351
0.050132,0.265005,1.9304,0.043311,-0.354373,2.3927,0.25039,0.0947239,0.10281
0.0268869,0.266363,1.98046,-0.0834714,-0.670978,2.42184,0.217488,0.119318,-0.0214538
-0.00290159,0.264819,2.03007,-0.115219,-0.999301,2.35824,0.209771,0.128418,-0.173017
-0.0362573,0.262642,2.07846,0.0313902,-0.989881,2.32591,0.216098,0.150197,-0.316315
-0.0647362,0.264211,2.12682,0.383973,-0.548317,2.33532,0.19355,0.218819,-0.368571
-0.0826366,0.272408,2.17641,0.786164,0.0701317,2.37635,0.167435,0.268197,-0.310211
-0.090542,0.286769,2.22773,1.039,0.507777,2.40186,0.149256,0.275332,-0.149441
-0.0937205,0.303621,2.27933,1.06214,0.63361,2.345,0.118447,0.257489,0.0344228
-0.0965349,0.319206,2.32894,0.917362,0.56298,2.18947,0.0684449,0.24846,0.178447
-0.101637,0.331176,2.37388,0.691624,0.363235,1.92015,0.0477767,0.222067,0.259216
-0.108995,0.338702,2.41213,0.435411,0.168934,1.58838,0.0509635,0.191363,0.300108
-0.117029,0.341762,2.44302,0.204731,0.0830721,1.27981,0.0745632,0.184955,0.297446
-0.123283,0.341179,2.46759,0.0269416,0.143433,1.03374,0.0980145,0.200459,0.251523
-0.125152,0.338087,2.48712,-0.104856,0.337276,0.832215,0.124702,0.211718,0.197228
-0.121284,0.332817,2.5021,-0.242008,0.517395,0.650487,0.147688,0.197801,0.142712
-0.114803,0.325775,2.51425,-0.293271,0.490836,0.601022,0.183981,0.176092,0.060704
-0.110357,0.319572,2.52682,-0.160397,0.351154,0.656904,0.187229,0.170347,-0.0228055
-0.108357,0.316886,2.5403,0.0259462,0.290773,0.622695,0.155556,0.163492,-0.07349
-0.105698,0.316685,2.55198,0.0274435,0.340047,0.471163,0.123952,0.136644,-0.0772471
-0.100718,0.314319,2.56006,-0.203469,0.426796,0.327551,0.105235,0.0914257,-0.0828649
-0.0919067,0.30721,2.56539,-0.434345,0.638276,0.248634,0.0714893,0.0539112,-0.116867
-0.0785212,0.296698,2.56842,-0.580621,0.759671,0.113562,0.00204574,0.0239311,-0.170541
-0.062532,0.283626,2.56752,-0.741253,0.806838,-0.120509,-0.0578338,0.0125042,-0.188344
-0.062532,0.283626,2.56752,-0.741253,0.806838,-0.120509,-0.0578338,0.0125042,-0.188344
-0.0450656,0.266719,2.56159,-0.984734,0.771971,-0.345431,-0.0579678,-0.0362522,-0.20623
-0.0275616,0.24525,2.55283,-1.16389,0.755908,-0.390842,-0.032257,-0.080733,-0.255466
-0.0105073,0.222404,2.54593,-1.08514,0.780277,-0.209913,-0.0038508,-0.0991571,-0.326274
0.00578398,0.203693,2.54436,-0.753985,0.799094,0.0671793,-0.0143924,-0.0857219,-0.360976
0.0205608,0.193111,2.54835,-0.304171,0.749127,0.306871,-0.0553487,-0.0645106,-0.341107
0.0329791,0.191253,2.55674,0.0762431,0.659644,0.500943,-0.094933,-0.0606278,-0.258727
0.0429853,0.195612,2.56831,0.295943,0.555668,0.653638,-0.151421,-0.0341948,-0.146244
0.0500723,0.203452,2.58318,0.417525,0.451868,0.844327,-0.210869,-0.01119,-0.047762
0.0547309,0.213908,2.60115,0.533049,0.377543,0.9301,-0.281866,0.000625312,0.0215526
0.0570268,0.226286,2.61847,0.596851,0.201902,0.795011,-0.362779,0.0220287,0.05387
0.0549661,0.238869,2.63102,0.584684,-0.117813,0.46816,-0.426883,0.0538032,0.0626835
0.0493214,0.250235,2.63558,0.513999,-0.313774,0.0216299,-0.450949,0.10545,0.0841464
0.043011,0.258623,2.63093,0.326344,-0.414057,-0.399566,-0.388507,0.155636,0.0961592
0.0379305,0.262321,2.61987,0.0902077,-0.347885,-0.619946,-0.300784,0.195953,0.0820546
0.0363184,0.262196,2.60604,-0.0270718,-0.158108,-0.697388,-0.224431,0.23105,0.0505285
0.0387774,0.261349,2.59164,0.0213459,0.0199974,-0.680822,-0.160254,0.247474,0.0365135
0.0437465,0.262743,2.57842,0.173711,0.113209,-0.589314,-0.119685,0.243816,0.0578511
0.048581,0.267011,2.56658,0.285327,0.0437515,-0.543294,-0.101529,0.223536,0.113862
0.0510948,0.272256,2.555,0.269906,-0.09363,-0.55196,-0.0842103,0.181533,0.189266
0.0515046,0.275588,2.54293,0.105796,-0.180522,-0.589928,-0.0720765,0.144473,0.247702
0.0510099,0.275086,2.53045,-0.0818274,-0.196211,-0.608709,-0.0576614,0.103508,0.262267
0.0504725,0.27177,2.51794,-0.175947,-0.206703,-0.611483,-0.0413057,0.0728341,0.245045
0.0490956,0.267332,2.50554,-0.20312,-0.24646,-0.597932,-0.0176543,0.0404803,0.221419
0.0477404,0.26239,2.49352,-0.244416,-0.202286,-0.595167,-0.00160951,0.00374389,0.212353
0.0474351,0.256054,2.48123,-0.331374,-0.141865,-0.622819,0.0196957,-0.0325624,0.184601
0.0482482,0.24837,2.46876,-0.368164,-0.0912546,-0.611462,0.0544773,-0.0756022,0.129121
0.0495702,0.240399,2.45716,-0.362649,-0.055838,-0.538997,0.0905621,-0.0951156,0.0648834
0.051274,0.233065,2.44816,-0.31877,0.0220814,-0.360095,0.130997,-0.124081,-0.00127691
0.0538182,0.227252,2.44314,-0.235871,0.0904502,-0.1658,0.136937,-0.149592,-0.0631933
0.0546392,0.222924,2.44131,-0.187913,-0.0931514,-0.0492538,0.116738,-0.173831,-0.147736
0.0494393,0.219646,2.44135,-0.133642,-0.382151,0.0315111,0.114122,-0.216336,-0.240611
0.0414328,0.217546,2.44224,-0.0873605,-0.354985,0.0313904,0.110297,-0.247728,-0.283243
0.0363651,0.215654,2.44212,-0.128664,-0.139041,-0.0697489,0.0784835,-0.236514,-0.309728
0.0352201,0.210765,2.43885,-0.383177,-0.0914367,-0.272303,0.0686395,-0.233984,-0.328674
0.0334424,0.199615,2.43235,-0.69285,-0.231349,-0.374291,0.111988,-0.245556,-0.39391
0.0294282,0.184412,2.4255,-0.747524,-0.258124,-0.324092,0.17008,-0.22543,-0.482927
0.0267091,0.172214,2.42101,-0.403716,-0.0604243,-0.135088,0.187358,-0.145317,-0.5344
0.0282159,0.169599,2.42123,0.154903,0.211815,0.163855,0.200403,-0.0678919,-0.486145
0.0337103,0.17841,2.42749,0.684321,0.448365,0.470459,0.223072,-0.0405831,-0.338041
0.043027,0.195778,2.43854,0.965126,0.680551,0.659921,0.210249,-0.0151415,-0.120292
0.0557545,0.216402,2.45247,0.9945,0.850689,0.798669,0.191271,0.0150556,0.0824891
0.0689081,0.235998,2.46909,0.835024,0.794753,0.944513,0.184047,0.0398897,0.21915
0.0773887,0.251483,2.48898,0.555929,0.522875,1.09157,0.184138,0.0465243,0.290719
0.0786063,0.261201,2.51212,0.23698,0.175333,1.20711,0.175008,0.0582597,0.299798
0.0717423,0.265059,2.53777,-0.0245853,-0.20094,1.29022,0.157828,0.0845373,0.240137
0.0562723,0.264917,2.56561,-0.126157,-0.597109,1.39203,0.145869,0.118122,0.122186
0.0341932,0.264441,2.59525,-0.0282471,-0.804717,1.44657,0.122794,0.16141,0.0121141
0.0101583,0.266465,2.62507,0.175617,-0.77373,1.43027,0.0949062,0.1962,-0.0743893
0.0101583,0.266465,2.62507,0.175617,-0.77373,1.43027,0.0949062,0.1962,-0.0743893
-0.0113789,0.272223,2.65432,0.401889,-0.581157,1.39024,0.0732155,0.211851,-0.104514
-0.0277372,0.28188,2.68313,0.610305,-0.266006,1.36239,0.0628482,0.221796,-0.089991
-0.0384955,0.294372,2.71171,0.709029,-0.00999339,1.33092,0.0440632,0.236092,-0.0262379
-0.0453156,0.307078,2.73932,0.65273,0.125222,1.23024,-0.00236649,0.23065,0.060305
-0.0497689,0.317744,2.76364,0.52057,0.168116,1.01512,-0.0480178,0.214143,0.128576
-0.0520767,0.325962,2.78246,0.39097,0.188529,0.712596,-0.0749707,0.202315,0.172454
-0.0520286,0.332073,2.79443,0.281201,0.202201,0.396192,-0.0722959,0.192703,0.19795
-0.0499751,0.336319,2.80026,0.174099,0.186315,0.151661,-0.036371,0.180555,0.213397
-0.0472612,0.338864,2.80209,0.0933377,0.152902,0.0196519,-0.0019365,0.178744,0.203783
-0.0441583,0.340149,2.80146,0.0280244,0.14343,-0.0867638,0.0156443,0.180856,0.184309
-0.0403436,0.339803,2.79848,-0.0835484,0.141733,-0.191258,0.0321366,0.158329,0.160193
-0.0354713,0.336895,2.79318,-0.226469,0.166156,-0.304136,0.034218,0.13671,0.126038
-0.0289003,0.331013,2.78498,-0.396757,0.218165,-0.458509,0.0106956,0.142033,0.0897889
-0.0207524,0.321342,2.77317,-0.593972,0.217455,-0.61815,0.00619993,0.120116,0.0270383
-0.0121229,0.308495,2.75914,-0.681753,0.221973,-0.675419,0.0299219,0.0806786,-0.0574101
-0.00175102,0.29547,2.74477,-0.628383,0.410795,-0.686233,0.0315976,0.0618046,-0.106523
0.0104171,0.281984,2.72996,-0.765903,0.31184,-0.752659,-0.0124621,0.0559416,-0.13171
0.0185931,0.2635,2.71321,-1.04656,0.0877071,-0.896091,-0.0573027,0.0274447,-0.181899
0.0244062,0.240721,2.69374,-1.1564,0.0242842,-1.02414,-0.064258,-0.0144348,-0.264093
0.0301858,0.21759,2.67336,-1.07817,0.109722,-0.986112,-0.0532122,-0.0313608,-0.336143
0.036622,0.197267,2.65629,-0.881396,0.168682,-0.732343,-0.0623473,-0.0451906,-0.367632
0.0419945,0.181543,2.64428,-0.645808,0.122254,-0.542699,-0.131273,-0.0592141,-0.358442
0.0453776,0.169979,2.6337,-0.479621,0.049836,-0.578594,-0.21489,-0.0874911,-0.324188
0.04894,0.16074,2.62121,-0.390017,0.133567,-0.691397,-0.251064,-0.104249,-0.258702
0.0563078,0.153579,2.60726,-0.231883,0.389031,-0.70528,-0.254743,-0.0823149,-0.184326
0.0682448,0.150811,2.59393,0.0538962,0.562008,-0.611181,-0.25858,-0.0400678,-0.115672
0.0800288,0.154635,2.58257,0.425081,0.397718,-0.484887,-0.270808,-0.01517,-0.058811
0.0855434,0.166032,2.57276,0.777357,-0.0389928,-0.405033,-0.306432,0.0149868,0.00638461
0.0814856,0.183192,2.5624,0.986074,-0.541076,-0.503074,-0.358781,0.0497381,0.0627072
0.0701148,0.201598,2.54762,0.912493,-0.852127,-0.826358,-0.401402,0.0971473,0.11409
0.0556353,0.215303,2.52566,0.558627,-1.02206,-1.23172,-0.405595,0.144811,0.136685
0.0417871,0.220581,2.49607,0.114118,-0.975463,-1.61066,-0.358466,0.198029,0.121556
0.0321145,0.21814,2.4604,-0.198161,-0.738512,-1.8563,-0.282264,0.243362,0.0631853
0.0292449,0.211624,2.42139,-0.304807,-0.38401,-1.95048,-0.205575,0.275813,0.00667673
0.0325522,0.204997,2.38222,-0.211662,-0.130236,-1.88294,-0.146901,0.286282,-0.0306428
0.0382365,0.201745,2.34497,0.0303382,-0.0802695,-1.77834,-0.102409,0.274644,-0.0373856
0.0429958,0.203504,2.30952,0.273768,-0.165137,-1.68385,-0.0449947,0.231934,0.00340736
0.0459283,0.208737,2.27588,0.361362,-0.219285,-1.58247,-0.00257245,0.193126,0.0851109
0.0482946,0.213814,2.24411,0.270746,-0.194346,-1.49841,0.0305823,0.14682,0.159042
0.0515308,0.216327,2.21407,0.129896,-0.123686,-1.4131,0.0633095,0.0891093,0.191262
0.0556087,0.216509,2.18628,0.0402823,-0.0769464,-1.29882,0.0696342,0.0413597,0.18779
0.0594775,0.215501,2.1604,0.0139934,-0.0902378,-1.24072,0.0614851,0.00265495,0.163268
0.0630967,0.214452,2.13531,0.0373007,-0.0680771,-1.21263,0.0693405,-0.0416132,0.13558
0.0675665,0.213797,2.11082,0.0488115,0.00453911,-1.17608,0.0740977,-0.0588547,0.109402
0.0736815,0.21308,2.08719,0.0431663,0.113011,-1.12956,0.0798597,-0.0749671,0.072404
0.081555,0.212287,2.06453,0.0511903,0.171186,-1.08487,0.0805204,-0.0850798,0.023985
0.0888229,0.211735,2.04294,0.0779159,0.10546,-1.01918,0.0668698,-0.0866269,-0.0528282
0.0888229,0.211735,2.04294,0.0779159,0.10546,-1.01918,0.0668698,-0.0866269,-0.0528282
0.0951976,0.211914,2.02267,0.125546,0.12153,-0.957448,0.0347275,-0.0704759,-0.12015
0.103138,0.213354,2.00304,0.213184,0.304355,-0.952437,0.00179602,-0.0587688,-0.1619
0.1164,0.216131,1.98263,0.251367,0.526462,-1.00011,-0.00312998,-0.0771893,-0.133406
0.129256,0.21726,1.96218,0.0732966,0.222938,-0.955682,-0.0236478,-0.0757048,-0.132271
0.130897,0.212789,1.94269,-0.281026,-0.489181,-1.03604,-0.11693,-0.0505777,-0.221895
0.119172,0.201636,1.92047,-0.501708,-1.10151,-1.25147,-0.155696,-0.0531758,-0.379763
0.0999372,0.190323,1.89466,-0.263397,-1.1507,-1.37388,-0.134774,-0.0283681,-0.55323
0.0897936,0.188685,1.86673,0.37877,-0.303241,-1.3458,-0.129891,0.0518249,-0.547233
0.0989171,0.19957,1.83973,0.886398,0.629128,-1.18738,-0.139246,0.13024,-0.396603
0.121096,0.216519,1.81457,1.01699,0.986064,-1.09045,-0.145399,0.120669,-0.195677
0.146227,0.233729,1.78996,1.00608,0.933094,-1.0631,-0.181753,0.104516,-0.0201164
0.168026,0.250319,1.76468,1.03033,0.603148,-1.10704,-0.22132,0.123049,0.0813794
0.182266,0.267285,1.73775,1.08981,0.116913,-1.16233,-0.236438,0.128204,0.129454
0.187021,0.283813,1.70843,1.03398,-0.416567,-1.33315,-0.259671,0.154347,0.144472
0.184951,0.297008,1.67461,0.838925,-0.719316,-1.60986,-0.264744,0.177869,0.16464
0.180838,0.304164,1.63639,0.513716,-0.804392,-1.84212,-0.255705,0.195187,0.163805
0.176863,0.304171,1.5953,0.204361,-0.811541,-2.00311,-0.240849,0.225543,0.124851
0.173989,0.299141,1.5523,0.0352853,-0.76305,-2.12406,-0.216694,0.242057,0.0870976
0.172151,0.291192,1.50759,-0.0903529,-0.710072,-2.22409,-0.18585,0.251099,0.0689108
0.171442,0.280189,1.46207,-0.238018,-0.655133,-2.25253,-0.162455,0.244005,0.0343323
0.170173,0.267537,1.41749,-0.247614,-0.694976,-2.17242,-0.120833,0.243605,-0.0259615
0.16648,0.256885,1.37536,-0.105903,-0.759418,-2.00509,-0.0796165,0.244792,-0.0573403
0.160945,0.250167,1.33626,0.0485213,-0.753813,-1.84458,-0.0489398,0.219231,-0.0408428
0.154588,0.246072,1.29962,0.0842349,-0.802323,-1.73581,-0.0105563,0.160772,-0.00163478
0.145238,0.242079,1.26503,0.0108558,-0.979053,-1.64029,0.0419105,0.0842646,0.037433
0.131758,0.236704,1.2328,-0.110353,-1.10998,-1.54189,0.0790737,0.0293449,0.0569522
0.116489,0.229672,1.20238,-0.206784,-1.09693,-1.48752,0.113953,-0.0166353,0.0509738
0.102465,0.222138,1.17298,-0.218919,-0.949967,-1.44479,0.152073,-0.0654514,0.0357423
0.091371,0.215105,1.14442,-0.209929,-0.771735,-1.39264,0.186463,-0.0928244,0.0237057
0.0835595,0.208966,1.1173,-0.161593,-0.582962,-1.29405,0.222324,-0.117701,0.030451
0.0781364,0.204598,1.09225,-0.068647,-0.4975,-1.18598,0.25812,-0.147503,0.0462694
0.0729473,0.202768,1.06942,0.0503777,-0.492566,-1.04594,0.301139,-0.187092,0.0610297
0.0667532,0.203164,1.04978,0.109479,-0.515562,-0.869375,0.340216,-0.222211,0.0835598
0.0597604,0.203902,1.03356,0.0508173,-0.498581,-0.714933,0.338561,-0.233086,0.102994
0.0530296,0.202754,1.02017,-0.105837,-0.461316,-0.611242,0.301963,-0.23424,0.106587
0.0460414,0.198126,1.00858,-0.289725,-0.468908,-0.554347,0.269908,-0.24729,0.0743079
0.038907,0.19098,0.997919,-0.352182,-0.440533,-0.524632,0.246905,-0.253004,0.00771749
0.0330025,0.184544,0.987861,-0.226561,-0.325324,-0.480781,0.228687,-0.24268,-0.0739575
0.0293282,0.181904,0.979044,-0.00877564,-0.213698,-0.384456,0.220595,-0.234869,-0.12619
0.0267405,0.183323,0.972475,0.1549,-0.165514,-0.254715,0.218965,-0.236037,-0.147067
0.0247483,0.187227,0.968546,0.244695,-0.0927211,-0.127688,0.195505,-0.220939,-0.153854
0.0256279,0.192803,0.966777,0.303118,0.167753,-0.0431857,0.181347,-0.225458,-0.135077
0.0300126,0.19778,0.966347,0.149205,0.227366,0.00583683,0.1627,-0.264506,-0.141732
0.0344466,0.197264,0.965833,-0.212037,0.212415,-0.0833234,0.0470844,-0.218258,-0.191911
0.0392779,0.189935,0.962456,-0.468053,0.193913,-0.278846,-0.0224178,-0.198473,-0.282245
0.0436452,0.180256,0.955746,-0.416898,0.120714,-0.395363,-0.0102554,-0.150201,-0.375354
0.0485364,0.174547,0.948378,-0.0914999,0.285517,-0.322943,0.00637326,-0.0689372,-0.380551
0.0581032,0.176611,0.944009,0.309013,0.588675,-0.0752713,0.0314405,-0.00522923,-0.303715
0.0581032,0.176611,0.944009,0.309013,0.588675,-0.0752713,0.0314405,-0.00522923,-0.303715
0.0719096,0.185876,0.94479,0.573778,0.779933,0.202548,0.0326767,0.0127192,-0.161168
0.0868391,0.198615,0.949873,0.617414,0.792629,0.377327,-0.0214721,0.0306859,-0.0117566
0.0999828,0.210689,0.957466,0.504037,0.658343,0.46181,-0.110274,0.0687676,0.0829736
0.108757,0.220575,0.966452,0.398432,0.391719,0.512067,-0.179201,0.102549,0.118963
0.110663,0.229485,0.976354,0.400048,0.013175,0.541545,-0.226378,0.131956,0.102929
0.104644,0.239332,0.986228,0.474772,-0.36696,0.499878,-0.287908,0.183282,0.0779376
0.092948,0.249946,0.993891,0.486253,-0.585803,0.322466,-0.344416,0.224387,0.080222
0.0800575,0.258776,0.996852,0.346473,-0.611879,0.0289733,-0.362374,0.239235,0.110062
0.0692416,0.263187,0.993888,0.107715,-0.522838,-0.267432,-0.34047,0.245968,0.120967
0.0624743,0.262448,0.985959,-0.113616,-0.362739,-0.48852,-0.299386,0.256638,0.111441
0.059805,0.258488,0.974711,-0.189148,-0.207468,-0.598943,-0.22975,0.252522,0.0886759
0.0593637,0.254522,0.962319,-0.121948,-0.163798,-0.607979,-0.169402,0.244978,0.0796959
0.0592417,0.252406,0.950183,-0.0285082,-0.162922,-0.569182,-0.113682,0.219583,0.116961
0.0583772,0.251514,0.938939,-0.00798255,-0.193149,-0.518002,-0.0669607,0.177139,0.161162
0.0571585,0.250277,0.928626,-0.0727313,-0.195632,-0.494265,-0.0504189,0.141426,0.224235
0.0546342,0.246985,0.918432,-0.194361,-0.32041,-0.510533,-0.0406971,0.10349,0.234336
0.0503402,0.241852,0.90797,-0.267285,-0.362133,-0.540196,-0.0245167,0.0611106,0.23819
0.0450195,0.234656,0.896512,-0.410121,-0.425063,-0.612452,-0.0199519,0.0355632,0.220007
0.0400358,0.224256,0.883476,-0.572977,-0.356981,-0.694115,-0.00232551,-0.00950687,0.19653
0.0366448,0.210741,0.868876,-0.71958,-0.30857,-0.779631,0.017656,-0.027342,0.150499
0.0350162,0.195208,0.853244,-0.759005,-0.155942,-0.785472,0.0421329,-0.0464015,0.0859511
0.0358121,0.180017,0.838709,-0.694948,-0.059921,-0.678045,0.0676947,-0.0619814,0.031336
0.0367088,0.16736,0.827183,-0.510686,-0.0564331,-0.495824,0.088858,-0.0910498,-0.0183594
0.036419,0.159218,0.819264,-0.27376,-0.100563,-0.326735,0.0985406,-0.123665,-0.0397618
0.0356413,0.155479,0.813993,-0.0984772,-0.04564,-0.217055,0.0906353,-0.159386,-0.0314277
0.0361738,0.153953,0.810323,-0.0649707,0.0480728,-0.158396,0.0941141,-0.195027,-0.0130537
0.0385215,0.151749,0.80751,-0.157416,0.134477,-0.127818,0.111528,-0.235231,-0.0149565
0.0413638,0.147269,0.805533,-0.278373,0.0918044,-0.0846773,0.114674,-0.256995,-0.0590491
0.0418692,0.141124,0.804449,-0.317102,-0.0641881,-0.0534295,0.113466,-0.271408,-0.133444
0.0391447,0.135244,0.803407,-0.249212,-0.195647,-0.0800694,0.111918,-0.290369,-0.22504
0.0372871,0.131491,0.801154,-0.123936,0.0298114,-0.171607,0.119949,-0.299948,-0.273268
0.0406454,0.129215,0.796712,-0.112484,0.204257,-0.258965,0.145694,-0.290075,-0.29448
0.0448475,0.125901,0.7918,-0.203327,0.112116,-0.229603,0.172518,-0.265057,-0.318193
0.045679,0.121217,0.788261,-0.235253,-0.0608731,-0.136255,0.195669,-0.23081,-0.376018
0.0444629,0.117199,0.78695,-0.140712,-0.0138609,-0.00941517,0.199387,-0.194165,-0.426222
0.0475068,0.116674,0.788345,0.0978652,0.370942,0.149366,0.171202,-0.136077,-0.419296
0.0594145,0.121752,0.792657,0.379218,0.84976,0.301051,0.14037,-0.0887227,-0.343993
0.0777796,0.131673,0.799287,0.542317,1.00607,0.424454,0.116453,-0.0666442,-0.221294
0.095874,0.144501,0.808362,0.665185,0.915617,0.592525,0.0944337,-0.0460491,-0.115141
0.110842,0.160852,0.820614,0.845713,0.765751,0.782131,0.0593766,0.0128358,-0.033096
0.122074,0.181412,0.836076,1.00554,0.612934,0.973676,0.0390708,0.0661147,0.051786
0.12891,0.204498,0.855098,1.02164,0.427315,1.16443,0.0259047,0.0969658,0.127121
0.130136,0.226732,0.877991,0.876485,0.1726,1.33938,0.00337419,0.125887,0.164546
0.124607,0.245513,0.904552,0.646393,-0.110386,1.44088,-0.0407541,0.155163,0.161482
0.112586,0.25933,0.932706,0.408779,-0.363206,1.40407,-0.0926461,0.167032,0.115502
0.0975959,0.268536,0.959355,0.247389,-0.404584,1.24063,-0.129731,0.179535,0.0541004
0.0843478,0.274645,0.98264,0.164163,-0.279501,1.05426,-0.129918,0.198146,0.000695109
0.0843478,0.274645,0.98264,0.164163,-0.279501,1.05426,-0.129918,0.198146,0.000695109
0.0743405,0.279028,1.00307,0.126147,-0.174434,0.963169,-0.0851019,0.207734,-0.0348924
0.0660069,0.283196,1.02324,0.168039,-0.108845,1.0096,-0.0527573,0.21247,-0.0439682
0.0581455,0.289052,1.04473,0.296917,-0.0704065,1.08223,-0.0519177,0.221857,-0.0306084
0.0508437,0.297718,1.06713,0.442147,-0.0168893,1.0836,-0.0816671,0.222462,0.0243684
0.0443332,0.308076,1.08825,0.474311,-0.0105008,0.962538,-0.108318,0.209491,0.107378
0.0384903,0.317463,1.10635,0.378742,-0.00878296,0.79386,-0.12306,0.189217,0.184526
0.0338592,0.324037,1.12091,0.221094,0.00384795,0.612064,-0.116747,0.179815,0.238949
0.0303905,0.327122,1.13212,0.0535045,0.003789,0.461421,-0.111202,0.165298,0.266312
0.0275416,0.326853,1.14028,-0.0997206,-0.0387434,0.304488,-0.102374,0.146717,0.273511
0.024328,0.323577,1.14514,-0.23379,-0.129158,0.145388,-0.0861125,0.118741,0.259362
0.0206578,0.318008,1.14653,-0.319804,-0.186818,-0.0281178,-0.0676858,0.0938949,0.217052
0.0175107,0.31116,1.14476,-0.363239,-0.174804,-0.141343,-0.0333926,0.0819502,0.168172
0.015231,0.303368,1.14135,-0.424646,-0.160062,-0.186376,0.000739075,0.0733482,0.122453
0.0128398,0.293763,1.13745,-0.531771,-0.202741,-0.191324,0.0211578,0.0375724,0.0648397
0.00931718,0.282597,1.13392,-0.562446,-0.241227,-0.158719,0.0164431,-0.00215542,-0.0213508
0.0050907,0.271774,1.13021,-0.515551,-0.286975,-0.225142,-0.030737,5.4121e-05,-0.103016
0.000215805,0.261629,1.12409,-0.51321,-0.352276,-0.366306,-0.0562082,-0.0284243,-0.17377
-0.00359511,0.251005,1.11515,-0.547988,-0.214301,-0.486371,-0.0394558,-0.075154,-0.226122
-0.00167571,0.240246,1.1044,-0.531656,0.141167,-0.549309,-0.00558982,-0.109562,-0.24587
0.00523693,0.229374,1.09306,-0.555039,0.251761,-0.549013,-0.015964,-0.110462,-0.279485
0.0124751,0.218027,1.08166,-0.562123,0.204825,-0.589761,-0.0561095,-0.11031,-0.291191
0.0176599,0.207001,1.06879,-0.50949,0.0184876,-0.680378,-0.053308,-0.148951,-0.312974
0.0188489,0.197803,1.0549,-0.363803,-0.132173,-0.678471,-0.0415973,-0.157977,-0.347035
0.0196765,0.192694,1.04196,-0.114638,-0.00529905,-0.597743,-0.0515224,-0.133646,-0.344168
0.0233748,0.192709,1.03063,0.130685,0.147566,-0.521655,-0.0659698,-0.114405,-0.297084
0.0286832,0.196823,1.02025,0.291327,0.161122,-0.497262,-0.0920751,-0.107027,-0.217846
0.0339163,0.203327,1.00958,0.387436,0.16156,-0.532915,-0.127236,-0.0750185,-0.131652
0.0398585,0.211614,0.998124,0.481545,0.207675,-0.559088,-0.1646,-0.0258318,-0.0486724
0.0469148,0.221944,0.985991,0.602828,0.217674,-0.576194,-0.183427,0.0290258,0.0276816
0.052858,0.234736,0.973626,0.73021,0.0902078,-0.55919,-0.187066,0.0675163,0.083217
0.0553432,0.249077,0.961224,0.743864,-0.15364,-0.577532,-0.204975,0.117115,0.130498
0.053357,0.261963,0.947731,0.590015,-0.369817,-0.671023,-0.233992,0.165807,0.160996
0.0492669,0.270446,0.93175,0.330181,-0.436353,-0.836908,-0.258562,0.205683,0.175129
0.0463516,0.27339,0.911867,0.0611067,-0.377244,-1.05929,-0.247892,0.232277,0.162785
0.0463471,0.271318,0.888153,-0.146608,-0.257975,-1.20917,-0.208332,0.243053,0.127759
0.0486792,0.266083,0.863064,-0.23575,-0.187881,-1.21385,-0.159237,0.247909,0.0952725
0.0514922,0.260689,0.839023,-0.163889,-0.154725,-1.12707,-0.11397,0.236765,0.0760618
0.0540821,0.257781,0.816884,-0.0218618,-0.164023,-1.0299,-0.0848014,0.206336,0.0940539
0.0555572,0.257027,0.796458,0.0389875,-0.196802,-0.954156,-0.0693295,0.154918,0.145208
0.0566481,0.256379,0.776916,-0.011721,-0.188984,-0.948383,-0.0683323,0.106668,0.209614
0.0580688,0.25406,0.75726,-0.112008,-0.154815,-0.964936,-0.0513361,0.0546655,0.25495
0.0604956,0.24978,0.737621,-0.200637,-0.0927813,-0.956736,-0.0254404,0.0124952,0.27562
0.0633362,0.243778,0.718253,-0.284741,-0.113,-0.961126,-0.00919168,-0.0194025,0.276303
0.0648016,0.235873,0.698968,-0.381337,-0.197675,-0.946904,0.0217994,-0.0650297,0.25326
0.0642779,0.226644,0.680948,-0.414724,-0.251398,-0.850496,0.0699621,-0.117363,0.211443
0.0628815,0.217465,0.665388,-0.40592,-0.218105,-0.723685,0.0953477,-0.138752,0.151184
0.0624817,0.208818,0.652378,-0.3774,-0.0794128,-0.606279,0.097851,-0.170626,0.0873755
0.0641375,0.200888,0.641222,-0.353703,-0.00727111,-0.539211,0.107148,-0.206649,0.0202639
0.0641375,0.200888,0.641222,-0.353703,-0.00727111,-0.539211,0.107148,-0.206649,0.0202639
0.0654908,0.193055,0.631416,-0.373961,-0.066121,-0.472249,0.127056,-0.236517,-0.0488337
0.0646717,0.184614,0.622978,-0.411269,-0.173897,-0.413602,0.134561,-0.255902,-0.133946
0.0623256,0.176017,0.615742,-0.385023,-0.150367,-0.357468,0.136446,-0.261551,-0.236387
0.0627019,0.169039,0.608883,-0.269061,0.0613575,-0.364027,0.135589,-0.251015,-0.313187
0.0657674,0.163682,0.601936,-0.248096,0.0939037,-0.340137,0.14428,-0.222668,-0.367702
0.0673844,0.157708,0.596287,-0.30963,-0.0243226,-0.252673,0.15593,-0.204822,-0.423663
0.0662197,0.151182,0.592544,-0.296498,-0.134807,-0.161051,0.164198,-0.182035,-0.489708
0.0641407,0.146553,0.590338,-0.133463,-0.0620563,-0.0805359,0.166632,-0.145673,-0.530088
0.0650778,0.146269,0.589842,0.119589,0.168075,0.0367853,0.149484,-0.0772747,-0.526643
0.0705536,0.151917,0.591882,0.433723,0.392744,0.213479,0.15163,-0.0232729,-0.455825
0.0788408,0.164062,0.597722,0.731179,0.513798,0.469929,0.175411,0.00606944,-0.315
0.0879298,0.18261,0.608859,1.01274,0.578499,0.782393,0.168099,0.0417038,-0.131022
0.0965866,0.206577,0.62562,1.20646,0.618135,1.06801,0.127767,0.092089,0.0688273
0.104802,0.233807,0.647074,1.26087,0.661325,1.26932,0.0911373,0.124718,0.258409
0.111719,0.260132,0.671703,1.05524,0.614486,1.3764,0.0713259,0.13732,0.392659
0.115028,0.280385,0.698944,0.637667,0.406387,1.46517,0.0760632,0.129005,0.448999
0.110895,0.292007,0.729383,0.184716,0.00428121,1.56258,0.0787095,0.12189,0.414249
0.095838,0.295026,0.762655,-0.194075,-0.547325,1.63318,0.0687977,0.138299,0.30006
0.0706473,0.291529,0.797525,-0.411354,-0.918789,1.64755,0.0465256,0.164538,0.13956
0.0408617,0.284201,0.831875,-0.481457,-1.04369,1.59073,0.0324131,0.170848,-0.0323703
0.0125354,0.276156,0.864294,-0.378867,-0.832623,1.4997,0.035532,0.169098,-0.171785
-0.00769955,0.271145,0.894821,-0.0984899,-0.331018,1.44927,0.0314813,0.18768,-0.265827
-0.016767,0.27262,0.925164,0.279,0.182982,1.47876,0.0296969,0.212874,-0.265231
-0.0201644,0.280458,0.956577,0.533646,0.274668,1.52038,0.0311245,0.202882,-0.189932
-0.024673,0.291408,0.988195,0.599965,0.161228,1.46849,0.00228338,0.176172,-0.0734115
-0.0310325,0.302384,1.01759,0.564192,0.073769,1.28885,-0.0387091,0.165031,0.0160439
-0.0367142,0.311943,1.04221,0.458669,0.112628,1.01728,-0.0545583,0.161965,0.0822318
-0.0392845,0.318683,1.06113,0.273572,0.217718,0.762587,-0.0492662,0.148689,0.122714
-0.0383642,0.321579,1.07455,0.0704777,0.301325,0.502881,-0.0393713,0.136119,0.138393
-0.0349739,0.320983,1.08267,-0.0986062,0.27376,0.270247,-0.0142282,0.122675,0.13876
-0.0305542,0.317853,1.08597,-0.19522,0.284117,0.0628752,0.0114716,0.108868,0.119052
-0.0245199,0.313317,1.08541,-0.253894,0.304019,-0.0945853,0.0433129,0.103611,0.0870473
-0.016686,0.307998,1.08249,-0.283826,0.400717,-0.155995,0.0885166,0.0977685,0.0620626
-0.00676457,0.30192,1.07936,-0.330983,0.492836,-0.120695,0.122212,0.0909637,0.0429565
0.00423269,0.295324,1.07776,-0.31379,0.550337,-0.0274873,0.139673,0.0668675,0.0261726
0.0156684,0.290022,1.07819,-0.212618,0.603298,0.0604309,0.13495,0.045708,0.0174463
0.026785,0.286583,1.07996,-0.151857,0.540842,0.101672,0.122931,0.0187757,0.0304502
0.0361782,0.28324,1.08261,-0.222339,0.504349,0.147561,0.131134,-0.0307741,0.0629814
0.0440002,0.276474,1.0865,-0.489913,0.340489,0.186467,0.132428,-0.0713952,0.0632809
0.0467807,0.263327,1.09082,-0.861964,-0.00137085,0.133555,0.0435935,-0.0445153,-0.00302577
0.0420797,0.241789,1.09259,-1.27732,-0.356114,-0.0635038,0.0071453,-0.0598461,-0.119685
0.0362455,0.213999,1.09113,-1.43324,-0.202904,-0.151123,0.0510606,-0.104816,-0.213851
0.0368071,0.187233,1.09057,-1.17277,0.304022,0.047948,0.126106,-0.0854658,-0.297699
0.0476659,0.169336,1.09694,-0.617968,0.830767,0.536831,0.167664,-0.0492759,-0.292065
0.0624005,0.163584,1.11406,-0.0808387,0.844657,1.10885,0.181255,-0.0660265,-0.190243
0.0710877,0.166694,1.14096,0.167833,0.37538,1.53642,0.129221,-0.102555,-0.0536139
0.0645715,0.173114,1.17503,0.229905,-0.437404,1.83895,0.075888,-0.121908,-0.00312948
0.043494,0.18008,1.21354,0.248496,-0.936591,1.93257,-0.0197975,-0.120422,0.00647378
0.043494,0.18008,1.21354,0.248496,-0.936591,1.93257,-0.0197975,-0.120422,0.00647378
0.0151015,0.186011,1.25124,0.237508,-1.16503,1.75706,-0.112375,-0.0900995,-0.0478035
-0.0135952,0.19082,1.28411,0.242651,-1.02953,1.45993,-0.118961,-0.0922572,-0.0898817
-0.0351428,0.195233,1.31108,0.271463,-0.564616,1.18847,-0.0998093,-0.0480399,-0.107463
-0.0445101,0.200531,1.33377,0.357678,0.0672255,1.03536,-0.0617429,0.0122084,-0.0780774
-0.0428276,0.207659,1.35478,0.437333,0.459324,0.995865,-0.0225279,0.0603415,-0.0138666
-0.0383847,0.215912,1.37539,0.459354,0.35474,0.986438,-0.00748336,0.0841573,0.0486479
-0.0390358,0.224253,1.39604,0.447296,0.0225677,0.995188,0.0110864,0.0951503,0.0776572
-0.0457629,0.231826,1.41661,0.384801,-0.187366,0.961657,-0.00186357,0.13158,0.0806433
-0.0534989,0.237238,1.43551,0.229835,-0.110453,0.832266,-0.0198017,0.150775,0.0836374
-0.05737,0.238649,1.45085,-0.0107598,0.0932224,0.645021,-0.0138055,0.144868,0.0727817
-0.056457,0.235502,1.46237,-0.220949,0.249697,0.508138,0.0225666,0.135904,0.0398482
-0.0532162,0.229802,1.47212,-0.271626,0.278696,0.49043,0.0718275,0.131715,-0.00950891
-0.0501335,0.224779,1.48263,-0.159246,0.279874,0.570654,0.115853,0.131445,-0.0451192
-0.0470157,0.22284,1.4957,0.0226234,0.338095,0.714192,0.150054,0.120811,-0.0404677
-0.0424015,0.223909,1.51206,0.141293,0.503122,0.872995,0.153559,0.113767,0.00661594
-0.0348303,0.226182,1.53121,0.139295,0.668445,0.970252,0.144059,0.0861052,0.0810859
-0.0254192,0.227625,1.55155,0.05256,0.720083,1.00147,0.142162,0.0448326,0.14337
-0.0159913,0.227112,1.57225,-0.065223,0.679625,1.01359,0.141694,0.0151735,0.171797
-0.00770929,0.224097,1.59324,-0.218487,0.599959,1.04521,0.174158,-0.00714411,0.17684
-0.00166028,0.217949,1.61558,-0.38401,0.513345,1.14272,0.215366,-0.030202,0.133614
0.00327594,0.209057,1.64037,-0.491434,0.517335,1.2855,0.234634,-0.0308051,0.0437889
0.00825038,0.199387,1.66845,-0.474671,0.546112,1.4691,0.244934,-0.011343,-0.0696499
0.0135421,0.191446,1.70087,-0.33969,0.609819,1.71165,0.241314,0.0120404,-0.169361
0.0190523,0.187303,1.73846,-0.128444,0.653331,1.97253,0.22289,0.0436618,-0.240096
0.0243501,0.188163,1.78129,0.124767,0.660078,2.23214,0.193886,0.0653661,-0.294599
0.028379,0.194557,1.82892,0.38921,0.650236,2.45412,0.162422,0.0737486,-0.313359
0.0317277,0.206186,1.88041,0.605731,0.71399,2.60963,0.120713,0.0872817,-0.287192
0.0344102,0.220964,1.93413,0.66424,0.65469,2.67523,0.0706048,0.0941705,-0.230885
0.0330115,0.23521,1.98872,0.56388,0.43874,2.67961,0.0212785,0.10147,-0.194156
0.027565,0.247271,2.043,0.503595,0.34604,2.6115,-0.0205129,0.112739,-0.179344
0.0219946,0.259511,2.09556,0.619485,0.442719,2.50531,-0.0327615,0.136857,-0.147259
0.0196572,0.27447,2.14628,0.754874,0.663795,2.4289,-0.018615,0.168345,-0.0406687
0.0203475,0.290291,2.19636,0.701139,0.758867,2.42105,0.0108702,0.174995,0.100815
0.01923,0.303466,2.24689,0.510004,0.569987,2.43367,0.0428375,0.151598,0.200178
0.0121136,0.312438,2.29763,0.313848,0.251026,2.40091,0.0620205,0.125205,0.232004
-0.00103755,0.31747,2.34724,0.170177,-0.00334109,2.31142,0.0722442,0.113144,0.212815
-0.0166878,0.319401,2.39439,0.0604501,-0.0619329,2.15336,0.0750318,0.106005,0.176922
-0.0309123,0.318327,2.4375,-0.077721,0.00822986,1.94179,0.0861173,0.107747,0.136929
-0.0419919,0.313679,2.47634,-0.252528,0.0920879,1.77856,0.126586,0.105054,0.0903656
-0.0504004,0.305559,2.51269,-0.382007,0.175635,1.72929,0.182109,0.106017,0.0359335
-0.0572809,0.295517,2.54842,-0.41982,0.177411,1.74239,0.228611,0.110738,-0.0255385
-0.0648604,0.285274,2.58484,-0.37846,0.108016,1.81561,0.27382,0.104296,-0.0995008
-0.0738248,0.276075,2.62333,-0.272197,0.0700252,1.9362,0.283108,0.116927,-0.168448
-0.0833285,0.269116,2.66412,-0.102697,0.0866057,2.02875,0.274053,0.121623,-0.218172
-0.0923492,0.265422,2.70634,0.0930254,0.11881,2.05266,0.25621,0.107028,-0.230475
-0.101101,0.265063,2.7488,0.253157,0.126389,2.02276,0.242058,0.08567,-0.21072
-0.10883,0.266668,2.79039,0.310016,0.197757,1.94069,0.210291,0.0797418,-0.155082
-0.10883,0.266668,2.79039,0.310016,0.197757,1.94069,0.210291,0.0797418,-0.155082
-0.114215,0.268366,2.82971,0.276369,0.306497,1.8021,0.183999,0.0712631,-0.101723
-0.116334,0.269456,2.86563,0.233964,0.426808,1.61833,0.154196,0.0639516,-0.0559966
-0.115822,0.270358,2.89746,0.219422,0.470606,1.42528,0.147437,0.0662407,-0.0215105
-0.113871,0.271688,2.92601,0.226573,0.474668,1.30108,0.166174,0.0706808,0.0256992
-0.1114,0.273204,2.95245,0.202466,0.500827,1.2171,0.186499,0.074322,0.066394
-0.107281,0.273995,2.97709,0.13152,0.579078,1.13401,0.194084,0.0758316,0.0986731
-0.101131,0.273259,2.99994,0.027405,0.63547,1.06917,0.209396,0.0695991,0.109207
-0.094527,0.270727,3.02143,-0.068528,0.594536,1.01778,0.221259,0.0568154,0.0985876
-0.0888237,0.266867,3.04195,-0.129507,0.521823,0.993677,0.23048,0.0521169,0.072753
-0.0840347,0.261985,3.06223,-0.188446,0.501821,1.00285,0.222872,0.060268,0.0444395
-0.0789813,0.256086,3.08248,-0.241374,0.523557,0.992785,0.218508,0.0469818,0.0147576
-0.073226,0.249214,3.10234,-0.296596,0.554003,0.980542,0.209374,0.0304103,-0.0252203
-0.066549,0.241882,3.12222,-0.284781,0.603568,0.994244,0.185093,0.0125557,-0.0739543
-0.0588725,0.235939,-3.14059,-0.170957,0.628387,1.02483,0.16875,0.00104406,-0.119141
-0.0515007,0.232959,-3.11911,-0.00231168,0.619817,1.08502,0.154915,-0.0146105,-0.152952
-0.0438557,0.233658,-3.09601,0.170993,0.672843,1.15,0.126207,-0.0192406,-0.14432
-0.0357554,0.237255,-3.07188,0.263317,0.6975,1.17429,0.0949881,-0.0313371,-0.110925
-0.0277879,0.241505,-3.04785,0.212472,0.645026,1.13526,0.0691686,-0.05617,-0.0605083
-0.0215248,0.243683,-3.02525,0.0478492,0.53912,1.05325,0.0352915,-0.0657895,-0.0515889
-0.0162204,0.242742,-3.00445,-0.0946193,0.498454,0.963596,-0.00456532,-0.0714633,-0.0787921
-0.0106166,0.239759,-2.98608,-0.167218,0.511364,0.818398,-0.0353873,-0.0775336,-0.126652
-0.00342969,0.236101,-2.97087,-0.18211,0.576145,0.671081,-0.036613,-0.08353,-0.165337
0.00586091,0.232634,-2.95783,-0.161256,0.662978,0.615005,-0.019085,-0.0688208,-0.187202
0.0169171,0.230193,-2.94481,-0.0853507,0.732751,0.66065,0.00640284,-0.0431667,-0.1871
0.0285816,0.230055,-2.93017,0.0475052,0.758668,0.771876,0.0192333,-0.015621,-0.168025
0.0399279,0.233209,-2.91292,0.214143,0.76809,0.924651,0.0107696,0.0195227,-0.124693
0.0503251,0.239997,-2.89257,0.367265,0.730811,1.08004,-0.0280186,0.0631544,-0.0667105
0.0580183,0.249628,-2.86941,0.462358,0.589335,1.21187,-0.0600642,0.0940588,-0.0163449
0.0617525,0.260583,-2.84401,0.470527,0.41688,1.29478,-0.0926803,0.111236,0.0331696
0.0615618,0.27088,-2.8177,0.389674,0.262668,1.29413,-0.128738,0.128114,0.059382
0.0588104,0.279015,-2.79208,0.263163,0.159533,1.20446,-0.170395,0.143817,0.0716496
0.0543174,0.283911,-2.76884,0.0974419,0.0371169,1.05058,-0.199975,0.15708,0.0612127
0.0487231,0.28557,-2.74866,-0.0181878,-0.0316968,0.896325,-0.203958,0.162945,0.0418892
0.0426767,0.285559,-2.73141,-0.0420273,-0.0655743,0.76644,-0.178036,0.173708,0.0236636
0.0382294,0.285639,-2.71622,-0.00899381,0.080416,0.700378,-0.139912,0.173113,0.0377298
0.0380729,0.285906,-2.70203,-0.035832,0.283814,0.663967,-0.124089,0.185088,0.0937516
0.0406207,0.284646,-2.68826,-0.147334,0.329823,0.652139,-0.101704,0.156321,0.147583
0.042508,0.281389,-2.67449,-0.225463,0.223263,0.648245,-0.0784673,0.104976,0.184
0.0418654,0.277056,-2.66121,-0.255126,0.0919564,0.611221,-0.0668227,0.0725366,0.195183
0.0394912,0.27236,-2.6485,-0.270394,0.0279171,0.59445,-0.0506293,0.0418175,0.202424
0.0365435,0.266882,-2.63634,-0.331603,0.00549001,0.55225,-0.0280703,0.00627866,0.205455
0.0342553,0.259645,-2.62535,-0.433853,0.0653433,0.482785,-0.0139661,-0.0313947,0.187579
0.0338109,0.250189,-2.61574,-0.537837,0.119663,0.421379,0.0103388,-0.0649742,0.153554
0.0339671,0.239294,-2.60658,-0.564594,0.115878,0.440171,0.0541653,-0.098387,0.105223
0.0335786,0.229037,-2.59638,-0.472997,0.0861688,0.527588,0.090687,-0.11726,0.0344175
0.0326378,0.221897,-2.58398,-0.273756,0.10261,0.651894,0.110212,-0.128491,-0.0215893
0.0314012,0.218725,-2.56963,-0.095496,0.0895491,0.732887,0.119468,-0.14271,-0.0552969
0.0306888,0.218838,-2.55397,0.0535454,0.186749,0.787752,0.124207,-0.163581,-0.0698873
0.0306888,0.218838,-2.55397,0.0535454,0.186749,0.787752,0.124207,-0.163581,-0.0698873
0.0319478,0.221506,-2.53765,0.157632,0.294034,0.807072,0.122143,-0.15939,-0.0810977
0.035078,0.225682,-2.52117,0.19703,0.374,0.817269,0.134062,-0.169295,-0.0884732
0.0388897,0.230381,-2.5041,0.215072,0.382863,0.866704,0.146458,-0.164061,-0.11491
0.0419597,0.236038,-2.48575,0.286886,0.349063,0.934823,0.139712,-0.14397,-0.159245
0.0450828,0.243208,-2.46676,0.334402,0.417041,0.92515,0.130209,-0.138379,-0.176473
0.0491655,0.250038,-2.44876,0.252032,0.43504,0.84996,0.130453,-0.147838,-0.197643
0.0529061,0.254044,-2.43268,0.0453809,0.27708,0.711685,0.0902496,-0.117866,-0.22861
0.051609,0.253118,-2.41935,-0.188502,-0.0388435,0.584199,0.0981442,-0.107822,-0.342189
0.0464698,0.248599,-2.40798,-0.287926,-0.116767,0.501144,0.113819,-0.0844589,-0.443043
0.043985,0.24406,-2.39752,-0.171869,0.183832,0.507031,0.088329,0.00578952,-0.488185
0.0498042,0.24352,-2.38615,0.0762033,0.658142,0.615176,0.0798286,0.0834662,-0.431602
0.0626915,0.248463,-2.37132,0.334961,0.933356,0.856183,0.102695,0.111653,-0.31255
0.0770455,0.258728,-2.35177,0.55319,0.958614,1.10453,0.0975896,0.131324,-0.147846
0.0889456,0.273442,-2.3279,0.707658,0.834824,1.29875,0.0578434,0.154722,0.0340225
0.0967971,0.290746,-2.30109,0.764984,0.711045,1.41926,0.0176549,0.171417,0.192224
0.101955,0.308514,-2.27252,0.704015,0.642537,1.46275,-0.00197205,0.173074,0.322716
0.10392,0.323342,-2.24326,0.454653,0.450831,1.45987,0.00471596,0.163013,0.394327
0.0999665,0.331784,-2.21288,0.0840833,0.110476,1.49282,0.0376618,0.135987,0.414177
0.088246,0.333238,-2.18087,-0.199202,-0.21693,1.52933,0.0704338,0.113664,0.346127
0.0707482,0.330351,-2.14806,-0.317933,-0.438987,1.53714,0.0774049,0.12746,0.228673
0.0506478,0.325475,-2.11508,-0.357484,-0.489755,1.54985,0.0912225,0.140362,0.12942
0.0308657,0.319332,-2.08206,-0.377686,-0.423458,1.55194,0.103405,0.129225,0.0409884
0.0133715,0.312377,-2.04955,-0.38794,-0.324796,1.52031,0.116381,0.120294,-0.0351126
-0.00221247,0.304821,-2.01761,-0.371425,-0.25466,1.52891,0.129415,0.111966,-0.0939379
-0.0161127,0.298123,-1.98527,-0.251097,-0.178097,1.56861,0.138952,0.112208,-0.125976
-0.028197,0.294742,-1.95204,-0.00316662,-0.0596118,1.61288,0.129791,0.114193,-0.113831
-0.0383258,0.296001,-1.9183,0.209295,0.00685882,1.59636,0.118605,0.0997574,-0.0574059
-0.0479104,0.29923,-1.88565,0.215449,-0.00149383,1.49815,0.107348,0.0567172,0.018783
-0.0567691,0.300725,-1.8559,0.0621501,-0.0161705,1.32068,0.0873191,0.0287723,0.0847478
-0.0647884,0.298548,-1.83059,-0.125602,-0.0210598,1.10202,0.0799304,0.00983077,0.108743
-0.0706512,0.293353,-1.81022,-0.250263,0.0312257,0.881693,0.0929826,-0.00324088,0.113629
-0.0743002,0.286732,-1.79424,-0.288941,0.0616526,0.704476,0.113895,-0.0106073,0.0928642
-0.0764738,0.280247,-1.78139,-0.264414,0.0736481,0.586199,0.123803,-0.0162385,0.0654173
-0.0787451,0.27449,-1.77051,-0.225173,-0.0223705,0.51502,0.141194,-0.0259105,0.0200056
-0.0829708,0.269916,-1.76039,-0.145465,-0.123352,0.493911,0.146342,-0.0417448,-0.0290548
-0.0879502,0.267097,-1.75099,-0.0658516,-0.102845,0.4186,0.121084,-0.0448444,-0.0619988
-0.0902158,0.265593,-1.74366,-0.0278487,0.0934435,0.290028,0.0897117,-0.0418703,-0.0881966
-0.0867737,0.264669,-1.73937,-0.0439223,0.35596,0.141175,0.0720962,-0.0524513,-0.0946962
-0.0781142,0.263083,-1.73737,-0.0990437,0.541978,0.071744,0.0656453,-0.0599642,-0.0951671
-0.0663559,0.260766,-1.73636,-0.11298,0.659637,0.0440892,0.0594269,-0.0751716,-0.084716
-0.0538643,0.258184,-1.73579,-0.159257,0.534682,0.0296174,0.0582336,-0.102585,-0.0612957
-0.0458582,0.253638,-1.7359,-0.311651,0.266352,-0.0321117,0.0154906,-0.113422,-0.0663522
-0.0418373,0.245102,-1.73889,-0.557446,0.0928399,-0.231703,-0.0486583,-0.100179,-0.10616
-0.0377611,0.232098,-1.74616,-0.747377,0.176463,-0.410402,-0.0562167,-0.12049,-0.171307
-0.0294606,0.217243,-1.75581,-0.727802,0.452124,-0.451378,-0.0498035,-0.0938189,-0.226534
-0.0162829,0.20501,-1.76434,-0.494507,0.63222,-0.332512,-0.0326275,-0.0656946,-0.235564
-0.00312459,0.198301,-1.76937,-0.178537,0.562867,-0.156193,-0.0404852,-0.0546742,-0.222102
-0.00312459,0.198301,-1.76937,-0.178537,0.562867,-0.156193,-0.0404852,-0.0546742,-0.222102
0.00667768,0.197389,-1.77138,0.0702894,0.381245,-0.0533421,-0.0775166,-0.0410878,-0.166992
0.0135226,0.200342,-1.77227,0.211261,0.302842,-0.0386029,-0.124809,-0.0187084,-0.0984601
0.0200621,0.205491,-1.7733,0.303209,0.350505,-0.0532504,-0.160752,0.0246043,-0.0428119
0.0280336,0.21216,-1.77454,0.35959,0.404793,-0.0471657,-0.184597,0.0682986,0.0128236
0.0355925,0.21951,-1.77555,0.367246,0.310293,-0.0309418,-0.197542,0.0902646,0.0550217
0.0398015,0.22659,-1.77652,0.333983,0.0774685,-0.0584643,-0.227632,0.102799,0.0797304
0.0393944,0.232514,-1.77932,0.258874,-0.175182,-0.214213,-0.252039,0.115068,0.0891566
0.0359599,0.23605,-1.78635,0.111641,-0.308364,-0.46438,-0.25604,0.122749,0.0882638
0.0331816,0.236313,-1.79812,-0.0426203,-0.226695,-0.664358,-0.222714,0.138142,0.0749441
0.0330371,0.234003,-1.81268,-0.131742,-0.13486,-0.736421,-0.160167,0.150208,0.0605788
0.0342228,0.230966,-1.82731,-0.10785,-0.0863428,-0.682512,-0.0942512,0.126531,0.0405943
0.0358712,0.229372,-1.84039,-0.000921442,-0.0738373,-0.596909,-0.0617492,0.11059,0.0472034
0.0365756,0.230439,-1.85189,0.150524,-0.10951,-0.520247,-0.0498067,0.0928306,0.0552058
0.0365858,0.234304,-1.8623,0.261418,-0.136593,-0.482736,-0.0499214,0.0730934,0.0862525
0.0362455,0.23949,-1.87231,0.275882,-0.115259,-0.472935,-0.0422529,0.0526214,0.128521
0.0370689,0.244071,-1.88216,0.208066,-0.0301541,-0.465506,-0.0341615,0.0234235,0.166626
0.0395701,0.247009,-1.89178,0.122687,0.0362634,-0.455123,-0.0303634,-0.0085012,0.185732
0.0429759,0.248484,-1.90147,0.0613806,0.0563201,-0.478448,-0.0318012,-0.0312562,0.184654
0.0464946,0.248809,-1.91155,0.017284,0.0452518,-0.495757,-0.0236996,-0.0538147,0.166386
0.0499628,0.248376,-1.92194,-0.0162019,0.0414781,-0.51756,-0.0207758,-0.0712475,0.136621
0.0536803,0.247407,-1.9329,-0.0161507,0.0694212,-0.542493,-0.0073735,-0.0829595,0.0818015
0.0580513,0.247177,-1.94369,0.0597614,0.0941162,-0.488175,0.0288429,-0.0877454,0.0165425
0.0617674,0.248865,-1.95265,0.162186,0.054677,-0.364027,0.0301851,-0.0586277,-0.0503711
0.0636374,0.252545,-1.95938,0.22776,-0.0510823,-0.282997,-0.00467718,-0.0337771,-0.117008
0.0634972,0.256438,-1.96571,0.186656,-0.0824116,-0.310648,-0.0216456,-0.0289865,-0.17793
0.0658421,0.258753,-1.97295,0.0879724,0.17012,-0.374965,-0.0147761,-0.0557096,-0.21701
0.0744184,0.259215,-1.98125,0.0125153,0.447435,-0.410219,0.0029023,-0.0712537,-0.240094
0.0855548,0.257909,-1.98911,-0.0852342,0.410745,-0.348888,0.0229971,-0.0737222,-0.238027
0.0930889,0.25438,-1.99572,-0.227549,0.137594,-0.344196,0.0164058,-0.0979025,-0.230768
0.094179,0.247256,-2.00354,-0.400232,-0.198099,-0.48485,-0.00881287,-0.118491,-0.272594
0.0909503,0.237317,-2.01403,-0.477311,-0.345264,-0.609966,-0.00252493,-0.0896116,-0.297655
0.0869287,0.226988,-2.02603,-0.420282,-0.316412,-0.623588,0.0328852,-0.0391922,-0.304096
0.084266,0.219808,-2.03717,-0.176682,-0.171844,-0.504287,0.0681121,-0.00720786,-0.256726
0.0844802,0.218783,-2.04577,0.156584,0.0192427,-0.340745,0.070952,0.034486,-0.173498
0.0881464,0.225218,-2.05206,0.523306,0.214465,-0.211306,0.061896,0.0602479,-0.0664381
0.0941084,0.238164,-2.0557,0.76952,0.27297,-0.0296826,0.0610877,0.065753,0.0417983
0.0985594,0.254153,-2.0569,0.790577,0.103951,0.0534687,0.0566928,0.065024,0.14276
0.0979843,0.268495,-2.05713,0.615207,-0.153642,0.0514437,0.0562359,0.0292421,0.193738
0.0936118,0.27832,-2.05794,0.368655,-0.276899,-0.0478227,0.0349846,0.0147459,0.199923
0.0890668,0.28339,-2.06078,0.174806,-0.251381,-0.169483,0.0140099,0.0434973,0.174218
0.0860093,0.285725,-2.06547,0.113391,-0.180562,-0.247631,0.0126875,0.0615009,0.12127
0.0844204,0.287523,-2.07146,0.118175,-0.171656,-0.302093,0.0406317,0.0639883,0.0916426
0.0819888,0.289295,-2.07795,0.117828,-0.262017,-0.288503,0.0632756,0.0658396,0.0727947
0.0776656,0.291325,-2.08333,0.13433,-0.302642,-0.201479,0.0751873,0.0622918,0.0631463
0.0725573,0.294251,-2.08668,0.188659,-0.304671,-0.0931967,0.0746956,0.0727529,0.0567662
0.0672625,0.299219,-2.08783,0.312419,-0.242641,0.0222216,0.0588368,0.0666859,0.0626286
0.0625276,0.306519,-2.08683,0.384058,-0.220707,0.109062,0.0521505,0.0600426,0.0836524
0.0568904,0.314187,-2.08441,0.360134,-0.270016,0.158804,0.0495156,0.0289683,0.0913092
0.0568904,0.314187,-2.08441,0.360134,-0.270016,0.158804,0.0495156,0.0289683,0.0913092
0.0504905,0.321285,-2.08145,0.336687,-0.255751,0.154967,0.0444748,0.0106709,0.0824175
0.0452387,0.32825,-2.07854,0.344463,-0.177058,0.154504,0.0441664,4.47631e-05,0.0839911
0.0412012,0.335181,-2.07523,0.325362,-0.1392,0.192613,0.0604374,-0.0187314,0.0963967
0.0363024,0.341302,-2.0709,0.266263,-0.219314,0.234302,0.0708405,-0.047915,0.0918605
0.0297173,0.346131,-2.06615,0.205391,-0.268453,0.220809,0.0726657,-0.0722836,0.0708921
0.0228213,0.34979,-2.06217,0.142773,-0.298738,0.161232,0.0763867,-0.08392,0.0424563
0.0151911,0.351555,-2.05962,0.0251192,-0.372996,0.0791338,0.0845545,-0.0934317,0.00390029
0.00718704,0.350935,-2.05863,-0.0744602,-0.378585,0.0210977,0.0994675,-0.0950209,-0.0406784
0.00101879,0.349264,-2.05836,-0.0699405,-0.1733,0.0150601,0.112461,-0.0776392,-0.0819058
4.27035e-05,0.34845,-2.05784,-0.0218412,0.0442939,0.0338862,0.145773,-0.103597,-0.095009
0.000666243,0.347183,-2.05733,-0.139721,-0.0202866,-0.00213054,0.123336,-0.068182,-0.108112
-0.0018593,0.342057,-2.05829,-0.361404,-0.265052,-0.0784426,0.121411,-0.0498895,-0.160169
-0.0075889,0.333915,-2.05996,-0.424524,-0.314899,-0.0652597,0.139677,-0.0518642,-0.220727
-0.0117272,0.326359,-2.06067,-0.306789,-0.0923344,0.0249085,0.126449,0.0056546,-0.255165
-0.0112791,0.322062,-2.05843,-0.121804,0.171883,0.196159,0.102389,0.0378516,-0.220451
-0.00931836,0.320915,-2.05306,-0.0102114,0.15645,0.285212,0.063591,0.038,-0.169121
-0.00960026,0.320344,-2.04754,-0.0606685,-0.0183149,0.223135,0.0111411,0.0372745,-0.110899
-0.0114493,0.318518,-2.04346,-0.0947797,0.024966,0.18798,0.00447974,0.0511661,-0.0729142
-0.00956182,0.317714,-2.03875,0.0382951,0.331822,0.273096,0.00421558,0.0841394,-0.0297361
-0.00286964,0.320258,-2.03166,0.21283,0.509983,0.400059,-0.00168606,0.110176,0.0308765
0.00305181,0.325369,-2.02214,0.275202,0.340697,0.489413,-0.0188982,0.0948966,0.0868717
0.00357409,0.330189,-2.01189,0.179034,0.021735,0.459099,-0.0539792,0.0851474,0.122946
-0.00135791,0.331963,-2.00345,-0.0114645,-0.208296,0.336445,-0.0532359,0.0674762,0.121063
-0.00748356,0.329773,-1.9973,-0.196523,-0.158311,0.259909,-0.057617,0.086066,0.0922685
-0.0103625,0.32468,-1.99197,-0.29189,0.035743,0.262914,-0.0525876,0.108755,0.0552458
-0.0104456,0.318942,-1.98598,-0.253175,0.124897,0.316725,-0.0320278,0.0896237,0.0139081
-0.0101392,0.315303,-1.97885,-0.0885188,0.119026,0.361064,-0.0168958,0.0663609,-0.00581312
-0.0102035,0.315592,-1.97087,0.122161,0.143668,0.404146,-0.00761931,0.060059,0.0190142
-0.00925181,0.319242,-1.96175,0.225222,0.226717,0.459386,0.00284857,0.0541573,0.0865638
-0.00782288,0.323252,-1.95144,0.16737,0.231145,0.518246,0.0227069,0.0308175,0.14903
-0.00697974,0.325239,-1.93995,0.0382364,0.221573,0.56562,0.0257941,0.00277781,0.17303
-0.00611162,0.324822,-1.92789,-0.0601429,0.247482,0.571029,0.0213712,-0.0154397,0.1647
-0.00475689,0.323189,-1.91604,-0.0828826,0.268142,0.552714,0.0236604,-0.0326738,0.129766
-0.00299868,0.321716,-1.90423,-0.0526557,0.26966,0.580475,0.0424872,-0.0407081,0.095861
-0.00229786,0.321047,-1.89109,-0.00597519,0.212122,0.668245,0.0540298,-0.0404122,0.0515184
-0.00307598,0.321533,-1.87598,0.0679298,0.203375,0.761608,0.0575601,-0.0398284,-0.00407237
-0.00389633,0.323847,-1.85911,0.165053,0.23743,0.830612,0.0618908,-0.0347047,-0.0506461
-0.0052318,0.327535,-1.84101,0.20596,0.209319,0.882267,0.0747626,-0.0353301,-0.108549
-0.00652808,0.331887,-1.82163,0.245978,0.314339,0.946633,0.0923077,-0.0435267,-0.148371
-0.00470505,0.337117,-1.80123,0.274958,0.533695,0.969596,0.104355,-0.0392275,-0.152734
-0.000330409,0.341829,-1.78031,0.176702,0.562144,1.00156,0.115302,-0.0416049,-0.148113
0.00248631,0.343517,-1.75891,-0.0157024,0.428179,0.993852,0.0922329,-0.0352242,-0.158082
0.00285827,0.341508,-1.73905,-0.177477,0.295464,0.864426,0.0682144,-0.0109927,-0.192244
0.00326684,0.336853,-1.72211,-0.28194,0.343109,0.748012,0.0898123,0.00999206,-0.225181
0.00675237,0.33079,-1.70655,-0.321972,0.52558,0.738134,0.127204,0.0480415,-0.225958
0.0133683,0.324473,-1.68998,-0.317733,0.646749,0.83903,0.171808,0.0852886,-0.189061
0.0200936,0.31886,-1.67034,-0.260753,0.62711,1.02844,0.20434,0.100242,-0.142639
0.0246794,0.315625,-1.64613,-0.0938289,0.585268,1.2667,0.20843,0.123749,-0.0732463
0.0246794,0.315625,-1.64613,-0.0938289,0.585268,1.2667,0.20843,0.123749,-0.0732463
0.0269749,0.316687,-1.61709,0.128763,0.563369,1.48995,0.184041,0.157856,0.0145782
0.0284507,0.322133,-1.58389,0.315406,0.618757,1.66877,0.160974,0.172365,0.124692
0.0295312,0.330302,-1.54781,0.377953,0.648982,1.7579,0.150124,0.170932,0.217245
0.0307096,0.337732,-1.51037,0.219134,0.66133,1.80369,0.169074,0.155857,0.290964
0.0294838,0.34011,-1.471,-0.104887,0.519624,1.91927,0.197246,0.13486,0.293566
0.0241981,0.335641,-1.42888,-0.442318,0.329075,2.03755,0.232312,0.105772,0.263457
0.0142478,0.324982,-1.38448,-0.690061,0.119123,2.13266,0.222323,0.105089,0.176839
-0.000100681,0.310029,-1.33885,-0.808156,-0.14201,2.18699,0.204594,0.108126,0.0565423
-0.0194604,0.293698,-1.29327,-0.762764,-0.436449,2.16112,0.151957,0.0997052,-0.0984061
-0.0420849,0.278809,-1.25,-0.574226,-0.529828,2.02178,0.111783,0.091999,-0.251458
-0.0597538,0.268423,-1.21039,-0.256476,-0.121525,1.84385,0.0985496,0.0798478,-0.320108
-0.0661507,0.26463,-1.17373,0.0982495,0.447793,1.7263,0.103017,0.0896616,-0.304851
-0.0622037,0.26713,-1.13832,0.337102,0.79446,1.67526,0.117118,0.0861996,-0.185542
-0.0558183,0.272624,-1.1036,0.39159,0.741848,1.63127,0.138705,0.0552245,-0.0664626
-0.0512911,0.278661,-1.07024,0.376172,0.61502,1.53205,0.136861,0.0167984,0.0310373
-0.0486112,0.283961,-1.04003,0.280335,0.499042,1.34384,0.141663,0.00397629,0.0920132
-0.0468377,0.287018,-1.01409,0.140202,0.411422,1.13577,0.158232,-0.017978,0.127962
-0.0458083,0.287197,-0.992206,-0.0190295,0.319237,0.976477,0.173586,-0.0214834,0.121946
-0.0454522,0.284883,-0.972802,-0.11562,0.272129,0.909327,0.189372,-0.00522512,0.0854277
-0.045601,0.281323,-0.953808,-0.145433,0.253051,0.942066,0.205552,0.00634104,0.0376169
-0.0461335,0.277976,-0.933653,-0.089761,0.254058,1.0051,0.198934,-0.0001266,-0.0137754
-0.0467538,0.276548,-0.912551,0.0657487,0.277956,1.02006,0.166802,-0.0128981,-0.0732577
-0.0459198,0.279254,-0.891714,0.288169,0.361342,0.956152,0.136945,-0.0205653,-0.089465
-0.0441759,0.285152,-0.872417,0.35317,0.351174,0.88331,0.142873,-0.0230638,-0.0870479
-0.0422746,0.290636,-0.853615,0.255366,0.386042,0.908595,0.15017,-0.0399003,-0.0631646
-0.0393657,0.293971,-0.834111,0.168522,0.473915,0.935956,0.12275,-0.0448393,-0.0717322
-0.0344685,0.296664,-0.814701,0.180001,0.570702,0.90474,0.0831883,-0.0475121,-0.0874639
-0.0278896,0.300182,-0.796032,0.222528,0.649595,0.866861,0.0684786,-0.0625979,-0.0801992
-0.0205467,0.303631,-0.778272,0.121671,0.546853,0.819657,0.0740793,-0.0871819,-0.0385591
-0.0170668,0.303176,-0.761757,-0.154659,0.311233,0.75432,0.0610111,-0.0933843,-0.0322877
-0.0164828,0.296821,-0.747211,-0.444991,0.214341,0.640724,0.0240469,-0.066634,-0.06722
-0.0148831,0.286073,-0.73486,-0.5692,0.320764,0.584001,0.0148881,-0.0437558,-0.1388
-0.0100666,0.275893,-0.721936,-0.384875,0.523753,0.696861,0.0321772,-0.0240569,-0.190378
-0.00246398,0.271695,-0.705484,-0.0193584,0.624253,0.892989,0.0375146,-0.00560647,-0.164509
0.00253017,0.274295,-0.68534,0.243163,0.383315,1.0323,0.022955,-0.00603274,-0.11188
0.00102305,0.279845,-0.663648,0.268253,0.0680707,1.03512,-0.00917722,-0.0118943,-0.0509109
-0.0054304,0.283812,-0.642936,0.112856,-0.10646,0.945393,-0.0459038,0.00152892,-0.026332
-0.0131988,0.283996,-0.62417,-0.0692914,-0.122193,0.860529,-0.0729015,0.0436059,-0.0461673
-0.0193927,0.281767,-0.606972,-0.0952535,-0.0140092,0.800184,-0.0892376,0.0809408,-0.0912966
-0.0228245,0.280975,-0.590944,0.0752897,0.117737,0.74272,-0.103256,0.107401,-0.131063
-0.0239516,0.284749,-0.576002,0.336039,0.171552,0.679133,-0.123332,0.130175,-0.114411
-0.0246176,0.293036,-0.562652,0.497349,0.128653,0.568779,-0.138849,0.143596,-0.0545764
-0.0257773,0.302798,-0.552292,0.475191,0.0657103,0.389856,-0.149531,0.148778,0.0115313
-0.0266445,0.310562,-0.54607,0.293326,0.0432484,0.186702,-0.148324,0.162573,0.0677603
-0.0260358,0.313885,-0.543896,0.0402138,0.0891158,0.0227506,-0.140827,0.177302,0.0956705
-0.023474,0.312491,-0.544647,-0.166614,0.14318,-0.0864881,-0.124378,0.174953,0.0924981
-0.019818,0.308304,-0.547354,-0.235862,0.139308,-0.156586,-0.112313,0.161307,0.0756179
-0.019818,0.308304,-0.547354,-0.235862,0.139308,-0.156586,-0.112313,0.161307,0.0756179
-0.0158126,0.304049,-0.551431,-0.184501,0.137452,-0.22007,-0.102803,0.137826,0.0736113
-0.0120555,0.301118,-0.556713,-0.121729,0.0684809,-0.275567,-0.0892715,0.117923,0.0902357
-0.00965897,0.299037,-0.562775,-0.0984952,0.00165108,-0.296005,-0.0785231,0.0885912,0.111796
-0.00816428,0.297253,-0.568981,-0.0865526,-0.0305501,-0.297505,-0.0619723,0.0636776,0.125638
-0.00668011,0.295648,-0.575362,-0.0865272,-0.00435904,-0.317141,-0.0614198,0.0506981,0.141483
-0.00452431,0.293442,-0.582538,-0.146717,0.0125804,-0.36459,-0.0506313,0.0336026,0.15155
-0.0019181,0.28959,-0.590536,-0.243044,0.0251842,-0.392695,-0.0276723,0.00835264,0.155152
0.000993361,0.283842,-0.598535,-0.32374,0.0475591,-0.367572,0.00218971,-0.0121292,0.146113
0.00400307,0.277174,-0.605525,-0.326078,0.057948,-0.301137,0.0120799,-0.0340246,0.121447
0.00591799,0.271242,-0.611066,-0.262931,-0.0362079,-0.237648,0.0152792,-0.0598606,0.0893527
0.00497093,0.267007,-0.614927,-0.158555,-0.147973,-0.133815,0.0369228,-0.0924009,0.0399618
0.00157406,0.264987,-0.616553,-0.0397293,-0.213266,-0.0195625,0.0464698,-0.109167,0.0057137
-0.00247376,0.265677,-0.615778,0.108766,-0.143099,0.099027,0.0602025,-0.125164,-0.0165942
-0.00495244,0.269077,-0.61257,0.215856,-0.0238035,0.201916,0.0626508,-0.146405,-0.0242305
-0.0055374,0.273471,-0.607641,0.212277,0.0801675,0.265143,0.0545412,-0.179586,-0.0227711
-0.00458698,0.277015,-0.602118,0.144211,0.150568,0.254083,0.0366081,-0.206678,-0.0336021
-0.00338644,0.279227,-0.597295,0.0835348,0.0778913,0.204591,0.0226645,-0.218101,-0.0713447
-0.00342294,0.280784,-0.593754,0.0791006,0.0409034,0.129812,0.0200125,-0.225515,-0.106123
-0.00229164,0.28245,-0.59217,0.0664003,0.131648,0.0219417,0.0130346,-0.212699,-0.128128
0.00331122,0.283336,-0.592844,0.0181766,0.436714,-0.0881295,0.0121101,-0.194928,-0.124929
0.0144207,0.282996,-0.595772,-0.0612543,0.523366,-0.179016,0.0479057,-0.1747,-0.120825
0.0249382,0.280914,-0.59945,-0.132253,0.409306,-0.167642,0.0786724,-0.146579,-0.12754
0.0320025,0.278014,-0.602734,-0.139156,0.215646,-0.164089,0.0886468,-0.116575,-0.166225
0.035566,0.275021,-0.605994,-0.154776,0.0777361,-0.148381,0.10268,-0.0801784,-0.189892
0.0382421,0.271618,-0.607904,-0.173203,0.160147,-0.0315886,0.109608,-0.050496,-0.196699
0.0429142,0.268946,-0.60691,-0.0701207,0.335494,0.115999,0.0913316,-0.012727,-0.203691
0.0503402,0.270016,-0.603301,0.173401,0.490229,0.231274,0.0724302,0.00866011,-0.163385
0.0594197,0.276441,-0.597831,0.423926,0.554007,0.328086,0.0492237,0.0294791,-0.0702739
0.0690748,0.286527,-0.590937,0.50754,0.597186,0.393359,0.0303211,0.0486288,0.0513347
0.0782128,0.296599,-0.583082,0.422083,0.509921,0.43119,0.0221566,0.0524162,0.13516
0.083538,0.304505,-0.574142,0.297895,0.280986,0.488021,0.0205717,0.0600443,0.149369
0.0836525,0.310218,-0.563621,0.189111,0.0583744,0.558517,0.00885803,0.0848378,0.131203
0.0794109,0.31374,-0.551626,0.0645759,-0.110372,0.605179,-0.00215191,0.0968874,0.0935589
0.0721906,0.314655,-0.538861,-0.0664419,-0.194711,0.605871,-0.0199111,0.102839,0.0354474
0.0645719,0.31297,-0.526521,-0.179439,-0.181961,0.538237,-0.0585544,0.125131,-0.0179819
0.0578511,0.309102,-0.516133,-0.261518,-0.165335,0.42362,-0.0770513,0.141438,-0.0740567
0.0527566,0.304187,-0.507806,-0.256878,-0.0768668,0.355209,-0.0656158,0.139331,-0.120113
0.050948,0.300709,-0.50018,-0.108873,0.136203,0.365769,-0.0466571,0.140344,-0.122803
0.0537167,0.301211,-0.491818,0.115665,0.373584,0.439438,-0.0427134,0.149231,-0.0556005
0.0589097,0.305821,-0.481933,0.274369,0.395532,0.52371,-0.0483618,0.132528,0.056438
0.0620403,0.312504,-0.470903,0.307896,0.240154,0.55022,-0.0607372,0.0973287,0.161269
0.0615839,0.318673,-0.460321,0.233214,0.0359382,0.482836,-0.0931905,0.0769481,0.232398
0.0578702,0.322227,-0.451696,0.0571983,-0.140511,0.354544,-0.10195,0.0549457,0.280487
0.051648,0.321677,-0.445451,-0.13592,-0.254455,0.235943,-0.100903,0.0186577,0.257332
0.0458924,0.317949,-0.441478,-0.243326,-0.191853,0.124426,-0.0937783,0.0099459,0.217845
0.0420759,0.31288,-0.439631,-0.255314,-0.133544,0.0410881,-0.0756812,-0.000137687,0.149935
0.0394283,0.308307,-0.439017,-0.206746,-0.140869,0.00695592,-0.049385,-0.0211391,0.108663
0.0354902,0.304493,-0.438831,-0.181809,-0.24192,0.00592927,-0.0202396,-0.0451156,0.0577533
0.0354902,0.304493,-0.438831,-0.181809,-0.24192,0.00592927,-0.0202396,-0.0451156,0.0577533
0.0298754,0.300864,-0.43838,-0.188976,-0.309022,0.0279306,-0.00234511,-0.071605,0.0213355
0.02279,0.296828,-0.437371,-0.222048,-0.359515,0.0575911,-0.0107746,-0.0898967,-0.0303227
0.0151482,0.29199,-0.435984,-0.266795,-0.363633,0.0579588,-0.036357,-0.111174,-0.078463
0.00767637,0.286295,-0.43513,-0.305269,-0.360286,0.00478129,-0.0704284,-0.129847,-0.130529
0.000806484,0.279906,-0.436203,-0.332707,-0.362185,-0.115225,-0.0936401,-0.149943,-0.185907
-0.00512338,0.273292,-0.439841,-0.316867,-0.304954,-0.226407,-0.091426,-0.16598,-0.241516
-0.00812669,0.268144,-0.445059,-0.180598,-0.129213,-0.261105,-0.0845863,-0.157971,-0.267793
-0.00752372,0.266926,-0.450054,0.0556902,0.0527356,-0.213885,-0.0704253,-0.14642,-0.245966
-0.00571346,0.269508,-0.454232,0.145596,-0.0550912,-0.205978,-0.0637982,-0.153146,-0.179363
-0.00852087,0.271096,-0.459315,-0.0115573,-0.339317,-0.303934,-0.0879055,-0.144306,-0.153867
