attitude_roll,attitude_pitch,attitude_yaw,rotationRate_x,rotationRate_y,rotationRate_z,acceleration_x,acceleration_y,acceleration_z
0.0978265,0.277503,-0.242958,0.0930033,-0.146971,-0.312,0.0201408,-0.0349741,-0.0970703
0.0975791,0.279688,-0.249233,0.17102,-0.0665904,-0.271961,0.0229081,-0.0394498,-0.0629925
0.0978787,0.282723,-0.255099,0.180571,-0.0756955,-0.26496,0.00494252,-0.0415545,-0.0260016
0.0979953,0.285585,-0.261128,0.159268,-0.0765987,-0.289142,-0.00810611,-0.045994,-0.00433493
0.0982368,0.287724,-0.268025,0.116641,-0.0999748,-0.351959,-0.0178904,-0.0401731,0.0115657
0.0984503,0.28865,-0.276107,0.0507871,-0.103984,-0.406222,-0.0243092,-0.0221959,0.0185623
0.099044,0.28808,-0.284678,-0.0261373,-0.0872438,-0.410003,-0.018727,-0.0134341,0.0213833
0.0995462,0.286146,-0.292716,-0.0890475,-0.0847171,-0.379108,-0.00180455,-0.00695845,0.0129392
0.100026,0.283251,-0.29998,-0.121688,-0.070028,-0.347428,-0.00156594,-0.00509822,0.00764465
0.100913,0.280141,-0.306695,-0.122006,-0.0249583,-0.323121,-0.00620747,-0.0005624,-0.00304013
0.102273,0.277159,-0.312681,-0.116446,-0.0118875,-0.274233,-0.0122914,0.00804532,0.00618815
0.103027,0.27455,-0.317316,-0.0948288,-0.0416798,-0.20158,0.00432378,-0.00432226,0.00581354
0.103143,0.272776,-0.320866,-0.0433089,-0.0395522,-0.163381,-0.00795127,-0.0170778,-0.00261676
0.103299,0.272307,-0.324126,0.0308237,-0.0330324,-0.159649,-0.0205652,-0.0333835,-0.00482607
0.103845,0.273143,-0.327786,0.0854194,-0.00316547,-0.183488,-0.022469,-0.0438396,-0.0124438
0.105091,0.274688,-0.331955,0.106415,0.0100763,-0.198235,-0.0330174,-0.047174,-0.00617903
0.10635,0.27639,-0.336251,0.0965379,-0.00533355,-0.199491,-0.0258121,-0.0556222,-0.00502795
0.106936,0.277885,-0.340515,0.078381,-0.0281369,-0.199591,-0.0228797,-0.0560302,-0.00938565
0.10795,0.279075,-0.344975,0.0641039,0.0350226,-0.225428,-0.0413616,-0.0593108,-0.0156444
0.110629,0.279781,-0.350077,0.0433379,0.101248,-0.266375,-0.0507821,-0.0613788,-0.0146235
0.114364,0.279895,-0.35603,0.0153886,0.114174,-0.301747,-0.0474793,-0.0571648,-0.00779456
0.118053,0.279548,-0.362196,0.00452727,0.0955923,-0.297702,-0.0363484,-0.0552245,-9.97186e-05
0.120981,0.279194,-0.368022,0.0096093,0.0563489,-0.267029,-0.0258639,-0.0417108,0.00343084
0.123181,0.279061,-0.373022,0.0275083,0.0416202,-0.214325,-0.0271132,-0.0321639,0.00446069
0.124943,0.279594,-0.37693,0.0621334,0.0368952,-0.157546,-0.0278753,-0.0260217,0.000107646
0.125724,0.281255,-0.379806,0.10847,-0.00708152,-0.109088,-0.0306373,-0.024883,-0.00619483
0.12562,0.283898,-0.38189,0.155576,-0.0396717,-0.0688851,-0.0313308,-0.0362146,-0.0164656
0.124594,0.28735,-0.383568,0.18812,-0.0876916,-0.0616987,-0.0516566,-0.0440878,-0.0298657
0.123173,0.291245,-0.385491,0.209029,-0.0862936,-0.082284,-0.0694087,-0.0538126,-0.0445482
0.122761,0.295274,-0.388186,0.217017,-0.0101133,-0.132906,-0.0929229,-0.0521222,-0.0575577
0.12459,0.299306,-0.391965,0.224345,0.0982693,-0.183968,-0.113723,-0.049885,-0.0559698
0.129153,0.30331,-0.396958,0.231897,0.210949,-0.246619,-0.132681,-0.0397589,-0.0295629
0.135683,0.307264,-0.403399,0.239062,0.255232,-0.316217,-0.133586,-0.0240399,0.012916
0.143243,0.311088,-0.411299,0.245362,0.257032,-0.372379,-0.124412,-0.00497094,0.0526788
0.150726,0.314693,-0.420137,0.234247,0.20061,-0.402697,-0.108587,0.00909472,0.0914318
0.156122,0.317599,-0.429286,0.17969,0.0494337,-0.408677,-0.0844032,0.0175171,0.113315
0.157901,0.319127,-0.437844,0.0977917,-0.142918,-0.369085,-0.045943,0.0162826,0.114043
0.156053,0.318972,-0.445234,-0.00197293,-0.255987,-0.33425,-0.0361609,0.0134199,0.0924996
0.152901,0.316881,-0.451991,-0.102694,-0.249701,-0.33509,-0.0571378,0.0127301,0.0495541
0.150727,0.31315,-0.458631,-0.162593,-0.180325,-0.346165,-0.064974,0.00442222,0.00877303
0.149675,0.308894,-0.465187,-0.150373,-0.118353,-0.333804,-0.0560914,0.00633681,-0.0279821
0.149921,0.305618,-0.471375,-0.0737355,-0.0524372,-0.297778,-0.0541822,0.00422117,-0.049895
0.151055,0.304292,-0.477144,0.0260285,-0.0058127,-0.268751,-0.0612161,0.00106436,-0.0588036
0.153206,0.304948,-0.482803,0.115968,0.0460754,-0.259003,-0.0698064,-0.00627488,-0.0525951
0.156298,0.306858,-0.488709,0.150762,0.0815945,-0.271932,-0.0772088,-0.0135934,-0.0354906
0.15962,0.30879,-0.494884,0.123997,0.0526054,-0.278064,-0.0703706,-0.022647,-0.0137395
0.16179,0.309844,-0.50094,0.0727776,-0.0204701,-0.274588,-0.0680114,-0.0300355,-0.00459087
0.162551,0.309966,-0.506777,0.035886,-0.0743052,-0.280314,-0.0669962,-0.0435912,-0.0158377
0.162736,0.30956,-0.513093,0.0228278,-0.0917078,-0.324201,-0.0827233,-0.0475641,-0.0347258
0.163387,0.308907,-0.520201,0.0285516,-0.0529099,-0.359272,-0.0870145,-0.0547777,-0.0588462
0.1653,0.30855,-0.528009,0.0637644,0.00937775,-0.383527,-0.0895469,-0.0503262,-0.0705121
0.1653,0.30855,-0.528009,0.0637644,0.00937775,-0.383527,-0.0895469,-0.0503262,-0.0705121
0.16877,0.309061,-0.536598,0.126954,0.0761512,-0.416711,-0.0994795,-0.0417681,-0.0652484
0.174031,0.310675,-0.546183,0.184253,0.164511,-0.45473,-0.11532,-0.0282223,-0.0483996
0.180822,0.313114,-0.556596,0.232332,0.17267,-0.474303,-0.114012,-0.0126561,-0.0105128
0.186891,0.316387,-0.567515,0.278209,0.0890544,-0.488502,-0.107903,-0.0014112,0.0216464
0.191024,0.320369,-0.578979,0.317058,-0.0370728,-0.511614,-0.111158,0.00472084,0.0402688
0.193127,0.324904,-0.591387,0.351645,-0.13745,-0.564555,-0.109194,0.0110357,0.0403079
0.194176,0.329415,-0.605262,0.340639,-0.201007,-0.641323,-0.104535,0.0243566,0.0388006
0.194542,0.333007,-0.62033,0.286448,-0.260479,-0.680258,-0.0831946,0.0416541,0.0325676
0.193412,0.335497,-0.635307,0.236597,-0.337805,-0.655877,-0.0490761,0.053009,0.0142106
0.191121,0.337415,-0.649298,0.215289,-0.348521,-0.614652,-0.0369295,0.0565741,-0.0125327
0.188541,0.339571,-0.662686,0.242875,-0.351863,-0.595883,-0.0366481,0.0573563,-0.038686
0.186094,0.342804,-0.676218,0.31692,-0.34802,-0.605797,-0.0347607,0.0539176,-0.0552952
0.183298,0.347538,-0.690333,0.389908,-0.418529,-0.616179,-0.0300489,0.0499958,-0.0581567
0.178987,0.353376,-0.704808,0.426803,-0.514735,-0.619731,-0.0152985,0.0503062,-0.0556909
0.173003,0.359457,-0.719335,0.406272,-0.580172,-0.61931,-0.00900911,0.0505421,-0.0577745
0.166511,0.364906,-0.733815,0.361607,-0.576502,-0.63085,-0.00955066,0.051274,-0.0723086
0.160784,0.369468,-0.748735,0.319207,-0.530516,-0.678028,-0.023953,0.0551962,-0.0825598
0.156506,0.373244,-0.764648,0.293253,-0.477134,-0.735052,-0.0256449,0.0575392,-0.0850987
0.153631,0.376534,-0.781673,0.281245,-0.441583,-0.782909,-0.0157502,0.0685663,-0.0775598
0.151803,0.379589,-0.799416,0.27639,-0.394484,-0.802142,-0.00327997,0.0830937,-0.0599527
0.151068,0.382721,-0.817411,0.29088,-0.355081,-0.809354,0.00130875,0.0871458,-0.0348176
0.150941,0.386045,-0.835721,0.295384,-0.351057,-0.826406,0.00492369,0.0938432,0.00339663
0.150698,0.389201,-0.854453,0.27749,-0.384764,-0.846239,0.0172276,0.0954679,0.0392842
0.149714,0.391672,-0.873577,0.233275,-0.448366,-0.876338,0.0307644,0.0915577,0.0681689
0.147591,0.392922,-0.893366,0.160257,-0.517842,-0.922501,0.037414,0.0872957,0.0875029
0.144591,0.39237,-0.913966,0.0599748,-0.570881,-0.974277,0.0515854,0.0832152,0.0954396
0.140847,0.389455,-0.935123,-0.0727066,-0.60771,-1.0068,0.0624675,0.084289,0.0910041
0.136606,0.384074,-0.956176,-0.181219,-0.601354,-1.00258,0.08306,0.0792904,0.0696316
0.132925,0.377159,-0.976959,-0.229,-0.535329,-1.01008,0.0900536,0.0745797,0.043614
0.130563,0.369904,-0.997898,-0.228339,-0.46645,-1.02364,0.100552,0.0691981,0.0275911
0.129187,0.362783,-1.01883,-0.222371,-0.426967,-1.01257,0.11587,0.0645027,0.0214673
0.128144,0.355938,-1.03932,-0.211157,-0.398637,-0.984757,0.127943,0.0559439,0.0173116
0.127109,0.349445,-1.05924,-0.197863,-0.390123,-0.959574,0.131245,0.0468591,0.00926882
0.125931,0.343214,-1.07867,-0.18942,-0.390673,-0.938565,0.126371,0.0368173,-0.000166118
0.124664,0.337112,-1.09771,-0.191526,-0.373065,-0.923754,0.115125,0.0261979,-0.0171316
0.123358,0.330962,-1.11617,-0.200919,-0.353795,-0.890101,0.111186,0.018343,-0.0339448
0.122469,0.324847,-1.13405,-0.196079,-0.313648,-0.877417,0.0949191,0.00780836,-0.0481683
0.122351,0.318816,-1.15207,-0.191392,-0.262596,-0.899009,0.0765786,-0.00127038,-0.0611842
0.12353,0.312784,-1.1706,-0.191516,-0.198885,-0.923146,0.0676831,-0.0114444,-0.0690754
0.125332,0.306665,-1.18927,-0.199109,-0.20274,-0.913553,0.0668323,-0.0075976,-0.0674532
0.126204,0.300331,-1.20716,-0.212868,-0.234298,-0.859278,0.0661511,-0.00248843,-0.0660913
0.12692,0.29417,-1.22367,-0.197063,-0.166827,-0.793967,0.0515567,-0.00773799,-0.0755726
0.129262,0.288786,-1.23914,-0.144296,-0.0365225,-0.751351,0.0307628,-0.00506729,-0.0728596
0.134,0.28475,-1.25404,-0.0690094,0.0789497,-0.721823,0.0197446,-0.00667983,-0.0476816
0.139574,0.282112,-1.26821,-0.00791075,0.0626981,-0.665081,0.0254513,-0.00391766,0.00264299
0.143571,0.280613,-1.28102,0.0296687,-0.0240278,-0.585835,0.034958,-0.0112021,0.0480151
0.145357,0.279687,-1.29243,0.0330545,-0.111544,-0.518023,0.0328871,-0.0152659,0.0777608
0.145445,0.278817,-1.30261,0.0211387,-0.155453,-0.4676,0.0329968,-0.0235023,0.0912149
0.144408,0.277648,-1.31186,-0.00818338,-0.205418,-0.433637,0.0342728,-0.0290216,0.102144
0.141853,0.275929,-1.32025,-0.0469274,-0.291792,-0.395492,0.0435513,-0.0374037,0.110498
0.136795,0.273647,-1.32787,-0.078081,-0.428631,-0.366333,0.0524519,-0.0517918,0.10492
0.136795,0.273647,-1.32787,-0.078081,-0.428631,-0.366333,0.0524519,-0.0517918,0.10492
0.128867,0.270956,-1.33489,-0.0955452,-0.547594,-0.342915,0.0598634,-0.069902,0.0735986
0.11943,0.268158,-1.34163,-0.0969563,-0.569076,-0.338997,0.0603743,-0.0844244,0.0254765
0.110029,0.265652,-1.34845,-0.0752685,-0.541953,-0.347588,0.0595259,-0.0918472,-0.0242355
0.102,0.263783,-1.35557,-0.0347025,-0.451103,-0.35153,0.0587271,-0.098732,-0.061946
0.0957618,0.26294,-1.36265,0.020586,-0.351143,-0.343413,0.0658282,-0.10806,-0.0822055
0.0915299,0.263373,-1.36993,0.0898593,-0.267891,-0.356582,0.0670231,-0.111564,-0.0857502
0.0889041,0.265209,-1.37762,0.161071,-0.195142,-0.36455,0.0692549,-0.111271,-0.06804
0.0875848,0.268274,-1.3855,0.209336,-0.157946,-0.36584,0.0794439,-0.113319,-0.0430521
0.0858293,0.271809,-1.39352,0.205519,-0.256334,-0.37351,0.0803566,-0.112644,-0.0162419
0.0815334,0.274774,-1.40159,0.150781,-0.385498,-0.374034,0.0892452,-0.112597,-0.00628698
0.0751752,0.276306,-1.40947,0.0562818,-0.453765,-0.373893,0.0881294,-0.110588,-0.0237561
0.068435,0.275847,-1.41722,-0.0424994,-0.420282,-0.369413,0.0784449,-0.092018,-0.0592529
0.0634152,0.273887,-1.42451,-0.0972188,-0.263082,-0.343366,0.0877474,-0.0699329,-0.0935143
0.0619284,0.271464,-1.43096,-0.0957037,-0.0696985,-0.286372,0.0976804,-0.0426487,-0.102768
0.0635502,0.269867,-1.43579,-0.0290376,0.102553,-0.182969,0.108759,-0.0104809,-0.0852126
0.0668258,0.270224,-1.43792,0.0837913,0.146668,-0.00885057,0.140451,0.0195259,-0.0483428
0.0689628,0.273438,-1.43606,0.226481,0.11685,0.213179,0.148541,0.0459374,-0.00288039
0.0692514,0.279969,-1.42976,0.382444,0.0942617,0.426265,0.112362,0.0621691,0.0343524
0.0686721,0.289607,-1.42033,0.510943,0.110713,0.527901,0.0627184,0.0607069,0.0608947
0.067513,0.301294,-1.40991,0.581803,0.0603259,0.543478,0.0397184,0.0502957,0.0865975
0.0641892,0.313796,-1.39946,0.594131,-0.0918736,0.53722,0.0493387,0.0407574,0.110343
0.0568967,0.325719,-1.38914,0.527386,-0.317535,0.507549,0.0466336,0.0368939,0.112743
0.0454434,0.335331,-1.3795,0.378281,-0.501327,0.445845,0.0259044,0.0326641,0.0779855
0.0317896,0.341445,-1.37137,0.204455,-0.587585,0.340392,0.0103948,0.0292616,0.014046
0.0178653,0.343894,-1.36565,0.0330623,-0.591551,0.204559,-0.00104076,0.0276008,-0.0697487
0.00650798,0.343282,-1.36268,-0.0826322,-0.422962,0.0814495,0.0072232,0.0216075,-0.163879
0.000639756,0.341291,-1.36211,-0.104103,-0.13845,-0.0219563,0.00495132,0.0368986,-0.223479
0.00112495,0.339791,-1.36319,-0.0388735,0.143783,-0.0704202,0.0115126,0.0688397,-0.229829
0.00670638,0.339944,-1.36463,0.0560347,0.349935,-0.0623496,0.0245002,0.0961299,-0.18121
0.0151767,0.341889,-1.36573,0.138562,0.454201,-0.0403499,0.0230252,0.107225,-0.10599
0.0246736,0.345092,-1.3664,0.179524,0.45937,-0.0139155,0.0119244,0.118541,-0.0226513
0.0332458,0.348717,-1.36652,0.173593,0.390064,0.00986853,0.00112485,0.121065,0.0483168
0.0396218,0.351829,-1.36615,0.129327,0.258219,0.0399431,-0.00533995,0.129207,0.099674
0.0431271,0.35368,-1.36486,0.0465693,0.150407,0.0908325,-0.00856962,0.125557,0.121498
0.0447494,0.353672,-1.3624,-0.0594069,0.104656,0.134592,-0.0223887,0.122911,0.123203
0.0457447,0.351458,-1.35925,-0.177154,0.110648,0.153024,-0.0481672,0.123213,0.118264
0.0467699,0.347027,-1.35549,-0.275852,0.116155,0.1849,-0.0559898,0.117142,0.114271
0.0471407,0.341067,-1.35081,-0.332698,0.071379,0.235182,-0.0548916,0.121236,0.106909
0.0459157,0.334615,-1.34466,-0.334392,0.0124678,0.320138,-0.0460394,0.116492,0.087981
0.0430461,0.328622,-1.33668,-0.290825,-0.0334498,0.406621,-0.0506025,0.111603,0.0657588
0.0392163,0.323664,-1.32736,-0.24228,-0.0580878,0.453391,-0.0653535,0.108936,0.045904
0.0343572,0.319565,-1.31731,-0.2083,-0.121636,0.488468,-0.0558199,0.0975707,0.0262044
0.0277069,0.31578,-1.30657,-0.206723,-0.198016,0.523168,-0.044751,0.0863754,0.00318354
0.0200156,0.311613,-1.29516,-0.239779,-0.215277,0.554845,-0.0445784,0.0733794,-0.0229599
0.0122791,0.306487,-1.28322,-0.28998,-0.192465,0.57266,-0.0338472,0.0592796,-0.0583455
0.00564966,0.300374,-1.27118,-0.325381,-0.105181,0.57198,-0.0223645,0.0437109,-0.0869495
0.00115573,0.293683,-1.25928,-0.339758,0.00905715,0.571808,-0.00251007,0.0374802,-0.105377
-0.000974025,0.287143,-1.2471,-0.310632,0.125473,0.604847,0.027225,0.0369666,-0.0986674
-0.00117666,0.2814,-1.23393,-0.260429,0.209294,0.66899,0.0589612,0.0425624,-0.0663562
-0.000881474,0.276843,-1.21925,-0.198361,0.214411,0.749851,0.0884639,0.0513053,-0.0232458
-0.000881474,0.276843,-1.21925,-0.198361,0.214411,0.749851,0.0884639,0.0513053,-0.0232458
-0.00138542,0.273291,-1.20272,-0.163838,0.185975,0.841782,0.118491,0.0543863,0.00910592
-0.00267188,0.269989,-1.18429,-0.169678,0.177067,0.941716,0.127239,0.0547459,0.0239358
-0.00484672,0.266255,-1.16368,-0.194965,0.158362,1.05427,0.131904,0.0559366,0.0200495
-0.00806913,0.262022,-1.14067,-0.21145,0.121885,1.17128,0.127941,0.0586858,0.00915658
-0.01206,0.257663,-1.11557,-0.198252,0.122923,1.26507,0.124592,0.0542447,-0.00906485
-0.016456,0.253632,-1.08849,-0.165515,0.125807,1.37762,0.118056,0.0563261,-0.0302468
-0.0211123,0.250203,-1.05882,-0.121655,0.146318,1.51361,0.102179,0.0676838,-0.0475584
-0.0260148,0.247562,-1.02652,-0.0666465,0.162332,1.62547,0.08897,0.0608975,-0.0669785
-0.0309962,0.24591,-0.992466,-0.000237291,0.160088,1.68449,0.0615226,0.0527195,-0.0785996
-0.0362671,0.245412,-0.95757,0.0657854,0.159976,1.70724,0.0402691,0.0487574,-0.0816565
-0.0416348,0.245935,-0.922495,0.118034,0.156353,1.69977,0.0328019,0.0487764,-0.0855874
-0.0465147,0.247257,-0.887606,0.162469,0.213325,1.6841,0.0231721,0.0516299,-0.091764
-0.049902,0.24917,-0.853067,0.191234,0.303031,1.66,0.0214548,0.0574822,-0.0963742
-0.0513383,0.251472,-0.818944,0.2081,0.400482,1.63874,0.0206185,0.0688826,-0.090407
-0.0507832,0.25429,-0.785293,0.243881,0.492147,1.61127,0.00985284,0.0772873,-0.067692
-0.0489826,0.257897,-0.752136,0.279923,0.521089,1.58634,0.00820497,0.08801,-0.0321103
-0.0470054,0.262117,-0.719626,0.293519,0.507579,1.5415,0.00673262,0.0974438,-0.000402689
-0.0458289,0.266292,-0.688117,0.260828,0.435041,1.49515,0.0152369,0.112064,0.0125532
-0.0459821,0.269498,-0.657281,0.189128,0.382423,1.47489,0.0264235,0.12521,0.0180464
-0.0465398,0.270969,-0.626731,0.0898125,0.396728,1.46996,0.0369366,0.1338,0.00961846
-0.046189,0.270201,-0.596171,-0.0289533,0.452625,1.48889,0.048785,0.146396,0.0044986
-0.0454241,0.26719,-0.564891,-0.132453,0.456285,1.54856,0.0631453,0.15596,-0.00208509
-0.0444243,0.262502,-0.532455,-0.190843,0.497439,1.61408,0.0709187,0.165885,-0.015037
-0.0428293,0.257067,-0.498524,-0.199,0.540874,1.6999,0.0732238,0.175983,-0.029856
-0.040476,0.251888,-0.462559,-0.162469,0.591871,1.81585,0.0736271,0.186352,-0.0374308
-0.0377504,0.247972,-0.424116,-0.0753266,0.652643,1.9326,0.0615199,0.178818,-0.0552652
-0.0338885,0.245887,-0.383453,-0.0171378,0.725384,2.02575,0.0331223,0.187829,-0.051509
-0.0290624,0.244058,-0.340729,-0.0343717,0.786844,2.14104,0.00659068,0.195683,-0.037628
-0.0234937,0.242129,-0.295679,-0.0417881,0.856153,2.23936,-0.0191096,0.165186,-0.0299724
-0.0179032,0.240251,-0.24934,-0.0577099,0.797787,2.27157,-0.0615304,0.155488,-0.00902569
-0.0139113,0.238076,-0.202689,-0.0935834,0.710488,2.27956,-0.0787667,0.139031,-0.00368798
-0.0114274,0.235253,-0.155929,-0.129087,0.647707,2.28027,-0.0900839,0.119701,-0.0141652
-0.00906563,0.231887,-0.109609,-0.156004,0.671175,2.23239,-0.104687,0.0967734,-0.0294911
-0.00539638,0.228356,-0.0649206,-0.167451,0.710659,2.13227,-0.122414,0.085401,-0.0386392
-0.000915327,0.224672,-0.0223279,-0.19128,0.692856,2.04276,-0.12867,0.0816583,-0.0345784
0.0035875,0.22063,0.0188802,-0.218734,0.678712,1.99416,-0.118826,0.0678432,-0.0305941
0.00788779,0.216294,0.0591096,-0.237332,0.630845,1.93946,-0.114775,0.0559352,-0.0316621
0.0121466,0.211899,0.0977746,-0.237449,0.618232,1.83899,-0.132602,0.0483757,-0.0418328
0.0173529,0.20785,0.133916,-0.215987,0.668984,1.69921,-0.151485,0.0336579,-0.0694153
0.0249687,0.204631,0.167185,-0.177704,0.774952,1.56765,-0.162171,0.0446056,-0.0731405
0.0347296,0.202212,0.198416,-0.158429,0.824852,1.49987,-0.156635,0.0510873,-0.072907
0.0456651,0.20038,0.228362,-0.143318,0.890775,1.42509,-0.177182,0.0589354,-0.0632974
0.0580988,0.199191,0.256229,-0.115595,0.883099,1.30111,-0.211337,0.0744178,-0.0402258
0.0699701,0.198932,0.281316,-0.0702048,0.800593,1.158,-0.227119,0.0504975,-0.046504
0.0801546,0.199457,0.303595,-0.045624,0.66281,1.03379,-0.251943,0.0277115,-0.0636984
0.0890891,0.200388,0.323161,-0.0149204,0.648876,0.876862,-0.274111,-0.00164957,-0.0900743
0.0998382,0.201907,0.338696,0.0232645,0.746843,0.648569,-0.290793,-0.00991166,-0.106308
0.113805,0.203693,0.349317,0.0431817,0.87335,0.421505,-0.302389,0.0233168,-0.077607
0.130338,0.205289,0.356293,0.0319185,0.909856,0.296689,-0.306058,0.0111465,-0.031972
0.147839,0.206362,0.361143,0.0141082,0.936508,0.185012,-0.307704,-0.00803611,0.00783998
0.165251,0.206917,0.363249,0.0131577,0.828496,0.032454,-0.302211,0.00324929,0.0374497
0.165251,0.206917,0.363249,0.0131577,0.828496,0.032454,-0.302211,0.00324929,0.0374497
0.179645,0.207181,0.362438,0.0324365,0.57631,-0.101774,-0.272195,-0.00746362,0.0582488
0.189148,0.207502,0.359005,0.0638815,0.302079,-0.224416,-0.235762,-0.00530283,0.0691435
0.193953,0.208008,0.352944,0.102385,0.071706,-0.356656,-0.221406,-0.00126745,0.0649109
0.196009,0.208679,0.343924,0.136441,-0.0362736,-0.502166,-0.214212,0.00733861,0.044793
0.197185,0.209436,0.332149,0.165011,-0.0922346,-0.605298,-0.194665,0.0260845,0.031673
0.197502,0.210319,0.318983,0.172351,-0.152856,-0.625564,-0.16054,0.0454268,0.0312791
0.196141,0.21111,0.306371,0.144265,-0.244,-0.557335,-0.109367,0.0545008,0.0155692
0.193128,0.211687,0.295561,0.122891,-0.268119,-0.476064,-0.0769582,0.0541952,-0.0181291
0.189775,0.212296,0.286057,0.121897,-0.259021,-0.433464,-0.0619056,0.0566069,-0.0458905
0.187372,0.213102,0.277114,0.121437,-0.155063,-0.413611,-0.0530202,0.0485902,-0.0773556
0.187365,0.213926,0.268406,0.12075,-0.040763,-0.405823,-0.0469536,0.0473354,-0.0838429
0.189265,0.214754,0.260379,0.112973,0.0515681,-0.341388,-0.0392693,0.0554076,-0.0762154
0.19172,0.215844,0.254154,0.113886,0.0379751,-0.230986,-0.0242614,0.0440975,-0.0508361
0.192382,0.217716,0.250061,0.148118,-0.0743673,-0.135181,-0.0269244,0.031582,-0.0290157
0.189523,0.220595,0.247177,0.188497,-0.276448,-0.106117,-0.037463,0.0125722,-0.0245841
0.183595,0.224065,0.243487,0.217634,-0.37645,-0.197232,-0.0643544,0.00101915,-0.0558951
0.177587,0.227518,0.237437,0.227472,-0.334901,-0.322256,-0.101332,-0.00615992,-0.0722204
0.175234,0.230762,0.229131,0.233086,-0.0541699,-0.413404,-0.0982146,-0.0102026,-0.0643651
0.179911,0.233876,0.219461,0.236606,0.2786,-0.451821,-0.093367,0.0200337,0.00979358
0.190392,0.236818,0.209516,0.230115,0.526204,-0.448084,-0.0710317,0.0366429,0.0990247
0.204075,0.239505,0.199722,0.219292,0.570593,-0.435953,-0.0571368,0.0355769,0.181018
0.214652,0.242786,0.188077,0.67176,-0.246613,-0.973277,-0.0315129,0.0143943,0.235291
0.204684,0.262061,0.116479,1.94208,-1.48973,-4.31587,-0.606688,-0.714698,0.108843
0.207258,0.277263,0.0252072,1.39599,-0.927993,-3.82036,-0.0678675,0.120084,0.199876
0.216723,0.288831,-0.0398042,1.01378,0.183322,-1.80163,0.0858233,0.481762,0.10809
0.228118,0.30247,-0.0519259,0.562288,0.525865,0.877605,0.574954,0.185513,0.00114733
0.229497,0.31619,-0.0225074,0.177373,0.358316,1.83722,0.522392,0.114445,0.0476085
0.221778,0.324957,0.00890622,0.0396132,-0.0906098,1.11136,0.182279,0.123651,0.0489504
0.214065,0.328384,0.019765,0.0879233,-0.322693,-0.00957979,0.0602852,-0.0333817,0.00671619
0.208709,0.328818,0.0107547,0.116745,-0.483544,-0.739946,0.114969,-0.131909,-0.0378741
0.205255,0.326156,-0.00845003,-0.0331768,-0.49718,-1.0267,0.191465,-0.065384,-0.0131246
0.19996,0.318733,-0.0271766,-0.355615,-0.615135,-0.774881,0.282993,0.0380795,-0.000288248
0.189903,0.306465,-0.0342394,-0.70735,-0.599923,-0.0811749,0.391198,0.0924767,-0.0306832
0.176098,0.291298,-0.0251547,-0.902839,-0.512305,0.627435,0.426673,0.0949355,-0.0763817
0.161195,0.276524,-0.00467542,-0.846411,-0.418871,1.00837,0.383426,0.0367919,-0.136398
0.147677,0.265294,0.0192795,-0.59749,-0.282547,1.06277,0.335454,-0.0175613,-0.175859
0.138225,0.259826,0.0411548,-0.235889,-0.0884946,0.942918,0.286914,-0.0536345,-0.205518
0.134769,0.261365,0.0591402,0.154808,0.204913,0.820998,0.278771,-0.0395288,-0.210049
0.136159,0.270257,0.0752289,0.505363,0.346557,0.88155,0.302446,0.00817472,-0.194051
0.139805,0.28558,0.0939175,0.751104,0.530078,1.13691,0.301108,0.0629945,-0.1461
0.144419,0.305857,0.117839,0.930999,0.618653,1.40859,0.251479,0.0925835,-0.0867638
0.148562,0.32996,0.145255,1.07306,0.639609,1.4904,0.196776,0.0784908,-0.0406227
0.151255,0.356261,0.171545,1.15194,0.50174,1.32804,0.150149,0.0499593,-0.0106266
0.151635,0.382185,0.192649,1.09376,0.307849,1.00035,0.127055,0.0159999,0.00492799
0.151508,0.404375,0.206594,0.890673,0.222512,0.619223,0.0944592,0.01347,0.0209996
0.152788,0.420441,0.214037,0.591415,0.229116,0.320257,0.0611643,0.0299589,0.00858212
0.157269,0.429798,0.217556,0.292695,0.372746,0.157461,0.0618471,0.0463259,-0.0127524
0.16545,0.433463,0.21925,0.0663491,0.524379,0.05251,0.0562998,0.0776242,-0.0274378
0.177235,0.43364,0.219041,-0.0270983,0.626136,-0.0666415,0.0428606,0.102931,-0.0470042
0.190477,0.432379,0.216983,-0.0565284,0.595098,-0.124745,0.0299699,0.139674,-0.0441801
0.202388,0.430856,0.215098,-0.0547149,0.527382,-0.0559074,0.0483034,0.171708,-0.030179
0.211747,0.429871,0.21558,-0.052169,0.431708,0.0802532,0.0456167,0.190237,-0.0160837
0.218483,0.429483,0.218834,-0.051853,0.393072,0.190122,0.0279882,0.187565,-0.0162868
0.224276,0.429113,0.223637,-0.087399,0.385496,0.220614,-0.00461999,0.173968,-0.0104877
0.229815,0.427704,0.228786,-0.160492,0.38891,0.199181,-0.0152155,0.146045,-0.00549734
0.235849,0.424525,0.233476,-0.255738,0.410459,0.148508,-0.0222377,0.128502,0.00739175
0.241789,0.419075,0.238284,-0.381918,0.370217,0.168414,-0.0305033,0.144449,0.0403211
0.244957,0.411827,0.24549,-0.465636,0.222807,0.315093,0.00768146,0.144944,0.0572476
0.243295,0.404923,0.256376,-0.428974,0.0570759,0.486643,0.0312186,0.138028,0.0476575
0.238229,0.400366,0.270045,-0.307687,-0.0129513,0.62628,0.0138197,0.140777,0.0218473
0.231524,0.398771,0.285497,-0.185298,-0.0610884,0.72616,-0.00631782,0.130718,0.0175406
0.223354,0.399284,0.302215,-0.126732,-0.108039,0.783112,-0.00218871,0.111125,0.0242164
0.213577,0.400125,0.319781,-0.153504,-0.198934,0.816995,-0.00866079,0.0949012,0.0453804
0.201197,0.399763,0.338168,-0.234422,-0.313334,0.831626,-0.0147436,0.0687963,0.0512685
0.186901,0.397387,0.356705,-0.33282,-0.407127,0.799333,-0.0379736,0.0489063,0.043682
0.171266,0.392671,0.374518,-0.423864,-0.471935,0.733976,-0.0509825,0.0163703,0.0150641
0.155313,0.385779,0.390501,-0.490083,-0.515168,0.616234,-0.0772191,-0.0127264,-0.0222992
0.14044,0.377394,0.404037,-0.521492,-0.463133,0.517756,-0.0733042,-0.029542,-0.0542253
0.128011,0.36849,0.416254,-0.504871,-0.329836,0.514991,-0.0503051,-0.0318671,-0.0625384
0.117918,0.3602,0.429365,-0.470076,-0.1777,0.601426,-0.0402714,-0.0500347,-0.0574735
0.110478,0.35252,0.443894,-0.446905,-0.0938312,0.658154,-0.041935,-0.0593995,-0.0269174
0.102666,0.345351,0.459079,-0.418885,-0.189697,0.684927,-0.0227346,-0.0896496,-0.00123864
0.0914525,0.338428,0.474412,-0.425236,-0.442335,0.688857,-0.0144744,-0.119732,0.014394
0.075398,0.330623,0.489359,-0.481206,-0.654885,0.660623,-0.0384711,-0.140913,-0.0212178
0.0572104,0.32123,0.503458,-0.546654,-0.681316,0.609586,-0.0693911,-0.161057,-0.0940712
0.0572104,0.32123,0.503458,-0.546654,-0.681316,0.609586,-0.0693911,-0.161057,-0.0940712
0.0412641,0.310645,0.516051,-0.559035,-0.492154,0.530599,-0.0698718,-0.165335,-0.166319
0.0314299,0.300074,0.526124,-0.541054,-0.183538,0.390742,-0.0591495,-0.145236,-0.201407
0.0291575,0.289138,0.533115,-0.591399,0.147122,0.260432,-0.0582929,-0.112381,-0.176652
0.0329947,0.276782,0.538266,-0.659115,0.33858,0.212192,-0.0461832,-0.0947955,-0.111857
0.0372915,0.263951,0.54366,-0.625055,0.188003,0.286047,-0.0203514,-0.0650769,-0.0473741
0.0362598,0.25351,0.551906,-0.42848,-0.0917842,0.489395,0.0208303,-0.0357875,-0.0146538
0.0286513,0.248318,0.564631,-0.13075,-0.334411,0.721049,0.0381645,-0.0200798,0.00356674
0.0187902,0.248751,0.580788,0.130832,-0.187069,0.81634,0.025994,-0.0125034,0.0217838
0.0139469,0.25361,0.597053,0.301463,0.0770365,0.76177,0.0130195,-0.0203246,0.0401539
0.0132373,0.259756,0.612272,0.266099,0.218205,0.741181,0.023935,-0.0334838,0.134382
0.0137816,0.263879,0.628127,0.124936,0.236785,0.799178,0.0303512,-0.0586613,0.208931
0.0135236,0.265584,0.644828,0.0379401,0.154005,0.808679,0.0378542,-0.0829858,0.215431
0.0110599,0.266435,0.661179,0.0370551,0.0386367,0.782264,0.0439875,-0.0807304,0.180034
0.00675531,0.267608,0.677724,0.0690371,-0.0366169,0.84188,0.0482185,-0.0578856,0.134718
0.000245308,0.26951,0.696638,0.119207,-0.113882,0.996992,0.0493394,-0.03852,0.0951118
-0.00819086,0.273008,0.71848,0.250268,-0.125102,1.08942,0.00301987,-0.0544524,0.0288347
-0.0164746,0.279508,0.740368,0.422916,-0.111491,0.983894,-0.0836375,-0.0688434,-0.0236652
-0.0229261,0.288992,0.758069,0.542363,-0.0291854,0.679408,-0.164199,-0.075335,-0.055682
-0.025208,0.299567,0.768259,0.513581,0.100008,0.274357,-0.209346,-0.0568836,-0.0671322
-0.0223958,0.30802,0.770569,0.316222,0.276495,-0.0485383,-0.192253,-0.00902194,-0.0483105
-0.0130741,0.311908,0.767685,0.0771127,0.576382,-0.211963,-0.163491,0.0427757,-0.0281135
0.00250583,0.312087,0.762418,-0.0427678,0.758643,-0.27956,-0.175816,0.0973588,0.0064711
0.0199523,0.311093,0.756401,-0.0401815,0.762069,-0.286755,-0.149334,0.130821,0.0559056
0.0351369,0.310538,0.751093,0.00273772,0.579738,-0.208491,-0.111285,0.142226,0.0987221
0.0455263,0.311131,0.747939,0.0687227,0.369768,-0.0841359,-0.0807095,0.129286,0.117994
0.0516839,0.313038,0.747237,0.120946,0.245324,0.0209509,-0.0938433,0.117185,0.115308
0.0557362,0.315672,0.748182,0.124417,0.197385,0.0759644,-0.104346,0.0958865,0.105423
0.0589697,0.317781,0.749736,0.0710873,0.155253,0.0823939,-0.108612,0.0665179,0.103965
0.0610379,0.318203,0.751127,-0.0506867,0.0957899,0.0490829,-0.104126,0.0288029,0.102083
0.0630724,0.315456,0.751391,-0.227015,0.130037,-0.041438,-0.0863791,-0.00119755,0.0884743
0.0660462,0.309476,0.750148,-0.349735,0.10288,-0.105944,-0.0806393,-0.0157067,0.0813522
0.0680905,0.301611,0.748271,-0.421542,0.05621,-0.119816,-0.0472359,-0.0239705,0.0595648
0.0701714,0.292593,0.74651,-0.459215,0.10673,-0.116455,-0.0134535,-0.0381935,0.0334966
0.0730694,0.283582,0.74482,-0.424405,0.125398,-0.10125,0.00577817,-0.035481,0.00888926
0.075764,0.275488,0.744233,-0.375872,0.12994,-0.00823456,0.0357747,-0.0424215,0.0115951
0.0778272,0.268563,0.745494,-0.329248,0.097977,0.0640736,0.0347644,-0.0578502,0.0101239
0.0784294,0.262464,0.747386,-0.300088,0.0120539,0.0567432,0.0162683,-0.073257,0.00886643
0.0776218,0.25659,0.748283,-0.298964,-0.0667909,-0.0217201,0.0142282,-0.0916907,-0.0109016
0.0760059,0.25053,0.747437,-0.302469,-0.112125,-0.101975,0.00454754,-0.0978011,-0.0401345
0.0745311,0.244342,0.745349,-0.297664,-0.0720189,-0.141468,0.00839239,-0.0920665,-0.0763881
0.0738036,0.238399,0.742939,-0.27916,-0.0292267,-0.132959,0.0178721,-0.0861336,-0.111708
0.0752588,0.232709,0.740651,-0.278339,0.138528,-0.132221,0.0179186,-0.0712659,-0.128204
0.0806962,0.227209,0.73844,-0.252517,0.356696,-0.121219,0.00372326,-0.0608126,-0.121904
0.0896424,0.222717,0.736794,-0.176246,0.480975,-0.0686513,-0.0111852,-0.0532747,-0.0833788
0.099775,0.220121,0.736263,-0.0787128,0.512233,-0.0170697,-0.0328292,-0.0590421,-0.0189878
0.109229,0.219375,0.736123,-0.00511034,0.438644,-0.0113681,-0.0471955,-0.0679178,0.0375996
0.117617,0.219331,0.735552,-0.00586273,0.388167,-0.0480901,-0.0646081,-0.0731488,0.0813146
0.125084,0.218674,0.734156,-0.0493573,0.332804,-0.0950078,-0.0726994,-0.0708144,0.112129
0.131739,0.216709,0.732129,-0.127501,0.278978,-0.123527,-0.0691122,-0.0695445,0.137872
0.136832,0.213093,0.729848,-0.20001,0.170736,-0.141978,-0.0466048,-0.0767698,0.142654
0.139692,0.208301,0.727469,-0.242292,0.0745031,-0.150897,-0.0244732,-0.08228,0.124157
0.141356,0.202995,0.725152,-0.252303,0.0511842,-0.146674,-0.0216751,-0.0809583,0.0881213
0.142812,0.197754,0.723076,-0.238395,0.0471025,-0.126692,-0.00368915,-0.0840191,0.0539634
0.143492,0.193133,0.721795,-0.201026,-0.00271016,-0.0601386,0.0402465,-0.0844939,0.0296254
0.143492,0.193133,0.721795,-0.201026,-0.00271016,-0.0601386,0.0402465,-0.0844939,0.0296254
0.14323,0.189564,0.721926,-0.158981,-0.00311562,0.0168775,0.0575242,-0.0933233,-0.00360161
0.143636,0.186895,0.723102,-0.126437,0.0802174,0.0528917,0.0566767,-0.105664,-0.0478574
0.146054,0.184916,0.724786,-0.101812,0.209274,0.0805041,0.0565001,-0.112355,-0.0708486
0.15078,0.183528,0.727228,-0.086678,0.288208,0.146956,0.0677672,-0.104702,-0.0690259
0.157039,0.182659,0.731294,-0.060883,0.409526,0.227673,0.0794229,-0.117351,-0.0732615
0.164766,0.18286,0.736258,0.00460968,0.430795,0.253592,0.0447675,-0.114865,-0.0638033
0.17121,0.184507,0.741499,0.06602,0.288456,0.283721,0.0254187,-0.1168,-0.0446361
0.173809,0.187096,0.746919,0.0915999,0.0764407,0.276711,0.00905319,-0.129942,-0.050337
0.17311,0.189753,0.751523,0.0908705,-0.0402896,0.212215,-0.0132563,-0.119428,-0.084034
0.172142,0.192175,0.754658,0.104735,0.0334161,0.144907,-0.0173067,-0.0906676,-0.129734
0.174595,0.195256,0.757194,0.164375,0.268628,0.175101,-0.0169962,-0.0391213,-0.145855
0.18091,0.200397,0.761147,0.278998,0.419354,0.307171,-0.0301298,0.0150067,-0.11381
0.188713,0.208703,0.767355,0.433166,0.465001,0.426678,-0.0529395,0.0217971,-0.0658928
0.195716,0.220125,0.773721,0.557202,0.360276,0.376556,-0.0875582,0.0104504,-0.0289208
0.200574,0.232419,0.777314,0.554943,0.205058,0.211796,-0.111569,0.0120857,0.00630748
0.202943,0.242598,0.7782,0.404687,0.0664459,0.090448,-0.0928824,0.0301726,0.0342463
0.20383,0.248854,0.778322,0.211909,0.00126354,0.0624216,-0.0688512,0.0565196,0.0284621
0.203156,0.251645,0.779071,0.0530281,-0.0202842,0.0644312,-0.0626091,0.0784345,-0.00177646
0.203013,0.251778,0.780342,-0.0521958,0.0583773,0.0589328,-0.0182625,0.0919457,-0.039684
0.205149,0.251024,0.78206,-0.0344123,0.194356,0.0963913,-0.00953841,0.0971662,-0.0607478
0.208835,0.251822,0.784878,0.0547935,0.227776,0.202506,-0.0229401,0.119729,-0.0195463
0.21229,0.254629,0.789697,0.109752,0.230126,0.304693,0.00732236,0.114572,0.0391409
0.214811,0.258051,0.79578,0.0948043,0.181862,0.341417,0.0223647,0.113549,0.0826063
0.2163,0.261228,0.802606,0.075847,0.141642,0.377274,0.0319673,0.104688,0.115971
0.216529,0.263978,0.810621,0.0239013,0.100381,0.446312,0.0342703,0.119931,0.148476
0.215601,0.265903,0.820792,-0.0457003,0.0585512,0.56069,0.060445,0.120874,0.163098
0.21271,0.267315,0.833547,-0.0710196,-0.0110443,0.669041,0.085237,0.107618,0.15524
0.207922,0.269088,0.848013,-0.049762,-0.09377,0.732263,0.0829224,0.0983257,0.137068
0.200979,0.271471,0.863595,-0.0294891,-0.188117,0.79499,0.0981641,0.0846468,0.116334
0.191791,0.274107,0.880511,-0.0311672,-0.268462,0.848873,0.108507,0.0674705,0.0899292
0.181079,0.276374,0.897806,-0.0529028,-0.330928,0.820551,0.0913612,0.0487484,0.0544147
0.169984,0.277722,0.913855,-0.0892046,-0.337999,0.725867,0.0774731,0.022548,0.0156475
0.15967,0.277718,0.927702,-0.135377,-0.309341,0.585027,0.0788199,0.00186902,-0.0201385
0.150961,0.275964,0.938546,-0.204682,-0.256094,0.418347,0.0684371,-0.00248843,-0.0448582
0.144719,0.271886,0.946278,-0.312819,-0.159647,0.267484,0.0705559,0.00327429,-0.065892
0.141122,0.265252,0.951824,-0.416738,-0.0482726,0.182198,0.0910261,0.0106113,-0.084133
0.140159,0.256935,0.956246,-0.458428,0.0584294,0.12777,0.112871,0.0207338,-0.100782
0.14149,0.248204,0.95967,-0.450048,0.158277,0.0794121,0.116553,0.0307585,-0.113848
0.145095,0.23985,0.962207,-0.420639,0.256986,0.0472009,0.10937,0.0329973,-0.110962
0.150115,0.231952,0.964325,-0.394997,0.285004,0.043449,0.107902,0.0386241,-0.0927333
0.155255,0.224525,0.966686,-0.376222,0.281549,0.0786336,0.118673,0.0433675,-0.0685794
0.160276,0.217575,0.969971,-0.363397,0.300457,0.134092,0.116724,0.0492972,-0.0482672
0.16588,0.211134,0.97436,-0.342246,0.359555,0.18434,0.0964959,0.0493816,-0.0355973
0.172102,0.205367,0.979742,-0.315808,0.365131,0.2424,0.0798273,0.0449905,-0.0184475
0.177478,0.200547,0.986364,-0.273472,0.287337,0.312945,0.0706738,0.0421624,0.00233012
0.180702,0.196899,0.9942,-0.223754,0.18871,0.383496,0.0655738,0.0367398,0.010563
0.181886,0.194553,1.00324,-0.167914,0.127048,0.450773,0.0479912,0.0267327,-0.00105381
0.182337,0.193496,1.01347,-0.120624,0.124982,0.520404,0.0209841,0.0249021,-0.014758
0.182898,0.193734,1.02492,-0.0601312,0.146894,0.586162,0.00226308,0.0113418,-0.0284833
0.183404,0.195459,1.03699,0.0129737,0.142159,0.601249,-0.016353,-0.00423867,-0.0332962
0.18379,0.198265,1.04857,0.0448867,0.121529,0.564179,-0.0426257,-0.0239939,-0.032791
0.184036,0.200928,1.05905,0.0232046,0.108488,0.497546,-0.0682635,-0.0429593,-0.0235123
0.183694,0.202671,1.06835,-0.0179707,0.0455975,0.435692,-0.0742331,-0.0493696,-0.0134338
0.182435,0.203488,1.07659,-0.0444602,-0.00195302,0.374249,-0.0738451,-0.0545971,-0.0145919
0.182435,0.203488,1.07659,-0.0444602,-0.00195302,0.374249,-0.0738451,-0.0545971,-0.0145919
0.181001,0.203645,1.08352,-0.0620658,0.00452152,0.294675,-0.0786688,-0.0593712,-0.0282245
0.180258,0.203148,1.08875,-0.0783127,0.0229926,0.206117,-0.0820299,-0.059492,-0.0289258
0.179782,0.202131,1.09236,-0.0804696,0.00268336,0.130345,-0.0766333,-0.0573454,-0.0163727
0.179006,0.201211,1.09464,-0.0446006,-0.0453085,0.0820233,-0.0732626,-0.0461462,-0.00348246
0.177234,0.201227,1.09607,0.0200955,-0.112311,0.0617377,-0.0618335,-0.034122,0.0177571
0.174031,0.202349,1.09708,0.0704698,-0.187758,0.0554337,-0.0523728,-0.0280936,0.0388052
0.168941,0.204535,1.09775,0.094914,-0.253072,0.0243571,-0.0447457,-0.0274488,0.0559444
0.163268,0.206404,1.09731,0.0741011,-0.294418,-0.0519509,-0.0466822,-0.0333094,0.0669847
0.157645,0.207091,1.09526,0.0119068,-0.305064,-0.139817,-0.0401129,-0.0411364,0.0737825
0.151824,0.206071,1.0917,-0.0682257,-0.347369,-0.224527,-0.0269174,-0.0477953,0.073677
0.145224,0.203515,1.08683,-0.113805,-0.446544,-0.276339,-0.000919685,-0.049977,0.0678688
0.137018,0.199822,1.08127,-0.176043,-0.480807,-0.312743,0.0198452,-0.0549996,0.0517877
0.127925,0.195137,1.07533,-0.206958,-0.548856,-0.326338,0.0341616,-0.0669939,0.0249153
0.116935,0.190287,1.06914,-0.197213,-0.676643,-0.343414,0.037461,-0.0784066,-0.00350034
0.103689,0.185578,1.06231,-0.200353,-0.761435,-0.380821,0.0479478,-0.0870761,-0.0405763
0.0901793,0.180672,1.05469,-0.218327,-0.717706,-0.412085,0.0776533,-0.0860715,-0.07693
0.0787138,0.175386,1.04663,-0.245288,-0.575855,-0.424427,0.0879791,-0.0948138,-0.100909
0.0697943,0.169635,1.03864,-0.267784,-0.456514,-0.403339,0.0923504,-0.0844734,-0.104033
0.0628494,0.163973,1.03123,-0.243933,-0.387829,-0.36693,0.107895,-0.0927268,-0.109294
0.0560467,0.159167,1.02449,-0.192683,-0.408472,-0.325446,0.128864,-0.0930453,-0.101547
0.0491298,0.155724,1.01868,-0.116974,-0.356867,-0.260097,0.147666,-0.0901742,-0.0942709
0.0438929,0.153992,1.0146,-0.0354398,-0.215497,-0.147939,0.166754,-0.0790534,-0.0816174
0.0412186,0.154387,1.01336,0.0824137,-0.0688838,0.0382754,0.179147,-0.058002,-0.0588149
0.0407257,0.157599,1.01602,0.225743,0.0490795,0.23441,0.18739,-0.0497786,-0.0173624
0.0408285,0.163558,1.02211,0.335996,0.0445596,0.384019,0.175945,-0.045315,0.0336834
0.0394961,0.170977,1.03074,0.356261,-0.035929,0.492984,0.17363,-0.0515808,0.0749216
0.0364952,0.178048,1.04123,0.304442,-0.0640319,0.562582,0.148355,-0.0576018,0.0786592
0.033456,0.183543,1.05285,0.202261,-0.0299766,0.598581,0.115153,-0.0493587,0.0565819
0.0306786,0.186943,1.06517,0.109431,-0.0317499,0.622047,0.0892149,-0.0411189,0.022932
0.0272278,0.189246,1.07749,0.102191,-0.0851828,0.592753,0.0591991,-0.0345225,-0.0225664
0.0230361,0.192212,1.08889,0.174164,-0.107898,0.534319,0.0424841,-0.020212,-0.0726619
0.0187458,0.196612,1.09932,0.239008,-0.102646,0.505413,0.0499148,0.0101978,-0.109938
0.0150756,0.201755,1.10948,0.255227,-0.071353,0.511616,0.0575575,0.0411638,-0.123285
0.011516,0.206945,1.12055,0.257658,-0.0591471,0.592437,0.055182,0.0803185,-0.135003
0.00768837,0.212711,1.13371,0.323486,-0.0551068,0.704254,0.0401229,0.106221,-0.150664
0.00322464,0.220465,1.14907,0.455791,-0.0498162,0.796041,0.0173307,0.119273,-0.157129
-0.00052167,0.231174,1.16587,0.616478,0.0594579,0.842763,-0.0147968,0.12765,-0.143378
-0.0016662,0.24501,1.1833,0.764621,0.247843,0.850421,-0.0659342,0.139539,-0.101278
0.00078641,0.261148,1.20073,0.840329,0.427038,0.831865,-0.121808,0.164226,-0.0186779
0.0062277,0.277956,1.21712,0.821449,0.548001,0.742303,-0.171424,0.179756,0.0891631
0.013872,0.293351,1.23042,0.690349,0.578598,0.535281,-0.21587,0.17913,0.177632
0.0225494,0.30506,1.2383,0.452558,0.506473,0.229972,-0.233146,0.165783,0.244083
0.030924,0.310871,1.2396,0.115571,0.362144,-0.0820036,-0.2224,0.159785,0.277739
0.037186,0.309483,1.23553,-0.232757,0.115825,-0.292064,-0.168468,0.158922,0.284444
0.0379833,0.301792,1.22884,-0.496436,-0.246474,-0.35459,-0.0735809,0.163015,0.249481
0.0320805,0.289998,1.22229,-0.646192,-0.510144,-0.3005,-0.00552812,0.176865,0.172305
0.0221358,0.276112,1.21771,-0.741152,-0.583404,-0.159959,0.0264797,0.181537,0.0643802
0.0123912,0.260541,1.21666,-0.802185,-0.422735,0.0352498,0.0618798,0.168889,-0.00731903
0.00483327,0.24495,1.21927,-0.749577,-0.27852,0.196106,0.0742905,0.131867,-0.0656743
-0.000193575,0.231529,1.22435,-0.58543,-0.0975427,0.281922,0.0736595,0.0853317,-0.0954548
-0.0010358,0.222032,1.23039,-0.358555,0.147532,0.300131,0.0642886,0.0561805,-0.0905429
0.00260217,0.21726,1.23662,-0.12646,0.311946,0.320383,0.0177837,0.0445652,-0.0513589
0.00769624,0.216422,1.24369,0.0185073,0.332621,0.376251,-0.017206,0.0316004,0.0136304
0.0119031,0.217127,1.25226,0.0236362,0.269189,0.463031,-0.0149803,0.00773758,0.0703843
0.0119031,0.217127,1.25226,0.0236362,0.269189,0.463031,-0.0149803,0.00773758,0.0703843
0.0139796,0.21693,1.26273,-0.0677953,0.152696,0.570835,-0.021876,-0.0221794,0.0905117
0.0136985,0.214489,1.27592,-0.200775,0.0941608,0.731009,-0.0434898,-0.0642666,0.0694771
0.0119512,0.209343,1.2928,-0.339808,0.112543,0.91562,-0.0631426,-0.118049,0.0222415
0.0106417,0.201354,1.31294,-0.479591,0.155998,1.03729,-0.0896807,-0.147432,-0.0139111
0.0100918,0.191123,1.33438,-0.557253,0.217836,1.03921,-0.127584,-0.180431,-0.036691
0.0107252,0.180032,1.35462,-0.575821,0.213409,0.927062,-0.148125,-0.200806,-0.0588517
0.0119973,0.168702,1.37188,-0.57364,0.196778,0.768528,-0.118959,-0.179967,-0.0896763
0.0134481,0.158023,1.38668,-0.514892,0.213472,0.703234,-0.0726215,-0.131956,-0.125174
0.0167072,0.148905,1.40117,-0.413471,0.339725,0.733051,-0.0589714,-0.0801758,-0.153538
0.0223513,0.142244,1.41715,-0.275201,0.461072,0.850933,-0.069426,-0.0481457,-0.16205
0.0301865,0.139149,1.4353,-0.0771938,0.542283,0.927436,-0.0767041,-0.0291459,-0.141358
0.0379982,0.140635,1.45414,0.16297,0.490051,0.938231,-0.078355,-0.0218461,-0.0963724
0.0437289,0.146932,1.47223,0.388877,0.331289,0.870066,-0.096726,-0.0324138,-0.0800954
0.0462799,0.157395,1.48818,0.576226,0.179789,0.758339,-0.123191,-0.0248642,-0.0657104
0.0475402,0.170599,1.50192,0.662252,0.200049,0.667811,-0.11948,-0.0263175,-0.0625052
0.0505123,0.184292,1.51417,0.630541,0.320176,0.606351,-0.132949,-0.00545536,-0.0489798
0.0555323,0.196486,1.52567,0.524974,0.389778,0.612084,-0.140434,0.000949323,-0.0215772
0.0604488,0.206446,1.5388,0.395901,0.337339,0.746922,-0.129808,-0.0299876,0.018192
0.0621037,0.214196,1.55504,0.287444,0.155127,0.877058,-0.129219,-0.0597927,0.0354141
0.0595426,0.220584,1.57273,0.258537,-0.0259792,0.870754,-0.137289,-0.101345,0.0231587
0.0547123,0.226932,1.58875,0.292896,-0.0860297,0.707221,-0.122237,-0.12546,-0.0168275
0.0504381,0.233684,1.60056,0.320808,-0.0579565,0.486703,-0.0948074,-0.0879556,-0.0355432
0.048653,0.24055,1.60898,0.323701,0.0813024,0.404696,-0.0567397,-0.00625463,-0.0108534
0.0494103,0.247224,1.61792,0.296949,0.205283,0.522819,-0.0105197,0.0643852,0.0405404
0.0511334,0.253576,1.63019,0.282383,0.244514,0.698359,0.0112228,0.109891,0.092443
0.0514203,0.260173,1.64537,0.30806,0.157553,0.788898,0.015655,0.115952,0.1235
0.0491471,0.26761,1.66129,0.360733,0.0251675,0.769061,0.0104675,0.102455,0.136169
0.0441543,0.275895,1.67576,0.39766,-0.140266,0.660008,-0.00540708,0.106057,0.140123
0.0366567,0.284313,1.68788,0.384219,-0.257742,0.542192,-0.0154324,0.110484,0.126217
0.0277508,0.291765,1.69788,0.32964,-0.362248,0.44918,-0.00663133,0.112671,0.096346
0.0165753,0.298144,1.70652,0.294425,-0.500025,0.402299,0.0443221,0.11824,0.0608089
0.00347692,0.30396,1.71472,0.282661,-0.533306,0.388707,0.0522855,0.129745,0.0294399
-0.00840019,0.30922,1.72262,0.241808,-0.382118,0.360223,0.0538696,0.140192,0.00130463
-0.0179155,0.313063,1.73017,0.134272,-0.313451,0.3707,0.0683438,0.130148,-0.0188813
-0.0247225,0.313569,1.73809,-0.0994054,-0.111683,0.365538,0.120042,0.112029,-0.037623
-0.0272314,0.308237,1.74455,-0.411507,0.0676992,0.257618,0.16303,0.132099,-0.0559062
-0.0270554,0.297962,1.74928,-0.584059,0.0732256,0.246915,0.177059,0.121149,-0.0458933
-0.0284377,0.28558,1.7552,-0.64274,-0.0642025,0.379414,0.219009,0.102164,-0.0577352
-0.0319058,0.272036,1.76383,-0.682202,-0.0717148,0.487896,0.246029,0.109452,-0.0894952
-0.0372733,0.258421,1.77495,-0.626107,-0.162093,0.656304,0.243898,0.110458,-0.109148
-0.0443476,0.246906,1.79036,-0.451004,-0.150125,0.873635,0.255376,0.0700885,-0.137176
-0.0507384,0.239499,1.80896,-0.199691,-0.0265788,0.944895,0.217604,0.0543087,-0.162377
-0.0545126,0.236913,1.82807,0.0188102,0.0961548,0.929065,0.176606,0.0381702,-0.160297
-0.0559647,0.237527,1.84721,0.1302,0.197516,0.93817,0.157545,0.0175265,-0.116299
-0.0563105,0.239535,1.86695,0.178729,0.228507,0.97183,0.130464,0.00649178,-0.0607919
-0.0562611,0.242398,1.88729,0.221945,0.273551,0.983087,0.110755,0.00396265,-0.0159393
-0.0545265,0.246297,1.90748,0.279035,0.410266,0.948157,0.0890334,0.00867638,0.0150572
-0.0494299,0.251542,1.92672,0.340054,0.590494,0.887343,0.0538973,0.00881612,0.0499884
-0.0400731,0.257703,1.94427,0.347065,0.766204,0.786115,0.0187962,0.0197522,0.0979614
-0.0277588,0.263886,1.95971,0.323032,0.859826,0.689697,-0.0144043,0.0111389,0.142716
-0.0140902,0.269678,1.9728,0.282848,0.837473,0.560035,-0.0363768,0.00157383,0.176026
-0.00188816,0.274824,1.9828,0.240272,0.621091,0.391599,-0.0624985,-0.00202942,0.19233
0.00470268,0.278879,1.98859,0.15895,0.171728,0.157621,-0.0777326,-0.000707239,0.190968
0.00260881,0.280902,1.98874,0.0321549,-0.394991,-0.158288,-0.0745128,-0.0164938,0.153155
0.00260881,0.280902,1.98874,0.0321549,-0.394991,-0.158288,-0.0745128,-0.0164938,0.153155
-0.0093226,0.279554,1.98181,-0.18193,-0.966224,-0.495451,-0.0813257,-0.00877145,0.0569315
-0.0274767,0.273525,1.96909,-0.441395,-1.11313,-0.690346,-0.031211,-0.000273466,-0.0881828
-0.0427678,0.263423,1.95365,-0.595447,-0.770155,-0.746647,0.00714606,0.033657,-0.243676
-0.0482045,0.252131,1.93834,-0.580629,-0.138384,-0.665801,0.0305339,0.0848715,-0.321835
-0.0401799,0.24244,1.92578,-0.430024,0.639085,-0.500956,0.027886,0.109518,-0.305327
-0.0192777,0.236409,1.9171,-0.190316,1.1801,-0.332515,0.0103176,0.0984706,-0.205638
0.00715454,0.235375,1.91137,0.0764968,1.27779,-0.240696,-0.00825419,0.0635602,-0.0591378
0.0321741,0.238877,1.90671,0.270011,1.09513,-0.213411,-0.0219167,0.0333489,0.0614641
0.0522088,0.245128,1.90217,0.358904,0.798174,-0.203184,-0.0274622,0.0126846,0.145802
0.0663403,0.251794,1.89749,0.316571,0.501914,-0.209726,-0.0316695,-0.00664143,0.191679
0.0744086,0.256353,1.8931,0.154755,0.211503,-0.172721,-0.018749,-0.0292365,0.20404
0.07698,0.257061,1.89037,-0.0704777,-0.024661,-0.0781857,-9.71928e-05,-0.0666379,0.183638
0.0741692,0.253374,1.89012,-0.296231,-0.261019,0.0178593,0.00150691,-0.108597,0.13962
0.067006,0.245771,1.89142,-0.45768,-0.410961,0.045496,0.00121832,-0.135785,0.0606995
0.0577494,0.236123,1.89285,-0.494566,-0.464427,0.0316808,-0.000131302,-0.145139,-0.0514632
0.0489308,0.226977,1.89405,-0.407993,-0.360092,0.0504752,0.0340846,-0.142079,-0.166479
0.0443277,0.220368,1.89593,-0.262082,-0.0355437,0.102724,0.0537433,-0.116708,-0.243586
0.04728,0.216809,1.89884,-0.101998,0.390467,0.174867,0.0528279,-0.0791666,-0.281171
0.057416,0.216626,1.90343,0.055425,0.676836,0.275967,0.0607933,-0.0702818,-0.237185
0.0706028,0.219468,1.90954,0.180977,0.757839,0.328491,0.0470842,-0.0695973,-0.168447
0.0842149,0.224124,1.91574,0.224296,0.738914,0.305807,0.0157362,-0.0646742,-0.0935448
0.0973305,0.228922,1.92119,0.193057,0.711465,0.272457,0.00200745,-0.0495922,-0.0568971
0.109757,0.232423,1.92641,0.094203,0.647404,0.274732,0.0053775,-0.0353802,-0.0128774
0.120653,0.233488,1.93183,-0.0496349,0.562211,0.250287,-0.00393511,-0.0215723,0.0491667
0.129243,0.231816,1.93654,-0.155349,0.413559,0.185061,-0.0250177,-0.00926861,0.0876771
0.135891,0.22875,1.94037,-0.203135,0.378551,0.164207,-0.028337,0.00407323,0.0840362
0.141499,0.224362,1.9463,-0.319651,0.242915,0.375281,-0.0268513,0.0536002,0.0749794
0.142795,0.218095,1.95702,-0.455442,0.163375,0.5467,-0.0510485,0.0320442,0.11585
0.142207,0.209484,1.96954,-0.563052,-0.00181978,0.515479,-0.0291785,0.0609676,0.143786
0.1371,0.198945,1.98013,-0.624513,-0.281225,0.351549,-0.0485715,0.0540809,0.133461
0.128623,0.186776,1.98675,-0.672973,-0.426538,0.131585,-0.0507506,0.0377578,0.12595
0.1186,0.173352,1.98889,-0.679043,-0.543518,-0.0819465,-0.0553453,0.0321039,0.104832
0.107179,0.160088,1.98685,-0.608057,-0.620523,-0.263894,-0.0483851,0.0232354,0.0671504
0.0959091,0.148582,1.9809,-0.470384,-0.601995,-0.439604,-0.0283466,0.0276133,0.027131
0.0860066,0.140005,1.97101,-0.297462,-0.51785,-0.616736,-0.00936121,0.0392826,-0.0263538
0.0793024,0.134626,1.95729,-0.132378,-0.338576,-0.780461,-0.00736602,0.0580779,-0.0745406
0.0765406,0.132183,1.94105,0.00981773,-0.155288,-0.819856,0.0216133,0.0788967,-0.101424
0.0770943,0.132467,1.92564,0.128928,0.00328834,-0.684194,0.0528682,0.0886076,-0.0953539
0.0796916,0.134888,1.91363,0.199274,0.0834005,-0.483559,0.0662422,0.08884,-0.082602
0.082873,0.13847,1.9056,0.211185,0.123729,-0.280208,0.0686795,0.0842716,-0.0647592
0.0857654,0.141918,1.9018,0.148675,0.107062,-0.0687541,0.0740296,0.0751122,-0.0285694
0.0876799,0.143905,1.90201,0.0459233,0.097053,0.0974126,0.0588758,0.0520244,-0.00730228
0.0892936,0.144,1.90511,-0.055594,0.0968543,0.199476,0.0289965,0.0282075,0.00926673
0.089975,0.142807,1.90984,-0.0946862,0.0353081,0.254712,0.0239303,-0.000530258,0.0181652
0.0895827,0.141509,1.91525,-0.0759439,0.00903793,0.261185,0.0129023,-0.0219874,0.0212823
0.0889366,0.140803,1.92026,-0.039431,-0.00976044,0.222856,-0.00209449,-0.0345275,0.0323178
0.0879516,0.140539,1.92445,-0.0255412,-0.0329194,0.18641,-0.00388814,-0.0431809,0.0467688
0.0870428,0.140143,1.92792,-0.0543959,-0.00555837,0.156765,-0.00743685,-0.0410865,0.0523806
0.0866899,0.138793,1.9314,-0.124354,0.00099754,0.185039,-0.0105687,-0.0399508,0.0631568
0.0855688,0.135773,1.93604,-0.231423,-0.0572281,0.249707,0.0126732,-0.0390978,0.0663498
0.0825249,0.130959,1.94218,-0.306989,-0.180491,0.313484,0.0174109,-0.0483855,0.0511276
0.0768696,0.12464,1.94914,-0.390776,-0.279562,0.314543,0.0102276,-0.0680044,0.0199826
0.0700886,0.116485,1.95563,-0.462377,-0.320339,0.271718,-0.0020823,-0.086766,-0.0253133
0.0633881,0.107752,1.96132,-0.428372,-0.280664,0.238614,-0.011373,-0.0984652,-0.0457755
0.0633881,0.107752,1.96132,-0.428372,-0.280664,0.238614,-0.011373,-0.0984652,-0.0457755
0.0577293,0.10041,1.96609,-0.332607,-0.228186,0.189148,-0.0117829,-0.0880676,-0.0540729
0.0538322,0.0949258,1.96959,-0.23501,-0.133828,0.133094,-0.00218763,-0.0693098,-0.0637139
0.0514365,0.0912721,1.97223,-0.145461,-0.0902149,0.115607,0.0030605,-0.0601303,-0.0555283
0.0494717,0.0892906,1.97476,-0.0681679,-0.0920686,0.124603,0.0188302,-0.0550846,-0.0437918
0.047079,0.0890007,1.97735,0.0304145,-0.130974,0.127334,0.0306088,-0.046218,-0.0353808
0.0438853,0.0906305,1.9798,0.118966,-0.154137,0.124606,0.0253396,-0.0303126,-0.0313081
0.0405698,0.0937479,1.98241,0.172582,-0.1534,0.149466,0.0335331,-0.0209829,-0.0275492
0.0378127,0.0972131,1.98546,0.157074,-0.103641,0.167746,0.0470153,-0.0108654,-0.0225838
0.0357988,0.100224,1.98888,0.129149,-0.0685884,0.185516,0.0336634,-0.0109364,-0.0140023
0.034672,0.102752,1.99276,0.107507,-0.0155011,0.207328,0.0244319,-0.0117013,-0.0105872
0.0342574,0.104901,1.99698,0.0922388,0.0064991,0.226136,0.0261335,-0.00973222,-0.00868982
0.0339943,0.106891,2.00178,0.0941982,0.000228153,0.262129,0.0222823,-0.00311454,-0.00269604
0.0335245,0.109156,2.00744,0.116284,0.00349003,0.30886,0.0182865,-0.00124401,-0.000299871
0.0332752,0.1122,2.01367,0.172448,0.0375334,0.317511,0.00188278,-0.00493325,0.00199699
0.0339361,0.116472,2.01952,0.237926,0.08162,0.274037,-0.0154502,0.000821434,0.00936139
0.0348189,0.121979,2.02418,0.289164,0.0652231,0.206937,-0.0201642,0.00497762,0.0131779
0.0355661,0.128059,2.02736,0.305006,0.0371143,0.134919,-0.0256086,0.00844692,0.0188181
0.0354388,0.134168,2.02944,0.29681,-0.0209964,0.097717,-0.0256067,0.0169599,0.0245246
0.0344308,0.139683,2.03102,0.242802,-0.0559852,0.0858654,-0.0183112,0.028298,0.0253636
0.0332018,0.143636,2.03272,0.141349,-0.0377162,0.106868,-0.0118883,0.0380245,0.0258846
0.0324674,0.145213,2.03518,0.00607037,-0.0107835,0.142514,-0.0037845,0.0424693,0.0317851
0.0316925,0.144283,2.03833,-0.10287,-0.0158506,0.164939,0.00318798,0.0406331,0.0280223
0.0311139,0.141796,2.0417,-0.14705,0.00342625,0.161684,0.00606855,0.0361427,0.0156077
0.0307092,0.138953,2.0449,-0.132439,0.000852752,0.152197,0.0179009,0.0355091,0.00226957
0.0303305,0.136601,2.04792,-0.106578,0.0104838,0.146019,0.0261396,0.0397873,-0.00484252
0.0304161,0.134365,2.0511,-0.120242,0.0340105,0.171326,0.0363605,0.0465744,-0.00245273
0.0307822,0.131467,2.05533,-0.173978,0.0675593,0.23792,0.0459348,0.0412904,0.00252825
0.0323212,0.127182,2.06056,-0.251244,0.161543,0.254573,0.0388225,0.0272298,-0.00815225
0.0365559,0.121578,2.06558,-0.290737,0.289288,0.219916,0.011955,0.00987472,-0.0161929
0.0416592,0.116216,2.06993,-0.242071,0.239252,0.200412,0.00750767,0.00259693,-0.00920939
0.0444145,0.112685,2.07428,-0.12912,0.0816895,0.219522,0.0228983,-0.00762446,0.000734448
0.0444136,0.111441,2.07892,-0.0212,-0.0191226,0.233718,0.0133868,-0.0111042,0.00285721
0.0433025,0.111841,2.08367,0.029509,-0.023515,0.235605,-0.00116368,-0.0199383,0.000724852
0.0429016,0.11268,2.08813,0.0266798,0.0311258,0.208256,-0.0231615,-0.0343175,0.00652277
0.0433659,0.113002,2.09192,-0.0127634,0.0511924,0.168255,-0.0289767,-0.0438241,0.0100677
0.0437786,0.112421,2.09484,-0.056461,0.013205,0.119972,-0.0315712,-0.0543192,0.0110459
0.0430275,0.111189,2.09675,-0.0801275,-0.0731229,0.0712574,-0.0304806,-0.0555284,0.00535619
0.0404868,0.110019,2.09797,-0.0708449,-0.129899,0.0489274,-0.0226987,-0.0551962,-0.0170839
0.0380839,0.109348,2.09897,-0.046182,-0.0601531,0.0473553,-0.025976,-0.0510566,-0.0300393
0.0372416,0.109237,2.10002,-0.0251786,0.000951866,0.0518139,-0.0281304,-0.0382731,-0.0333983
0.0376395,0.109292,2.10117,-0.0151708,0.0554389,0.0614717,-0.00408088,-0.0286203,-0.0381342
0.0383291,0.109461,2.10263,-0.000135032,0.0473428,0.085651,-0.00398695,-0.0202436,-0.0275432
0.0385613,0.109959,2.10457,0.0223496,0.00510569,0.103537,-0.00090437,-0.0176583,-0.015781
0.0384797,0.110626,2.1066,0.0264381,0.0292555,0.0965867,-0.0219081,-0.0250668,-0.00416303
0.0387676,0.111326,2.10831,0.0300567,0.0252781,0.0755199,-0.0417529,-0.0255767,0.00407982
0.0394421,0.112169,2.10951,0.0371397,0.0525414,0.0384756,-0.0455165,-0.0336194,0.0135726
0.0400417,0.112827,2.10963,0.0179093,0.00145521,-0.0276474,-0.0522887,-0.0342785,0.0210589
0.0394925,0.113102,2.10846,-0.00209336,-0.0569038,-0.0873095,-0.0386501,-0.0299461,0.0210038
0.0382954,0.112974,2.10637,-0.0269512,-0.0351457,-0.121439,-0.0312366,-0.0148449,0.0168073
0.0375494,0.112387,2.10386,-0.0538272,-0.00549387,-0.129699,-0.0320394,0.00468329,0.0154517
0.0379435,0.111511,2.10145,-0.058373,0.0436968,-0.113561,-0.0248661,0.0119758,0.0204786
0.0382315,0.110677,2.09934,-0.0395366,-0.0141433,-0.105744,-0.0086457,0.0107043,0.019904
0.0372214,0.110156,2.09717,-0.0178913,-0.103961,-0.1181,-0.00198357,0.0137267,0.0223033
0.0372214,0.110156,2.09717,-0.0178913,-0.103961,-0.1181,-0.00198357,0.0137267,0.0223033
0.0344938,0.109895,2.09459,-0.00408223,-0.164505,-0.14068,-0.00337981,0.0201505,0.0141131
0.031645,0.109705,2.09167,-0.00845089,-0.13844,-0.150346,0.00547681,0.0244323,0.00388205
0.0294502,0.109065,2.0887,-0.0415715,-0.112249,-0.145861,0.0135299,0.027703,0.00159234
0.0274649,0.10793,2.08601,-0.0581014,-0.12559,-0.124641,0.0190546,0.0290159,0.00427377
0.0248266,0.106688,2.08386,-0.0491708,-0.17736,-0.095301,0.0261441,0.030756,0.00561982
0.0211391,0.105741,2.08233,-0.0258035,-0.206831,-0.0613118,0.0237651,0.026793,0.00310361
0.017437,0.105277,2.08133,0.00116583,-0.19655,-0.0370919,0.0128881,0.0246692,0.00165176
0.0138761,0.10519,2.08076,0.0108644,-0.189049,-0.0162546,0.0107066,0.027604,0.000327826
0.0106892,0.10498,2.08077,-0.0120615,-0.161267,0.0252746,0.0115561,0.0235491,0.00194526
0.0081387,0.10408,2.08158,-0.0558872,-0.118211,0.0589925,0.00737786,0.0154977,-0.000530958
0.0064825,0.102452,2.08274,-0.0805924,-0.0575106,0.0504516,-0.00385445,0.00186984,-0.00642413
0.00603797,0.100597,2.08341,-0.0820493,-0.000697029,0.017002,-0.0088913,-0.0135554,-0.0115435
0.00665672,0.0988809,2.08325,-0.0715833,0.0347685,-0.0324655,-0.0114917,-0.0262039,-0.00696671
0.00715302,0.0973744,2.08207,-0.0695667,-0.0161797,-0.0846747,-0.000557776,-0.0244835,0.00710875
0.00616866,0.0957739,2.07999,-0.0961755,-0.105227,-0.121186,0.0118193,-0.0200646,0.0257175
0.00320007,0.0936868,2.07735,-0.122323,-0.205864,-0.140995,0.0216553,-0.0199909,0.0253642
-0.00135764,0.0912674,2.07431,-0.143197,-0.279799,-0.166102,0.0198304,-0.0208435,0.0211667
-0.00745207,0.0886832,2.07057,-0.145988,-0.356876,-0.204587,0.0331643,-0.026347,-0.00377434
-0.0137661,0.0862615,2.06614,-0.129733,-0.325696,-0.231944,0.0173461,-0.0260738,-0.0201853
-0.0188532,0.0844033,2.06141,-0.0901917,-0.256202,-0.228707,0.0141768,-0.0142992,-0.0382676
-0.022671,0.0830893,2.05725,-0.0527239,-0.160744,-0.181617,0.0228655,0.000230014,-0.0416241
-0.024808,0.0824535,2.05431,-0.0200729,-0.0744175,-0.108339,0.0248586,0.0103233,-0.0408744
-0.0251276,0.0824787,2.05303,0.0165811,0.0347094,-0.0220236,0.020233,0.00792229,-0.0362915
-0.0233972,0.0830808,2.05317,0.0443284,0.126322,0.0311935,0.00962723,0.00768311,-0.027312
-0.0209451,0.0841145,2.05416,0.0589582,0.122621,0.0594568,-0.00952601,0.00393724,-0.00566143
-0.0188362,0.0852471,2.05534,0.0527504,0.077932,0.04925,0.000639239,-0.00341818,0.0130681
-0.0182798,0.0859051,2.05594,0.0153108,-0.0207429,0.0098762,0.000282282,-0.000702612,0.0241001
-0.0192792,0.0856689,2.05592,-0.0330932,-0.0780183,-0.00790749,0.00530655,-0.000678509,0.0230793
-0.0210768,0.0845913,2.05577,-0.0694286,-0.0938827,-0.000263851,0.00419999,-0.00181324,0.0191827
-0.0231048,0.0829511,2.05605,-0.0925569,-0.105174,0.0321523,0.00184412,0.00157245,0.0168492
-0.02522,0.0811159,2.05697,-0.092527,-0.113046,0.0627089,0.0142702,0.00326818,0.00710666
-0.0276491,0.0795089,2.05833,-0.0680731,-0.114419,0.0760857,0.00160304,-0.00640556,-0.00363171
-0.0294446,0.0786586,2.05966,-0.0205457,-0.0714575,0.0579023,0.00336359,-0.0106101,-0.0196526
-0.0306704,0.0787271,2.06065,0.0234819,-0.0562406,0.0444075,0.00371511,-0.00890918,-0.0265459
-0.0317192,0.0796914,2.06155,0.0714036,-0.0587487,0.0450864,0.0085877,-0.0162486,-0.0256935
-0.0326763,0.0813409,2.06243,0.085727,-0.0417705,0.041598,0.000503756,-0.0134906,-0.0207756
-0.0330805,0.0831657,2.06339,0.0911513,0.0159931,0.0424761,-0.0210712,-0.0146779,-0.000598788
-0.0328556,0.0848665,2.06435,0.0716298,-0.00967357,0.0452926,0.0109114,-0.00593358,-0.00175637
-0.033195,0.0858147,2.06527,0.0227128,-0.014573,0.0449959,0.00409039,-0.000716344,0.00474346
-0.0336869,0.0858996,2.06634,-0.0107176,-0.0336611,0.0614301,0.00313037,-0.00359201,0.0092212
-0.0349155,0.0856317,2.06755,-0.0189737,-0.0733068,0.0596712,-0.00312231,-0.00616302,0.0109416
-0.0362675,0.0855767,2.06855,0.0157508,-0.038482,0.0301077,-0.0229399,-0.0185621,0.0112951
-0.0370892,0.0860373,2.06862,0.0221446,-0.0640277,-0.0222648,0.000520859,-0.00453822,-0.00381953
-0.0382198,0.0862999,2.06807,0.0044444,-0.0551669,-0.0220576,-0.0266136,-0.00255227,0.00612527
-0.0389328,0.0863918,2.06779,0.00424191,-0.0303262,-0.00944485,-0.027308,-0.0214427,0.0125291
-0.0402435,0.0865131,2.06727,-0.0110029,-0.0906044,-0.0508963,-0.0238216,-0.0250449,0.0103308
-0.0418483,0.086331,2.06558,-0.0127284,-0.0649765,-0.122293,-0.0337744,-0.0351751,-0.00529832
-0.0412459,0.086366,2.06239,-0.0087363,0.112917,-0.185977,0.0207253,-0.0334465,-0.0829284
-0.0394903,0.086267,2.05881,-0.0126793,0.0433322,-0.155698,0.0105857,0.0116819,-0.041086
-0.038685,0.0866326,2.05698,0.032556,0.00995863,-0.0233409,0.0560627,0.0227731,-0.0179386
-0.039043,0.0875872,2.0576,0.0498754,-0.0140413,0.0682179,0.0560649,0.025143,-0.0107265
-0.0393235,0.08878,2.0593,0.0718163,0.000119097,0.0889544,0.0310104,0.0216315,-0.00779063
-0.0390121,0.0904296,2.06096,0.105572,0.0285431,0.063115,0.00771489,0.00380435,-0.00199032
-0.0387119,0.0926592,2.06178,0.127825,-0.00764499,0.0131309,-0.00427991,-0.000170499,0.00474513
-0.0387119,0.0926592,2.06178,0.127825,-0.00764499,0.0131309,-0.00427991,-0.000170499,0.00474513
-0.0387506,0.0951442,2.06173,0.127623,-0.0167949,-0.02161,-0.0105982,0.00505018,0.0165805
-0.0384147,0.0971634,2.06135,0.0816477,-0.00857208,-0.0176138,0.00538722,0.0198774,0.0268672
-0.038369,0.0981409,2.06123,0.0274542,0.0291044,0.00469282,-0.0100122,0.00484381,0.029505
-0.0384683,0.0982294,2.06145,-0.00840758,-0.0439504,0.0115939,-0.00437487,0.00134601,0.028455
-0.0398712,0.0978846,2.06145,-0.0192123,-0.0850897,-0.0120235,-0.00137626,-0.0010876,0.020179
-0.0415859,0.0974998,2.06084,-0.0109388,-0.0844186,-0.0420216,-0.00507126,-0.00546835,-8.61287e-05
-0.0430247,0.0973968,2.0599,0.00443012,-0.0647435,-0.0483492,0.00107476,-0.00299215,-0.0169519
-0.043797,0.0976648,2.05914,0.0176819,-0.0177374,-0.0267009,0.005107,0.00285936,-0.0232674
-0.0435156,0.0981395,2.05892,0.0215418,0.0303647,0.00407024,0.00789218,0.016256,-0.0126356
-0.0424939,0.0984795,2.05939,0.00866656,0.0868012,0.0381433,0.0214165,0.0190815,-0.0110078
-0.0409726,0.0982777,2.06019,-0.0301412,0.0532811,0.039482,0.0326153,0.0224207,0.0117802
-0.0411811,0.0972608,2.06113,-0.05957,-0.0628272,0.0667934,0.0486653,0.0272376,0.00814778
-0.0422921,0.0961724,2.06285,-0.0247514,-0.0286091,0.101335,0.021851,0.00637887,0.00359845
-0.0428169,0.0959718,2.06483,0.0239233,-0.0139313,0.090479,0.0018354,0.00375304,-0.0105494
-0.0426087,0.096544,2.06636,0.0493274,0.0184017,0.0618512,-0.0071478,-0.00304747,-0.00440049
-0.0418085,0.0971968,2.06739,0.0396777,0.0260601,0.0427265,-0.0157587,-0.010317,0.00779235
-0.0414193,0.0975521,2.06803,4.30068e-05,-0.00395869,0.0185723,-0.0182987,-0.0148767,0.0134807
-0.0416225,0.0969596,2.068,-0.0540035,-0.00555987,-0.0194223,-0.0264561,-0.0165346,0.0146132
-0.0413811,0.0955021,2.06717,-0.0902883,0.0195532,-0.0514553,-0.0162228,-0.0121259,0.00727105
-0.0410687,0.0936333,2.06597,-0.107319,0.00493551,-0.0504824,0.00189112,-0.000650242,-0.00103897
-0.041038,0.0918962,2.06523,-0.0819573,0.0219728,-0.00933056,0.0137996,0.00996453,-0.0136333
-0.0398586,0.0908278,2.06541,-0.0451437,0.133901,0.0257185,0.0161243,0.0129137,-0.0342709
-0.0367722,0.0903181,2.06617,-0.01739,0.171822,0.0518264,0.0252921,0.00999514,-0.0298193
-0.0343509,0.0903698,2.0675,0.0221345,0.0930304,0.0791984,0.0251861,0.00856657,-0.00118911
-0.0333167,0.0908906,2.06919,0.0366424,0.0259767,0.0874885,0.0185856,0.00313428,0.0141642
-0.0331026,0.0913549,2.07103,0.0246356,0.0125508,0.0924833,0.013763,-0.00455157,0.0150294
-0.032868,0.0914032,2.07283,-0.00457686,0.00947616,0.0834743,-0.00897738,-0.00961513,0.0183438
-0.0326244,0.0909293,2.07436,-0.0297296,0.00895453,0.0719638,-0.0140707,-0.0186778,0.0128254
-0.0326448,0.0902088,2.07553,-0.0301265,-0.0201262,0.0480212,-0.013087,-0.0262771,0.00309378
-0.0333797,0.0898018,2.07617,-0.0134288,-0.0538752,0.0162997,-0.0149787,-0.024775,-0.00662893
-0.0341984,0.0897558,2.07632,-0.00213443,-0.0117834,-0.000393169,-0.020847,-0.0237222,-0.0198359
-0.0338558,0.0899795,2.07631,0.00445979,0.0538304,4.51389e-05,-0.0207462,-0.0231179,-0.0228046
-0.032172,0.0903354,2.07638,0.00893982,0.125512,0.0115246,-0.000343818,-0.00726061,-0.0224609
-0.0303089,0.0906627,2.07691,0.00894256,0.0907004,0.0442765,-0.000292024,0.00746974,-0.0220968
-0.0289846,0.0910057,2.07826,0.0211187,0.054406,0.0835175,0.00568249,-0.000581078,0.000616312
-0.0288115,0.0918042,2.07988,0.0470784,-0.00502458,0.063559,-0.00949132,-0.0104518,0.00965792
-0.0291964,0.0930277,2.0806,0.0674036,-0.0152865,0.0049165,-0.0195637,-0.0126667,0.0105563
-0.0294338,0.0943352,2.08037,0.0653463,-0.0133641,-0.028807,-0.0174084,-0.0048494,0.0132958
-0.029587,0.0953234,2.07995,0.0326204,-0.00305441,-0.0121746,-0.0135356,-0.00266022,0.0158375
-0.0297737,0.0955841,2.07996,-0.0110504,-0.0131739,0.00973047,-0.00450049,-0.00395712,0.0192099
-0.0304866,0.0951485,2.08017,-0.033637,-0.0417469,0.00777128,-0.00441547,-0.00449758,0.0141183
-0.0316062,0.0946639,2.08022,-0.0179112,-0.0610887,-0.00137417,-0.00502425,-0.00740612,0.00582874
-0.0328621,0.0946696,2.0801,0.0146621,-0.0424268,-0.0071078,-0.0145474,-0.00506583,-0.00243658
-0.0334125,0.0952308,2.08005,0.0335381,-0.0230268,0.000666334,-0.00228274,-0.00205054,-0.00714654
-0.0338045,0.0959753,2.08014,0.0338079,-0.0177424,0.00716521,-0.00569459,-0.00101955,-0.0019359
-0.0342792,0.096595,2.08042,0.0260139,-0.022396,0.0205284,0.00354936,0.00264903,-0.000394106
-0.0347437,0.0969978,2.08106,0.0143503,-0.0104135,0.0449072,0.0105714,0.0100843,0.0027706
-0.0344546,0.0971644,2.08239,0.00956766,0.157733,0.101345,0.00800967,0.0189934,0.00720477
-0.0298537,0.097567,2.0856,0.0499194,0.236722,0.207524,0.0140061,0.0377962,-0.0559043
-0.0258614,0.0989729,2.09004,0.100874,0.230429,0.21966,0.0178279,0.0145371,-0.00942272
-0.0224902,0.101126,2.09402,0.125928,0.148499,0.167342,0.00142309,-0.00265352,-0.00568086
-0.0199771,0.103405,2.09679,0.118583,0.136423,0.106007,0.000307323,-0.00150058,0.00157064
-0.0176419,0.105131,2.09856,0.0848612,0.121331,0.0692752,2.65464e-05,-0.00330824,0.00448638
-0.0153277,0.106223,2.09973,0.0495073,0.114991,0.0563548,0.00446798,-0.00550268,0.00836122
-0.0153277,0.106223,2.09973,0.0495073,0.114991,0.0563548,0.00446798,-0.00550268,0.00836122
-0.0133742,0.106842,2.10085,0.0233992,0.0907881,0.0521891,0.0127787,-0.00601637,0.00174671
-0.0122937,0.107109,2.10172,0.00171166,0.0198851,0.0359382,0.00663825,-0.00440838,0.00724041
-0.0128878,0.107027,2.1023,-0.0127747,-0.0570066,0.0211254,0.0169031,-0.0105932,0.0108428
-0.014148,0.106756,2.10255,-0.0162565,-0.05057,-0.00908189,0.015776,-0.023268,0.0126248
-0.0140709,0.106726,2.10167,0.00565699,0.0111093,-0.0806218,-0.0234852,-0.0216964,-0.0110067
-0.0129209,0.107013,2.09969,0.0101127,0.048583,-0.107313,-0.00453309,-0.00691463,-0.0175222
-0.0129252,0.106818,2.09774,-0.0411649,-0.0714385,-0.078708,0.00316186,-0.00807054,0.0220494
-0.0133199,0.106054,2.0964,-0.0438156,0.038703,-0.0589903,-0.0166778,-0.0216774,0.00332654
-0.0121549,0.105723,2.09532,-0.0156442,0.0593025,-0.0519895,0.0117969,0.0147674,-0.0369527
-0.0109033,0.105496,2.09444,-0.0207193,0.0521788,-0.0335131,0.0079433,0.0170587,5.76377e-05
-0.0101177,0.105122,2.09398,-0.0224711,0.0136426,-0.0191266,0.00301212,-0.00494957,0.019438
-0.0105323,0.10486,2.09365,-0.0240629,-0.042533,-0.0203961,0.00833807,0.00566908,0.0252596
-0.0123232,0.104217,2.09268,-0.0357443,-0.123767,-0.0813471,-0.0104948,-0.0104732,0.0553203
-0.0140999,0.103505,2.09055,-0.033538,-0.10845,-0.12536,-0.0199573,-0.00361367,0.011395
-0.0161074,0.102707,2.08798,-0.0580746,-0.109443,-0.120395,-0.00749193,0.0127895,0.00863934
-0.0177689,0.101214,2.08598,-0.0898121,-0.102003,-0.073785,0.00783516,0.0152562,-0.00178051
-0.0200342,0.0995026,2.08485,-0.0817797,-0.129404,-0.0432547,0.0113736,0.0119819,-0.00961679
-0.0221106,0.0982505,2.08391,-0.0551809,-0.0378402,-0.0527036,0.00337125,0.00516643,-0.0239105
-0.022798,0.097473,2.08281,-0.0300179,-0.0461588,-0.0544123,0.00880237,0.0138532,-0.0326543
-0.0232771,0.0969002,2.08175,-0.0303183,-0.0206441,-0.0492212,-0.000958361,-0.00162477,-0.000413656
-0.0235618,0.0963179,2.08073,-0.0210104,-0.0193417,-0.0536909,-0.00226059,-0.0101847,-0.00147802
-0.023587,0.0958097,2.07945,-0.0269471,-0.00870631,-0.0757366,-0.00803271,-0.00948516,0.011418
-0.0239229,0.0950201,2.07782,-0.0459137,-0.0552678,-0.0825716,-0.00372936,-0.00726517,0.0128738
-0.0249225,0.0941172,2.07636,-0.0451967,-0.0503263,-0.0571552,0.00450021,-0.0137945,0.00863177
-0.0259552,0.0932476,2.07524,-0.053315,-0.0690438,-0.0554912,0.000235271,-0.0111508,0.00249189
-0.0273376,0.0923948,2.07412,-0.0405147,-0.0672966,-0.0521301,0.00527547,-0.0107029,-0.00985593
-0.0284383,0.0918082,2.07315,-0.031394,-0.0553913,-0.0452951,0.00477041,-0.0126298,-0.0141966
-0.0292477,0.0914495,2.07218,-0.0159005,-0.0315476,-0.0487931,0.00308983,-0.00926387,-0.027218
-0.0293134,0.0914318,2.07133,-0.00182395,0.0105926,-0.0391441,0.00265177,-0.0130351,-0.014523
-0.029105,0.0914554,2.07065,-0.0093013,-0.00585637,-0.0307509,0.0013151,-0.00390212,-0.00762212
-0.0294852,0.0914116,2.07028,-0.00218457,-0.0326481,-0.0035667,0.018753,-0.00382371,-0.0163267
-0.029746,0.0915648,2.07045,0.0113227,0.0109653,0.0151556,0.0121152,-0.00335071,-0.0149141
-0.0293867,0.091894,2.07079,0.0190408,0.0161731,0.0171335,-0.0015337,-0.00128336,-0.00706011
-0.0291364,0.0924769,2.0711,0.0396547,0.0105918,0.0129457,0.00502102,-0.00747786,-0.00217783
-0.0290807,0.0934226,2.07129,0.0567322,-0.0133684,0.00381916,0.00561915,-0.00162295,-0.00331682
-0.0293496,0.0946422,2.07126,0.062687,-0.0127824,-0.00846445,0.00571554,0.00416894,-0.0096342
-0.0293363,0.0957471,2.07092,0.0443635,0.00400732,-0.0298737,-0.000556879,-0.00112458,0.00341427
-0.0292811,0.0963565,2.07004,0.0154228,-0.0107458,-0.0510987,-0.00355846,-0.00128098,0.00762999
-0.0291213,0.0967186,2.06903,0.0208514,0.0274959,-0.0489923,0.00250711,0.00472518,-0.00210488
-0.0281185,0.0972483,2.06799,0.0340772,0.0448233,-0.0600417,-0.00541952,0.00409272,-0.00337881
-0.0273516,0.098118,2.06664,0.0472315,0.021489,-0.0723835,0.000925738,0.0064384,-0.0015198
-0.0268427,0.0990755,2.06522,0.0394231,0.0151561,-0.0732728,0.00117989,0.0102141,0.00348085
-0.0265858,0.0996025,2.06384,0.0178563,-0.00230296,-0.064468,0.00826244,0.00947212,0.00157386
-0.0263251,0.0998461,2.06252,0.00830882,0.0251707,-0.0706824,0.00644613,0.00431281,-0.00450128
-0.0256679,0.0999303,2.06089,-6.55525e-05,0.0224618,-0.0928722,-0.00357669,0.00544953,-0.00319564
-0.0250621,0.0998451,2.05912,-0.00372194,0.0282805,-0.075522,0.00721922,0.00504424,-0.00224108
-0.0242428,0.0996988,2.05793,-0.00850517,0.0319033,-0.0441099,0.0101888,0.00764528,0.00491941
-0.0237882,0.0996134,2.05725,0.00451882,0.0104883,-0.0238503,0.0133379,0.0100475,-0.00681049
-0.0233599,0.0997898,2.05685,0.0147359,0.0289303,-0.0178637,0.00551083,0.00263937,0.00078088
-0.0227471,0.0999652,2.05644,0.00459951,0.0248196,-0.0233629,0.00104038,0.00397363,0.00811696
-0.022248,0.0999154,2.05605,-0.00354574,0.0128284,-0.0117688,0.0089059,0.00442757,0.0095979
-0.0220564,0.0996013,2.05589,-0.0220353,-0.0067318,-0.001835,0.00670182,0.00638863,0.0189565
-0.0224453,0.0989716,2.05592,-0.0370641,-0.0301341,0.0104512,0.0122628,0.00913419,0.0149057
-0.0230759,0.0981706,2.05619,-0.0395877,-0.0298821,0.0177289,0.00771924,0.00656703,0.00619644
-0.0230759,0.0981706,2.05619,-0.0395877,-0.0298821,0.0177289,0.00771924,0.00656703,0.00619644
-0.0236439,0.0974619,2.0564,-0.0330348,-0.024083,0.00234351,0.00714159,0.00415275,-0.00680906
-0.0239543,0.0968518,2.05634,-0.0287465,-0.0168877,-0.00630833,0.00336252,0.00584964,-0.00510937
-0.0243605,0.0962041,2.05622,-0.0346271,-0.0311797,-0.00551721,0.00270011,-0.0007765,-0.00137931
-0.0248421,0.0954913,2.05617,-0.0316931,-0.0175029,0.00450721,0.00734659,-0.00038743,-0.014949
-0.0248191,0.0948621,2.05625,-0.0309691,0.0159444,0.00243528,-0.00422568,-0.00099849,-0.0120811
-0.0241835,0.0941809,2.05605,-0.0340596,0.0376359,-0.0162747,-0.00563486,-0.0083142,-0.00968194
-0.0233719,0.0934939,2.05559,-0.0368586,0.0335676,-0.0258171,-0.00372507,-0.00622115,-0.00283873
-0.0226219,0.0927731,2.05501,-0.0396757,0.031067,-0.0300544,0.00219803,-0.00735079,7.27177e-06
-0.0218609,0.0920352,2.05452,-0.0360175,0.0418909,-0.019466,0.0018539,-0.000730753,0.00312871
-0.0209971,0.0913157,2.05422,-0.0405032,0.0418329,-0.0117833,0.00128532,-0.000745356,0.0100337
-0.0203282,0.0905326,2.05397,-0.0485629,0.0256748,-0.0140573,0.00652589,-0.00411925,0.00621229
-0.0202343,0.0895195,2.05374,-0.0606248,-0.0199278,-0.00841567,0.00495414,0.00123467,0.00908232
-0.0209789,0.0882913,2.05367,-0.0627315,-0.0508585,0.00334654,0.0103214,-0.0052072,0.00160772
-0.0220788,0.0872736,2.05369,-0.0404778,-0.0543034,0.00443574,0.00203452,-0.00210112,-0.00995386
-0.0230212,0.0868669,2.05378,-0.00556128,-0.0418628,0.00732886,1.36755e-05,-0.00297927,-0.018393
-0.0235378,0.0869902,2.05397,0.0128799,-0.0105952,0.00944556,0.00386958,-0.00142206,-0.0202773
-0.0233224,0.0873384,2.05418,0.0167822,0.0257324,0.0110064,-0.00377665,-0.0030436,-0.0114525
-0.0224316,0.0875788,2.05433,0.00528803,0.0617339,0.00283107,-0.00417602,-0.00698504,-0.00563955
-0.0210409,0.0874771,2.05424,-0.0161436,0.061614,-0.00936056,-0.00208188,-0.00736101,0.00245607
-0.0203467,0.0868955,2.05397,-0.0400686,0.00339608,-0.0165034,0.0104114,-0.00421723,0.0140719
-0.0207054,0.0860143,2.0535,-0.0522782,-0.0361503,-0.025943,0.00892388,0.000916794,0.0149494
-0.0215571,0.0850432,2.05291,-0.0487626,-0.0377452,-0.0277761,0.00843124,0.000834323,0.00260895
-0.0219254,0.0842944,2.05238,-0.0327505,-0.0109648,-0.0219848,0.00547314,0.00037805,0.00353408
-0.0219904,0.083885,2.0519,-0.0125294,-0.00513692,-0.0212516,0.0020902,0.0045935,-0.000262916
-0.0218807,0.0838933,2.05166,0.00908803,0.00422494,0.001771,0.00282012,0.00919475,-0.000154436
-0.0217722,0.084073,2.05194,0.00665227,0.00659253,0.0238531,0.00266586,0.00998411,-0.00273061
-0.0216807,0.0841574,2.05238,-0.0018037,0.00218185,0.0212394,-0.00258285,0.000333093,0.00286424
-0.0218119,0.08387,2.05263,-0.0242784,-0.0112476,0.00700316,-0.00361132,0.00296113,0.00346535
-0.0220971,0.0832694,2.05275,-0.0335978,-0.020503,0.00820267,-0.0033719,0.00472774,0.00405854
-0.0225457,0.0825786,2.053,-0.029236,-0.0190882,0.0191285,0.0014251,0.00686221,-0.00532413
-0.0227645,0.0820603,2.05346,-0.0197005,0.00345689,0.0223147,-0.00481038,0.00497242,-0.00824666
-0.0226084,0.0818354,2.05377,-0.00160087,0.0144011,0.000632972,-0.00322597,-0.000638165,-0.0122378
-0.0222449,0.0818845,2.05358,0.00239717,0.0137264,-0.0166864,-0.00418334,0.00154702,-0.00286478
-0.0222535,0.0818121,2.05322,-0.00686723,-0.0179887,-0.0150157,0.00368364,0.00155114,0.00327498
-0.0225884,0.0815832,2.05309,-0.0112453,-0.0103433,0.00110099,0.00465855,0.00414589,6.65188e-05
-0.0227186,0.0813118,2.05321,-0.0138488,-0.00695323,0.00819011,0.00350711,0.000869401,0.00449544
-0.0229009,0.0810932,2.05334,-0.00703605,-0.00482151,0.00512266,0.00324668,-0.00149992,-0.000160158
-0.0227709,0.0808291,2.0535,-0.0170032,0.00625955,0.0102785,0.00270564,0.000968166,0.00119168
-0.0227501,0.0804023,2.05373,-0.0212632,-0.0108807,0.0137562,0.00617992,-0.000311792,0.00179112
-0.0231119,0.0799994,2.05394,-0.0198841,-0.0216226,0.00732378,0.00501533,-0.0018272,-0.00297618
-0.0234337,0.0797276,2.05403,-0.0122623,-0.0125383,0.00220176,-0.000248242,-0.00499734,-0.00207692
-0.0234771,0.079648,2.05405,0.00148275,0.00383688,-0.000353129,0.00290794,-0.00277265,-0.00338387
-0.0233652,0.079612,2.05405,-0.00876949,2.98847e-05,0.00171085,0.00297965,0.000289045,0.00843191
-0.0234944,0.0792975,2.05426,-0.0226971,-0.0139081,0.0227115,0.0131493,0.000738494,0.009583
-0.0237403,0.0789025,2.05498,-0.017473,-0.00318517,0.0495735,0.0144327,0.00206898,0.000407338
-0.0238274,0.0786674,2.05618,-0.00327403,0.0095146,0.0692037,0.00743985,0.00749557,-0.00963175
-0.0232724,0.0787536,2.05773,0.0156682,0.0507821,0.0788302,0.00612361,0.00188999,-0.0125399
-0.0225002,0.0792243,2.05909,0.0281891,0.0330884,0.0536341,0.00124851,-0.00556014,-0.0131546
-0.0218228,0.07968,2.06002,0.0170835,0.0350909,0.0425361,-0.00572919,-0.00574675,-0.00980353
-0.0209718,0.0797758,2.06108,0.00358101,0.0584583,0.0669788,0.00154021,-0.000234351,-0.0155914
-0.0196143,0.0798109,2.06259,0.00922835,0.087913,0.081213,0.0017284,-0.000641845,-0.0132321
-0.0173917,0.0800617,2.06421,0.021087,0.14894,0.0832575,-0.00465276,0.00356021,-0.0177277
-0.0138025,0.0806847,2.06594,0.0443288,0.233242,0.0909383,-0.00693372,0.00317404,-0.0168217
-0.00934816,0.0818588,2.06771,0.0741681,0.22158,0.0825119,-0.00472135,0.000285462,-0.00766456
-0.00934816,0.0818588,2.06771,0.0741681,0.22158,0.0825119,-0.00472135,0.000285462,-0.00766456
-0.00573756,0.0833743,2.06917,0.0765391,0.153206,0.0584704,0.00521407,-0.000920258,0.0167127
-0.00384964,0.0846551,2.07009,0.0556392,0.0654904,0.0345494,0.00365276,-0.000178032,0.0109531
-0.00536602,0.0852727,2.07016,0.00213565,-0.0880528,-0.0269479,-0.0390871,-0.0286154,0.0713186
-0.0050952,0.0848123,2.06937,-0.0366566,0.0276311,-0.0475718,-0.00262881,-0.0192017,0.00527328
-0.00483129,0.0839085,2.06833,-0.0548266,0.025797,-0.0472689,-0.0043715,0.00898097,0.014384
-0.0042185,0.0828014,2.06785,-0.0501807,0.00761066,0.00432715,0.0199206,0.00316274,-0.0132921
-0.00323666,0.0823366,2.06851,0.000990094,0.119096,0.058754,0.0201935,0.00681937,-0.0207117
-0.0019563,0.0831015,2.06979,0.0571909,0.0286158,0.0563325,0.0142024,0.0134106,-0.0262037
-0.00180414,0.0844543,2.07062,0.0722342,-0.0130894,0.0283109,-0.00162025,-0.0064206,0.00589472
-0.00257866,0.0856811,2.07116,0.0472559,-0.0585685,0.0297644,0.00748255,-0.00844834,0.010931
-0.00389581,0.0861812,2.07191,0.00206525,-0.0701274,0.0452702,0.00305738,0.00721713,0.011723
-0.00494244,0.085673,2.07295,-0.0351274,-0.0388905,0.0615922,-0.00461244,0.00294188,0.00471252
-0.00536689,0.0850437,2.07425,-0.018167,0.00679622,0.0670146,-0.00898052,-0.00154556,-0.00539839
-0.0050931,0.085177,2.07545,0.0230954,0.0209722,0.0559552,-0.00853621,-0.00513593,-0.0103369
-0.0061733,0.0860132,2.07617,0.0548478,-0.135871,0.00836303,-0.0183704,-0.0130308,0.0123364
-0.00771796,0.087026,2.07611,0.0496999,-0.055663,-0.0123231,-0.0271471,-0.0206125,0.000992477
-0.00888951,0.0878687,2.07567,0.0309046,-0.045373,-0.0345243,-0.0162151,-0.0114875,-0.000631928
-0.012346,0.0881036,2.07365,-0.015025,-0.290779,-0.183182,-0.0836189,-0.0454027,0.0531592
-0.0125041,0.0873216,2.0688,-0.0599136,0.59739,-0.284071,-0.0790355,-0.0691156,0.00175774
-0.00275806,0.0869614,2.06332,-0.00105785,0.0997669,-0.24377,0.0553599,0.0119923,-0.141997
-0.00294892,0.0863474,2.0604,-0.0760036,-0.0561756,-0.0154743,0.0955741,0.0747045,0.0618371
-0.00400578,0.0849005,2.06303,-0.0358638,-0.0065732,0.24292,0.0773251,0.0239312,-0.0299008
-0.00296124,0.0856747,2.06768,0.104282,0.116263,0.183076,0.0378015,0.0140062,-0.0305277
-0.00137826,0.0884206,2.06958,0.154892,0.0493985,0.0193458,-0.00637857,-0.00593283,-0.00238162
-0.0017699,0.0914203,2.06938,0.136497,-0.0991938,-0.0196904,-0.00060259,-0.0211948,0.0390507
-0.00410784,0.0934811,2.06908,0.0652291,-0.119408,-0.0165039,-0.00605718,-0.0241477,0.0344133
-0.0054271,0.0940115,2.06858,-0.00822731,-0.0128781,-0.0284338,-0.0265793,-0.00802509,0.00954658
-0.00534537,0.0934308,2.06805,-0.0418141,0.00440208,-0.0170903,-0.0166506,-0.00822178,-0.0003016
-0.00528469,0.0927307,2.06787,-0.0232021,-0.00159966,-0.00265546,0.000302865,-0.0145341,-0.00748414
-0.00501864,0.0929294,2.06766,0.032995,0.0319969,-0.0206989,-0.0139087,-0.00769866,-0.0173584
-0.00406918,0.0942089,2.06712,0.084837,0.06467,-0.0320644,-0.00382239,0.00251687,-0.0210747
-0.00290617,0.0960331,2.06657,0.0858335,0.0612252,-0.0233152,0.0100186,0.0110467,-0.00700748
-0.00161478,0.0975339,2.06626,0.0556069,0.0753795,-0.0146571,0.00844306,0.015226,0.0067054
6.74193e-05,0.0982763,2.06599,0.0186671,0.0928477,-0.0195808,0.00045172,0.00877797,0.0140804
0.00163443,0.0983704,2.06537,-0.00211382,0.0625444,-0.0425639,-0.00409844,0.00517903,0.0196851
0.00247067,0.0981745,2.06438,-0.00614917,0.00141158,-0.0499131,-0.000963395,0.00606744,0.0161473
0.00378404,0.0977123,2.0642,-0.031747,0.2033,0.0714684,0.00215445,0.0276411,0.00398135
0.00611354,0.0971882,2.06683,-0.00956185,0.0250091,0.166025,0.0522497,0.0570572,-0.0178602
0.00694382,0.0974712,2.06936,0.0435786,0.187466,0.069543,-0.00689553,0.00678654,-0.000253916
0.00930909,0.0988443,2.0688,0.0829115,0.0120754,-0.114109,-0.073442,-0.0456952,-0.00739616
0.00952665,0.09992,2.06559,0.0216952,0.0073898,-0.169772,-0.0155367,-0.0230642,0.0485711
0.00946195,0.099285,2.06294,-0.0683902,-0.0366664,-0.0867259,-0.00143486,0.0120553,0.0172476
0.00868446,0.097028,2.06247,-0.146388,-0.0475406,0.0322544,0.00354828,0.0255257,0.0299575
0.00735596,0.0939625,2.06369,-0.154106,-0.0551502,0.0706579,0.00126727,0.00242411,0.0187247
0.00607466,0.0913868,2.06476,-0.104686,-0.0571666,0.0319653,-0.00598822,-0.00285661,0.0142719
0.00567131,0.0899648,2.06504,-0.0368378,-0.00552854,-0.000862733,-0.00252027,-0.00819428,-0.00752383
0.00505509,0.0895419,2.06503,-0.00599897,-0.0472266,0.00794619,-0.00416505,-0.00271025,0.00644863
0.00384087,0.0892915,2.06547,-0.0284603,-0.0746457,0.0370846,0.00868666,-0.00141853,0.00226492
0.00201671,0.0884788,2.06636,-0.0579166,-0.0961853,0.0528753,0.0136772,-0.00389126,-0.00180799
8.37455e-05,0.0870108,2.06746,-0.0904476,-0.0794232,0.0545392,0.0133596,-0.00726095,-0.0147236
-0.00152022,0.085272,2.06826,-0.0879768,-0.0973121,0.0256965,-0.00857135,-0.0242063,-0.0144225
-0.00304389,0.0836626,2.06866,-0.0755401,-0.0449344,0.0234564,5.7789e-05,-0.0157239,-0.0108113
-0.00343077,0.0826556,2.06924,-0.032328,-0.00880572,0.0371731,0.00187793,-0.0127143,-0.0250111
-0.00343077,0.0826556,2.06924,-0.032328,-0.00880572,0.0371731,0.00187793,-0.0127143,-0.0250111
-0.00390959,0.0824615,2.07002,0.00171085,-0.0763157,0.0314589,-0.00364154,-0.0185841,-0.0157958
-0.00436075,0.0827308,2.07046,0.0090877,-0.0610948,0.00398524,0.0069856,-0.0201315,-0.0203517
-0.006512,0.0829396,2.07001,-0.00557344,-0.174297,-0.0607176,-0.0150863,-0.0276749,0.00841272
-0.00862899,0.0825771,2.06824,-0.0347431,-0.121817,-0.12094,-0.0278538,-0.0454159,-0.00228494
-0.0110363,0.0818016,2.06514,-0.0595111,-0.112257,-0.184716,-0.046618,-0.049271,0.0120831
-0.0117829,0.0806598,2.06101,-0.0787296,0.325987,-0.236514,-0.0396777,-0.0436342,0.00530082
-0.00108684,0.0800753,2.0563,0.0134206,0.202611,-0.198097,0.0449524,-0.0250976,-0.228074
-0.00072,0.0804415,2.05438,0.000619348,-0.0483904,0.0282087,0.112412,0.0648061,0.0535898
-0.000604994,0.0805978,2.05721,0.0390572,0.101645,0.216148,0.0453113,0.00717683,-0.0545312
0.00230203,0.0828225,2.06091,0.170853,0.189705,0.117509,-0.000447813,-0.00920632,-0.0361148
0.00527971,0.0866691,2.0614,0.195274,0.107849,-0.0562271,-0.0283922,-0.0233789,0.002855
0.00644276,0.0900974,2.05948,0.150283,-0.0145404,-0.111876,-0.0270159,-0.0306147,0.0439427
0.00602918,0.0922323,2.05735,0.0640684,-0.0321424,-0.0977832,-0.0161048,-0.0152135,0.0368235
0.00629728,0.0926184,2.05551,-0.0163624,0.0497962,-0.0806138,-0.0159596,0.00503792,0.0166751
0.00779545,0.0920281,2.05438,-0.030766,0.0834252,-0.0308578,-0.0033831,0.0128425,0.000361562
0.00910897,0.0918754,2.0542,0.0127019,0.0435573,0.0087482,0.0137262,0.00738036,-0.00352645
0.00955482,0.0927881,2.05444,0.0692081,0.0250401,0.00997345,0.0109485,0.00970819,-0.00604087
0.0101762,0.0945309,2.05439,0.0977208,0.039735,-0.0152336,0.000962601,0.009826,-0.0104824
0.0109179,0.0962502,2.05382,0.0776076,0.030551,-0.0360927,0.00664993,0.0139788,0.00465059
0.0113895,0.0971859,2.05307,0.0258553,0.00724972,-0.0367938,0.00787531,0.0153832,0.0188677
0.0113642,0.0971848,2.05229,-0.00946771,-0.0365144,-0.0392966,0.00112556,0.0122846,0.0200431
0.0106339,0.0967157,2.05147,-0.0204545,-0.0265263,-0.0437155,0.00276746,0.0134199,0.0146033
0.0103288,0.0963661,2.05045,-0.00400706,-0.0203647,-0.0625583,-0.0051995,0.0130261,0.00604951
0.0100622,0.0962801,2.04918,0.00236435,-0.0177773,-0.0598522,0.000238489,0.0188304,0.0183896
0.0106384,0.0960418,2.04878,-0.0203212,0.0581794,0.0329599,0.0199436,0.0384754,0.0163924
0.0107657,0.0955499,2.0499,-0.0203427,-0.0401411,0.0513739,0.0247297,0.0425024,0.0131421
0.0103217,0.095229,2.05003,-0.00910598,0.10355,-0.0420534,-0.0100764,-0.00107575,0.0193419
0.0108643,0.0951232,2.04817,0.00122684,-0.111023,-0.143873,-0.0262111,-0.0120148,-0.0147419
0.00914732,0.0943808,2.04496,-0.0661031,-0.0735978,-0.152763,-0.00986941,-0.00822201,0.0342041
0.00849822,0.0922373,2.04261,-0.110099,-0.0453948,-0.0909145,0.00334832,0.00104213,-0.0177298
0.00854729,0.0899069,2.041,-0.111716,0.0159485,-0.0714226,-0.0167219,-0.004544,-0.00793576
0.00865987,0.0880537,2.03963,-0.070664,0.000723904,-0.0744023,-0.00136301,-0.0120357,-0.0205131
0.00874874,0.0872433,2.03802,-0.0237399,0.00901885,-0.086346,-0.00288649,-0.0074566,-0.0208549
0.0092687,0.0870178,2.03626,-0.00863713,0.0246497,-0.0864456,-0.0032673,-0.00960385,-0.0176662
0.00993721,0.086822,2.03466,-0.0171101,0.00689725,-0.0721296,0.00682403,-0.00952418,-0.00348014
0.00996665,0.0863177,2.03329,-0.0366936,-0.00256568,-0.061677,0.00391036,-0.0120865,0.0140345
0.00985389,0.0855534,2.03218,-0.0419666,-0.0101773,-0.0520661,0.00470869,-0.0151063,0.006365
0.00957087,0.0848841,2.03112,-0.0269448,-0.0314587,-0.0530656,0.003922,-0.0153307,0.00190806
0.00886395,0.0846649,2.03007,-0.00261466,-0.0463001,-0.0508386,0.0076932,-0.0145268,-0.0091905
0.00929657,0.0851002,2.02941,0.040809,0.0134218,-0.0141088,0.0339043,0.00289,-0.0463254
0.0100712,0.0862143,2.02962,0.0607432,0.032646,0.0270965,0.0307379,0.0144065,-0.0292469
0.00984328,0.0876123,2.03023,0.0696281,-0.0631213,0.0138612,0.0161193,-0.00524269,0.000495553
0.00726695,0.0888127,2.02974,0.0413227,-0.129331,-0.0560907,-0.0300501,-0.0368075,0.0453794
0.00588181,0.0892914,2.02841,0.0107609,-0.0368465,-0.0650247,-0.0032033,-0.0166927,0.00541359
0.00621493,0.089138,2.02729,-0.0138008,0.0299414,-0.0473548,0.00105773,0.00988796,-0.00966567
0.00676877,0.0888843,2.02662,-0.00173901,-0.00130906,-0.0240939,0.00856259,0.000525728,-0.0145295
0.0063565,0.0894491,2.02605,0.039315,-0.0359428,-0.034092,0.0133528,-0.00457271,-0.0178272
0.00562663,0.0906217,2.02526,0.0577518,-0.0283076,-0.0407805,0.00503187,0.00314117,-0.013015
0.00560601,0.0916386,2.02462,0.0474497,0.0183,-0.0223082,0.00486983,0.00270426,-0.00553906
0.00629952,0.0923017,2.02431,0.0236623,0.0400031,-0.0134826,0.00555291,7.61449e-06,0.003124
0.00725156,0.0925269,2.02379,0.000955439,0.0349635,-0.0363457,0.000546257,-0.00310984,0.00436324
0.007693,0.0924057,2.02297,-0.00742959,-0.00606423,-0.0407787,0.00897199,-0.00178098,0.00186872
0.00717419,0.0922848,2.02237,0.000948049,-0.0478507,-0.0159434,0.0190405,0.0041564,0.000251055
0.0062755,0.0923466,2.02231,0.00748321,-0.0394923,0.00588263,0.0127332,0.00258526,0.00316578
0.0062755,0.0923466,2.02231,0.00748321,-0.0394923,0.00588263,0.0127332,0.00258526,0.00316578
0.00577993,0.0924663,2.02258,0.00600692,-0.00502834,0.0230422,0.00715375,0.00209412,0.000533164
0.00621201,0.0926186,2.02328,0.00388758,0.134505,0.0765246,0.00844785,0.00268824,0.0031563
0.00960877,0.092858,2.02608,0.025808,0.142558,0.188675,0.0836487,0.0569122,-0.0564324
0.0113667,0.0936003,2.03002,0.0394863,0.0463494,0.196198,0.0354057,0.0290411,-0.000947356
0.0122295,0.0945871,2.03389,0.060254,0.0603004,0.184383,0.0338765,0.000268854,-0.00619239
0.0133703,0.0959168,2.037,0.0690268,0.120943,0.113759,-0.00276459,0.00311846,0.0146627
0.0159111,0.0970769,2.03828,0.0603632,0.0945335,0.0278202,-0.0394256,-0.0178521,0.0101957
0.0171459,0.0978537,2.03851,0.0262819,0.0151497,0.00172828,-0.0233191,-0.0254256,0.0333084
0.017149,0.0978059,2.03841,-0.0319192,-0.00898411,-0.00825739,-0.0350868,-0.0212769,0.026355
0.0167064,0.0966737,2.0384,-0.0826106,-0.00052525,0.00859025,-0.0156052,-0.00311666,0.0148452
0.0170554,0.0949766,2.0392,-0.0883131,0.0389486,0.0705473,0.00552901,0.00877425,-0.000974298
0.0176555,0.0937223,2.04093,-0.0544499,0.0550063,0.0834248,0.000870777,0.0153076,-0.0106321
0.018175,0.0933294,2.04245,-0.0120456,0.0245444,0.0705607,0.00212302,0.00449465,-0.00827008
0.0178942,0.0934423,2.04415,0.0109123,-0.022534,0.103039,0.0186991,0.0187367,-0.00719225
0.0173851,0.0936406,2.04634,0.00763651,-0.0010582,0.111643,0.00486298,0.0118083,-0.00721711
0.0176264,0.093492,2.04851,-0.0125216,0.041559,0.111927,-0.00195403,0.00708266,-0.00587988
0.0184221,0.0931161,2.05087,-0.0187467,0.0506086,0.123734,-0.00259415,0.00838691,-0.0023191
0.0187721,0.09275,2.05339,-0.0114618,-0.00816763,0.125969,-0.00366038,0.00295638,0.00646693
0.0178928,0.0926215,2.05619,0.00727033,-0.0337512,0.15743,0.00504252,0.00411024,0.0189461
0.0174691,0.0932054,2.05911,0.0474369,0.0268397,0.125382,-0.0292332,-0.00482988,-0.0107485
0.0182833,0.094114,2.06122,0.0370203,0.0741254,0.105324,-0.0245033,0.00323115,-0.00303543
0.0200161,0.0945706,2.06345,0.0114535,0.0823474,0.100403,-0.0119908,-0.00887233,0.00286996
0.0220562,0.0945114,2.06484,-0.0170347,0.117376,0.0472052,-0.0290361,-0.0129748,0.00132221
0.0234455,0.0941052,2.06555,-0.024621,0.0835953,0.0245161,-0.0229581,-0.00599391,-0.000303686
0.0247273,0.0936494,2.06599,-0.0194733,0.0503268,0.0157968,-0.0161935,-0.00542547,-0.00273311
0.0251449,0.0932079,2.06619,-0.0332219,-0.0150656,0.00157936,-0.00826371,-0.00533092,0.00207365
0.0236961,0.0922502,2.06611,-0.077648,-0.0701312,-0.0133622,-3.07523e-06,0.00291652,0.0177158
0.0219365,0.0903488,2.06599,-0.11319,-0.101614,-0.00290483,0.000707241,0.0030372,0.013565
0.0195415,0.0880614,2.066,-0.119829,-0.134983,-0.00746397,0.00200455,0.00944117,0.0164732
0.0167736,0.0857397,2.06576,-0.11671,-0.136212,-0.0131679,0.00341512,0.00972217,0.0123455
0.0137889,0.0836123,2.06562,-0.0997045,-0.170231,-0.00167098,0.0147936,0.0142705,0.00832891
0.0104848,0.0819105,2.06576,-0.077069,-0.169424,0.0145379,0.0138273,0.0210126,0.00850958
0.00756908,0.0805021,2.06604,-0.0656578,-0.114114,0.0084587,-0.00214287,0.0164351,-0.00328237
0.00556895,0.0791535,2.06602,-0.0697951,-0.0946604,-0.0105468,0.00627409,0.0102842,0.00326222
0.00389843,0.0777438,2.06559,-0.066567,-0.109576,-0.0309361,0.00171334,0.00944345,-0.00762099
0.00156893,0.0764225,2.06503,-0.0574956,-0.135405,-0.0220863,0.0129773,0.0135734,0.000223339
-0.000225454,0.0751409,2.06471,-0.061071,-0.0515681,-0.0107963,-0.00844216,0.00220951,-0.0131215
-0.000454642,0.0738427,2.06439,-0.0669539,0.016467,-0.0229848,-0.0205122,-0.0117346,-0.00826418
0.000107555,0.072471,2.06355,-0.0653244,0.0176151,-0.0567304,-0.0134434,-0.0148269,-0.00830114
0.000279788,0.0712276,2.0622,-0.0565031,-0.0187082,-0.0756138,-0.00478041,-0.0144344,-0.0112332
-0.000698054,0.0700079,2.06075,-0.0652837,-0.0891661,-0.0626252,0.00591487,-0.00794543,-0.0108116
-0.00372793,0.0687555,2.05977,-0.0652566,-0.171034,-0.0372224,-0.0115244,-0.0162901,0.00440526
-0.0062932,0.0677269,2.05916,-0.0472817,-0.0812425,-0.0321517,-0.00988031,-0.019651,-0.0192954
-0.00682701,0.0671704,2.05845,-0.027719,0.00348103,-0.0386064,0.017981,0.00239208,-0.0419359
-0.00634486,0.0666717,2.05782,-0.0289998,0.0465181,-0.0162972,0.0119307,0.0180231,-0.0360095
-0.00459668,0.0662687,2.05825,-0.00762357,0.147476,0.0669319,0.0276121,0.0218629,-0.0502402
-0.00114435,0.0668976,2.06034,0.0719997,0.201485,0.128267,0.0276463,0.0128163,-0.0498449
0.00257968,0.0692,2.0628,0.151796,0.180447,0.108322,-0.00573206,0.0046001,-0.0275279
0.0060908,0.0728191,2.0645,0.200157,0.179112,0.060839,-0.0288712,-0.00903238,3.21865e-05
0.0093641,0.0767735,2.06522,0.195463,0.180335,0.00850957,-0.0260447,-0.0222246,0.0233321
0.0126853,0.0797588,2.06471,0.0994506,0.109398,-0.0459914,0.0275318,0.0180745,0.0160431
0.0127369,0.0804958,2.06426,0.0139114,-0.145959,0.00602321,-0.0688172,-0.000950977,0.0592879
0.013752,0.0816286,2.06392,0.0725578,0.285013,-0.064594,0.0223965,-0.0887349,-0.0784972
0.0158402,0.0827339,2.06141,0.0301715,-0.0712657,-0.176823,0.0142745,0.021879,-0.0292718
0.0158402,0.0827339,2.06141,0.0301715,-0.0712657,-0.176823,0.0142745,0.021879,-0.0292718
0.0141588,0.083096,2.05839,0.0154512,-0.0989884,-0.0822666,0.0273334,0.0529101,0.0192921
0.0126973,0.0832055,2.05862,-0.000141216,-0.0559858,0.0884205,0.0510371,0.0217692,-0.00758344
0.0122643,0.0838694,2.06072,0.0665884,0.079579,0.0943054,0.000245557,0.00674473,-0.0135844
0.0136595,0.0856799,2.06191,0.0983696,0.0476601,0.0308858,0.0204181,0.0325203,-0.00228107
0.0145636,0.0873676,2.06261,0.0708476,0.0403067,0.0626934,0.0226171,0.0313941,0.0341662
0.0149496,0.088209,2.06458,0.00999141,0.0152701,0.134932,0.0351579,0.0209103,0.0535417
0.0149404,0.0879587,2.06766,-0.0333179,0.00770889,0.174549,0.0448713,0.0387425,0.0663965
0.0149413,0.0868657,2.07155,-0.079995,-0.00418133,0.218243,0.0750051,0.0530498,0.0626772
0.0133246,0.084983,2.0769,-0.0974027,-0.113153,0.32494,0.0928182,0.0470695,0.0581465
0.00964209,0.0837662,2.08461,-0.0249477,-0.183005,0.441117,0.137242,0.0409895,0.032748
0.00576646,0.0840833,2.09413,0.0472745,-0.113887,0.506369,0.100226,0.0486296,0.0192472
0.0033929,0.0854951,2.10474,0.0796718,-0.0575002,0.561796,0.0878671,0.0455198,0.0259591
0.000682755,0.086797,2.11665,0.0360754,-0.132573,0.628841,0.10781,0.0329771,0.0502056
-0.00495338,0.0865017,2.12946,-0.0671707,-0.334984,0.637884,0.0823732,0.0145249,0.0773188
-0.0139043,0.0839817,2.14219,-0.164859,-0.428639,0.645057,0.0897215,0.0112969,0.0452685
-0.0236989,0.0799872,2.15525,-0.193808,-0.458691,0.666689,0.0639804,0.0181954,0.0247058
-0.034231,0.0762814,2.16924,-0.112974,-0.48498,0.757983,0.0905518,0.0335744,-0.0378244
-0.0443521,0.0752108,2.1856,0.0797634,-0.378705,0.873934,0.0953902,0.0364283,-0.0876394
-0.0508089,0.0774551,2.20374,0.213763,-0.121396,0.918942,0.0710969,0.0319981,-0.0995454
-0.0529838,0.0812221,2.22232,0.251222,0.0174201,0.922581,0.0485577,0.0399951,-0.0722002
-0.0537716,0.0852615,2.24139,0.255818,0.0684034,0.964078,0.0411909,0.025832,-0.0575171
-0.0528514,0.0894056,2.26119,0.273689,0.222258,0.984311,0.0158726,-0.00220513,-0.0743087
-0.0467289,0.094656,2.28098,0.360021,0.630664,0.953415,-0.0289977,-0.00439277,-0.126413
-0.0309006,0.102094,2.29988,0.450897,1.09511,0.914152,-0.059231,0.0259588,-0.107946
-0.0121365,0.111083,2.31889,0.48604,0.824572,0.981647,0.0319588,0.0379636,-0.00849485
-0.00594669,0.120639,2.33966,0.483156,0.0515203,1.06123,0.157164,0.00572263,0.0227437
-0.0128403,0.129499,2.36009,0.407684,-0.435129,0.911451,0.101478,-0.0487796,0.00926042
-0.0256839,0.135418,2.37505,0.185879,-0.613788,0.556141,-0.0209255,-0.0568747,0.0012604
-0.0389714,0.135589,2.38323,-0.148954,-0.602462,0.290047,-0.0351418,-0.0284917,0.0377075
-0.0522517,0.129297,2.38809,-0.434049,-0.696877,0.259845,0.0146216,0.00674474,0.0546151
-0.068265,0.119273,2.3939,-0.48422,-0.807086,0.38208,0.0413144,0.0080588,0.00814569
-0.083495,0.111193,2.40183,-0.212781,-0.575413,0.443632,0.0204135,-0.00361437,-0.115442
-0.0909712,0.110908,2.4103,0.270113,-0.0644355,0.380824,-0.0299363,-3.74094e-05,-0.189926
-0.0883727,0.120225,2.41803,0.704456,0.376245,0.305978,-0.00149071,0.0204182,-0.159744
-0.0803334,0.135893,2.42547,0.873795,0.453309,0.311426,0.0433744,0.0541915,-0.0551086
-0.0748805,0.151658,2.43377,0.728356,0.163242,0.404063,0.0966265,0.0581052,0.0428351
-0.077388,0.16248,2.44392,0.416288,-0.231343,0.502285,0.127318,0.0117109,0.074818
-0.0835295,0.167025,2.45439,0.135396,-0.133698,0.469772,0.144954,-0.000346437,-0.00903821
-0.0853906,0.166848,2.46274,-0.0778893,0.0948325,0.363333,0.0863303,0.0104815,-0.105645
-0.0850457,0.163325,2.47003,-0.182626,-0.0162501,0.411409,0.128918,0.0085772,-0.0154091
-0.0883171,0.159544,2.47893,-0.102846,-0.126617,0.493225,0.159897,0.000466093,0.0116045
-0.0922746,0.15786,2.48931,0.0237509,-0.0927548,0.54493,0.135981,0.0183804,0.0131651
-0.0950097,0.158123,2.5011,0.107032,-0.001778,0.620958,0.139795,0.0206243,0.0331044
-0.0969809,0.159553,2.51496,0.163177,0.00695335,0.737188,0.165301,0.0146656,0.0431603
-0.0992341,0.161575,2.53112,0.186859,0.0402403,0.823831,0.174563,0.00665209,0.0531187
-0.100521,0.163275,2.54821,0.139988,0.101866,0.836451,0.167056,0.0106796,0.0650782
-0.10095,0.163309,2.56533,0.028247,0.117033,0.860274,0.183834,0.0322741,0.0530062
-0.102901,0.160659,2.58327,-0.110278,-0.0339524,0.940844,0.199206,0.0302538,0.0305761
-0.108357,0.155412,2.60268,-0.197423,-0.218789,1.02257,0.180328,0.0230884,-0.019067
-0.11803,0.149017,2.62302,-0.195264,-0.442134,1.04804,0.144634,0.0374278,-0.0925782
-0.131315,0.143018,2.64371,-0.133254,-0.550407,1.06737,0.12275,0.0586072,-0.139047
-0.143715,0.138336,2.66528,-0.0275492,-0.357104,1.1283,0.0804813,0.0590678,-0.189152
-0.150785,0.135862,2.68866,0.133609,-0.00331083,1.20231,0.00373386,0.045707,-0.170603
-0.150242,0.136382,2.71331,0.286926,0.416717,1.19476,-0.0723544,0.0206486,-0.0894769
-0.150242,0.136382,2.71331,0.286926,0.416717,1.19476,-0.0723544,0.0206486,-0.0894769
-0.141418,0.139656,2.73702,0.36445,0.753687,1.07439,-0.106412,0.00748847,-0.00407296
-0.126378,0.144306,2.75812,0.369273,1.05082,0.944,-0.114343,0.00249386,0.0664154
-0.106799,0.148782,2.77669,0.27972,1.14014,0.839424,-0.121922,-0.000569671,0.120326
-0.0886832,0.151636,2.7933,0.163639,0.891907,0.779518,-0.100346,0.00296851,0.145484
-0.0765696,0.152637,2.80864,0.0651506,0.551224,0.723827,-0.0827197,-0.00826356,0.142796
-0.0706796,0.152048,2.82226,-0.0280845,0.263807,0.613852,-0.0755492,-0.0190694,0.112521
-0.0686613,0.14965,2.83298,-0.136536,0.139554,0.463592,-0.076477,-0.0213796,0.0702184
-0.0664567,0.145379,2.8409,-0.228463,0.216115,0.362537,-0.075406,-0.00857449,0.0281757
-0.0617279,0.139863,2.84774,-0.270391,0.364502,0.366511,-0.0708412,0.00232248,0.0039131
-0.0536067,0.133894,2.85543,-0.283484,0.543697,0.435896,-0.0605766,0.0126908,0.00822634
-0.0428086,0.1279,2.86486,-0.270835,0.669305,0.530675,-0.0357706,0.028019,0.00548011
-0.0294386,0.122341,2.87636,-0.245977,0.797589,0.634659,-0.0115419,0.0353359,0.0105587
-0.0152931,0.117392,2.89012,-0.221445,0.751613,0.759517,-0.00338266,0.0488239,0.0256094
-0.00458931,0.11311,2.90707,-0.19521,0.491795,0.942832,0.0157141,0.0670314,0.0368734
-0.000313754,0.109325,2.928,-0.178073,0.170578,1.14765,0.0301123,0.0820531,0.0206108
-0.0024944,0.105996,2.95299,-0.149847,-0.111019,1.33796,0.0308617,0.0924307,-0.00746167
-0.0101506,0.103489,2.98154,-0.0747055,-0.346792,1.51417,0.0282541,0.101199,-0.0400847
-0.0207573,0.102413,3.01348,0.0114079,-0.347413,1.67132,0.012331,0.097382,-0.0689458
-0.0297826,0.102452,3.04818,0.0751985,-0.193684,1.78282,-0.0581618,0.0755704,-0.0721673
-0.0348648,0.103248,3.08451,0.114475,0.0474913,1.82477,-0.0710256,0.0457222,-0.0544375
-0.0363674,0.10403,3.12079,0.0830288,0.155637,1.77729,-0.0712896,0.0342315,-0.0249389
-0.0368074,0.103687,-3.1276,0.00846822,0.153622,1.69431,-0.0986066,0.0246442,0.0220776
-0.0379154,0.101404,-3.09446,-0.127659,0.0715614,1.61661,-0.0844656,0.00926562,0.0512464
-0.0401363,0.0960702,-3.06329,-0.277716,0.0191885,1.51461,-0.0578684,0.0130063,0.0558207
-0.0430111,0.0884816,-3.03413,-0.357984,-0.0344976,1.43276,-0.056261,0.0157191,0.0521737
-0.0460763,0.0797508,-3.00634,-0.387174,-0.0203554,1.38906,-0.0458223,0.0167848,0.0330561
-0.0477883,0.071025,-2.97897,-0.346911,0.0560509,1.38878,-0.0418127,0.0145078,0.0180991
-0.0479955,0.0636892,-2.95156,-0.256811,0.0936432,1.39266,-0.0389427,0.0171831,0.0171328
-0.0480167,0.0579793,-2.92396,-0.191397,0.0634243,1.39481,-0.032954,0.00625005,0.0193096
-0.0484569,0.0532426,-2.89652,-0.161839,0.0458681,1.36995,-0.0314494,-0.0158591,0.0128832
-0.0493541,0.0485659,-2.86985,-0.181385,-0.0158119,1.32041,-0.0400948,-0.0270757,0.00698888
-0.052084,0.0435289,-2.84413,-0.193176,-0.127328,1.2789,-0.0381531,-0.0441772,-0.0125254
-0.0556194,0.0384133,-2.81947,-0.18567,-0.104312,1.21114,-0.0396041,-0.0591608,-0.0509585
-0.0575875,0.0336429,-2.79636,-0.155448,0.00186902,1.12409,-0.061053,-0.0678344,-0.0871225
-0.0568485,0.0298941,-2.77493,-0.0889944,0.131726,1.04703,-0.066407,-0.0702538,-0.0925308
-0.0537517,0.0278262,-2.75467,-0.0101572,0.242951,0.993341,-0.0687315,-0.0726871,-0.070236
-0.0480765,0.0271231,-2.73525,0.0337449,0.37934,0.957815,-0.0699559,-0.0621289,-0.0298889
-0.039459,0.0271725,-2.71626,0.0449239,0.543144,0.942179,-0.0793554,-0.0624915,0.0204439
-0.0275927,0.0271752,-2.69769,0.0126442,0.681174,0.914915,-0.0810636,-0.0701792,0.0706614
-0.0138014,0.0265515,-2.67965,-0.0353949,0.754858,0.898287,-0.0700357,-0.0866261,0.118281
0.00123599,0.0254258,-2.6618,-0.0616658,0.774124,0.892927,-0.0760037,-0.100935,0.168057
0.0161079,0.0245244,-2.64429,-0.034948,0.755982,0.85718,-0.130299,-0.128096,0.208783
0.0285513,0.0243998,-2.62799,-0.0168754,0.519389,0.769879,-0.0696767,-0.131944,0.192563
0.0367579,0.02458,-2.61384,-0.0217724,0.319375,0.657548,-0.00306243,-0.111333,0.177261
0.0405657,0.0242211,-2.60141,-0.0657066,0.127508,0.590948,-0.041916,-0.117001,0.15753
0.0423235,0.0227579,-2.59027,-0.136844,0.0805722,0.520146,-0.0110805,-0.123637,0.11022
0.043131,0.0195418,-2.5803,-0.219696,0.0198068,0.480771,0.042645,-0.104117,0.0440758
0.0432002,0.0157173,-2.57019,-0.186101,0.00964337,0.520091,-0.000258423,-0.101379,-0.0106389
0.0430057,0.0135906,-2.55929,-0.0725824,-0.0234153,0.561381,-0.0316817,-0.095617,-0.0593665
0.0421259,0.0136925,-2.54792,0.0247052,-0.0444208,0.569315,-0.0542555,-0.0992382,-0.104466
0.0399713,0.0150725,-2.53755,0.061937,-0.204904,0.455275,-0.0799952,-0.103092,-0.152249
0.0323335,0.0162878,-2.53074,0.015494,-0.5581,0.220696,-0.0854242,-0.0983217,-0.225555
0.0179236,0.0157938,-2.52863,-0.0843483,-0.892505,0.00356219,-0.0973119,-0.0826414,-0.304225
-0.00109422,0.0131347,-2.5297,-0.155209,-0.921112,-0.0910387,-0.101811,-0.065067,-0.396373
-0.00109422,0.0131347,-2.5297,-0.155209,-0.921112,-0.0910387,-0.101811,-0.065067,-0.396373
-0.01639,0.0111486,-2.53151,-0.0263981,-0.575215,-0.0810933,-0.133896,-0.0404416,-0.439528
-0.0223217,0.0128962,-2.53289,0.218401,-0.00249932,-0.0626455,-0.157995,0.00163485,-0.429043
-0.0169945,0.0204565,-2.53351,0.54175,0.517244,0.00066228,-0.132332,0.0253989,-0.327945
-0.00204318,0.0339547,-2.53212,0.800904,0.971773,0.126334,-0.0900601,0.0236027,-0.170867
0.0198058,0.0517259,-2.52867,0.963061,1.20018,0.228667,-0.0887325,0.0460724,-0.00205213
0.0440795,0.0718113,-2.52417,1.02122,1.2311,0.283217,-0.0501163,0.0769375,0.136194
0.0671929,0.0923225,-2.51941,0.995054,1.11956,0.295032,0.00270839,0.101347,0.229105
0.0876772,0.111486,-2.51556,0.880135,0.954152,0.219899,0.0160365,0.110569,0.283142
0.102785,0.127845,-2.51384,0.747016,0.499207,0.107438,-0.063101,0.0904185,0.29915
0.105868,0.141827,-2.515,0.662955,-0.0518544,-0.114023,-0.0386916,0.00213128,0.213405
0.1032,0.153038,-2.52194,0.522158,-0.525082,-0.458165,-0.07833,0.0632232,0.233375
0.0841804,0.160104,-2.53547,0.28583,-1.52744,-0.79416,-0.0307902,0.127972,0.128735
0.0486435,0.161117,-2.55348,-0.0741733,-2.29676,-0.943669,0.0344639,0.15563,0.0465348
0.00262874,0.155897,-2.57249,-0.368331,-2.51539,-0.948846,0.0767336,0.16372,-0.119675
-0.0409122,0.148395,-2.5918,-0.382399,-2.01467,-0.953711,0.0274508,0.191399,-0.282967
-0.0672658,0.143229,-2.61121,-0.221943,-0.833115,-0.931711,-0.00773773,0.202584,-0.321758
-0.0677001,0.142548,-2.62965,0.0351282,0.501112,-0.888888,-0.0508508,0.217871,-0.227269
-0.0453898,0.147253,-2.64673,0.333684,1.39589,-0.823028,-0.0861593,0.21682,-0.0577698
-0.0113899,0.156633,-2.6619,0.543621,1.71268,-0.705491,-0.0821488,0.193759,0.0999072
0.024413,0.168541,-2.67474,0.649835,1.6363,-0.554287,-0.0630051,0.172749,0.187273
0.0579777,0.181973,-2.68497,0.735348,1.59068,-0.400373,-0.0576904,0.166322,0.180063
0.0923904,0.196881,-2.69283,0.810751,1.74152,-0.267804,-0.0596692,0.129159,0.129331
0.13019,0.213108,-2.69964,0.879893,1.86214,-0.226512,-0.033853,0.17532,0.0923066
0.168423,0.230647,-2.70671,0.967392,1.8576,-0.191764,-0.0221517,0.172439,0.0117916
0.210366,0.249522,-2.71413,1.02442,2.18651,-0.170391,-0.00583276,0.148812,-0.0451757
0.255822,0.268446,-2.72368,1.03365,2.02192,-0.332988,0.0205026,0.100347,-0.0514627
0.295801,0.284777,-2.73978,0.944952,1.53464,-0.756359,0.00946516,0.0193616,0.0205055
0.327878,0.294312,-2.7653,0.701056,0.924756,-1.26976,-0.0259007,-0.0200536,0.0963127
0.349129,0.29479,-2.79755,0.364462,0.262135,-1.6038,-0.00969633,-0.0358309,0.129849
0.357331,0.286401,-2.83198,-0.00578233,-0.45926,-1.77881,0.0318737,-0.0239865,0.157707
0.351936,0.2705,-2.86683,-0.284902,-0.969618,-1.92708,0.0468473,0.00131395,0.156862
0.338958,0.250768,-2.90299,-0.383713,-1.25873,-2.03843,0.0517667,0.0229438,0.0711353
0.321864,0.228545,-2.94065,-0.538966,-1.25712,-2.15472,0.0295368,0.0375801,0.0344383
0.307352,0.203523,-2.97975,-0.651211,-1.08758,-2.26559,0.000415146,0.0295441,-0.0123046
0.292346,0.177484,-3.02087,-0.633427,-1.23812,-2.37973,0.0238073,0.017435,-0.0728682
0.272353,0.153105,-3.06497,-0.474586,-1.49215,-2.49524,0.091036,0.025066,-0.13475
0.247695,0.133901,-3.11288,-0.140026,-1.62931,-2.59631,0.118551,0.0423755,-0.189894
0.222022,0.122664,3.11856,0.224847,-1.57944,-2.66731,0.116764,0.0706447,-0.215423
0.199913,0.1188,3.0647,0.567107,-1.27429,-2.55121,0.0647327,0.0900178,-0.18988
0.183729,0.127032,3.01687,1.13277,-0.948347,-1.97381,0.037464,0.144055,-0.165912
0.172357,0.147421,2.97787,1.53184,-0.749071,-1.525,0.128345,0.125922,-0.15888
0.16244,0.170819,2.94286,1.19863,-0.724733,-1.56379,0.0307672,0.165442,-0.0825806
0.161484,0.183799,2.91028,0.616075,0.11831,-1.34671,0.0182102,0.128292,0.0441111
0.174279,0.187555,2.8849,0.211232,0.564244,-1.09755,-0.0176779,0.0664466,0.106603
0.190124,0.186299,2.86258,0.0944791,0.553416,-1.11482,-0.129314,0.0886963,0.120323
0.203201,0.183027,2.83872,0.0375942,0.329053,-1.26536,-0.164468,0.060944,0.125557
0.212138,0.177214,2.81222,-0.0698095,0.0721556,-1.40762,-0.164681,0.0253176,0.141853
0.21495,0.168905,2.78387,-0.127436,-0.293504,-1.50341,-0.172849,0.0146762,0.112315
0.210449,0.160396,2.7539,-0.0618754,-0.628854,-1.56939,-0.161479,0.0331679,0.0322791
0.200706,0.153866,2.72259,0.0542522,-0.819216,-1.59299,-0.154266,0.0745242,-0.0373271
0.188141,0.149549,2.69087,0.120295,-0.891992,-1.57429,-0.152841,0.101888,-0.0680397
0.175625,0.146627,2.65946,0.158994,-0.789635,-1.54801,-0.162518,0.100676,-0.0878985
0.166746,0.144997,2.62796,0.210776,-0.550617,-1.56981,-0.171816,0.0942883,-0.101824
0.163225,0.143938,2.59526,0.205226,-0.262913,-1.66563,-0.172784,0.101877,-0.0929535
0.163225,0.143938,2.59526,0.205226,-0.262913,-1.66563,-0.172784,0.101877,-0.0929535
0.165981,0.141362,2.56029,0.0919203,0.0250501,-1.80115,-0.177518,0.0988383,-0.0623994
0.173063,0.13557,2.52357,-0.0423329,0.143108,-1.88478,-0.15617,0.0862201,-0.00990784
0.180044,0.12732,2.48596,-0.0974452,0.0300387,-1.94095,-0.152019,0.08152,0.00700045
0.182378,0.118514,2.44763,-0.0784385,-0.300528,-1.9733,-0.124204,0.0853389,-0.000442386
0.177163,0.11005,2.40868,-0.0596203,-0.646694,-1.99646,-0.0692607,0.0794323,-0.0197303
0.167194,0.102031,2.36937,-0.051487,-0.725316,-1.99424,-0.0427627,0.0689711,-0.0603627
0.157137,0.0948341,2.33043,-0.0327547,-0.645609,-1.95933,-0.0489918,0.0708425,-0.0862319
0.149479,0.0885304,2.29213,-0.00795939,-0.462969,-1.92266,-0.0571686,0.0834251,-0.0946899
0.145219,0.0833764,2.25493,0.0542362,-0.281893,-1.81422,-0.0496779,0.0753758,-0.0966198
0.143863,0.0806671,2.22026,0.190219,-0.164032,-1.65371,-0.0318021,0.0566843,-0.0844411
0.143108,0.0816639,2.18801,0.37123,-0.189977,-1.54228,-0.0303742,0.0580441,-0.0730609
0.140884,0.0861982,2.1566,0.511565,-0.292431,-1.51089,-0.0401507,0.0504927,-0.052097
0.137222,0.0923112,2.12477,0.516559,-0.357131,-1.56814,-0.0474487,0.0323962,-0.0195382
0.132745,0.0974856,2.0914,0.439379,-0.404617,-1.66147,-0.0406166,0.0149338,-0.0017851
0.12805,0.100962,2.05672,0.350309,-0.406191,-1.72888,-0.022237,0.0172339,0.00556099
0.12345,0.102514,2.02098,0.247237,-0.428329,-1.78712,-0.0192184,0.0289554,0.00936598
0.11833,0.102152,1.98497,0.151625,-0.449751,-1.7748,0.00327391,0.0397646,0.0187755
0.112553,0.100492,1.95006,0.090947,-0.492715,-1.69768,0.0303259,0.0526087,0.0262266
0.10525,0.0984802,1.9173,0.0738584,-0.565888,-1.57022,0.0623843,0.0684749,0.0189142
0.0964466,0.0970909,1.88724,0.0954214,-0.597145,-1.43113,0.0814635,0.0765374,0.0048098
0.0878586,0.0965797,1.85964,0.0983153,-0.511837,-1.32712,0.0791825,0.0741366,-0.0131837
0.081698,0.096002,1.83379,0.0563831,-0.347662,-1.25008,0.0774753,0.0621174,-0.0259759
0.0789887,0.094425,1.80944,-0.0133782,-0.16112,-1.18142,0.0807924,0.0590369,-0.0318661
0.0791528,0.0922344,1.78704,-0.0178594,-0.0311892,-1.05947,0.068559,0.0536821,-0.0405713
0.0811766,0.0908525,1.7675,0.0461681,0.0388674,-0.894584,0.0586665,0.0577991,-0.0370515
0.0835054,0.0914293,1.75125,0.147835,0.0417847,-0.720667,0.0550168,0.063592,-0.0348684
0.0858779,0.0942175,1.73827,0.232884,0.086788,-0.548436,0.0528832,0.0706559,-0.0436113
0.0886496,0.0984807,1.72844,0.274851,0.0774831,-0.39788,0.0358274,0.0685212,-0.057337
0.0909678,0.103657,1.72112,0.30866,0.098722,-0.289632,0.00368511,0.0393691,-0.0637861
0.0942812,0.109622,1.71519,0.337522,0.170364,-0.256016,-0.0261326,0.029767,-0.0470076
0.09844,0.115902,1.70918,0.34406,0.162054,-0.283843,-0.059902,0.0270657,-0.0266852
0.101484,0.121871,1.7025,0.321659,0.049779,-0.315616,-0.0625033,0.021411,-0.00346035
0.101671,0.127792,1.6952,0.36106,-0.124294,-0.348167,-0.0634369,0.0108218,-0.000428319
0.0995332,0.135396,1.68681,0.490749,-0.163883,-0.412219,-0.0514624,0.00661094,-0.0129728
0.0987259,0.145732,1.67644,0.640577,-0.0493443,-0.517104,-0.0529804,0.018798,-0.0177221
0.101474,0.158433,1.66354,0.744631,0.144715,-0.631818,-0.0597019,0.023265,-0.00927258
0.109139,0.17232,1.64854,0.807948,0.330666,-0.620231,-0.0501957,0.0299893,0.0187566
0.113681,0.189965,1.64153,0.974247,0.0876151,0.0351213,0.00220557,0.0426916,0.0664619
0.116216,0.207598,1.64067,0.709062,0.0672768,-0.0307201,0.0585625,0.142893,0.12386
0.116967,0.21559,1.63496,0.170693,0.00233468,-0.403027,-0.0538334,0.0869406,0.196479
0.119939,0.213714,1.62549,-0.227069,0.0164131,-0.511744,0.0191941,-0.0313936,0.167541
0.119906,0.20552,1.61519,-0.431136,-0.241703,-0.601508,0.0231876,-0.00925642,0.119097
0.115377,0.195426,1.6033,-0.405977,-0.415738,-0.654485,0.010834,0.0466472,0.029039
0.109297,0.18748,1.59174,-0.241585,-0.412481,-0.541799,0.0483185,0.0614443,-0.0554593
0.102451,0.183756,1.58311,-0.0374262,-0.418538,-0.343045,0.0885674,0.0609126,-0.0975066
0.0958394,0.184446,1.57775,0.15487,-0.316609,-0.192069,0.0549172,0.0558389,-0.103855
0.0921037,0.188668,1.57433,0.290661,-0.117599,-0.113329,-0.0243167,0.0349784,-0.0907561
0.091917,0.19491,1.57147,0.34786,0.0218999,-0.126803,-0.0366896,-0.0149699,-0.0598348
0.093999,0.200966,1.56698,0.272938,0.130514,-0.28787,-0.057029,-0.0591881,-0.00371492
0.0982902,0.205227,1.55831,0.212926,0.0649407,-0.510454,-0.0811496,-0.0755224,0.0224004
0.101215,0.207423,1.5457,0.124222,-0.0253784,-0.696686,-0.0524743,-0.0809111,0.0525515
0.102967,0.207397,1.52993,0.0351217,-0.1226,-0.836118,-0.04382,-0.0772134,0.0703111
0.103515,0.205346,1.51188,-0.0589719,-0.18039,-0.945584,-0.017648,-0.0567757,0.0660811
0.103515,0.205346,1.51188,-0.0589719,-0.18039,-0.945584,-0.017648,-0.0567757,0.0660811
0.103642,0.201504,1.49216,-0.116004,-0.208844,-1.01731,0.00744705,-0.0423039,0.0533057
0.10346,0.197161,1.47136,-0.090236,-0.220572,-1.04919,0.0509316,-0.0320805,0.0169023
0.102599,0.194233,1.45052,0.0178088,-0.273511,-1.01375,0.0717781,-0.0129643,-0.0114211
0.0996353,0.193845,1.43054,0.135262,-0.39543,-0.942803,0.0851776,0.010779,-0.0225887
0.0950914,0.195948,1.41167,0.260375,-0.427965,-0.884856,0.0929956,0.0154669,-0.0272146
0.0893513,0.200886,1.39338,0.392237,-0.496814,-0.877324,0.0717417,0.00897014,-0.0465102
0.0837382,0.208024,1.37413,0.474056,-0.444704,-0.948959,0.0560108,-0.000138611,-0.048196
0.0799207,0.215773,1.35319,0.449558,-0.389552,-1.04853,0.0302158,-0.00464718,-0.0259406
0.0773197,0.221934,1.32999,0.335824,-0.383313,-1.15867,0.0267178,-0.000250876,0.00342774
0.0748405,0.225825,1.30529,0.248365,-0.431172,-1.21479,0.0531959,-0.0161714,0.00224656
0.0701733,0.228686,1.27973,0.223692,-0.636498,-1.261,0.0772328,-0.0169851,-0.0220842
0.0610637,0.23141,1.25318,0.229434,-0.863408,-1.30128,0.0837436,-0.00502467,-0.0543643
0.0494801,0.235481,1.22626,0.341128,-0.879774,-1.29914,0.085099,-0.00751874,-0.121058
0.0403141,0.242937,1.19918,0.52076,-0.657027,-1.31393,0.0463448,0.0156708,-0.153887
0.0374593,0.25257,1.17087,0.505678,-0.316446,-1.39172,0.0479814,0.0617221,-0.108013
0.0430186,0.259834,1.14189,0.316371,0.139969,-1.38721,0.0609925,0.0398029,-0.0181499
0.0562349,0.262497,1.11277,0.0975057,0.381625,-1.42829,0.0504564,0.0191361,0.0630344
0.0708173,0.261453,1.08296,0.0132003,0.264611,-1.45295,0.0503599,0.00442585,0.098085
0.0809314,0.260355,1.05317,0.118966,-0.0255217,-1.42592,0.0640933,-0.0204845,0.0873881
0.0852175,0.261706,1.02386,0.242993,-0.286958,-1.39261,0.0643749,-0.0207511,0.0788998
0.0853034,0.264904,0.995589,0.296962,-0.422941,-1.29962,0.0599381,-0.0221189,0.0796503
0.08362,0.268407,0.969204,0.252053,-0.429947,-1.23203,0.0519296,-0.034441,0.0813242
0.0825879,0.270046,0.943382,0.112761,-0.350041,-1.24254,0.0583283,-0.0449464,0.0736635
0.0836052,0.268858,0.917934,-0.0155859,-0.22846,-1.20345,0.0918707,-0.0511116,0.049529
0.0861902,0.266262,0.894105,-0.0301223,-0.156653,-1.11026,0.117969,-0.0397754,0.0160506
0.0887828,0.26471,0.872538,0.069,-0.156992,-0.983144,0.141366,-0.0254955,-0.0140815
0.0913409,0.265711,0.853217,0.182163,-0.0757774,-0.884708,0.144394,-0.017953,-0.0213093
0.0945432,0.267478,0.83512,0.127768,-0.127119,-0.849218,0.117603,-0.0230539,0.0233049
0.0941773,0.267117,0.81784,0.000437517,-0.399682,-0.819771,0.109904,-0.0202735,0.0629685
0.0867711,0.264655,0.800789,-0.0856848,-0.77428,-0.854183,0.11681,-0.00768021,0.029743
0.0747257,0.261437,0.782744,-0.0886978,-0.851078,-0.917987,0.118524,0.0074009,-0.0775698
0.0639777,0.258287,0.763244,-0.0984115,-0.698594,-0.980895,0.0837098,0.0387348,-0.144433
0.0580932,0.255036,0.743206,-0.106978,-0.379528,-0.964034,0.0771488,0.0616526,-0.180066
0.0593418,0.252413,0.724399,-0.0388684,0.0233152,-0.872436,0.0834872,0.0692754,-0.192663
0.0677631,0.251516,0.707352,0.057967,0.404813,-0.797085,0.062471,0.0865952,-0.150584
0.0819151,0.252029,0.691608,0.0946087,0.592238,-0.721557,0.032822,0.0921884,-0.0563384
0.097974,0.252639,0.677671,0.0901906,0.646162,-0.612448,0.0105582,0.0799165,0.0422107
0.112948,0.25376,0.666263,0.147759,0.558776,-0.478746,0.00580038,0.0760272,0.091431
0.125038,0.256585,0.657091,0.234565,0.414054,-0.374936,-0.0195248,0.092997,0.121485
0.13357,0.260754,0.649795,0.254534,0.253648,-0.26994,-0.0393926,0.0957303,0.152795
0.138301,0.2648,0.644426,0.21352,0.0867623,-0.205941,-0.0553574,0.0761546,0.172009
0.139731,0.267701,0.639349,0.138465,-0.0869494,-0.254699,-0.102288,0.0671732,0.175151
0.137492,0.268713,0.633099,0.0424305,-0.301424,-0.323214,-0.106674,0.059238,0.155576
0.131361,0.26785,0.625829,-0.02866,-0.486515,-0.388261,-0.119309,0.0509589,0.108561
0.123127,0.265435,0.616592,-0.102854,-0.57015,-0.538532,-0.133407,0.0530094,0.0413217
0.115152,0.261008,0.604508,-0.206952,-0.527791,-0.666623,-0.120177,0.0471326,-0.0123751
0.110073,0.25377,0.590573,-0.367192,-0.321347,-0.752242,-0.117243,0.0616323,-0.053434
0.109603,0.243797,0.576107,-0.449668,-0.0896982,-0.734735,-0.0961849,0.0428873,-0.107096
0.112933,0.23377,0.562996,-0.392691,0.1029,-0.643346,-0.0750205,0.0294677,-0.150035
0.118661,0.225617,0.552259,-0.291751,0.2163,-0.481299,-0.0495259,0.0327445,-0.154756
0.124936,0.220177,0.545082,-0.164036,0.241633,-0.284248,-0.0116176,0.0013462,-0.131082
0.130529,0.21745,0.541087,-0.0650428,0.244335,-0.151902,-0.00381735,-0.0256693,-0.0974379
0.136658,0.216566,0.53907,-0.00683621,0.348262,-0.0652494,-0.020197,-0.0428439,-0.074487
0.145681,0.216314,0.537966,-0.00317017,0.545513,-0.0540177,-0.0372303,-0.0580585,-0.0562643
0.145681,0.216314,0.537966,-0.00317017,0.545513,-0.0540177,-0.0372303,-0.0580585,-0.0562643
0.159742,0.216456,0.536683,0.0511687,0.832967,-0.0668906,-0.0629295,-0.0879955,-0.0642427
0.178748,0.218977,0.534906,0.243357,1.01545,-0.0547135,-0.0877055,-0.084786,-0.0571629
0.200066,0.225372,0.532156,0.419807,1.06564,-0.133247,-0.109785,-0.0688741,0.00661474
0.221002,0.233247,0.526322,0.452354,0.871417,-0.244883,-0.125106,-0.0728932,0.0758753
0.237947,0.239876,0.518816,0.32681,0.639625,-0.320199,-0.0998242,-0.0918244,0.123228
0.250443,0.241925,0.5106,0.0561843,0.435143,-0.401354,-0.0745388,-0.0754151,0.145653
0.260153,0.238863,0.502332,-0.130708,0.322555,-0.459967,-0.0388198,-0.059163,0.113566
0.267052,0.233038,0.492874,-0.194486,0.143234,-0.598711,-0.0264703,-0.0630723,0.0372813
0.27242,0.225391,0.480964,-0.222328,0.119875,-0.697213,0.00550386,-0.0580985,-0.0107312
0.277106,0.218234,0.468856,-0.130047,0.0786082,-0.628628,0.063665,-0.0593883,-0.0544624
0.279973,0.213945,0.457516,0.0270371,-0.0436943,-0.557074,0.0504814,-0.00768495,-0.0846062
0.279679,0.21347,0.447402,0.202341,-0.193833,-0.396115,0.082727,0.009673,-0.0976595
0.276468,0.216942,0.439824,0.327897,-0.273653,-0.230628,0.104532,0.0255013,-0.0834123
0.27262,0.223509,0.434043,0.433769,-0.281839,-0.159272,0.0744326,0.0146675,-0.078053
0.26811,0.230648,0.428551,0.375696,-0.284557,-0.166149,0.0374545,0.00692922,-0.015425
0.262613,0.235421,0.423702,0.213888,-0.353225,-0.162931,0.022168,-0.00478511,0.0498709
0.256755,0.237287,0.419619,0.0817819,-0.312726,-0.172004,0.00282124,-0.00231434,0.0538559
0.252627,0.237544,0.415977,0.0434402,-0.179294,-0.160316,0.0103355,-0.00137822,0.0271747
0.250718,0.237964,0.413154,0.0726354,-0.0823476,-0.0885732,0.021389,0.00681204,0.0155323
0.249673,0.239564,0.411937,0.111604,-0.0627325,0.0109799,0.0336664,0.0148056,0.0137386
0.248036,0.242337,0.412252,0.147401,-0.104377,0.0758219,0.0383458,0.00411667,0.0138398
0.245064,0.246154,0.413149,0.196983,-0.162741,0.0925553,0.0353249,-0.0260382,-0.0144736
0.242234,0.250295,0.413996,0.178786,-0.100196,0.0889199,0.0131469,-0.0084139,-0.00454515
0.240598,0.253704,0.415105,0.15104,-0.0417584,0.114509,0.0212974,-0.0109413,-0.0146658
0.24087,0.256474,0.416156,0.0994825,0.0213274,0.0570563,0.00869644,0.000299096,-0.00472611
0.242059,0.25758,0.416034,0.0192037,0.0796479,-0.0217951,-0.0021947,-0.000828266,0.0119225
0.244067,0.257433,0.415495,-0.0330732,0.0668271,-0.0191408,0.0108644,0.0217651,0.010942
0.245349,0.256189,0.415624,-0.0871155,0.0553001,0.00548388,0.0175653,0.0442584,0.0174028
0.246356,0.254612,0.416447,-0.0874586,0.0539916,0.0301627,0.0315079,0.0450675,0.00590968
0.246727,0.253005,0.417564,-0.0983871,0.0220306,0.0340191,0.0257053,0.0550322,0.00973815
0.246869,0.251755,0.419119,-0.034093,0.0246079,0.100241,0.0260292,0.0514116,-0.0133238
0.247107,0.252549,0.421711,0.0571061,0.0544712,0.159838,0.0134033,0.0497541,-0.0335764
0.247751,0.254259,0.424902,0.0533067,0.0562929,0.200717,0.00547275,0.0548424,-0.0042069
0.248374,0.255199,0.429243,-0.0194228,0.080274,0.246838,-0.00127877,0.0355804,0.0145195
0.249357,0.254882,0.434622,-0.0712328,0.142134,0.260876,-0.0169763,0.0156046,0.00314742
0.252146,0.254043,0.439868,-0.0829586,0.246144,0.221122,-0.0312241,-0.00333485,-0.0126984
0.25695,0.252875,0.444243,-0.0894036,0.348441,0.178287,-0.0354329,-0.0110112,-0.0103666
0.26331,0.25193,0.448068,-0.0716214,0.386669,0.166147,-0.0328692,-0.0174504,-0.00664121
0.270315,0.251789,0.451531,-0.030591,0.384634,0.152873,-0.0249573,-0.020211,-0.0050087
0.276578,0.252407,0.454544,-0.00126964,0.323982,0.144703,-0.013986,-0.0211841,0.00199401
0.281974,0.252892,0.457144,-0.0347448,0.26785,0.11406,-0.0132068,-0.0202726,0.0283153
0.285638,0.252224,0.459576,-0.093026,0.145795,0.0983592,-0.00637481,-0.0332176,0.0524912
0.286082,0.250756,0.461904,-0.105823,-0.0533198,0.0755909,0.00290561,-0.0431083,0.0609755
0.282582,0.249536,0.463787,-0.0559785,-0.225138,0.0706509,0.001147,-0.0327846,0.0478274
0.276398,0.249625,0.465568,0.0119071,-0.347626,0.0944137,0.00592157,-0.0289907,0.027319
0.268704,0.250811,0.467186,0.0525239,-0.368944,0.0782675,-0.00691596,-0.0331981,0.0217798
0.261458,0.251909,0.467816,0.0247673,-0.315506,-0.00132096,-0.0224868,-0.0422962,0.0206081
0.256766,0.251602,0.46674,-0.0231647,-0.186859,-0.104742,-0.025011,-0.0506048,0.00957835
0.254538,0.249766,0.464053,-0.0906676,-0.0928757,-0.189999,-0.00835924,-0.0484316,-0.00191694
0.254296,0.246282,0.4604,-0.152776,-0.0262197,-0.232129,0.0107725,-0.0258076,0.000190616
0.254817,0.242454,0.456963,-0.116911,-0.00932934,-0.1816,0.0318242,-0.0062671,-0.024187
0.254998,0.240379,0.454366,-0.00847369,-0.0279203,-0.118143,0.043644,0.0069156,-0.0465937
0.255618,0.240898,0.452145,0.0793888,0.0448663,-0.0897623,0.0388965,0.0095253,-0.0574856
0.257663,0.241658,0.450269,-0.000613347,0.111079,-0.0644215,0.0273019,0.0259797,-0.0139453
0.257663,0.241658,0.450269,-0.000613347,0.111079,-0.0644215,0.0273019,0.0259797,-0.0139453
0.260435,0.240443,0.449967,-0.100228,0.152956,0.00428265,0.0480486,0.0188332,0.0126234
0.262818,0.238469,0.451182,-0.0965197,0.0842231,0.061891,0.0245881,0.0296727,0.00669354
0.262968,0.237746,0.453355,-0.0227734,-0.0254285,0.121798,0.0139052,0.0333029,-0.0133211
0.261045,0.238279,0.456323,0.00372938,-0.0898789,0.178477,0.00197908,0.0301442,-0.0069772
0.25878,0.239283,0.460129,0.00131046,-0.0601222,0.209502,-0.0169514,0.0163186,-0.0172002
0.257484,0.24023,0.464432,0.0117535,0.0108276,0.228928,-0.0327974,-0.00096561,-0.0192782
0.257041,0.241531,0.468556,0.0189711,0.0145974,0.18331,-0.0613245,-0.0261758,-0.00567508
0.25628,0.242249,0.471399,-0.0112321,-0.0146435,0.106899,-0.0775946,-0.0387385,0.010902
0.25544,0.242531,0.472997,0.0108246,-0.0447862,0.0498402,-0.0668249,-0.051923,0.00982213
0.254093,0.242846,0.473197,0.00608456,-0.0836458,-0.0200664,-0.0526623,-0.0260434,0.011711
0.251738,0.242411,0.47276,-0.0477125,-0.140494,-0.0252803,-0.0103749,-0.00603463,0.0222263
0.248004,0.241347,0.472872,-0.0617497,-0.199142,-0.000401469,0.0144679,-0.00320692,0.0123223
0.243208,0.241162,0.473469,0.0191913,-0.226976,0.0453868,0.0246052,-0.00247093,-0.0150516
0.238664,0.242932,0.47446,0.104863,-0.172567,0.0739739,0.0258775,-0.000386402,-0.0388404
0.236113,0.24522,0.475395,0.0805874,-0.0641891,0.0623843,0.0142843,0.00119242,-0.0219192
0.23584,0.246407,0.476332,0.0117605,0.0372847,0.0522926,0.0209258,-0.00795604,0.000292182
0.236959,0.246243,0.477189,-0.0255866,0.0717399,0.0300435,0.00567095,-0.00605495,0.0154883
0.238466,0.246099,0.477542,0.0201662,0.058303,0.00233643,0.000167996,-0.0136715,0.00117064
0.23921,0.246729,0.477066,0.0546028,-0.00641863,-0.025017,0.00170048,-0.00570561,0.0102042
0.239047,0.24768,0.476151,0.0498223,-0.0400947,-0.0331642,0.00038369,-0.00798815,0.0160277
0.238516,0.248343,0.475219,0.0272081,-0.0357479,-0.0410393,-0.00428109,-0.000921026,0.0162811
0.238415,0.24848,0.474055,0.000658755,-0.00716366,-0.0686265,-0.0217865,0.00134756,0.0181485
0.238924,0.248089,0.472382,-0.00765591,-0.00529216,-0.102277,-0.0313219,0.00116685,0.0212227
0.239108,0.247253,0.470185,-0.0324024,-0.0234158,-0.130074,-0.0239141,0.00925238,0.0268728
0.238067,0.245617,0.467827,-0.0795653,-0.12585,-0.127882,-0.0129723,0.0205751,0.0206935
