rotationRate_x,rotationRate_y,rotationRate_z,acceleration_x,acceleration_y,acceleration_z,relativeAltitude
-0.161456,-0.305302,-1.13378,0.0478837,0.122332,0.0225081,0
-0.0141433,-0.295025,-1.08007,0.0457033,0.115341,0.00403064,0
0.172982,-0.266061,-1.11788,0.0181752,0.0887043,-0.00396287,0
0.277698,-0.304336,-1.25186,0.0109926,0.0608508,0.0210682,0
0.279783,-0.317952,-1.3234,0.0414324,0.066235,0.0566332,0
0.164789,-0.355081,-1.26452,0.0848433,0.0882292,0.0961218,0
-0.0242343,-0.37156,-1.17789,0.107985,0.0883433,0.111163,0
-0.174091,-0.33239,-1.14642,0.0870725,0.07476,0.0807168,0
-0.193674,-0.317883,-1.17097,0.0579727,0.0615389,0.0220594,0
-0.13994,-0.348172,-1.17471,0.0632306,0.0584555,-0.0120482,0
-0.120327,-0.395342,-1.13235,0.0702685,0.0678424,-0.0213438,0
-0.152887,-0.426987,-1.07646,0.0729811,0.0727964,-0.0292056,0
-0.166144,-0.382913,-1.05996,0.0531888,0.0689852,-0.0612307,0
-0.147672,-0.238995,-1.05409,0.0334871,0.0702818,-0.0854192,0
-0.118579,-0.0899583,-1.02028,0.0298337,0.0718533,-0.0753397,0
-0.0868495,-0.0495875,-0.991292,0.0411619,0.0622557,-0.0387766,0
-0.0731472,-0.106954,-0.953799,0.0502914,0.050714,0.00306177,0
-0.0519442,-0.142041,-0.906074,0.0551272,0.0398455,0.0239465,0
-0.0382534,-0.16523,-0.860721,0.0493712,0.0331537,0.0421162,0
-0.0442748,-0.213544,-0.830955,0.0584095,0.0126635,0.0676236,0
-0.0919897,-0.23943,-0.833467,0.0586326,-0.0102818,0.0786813,0
-0.143641,-0.226157,-0.847192,0.0499492,-0.0243151,0.0729292,0
-0.182568,-0.255804,-0.874958,0.0450801,-0.0359962,0.0616972,0
-0.211936,-0.296802,-0.915045,0.0496819,-0.0536182,0.046832,0
-0.250532,-0.296525,-0.952446,0.0491021,-0.0561009,0.0226112,0
-0.280441,-0.237696,-0.943886,0.0587055,-0.055706,-0.0111833,0
-0.257648,-0.197546,-0.926477,0.0631251,-0.0566645,-0.0468462,0
-0.200578,-0.130953,-0.904068,0.0605382,-0.0606509,-0.0752091,0
-0.152884,-0.102304,-0.869632,0.0678471,-0.0619229,-0.0736828,0
-0.0856479,-0.0442122,-0.804588,0.0730382,-0.0612087,-0.0701675,0
-0.0371214,0.0182266,-0.722445,0.0762537,-0.0651941,-0.0524168,0
-0.016778,0.0435909,-0.661984,0.0695133,-0.0786012,-0.0232359,0
-0.0207141,0.0207243,-0.605671,0.0644475,-0.0976168,0.00770497,0
-0.0136655,-0.0328019,-0.556053,0.0638209,-0.112243,0.0252349,0
0.00183933,-0.0770992,-0.502423,0.0677066,-0.123977,0.0300617,0
0.00667086,-0.0915072,-0.445565,0.0626595,-0.129157,0.0336023,0
-0.0119373,-0.119103,-0.35805,0.0791666,-0.139834,0.0342291,0
0.0170231,-0.151046,-0.257529,0.0779146,-0.137707,0.0139022,0
0.104487,-0.135951,-0.156896,0.075573,-0.139795,-0.00674295,0
0.125079,-0.230116,-0.109886,0.0806058,-0.163777,-0.00117391,0
0.0221843,-0.509155,-0.128383,0.0848233,-0.176326,0.00809932,0
-0.0497188,-0.600332,-0.164996,0.0425508,-0.130943,-0.0618841,0
-0.021821,-0.378193,-0.148787,0.0300517,-0.0745187,-0.163307,0
0.0648346,0.0934565,-0.0927382,0.0352432,-0.0333298,-0.212154,0
0.156166,0.306859,0.0556193,0.0662897,0.0068205,-0.154259,0
0.231012,0.139158,0.201981,0.108794,-0.00315888,-0.0685984,0
0.278304,-0.102758,0.188919,0.0760815,-0.0208228,-0.0405895,0
0.261539,-0.166084,0.143355,0.0262601,-0.0110655,-0.0524988,0
0.200146,-0.14915,0.163348,0.000944398,0.0260673,-0.0626464,0
0.153594,-0.0609427,0.210619,-0.00486482,0.0461537,-0.0711422,0
0.169618,0.057939,0.259621,-0.0157766,0.0584989,-0.0652274,0
0.169618,0.057939,0.259621,-0.0157766,0.0584989,-0.0652274,0
0.227905,0.179463,0.250608,-0.0474156,0.0478111,-0.0533158,0
0.302412,0.275456,0.174351,-0.0820668,0.042954,-0.0152757,0
0.323522,0.261566,0.0967981,-0.0816406,0.0386912,0.0549785,0
0.272348,0.166365,0.0434967,-0.0614728,0.0427312,0.120103,0
0.175089,0.0722782,-0.000962853,-0.0446611,0.0436157,0.157685,0
0.0809536,0.033255,-0.0380372,-0.0412046,0.0468551,0.172031,0
-0.00105966,-0.00193688,-0.108158,-0.0476878,0.0471042,0.175961,0
-0.0966185,-0.100079,-0.212337,-0.0434008,0.0395114,0.176786,0
-0.22951,-0.261217,-0.287286,-0.0287721,0.0517489,0.172748,0
-0.346737,-0.38003,-0.315547,-0.00818312,0.067742,0.133606,0
-0.40724,-0.403502,-0.356447,-0.0104065,0.0810639,0.0494857,0
-0.418401,-0.340142,-0.376043,-0.0139865,0.0975009,-0.0330598,0
-0.36359,-0.213293,-0.364089,-0.00350434,0.109886,-0.100811,0
-0.233264,-0.0632271,-0.300935,0.00870772,0.122404,-0.140221,0
-0.0908905,0.0564286,-0.215799,0.0177692,0.133577,-0.129769,0
-0.0071033,0.100556,-0.150126,0.0159968,0.123729,-0.0970325,0
-0.00287109,0.0962526,-0.136518,-0.00235379,0.103484,-0.0534751,0
-0.0546435,0.0893488,-0.143183,-0.0083382,0.0843463,-0.0117549,0
-0.12643,0.104283,-0.129899,-0.00850489,0.0735836,0.0148687,0
-0.197116,0.0775265,-0.0934039,0.00765325,0.0620294,0.0367859,0
-0.234605,0.0709442,-0.0707429,0.0117731,0.0447026,0.0342003,0
-0.24148,0.102399,-0.0450927,0.0128196,0.0314195,0.0292642,0
-0.226156,0.134764,0.018427,0.0268037,0.0213299,0.0352438,0
-0.196022,0.164799,0.0853508,0.0310451,0.0123004,0.0493082,0
-0.176992,0.139727,0.13808,0.0330262,-0.00300176,0.0711689,0
-0.181071,0.119213,0.16837,0.03806,-0.0218332,0.0868142,0
-0.213127,0.128807,0.205295,0.0391306,-0.0302089,0.0898594,0
-0.288893,0.116065,0.255885,0.0458268,-0.0362549,0.0929606,0
-0.365882,0.113735,0.323541,0.0528886,-0.0438281,0.0802103,0
-0.40821,0.0878602,0.382206,0.0505183,-0.0509986,0.0611377,0
-0.418872,0.0588321,0.439067,0.0537033,-0.061433,0.0341032,0
-0.412947,0.0734057,0.511171,0.0530916,-0.0595361,0.00591505,0
-0.411881,0.116875,0.584328,0.053204,-0.0625453,-0.0190871,0
-0.404428,0.146544,0.668829,0.060237,-0.0632924,-0.0349137,0
-0.358134,0.147834,0.777883,0.0654872,-0.0603601,-0.0551981,0
-0.266442,0.170393,0.884192,0.0657675,-0.0561843,-0.0772254,0
-0.170238,0.205866,0.983533,0.0632782,-0.0589763,-0.0903627,0
-0.107698,0.217701,1.10302,0.0664603,-0.0518763,-0.0824163,0
-0.0635161,0.204263,1.20997,0.0622627,-0.0495618,-0.0732561,0
-0.0340141,0.172426,1.27942,0.0351605,-0.0505328,-0.0862003,0
0.0282788,0.138374,1.33653,0.0103815,-0.043571,-0.109647,0
0.11806,0.14265,1.3997,-0.00312302,-0.025465,-0.138775,0
0.224838,0.192722,1.49987,-0.0172783,-0.00144917,-0.155391,0
0.343853,0.230903,1.62938,-0.0324503,0.0202826,-0.164716,0
0.457873,0.169431,1.75556,-0.0512242,0.0197832,-0.143748,0
0.501789,-0.104477,1.75853,-0.0812107,0.00916082,-0.103415,0
0.467825,-0.340345,1.56986,-0.118268,0.00987604,-0.0992434,0
0.439953,-0.151489,1.37767,-0.126351,0.0438028,-0.147834,0
0.475863,0.368474,1.39637,-0.079743,0.115416,-0.147247,0
0.503839,0.6303,1.54205,-0.018025,0.162085,-0.0420195,0
0.555898,0.490044,1.63477,0.0249871,0.138504,0.0875807,0
0.555898,0.490044,1.63477,0.0249871,0.138504,0.0875807,0
0.650814,0.143694,1.55945,0.0130186,0.0990487,0.164526,0
0.654582,-0.244593,1.35559,-0.0151636,0.0534734,0.209502,0
0.441364,-0.441646,1.08175,-0.0172804,0.0236104,0.240813,0
0.060432,-0.446619,0.852001,0.00823569,0.0221885,0.249602,0
-0.349176,-0.367211,0.73648,0.0517592,0.0402393,0.221485,0
-0.625305,-0.227967,0.657477,0.0714456,0.055713,0.142591,0
-0.724927,-0.046495,0.566179,0.0969562,0.0601598,0.0365987,0
-0.662691,0.0678212,0.603412,0.137703,0.0852726,-0.0283905,0
-0.484126,0.0690356,0.725273,0.19902,0.0995368,-0.0560396,0
-0.299601,0.0151098,0.871338,0.255025,0.106227,-0.0406315,0
-0.195247,0.0441462,1.02486,0.26825,0.108878,-0.0237744,0
-0.220848,0.0217803,1.20296,0.269509,0.112205,0.0123045,0
-0.292111,0.0105032,1.32378,0.248882,0.0919899,0.013211,0
-0.307622,0.0023128,1.38317,0.212206,0.0763594,-0.0090102,0
-0.250999,-0.0232979,1.40424,0.192743,0.0604917,-0.0285919,0
-0.208637,-0.0455382,1.38325,0.169117,0.0483727,-0.0418911,0
-0.192394,-0.0094535,1.32078,0.139665,0.0405369,-0.0644131,0
-0.201814,0.0654567,1.22102,0.115977,0.0323544,-0.0808027,0
-0.231118,0.0900001,1.13768,0.117407,0.0287909,-0.0899371,0
-0.173975,0.144231,1.07233,0.109721,0.0284565,-0.127609,0
-0.0462574,0.236452,1.00675,0.090653,0.0374263,-0.154294,0
0.0937072,0.376793,0.933127,0.0651627,0.0337267,-0.16133,0
0.230342,0.49579,0.853102,0.0389493,0.0348856,-0.129247,0
0.365783,0.5764,0.795971,0.0276099,0.0349437,-0.0835374,0
0.471838,0.656218,0.738464,-0.00317899,0.0380624,-0.0333412,0
0.534429,0.679056,0.67518,-0.0356254,0.041906,0.0201102,0
0.529515,0.604215,0.538313,-0.0859466,0.0345276,0.0715184,0
0.475674,0.39017,0.284358,-0.141067,0.0129068,0.0933959,0
0.352041,0.0869295,-0.0339302,-0.161994,-0.00264642,0.10094,0
0.200057,-0.0910138,-0.293744,-0.152555,0.0103773,0.0628145,0
0.0442166,-0.0730257,-0.41916,-0.134427,0.0520155,-0.00666291,0
-0.0546113,0.144788,-0.489894,-0.129605,0.0722278,-0.096929,0
-0.0564708,0.508823,-0.523668,-0.124128,0.0820198,-0.160022,0
0.03517,0.859337,-0.477917,-0.129029,0.0996037,-0.16387,0
0.137133,0.862981,-0.362437,-0.094688,0.0846548,-0.0697188,0
0.226293,0.632738,-0.23791,-0.07584,0.0482772,0.0202826,0
0.278205,0.372779,-0.120456,-0.0952167,0.0190658,0.0669852,0
0.278603,0.167582,-0.0418769,-0.128191,-0.0108146,0.0792535,0
0.269013,0.0149417,0.000808242,-0.147367,-0.0336768,0.0762464,0
0.245676,-0.102607,0.0169523,-0.154586,-0.0365987,0.078299,0
0.196874,-0.197018,-0.0229869,-0.154049,-0.0435326,0.0751285,0
0.152584,-0.227501,-0.0861407,-0.136906,-0.0345085,0.0587151,0
0.150521,-0.224915,-0.0935272,-0.0876572,-0.0143958,0.0394666,0
0.149007,-0.185572,-0.0510911,-0.0427596,0.00188546,0.0271338,0
0.155413,-0.146535,-0.0616738,-0.0279231,-0.00335881,0.0140915,0
0.20309,-0.227718,-0.0599459,-0.00450071,-0.00546576,0.0166047,0
0.333131,-0.316039,-0.0994058,-6.51553e-05,-0.00602698,0.0062322,0
0.379007,-0.356969,-0.123828,0.0230015,-0.0110639,0.0273443,0
0.238452,-0.304033,-0.153131,0.0189606,-0.0160083,0.0694296,0
0.00284168,-0.227379,-0.235363,0.00829405,-0.0331401,0.0838092,0
0.00284168,-0.227379,-0.235363,0.00829405,-0.0331401,0.0838092,0
-0.194025,-0.14695,-0.374758,-0.0148184,-0.0451101,0.0554848,0
-0.302459,-0.130687,-0.476194,-0.0073499,-0.0427147,0.0123987,0
-0.324728,-0.163185,-0.516031,0.0172243,-0.0236002,-0.0283558,0
-0.268364,-0.104743,-0.486882,0.0411901,-0.00797808,-0.0840528,0
-0.160953,0.0859677,-0.417207,0.0451377,0.0215815,-0.11628,0
-0.0634122,0.265619,-0.310846,0.0457389,0.0311148,-0.10527,0
-0.00987588,0.314754,-0.213942,0.046826,0.0290288,-0.0445499,0
-0.00730541,0.250009,-0.179359,0.0363608,0.0166862,0.0178268,0
-0.0274891,0.190872,-0.148205,0.0313878,0.00823513,0.0507249,0
-0.0455473,0.128286,-0.0927457,0.0275944,0.0167824,0.0660963,0
-0.0456685,0.0817555,-0.0400728,0.0260496,0.0137756,0.0684918,0
-0.0543233,-0.0178398,-0.0144215,0.01696,0.0118812,0.06972,0
-0.0669218,-0.110377,0.0157123,0.0171376,0.00703493,0.053672,0
-0.0820282,-0.145454,-0.00580943,-0.00272746,0.00850813,0.0240743,0
-0.0994386,-0.0775807,-0.0264986,-0.00776754,-0.000684515,-0.0181722,0
-0.138125,-0.00063555,-0.0538663,-0.0188431,0.012456,-0.0361148,0
-0.171739,0.0440774,-0.0769552,-0.00797451,0.00677302,-0.0541826,0
-0.175453,0.103794,-0.0942427,-0.00843138,0.0103136,-0.0740249,0
-0.123105,0.166659,-0.104991,-0.0103318,0.0148496,-0.0922122,0
-0.059166,0.249517,-0.077736,0.000599697,0.0212566,-0.0794246,0
-0.0287275,0.266834,-0.0515673,0.00185704,0.0209295,-0.0494867,0
2.05953e-05,0.258974,-0.0369091,0.00276503,0.0153334,-0.0118608,0
0.0119533,0.203095,-0.0276415,-0.00540444,0.00993098,0.0228242,0
0.0288357,0.131927,-0.0106571,6.72638e-05,0.000340536,0.0395617,0
0.0227023,0.0381851,0.0469858,0.00495293,0.0013563,0.063358,0
-0.00102828,-0.0282667,0.0488075,-0.0165094,-0.0193302,0.050323,0
-0.00145727,-0.00908705,0.0135368,-0.0499683,-0.0344176,0.0273131,0
0.00249862,-0.0705534,-0.0302003,-0.0596298,-0.0413429,0.0157617,0
0.00246391,-0.0803232,-0.0650806,-0.055087,-0.0559333,0.00419956,0
-0.02567,-0.0799585,-0.134891,-0.0719227,-0.0539855,-0.00999051,0
-0.0368965,-0.063296,-0.187439,-0.0584492,-0.0600539,-0.0338668,0
-0.0184705,-0.0406455,-0.200537,-0.0409809,-0.0447233,-0.0488104,0
0.0262454,-0.0433723,-0.200476,-0.02718,-0.0355066,-0.0664731,0
0.106309,-0.00114965,-0.195459,-0.0175969,-0.0229386,-0.0754251,0
0.159445,0.00204195,-0.176176,-0.0103585,-0.00584321,-0.0598353,0
0.164192,0.0218715,-0.162536,0.00241876,-0.002501,-0.0346898,0
0.134573,0.0126363,-0.152096,0.00133864,0.0106582,-0.0026654,0
0.114057,-0.00617222,-0.14517,0.00480257,0.00948101,0.00626802,0
0.104967,0.00939399,-0.159857,-0.00290077,0.0169603,0.00849724,0
0.0966662,-0.0219435,-0.164916,0.00525207,0.0225191,0.0156568,0
0.0702265,-0.0231449,-0.140105,0.0253918,0.0305469,0.0279115,0
0.0244719,-0.0140661,-0.115121,0.0226864,0.0403726,0.0308858,0
-0.0113137,-0.00471156,-0.0809239,0.0342149,0.0359328,0.0342778,0
-0.040323,-0.0786503,-0.0635575,0.0304934,0.0375636,0.0356038,0
-0.0266698,-0.0997935,-0.0213622,0.0418767,0.031275,0.0131146,0
0.000182769,-0.0711373,0.0168429,0.0304023,0.0376192,0.00255191,0
0.00216494,-0.0801003,0.0329524,0.0228417,0.0264606,0.00317508,0
-0.0318231,-0.0708165,0.0489194,0.0231349,0.0157062,0.016453,0
-0.0863095,-0.0776195,0.0452222,0.0122051,0.00882305,0.0166745,0
-0.0829376,-0.0461112,0.0549682,0.014001,-0.00295769,-0.00413567,0
-0.0829376,-0.0461112,0.0549682,0.014001,-0.00295769,-0.00413567,0
-0.0702756,-0.0404462,0.0513268,0.00356723,-0.00210936,-0.00694191,0
-0.072613,-0.048237,0.0512126,0.00859661,-0.0144706,-0.00616717,0
-0.0772733,-0.026939,0.0570857,0.00629683,-0.0138367,-0.00298834,0
-0.0720576,-0.00930052,0.0525751,0.00213128,-0.0176206,-0.00347239,0
-0.0678946,-0.0159835,0.0559137,0.00992422,-0.0201549,0.00753325,0
-0.0723732,-0.0555845,0.0408931,0.00621969,-0.0218475,0.011596,0
-0.0675891,-0.0403853,0.0456747,0.0153477,-0.0218928,0.00258762,0
-0.0686871,-0.0362242,0.061681,0.0120495,-0.0103265,-0.000318706,0
-0.0577604,-0.0427874,0.0826339,0.0261279,-0.0161735,-0.00873494,0
-0.0519971,-0.0129858,0.0825394,0.0196236,-0.012432,-0.0131702,0
-0.0330125,0.0165392,0.0698808,0.00943254,-0.0143499,-0.0291274,0
-1.04625e-05,0.0365712,0.0900583,0.0214168,-0.00722782,-0.0256126,0
0.00598998,0.0162414,0.113946,0.0241495,-0.00243382,-0.0108116,0
0.01999,0.0270323,0.123047,0.0225593,-0.00653848,-0.00777596,0
0.00954132,0.019378,0.114157,0.00542138,-0.000685811,0.00628787,0
-0.0160241,0.0164931,0.0936081,-0.00112619,-0.0085417,0.00224888,0
-0.0226426,0.0307942,0.0927383,0.00171967,0.00156112,0.00411785,0
-0.0179415,0.0146597,0.105977,0.00215194,0.00864053,0.000178397,0
0.00360775,0.0164434,0.118166,-0.00173276,0.0087076,-0.00147665,0
-0.00326031,0.00854984,0.0818178,-0.0247304,0.00423528,0.00185519,0
-0.0130269,0.0325562,0.0517329,-0.0235779,-0.00444134,-0.00101018,0
-0.044197,0.0329227,0.053313,-0.0185175,0.00545959,0.0116645,0
-0.0487393,0.0123653,0.0813574,-0.00693818,0.00462925,0.00590783,0
-0.0341701,-0.00911654,0.0735964,-0.0156381,0.000496551,-0.00551361,0
-0.011169,-0.0143113,0.0501174,-0.0240458,-0.0101521,-0.0189819,0
-0.00549863,-0.00966108,0.0551849,-0.0198785,-0.00203645,-0.00962663,0
-0.0198001,0.00822342,0.0634047,-0.0147819,-0.00683321,-0.00442469,0
-0.0381421,-0.00107661,0.0388515,-0.0249589,-0.0101408,0.00149566,0
-0.0286782,-0.0184349,0.0145217,-0.0192501,-0.0168255,-0.00517285,0
-0.0178843,-0.0411768,0.0249118,-0.00445328,-0.00429748,-0.00112808,0
-0.0112341,-0.0366002,0.0557226,0.0133002,-0.00260563,-0.0030098,0
-0.0138589,-0.0388087,0.0817991,0.0135833,0.00352478,-7.84397e-05,0
0.00381935,-0.0512709,0.0819935,0.0081308,-0.00235122,-0.00576413,0
0.0347737,-0.0510116,0.0764685,0.00309796,-0.000111073,-0.00496626,0
0.0364231,-0.0454259,0.0654845,0.00210965,-0.000758901,-0.00612408,0
0.0158011,-0.0105358,0.0648144,0.00382333,0.00469089,0.00162667,0
-0.0223684,-0.00773911,0.0501563,0.00261047,0.00401236,0.00625557,0
-0.0186614,0.00173866,0.0512026,0.00662217,0.00317965,-0.00085479,0
0.00110794,-0.0198466,0.0502518,0.00200825,0.00997686,-0.0029552,0
0.0218916,-0.020886,0.0537049,0.00790944,0.00429097,-0.0131564,0
0.0039766,-0.0207387,0.0495851,-0.001762,0.00979884,-0.00262475,0
0.00230924,-0.00343822,0.043847,-0.00307116,0.00109166,-0.0113193,0
0.0263362,0.0494846,0.0437848,-0.0114999,0.0066711,-0.0201468,0
0.024485,0.05765,0.0384551,-0.0167866,0.00362369,-0.00891668,0
0.0373275,0.0279064,0.0372829,-0.0125911,-0.00403252,0.00358051,0
0.0346548,-0.0397607,0.0134005,-0.0188954,-0.00635652,0.0186671,0
0.0161239,-0.012396,0.00452448,-0.017437,-0.00840685,0.0138152,0
-0.0338704,0.00819709,-0.00870265,-0.0229896,0.00155169,0.0253831,0
-0.0463557,0.0102003,-0.0357678,-0.0167906,-0.0112441,0.00876081,0
-0.0244378,-0.00831858,-0.0386154,-0.0118287,0.000717074,-0.00180167,0
0.00395955,-0.0225639,-0.0152411,0.00324627,0.00526322,-0.00837821,0
0.00395955,-0.0225639,-0.0152411,0.00324627,0.00526322,-0.00837821,0
0.0296897,-0.0254161,0.000184465,0.00565617,0.0103365,-0.00817537,0
0.0464365,0.00195799,-0.0186355,-0.00637375,0.00543652,-0.0104893,0
0.0155408,0.0206633,-0.0479266,-0.008903,0.00479141,0.00516468,0
-0.040459,0.0210484,-0.0408116,0.00725751,0.00594464,0.0207459,0
-0.0533531,-0.00309365,-0.015945,0.0159661,0.0125055,0.0179343,0
-0.0240191,-0.0253522,0.000792574,0.0124296,0.0105246,0.00802904,0
-0.00974706,-0.0360349,-0.00903704,0.00609953,0.00671558,0.00317699,0
-0.0381309,-0.0394504,-0.00829124,0.0098421,0.00481941,0.0100746,0
-0.0599496,-0.0124798,0.0104509,0.0117323,0.00846371,-0.00179666,0
-0.0556744,0.00130201,0.0208875,0.00680482,0.00958109,-0.0127956,0
-0.0188787,-0.0108005,0.032616,0.00628796,0.00466317,-0.0197754,0
0.00978857,0.00702849,0.0334577,-0.00399906,0.00261949,-0.0200217,0
0.00344515,0.020298,0.0281713,-0.00984956,-0.0020128,-0.0104858,0
0.000687955,0.033198,0.000919104,-0.0190461,-0.0088091,-0.00232923,0
-0.0140898,-0.00466621,-0.0300768,-0.0209511,-0.0117297,0.0131954,0
-0.0264997,0.00728891,-0.038965,-0.0110843,-0.00992018,0.0092901,0
-0.0556518,0.0327501,-0.0556027,-0.0182453,-0.00155605,0.00578779,0
-0.055262,-0.000310341,-0.0498963,-0.00527066,-0.00625153,0.00428003,0
-0.000630034,-0.0106057,-0.064736,-0.00501944,-0.00432439,-0.0110843,0
0.00906254,-0.00514409,-0.0616888,-0.00225472,0.00157537,-0.00841951,0
-0.0227848,0.0171534,-0.0406327,0.00980022,0.00251238,0.000632405,0
-0.0297164,0.0223921,-0.0374459,0.0047462,0.00495511,-0.000816882,0
-0.0156292,0.00173797,-0.0364983,0.00536969,-0.00119077,-0.0051055,0
0.00419981,-0.00103381,-0.0363443,0.00455647,-8.76933e-05,-0.00582904,0
0.0158852,0.0273568,-0.0316216,0.00530288,0.00327563,-0.00913334,0
0.00166657,0.0212372,-0.0230306,0.00572485,0.00361496,0.00282264,0
-0.0230296,0.00482849,-0.0234988,0.01052,-0.00196859,0.0100753,0
-0.0325138,-0.0050077,-0.0176946,0.00930399,0.000411719,0.00458324,0
-0.017062,0.019171,-0.00600306,0.00884951,0.00211741,-0.00899935,0
-0.000618984,0.0292482,-0.00155112,0.00125517,0.00251487,-0.0148588,0
0.00875288,0.0261763,-0.0025358,-0.000469744,-0.00116663,-0.0106425,0
0.0167233,0.0247958,-0.00834947,-0.00432605,-0.00152892,-0.00770444,0
0.0243107,0.0393909,0.00092523,-0.00297867,-7.49677e-05,-0.00567609,0
0.0233061,0.0225406,0.00692512,-0.00522492,-0.000330061,0.00339544,0
0.0217549,-0.0180494,-0.00617147,-0.0104397,-0.00678428,0.0105369,0
0.00639481,-0.0412125,-0.0300604,-0.0172461,-0.00957309,0.0120846,0
-0.0137675,-0.0295148,-0.0482991,-0.0243169,-0.00906661,0.00178617,0
-0.0278866,-0.00617512,-0.057127,-0.0237114,-0.00662839,-0.00861681,0
-0.00604776,0.00561759,-0.0748751,-0.0238292,-0.00642788,-0.0236062,0
0.0309097,0.00479893,-0.0823305,-0.0246321,-0.000822395,-0.029703,0
0.0434044,-0.00331461,-0.0760318,-0.0192164,0.000221238,-0.0168898,0
0.0283138,0.012657,-0.0753736,-0.0176651,-0.00196005,-0.00130719,0
-0.0124165,-0.0122806,-0.0859162,-0.0208307,-0.00170766,0.018414,0
-0.00900109,-0.0306062,-0.0924462,-0.0147074,-0.00783822,0.0114697,0
0.003218,-0.0378113,-0.0850866,-0.0114658,0.00339805,0.0151168,0
-0.0229324,-0.0440607,-0.0778487,-0.0034475,-0.00580601,0.0198482,0
-0.0227069,-0.0627743,-0.0968328,-0.00705245,-0.00859356,0.0104055,0
-0.00938112,-0.0848877,-0.0953166,0.00258631,-0.00533828,0.00395525,0
-0.0134226,-0.0631723,-0.0785523,0.0100022,-0.00429532,-0.00101739,0
-0.0290237,-0.0328065,-0.0714462,0.0145609,-0.00249894,-0.0020045,0
-0.0427974,-0.0388956,-0.0616482,0.0193964,-0.00774743,-0.000105083,0
-0.0109045,-0.0328378,-0.0583574,0.020719,-0.00928648,-0.00918919,0
0.00679885,-0.0202938,-0.0563613,0.0199835,-0.00823317,-0.0117204,0
-0.0109702,-0.0241817,-0.0338105,0.034556,-0.0083935,-0.000335336,0
-0.02362,-0.0275565,-0.00666885,0.0382408,-0.00667389,0.00341415,0
-0.0093913,-0.00316327,0.00215449,0.0279899,-0.0100663,-0.00843066,0
0.0150728,-0.00760482,-0.00861164,0.0208383,-0.0121468,-0.0134327,0
0.0161711,0.000545942,0.00549354,0.0252835,-0.00786541,-0.00844043,0
-0.00636729,0.0137671,0.0305569,0.0269897,-0.00180225,-0.0011639,0
0.00274485,0.0420283,0.0490941,0.0201938,-0.00215378,-0.0109872,0
0.0257338,0.0376633,0.0476943,0.00840585,-0.00304563,-0.0100785,0
0.0360068,0.0284191,0.0495997,0.00791362,-0.0039793,-0.000580072,0
0.0167604,0.0155309,0.0473446,0.00601278,-0.000653774,0.0120057,0
0.0171938,0.0307283,0.0534204,0.00396913,-0.00315295,0.00428003,0
0.0225807,0.0344779,0.0572898,-0.00234951,0.0032077,0.00657123,0
0.0100501,0.0236483,0.0408896,-0.00693877,-0.00641607,0.00761527,0
-1.30227e-05,0.0203816,0.036952,-0.00456131,-0.00167912,0.00915039,0
-0.012769,0.0139688,0.0349628,-0.00187993,-0.00223055,0.00813538,0
-0.0133248,0.0161838,0.040971,-0.00206476,-0.000529155,0.000829935,0
-0.00531091,0.0329098,0.0281734,-0.00420287,-0.00240688,-0.0106868,0
0.0169823,0.0405056,0.0377764,0.00158207,-0.000925511,-0.0153437,0
0.0267083,0.021692,0.0605871,0.00792632,0.00158665,-0.00579756,0
0.0163264,-0.00132961,0.0598822,0.00590464,-0.00283028,0.00089407,0
0.00117141,0.0103841,0.0556077,0.00313289,-0.00531875,-0.00583923,0
0.0108731,0.0360551,0.0646878,-0.000707172,0.000496805,-0.0143068,0
0.0356907,0.0319947,0.0747624,-0.0011666,-0.00154531,-0.0159976,0
0.0356907,0.0319947,0.0747624,-0.0011666,-0.00154531,-0.0159976,0
0.0592145,0.0146586,0.0633605,-0.0101667,-0.00277287,-0.0131165,0
0.0567562,0.00764943,0.050382,-0.0117462,-0.00525592,-0.00389463,0
0.0401315,0.0156602,0.0399681,-0.0133647,-0.000812322,0.00272208,0
0.00949448,0.0261389,0.026873,-0.0150362,0.00321819,0.00989795,0
6.839e-05,0.0144713,0.0132022,-0.0130473,0.00312175,0.0115985,0
0.0124641,0.000445502,0.0112601,-0.0133766,0.00948977,0.00837171,0
0.0226112,-0.00253773,0.0120945,-0.0121323,0.0132016,0.004125,0
0.0104121,-0.0219943,0.0115837,-0.0111268,0.012868,0.00898123,0
-0.017047,-0.038397,0.00967023,-0.00759652,0.00681446,0.0102292,0
-0.0242568,-0.0317184,0.00228571,-0.0154843,0.00695832,-0.0045507,0
-0.0117417,-0.00499088,-0.00197683,-0.0184913,0.00769925,-0.0170102,0
0.006063,0.00523816,0.00460999,-0.0119646,0.00865053,-0.0103688,0
-0.00462156,-0.0156198,0.0139487,-0.00661354,0.00445421,0.00218868,0
-0.00899603,-0.0367209,0.00904432,-0.00748486,-0.000934854,0.00776559,0
0.00488232,-0.0411067,-0.0134846,-0.016725,-0.00352082,0.00179845,0
-0.00862569,-0.0446709,-0.0358274,-0.0129336,-0.00513896,0.00444168,0
-0.0324094,-0.0367763,-0.0249367,-0.0013096,-0.00176118,0.00383162,0
-0.0343805,-0.0304004,-0.0156217,0.00131892,0.00413916,-0.00370842,0
-0.0196705,-0.0248795,-0.0230851,-0.00430519,0.0016714,-0.0135801,0
0.000168152,-0.0194956,-0.0364034,-0.00138229,-0.0029792,-0.0148768,0
0.00874265,-0.00580528,-0.0301147,0.00518767,0.00336109,-0.0120286,0
0.0129803,-6.17155e-05,-0.00642312,0.0138761,0.00701676,-0.00560552,0
0.00918136,-0.0155515,0.00613403,0.0120037,0.0056292,0.00227106,0
-0.00472055,-0.0545002,0.00113402,0.0100641,-0.00231789,0.00517482,0
-0.00372393,-0.0747426,0.000153136,0.0109236,-0.00198215,-0.00312811,0
0.0166007,-0.0245442,0.0113125,0.00172602,0.0044121,-0.0280446,0
0.021056,0.0240687,0.0128412,-0.00728314,0.0105765,-0.0233224,0
0.0108059,0.0294505,-0.005211,-0.0101352,0.00143683,-0.00978076,0
-0.0106765,-0.0199834,-0.00908044,-0.0025112,0.00106338,0.010797,0
0.000598207,0.000864836,0.000855189,-0.000557214,0.00218712,0.00618315,0
0.015122,0.0426786,0.00435727,-0.00724573,0.0116486,0.0154941,0
-0.0183536,0.0255928,0.00866908,0.00125278,0.00210652,0.0439825,0
-0.0702662,-0.0484016,0.00514411,0.00795463,-0.00413084,0.0657681,0
-0.0899977,-0.114161,-0.00202456,0.0109212,-0.00879867,0.05031,0
-0.0716672,-0.0972174,2.51774e-05,0.00802828,-0.000528827,0.00978965,0
-0.0672304,-0.0542759,0.00468921,0.00667743,0.00351155,-0.0165154,0
-0.0442353,-0.0197927,0.0234061,0.0171145,0.00432019,-0.0382405,0
-0.021819,0.00871644,0.0385378,0.0133304,0.00730157,-0.0476908,0
0.0153261,0.0286413,0.0428224,0.00810853,0.00342017,-0.0556096,0
0.0466073,0.0481183,0.0364605,0.0029192,0.00367688,-0.0473732,0
0.0610769,0.0551369,0.0336685,0.00132915,0.00348371,-0.0280538,0
0.0599288,0.0843298,0.0365879,-0.00496155,0.00892186,-0.0116315,0
0.0186661,0.0727106,0.0317054,-0.012556,0.00768425,0.015608,0
0.00802288,0.0453957,0.0207468,-0.0123543,0.000755876,0.0264467,0
0.00159542,0.00943969,0.0138691,-0.0143152,0.00695716,0.0375241,0
-0.0353571,0.00158264,0.0100391,-0.0133261,-0.000986859,0.0400175,0
-0.0652102,-0.0119256,0.00196561,-0.0201089,0.00403284,0.0358244,0
-0.0735584,-0.0532831,0.00103171,-0.00891616,-0.00113802,0.027695,0
-0.0329366,-0.027783,0.00337437,-0.0098658,0.000725016,-0.000932872,0
-0.0333635,-0.0211355,-2.21194e-05,-0.00886501,0.00400062,-0.00193769,0
-0.0540491,-0.0192107,0.00552119,0.00679462,-0.00517023,-0.00012964,0
-0.0580246,-0.0179521,0.00143135,0.00872626,-0.00245011,-0.00842154,0
-0.0501182,0.00506068,0.0114112,0.0134773,-0.00493658,-0.0232199,0
-0.0501182,0.00506068,0.0114112,0.0134773,-0.00493658,-0.0232199,0
-0.017501,0.0171609,0.0251486,0.0112778,-0.000380144,-0.0337165,0
0.00111151,-0.00936707,0.0381138,0.0166331,-0.00568986,-0.0281891,0
0.0389593,0.00702641,0.0427607,0.00742397,-0.00692262,-0.0363089,0
0.0500583,0.0196703,0.0280833,-0.00825552,-0.00663057,-0.0288078,0
0.0516046,0.0186112,0.0190816,-0.0102871,-0.0107973,-0.0205112,0
0.0347546,0.0310989,0.0134647,-0.0145022,-0.00968771,-0.00767654,0
0.0279947,0.068364,-0.00562648,-0.0268917,-0.0112662,-0.0076195,0
0.0412778,0.053017,-0.0355326,-0.03401,-0.0119049,0.000222504,0
0.0573823,0.00951433,-0.0470363,-0.0223792,-0.0102098,0.0104024,0
0.0403051,-0.00782536,-0.0305239,-0.0136319,-0.00121629,0.023984,0
0.000301744,0.00587337,-0.0344016,-0.0148641,-0.00544699,0.0267135,0
-0.0157446,-0.0358263,-0.0523779,-0.0148287,-0.00468346,0.0257663,0
-0.00961324,-0.0676019,-0.0683062,-0.00503743,-0.00545475,0.0105037,0
-0.00610413,-0.0266225,-0.0446336,0.00240089,0.00986481,-0.00675821,0
-0.00388876,0.0357246,-0.0249561,0.0083925,0.0116479,-0.0164844,0
0.00997619,0.0156407,-0.0106145,0.0143141,0.0092037,-0.00679469,0
0.022437,-0.0704395,-0.00343091,0.0236859,0.000181705,0.00332987,0
0.0278535,-0.0705263,0.00654134,0.0213959,0.00199898,-0.00467139,0
0.00933744,-0.00564583,0.0128171,0.0153549,0.00432192,-0.0147833,0
0.0100027,0.0277176,0.0240361,0.00999902,0.000207573,-0.020628,0
0.0388813,0.0146851,0.0225909,0.0105431,-0.00389829,-0.0176707,0
0.0682287,0.0154023,0.0232488,0.00534786,-0.00396436,-0.0116343,0
0.0538465,0.0149359,0.0179136,0.00144763,-0.00524266,0.00389743,0
0.0212941,0.000560667,0.00773047,-0.00042522,-0.00916883,0.0172607,0
0.00951407,-0.0101444,0.00216332,-0.00283805,-0.00607902,0.0115613,0
0.0278359,0.0296229,-0.00618766,-0.014904,-0.00061737,-0.00528288,0
0.0297598,0.0383576,-0.0190173,-0.0119859,-0.00074555,0.00124985,0
0.00874535,-0.000446528,-0.010906,0.000320286,-0.00225578,0.0146877,0
-0.00703827,-0.0133087,-0.00849099,0.00377898,0.00189607,0.0105045,0
-0.0095522,0.006947,0.000235231,0.00132411,0.00674422,-0.00517434,0
0.0100237,0.0190173,0.0110399,-0.000640519,0.00851309,-0.0109435,0
0.0249529,-0.00670782,0.021757,0.00868288,0.00579715,-0.00440443,0
0.0352239,-0.000320727,0.0270437,0.0070968,0.00316629,-0.00185221,0
0.0361905,0.0263902,0.0222173,-0.00344339,0.00220232,-0.00336653,0
0.0148024,0.0210468,0.0181751,-0.00100123,-0.000399306,0.00987875,0
-0.0104019,-0.00443626,0.0176864,0.00420336,-0.00482507,0.0161515,0
-0.0151445,-0.0150584,0.0120334,0.00286789,-0.0033085,0.00636595,0
0.00458648,0.0128004,0.00386967,-0.00722463,-0.00204688,-0.0121424,0
0.0147865,0.0268728,0.00272139,-0.00321425,7.9453e-05,-0.00818235,0
-0.0061518,0.012544,0.0092495,0.00437076,-0.00176923,0.00312722,0
-0.00561891,0.0234237,0.00722381,-0.00257117,-0.000712827,-0.00210857,0
0.0160204,0.0165512,0.00166575,-0.00634402,-0.000419125,-0.00762916,0
0.0299516,0.0129941,-0.00262298,-0.00374001,-0.000632942,-0.00237763,0
0.00496683,0.0121295,-0.00129332,-0.00268199,0.0008865,0.00566423,0
-0.0120707,0.0187008,0.0138114,0.00100127,0.00354287,0.00436264,0
-0.00172214,0.0182084,0.0139641,-0.00439118,0.00355461,-0.000333071,0
0.0121118,-0.0111668,-0.00620895,-0.0102863,-0.00376286,-0.00207484,0
0.00611118,-0.0237699,-0.0197153,-0.00457753,-0.00569297,-0.00128901,0
-0.00848812,0.0072907,-0.00862061,-0.00727966,0.00361705,-0.0108001,0
0.00171932,0.0427505,0.00271823,-0.010412,0.00887629,-0.0129758,0
0.000962189,0.0188274,0.00154713,-0.0103146,0.00439572,0.00351298,0
-0.0276283,-0.0376432,-0.0144731,-0.00635127,-0.00304522,0.0267181,0
-0.0649207,-0.0334872,-0.0296844,-0.00327736,-0.00724451,0.0256172,0
-0.083867,-0.0119976,-0.0150385,0.00103121,0.00168887,0.0198731,0
-0.083867,-0.0119976,-0.0150385,0.00103121,0.00168887,0.0198731,0
-0.0713207,-0.0165824,0.00156308,0.0132545,-0.0019684,0.0126646,0
-0.0521977,-0.049384,0.0152239,0.0189006,-0.00581305,0.0099147,0
-0.0261234,-0.0596184,0.0252626,0.0186343,-0.00942604,-0.00526345,0
-0.00861425,-0.0473627,0.0366674,0.0140334,-0.00564779,-0.0184331,0
0.00503434,-0.0342392,0.0337051,0.00856375,-0.00751002,-0.0230199,0
0.012155,-0.00544111,0.0133336,-0.00483041,-0.00665787,-0.0298743,0
0.0179129,0.0294525,-0.00371846,-0.00854591,-0.00390725,-0.0312284,0
0.0175854,0.0555057,-0.00852859,-0.00631839,0.00202946,-0.0236075,0
0.0177893,0.0328154,-0.00617172,-0.000612222,0.00224642,-0.0114419,0
0.0304054,0.00758134,-0.0124901,-0.00507712,0.00289501,-0.0127338,0
0.0463679,0.0126027,-0.0106354,-0.0122752,0.00840424,-0.0155602,0
0.0460173,0.0418048,0.00583197,-0.0138228,0.0116988,-0.00677365,0
0.036847,0.0557115,0.011643,-0.0189255,0.00815354,0.00905252,0
0.0274102,0.0432983,-0.0122022,-0.0263811,-0.00448613,0.0223991,0
0.0227771,-0.00875142,-0.0411131,-0.0260442,-0.00857016,0.0359406,0
-0.00939357,-0.0484433,-0.0423717,-0.00899758,-0.00762603,0.0457425,0
-0.0731941,-0.0650767,-0.0362243,0.00307851,-0.00474602,0.0441729,0
-0.0955407,-0.0506404,-0.0309285,0.0100919,-0.00716898,0.0126837,0
-0.0506936,-0.0334583,-0.0227227,0.0142934,-0.00133525,-0.022041,0
-0.00346487,-0.0308533,0.00876887,0.029879,-4.51058e-05,-0.0370507,0
0.026067,-0.0223628,0.0332237,0.0304255,0.00288409,-0.042924,0
0.0574298,0.00273115,0.0491303,0.0231585,-0.0005337,-0.0497931,0
0.0739974,0.0181236,0.0451483,0.014316,-0.00459002,-0.0413762,0
0.0783075,0.0299546,0.043561,0.00390143,-0.00534624,-0.0302488,0
0.0794123,0.0548281,0.0272572,-0.0102366,-0.00468139,-0.0230528,0
0.0810375,0.0583589,0.0141926,-0.022589,-0.00117804,-0.00870961,0
0.0834,0.050313,-0.01116,-0.0318392,-0.00120239,0.0106688,0
0.0722565,0.0336688,-0.0412995,-0.0386661,0.000194386,0.032436,0
0.0296682,0.00369578,-0.0628798,-0.0348749,0.000914484,0.0528308,0
-0.0214628,-0.036531,-0.0799833,-0.0282882,0.0016793,0.0682913,0
-0.0692544,-0.0713236,-0.0944556,-0.0190555,-0.000425011,0.0638316,0
-0.0960514,-0.111449,-0.0975676,-0.00685986,0.00064069,0.0410767,0
-0.113779,-0.143554,-0.0792395,0.0117863,0.00126219,0.0136696,0
-0.102303,-0.146906,-0.0455771,0.0169584,0.0045502,-0.0258976,0
-0.0368271,-0.1232,-0.0123613,0.0140242,0.00662678,-0.0659291,0
0.0460405,-0.100269,-0.00182727,0.00541177,0.00242366,-0.0810624,0
0.0760081,-0.0971569,-0.000584948,0.00187436,-0.00657678,-0.0696769,0
0.0816494,-0.0735445,-0.012159,-0.00949399,-0.00965004,-0.0545025,0
0.0932917,-0.022725,-0.0472768,-0.0239405,-0.0114608,-0.0445524,0
0.0929448,-0.00628408,-0.0688016,-0.0246026,-0.00740801,-0.0143008,0
0.0641162,-0.0336135,-0.0921314,-0.0175062,-0.0052968,0.0211452,0
0.0312537,-0.0858111,-0.103734,-0.00727364,-0.0046038,0.0486553,0
0.00213009,-0.118117,-0.122431,-0.00127194,-0.00134175,0.0567114,0
-0.0557232,-0.167602,-0.132291,0.0101553,0.00772201,0.0655569,0
-0.0996459,-0.140833,-0.106536,0.0376012,0.00755976,0.0493472,0
-0.120239,-0.118972,-0.0563377,0.0484648,0.0247399,0.0343326,0
-0.104462,-0.122651,-0.00276349,0.0656483,0.0168644,0.0232102,0
-0.0656784,-0.150842,0.0345453,0.0747348,0.0111169,0.0184377,0
-0.046571,-0.179024,0.09162,0.0903779,0.00756782,0.0222102,0
-0.0676821,-0.172293,0.158273,0.104286,0.00157306,0.0206068,0
-0.070353,-0.145809,0.191521,0.0946899,-0.00924265,0.0018121,0
-0.0347528,-0.12526,0.1965,0.0894565,-0.0229952,-0.022511,0
-0.00600308,-0.116613,0.21688,0.092445,-0.0251063,-0.0309759,0
0.00423078,-0.0932204,0.235577,0.0910653,-0.0269372,-0.0371438,0
0.00423078,-0.0932204,0.235577,0.0910653,-0.0269372,-0.0371438,0
0.00728034,-0.0334213,0.21903,0.0783142,-0.0334098,-0.0526106,0
0.0295362,0.0189283,0.209082,0.0697295,-0.0331481,-0.069606,0
0.0833981,0.0481853,0.222848,0.0716226,-0.0229505,-0.0730288,0
0.098946,0.0806263,0.238928,0.0652234,-0.0176013,-0.0706818,0
0.121745,0.128409,0.248816,0.0385883,-0.00892517,-0.0738695,0
0.167129,0.157848,0.241049,0.0209798,-0.00366539,-0.0713918,0
0.20841,0.148315,0.252807,0.0060426,0.0042185,-0.0568988,0
0.241702,0.12648,0.249689,-0.0145761,0.00698929,-0.0410968,0
0.26964,0.088749,0.235989,-0.0334273,0.0133585,-0.0261485,0
0.28043,0.0572016,0.218673,-0.0498419,0.0201104,-0.00419712,0
0.250503,0.0588385,0.171578,-0.0700997,0.018333,0.0121238,0
0.224237,0.0516335,0.100896,-0.0880035,0.0133522,0.0241136,0
0.202241,-0.018396,0.0461153,-0.0887474,0.0164435,0.0406312,0
0.168555,-0.122346,-0.0139858,-0.0836659,0.0144919,0.0474619,0
0.134732,-0.153851,-0.093339,-0.0913576,0.014785,0.0298939,0
0.108243,-0.120326,-0.149277,-0.0846361,0.0198212,0.00616229,0
0.08483,-0.0774444,-0.177857,-0.0732789,0.0292453,0.0010637,0
0.0740908,-0.07557,-0.209012,-0.0566014,0.024232,0.00720787,0
0.0883066,-0.0879399,-0.242839,-0.046593,0.025176,0.0181153,0
0.0959903,-0.101304,-0.256939,-0.0243086,0.0274895,0.0340629,0
0.088764,-0.0893068,-0.259186,-0.000147402,0.0303605,0.0504184,0
0.0558473,-0.130695,-0.217038,0.0185389,0.0360552,0.0673904,0
0.0130067,-0.173155,-0.188282,0.032749,0.0201253,0.0698264,0
-0.0297655,-0.251033,-0.191932,0.0275637,0.0118573,0.0644398,0
-0.0796449,-0.333419,-0.172762,0.0260631,0.0033637,0.03368,0
-0.0715165,-0.332641,-0.167139,0.00443908,0.00430629,-0.0330267,0
-0.00123555,-0.272799,-0.15021,-0.0291937,0.0108981,-0.101642,0
0.123358,-0.209709,-0.177376,-0.0651529,0.00459059,-0.145268,0
0.220069,-0.118171,-0.252599,-0.0928493,-0.00979181,-0.153038,0
0.27698,-0.021985,-0.315386,-0.108879,-0.00698768,-0.128904,0
0.339735,0.0421071,-0.365852,-0.114716,8.14795e-05,-0.0824237,0
0.378258,0.0812728,-0.4569,-0.118947,-0.00208303,-0.0213072,0
0.338411,0.0165894,-0.513649,-0.102676,0.00436333,0.0585661,0
0.294071,-0.0762455,-0.633595,-0.106454,-0.00261161,0.0945672,0
0.251964,-0.154382,-0.757785,-0.0918235,-0.00159428,0.102542,0
0.201529,-0.182476,-0.807632,-0.0625052,0.0204746,0.0979412,0
0.163024,-0.192154,-0.834233,-0.0428094,0.0357533,0.0706963,0
0.16736,-0.207408,-0.854509,-0.0294558,0.0439452,0.0347348,0
0.19334,-0.203112,-0.877945,-0.0275834,0.0516925,0.00667292,0
0.174095,-0.195982,-0.911029,-0.0200368,0.051998,-0.0020166,0
0.132246,-0.2255,-0.915998,-0.0031203,0.0530009,-0.0108814,0
0.15051,-0.193865,-0.888925,0.00967383,0.0553564,-0.0430768,0
0.206955,-0.119724,-0.853606,0.00890619,0.0551126,-0.0587081,0
0.213282,-0.0819208,-0.843537,0.0167564,0.0379721,-0.027658,0
0.161411,-0.151592,-0.839407,0.0227429,0.0213466,0.0186902,0
0.0836236,-0.235806,-0.825915,0.0380644,0.0130979,0.0475149,0
-0.00173336,-0.221407,-0.805143,0.0425294,0.0159507,0.0437826,0
-0.0451133,-0.171982,-0.762028,0.0534728,0.0216599,0.0342022,0
-0.0632645,-0.199092,-0.702264,0.0778179,0.0229312,0.0407194,0
-0.0824857,-0.238239,-0.617889,0.103827,0.0210414,0.0465502,0
-0.120038,-0.262564,-0.504429,0.12042,0.0200435,0.0439191,0
-0.125335,-0.279316,-0.38766,0.127851,0.0129266,0.0335895,0
-0.13109,-0.303567,-0.299154,0.118604,-0.00152186,0.0181699,0
-0.141951,-0.268386,-0.251241,0.0981856,-0.00945115,-0.00271714,0
-0.141951,-0.268386,-0.251241,0.0981856,-0.00945115,-0.00271714,0
-0.154094,-0.184668,-0.184049,0.0923682,-0.00560614,-0.0168984,0
-0.160059,-0.0983085,-0.0576352,0.109735,0.00155827,-0.0129661,0
-0.138852,-0.0831475,0.0442148,0.10815,-0.00590768,-0.00355631,0
-0.102866,-0.141849,0.0869809,0.0952079,-0.0224036,0.00973707,0
-0.133681,-0.19234,0.111292,0.0942042,-0.0205122,0.0299481,0
-0.207677,-0.152972,0.140701,0.0896754,-0.00175592,0.029128,0
-0.294931,-0.134388,0.215977,0.101452,0.0114549,0.0185047,0
-0.294611,-0.0958647,0.279347,0.0925989,0.0258414,-0.0208326,0
-0.230932,-0.0381853,0.326166,0.0722229,0.0293825,-0.0531397,0
-0.172648,-0.0109666,0.351429,0.0603534,0.0290086,-0.0481474,0
-0.178213,0.00981501,0.391463,0.061112,0.0216818,-0.0179358,0
-0.233529,0.0374792,0.406595,0.0440309,0.0162634,0.000167251,0
-0.24683,0.0525776,0.419855,0.031472,0.00788276,0.00462162,0
-0.216415,0.0401916,0.438536,0.0216281,0.000805214,0.00410086,0
-0.180062,0.0414306,0.45632,0.00891251,-0.00916284,0.00842017,0
-0.174841,0.0526888,0.439678,-0.0122314,-0.0197317,0.0154735,0
-0.173499,0.0282801,0.423986,-0.0213591,-0.0248827,0.025709,0
-0.158239,0.0146501,0.427549,-0.0193495,-0.0287669,0.0181121,0
-0.15153,0.00117514,0.444289,-0.034685,-0.0205911,0.0143971,0
-0.165881,-0.0723714,0.45014,-0.0332273,-0.0283998,0.0139214,0
-0.174565,-0.126877,0.457744,-0.0349723,-0.0272891,-0.00165278,0
-0.189303,-0.0940035,0.475825,-0.0458324,-0.0189546,-0.0216388,0
-0.20446,-0.0814469,0.482157,-0.0468635,-0.0112736,-0.0300428,0
-0.199151,-0.110574,0.511427,-0.0297388,-0.00706883,-0.0338541,0
-0.160682,-0.112347,0.552193,-0.0202684,0.00499132,-0.0456216,0
-0.0993784,-0.0829359,0.601466,-0.00820103,0.0150933,-0.0414694,0
-0.0584957,-0.0814523,0.629784,0.000553623,0.0171151,-0.0192828,0
-0.0329762,-0.0443536,0.606222,-0.0122438,0.0138206,-0.0029797,0
-0.038011,-0.0313488,0.551003,-0.0275474,0.00096193,0.0125965,0
-0.144398,-0.0859083,0.535746,0.0055108,0.00111724,0.0671555,0
-0.337838,-0.0488757,0.535738,0.0204892,-0.00100236,0.0735023,0
-0.425177,0.0700788,0.488541,-0.00548744,0.000445709,0.0168598,0
-0.339357,0.0900351,0.459411,-0.00668956,0.00655484,-0.0227528,0
-0.211258,0.0560637,0.45462,0.0046429,0.00478986,-0.026804,0
-0.144704,0.0505046,0.463901,0.00541131,0.0138362,-0.00114775,0
-0.145924,0.0601839,0.47318,0.00319939,0.0180349,0.0385734,0
-0.175152,0.0778744,0.433241,-0.00989102,0.00714296,0.0549396,0
-0.181402,0.118275,0.357176,-0.029616,0.00179617,0.0421243,0
-0.150104,0.14572,0.284667,-0.0336036,0.00733341,0.025951,0
-0.113214,0.141853,0.231468,-0.025655,0.0132162,0.0117873,0
-0.124873,0.107676,0.2321,-0.0105859,0.0239939,0.017419,0
-0.158738,0.0210344,0.234352,0.00236274,0.0266614,0.0125008,0
-0.138293,-0.0509551,0.181335,-0.0150511,0.0169282,-0.0292479,0
-0.0545816,-0.0306265,0.113254,-0.0396232,0.0223876,-0.0786666,0
-0.0217933,0.0011351,0.0408595,-0.0502483,0.0325427,-0.0927123,0
-0.0283254,0.0659871,-0.0366974,-0.0499491,0.0321412,-0.101015,0
-0.0621237,0.17574,-0.10669,-0.0513865,0.0411369,-0.109001,0
-0.0622219,0.280754,-0.130709,-0.0423964,0.0549221,-0.115574,0
-0.027594,0.277676,-0.102255,-0.02053,0.0723243,-0.0949564,0
0.0142409,0.197232,-0.0559901,-0.00556876,0.0767966,-0.0739315,0
0.0431273,0.120216,-0.0206118,-0.00564418,0.0795352,-0.0599743,0
0.0524523,0.104159,0.0232759,-0.00837437,0.0797853,-0.0559178,0
0.0677873,0.120379,0.0712768,-0.0121775,0.08348,-0.0523973,0
0.120089,0.124336,0.122033,-0.0107831,0.078006,-0.0446924,0
0.120089,0.124336,0.122033,-0.0107831,0.078006,-0.0446924,0
0.182335,0.0598084,0.148515,-0.0149772,0.0708506,-0.0169993,0
0.224228,-0.0410873,0.136427,-0.0132963,0.0557341,0.0124215,0
0.227635,-0.0910244,0.0826009,-0.0166963,0.050205,0.0235617,0
0.216337,-0.0752144,0.0425292,-0.0111731,0.0518916,0.0230195,0
0.234755,-0.0800485,0.0104983,0.00472112,0.059416,0.0273348,0
0.276483,-0.106379,-0.0494873,0.00634941,0.05461,0.0263296,0
0.315667,-0.128738,-0.153539,-0.00767619,0.0522814,0.0188541,0
0.348308,-0.109368,-0.288118,-0.0173533,0.0572842,0.00605804,0
0.352181,-0.0926022,-0.403385,-0.013766,0.0771116,0.0185428,0
0.300885,-0.0894004,-0.52073,-0.0118498,0.0840628,0.0303315,0
0.235631,-0.100074,-0.688493,-0.0346557,0.0891523,0.0201904,0
0.20587,-0.10366,-0.862927,-0.054924,0.0999411,-0.00835228,0
0.201115,-0.0519456,-1.03548,-0.0764259,0.119359,-0.0433093,0
0.215096,0.0752784,-1.19272,-0.0993083,0.14324,-0.0605029,0
0.223404,0.212467,-1.33553,-0.113524,0.16086,-0.0443846,0
0.222903,0.288745,-1.4479,-0.112022,0.172519,0.00394011,0
0.196075,0.225904,-1.54795,-0.106381,0.174271,0.0678366,0
0.169674,0.0562618,-1.64917,-0.0913205,0.158557,0.102887,0
0.174495,-0.0642366,-1.69967,-0.0781851,0.151039,0.0951791,0
0.199197,-0.0805734,-1.70085,-0.0766184,0.145177,0.0732806,0
0.203879,-0.116667,-1.72206,-0.0753274,0.118051,0.0768354,0
0.153154,-0.202034,-1.78695,-0.0702113,0.0743144,0.0912552,0
0.0250796,-0.279789,-1.84705,-0.0551018,0.0408658,0.0974978,0
-0.153554,-0.378361,-1.90157,-0.0246219,0.0104495,0.0867262,0
-0.326695,-0.466287,-1.94324,-0.00814958,-0.0183057,0.0360287,0
-0.479529,-0.469373,-2.03149,-0.020932,-0.0373584,-0.0482846,0
-0.545973,-0.305408,-2.09009,-0.00377468,-0.0428334,-0.144483,0
-0.480973,0.000953274,-2.02946,0.0340514,-0.0181816,-0.190813,0
-0.37612,0.138176,-1.85774,0.113916,-0.020882,-0.145132,0
-0.267792,0.0113302,-1.64072,0.162239,-0.042529,-0.0560867,0
-0.192051,-0.146223,-1.50461,0.167691,-0.088883,-0.00175387,0
-0.217932,-0.192693,-1.41246,0.154059,-0.110581,0.0330772,0
-0.312118,-0.139874,-1.27363,0.15495,-0.111682,0.0494437,0
-0.352078,-0.0696913,-1.11151,0.164518,-0.103644,0.047008,0
-0.306457,-0.0714926,-0.95684,0.168442,-0.102603,0.0363535,0
-0.203415,-0.090762,-0.756087,0.183043,-0.104469,0.0253835,0
-0.0544949,-0.12598,-0.581698,0.182655,-0.105985,0.0265512,0
0.102356,-0.202128,-0.419243,0.185379,-0.119884,0.0426731,0
0.194735,-0.324239,-0.357593,0.163108,-0.133027,0.069886,0
0.163542,-0.472929,-0.344161,0.145252,-0.143237,0.08634,0
0.0812282,-0.507267,-0.356237,0.120873,-0.132705,0.0585163,0
0.0325908,-0.439772,-0.361159,0.0978033,-0.105322,-0.00418264,0
0.0568106,-0.418711,-0.366342,0.0944895,-0.0847132,-0.0526746,0
0.141276,-0.310946,-0.425917,0.0768355,-0.0831637,-0.110952,0
0.173093,-0.247764,-0.479243,0.0796395,-0.0678423,-0.114227,0
0.159719,-0.186647,-0.488613,0.0957927,-0.0505235,-0.0958034,0
0.0852396,-0.0937501,-0.490921,0.112907,-0.0417828,-0.0797757,0
-0.00584209,0.0478314,-0.474013,0.126367,-0.0309428,-0.0700331,0
-0.0431095,0.167415,-0.410714,0.139863,-0.0210331,-0.0610516,0
-0.00497777,0.195578,-0.32114,0.161706,-0.010677,-0.0323532,0
0.0332387,0.166387,-0.228215,0.178142,-0.00773984,0.01333,0
0.0151131,0.0850649,-0.121196,0.193533,-0.0083788,0.0681524,0
-0.045782,0.0784958,-0.0278542,0.199162,-0.0177678,0.0981696,0
-0.045782,0.0784958,-0.0278542,0.199162,-0.0177678,0.0981696,0
-0.122807,0.0644265,0.0852552,0.208618,-0.0167991,0.120517,0
-0.16697,0.019268,0.239931,0.224205,-0.0151837,0.132899,0
-0.167115,0.000104181,0.373992,0.216473,-0.0235759,0.122493,0
-0.124918,-0.0402994,0.488279,0.203897,-0.0320023,0.124984,0
-0.102741,-0.135314,0.581117,0.188742,-0.0466813,0.144585,0
-0.122954,-0.219755,0.61652,0.159593,-0.0593044,0.158125,0
-0.176014,-0.204512,0.608311,0.125925,-0.0680609,0.15173,0
-0.283613,-0.213658,0.598397,0.105168,-0.0706442,0.154039,0
-0.41201,-0.244278,0.56721,0.0838191,-0.0694645,0.145114,0
-0.577112,-0.100631,0.42359,0.0358621,-0.088142,0.103936,0
-0.898584,0.152908,0.160041,-0.0452183,-0.101287,0.0505574,0
-1.17131,0.163792,-0.0521027,-0.0475528,-0.105119,-0.00681859,0
-1.20447,0.136684,-0.150244,0.00131046,-0.0648309,-0.130464,0
-1.05426,0.439152,-0.106661,0.021159,0.00294583,-0.270859,0
-0.777683,0.794195,0.0679493,0.0417602,0.0412245,-0.301769,0
-0.37048,0.958635,0.24222,0.0439868,0.0429997,-0.223713,0
-0.0298654,0.849176,0.284459,0.0101587,0.0021371,-0.106163,0
0.109356,0.6479,0.232731,-0.0589844,-0.0164663,-0.0113786,0
0.0774583,0.423569,0.169487,-0.0933254,-0.0352279,0.0346661,0
0.0399964,0.243488,0.154553,-0.0876125,-0.0229808,0.0447451,0
0.0667901,0.199572,0.187805,-0.0961757,-0.00409828,0.0108637,0
0.113335,0.209442,0.16253,-0.140878,0.00790594,-0.0243701,0
0.124757,0.264977,0.043461,-0.184177,-0.0126164,-0.0607296,0
0.10332,0.279399,-0.0812717,-0.204533,0.00446845,-0.0688047,0
0.0856304,0.302464,-0.111634,-0.188348,0.0129832,-0.0796725,0
0.081454,0.255381,-0.169622,-0.194388,0.0422467,-0.0870698,0
0.0911211,0.258263,-0.206146,-0.198827,0.040945,-0.110259,0
0.118951,0.272164,-0.262356,-0.212471,0.0531413,-0.122378,0
0.15374,0.30327,-0.316109,-0.211207,0.050141,-0.124193,0
0.177212,0.271274,-0.318954,-0.195919,0.0584412,-0.0893233,0
0.178554,0.20371,-0.312872,-0.182616,0.0559144,-0.0486056,0
0.156714,0.14114,-0.312554,-0.178663,0.0527425,-0.0123325,0
0.114389,0.0861205,-0.33031,-0.17219,0.0374426,0.0147693,0
0.0706732,-0.0306994,-0.32776,-0.160174,0.0406957,0.0435608,0
0.0683731,-0.122209,-0.293129,-0.142384,0.0425832,0.0510035,0
0.0862126,-0.141441,-0.274269,-0.137058,0.0429469,0.0541918,0
0.0574367,-0.14752,-0.265356,-0.131997,0.0361014,0.0781099,0
-0.0258404,-0.162396,-0.254952,-0.126865,0.029172,0.106289,0
-0.141767,-0.205424,-0.266892,-0.117436,0.0158474,0.117878,0
-0.217612,-0.280611,-0.277001,-0.0997134,0.00735904,0.106814,0
-0.217118,-0.36557,-0.219884,-0.0599957,0.0127013,0.0864706,0
-0.195022,-0.424705,-0.150504,-0.0430179,0.0122697,0.0674911,0
-0.231635,-0.438161,-0.165767,-0.0473823,-0.0114008,0.0583035,0
-0.341192,-0.43255,-0.223942,-0.0545695,-0.0336923,0.0450319,0
-0.445976,-0.374679,-0.247777,-0.0256114,-0.0396425,0.0241796,0
-0.524494,-0.325509,-0.214102,0.00880338,-0.0337126,0.00277966,0
-0.537529,-0.277936,-0.170402,0.0280033,-0.04322,-0.0397995,0
-0.490461,-0.267067,-0.128889,0.0424853,-0.0463211,-0.0742837,0
-0.391956,-0.269365,-0.0609685,0.0610298,-0.0511385,-0.0990424,0
-0.284085,-0.188996,-0.00572081,0.0667574,-0.057417,-0.116287,0
-0.207219,-0.104229,0.0472175,0.0590011,-0.0560545,-0.114528,0
-0.158939,-0.0726839,0.116817,0.0654174,-0.0583525,-0.0955792,0
-0.109188,-0.0287353,0.167658,0.0492141,-0.0593294,-0.0849485,0
-0.0510464,0.0232118,0.184143,0.0198199,-0.0581863,-0.0738354,0
-0.0510464,0.0232118,0.184143,0.0198199,-0.0581863,-0.0738354,0
-0.00285627,0.0384666,0.177586,0.00126024,-0.059971,-0.0588323,0
0.0402981,0.0311007,0.152236,-0.0158419,-0.0558652,-0.0371729,0
0.0583847,0.0434125,0.129753,-0.0235095,-0.0450865,-0.0177697,0
0.0488596,0.0868151,0.121103,-0.0312286,-0.0301663,0.0017544,0
0.0143511,0.142339,0.0991231,-0.040145,-0.023239,0.0109823,0
-0.0134662,0.115178,0.0661359,-0.0400287,-0.016498,0.0281733,0
-0.0199689,0.0804866,0.0635075,-0.0274808,-0.0103074,0.029497,0
-0.015771,0.0674807,0.0838356,-0.0212404,0.00525466,0.0277962,0
0.00221072,0.0811891,0.104182,-0.0180833,0.00760929,0.0163269,0
0.0330895,0.0705472,0.108016,-0.0200686,0.0109979,0.0201401,0
0.019841,0.0445649,0.0799482,-0.0194441,0.00280244,0.0261424,0
-0.011359,0.0395216,0.0653835,-0.0113768,0.00439526,0.0271463,0
-0.0662724,-0.00954895,0.085359,0.00946915,0.00864364,0.0366962,0
-0.0913127,0.015975,0.0812395,0.00908799,0.000881508,-0.00322372,0
-0.060591,0.0518868,0.100157,0.0084941,0.0112789,-0.028615,0
-0.0298413,-0.0178993,0.120241,0.0220584,0.00110377,-0.0262117,0
0.0115567,-0.0487571,0.0930317,0.0211976,-0.00779981,-0.0448671,0
0.034033,-0.0624556,0.099997,0.0257801,-0.00213484,-0.0484979,0
0.0370421,-0.0323223,0.113652,0.0314208,-0.00624549,-0.0628807,0
0.0639832,-0.00223632,0.116326,0.0288688,-0.00288323,-0.0714155,0
0.0763042,0.00303126,0.105549,0.0259619,-0.00890211,-0.0707657,0
0.107163,0.0414114,0.0972631,0.0220797,-0.00472476,-0.0755816,0
0.132201,0.0533714,0.123774,0.0333104,0.00483092,-0.0593956,0
0.15966,0.0793806,0.14668,0.0364598,0.00256605,-0.0541226,0
0.199093,0.0943827,0.16901,0.0271671,0.0115722,-0.0371225,0
0.199292,0.0691566,0.167219,0.0283732,0.00241202,-0.00823927,0
0.189329,0.0851118,0.187884,0.0257806,0.00939796,0.00115681,0
0.167386,0.0803931,0.207249,0.0280098,0.0112033,0.0138499,0
0.15677,0.051355,0.208961,0.0287977,0.00131088,0.0149345,0
0.165913,0.0421565,0.229776,0.0245419,0.0122315,0.00755024,0
0.162817,0.0184806,0.234811,0.0281599,0.00810643,0.00197834,0
0.175811,0.0381758,0.247565,0.0248429,0.0099031,-0.0124348,0
0.184732,0.0749416,0.278833,0.0298014,0.0122692,-0.0177107,0
0.189437,0.0851736,0.283836,0.021971,0.00712889,-0.0216443,0
0.224583,0.117958,0.284823,0.010084,0.00472351,-0.0273852,0
0.253534,0.0919713,0.275631,0.00971182,0.000275135,-0.0168503,0
0.273677,0.0976841,0.288084,0.00869362,0.00151312,-0.0154593,0
0.28498,0.0978932,0.292812,0.00344859,0.00641952,-0.00975496,0
0.273131,0.0553261,0.27195,-0.0044394,-0.000174478,0.0044601,0
0.265697,0.0476889,0.234517,-0.0164634,-0.00293813,-0.000561357,0
0.26628,0.0813993,0.191686,-0.017949,-7.59643e-05,-0.0180546,0
0.275914,0.162338,0.180274,-0.0146151,0.00560006,-0.0311962,0
0.294804,0.211613,0.187102,-0.0112085,0.016729,-0.0173127,0
0.285546,0.192675,0.176711,-0.0058673,0.00883657,0.0152068,0
0.262034,0.182793,0.150265,-0.0134381,0.00561409,0.0326311,0
0.24145,0.179856,0.141813,-0.0120307,0.0116128,0.0413695,0
0.224494,0.184691,0.142797,-0.00958975,0.0111144,0.046986,0
0.211908,0.159343,0.145837,-0.0183952,0.0152019,0.0504722,0
0.184615,0.132124,0.137808,-0.0188478,0.00887581,0.0527988,0
0.167095,0.153823,0.1302,-0.02725,0.016983,0.0366533,0
0.167698,0.178497,0.158115,-0.0294276,0.0241084,0.027194,0
0.15901,0.132781,0.138228,-0.0316028,0.0129442,0.0343633,0
0.144468,0.100542,0.123812,-0.037794,0.008843,0.0335032,0
0.122995,0.104013,0.106685,-0.0394466,0.0130662,0.0260382,0
0.122995,0.104013,0.106685,-0.0394466,0.0130662,0.0260382,0
0.116205,0.114139,0.0957479,-0.0397761,0.0129602,0.0115225,0
0.103929,0.0965742,0.0981927,-0.0316888,0.0142005,0.0171086,0
0.0736585,0.072094,0.074234,-0.031937,0.00285947,0.0157387,0
0.0687406,0.0767125,0.0583808,-0.0396916,0.00194323,0.00441748,0
0.0632146,0.0723293,0.0217238,-0.0397191,-0.00450691,0.00717318,0
0.0414917,0.0759807,-0.0067562,-0.0353376,-0.0118285,0.00966746,0
0.0184107,0.0832871,-0.0404159,-0.0325952,-0.0122302,0.0114998,0
-0.00728941,0.0791987,-0.0528757,-0.0192623,-0.0170451,0.0104793,0
-0.00371174,0.0717973,-0.0461558,-0.00860676,-0.0132579,0.00310206,0
0.0155965,0.0626829,-0.0415223,-0.0067369,-0.0126675,-0.0016799,0
0.0304591,0.0559883,-0.0463844,-0.00877352,-0.0172554,-0.0050227,0
0.0171256,0.0291493,-0.0663434,-0.0083708,-0.0217898,0.00174177,0
-0.00568417,0.0480311,-0.069564,-0.00476117,-0.0248878,-0.00208104,0
-0.0162269,0.0728321,-0.0604779,-0.000979066,-0.0172791,-0.00824732,0
-0.00447891,0.0774401,-0.0497614,0.000831664,-0.0176865,-0.0155193,0
0.0329817,0.0322557,-0.0403628,0.00441083,-0.0196161,-0.0176442,0
0.0821425,0.0315083,-0.0333974,0.000661686,-0.0166418,-0.023656,0
0.107974,0.0715165,-0.0213109,-0.00395265,-0.0117886,-0.0191522,0
0.0965146,0.0744292,-0.0299192,-0.00987615,-0.0151574,0.00466341,0
0.0620266,0.0420714,-0.0635071,-0.0131524,-0.024767,0.0207647,0
0.0255927,0.0375289,-0.0904898,-0.0105272,-0.0200754,0.023402,0
0.0144749,0.05435,-0.0895519,-0.000845388,-0.0132905,0.00939155,0
0.0350451,0.0717905,-0.066665,0.00712955,-0.00355388,0.000626683,0
0.0510686,0.0461372,-0.07016,0.0103916,-0.0065515,-0.000266373,0
0.0774213,0.0800157,-0.0703885,0.0064896,-0.00512162,-0.0110541,0
0.063059,0.0693193,-0.0459075,0.0149587,0.00405549,0.0153552,0
0.0133442,0.0405988,-0.0512577,0.019008,-0.00852257,0.0274089,0
0.00235664,0.0676749,-0.049059,0.0126657,-0.00241761,0.00384569,0
0.0338322,0.0729015,-0.0132527,0.0213987,0.007309,-0.009574,0
0.0631652,0.0655053,0.0206401,0.0240591,0.00251863,-0.00551409,0
0.061432,0.0282789,0.0202138,0.0141714,-0.00505909,0.0073033,0
0.0323632,0.0221478,0.00348445,0.00790559,-0.0168036,0.00988042,0
0.00826716,0.0444266,0.00514325,0.00421566,-0.0100587,0.000871062,0
-0.0049051,0.0617423,0.0110737,0.00657234,-0.0106924,-0.00638872,0
-0.0121699,0.0425103,0.00350362,0.0004531,-0.0151,-0.0104066,0
0.0342174,0.0793296,0.00547158,-0.00181729,-0.0135215,-0.0391977,0
0.0864291,0.140218,0.0313504,-0.00463764,-0.000770293,-0.0376463,0
0.0870668,0.127252,0.032585,-0.00541845,-0.0123489,-0.00842637,0
0.0606523,0.0876154,0.0106667,-0.0107747,-0.0186657,0.0188462,0
0.0406565,0.0586312,0.000309605,-0.00596143,-0.0156909,0.0270217,0
0.0189435,0.0738051,0.0120467,-0.00222461,-0.00668808,0.0234521,0
-0.0105437,0.084032,0.0124098,-0.00324965,-0.00522406,0.0239861,0
-0.0235442,0.0444511,0.0159115,0.00592311,-0.00895909,0.0194128,0
-0.00908597,-0.0094655,0.0433837,0.0188333,-0.000612102,0.0135015,0
0.015174,-0.0122201,0.0770919,0.0212546,0.00375449,-0.00399476,0
0.0217544,0.0157036,0.089855,0.0129961,0.0053722,-0.0172924,0
0.0236557,0.0218575,0.0949655,0.016406,5.99027e-05,-0.0213575,0
0.035197,0.0191057,0.120106,0.0221734,0.00190417,-0.0240005,0
0.0487331,0.031202,0.150179,0.0217285,0.00672932,-0.027544,0
0.0773823,0.0326752,0.171889,0.0170715,0.0028577,-0.0291967,0
0.103722,0.0318729,0.163099,0.00212419,-0.00167771,-0.0273368,0
0.119426,0.0403856,0.142951,-0.0120586,-0.00371075,-0.0250051,0
0.121766,0.0357155,0.128413,-0.0173377,-0.00310552,-0.0107236,0
0.105731,0.0208659,0.101534,-0.0183282,-0.00439811,0.00198525,0
0.105731,0.0208659,0.101534,-0.0183282,-0.00439811,0.00198525,0
0.0931701,0.0126311,0.0731023,-0.0239173,-0.00211155,0.00353688,0
0.0911839,0.0302975,0.0376816,-0.0280295,-0.00122845,-0.00333214,0
0.10262,0.0329734,0.00743541,-0.0252917,0.0034533,-0.00667483,0
0.11933,0.0585944,-0.00392731,-0.0180788,0.00662936,-0.00988311,0
0.110151,0.0533445,-0.0127324,-0.0103486,0.0119877,0.0023852,0
0.0886625,0.0241071,-0.0169698,-0.00273713,0.0108451,0.0125854,0
0.0860869,-0.0192657,-0.0334729,-0.00056231,0.0126224,0.0105957,0
0.0959118,-0.0273269,-0.0354685,-0.00231178,0.0176854,-0.000925422,0
0.074897,-0.0145827,-0.024386,0.000232235,0.0240806,0.00111639,0
0.0357298,-0.0163281,-0.0139239,0.00580448,0.0229824,0.00525302,0
0.0522584,0.00528621,-0.0101445,0.00741892,0.0201938,-0.00669712,0
0.100875,0.0420568,-0.00824731,-0.00262481,0.0224701,-0.0144907,0
0.0947495,0.0103351,0.013255,0.00834696,0.0176556,0.0118182,0
0.0312948,-0.030986,0.0205617,0.0133099,0.00976747,0.0355735,0
-0.0179858,-0.0594383,0.027639,0.00984007,0.00685807,0.0295559,0
-0.00173387,-0.0474458,0.0353001,0.00436011,0.00535408,-0.00166094,0
0.0418993,-0.0255222,0.0458452,0.00199696,0.00700212,-0.0191141,0
0.0590089,-0.0340758,0.0664662,0.00924245,0.00251016,-0.0123029,0
0.0463395,-0.0687356,0.0664937,0.0066027,-0.00475396,-0.00394511,0
0.0673923,-0.0724111,0.0623475,0.00257304,-0.00608012,-0.0110058,0
0.0891382,-0.0433791,0.0552358,-0.000609457,-0.00421201,-0.0116478,0
0.0726459,-0.0376218,0.0389758,-0.00564049,-0.00717279,0.00290024,0
0.0593868,-0.0326548,0.00861238,-0.00317422,-0.0136473,0.0103164,0
0.049049,-0.0159521,-0.00868691,-0.00307922,-0.00839692,0.0088715,0
0.0501766,-0.0124845,-0.0184419,0.0034337,-0.00696085,0.0117211,0
0.038851,-0.038298,-0.030894,0.0106218,-0.00785571,0.0148267,0
0.013684,-0.053899,-0.0371081,0.0180422,-0.00651217,0.0109692,0
0.0184058,-0.0154189,-0.0235511,0.0224105,0.00188628,-0.00830603,0
0.0377246,0.0253123,-2.55872e-05,0.0244812,0.00918289,-0.0157907,0
0.030794,0.0177402,0.0190275,0.0308943,0.0050455,-0.00162196,0
0.0129199,-0.0111331,0.026732,0.0235485,0.00255211,0.00700444,0
0.0143086,-0.0235776,0.0361226,0.0181332,0.00283945,0.00214642,0
0.0462081,0.0301601,0.0362296,0.00483891,0.00468341,-0.0126526,0
0.0637989,0.0543379,0.0341291,-0.0074158,0.00578038,-0.00753188,0
0.0447244,0.0232421,0.0337185,-0.00173287,-0.00257294,0.01279,0
0.0124684,-0.00367092,0.0233978,-0.00773564,-0.00579919,0.0206261,0
0.00302016,0.00499871,0.00339312,-0.0167336,-0.00697674,0.0054881,0
0.0255923,0.0239648,-0.00844694,-0.0238263,-0.004614,-0.00966108,0
0.0436294,0.0283165,-0.0176648,-0.0183543,-0.00363059,-0.00986266,0
0.0469712,0.0109075,-0.0175241,-0.00967214,-0.002196,-0.00417024,0
0.0624509,0.0154816,-0.0220452,-0.0117528,0.000713453,-0.00404716,0
0.0725449,0.033407,-0.0358656,-0.0188457,0.00164768,-0.00263649,0
0.0695405,0.0288895,-0.0459559,-0.0154439,0.00257534,0.0109389,0
0.0560589,0.0200017,-0.0605014,-0.0145569,0.00131498,0.0186161,0
0.0534159,0.000207219,-0.0723094,-0.0117536,0.00594179,0.0229965,0
0.0485005,-0.00445038,-0.0767559,-0.00341073,0.00874299,0.026775,0
0.0256435,-0.00532242,-0.0825977,-0.00646323,0.0112254,0.024982,0
0.00508175,-0.0357579,-0.0862782,0.00473882,0.0109516,0.0237243,0
0.0102766,-0.0384708,-0.0892064,0.00404076,0.0118077,0.00973201,0
0.0174357,-0.00860084,-0.0872451,0.00583771,0.0135473,-0.00325489,0
0.0184745,0.00776941,-0.0702313,0.0107065,0.0152929,-0.00512749,0
0.0212253,-0.00789601,-0.0667396,0.0146932,0.00824222,-0.00580353,0
0.0242387,-0.027453,-0.0685324,0.0149878,0.00372839,-0.00339752,0
0.0141495,-0.0276863,-0.0663183,0.0156665,0.000545338,-0.00395125,0
0.0141495,-0.0276863,-0.0663183,0.0156665,0.000545338,-0.00395125,0
-0.00070737,0.00433227,-0.0618149,0.0180989,0.00018616,-0.00715673,0
-0.00420229,0.030701,-0.056406,0.0122496,-0.00358421,-0.0172692,0
0.0097498,0.0173261,-0.0559618,0.0156118,-0.0081304,-0.0177107,0
0.0359929,-0.0028397,-0.0478814,0.0181729,-0.010902,-0.0167885,0
0.0427284,0.0209913,-0.035234,0.0157274,-0.00934532,-0.0152895,0
0.0414183,0.0519677,-0.0260435,0.0139564,-0.012139,-0.0111271,0
0.0467627,0.059419,-0.0154385,0.0130068,-0.0120269,-0.00441849,0
0.038642,0.0149549,-0.0126266,0.0131404,-0.0168307,0.0138212,0
0.0420809,-0.00920739,-0.0189764,0.0141177,-0.0222346,0.0111367,0
0.0472588,-0.000766731,-0.016707,0.00882494,-0.0140856,0.00310838,0
0.0482787,-0.0095312,0.00880127,0.018183,-0.0100364,0.00198019,0
0.049144,-0.0063862,0.0270183,0.018346,-0.00769973,0.00293714,0
0.0505062,0.0227971,0.00572719,-0.00139537,-0.0136703,-0.00413573,0
0.0651228,0.0558415,-0.0234264,-0.00989662,-0.011989,0.00261635,0
0.0497837,0.0492174,-0.0266977,0.00106587,-0.00906886,0.0248336,0
0.00675997,0.00982946,-0.025883,0.00933746,-0.00914967,0.04606,0
-0.0220306,-0.00994953,-0.0363832,0.00886822,-0.00884402,0.0483097,0
-0.030123,-0.0119215,-0.0494842,0.00661804,-0.00686303,0.0394691,0
-0.0247799,-0.00230738,-0.0628348,0.0077219,-0.00477454,0.0308701,0
-0.0412385,-0.0144026,-0.0505724,0.0215781,-0.000391126,0.0370314,0
-0.0588419,-0.0250503,-0.02963,0.0296995,-0.00330357,0.0399557,0
-0.0845004,-0.0294253,-0.0417213,0.0225421,-0.0103666,0.0366699,0
-0.116814,-0.0272598,-0.0710975,0.0244735,-0.0203183,0.0313384,0
-0.145654,-0.0433272,-0.0593434,0.0445652,-0.0148324,0.0267512,0
-0.149054,-0.0293278,-0.00796178,0.0583052,-0.00693952,0.0125892,0
-0.131748,-0.0325153,0.0272259,0.061329,-0.0086931,-0.000768781,0
-0.109534,-0.0614294,0.0393654,0.0617423,-0.020108,-0.00669885,0
-0.119713,-0.040062,0.0412425,0.0577476,-0.0236856,-0.00763786,0
-0.16704,-0.0159479,0.0483822,0.0518416,-0.0253644,-0.00463587,0
-0.192211,-0.0342752,0.0555648,0.0529088,-0.0307839,-0.00897324,0
-0.160797,-0.059877,0.0642644,0.0561675,-0.0287155,-0.0287789,0
-0.0981019,-0.0557639,0.102789,0.0536004,-0.0213507,-0.0454765,0
-0.0482266,-0.0418932,0.126835,0.0385457,-0.0188372,-0.0404918,0
-0.029478,-0.0521851,0.0866523,0.0160956,-0.0359277,-0.0227535,0
-0.0481396,-0.0783882,0.0313376,0.00512205,-0.0408355,0.000307083,0
-0.0872197,-0.0878212,0.0264141,0.0168826,-0.0340144,0.0164029,0
-0.0967274,-0.0717755,0.0200578,0.00682002,-0.0256995,0.0116776,0
-0.0667439,-0.081323,-0.015951,-0.00703758,-0.0326091,0.00949407,0
-0.0493543,-0.148974,-0.0562691,-0.00669234,-0.0350958,0.0305916,0
-0.0693603,-0.189455,-0.0824751,0.00726326,-0.0343147,0.0503171,0
-0.1105,-0.215446,-0.111405,0.00670287,-0.0314471,0.0552667,0
-0.146334,-0.25303,-0.150398,0.00903764,-0.0364856,0.0484163,0
-0.160843,-0.277814,-0.178999,0.0201958,-0.0322859,0.0286682,0
-0.146036,-0.268436,-0.169168,0.0275058,-0.020485,0.00642943,0
-0.117698,-0.272912,-0.158086,0.03847,-0.018488,0.00242704,0
-0.0951102,-0.287717,-0.166103,0.0371123,-0.0257282,0.0105044,0
-0.107478,-0.240788,-0.221505,0.0338737,-0.0364258,0.0187327,0
-0.111571,-0.134514,-0.264725,0.0200801,-0.0291354,0.0274925,0
-0.170864,0.0299192,-0.337356,0.00955722,-0.0408243,0.0392404,0
-0.267245,0.145589,-0.40455,0.00367829,-0.0418163,0.0620491,0
-0.327954,0.317911,-0.437983,0.00523531,-0.0344057,0.0503637,0
-0.328515,0.343761,-0.498026,0.00810261,-0.0407606,0.059956,0
-0.276645,0.391341,-0.594764,-0.0174926,-0.0556219,0.0426096,0
-0.276645,0.391341,-0.594764,-0.0174926,-0.0556219,0.0426096,0
-0.254235,0.399583,-0.718059,-0.0462602,-0.0596365,0.0472019,0
-0.281415,0.400569,-0.84736,-0.0341756,-0.0715529,0.0475454,0
-0.433574,0.396875,-1.0027,-0.0448047,-0.0682864,0.052067,0
-0.567957,0.465075,-1.17808,-0.0420008,-0.0789416,0.00506854,0
-0.625997,0.463583,-1.2561,-0.0220795,-0.0628508,-0.0309607,0
-0.604109,0.351848,-1.28256,0.0028528,-0.049174,-0.0536243,0
-0.534631,0.167706,-1.2821,0.019883,-0.0353375,-0.0891207,0
-0.373178,0.0377604,-1.18543,0.052576,-0.00175736,-0.136998,0
-0.0876821,0.0440998,-0.972191,0.0762388,0.0279726,-0.163642,0
0.187175,0.00539329,-0.760784,0.0729272,0.0380036,-0.145837,0
0.374645,0.0188474,-0.640102,0.0555685,0.00838667,-0.113127,0
0.433825,-0.0517297,-0.469202,0.0437307,0.00696312,-0.0408821,0
0.409562,-0.161126,-0.392017,0.0491515,-0.0266147,-0.00111938,0
0.361709,-0.218547,-0.424555,0.0213688,-0.0390885,-0.0156509,0
0.307408,-0.257562,-0.451014,0.00507881,-0.0426785,-0.0472747,0
0.300088,-0.180186,-0.507591,-0.0135006,-0.0412132,-0.0812809,0
0.27833,-0.0570172,-0.576877,-0.0323773,-0.012808,-0.0889612,0
0.212534,0.14848,-0.640661,-0.0513893,-0.000547439,-0.0762155,0
0.148879,0.327292,-0.670534,-0.0867712,0.0299516,-0.0607778,0
0.151581,0.477574,-0.622585,-0.094762,0.0400029,-0.0586121,0
0.254073,0.521723,-0.556917,-0.125977,0.0660041,-0.0546027,0
0.378357,0.444611,-0.468243,-0.129076,0.0619667,-0.0232582,0
0.511187,0.258068,-0.420946,-0.149095,0.0643825,-0.00626177,0
0.638303,0.172271,-0.402022,-0.175493,0.0634103,-0.0181614,0
0.656714,0.0816795,-0.429894,-0.208868,0.058931,-0.00404644,0
0.554617,-0.0557723,-0.577314,-0.217516,0.0256311,0.0121148,0
0.346498,-0.194408,-0.777948,-0.208952,0.000828166,0.0360745,0
0.0599648,-0.175662,-0.946018,-0.189616,-0.00911584,0.0367721,0
-0.2281,-0.0300989,-1.03942,-0.146311,-0.00789227,0.00832313,0
-0.275802,0.191725,-1.0144,-0.0997258,0.0125677,-0.0891598,0
-0.0783083,0.295251,-0.855275,-0.0416742,0.023552,-0.137439,0
0.189624,0.277879,-0.693912,-0.00270748,0.00731212,-0.116718,0
0.367058,0.0803575,-0.534358,0.0249904,-0.00237648,-0.0351428,0
0.403247,-0.101382,-0.374934,0.0511471,-0.00859086,0.0390723,0
0.368154,-0.339806,-0.194963,0.0677315,0.0138958,0.0971926,0
0.32452,-0.491162,-0.124926,0.0557703,0.00447581,0.102386,0
0.268435,-0.492674,-0.148192,0.0251086,0.00903065,0.0754812,0
0.205992,-0.32951,-0.118609,0.0238289,0.0317239,0.0421536,0
0.129803,-0.219475,-0.042191,0.0438058,0.0480577,0.0511711,0
0.0808313,-0.173982,-0.00695762,0.0421107,0.0352792,0.0477965,0
0.0672191,-0.210742,-0.0256315,0.0327669,0.0228643,0.0433336,0
0.0329951,-0.30896,-0.0190138,0.0545162,0.0141066,0.0427274,0
0.023936,-0.365734,0.0326484,0.0677245,0.0230346,0.00753492,0
0.0802604,-0.357432,0.0884014,0.0758878,0.034308,-0.0478203,0
0.15442,-0.242578,0.158136,0.0701322,0.0494571,-0.0857303,0
0.182058,-0.106555,0.175874,0.0519584,0.0435815,-0.0788009,0
0.157427,-0.025131,0.186894,0.0462203,0.0311938,-0.0380599,0
0.0951969,-0.00670758,0.196303,0.0470756,0.011774,0.00358754,0
0.0336318,-0.0556689,0.222996,0.0486669,-0.0017919,0.0297791,0
0.022437,-0.0795738,0.260695,0.0324581,-0.0192381,0.0244998,0
0.0276225,-0.0557333,0.21402,-0.0133507,-0.0460638,0.0101587,0
0.0326722,-0.0522734,0.143119,-0.0411513,-0.0631812,0.026854,0
0.0272672,0.0478678,0.0703752,-0.0680993,-0.0651384,0.0349529,0
-0.0115571,0.0661396,0.0205501,-0.068537,-0.0532196,0.0663265,0
-0.0115571,0.0661396,0.0205501,-0.068537,-0.0532196,0.0663265,0
-0.0229551,-0.0206141,-0.0149013,-0.0513482,-0.0597063,0.0993093,0
-0.0337834,-0.0443862,-0.0468729,-0.0614436,-0.0499554,0.107348,0
-0.0456083,0.0370346,-0.0879785,-0.0724939,-0.0320828,0.106351,0
-0.0719354,0.035605,-0.120412,-0.0614069,-0.0164213,0.113661,0
-0.167523,-0.0311371,-0.147425,-0.032138,-0.0133614,0.1528,0
-0.298498,-0.126993,-0.137238,-0.0188076,0.019721,0.158436,0
-0.472057,-0.208463,-0.128812,0.0107921,0.0259097,0.168437,0
-0.585365,-0.330944,-0.131537,0.024554,0.0437613,0.122974,0
-0.588693,-0.416684,-0.0580133,0.05989,0.057702,0.0697733,0
-0.467334,-0.450541,0.0587449,0.068298,0.0896049,0.0106729,0
-0.290459,-0.4411,0.226065,0.0847295,0.108409,-0.0241949,0
-0.153503,-0.427027,0.405048,0.083516,0.116377,-0.0186741,0
-0.112471,-0.370748,0.496832,0.0398373,0.093295,7.34925e-05,0
-0.179888,-0.378762,0.53544,0.0146542,0.074125,0.061837,0
-0.310221,-0.390245,0.514099,-0.00650302,0.034964,0.0927454,0
-0.353643,-0.271866,0.436947,-0.0592051,0.0258734,0.0477507,0
-0.348086,-0.152292,0.376271,-0.0729207,0.0303887,0.0225637,0
-0.360884,-0.0661066,0.333107,-0.0697207,0.0273641,0.0247741,0
-0.366682,-0.0606879,0.30967,-0.0790379,0.0369418,0.0356081,0
-0.432892,-0.108898,0.293049,-0.0769307,0.0356005,0.0560892,0
-0.482906,-0.196301,0.296385,-0.0645956,0.0357734,0.0571181,0
-0.489505,-0.311792,0.245621,-0.0800071,0.0442838,0.0170197,0
-0.45855,-0.407369,0.196036,-0.0428779,0.0415347,-0.00852138,0
-0.447948,-0.420102,0.206751,-0.00649036,0.0590863,-0.025212,0
-0.501657,-0.409284,0.319343,0.0358899,0.0809242,-0.0188236,0
-0.497772,-0.325214,0.450031,0.065958,0.0899031,-0.0537456,0
-0.417018,-0.242382,0.544462,0.0677219,0.0957876,-0.0937385,0
-0.400787,-0.220361,0.662351,0.0861444,0.0974301,-0.0649354,0
-0.498308,-0.288526,0.735834,0.0924746,0.0604594,-0.0215507,0
-0.520681,-0.468936,0.799452,0.107818,0.0272858,-0.0210235,0
-0.484216,-0.607435,0.843851,0.100767,0.0173332,-0.04033,0
-0.452972,-0.624511,0.81722,0.0792186,-0.00160044,-0.0647595,0
-0.42418,-0.49468,0.688796,0.0283194,-0.0359232,-0.10448,0
-0.43355,-0.313708,0.57773,0.00259627,-0.061644,-0.118242,0
-0.43153,-0.147104,0.528052,-0.00240759,-0.0678526,-0.118598,0
-0.40056,-0.0652383,0.486745,-0.0111006,-0.0802559,-0.10893,0
-0.338959,-0.00852655,0.436197,-0.0333948,-0.0878942,-0.100246,0
-0.289084,0.0909916,0.346353,-0.0605044,-0.0934576,-0.082817,0
-0.288813,0.191405,0.20689,-0.0969605,-0.100844,-0.0576112,0
-0.312038,0.225204,0.100997,-0.0920786,-0.111451,-0.0177269,0
-0.304693,0.207752,0.0418461,-0.082867,-0.0954899,-0.0114944,0
-0.263314,0.108623,0.0165834,-0.0736438,-0.083554,-0.0106457,0
-0.185872,0.0272482,-0.0103515,-0.0688496,-0.0834114,-0.0202432,0
-0.144544,-0.0601507,-0.0131248,-0.0516523,-0.0702606,-0.0151011,0
-0.0944402,-0.0812757,0.0141732,-0.0444372,-0.0483719,-0.0322111,0
-0.0671533,-0.123127,0.00323845,-0.0412591,-0.0456129,-0.0384638,0
-0.0523059,-0.0635252,-0.101095,-0.0618349,-0.066541,-0.070197,0
-0.133139,0.0102521,-0.192892,-0.0520628,-0.0652702,-0.062303,0
-0.153181,0.111482,-0.206031,-0.018669,-0.0522296,-0.103521,0
-0.0309611,0.145086,-0.161121,0.00409816,-0.0273387,-0.134197,0
0.133595,0.2032,-0.0806596,0.016098,-0.00493251,-0.136883,0
0.227955,0.233938,0.0181101,0.00825464,0.0115461,-0.0832908,0
0.229104,0.193518,0.00683852,-0.00923374,-0.0135197,-0.0141783,0
0.233822,0.18529,-0.0473864,-0.0475318,-0.0168683,0.00785094,0
0.233822,0.18529,-0.0473864,-0.0475318,-0.0168683,0.00785094,0
0.175019,0.0978338,-0.107,-0.0558951,-0.00508158,0.0590183,0
0.174464,0.103397,-0.166689,-0.0526596,-0.00473976,0.0279595,0
0.217306,0.161653,-0.190555,-0.0582722,0.0320393,-0.00287431,0
0.139096,0.069664,-0.195343,-0.0268711,0.0232701,0.0610672,0
0.0332075,-0.051384,-0.171267,-0.00931725,0.0216395,0.0772549,0
-0.0202801,-0.109825,-0.120215,0.00393809,0.039735,0.0456761,0
-0.0455226,-0.180603,-0.0802851,0.0186048,0.0357519,0.0232995,0
-0.0091932,-0.158523,-0.0117152,0.0107488,0.0511568,-0.0194046,0
0.0333283,-0.148483,-0.00428533,-0.00247233,0.048916,-0.0302373,0
0.0923557,-0.0328899,-0.0545143,-0.0293067,0.0234243,-0.0582866,0
0.0635028,-0.009387,-0.100776,-0.0214474,0.0198145,-0.0217953,0
-0.0205495,0.0158622,-0.119789,0.00612581,-0.00111316,0.00478858,0
-0.00287082,0.0654595,-0.0796875,0.00609334,0.0240273,-0.0206499,0
0.0300586,0.0311792,-0.0472739,0.0245801,0.0108755,-0.00685048,0
0.0349911,0.00341183,-0.0268085,0.022676,-0.00318831,0.0158828,0
0.0319913,0.0217025,-0.013921,0.00944175,-0.0039663,0.0226778,0
-0.0255437,-0.00106113,-0.062594,0.00325486,-0.0272829,0.0476164,0
-0.0790769,0.0442472,-0.0922981,-0.00345284,-0.034778,0.0447665,0
-0.107819,0.0560772,-0.0854603,0.0165453,-0.0252661,0.0326754,0
-0.0940938,0.0318362,-0.0559889,0.034554,-0.026896,0.0121165,0
-0.0185026,0.0308726,0.00807269,0.033206,-0.0136688,-0.0111567,0
0.0452031,-0.00258477,0.0475841,0.0370101,-0.0153693,-0.00978351,0
0.0718895,0.0510871,0.0545121,0.0242078,-0.0231621,-0.0128703,0
0.0272035,0.071713,0.0313512,0.0129603,-0.0253016,0.00877208,0
-0.0172993,0.0758152,0.00799667,0.0128499,-0.0347104,0.0152673,0
-0.023929,0.0830454,0.00519292,0.0124666,-0.0155461,-0.00265193,0
-0.0206082,0.0533097,0.0243289,0.0265169,-0.0131077,-0.0124986,0
0.00940005,0.0896635,0.0913455,0.0302039,0.00500435,-0.0368471,0
0.0439015,0.0797141,0.148139,0.0294333,0.0141783,-0.0414319,0
0.070302,0.0804763,0.134217,0.00817934,-0.00539052,-0.0426561,0
0.0690307,0.0887994,0.151279,-0.0083393,0.00373468,-0.0315458,0
0.0212425,0.0457248,0.179118,4.78178e-05,-0.00631467,-0.00424403,0
0.0289851,0.0561085,0.170065,-0.0251778,-0.015775,-0.0317091,0
0.11949,0.0794012,0.157153,-0.0436203,-0.00766085,-0.0661393,0
0.175072,0.0728739,0.0995061,-0.0473926,-0.0225551,-0.0535631,0
0.170646,0.0755078,0.0828985,-0.0442438,-0.0139474,-0.0248039,0
0.151102,0.0275996,0.0842773,-0.0278804,-0.00954032,-0.0106656,0
0.175017,-0.0156697,0.0693786,-0.024177,-0.0141902,-0.0229192,0
0.208915,-0.0236345,0.066843,-0.0254162,0.000751615,-0.0401724,0
0.232275,0.0193626,0.0199603,-0.0209607,-0.00508022,-0.0531436,0
0.285727,0.0746764,-0.00603206,-0.0285652,0.00789022,-0.0695815,0
0.28797,0.0804088,-0.0344,-0.00479619,0.00493522,-0.0481018,0
0.290681,0.182321,-0.0549642,-0.00943204,0.0109812,-0.0586208,0
0.318176,0.253846,-0.0364778,-0.00235107,0.0197207,-0.0517032,0
0.337972,0.255402,-0.0202768,0.00974362,0.0124201,-0.0177456,0
0.33487,0.233479,0.0143354,0.00565867,0.0127388,0.00902051,0
0.323257,0.204705,0.0644856,0.00934123,0.00947943,0.0238492,0
0.328506,0.193225,0.112135,0.00473107,0.0112835,0.0265971,0
0.314439,0.160343,0.142364,0.00552538,0.00791184,0.0433905,0
0.311795,0.176304,0.160911,-0.00497976,0.00444019,0.03385,0
0.293652,0.140364,0.191023,-0.00427158,0.0033647,0.0398947,0
0.291388,0.134834,0.224384,-0.00305878,-0.00235215,0.0237772,0
0.309895,0.180778,0.226742,-0.0164376,0.0017084,-0.00649965,0
0.320995,0.231756,0.20892,-0.020259,-0.00568426,-0.013083,0
0.320995,0.231756,0.20892,-0.020259,-0.00568426,-0.013083,0
0.319682,0.23485,0.215645,-0.011041,-0.00359541,-0.00474668,0
0.316922,0.305915,0.218458,-0.0175179,0.00164674,-0.0170289,0
0.32254,0.366855,0.212428,-0.0299516,0.00437248,-0.0235078,0
0.336986,0.362999,0.188704,-0.0348852,-0.00571887,-0.0155162,0
0.327017,0.319268,0.175275,-0.0391036,0.00109468,0.00085187,0
0.314921,0.287956,0.198023,-0.0287604,0.00595559,-0.00261968,0
0.348401,0.274433,0.218,-0.0347409,0.0223024,-0.0208736,0
0.410122,0.286373,0.233192,-0.0378298,0.0340274,-0.0400264,0
0.458682,0.382736,0.193589,-0.0706941,0.0414011,-0.0512909,0
0.450524,0.41294,0.144204,-0.0833295,0.0412222,-0.0186842,0
0.413809,0.385213,0.110494,-0.0800618,0.049077,0.0101686,0
0.389138,0.365973,0.103965,-0.0791649,0.0634367,0.00969893,0
0.412292,0.36288,0.142314,-0.0745245,0.0846713,-0.00617892,0
0.474992,0.39794,0.164282,-0.0936093,0.0969081,-0.0209305,0
0.522008,0.388951,0.150857,-0.110529,0.0862033,-0.00263858,0
0.516423,0.323786,0.0620839,-0.127501,0.0590668,0.0280415,0
0.476039,0.314161,-0.0720595,-0.132837,0.0413192,0.0355877,0
0.442592,0.372974,-0.198244,-0.124467,0.0440728,0.024312,0
0.416118,0.41528,-0.295904,-0.106966,0.0483519,0.0253612,0
0.351253,0.411104,-0.387555,-0.0773976,0.0469829,0.0409451,0
0.281741,0.331127,-0.472747,-0.0449565,0.0472394,0.0376589,0
0.245607,0.272024,-0.519604,-0.0136033,0.0554641,0.0208426,0
0.168175,0.245314,-0.528133,0.0199039,0.0612352,-0.00620306,0
0.156479,0.2639,-0.489467,0.0553145,0.0635872,-0.0535853,0
0.19538,0.36753,-0.382858,0.0707018,0.0783934,-0.0956436,0
0.276868,0.445886,-0.199169,0.101448,0.0771364,-0.09914,0
0.366536,0.484117,-0.0295187,0.0718654,0.0738236,-0.0683084,0
0.407771,0.481309,0.0368893,0.0146443,0.0438767,-0.0156184,0
0.377789,0.406672,0.0106659,-0.0379314,0.00426128,0.0496538,0
0.297082,0.290293,-0.0557723,-0.0661218,-0.0199273,0.0982568,0
0.218098,0.182379,-0.124245,-0.0676181,-0.0271649,0.104248,0
0.172359,0.161336,-0.207258,-0.0707778,-0.0282289,0.0690488,0
0.131812,0.175573,-0.264216,-0.0537651,-0.0269747,0.0457997,0
0.0839603,0.146755,-0.274745,-0.015541,-0.0232054,0.0374806,0
0.100724,0.106272,-0.242963,0.0161327,-0.0195044,0.0076378,0
0.164572,0.109712,-0.192912,0.0334724,-0.00331438,-0.0273921,0
0.215073,0.179194,-0.164034,0.0301284,0.00179896,-0.0417884,0
0.213411,0.207623,-0.148638,0.0347567,-0.0080398,-0.0221595,0
0.183145,0.2279,-0.11916,0.041027,-0.00994699,0.00362891,0
0.143738,0.230992,-0.0858793,0.0443167,-0.0122315,0.0207047,0
0.131089,0.185123,-0.0488131,0.0436272,-0.0151387,0.0283393,0
0.135245,0.112239,-0.030381,0.0463681,-0.0221494,0.0331577,0
0.136257,0.0813667,-0.0374066,0.045056,-0.0356908,0.0247894,0
0.11563,0.0758668,-0.0132587,0.0588778,-0.0365847,0.0230454,0
0.104469,0.101685,0.0399868,0.0707433,-0.0298589,0.0125033,0
0.131535,0.138467,0.0786175,0.0633642,-0.0347561,-0.00879014,0
0.186099,0.122069,0.0958764,0.0499767,-0.0424367,-0.015631,0
0.20388,0.085418,0.113898,0.0503729,-0.0533518,0.000122309,0
0.214823,0.0934932,0.104749,0.0339317,-0.0559552,-0.0068841,0
0.240121,0.120917,0.0806498,0.0167424,-0.0579797,-0.022864,0
0.250234,0.151609,0.0536819,0.0103012,-0.0547367,-0.0245607,0
0.247048,0.165746,0.0396325,0.00554964,-0.0437593,-0.0199499,0
0.256446,0.181329,0.0474772,0.00734067,-0.0325169,-0.0175802,0
0.273464,0.18793,0.0517251,0.00194553,-0.0215235,-0.0114362,0
0.273464,0.18793,0.0517251,0.00194553,-0.0215235,-0.0114362,0
0.274808,0.177863,0.0522888,-0.00747037,-0.00887883,0.00495797,0
0.224919,0.170826,0.0358842,-0.0107092,-0.00732267,0.0305415,0
0.165698,0.123515,0.0214687,-0.0165595,0.00463921,0.0420162,0
0.126586,0.0706341,0.000607193,-0.0124326,0.0105566,0.0330445,0
0.116886,0.0320059,0.00111564,-0.00800818,0.0262403,0.0106539,0
0.130078,0.0377794,0.00985431,0.00131544,0.0431805,-0.0141901,0
0.143249,0.0809992,0.0237023,-0.0025546,0.0512078,-0.0229204,0
0.136308,0.120015,0.0301336,-0.00330096,0.0512874,-0.00692254,0
0.103749,0.135618,0.00241819,-0.00977406,0.0416782,0.0202124,0
0.0882666,0.167069,-0.0306829,-0.0165161,0.0378214,0.0355577,0
0.0606227,0.159132,-0.0339239,-0.00371492,0.040537,0.0647964,0
0.0244653,0.111314,-0.0304986,0.00863338,0.0314624,0.0894377,0
-0.0039449,0.091534,-0.0511252,0.00512847,0.0231635,0.0965228,0
-0.0598672,0.0767575,-0.088754,0.00301951,0.0150632,0.103735,0
-0.158093,0.00979767,-0.0957559,0.0231058,0.00463991,0.123283,0
-0.247102,-0.103503,-0.075223,0.0469755,-0.00249606,0.116243,0
-0.266561,-0.13846,-0.047261,0.0546216,0.000624195,0.0605913,0
-0.244711,-0.118137,0.000518586,0.0578125,0.00614339,0.0103633,0
-0.179437,-0.0586852,0.0991782,0.0667635,0.0139157,-0.0326682,0
-0.121411,0.00626518,0.21233,0.0646624,0.0142867,-0.0435936,0
-0.0532741,-0.000122068,0.288323,0.0398186,-0.00783908,-0.0331508,0
0.025697,-0.0901011,0.283356,0.00153551,-0.0376891,-0.0194995,0
0.0653468,-0.183601,0.241038,-0.012451,-0.054857,0.00325739,0
0.0571116,-0.193805,0.168532,-0.0367938,-0.0635082,0.0040127,0
0.0531972,-0.183922,0.0520392,-0.0510637,-0.0701301,-0.00843287,0
0.0670482,-0.126154,-0.100047,-0.0613774,-0.086583,-0.0325102,0
0.0830407,-0.0900268,-0.289016,-0.0700341,-0.086929,-0.0431125,0
0.0627461,-0.0913965,-0.446238,-0.0424668,-0.0875478,-0.0376598,0
0.0416501,-0.0806164,-0.528314,-0.00551891,-0.072126,-0.0409509,0
0.0583577,-0.0537668,-0.54704,0.0278085,-0.0475324,-0.0600699,0
0.133129,-0.0153148,-0.503245,0.0511444,-0.0258115,-0.0809681,0
0.234249,0.0102201,-0.403344,0.0580994,-0.00609134,-0.0663002,0
0.293612,-0.00616643,-0.325859,0.0419517,-0.00963636,-0.0155056,0
0.313636,-0.0759687,-0.308109,0.00803807,-0.0276283,0.0415406,0
0.286644,-0.166297,-0.316833,-0.0237063,-0.0389875,0.0871509,0
0.232958,-0.260669,-0.367879,-0.0462619,-0.0478939,0.113038,0
0.208012,-0.319731,-0.431972,-0.0612516,-0.0529051,0.105658,0
0.193811,-0.385137,-0.510906,-0.0702967,-0.0496653,0.0960064,0
0.17351,-0.449432,-0.599937,-0.068164,-0.0534318,0.0902787,0
0.138006,-0.520688,-0.680584,-0.0546159,-0.0479885,0.0898204,0
0.131394,-0.545392,-0.779087,-0.0437348,-0.0409367,0.0617049,0
0.156665,-0.584822,-0.883892,-0.0247209,-0.0347591,0.0341948,0
0.1749,-0.61586,-0.954421,0.0156322,-0.0249582,0.019461,0
0.144252,-0.618349,-0.982228,0.0564407,-0.0125031,0.019677,0
0.130456,-0.60604,-1.01939,0.0775268,-0.0125405,0.00267035,0
0.171036,-0.592792,-1.0513,0.0988296,-0.00785281,-0.0276948,0
0.242846,-0.564679,-1.04254,0.121136,0.00321569,-0.0472509,0
0.290452,-0.522716,-0.972156,0.141465,0.021282,-0.0404822,0
0.361017,-0.548833,-0.877666,0.146909,0.0286881,-0.0260159,0
0.391308,-0.65912,-0.8283,0.116012,0.0397469,-0.00277406,0
0.305034,-0.857524,-0.880156,0.0608114,0.0345389,0.0209806,0
0.16117,-1.10312,-1.00483,0.0174687,0.0257871,0.00623292,0
0.0709411,-1.26204,-1.11374,0.0351676,0.00939137,-0.075895,0
0.0995129,-1.0753,-1.11791,0.0389725,0.0492894,-0.202517,0
0.0995129,-1.0753,-1.11791,0.0389725,0.0492894,-0.202517,0
0.254529,-0.64524,-0.97051,0.0278375,0.102828,-0.269892,0
0.43354,-0.174617,-0.895385,-0.0368901,0.0922983,-0.241715,0
0.506707,-0.0121722,-1.00485,-0.11795,0.0306869,-0.103738,0
0.46828,-0.121276,-1.15511,-0.135484,-0.0157405,0.0365291,0
0.352445,-0.280334,-1.2838,-0.12762,-0.0172123,0.0976691,0
0.291505,-0.4135,-1.32454,-0.10652,0.00856499,0.0818568,0
0.305575,-0.463852,-1.32793,-0.091558,0.0388907,0.0259656,0
0.375756,-0.423315,-1.34822,-0.0921273,0.0632752,-0.0279729,0
0.427424,-0.300449,-1.42685,-0.103132,0.078254,-0.0520003,0
0.411606,-0.175569,-1.48468,-0.103812,0.0953913,-0.0350497,0
0.377884,-0.170256,-1.49351,-0.0812235,0.106955,-0.00489628,0
0.377624,-0.239787,-1.43935,-0.0502222,0.123396,-0.00376219,0
0.421615,-0.283997,-1.3018,-0.0271688,0.150278,-0.0254427,0
0.472582,-0.222895,-1.2038,-0.0427959,0.1482,-0.0488709,0
0.472211,-0.162926,-1.14409,-0.0650459,0.136648,-0.0232211,0
0.394633,-0.151512,-1.16384,-0.0931489,0.111344,0.0260434,0
0.239728,-0.238346,-1.23596,-0.103539,0.0751863,0.069349,0
0.122492,-0.359341,-1.34104,-0.0911253,0.0357084,0.0453703,0
0.0652203,-0.394811,-1.3284,-0.0349904,0.0473632,-0.00646812,0
0.0673045,-0.268453,-1.20953,0.0133256,0.0660469,-0.0647076,0
0.106733,-0.174475,-1.0706,0.0393385,0.0546682,-0.0703583,0
0.131297,-0.194816,-0.968692,0.053684,0.0098006,-0.0285584,0
0.116423,-0.293561,-0.857308,0.0687078,-0.0239764,0.019581,0
0.0824391,-0.296322,-0.761872,0.0694921,-0.041123,0.0329665,0
0.0279726,-0.264753,-0.673809,0.0685038,-0.0417733,0.0510582,0
-0.0372183,-0.286317,-0.575524,0.0790028,-0.0458941,0.0804242,0
-0.138316,-0.34732,-0.473791,0.0971189,-0.0465917,0.101327,0
-0.201185,-0.494325,-0.360261,0.115306,-0.032363,0.0813357,0
-0.192583,-0.585363,-0.230252,0.130187,-0.0239761,0.0385262,0
-0.156152,-0.515274,-0.12759,0.116323,-0.0134234,-0.014911,0
-0.112338,-0.381304,-0.0243017,0.107456,-0.00305001,-0.0273018,0
-0.143955,-0.2476,0.018357,0.0875935,-0.0156326,0.00858414,0
-0.192334,-0.224165,-0.0367096,0.0521245,-0.042148,0.0407439,0
-0.198004,-0.271907,-0.124277,0.0419551,-0.0525085,0.0496958,0
-0.218456,-0.233448,-0.231258,0.0456643,-0.0437858,0.0385957,0
-0.263606,-0.102938,-0.322592,0.0648522,-0.0280372,0.0239051,0
-0.307023,0.0214676,-0.347405,0.109668,-0.00320421,0.0138541,0
-0.337217,0.118095,-0.276721,0.162862,0.017592,0.00568289,0
-0.304679,0.115091,-0.134298,0.189572,0.0369876,-0.000825942,0
-0.227576,0.0803674,0.0494954,0.197046,0.0434281,-0.00447631,0
-0.189364,0.106487,0.189585,0.170583,0.0356107,0.00298995,0
-0.220557,0.0958325,0.306623,0.134195,0.0157957,0.0315422,0
-0.223902,0.0512793,0.38094,0.0963833,-0.0111865,0.0352628,0
-0.191049,0.101373,0.372281,0.0469598,-0.033571,0.00263417,0
-0.178691,0.183697,0.342529,0.00534166,-0.0427835,-0.00653219,0
-0.166932,0.191019,0.320386,-0.00903696,-0.0502656,0.00316811,0
-0.187557,0.206155,0.288065,-0.0324699,-0.0634497,0.00722557,0
-0.174919,0.243077,0.22231,-0.0550996,-0.0714177,-0.00562662,0
-0.153766,0.274032,0.14816,-0.0676712,-0.0788373,-0.0175861,0
-0.138921,0.326395,0.0802743,-0.0733794,-0.0754637,-0.0205349,0
-0.130966,0.393939,0.0338016,-0.0804171,-0.0632911,-0.0168061,0
-0.138936,0.381507,0.0066192,-0.0726774,-0.0635508,0.00443155,0
-0.157542,0.306942,0.0289866,-0.0539031,-0.0591311,0.0252684,0
-0.157542,0.306942,0.0289866,-0.0539031,-0.0591311,0.0252684,0
-0.183343,0.22124,0.0542043,-0.0440984,-0.0524792,0.033234,0
-0.165994,0.180259,0.0687043,-0.0425552,-0.0488239,0.010103,0
-0.135966,0.189578,0.10324,-0.0379251,-0.0313632,-0.0136901,0
-0.135991,0.200688,0.167212,-0.0216055,-0.0228363,-0.00619155,0
-0.14637,0.17397,0.20684,-0.0195169,-0.032215,0.00418437,0
-0.165685,0.146471,0.224964,-0.0237277,-0.0392735,0.00780129,0
-0.174257,0.13096,0.24377,-0.0225088,-0.0427504,0.00382924,0
-0.157162,0.0953567,0.260961,-0.0224126,-0.0410167,-0.00092411,0
-0.139452,0.0567081,0.246083,-0.0278358,-0.0399745,0.000543416,0
-0.159581,0.0788262,0.207269,-0.0281269,-0.0392824,-0.00190818,0
-0.169928,0.108427,0.193,-0.0145938,-0.0348001,-0.0211363,0
-0.164864,0.0971926,0.223199,0.00851139,-0.0198165,-0.0292026,0
-0.154266,0.0538645,0.272286,0.0221455,-0.0151419,-0.0360536,0
-0.0708321,0.0601877,0.298267,0.00227532,-0.00878558,-0.0731462,0
-0.00450143,0.109775,0.300621,-0.0206843,-0.00131211,-0.0789284,0
0.00702687,0.166903,0.296785,-0.0399871,-0.00103765,-0.0573788,0
-0.00568421,0.152014,0.287096,-0.0543667,-0.00982891,-0.0231038,0
-0.0237542,0.124498,0.234599,-0.0758418,-0.0260467,-0.0102516,0
-0.0127674,0.152442,0.170009,-0.0979179,-0.0304236,-0.0286126,0
0.02225,0.185658,0.104908,-0.10299,-0.0272454,-0.041838,0
0.0506165,0.201003,0.0703683,-0.0964651,-0.0221498,-0.0353748,0
0.0434041,0.208492,0.0435053,-0.0968725,-0.0177094,-0.0190583,0
0.0280129,0.168949,0.0110148,-0.0978543,-0.0167557,-0.00764161,0
0.00836751,0.0662272,-0.0261773,-0.0821537,-0.0158709,0.00165218,0
-0.0189091,0.0471354,-0.0595817,-0.0715684,-0.0103325,-0.0153652,0
-0.0346461,0.0870017,-0.0644789,-0.053307,0.00224277,-0.038667,0
-0.030663,0.085836,-0.0348152,-0.0273475,0.0124332,-0.0509241,0
-0.0164632,0.0597511,0.0188227,-0.00699049,0.0178326,-0.0510856,0
-8.65594e-06,0.0460804,0.0676014,0.00653809,0.0075715,-0.0462217,0
0.0555136,0.0989133,0.106287,0.00329289,0.00624184,-0.044524,0
0.0876603,0.17155,0.122241,-0.00824997,0.00859364,-0.0148885,0
0.0649396,0.188381,0.120702,-0.0183712,-0.00555302,0.0412595,0
0.00978868,0.100251,0.0972478,-0.0218194,-0.0229765,0.0868883,0
-0.0373191,-0.0470273,0.0690401,-0.0171897,-0.024145,0.10289,0
-0.0663926,-0.138675,0.040664,-0.00288686,-0.0187665,0.0816007,0
-0.0888613,-0.139327,0.0203796,0.00766057,0.0024739,0.040793,0
-0.0875955,-0.119758,0.0325959,0.0235969,0.0177085,0.00329971,0
-0.0661422,-0.0869929,0.0438029,0.0357497,0.0196919,-0.0358489,0
-0.0219516,-0.0865657,0.0946617,0.0431325,0.0324361,-0.0569133,0
0.0367616,-0.0616395,0.109388,0.0295651,0.022801,-0.0847195,0
0.0825463,-0.0199053,0.0895459,0.00340205,0.0133491,-0.0863993,0
0.0898234,0.0415759,0.0552959,-0.0165117,0.00769125,-0.0644432,0
0.0866333,0.167839,-0.00866248,-0.042627,0.00132553,-0.0605606,0
0.118675,0.220931,-0.060681,-0.0616541,0.00307314,-0.0428647,0
0.1471,0.178748,-0.114474,-0.061433,-0.00347715,-0.00413477,0
0.138239,0.123169,-0.144806,-0.0572408,0.00215966,0.0337308,0
0.102785,0.112703,-0.175699,-0.053598,0.00449729,0.0461808,0
0.0749169,0.0860327,-0.190668,-0.0429571,0.00877224,0.0578741,0
0.0485679,0.0293394,-0.200872,-0.0297283,0.0119624,0.0710225,0
0.0137657,-0.0111136,-0.209027,-0.017526,0.0100411,0.071677,0
-0.0187587,-0.0577793,-0.200786,0.00205594,0.0135808,0.0598704,0
-0.0343072,-0.0619772,-0.180882,0.0216902,0.0193723,0.0359566,0
-0.0351806,-0.0172025,-0.188579,0.0223929,0.0204862,0.00287652,0
-0.0267859,-0.00187985,-0.191516,0.0283155,0.0185677,-0.0135347,0
-0.0267859,-0.00187985,-0.191516,0.0283155,0.0185677,-0.0135347,0
-0.0452441,0.00293746,-0.180511,0.0497741,0.0153055,-0.0110906,0
-0.0665427,0.0173052,-0.139081,0.056553,0.0201428,-0.0189193,0
-0.0339456,0.0378122,-0.0784374,0.0648406,0.0273024,-0.0373154,0
0.012842,0.0716796,-0.00907434,0.055682,0.0337557,-0.0365228,0
0.00262192,0.0769739,0.0491905,0.0438184,0.0233986,-0.00357115,0
-0.0185008,0.0251809,0.0775992,0.0225472,0.00927217,0.0294713,0
-0.0420614,0.00289077,0.0529878,0.000325084,-0.00406819,0.0386609,0
-0.0804541,0.037222,0.0316303,-0.0151241,-0.00722268,0.0310799,0
-0.10378,0.0122868,0.0380765,-0.00676844,-0.00517462,0.0351098,0
-0.113618,-0.01571,0.0648686,0.00353619,-0.00844441,0.0261135,0
-0.105848,-0.0329056,0.0822116,-0.00237498,-0.00875993,0.00262386,0
-0.0794556,-0.0679104,0.08545,-0.00527269,-0.0176822,-0.0101239,0
-0.0582738,-0.0713927,0.07038,-0.0122152,-0.0284583,-0.0238473,0
-0.0449397,-0.0494027,0.0635492,-0.012053,-0.0242155,-0.0320075,0
-0.0186636,0.00429815,0.0539947,-0.0160717,-0.0238585,-0.046841,0
-0.000267029,0.0279854,0.0469798,-0.0136286,-0.0265094,-0.0434884,0
0.0211972,0.0348116,0.0282929,-0.0204564,-0.026869,-0.0407072,0
0.0321181,0.0253563,0.0116421,-0.0208913,-0.0260562,-0.0317422,0
0.0466745,0.0061941,0.0124737,-0.017539,-0.0201119,-0.0234009,0
0.0774273,-0.0440851,0.0348527,-0.0173408,-0.00872137,-0.0180629,0
0.113108,-0.0701045,0.0484357,-0.024481,-0.00260447,-0.0236223,0
0.139143,-0.0766808,0.0422719,-0.0372007,0.00352067,-0.0196891,0
0.142713,-0.0632478,0.00855384,-0.0502656,0.00294384,-0.00791395,0
0.112772,-0.0345646,-0.059834,-0.0637987,-0.00144617,0.00643063,0
0.0931447,-0.0108391,-0.14959,-0.0735755,-0.00252976,0.00362569,0
0.0759361,-0.0128938,-0.189972,-0.0565279,0.00817655,0.00502288,0
0.0558904,-0.00589442,-0.195005,-0.0357558,0.0252727,0.00180072,0
0.0711881,0.0113345,-0.209915,-0.0284503,0.0286714,-0.00864381,0
0.0876668,-0.00274854,-0.219168,-0.0203119,0.0325935,0.00275123,0
0.0333066,-0.035607,-0.208985,-0.00150308,0.0307786,0.0337183,0
-0.0341741,-0.0751351,-0.182421,0.0141256,0.0315881,0.0469687,0
-0.0700437,-0.108997,-0.161372,0.0253526,0.0253201,0.0368529,0
-0.0917424,-0.142678,-0.123765,0.0394957,0.0234959,0.0248066,0
-0.10516,-0.134451,-0.0827307,0.0524649,0.0185926,0.0109423,0
-0.127332,-0.153488,-0.0386323,0.0615016,0.00698548,0.00973606,0
-0.145985,-0.196313,0.00227213,0.0745935,-0.00918221,0.00887954,0
-0.156493,-0.188672,0.0595264,0.0843444,-0.0173541,-0.0104536,0
-0.132716,-0.207816,0.13149,0.0866293,-0.0178303,-0.0289449,0
-0.0688638,-0.209989,0.171126,0.0773446,-0.0312418,-0.0512239,0
-0.0159321,-0.202825,0.188031,0.057005,-0.0362715,-0.0547782,0
0.0238564,-0.166053,0.176635,0.0383404,-0.0436124,-0.0502062,0
0.0393786,-0.116389,0.161236,0.0192823,-0.0348551,-0.034773,0
0.0517398,-0.0777201,0.1235,-0.00155869,-0.0356199,-0.0199964,0
0.0599968,-0.0665956,0.0679826,-0.019776,-0.031976,-0.00109738,0
0.0503047,-0.0469059,0.0139893,-0.0287202,-0.0235345,0.0137563,0
0.0380664,-0.0473173,-0.0191181,-0.0285249,-0.00838839,0.0229395,0
0.0362627,-0.0544873,-0.0618657,-0.0262245,-0.003872,0.020371,0
0.0205866,-0.0519541,-0.0737856,-0.0167288,0.00876974,0.0192333,0
-0.00616673,-0.0603498,-0.0598183,-0.00314417,0.0172492,0.022906,0
-0.0106884,-0.0673164,-0.0297548,0.00650889,0.0247846,0.0161414,0
0.0107782,-0.0426493,-0.0240867,-0.00251612,0.0229481,-0.0039919,0
0.0195365,-0.0249291,-0.0414108,-0.00896755,0.0195118,-0.00231558,0
-0.0214226,-0.0308583,-0.0315176,-0.000951022,0.0142943,0.0201906,0
-0.0525707,-0.0307221,-0.0182354,0.00724202,0.0108081,0.0232242,0
-0.0525707,-0.0307221,-0.0182354,0.00724202,0.0108081,0.0232242,0
-0.0420907,-0.0263691,-0.00353987,0.00337532,0.00748783,0.0107741,0
-0.0208229,-0.0183211,-0.0034036,0.000425458,-0.000233322,0.00560015,0
-0.0111298,-0.000164746,-0.0182471,-0.0055705,-0.00671683,0.00722396,0
-0.0383039,-9.53046e-05,-0.0216618,-0.00197464,-0.0145363,0.0213283,0
-0.0708732,-0.00253385,-0.0294765,0.00220749,-0.0229508,0.0181238,0
-0.0616616,-0.0265513,-0.0319156,0.00618795,-0.0222197,0.00316042,0
-0.0306226,-0.0282154,-0.0163554,0.0179468,-0.0203211,-0.015965,0
-0.0106007,0.0146109,-0.00173372,0.0149703,-0.0163064,-0.0294393,0
-0.00212382,0.0475301,0.0085279,0.0134883,-0.0201563,-0.0283154,0
0.0124069,0.0512194,0.0162374,0.00850329,-0.0246486,-0.0186529,0
0.0279138,0.0412511,0.0100884,-0.000867903,-0.0269104,-0.00861257,0
0.0228144,0.0488107,0.00322137,-0.00747216,-0.0265275,0.00203079,0
0.00438489,0.0282293,0.000753868,-0.00908425,-0.0267885,0.00957835,0
-8.18132e-05,-0.000747631,0.00727569,-0.00113991,-0.0255361,0.00614715,0
0.0222796,0.00501057,0.00149406,-0.006975,-0.0210981,-0.0180169,0
0.0341708,0.0199805,0.0319609,0.00208384,-0.012923,-0.0212738,0
0.035621,0.0203798,0.0638124,0.0049105,-0.00849324,-0.013212,0
0.0448278,0.00252222,0.0842864,-0.00329816,-0.00910906,-0.00820893,0
0.0592628,-0.0202994,0.0842691,-0.0126342,-0.0072902,-0.00447935,0
0.0498528,-0.00948649,0.0697127,-0.0220606,-0.0127629,-0.00138533,0
0.0155881,-0.00659348,0.0552954,-0.0242285,-0.011148,0.0108112,0
0.00354818,-0.0240032,0.0480409,-0.0169459,-0.010628,0.00479448,0
0.028021,-0.0170343,0.0401531,-0.0166607,-0.00424762,-0.0138083,0
0.0348975,0.0134991,0.0330485,-0.0141354,-0.00169666,-0.0173157,0
0.0121829,0.024524,0.0346159,-0.00573531,0.000949204,-0.00320804,0
0.00436172,-0.00538649,0.0342772,0.000326246,-0.00213373,0.000947416,0
0.0236444,-0.0209618,0.0386191,0.00350687,-0.000490543,-0.00691956,0
0.0361311,0.0105787,0.0572085,0.00437778,0.00892288,-0.0152373,0
0.0460756,0.0272546,0.0859154,0.00735089,0.0138973,-0.00905955,0
0.0533029,0.0136899,0.0921375,-0.00268978,0.00696199,0.000282943,0
0.0514747,-0.0036974,0.0779685,-0.0173251,0.00267161,0.0108474,0
0.0466136,-0.0186433,0.049503,-0.0249768,0.00366561,0.015726,0
0.0281393,-0.0173359,0.0193065,-0.0278955,0.00530556,0.0127496,0
0.0316152,-0.00668727,-0.00381114,-0.0238813,0.00747967,-0.000702679,0
0.054909,0.0120158,-0.0197966,-0.0201981,0.0136704,-0.0143726,0
0.0737419,0.034983,-0.0228806,-0.0124891,0.0161171,-0.0183473,0
0.062575,0.0128523,-0.0352029,-0.0128165,0.0161092,-0.00332904,0
0.0606658,0.00997873,-0.0394588,-0.00905529,0.0138108,-0.00433445,0
0.0549944,0.0388256,-0.0415509,-0.0101292,0.0194298,-0.00878119,0
0.0590407,0.0632333,-0.0415836,-0.0107383,0.0205998,-0.0075981,0
0.0697445,0.047639,-0.0487604,-0.0133628,0.0137201,5.1856e-06,0
0.0702631,0.0359804,-0.0614268,-0.0111944,0.00196712,0.00910097,0
0.066729,0.0317458,-0.0688687,-0.0095011,-0.00554766,0.00414062,0
0.0836376,0.0350091,-0.0695914,-0.00254011,-0.0143765,-0.00175893,0
0.108326,0.0585926,-0.104388,-0.0140788,-0.0230156,-0.0059337,0
0.131452,0.0903732,-0.17185,-0.0255076,-0.0346944,-0.0110305,0
0.129004,0.0957538,-0.24852,-0.024659,-0.0397789,-0.0049389,0
0.108348,0.0971852,-0.308385,-0.0124702,-0.0316953,-0.00627273,0
0.0978192,0.127654,-0.299673,0.0125569,-0.00379936,-0.0153971,0
0.100819,0.168945,-0.243408,0.0319563,0.0247665,-0.0205551,0
0.11663,0.18945,-0.154502,0.0479781,0.0372096,-0.0082624,0
0.0699253,0.164519,-0.0611146,0.0536815,0.0376986,0.0338242,0
-0.0166594,0.10707,0.0303971,0.0515257,0.0291088,0.0729773,0
-0.100636,0.0196545,0.1181,0.0464407,0.0201714,0.0819888,0
-0.100636,0.0196545,0.1181,0.0464407,0.0201714,0.0819888,0
-0.135157,-0.0424975,0.185218,0.0374978,0.00751244,0.0558968,0
-0.119308,-0.0696721,0.2445,0.0302619,-0.000942938,0.016573,0
-0.101442,-0.108196,0.284076,0.027528,-0.0130902,0.000547707,0
-0.106762,-0.153786,0.307709,0.0277416,-0.0288067,0.00242257,0
-0.104364,-0.140414,0.291221,0.0110173,-0.0379634,-0.0200983,0
-0.061351,-0.0603138,0.243249,-0.00584829,-0.0433603,-0.0580971,0
-0.010634,0.00538471,0.18773,-0.0100768,-0.0435334,-0.0673849,0
0.00439075,0.0198648,0.152167,-0.00128412,-0.0391301,-0.0433778,0
0.038125,-0.0348059,0.156058,0.0106462,-0.0194094,-0.019275,0
0.0510703,-0.0529986,0.15479,0.0145923,-0.00728323,-0.00529563,0
0.0319286,0.0152569,0.144032,0.0029363,0.00220314,-0.00782245,0
0.021728,0.0723813,0.131354,0.000670612,0.0109817,-0.00464416,0
0.00779326,0.0769383,0.128197,0.00184837,0.0144529,0.00837463,0
0.00923818,0.0554174,0.148726,0.0071747,0.0210269,0.0161622,0
0.00425259,0.0308554,0.17303,0.00385794,0.0290236,0.0196816,0
-0.0220488,0.0286952,0.187518,-0.0024305,0.0248035,0.0245663,0
-0.0413801,0.0313011,0.174358,-0.0126666,0.0177936,0.0228119,0
-0.042949,0.019758,0.160296,-0.0160162,0.0131787,0.0202929,0
-0.0502562,0.0298589,0.157302,-0.0153613,0.0148039,0.0140787,0
-0.0748318,0.0204609,0.160453,-0.0107724,0.0133739,0.017443,0
-0.0776927,-0.0106973,0.159651,-0.00928921,0.00462413,0.0110692,0
-0.0590337,-0.01666,0.155353,-0.0089387,0.00192372,-0.00320023,0
-0.0424496,0.0466346,0.133571,-0.0224853,-0.000595745,-0.0225202,0
-0.0522963,0.066822,0.0997489,-0.019989,-0.00803329,-0.0091027,0
-0.0752901,0.0405352,0.0678676,-0.00923595,-0.0246489,0.00432348,0
-0.0529108,0.06757,0.0628138,-0.00395617,-0.014132,-0.0224417,0
-0.0183825,0.0697346,0.0828322,0.013529,-0.0134623,-0.0260746,0
0.0199345,0.053458,0.111258,0.0205091,-0.0158232,-0.0211623,0
0.0237209,0.0444088,0.115057,0.0214182,-0.0203932,0.000131309,0
0.0299128,0.0865843,0.102507,0.0125785,-0.025177,-0.00226766,0
0.036524,0.112152,0.0847291,0.0161708,-0.0217337,0.00618523,0
0.00905102,0.117317,0.0857202,0.0244059,-0.0252828,0.0243469,0
-0.015643,0.105796,0.107555,0.0393302,-0.0249618,0.0321513,0
-0.0124393,0.114063,0.133725,0.0468507,-0.0191965,0.0155861,0
0.0182759,0.106612,0.16459,0.0475566,-0.0149768,0.00815815,0
0.0375743,0.118855,0.19306,0.050975,-0.0145806,0.00416726,0
0.0100031,0.138736,0.212343,0.0493687,-0.0162277,0.0155362,0
-0.013074,0.126695,0.224062,0.0448009,-0.0187114,0.0176976,0
-0.00918705,0.121104,0.251639,0.0459121,-0.0134635,0.00042665,0
-0.000311467,0.140342,0.277326,0.0443418,-0.0034354,-0.0150318,0
0.010204,0.180475,0.306854,0.0394265,-0.00113691,-0.0250171,0
-0.00312346,0.191617,0.356225,0.0382982,0.00840937,-0.00859773,0
-0.00762895,0.175109,0.398391,0.027234,0.0102115,-0.00433975,0
0.028618,0.168721,0.414285,5.54025e-05,0.0136429,-0.0113392,0
0.0222577,0.14918,0.394515,-0.0196429,0.0072913,0.00411594,0
-0.00860143,0.133558,0.398307,-0.0229209,0.006947,0.014738,0
-0.0257714,0.151311,0.389335,-0.0324242,0.0188097,0.0104424,0
-0.00820201,0.178345,0.365831,-0.042331,0.0182581,0.00146341,0
0.0239332,0.212385,0.338815,-0.0475831,0.0189318,-0.00254464,0
-0.0155519,0.206333,0.322662,-0.038321,0.0151418,0.0368028,0
-0.0686391,0.175424,0.299005,-0.0360233,0.0130541,0.063034,0
-0.119399,0.147452,0.269958,-0.0258545,0.010805,0.069622,0
-0.173468,0.109235,0.277897,-0.0075027,0.0139919,0.0723476,0
-0.205519,0.0734731,0.322049,0.0162742,0.0254642,0.0606596,0
-0.205519,0.0734731,0.322049,0.0162742,0.0254642,0.0606596,0
-0.23963,0.0331099,0.33683,0.0237007,0.0242094,0.0402117,0
-0.315482,-0.0309848,0.34344,0.03003,0.0168177,0.0362479,0
-0.369599,-0.108727,0.365279,0.043346,0.0213245,0.00702965,0
-0.349315,-0.153013,0.427188,0.064515,0.0354398,-0.0588596,0
-0.246492,-0.0935098,0.522721,0.0689971,0.0558111,-0.133143,0
-0.165943,0.0105687,0.618663,0.064913,0.0558944,-0.142253,0
-0.100221,0.0802179,0.682644,0.0281433,0.0467407,-0.111489,0
-0.0256457,0.100681,0.669821,-0.0278715,0.0226405,-0.0740606,0
0.0114359,0.0487607,0.59474,-0.0736962,-0.00344837,-0.0187824,0
-0.00483944,-0.0212623,0.492236,-0.0968437,-0.0236971,0.0285052,0
-0.00960443,-0.0283243,0.372889,-0.11393,-0.0284172,0.0247472,0
0.0270405,0.0209255,0.208602,-0.138371,-0.0296342,-8.58307e-05,0
0.018031,0.0151572,0.0325437,-0.13513,-0.0369015,0.0161069,0
-0.0333678,-0.0409124,-0.0971434,-0.101262,-0.0331347,0.0312909,0
-0.048701,-0.0471709,-0.175137,-0.0611387,-0.0138056,-0.000515819,0
0.00524694,0.0296271,-0.216601,-0.0402095,0.0182757,-0.0649788,0
0.0670188,0.0800577,-0.218814,-0.0112859,0.0334057,-0.0869378,0
0.0776611,0.0944146,-0.180409,0.0171643,0.0407204,-0.0637143,0
0.0514216,0.093485,-0.116105,0.0288096,0.0465788,-0.0403891,0
0.0702875,0.0808727,-0.0510425,0.0227273,0.0453666,-0.0364913,0
0.107738,0.0805669,-0.0147151,-0.0025554,0.0417605,-0.0345647,0
0.113779,0.0769717,-0.00367951,-0.0226872,0.03043,-0.00449216,0
0.0722198,0.0543711,-0.0148714,-0.0387669,0.0105764,0.0317119,0
0.0311591,0.0256067,-0.0515523,-0.0494933,-0.00336432,0.0476015,0
0.0068522,-0.005516,-0.086566,-0.0514392,-0.0150147,0.0470253,0
-0.00111139,-0.0448246,-0.117645,-0.0442265,-0.0196108,0.0425447,0
-0.0200831,-0.0841799,-0.147566,-0.029859,-0.0289393,0.0381429,0
-0.00653019,-0.0959512,-0.182375,-0.0203471,-0.0299068,0.0136029,0
0.0127296,-0.0554059,-0.194476,0.000789821,-0.0264164,-0.00756907,0
0.0229835,0.0017,-0.180368,0.0188311,-0.0174297,-0.0181285,0
0.0431476,0.00608962,-0.164933,0.0313513,-0.0207424,-0.0156576,0
0.086129,0.00240572,-0.153187,0.0293705,-0.0220529,-0.0244056,0
0.106205,0.00715427,-0.146602,0.0319065,-0.0175577,-0.0172071,0
0.0938147,0.0300302,-0.134827,0.0299906,-0.0172748,-0.00570679,0
0.0664072,0.0141397,-0.125573,0.0318841,-0.0192675,0.0093891,0
0.0621008,0.00884064,-0.125465,0.0261231,-0.0199766,0.000199378,0
0.0613107,0.0178165,-0.116789,0.0256469,-0.0190669,-0.0076791,0
0.0674213,0.0298009,-0.088143,0.0305116,-0.0188031,-0.0150296,0
0.0801045,0.0263238,-0.0636103,0.0317625,-0.0213329,-0.0122962,0
0.0873254,0.0400593,-0.0437378,0.0231809,-0.0218239,-0.00777698,0
0.0732201,0.0615006,-0.0400542,0.0133306,-0.0246922,0.00659943,0
0.0468066,0.0633216,-0.0413001,0.0057981,-0.0290096,0.0247035,0
0.0194697,0.0270664,-0.0363186,0.0110142,-0.0294486,0.0365967,0
0.0205969,0.000561418,-0.0136616,0.0154771,-0.024595,0.0312387,0
0.035073,-0.0259404,0.0121105,0.0173929,-0.016534,0.0233344,0
0.0250165,-0.0459333,0.0249514,0.0181876,-0.0169367,0.0237105,0
-0.00456301,-0.044003,0.01434,0.0149913,-0.0190629,0.0194694,0
-0.0122632,-0.0291361,0.0088994,0.0167536,-0.0144348,0.000409365,0
-0.00351633,-0.0157163,0.0204498,0.0250982,-0.00473861,-0.0179267,0
0.0325904,-0.00664986,0.0455316,0.0290641,0.00646736,-0.0304949,0
0.0524764,0.00267083,0.0693376,0.0272031,0.0131051,-0.0273394,0
0.0503393,-0.0114116,0.0703054,0.015888,0.00896709,-0.0207817,0
0.0623796,-0.04524,0.0623982,0.00442871,0.00433856,-0.0211138,0
0.0623796,-0.04524,0.0623982,0.00442871,0.00433856,-0.0211138,0
0.0679674,-0.0564014,0.0388236,-0.0117079,0.00711977,-0.0282527,0
0.0851623,-0.0581048,0.0149945,-0.0235945,0.00639303,-0.0420854,0
0.115466,-0.0554897,-0.015201,-0.0327484,0.0100668,-0.0470979,0
0.118564,-0.0136943,-0.0801744,-0.0522448,0.0169673,-0.0371068,0
0.114551,0.00110389,-0.123422,-0.0587953,0.0191766,-0.0199857,0
0.100966,0.0109146,-0.168758,-0.0549084,0.0192491,0.000964642,0
0.0874972,0.0392096,-0.195292,-0.0412607,0.0240887,0.0173532,0
0.0628663,0.072467,-0.206025,-0.0232516,0.0299799,0.0442296,0
0.01314,0.0651146,-0.197499,-0.000686049,0.0288895,0.0797884,0
-0.0557589,0.0460796,-0.180869,0.0242306,0.0270956,0.10613,0
-0.14,0.0839421,-0.193601,0.0189131,0.0221092,0.107042,0
-0.238755,0.0621227,-0.158355,0.0397,0.0200725,0.114143,0
-0.303213,-0.0194553,-0.069036,0.0732033,0.0192164,0.0934082,0
-0.295825,-0.19739,0.0953699,0.109958,0.0273218,0.0557275,0
-0.220662,-0.310209,0.276389,0.130146,0.0366503,-0.00806332,0
-0.136115,-0.276755,0.385989,0.0938989,0.0428628,-0.0716912,0
-0.104063,-0.238524,0.431638,0.0631927,0.0220134,-0.0877759,0
-0.115806,-0.227617,0.457092,0.0390031,0.00575486,-0.0816729,0
-0.141402,-0.256677,0.477695,0.019706,0.00864393,-0.0851242,0
-0.11433,-0.334758,0.539738,0.00815985,0.0132291,-0.0979614,0
0.0367645,-0.382487,0.575464,-0.0234976,0.0183214,-0.132917,0
0.207059,-0.320311,0.524236,-0.0881675,0.0165453,-0.139141,0
0.232286,-0.188415,0.319651,-0.161338,-0.00613287,-0.0686547,0
0.119704,-0.0326178,0.0227906,-0.2068,-0.0403441,0.0141441,0
-0.0314821,0.0375796,-0.275068,-0.210582,-0.0540056,0.0717813,0
-0.130842,-0.0360525,-0.446968,-0.149634,-0.0349692,0.0893373,0
-0.138506,-0.146731,-0.458591,-0.0678607,0.00537398,0.058101,0
-0.0825001,-0.197576,-0.393893,-0.0129125,0.0394425,0.00486988,0
-0.0370859,-0.219911,-0.292617,0.0291691,0.0473207,-0.00763655,0
-0.0178127,-0.234019,-0.181831,0.0605677,0.0398887,-0.00647259,0
-0.0315072,-0.250462,-0.0687058,0.0745385,0.0293731,0.00962895,0
-0.0390552,-0.288486,-0.00255432,0.0645649,0.00606788,0.0139865,0
-0.0128759,-0.308005,0.00627376,0.0399968,-0.0166097,0.000237942,0
0.0119116,-0.296335,-0.0113582,0.0150863,-0.0250211,-0.00186831,0
0.0140131,-0.270741,-0.0508045,0.00120467,-0.0347028,-0.000916243,0
0.0229138,-0.249474,-0.097534,-0.00577408,-0.0384638,-0.00345802,0
0.0395598,-0.221011,-0.171641,-0.0202397,-0.0416935,-0.0121583,0
0.058613,-0.177945,-0.251914,-0.0253347,-0.0362883,-0.0186929,0
0.05235,-0.133131,-0.299895,-0.0136731,-0.0192716,-0.0100612,0
0.0472364,-0.0788931,-0.302153,0.00496143,-0.00116558,-0.00412077,0
0.0511231,-0.0695125,-0.277586,0.0188811,0.0096871,0.00370526,0
0.055187,-0.102474,-0.247578,0.030693,0.0117173,0.00973541,0
0.0481959,-0.133867,-0.198765,0.0401164,0.014365,0.020553,0
0.0248485,-0.135977,-0.145601,0.0421167,0.0164814,0.0254548,0
0.0309784,-0.106784,-0.117082,0.030045,0.0142736,0.013603,0
0.0143133,-0.0923394,-0.101379,0.0238635,0.00775226,0.0272316,0
-0.0339664,-0.100428,-0.106417,0.0235736,-0.006906,0.047031,0
-0.073831,-0.131359,-0.0948385,0.0337326,-0.00992806,0.0466023,0
-0.0762694,-0.142934,-0.0427863,0.0512673,-0.00745502,0.0277647,0
-0.0552922,-0.0916806,-0.0111372,0.0471171,-0.00744873,0.000201702,0
-0.0142031,-0.049937,-0.00876977,0.0368553,-0.0138754,-0.0166417,0
0.00267865,-0.0372092,0.00154954,0.0383491,-0.0167078,-0.00194746,0
0.00267865,-0.0372092,0.00154954,0.0383491,-0.0167078,-0.00194746,0
-0.0236125,-0.0192123,0.00579012,0.0313819,-0.0140748,0.0152753,0
-0.0395381,-0.0129372,-0.00102684,0.0252185,-0.0174367,0.0139589,0
-0.0393308,-0.00595105,-0.010119,0.0207063,-0.0127195,0.00411677,0
-0.0307159,0.0156913,-0.0135655,0.0186418,-0.00608065,-0.00763094,0
-0.0126322,0.0353978,0.00340912,0.0219847,0.00526147,-0.0133583,0
-0.00110399,0.0187696,0.0385299,0.0223739,0.0129947,-0.005656,0
0.0114308,0.0125515,0.0570454,0.0121355,0.0160578,-0.00380009,0
0.0160998,0.0427842,0.0552625,-0.00709012,0.0189655,0.000338256,0
-0.0012634,0.0681851,0.0264879,-0.026348,0.0129323,0.0105737,0
-0.0262678,0.0431203,0.00380067,-0.0278272,0.00915131,0.0254726,0
-0.0464322,0.00335148,0.000503679,-0.0237554,0.0124012,0.0303545,0
-0.054651,-0.00302965,0.00049535,-0.0222856,0.014243,0.0150249,0
-0.0532211,-0.000242188,-0.00432836,-0.0235822,0.0127829,0.00305194,0
-0.0665359,-0.0136904,0.0163768,-0.0110315,0.0137832,0.00638503,0
-0.0753616,-0.0276064,0.0208651,-0.0104912,0.0136605,0.00206655,0
-0.0506004,-0.0141708,0.0202119,-0.0115223,0.00570925,-0.021197,0
-0.0259906,0.00270616,0.019893,-0.0157734,0.0053224,-0.0302259,0
-0.0239984,0.0158864,0.0110341,-0.0168359,-0.00196411,-0.0176259,0
-0.0313529,0.012382,-0.00942456,-0.0223352,-0.00348051,-0.00151938,0
-0.0280826,0.0267254,-0.0410431,-0.0264715,-0.00695204,0.00405252,0
-0.0138375,0.0483035,-0.0780685,-0.0335182,-0.00390518,0.00132686,0
-0.0066708,0.0643056,-0.107145,-0.0299814,-0.0041272,0.00561774,0
-0.0436708,0.038745,-0.127713,-0.0217066,-0.00530774,0.0272784,0
-0.076828,0.00206993,-0.130096,-0.00190677,-0.00759126,0.0278648,0
-0.0610624,-0.00795329,-0.128239,0.00151804,0.00114168,-0.00267315,0
-0.0162788,0.0326209,-0.123019,0.00727151,0.00210981,-0.0378355,0
-0.010433,0.0630821,-0.0768058,0.0257923,0.0113064,-0.0341014,0
-0.0300659,0.0500996,-0.0351761,0.0291062,0.00237905,-0.0155943,0
-0.0198825,0.0475844,-0.0157936,0.019278,-0.00499447,-0.0181537,0
-0.00186421,0.0644289,-0.00905247,0.00135171,-0.00662225,-0.0214598,0
-0.00634243,0.0499214,-0.000235337,0.00056538,-0.0145025,-0.00635082,0
-0.0389485,0.0140165,0.028587,0.00792675,-0.0170608,0.0144374,0
-0.047728,-0.0174165,0.0496404,0.0050633,-0.0224132,0.00552976,0
-0.0265632,-0.00984865,0.055082,-0.00449969,-0.0243441,-0.0160052,0
-0.00893757,0.015191,0.0441653,-0.0133078,-0.0261537,-0.0188905,0
-0.00684251,0.00958617,0.0366408,-0.0123313,-0.0309123,-0.00710565,0
-0.0045351,0.00954114,0.0312223,-0.00797077,-0.025458,-0.00148118,0
-0.0217169,0.0250616,0.0332366,-0.00214967,-0.020307,2.7895e-05,0
-0.0142106,0.0246664,0.0471639,8.71271e-05,-0.0123325,-0.00382787,0
0.00438979,0.00400131,0.0620615,0.00379837,-0.00811488,-0.00332648,0
0.00414217,-0.00922744,0.0641155,0.00526728,-0.00635678,0.000879109,0
-0.0151006,-0.00317511,0.0692864,0.00571908,-0.000984117,0.00328416,0
-0.0245577,-0.00831015,0.0784988,0.00717501,0.00141399,-0.00037092,0
-0.0138328,-0.00680146,0.0950524,0.00982852,0.00364105,-0.0134712,0
0.0141748,0.00935244,0.110034,0.0088402,0.00782427,-0.0224723,0
0.0417294,0.039339,0.112371,-0.00590715,0.0062506,-0.0297254,0
0.0351296,0.0350021,0.0941919,-0.0129439,-0.00375854,-0.00773287,0
0.0265407,0.0101456,0.0690103,-0.0208251,-0.00834149,0.003268,0
0.0321788,0.000633073,0.0431364,-0.0249731,-0.00626628,-0.00236022,0
0.0566656,0.0165357,0.00457242,-0.03002,-0.00309646,-0.0133051,0
0.0571488,0.0353157,-0.0252508,-0.0284708,-0.001474,-0.0103075,0
0.036971,0.018197,-0.0336242,-0.017822,0.00207955,0.00552028,0
0.0479978,0.013286,-0.0415089,-0.0139764,0.00660553,-0.00373149,0
0.0769674,0.0389756,-0.0619666,-0.0141613,0.0119221,-0.015555,0
0.0769674,0.0389756,-0.0619666,-0.0141613,0.0119221,-0.015555,0
0.0752065,0.0576026,-0.0701409,-0.0144935,0.0136908,-0.0059759,0
0.0436527,0.0442968,-0.066988,-0.00274675,0.0110254,0.017765,0
0.0213992,0.00896289,-0.0621515,-0.00357518,0.0120741,0.0240256,0
0.0427794,0.0125945,-0.0722965,-0.0073241,0.00749653,0.00227076,0
0.0412709,0.0270599,-0.0701898,-0.00441155,0.0114557,0.00377315,0
0.00444827,0.0389333,-0.0591113,0.00250769,0.00818061,0.0185987,0
-0.0110551,0.0190175,-0.0542853,0.00461884,0.00274698,0.0182092,0
0.00185877,0.00797918,-0.0581616,0.000614315,0.00152128,0.00285619,0
0.00643643,0.0117023,-0.0519063,0.00693472,-0.00213677,0.000159442,0
-0.0162387,0.00779859,-0.0274845,0.015048,-0.00106537,0.0059877,0
-0.00917657,0.00726439,-0.015652,0.0147512,-0.00652293,-0.00116062,0
0.030823,0.039424,-0.0111859,0.00662255,-0.00459428,-0.018401,0
0.0327607,0.0816071,-0.0107666,0.000897378,-0.0052141,-0.00240332,0
0.00236819,0.0734512,-0.0368786,-0.00721797,-0.0155918,0.0267694,0
-0.0354644,0.0359742,-0.0662387,-0.00653303,-0.0231258,0.0385572,0
-0.0571527,0.0179404,-0.085718,-0.00100458,-0.0156602,0.0299998,0
-0.0422318,0.0315211,-0.062565,0.0192931,-0.00279362,0.00275087,0
-0.021517,0.0583591,-0.0296457,0.0323478,0.00490157,-0.0173011,0
-0.0214647,0.0511384,0.0145567,0.0463612,0.00290651,-0.0118822,0
-0.0315195,0.0302368,0.0691149,0.04892,0.00288704,-0.00512218,0
-0.0350663,0.014099,0.120259,0.0411654,0.000602707,-0.00376248,0
-0.0115943,0.0147677,0.131249,0.0221854,-0.0060315,-0.0158823,0
0.0267275,0.0538273,0.117271,0.00590241,-0.0127685,-0.0275741,0
0.0371069,0.116918,0.111937,-0.00331023,-0.0109889,-0.0130428,0
0.0392665,0.139198,0.102008,-0.0131359,-0.0152035,0.0153708,0
0.023842,0.096253,0.0496832,-0.0258074,-0.0254215,0.050036,0
-0.00315219,0.0585814,-0.00540451,-0.0230973,-0.0306745,0.0655398,0
0.00334182,0.0581368,-0.0287792,-0.00879654,-0.019829,0.0504366,0
0.011813,0.0527542,-0.03518,0.00604409,-0.0160673,0.040593,0
0.0115656,0.00663217,-0.0557542,0.018654,-0.0286291,0.0307409,0
0.032461,-0.0561958,-0.0916383,0.0201271,-0.0324432,0.00201386,0
0.0446095,-0.0665337,-0.140773,0.0136883,-0.0257452,-0.036377,0
0.0606236,-0.0123232,-0.182168,0.00570422,-0.00664034,-0.077826,0
0.100551,0.102448,-0.202838,-0.000434399,0.0162394,-0.111763,0
0.159569,0.244326,-0.204909,-0.00926754,0.0363986,-0.107325,0
0.190384,0.2991,-0.191108,-0.0190594,0.0457555,-0.0592678,0
0.171279,0.25054,-0.181247,-0.0234265,0.0420347,0.00548077,0
0.115452,0.199334,-0.166405,-0.0292165,0.0474629,0.0485834,0
0.048793,0.179896,-0.13794,-0.0290639,0.0500527,0.0621783,0
-0.0105741,0.168381,-0.0923015,-0.0191062,0.0426845,0.0617656,0
-0.0568814,0.127091,-0.03725,-0.0091109,0.0357541,0.0663341,0
-0.0952258,0.0795963,0.0170216,-0.000510156,0.0193638,0.0606923,0
-0.130945,-0.0023563,0.063837,0.00217578,0.00807223,0.051989,0
-0.164702,-0.0534793,0.102036,0.0028339,-0.00347176,0.0292691,0
-0.184269,-0.0494125,0.117248,-0.00203702,-0.012825,-0.00533724,0
-0.174105,-0.0213064,0.128573,-0.00281346,-0.0156712,-0.0323377,0
-0.153506,0.0101849,0.118589,0.00241199,-0.0294714,-0.0395315,0
-0.122933,0.0694567,0.114258,0.00150314,-0.0276761,-0.0409682,0
-0.0927033,0.133851,0.113973,0.00946197,-0.0296799,-0.0203605,0
-0.108645,0.125168,0.124992,0.0113215,-0.0235978,0.0188971,0
-0.147947,0.0217782,0.158698,0.0314073,-0.0310394,0.0585309,0
-0.18569,-0.116453,0.19828,0.044575,-0.0320038,0.0592114,0
-0.178231,-0.203419,0.22121,0.0381742,-0.0293738,0.0130368,0
-0.139817,-0.248643,0.275492,0.0494554,-0.0190312,-0.030561,0
-0.120485,-0.249062,0.347591,0.0450211,-0.00100908,-0.0582185,0
-0.120485,-0.249062,0.347591,0.0450211,-0.00100908,-0.0582185,0
-0.0759105,-0.216265,0.376067,0.0226271,0.00164992,-0.0838768,0
0.0337341,-0.0903188,0.351808,-0.020194,0.00332025,-0.129341,0
0.15653,0.0374505,0.306124,-0.0531283,0.0145686,-0.137397,0
0.210535,0.0693715,0.234367,-0.0702373,0.00623026,-0.0861296,0
0.201397,-0.0174771,0.18189,-0.068889,-0.000598803,-0.0253115,0
0.227087,-0.220211,0.155809,-0.0543495,0.00385768,-0.00350279,0
0.294316,-0.418156,0.15587,-0.0300825,0.00894551,-0.0144501,0
0.36527,-0.537226,0.17882,-0.012692,0.0167315,-0.0365621,0
0.390854,-0.643879,0.164247,-0.008807,0.00148249,-0.039925,0
0.35159,-0.751761,0.136669,0.0174843,-0.036269,-0.0309308,0
0.319058,-0.952634,0.148539,0.0363638,-0.0516322,-0.0287411,0
0.382091,-1.36671,0.176923,0.0752351,-0.0861143,-0.0378122,0
0.522363,-1.87442,0.213756,0.095369,-0.112439,-0.0436668,0
0.63988,-2.40846,0.200928,0.085418,-0.107857,-0.038048,0
0.644314,-2.73488,0.0996258,0.0629441,-0.135708,-0.0234658,0
0.496262,-2.66384,-0.00177502,0.0347853,-0.114411,-0.0201599,0
0.258365,-2.45261,-0.110655,-0.00120074,-0.0918702,-0.0196416,0
0.201539,-2.20172,-0.269043,-0.0185144,-0.0914254,-0.100127,0
0.397404,-1.75524,-0.343708,-0.0115901,-0.0561312,-0.247839,0
0.59846,-1.09045,-0.365381,-0.0423367,0.00159684,-0.295084,0
0.670818,-0.51327,-0.353221,-0.0419433,0.030081,-0.219775,0
0.664097,-0.0449907,-0.414631,-0.0749362,0.0359089,-0.131153,0
0.639099,0.173081,-0.524847,-0.0866873,0.0266896,-0.0629436,0
0.688569,0.259563,-0.548287,-0.0791901,0.0477028,-0.0361769,0
0.684438,0.275669,-0.533118,-0.0724159,0.0727149,0.0128725,0
0.647545,0.250305,-0.512244,-0.0596193,0.0751436,0.0507438,0
0.661296,0.192838,-0.52044,-0.0586794,0.0719844,0.0607002,0
0.694131,0.19325,-0.504274,-0.0455256,0.0825345,0.0417717,0
0.692913,0.263253,-0.479473,-0.0379617,0.0894398,0.0508094,0
0.617834,0.298909,-0.486907,-0.0389202,0.0834079,0.0687996,0
0.486401,0.388136,-0.519571,-0.0254605,0.0719652,0.110897,0
0.178561,0.104088,-0.545105,-0.00663508,0.0506551,0.180479,0
0.169518,0.379432,-0.600697,-0.0298605,0.0456167,0.0203269,0
0.118594,0.482887,-0.649004,-0.0550227,0.0733522,-0.00682133,0
0.166328,0.46294,-0.60094,0.0126044,0.0533918,-0.0102456,0
0.199756,0.457931,-0.617726,-0.00470444,0.0624166,-0.0119458,0
0.158653,0.497671,-0.690687,-0.00940097,0.0313171,-0.00748479,0
0.0463726,0.591399,-0.833244,-0.0524102,0.0152411,0.0262566,0
-0.173576,0.511836,-1.03654,-0.080116,-0.00418338,0.0924821,0
-0.539077,-0.335269,-1.2654,0.00444016,0.00383607,0.163821,0
-0.551796,-0.686495,-1.371,0.0400551,0.0310236,0.148879,0
-0.399408,0.213172,-1.21728,-0.0451874,-0.0219244,0.148891,0
-0.500068,-0.841169,-1.41501,-0.0121648,0.0410165,0.0959673,0
-0.499546,-0.976278,-1.24228,0.0111915,0.0789321,0.0654448,0
-1.20142,-0.435208,-1.05822,-0.00131142,0.135997,0.0707173,0
-1.39864,-0.0962864,-0.552737,0.0134444,0.0967439,0.0528376,0
-1.39864,-0.0962864,-0.552737,0.0134444,0.0967439,0.0528376,0
-0.879133,-0.0366563,-0.330771,0.0593208,0.100901,-0.0607728,0
-0.5377,0.140059,-0.237912,0.0109928,0.124681,-0.0728652,0
-0.145513,0.136239,-0.0295293,0.0224437,0.0578884,-0.0920908,0
0.383284,0.0624074,-0.0351966,-0.00385407,0.0585818,-0.10645,0
0.687101,-0.0183036,-0.147556,-0.0296163,0.0438101,-0.0431224,0
0.674877,-0.0629561,-0.099892,0.0010222,0.0343255,0.0138564,0
0.485455,-0.0257721,0.00832988,0.0111137,0.0323463,0.0844252,0
0.238177,-0.102684,0.0347255,0.0100771,0.0180972,0.107642,0
0.0134254,0.032012,0.0529027,0.00182714,0.00913781,0.0869071,0
-0.0856908,0.0586811,0.0752225,-0.0158288,0.00042963,0.0513115,0
-0.0652054,0.0500707,-0.0672948,-0.0479585,-0.02363,0.0146049,0
0.0868294,-0.0215868,-0.0730297,-0.0376291,-0.0207241,-0.0133657,0
-0.114552,0.125227,0.000122499,-0.041108,-0.0314161,0.037339,0
0.695507,-0.127016,-0.133214,-0.0500806,-0.0201895,-0.0623499,0
0.421808,-0.109744,-0.098411,-0.0340967,-0.014432,-0.0323538,0
0.90165,-0.121586,-0.114139,-0.0615919,-0.0153771,-0.0501384,0
1.09218,-0.100684,-0.0856091,-0.0582864,-0.0153684,-0.0578079,0
1.13026,-0.166169,-0.0185379,-0.0422805,-0.00997889,-0.0213084,0
1.04751,-0.0354041,0.107653,-0.0354427,0.00421783,-0.0120023,0
0.933087,0.243998,0.296546,-0.0242006,0.0250733,-0.0096336,0
0.955032,0.207736,0.481832,-0.0253334,0.000129431,-0.0176906,0
0.878804,0.181461,0.584655,-0.0242238,0.0214769,-0.00945306,0
0.647027,0.347509,0.484978,-0.0668804,-0.0341907,0.0150811,0
0.447789,0.332381,0.304462,-0.0669016,-0.0795935,0.0303524,0
0.363051,0.179911,0.187677,-0.0537769,-0.061754,0.0393395,0
0.355774,0.12385,0.153302,-0.0587845,-0.0475321,0.0502201,0
0.266339,0.0134845,0.0613832,-0.0560541,-0.0632415,0.0669859,0
0.0633509,-0.167876,-0.0613617,-0.0608494,-0.0620033,0.0832794,0
-0.151218,-0.233135,-0.143695,-0.0572143,-0.0414996,0.0829485,0
-0.311757,-0.0891315,-0.183688,-0.0600812,-0.00873312,0.0595226,0
-0.407359,0.161515,-0.18024,-0.0518382,0.0156552,0.0345633,0
-0.43624,0.431878,-0.121387,-0.031069,0.0212181,0.0350631,0
-0.41165,0.485992,-0.0338098,-0.00798223,0.012704,0.063031,0
-0.358128,0.362142,0.0294298,0.017326,-0.00453305,0.086364,0
-0.296101,0.110774,0.0595433,0.0378088,-0.0159959,0.0971609,0
-0.22611,-0.151844,0.0492166,0.0379595,-0.0279616,0.0666878,0
-0.145253,-0.303284,0.00181705,0.0236696,-0.0312987,0.00954753,0
-0.112634,-0.377676,-0.0221256,0.00309976,-0.0185903,-0.0258047,0
-0.138237,-0.34762,-0.00154891,-0.00447846,-0.0152317,-0.0614009,0
-0.203206,-0.225816,-0.00139445,-0.0149827,-0.0121782,-0.0852298,0
-0.255682,-0.0493159,-0.0261002,-0.0345446,-0.0163963,-0.110553,0
-0.248822,0.218598,-0.0479003,-0.0523011,-0.0170976,-0.111365,0
-0.179662,0.385584,-0.0624247,-0.0464645,-0.0175578,-0.078635,0
-0.0691265,0.483578,-0.053682,-0.0408882,-0.0145486,-0.0349034,0
0.0190134,0.382622,-0.0280475,-0.0186845,-0.0139827,0.0276321,0
0.107103,0.308482,-0.0487072,-0.0166322,-0.0189028,0.0476733,0
0.152615,0.26749,-0.0670673,-0.00584702,-0.0091168,0.0725216,0
0.158184,0.206672,-0.126412,0.00307125,-0.0137766,0.0780388,0
0.116202,0.0958683,-0.186743,0.0133579,-0.0034872,0.092777,0
0.0236516,-0.0508301,-0.248227,0.031812,-0.00464621,0.088511,0
-0.0553857,-0.0650033,-0.270667,0.0310913,0.0147684,0.0561867,0
-0.128821,-0.069227,-0.212927,0.0415052,0.0396845,0.0376784,0
-0.188633,-0.0410556,-0.141372,0.0591326,0.0445058,0.0213674,0
-0.23555,-0.0806923,-0.0982356,0.0587475,0.0399348,0.00248832,0
-0.219971,-0.0661805,-0.107401,0.037627,0.0334355,-0.0430316,0
-0.13544,0.0396201,-0.0787101,0.0301893,0.0508415,-0.0701703,0
-0.010385,0.136236,-0.014477,0.0382086,0.0603521,-0.0723032,0
0.103417,0.19336,0.0459082,0.0471301,0.0596186,-0.0476505,0
0.177207,0.146222,0.104802,0.0675289,0.0536112,-0.00615919,0
0.209062,0.0968187,0.166331,0.0759351,0.0444852,0.0251213,0
0.170408,0.0244207,0.208081,0.0829196,0.0321724,0.0514291,0
0.0889736,-0.0420181,0.210616,0.0786741,0.0137103,0.0640148,0
0.0889736,-0.0420181,0.210616,0.0786741,0.0137103,0.0640148,0
-0.0107737,-0.0606756,0.142212,0.0583124,-0.00876743,0.0448478,0
-0.0769836,-0.0601447,0.0536842,0.0455734,-0.0177102,0.00530815,0
-0.153606,-0.106581,0.0110833,0.0673726,-0.0212511,-0.0123381,0
-0.22263,-0.193302,0.0409065,0.0865613,-0.00658637,-0.0364724,0
-0.207559,-0.16126,0.0764255,0.0783968,-0.00170478,-0.088868,0
-0.162217,-0.108757,0.0900498,0.060979,0.00974238,-0.111456,0
-0.103303,-0.0834406,0.125377,0.0656274,0.0262583,-0.101096,0
-0.00431978,0.01507,0.163465,0.0584153,0.0378771,-0.0897061,0
0.0789864,0.0428979,0.184644,0.0546016,0.0474043,-0.0592086,0
0.128562,0.0670248,0.189806,0.0533444,0.0442916,-0.0235651,0
0.113315,0.0723064,0.168772,0.0421903,0.0447383,0.0111642,0
0.0454629,0.0408658,0.149131,0.0402713,0.0439452,0.0421047,0
-0.056711,-0.00645434,0.141414,0.0492238,0.0445077,0.0625039,0
-0.152824,-0.0146396,0.146439,0.0492985,0.0505328,0.0637921,0
-0.253727,-0.0464316,0.163475,0.0501222,0.0463602,0.0565373,0
-0.321419,-0.0575685,0.145503,0.0340362,0.0347961,0.0324032,0
-0.333812,-0.0514136,0.0837135,0.0124081,0.0158382,-0.0127577,0
-0.30718,-0.0501568,0.0349529,0.00682709,0.0105207,-0.0398954,0
-0.288271,-0.0733595,0.0235913,0.0165537,0.0124345,-0.0527316,0
-0.278377,-0.038463,0.0441656,0.0104821,0.0112707,-0.0708202,0
-0.243679,0.0534143,0.0550839,-0.00155797,0.0100551,-0.0914195,0
-0.176827,0.181819,0.0671822,-0.00924036,0.010165,-0.0943691,0
-0.0917703,0.272418,0.0885964,-0.0148451,0.0125171,-0.0720789,0
-0.0467103,0.25971,0.0985839,-0.00839482,0.00425774,-0.0300335,0
-0.038217,0.134343,0.116,0.00660213,-0.00189969,0.0110671,0
-0.0224692,0.0350597,0.131681,0.0116945,-0.00209668,0.0217153,0
0.00310173,0.00889248,0.161742,0.00444624,0.00978315,0.0323916,0
0.0243075,0.0225318,0.155071,-0.00807245,0.0144011,0.0326098,0
0.0348134,0.0767313,0.129022,-0.0130389,0.00980949,0.0300989,0
0.0300129,0.0792125,0.119833,-0.0135034,0.0111898,0.0400545,0
0.00159823,0.0626974,0.103833,-0.0146642,0.00641668,0.0462345,0
-0.0270713,0.0833091,0.0624967,-0.0202155,0.00578466,0.0366292,0
-0.080914,0.050105,0.0518427,-0.0184544,0.00981805,0.0395882,0
-0.106091,0.0457046,0.0475645,-0.0219962,0.0113653,0.0181331,0
-0.116717,0.077577,0.0186847,-0.0385145,0.00973511,-0.011032,0
-0.156105,0.0563591,-2.91709e-05,-0.0453505,0.0106636,-0.0181387,0
-0.171166,0.0677209,-0.00954983,-0.0523138,0.0100557,-0.0355995,0
-0.179148,0.053574,-0.0175202,-0.0627771,0.0130295,-0.0497801,0
-0.169208,0.0271776,-0.0143452,-0.0556666,0.0125367,-0.0626957,0
-0.123044,0.0806829,0.0056294,-0.0744628,0.0234873,-0.0741172,0
-0.0593418,0.157639,0.00949595,-0.0847651,0.0245014,-0.0752862,0
-0.000288206,0.268048,0.00939416,-0.0885772,0.0240168,-0.0409676,0
-0.00242367,0.259751,0.00693481,-0.0766844,0.0118773,0.0111056,0
-0.0341348,0.187044,0.0327857,-0.0630355,0.00781885,0.0552449,0
-0.0840218,0.0540627,0.0473041,-0.0548405,-0.00359941,0.0846033,0
-0.0790535,-0.00823191,0.023016,-0.057709,-0.0159253,0.0770656,0
-0.084655,-0.109682,0.00415666,-0.04917,-0.0200122,0.0766948,0
-0.1066,-0.164987,-0.0160739,-0.0302118,-0.0245359,0.0647193,0
-0.142781,-0.155669,-0.0036675,-0.0227839,-0.0163547,0.0475939,0
-0.22301,-0.197057,0.0146312,-0.00355639,-0.0231,0.0366051,0
-0.259832,-0.238928,0.0124171,0.00382847,-0.0296032,0.00122094,0
-0.221778,-0.200632,0.0216117,0.00404673,-0.0228548,-0.0331719,0
-0.177427,-0.151523,0.0294351,0.00861948,-0.0235355,-0.0515575,0
-0.136348,-0.130959,0.013745,0.0106745,-0.02549,-0.0635421,0
-0.136348,-0.130959,0.013745,0.0106745,-0.02549,-0.0635421,0
-0.0974994,-0.0959085,0.00813263,0.0187011,-0.024374,-0.0711485,0
-0.0501485,-0.0428455,0.0323804,0.0172419,-0.00964978,-0.0720261,0
-0.036487,-0.0337728,0.0551955,0.0196531,-0.00990769,-0.0554503,0
-0.0176236,-0.0177357,0.0508689,0.00854597,-0.0103453,-0.0513258,0
0.0308192,0.0179263,0.0724839,-0.00231001,0.00335515,-0.0422094,0
0.0575478,0.00143204,0.101987,-0.00230973,0.00847965,-0.0161644,0
0.0659443,-0.0573022,0.125884,-0.0137672,0.0169899,0.0169396,0
