rotationRate_x,rotationRate_y,rotationRate_z,acceleration_x,acceleration_y,acceleration_z,relativeAltitude
-0.0966032,0.032614,-0.016152,0.00470407,-0.00580442,-0.00870556,0.161179
-0.0274724,-0.129576,0.0953696,0.0503047,-0.0107717,-0.00640559,0.161179
0.0722283,-0.177469,0.139697,0.0273196,-0.0174744,-0.017428,0.161179
0.152664,-0.175261,0.11138,0.0052806,-0.0269075,-0.0220457,0.161179
0.17709,-0.187055,0.0720833,0.00137188,-0.0250268,-0.0143135,0.161179
0.140618,-0.135041,0.0561418,0.00803138,-0.0228751,-0.00181168,0.161179
0.0830084,-0.121709,0.0604684,0.00879855,-0.013401,0.00920951,0.161179
0.066581,-0.126253,0.0560071,0.0117206,-0.0116011,0.00557077,0.161179
0.0576276,-0.0238623,0.0298165,0.012243,-0.0169041,-0.00357735,0.161179
0.014738,-0.00119509,0.02842,0.00562627,-0.00395609,0.0167783,0.161179
0.00934883,-0.0645514,0.0465018,0.0203731,-0.00582381,0.0236099,0.161179
0.0426999,-0.0871633,0.0510875,0.0278186,-0.00885819,0.0189003,0.161179
0.044875,-0.140184,0.0692425,0.0217069,-0.000636846,0.0238147,0.161179
0.0154873,-0.145981,0.0766385,0.0234108,-0.00648481,0.0236377,0.161179
-0.00213072,-0.0858271,0.0631146,0.0123068,-0.00976476,0.0137607,0.161179
-0.0255272,-0.10242,0.0562608,0.0113264,-0.00708447,0.0188925,0.161179
-0.0369718,-0.163655,0.050846,0.0212298,-0.0122813,0.0125003,0.161179
-0.0176369,-0.181693,0.060222,0.0249267,-0.0115006,-0.00550604,0.161179
0.0401573,-0.122592,0.0749871,0.020146,-0.0132636,-0.031608,0.161179
0.0779334,-0.0510873,0.0717139,0.0117524,-0.011394,-0.0312938,0.161179
0.0536568,-0.0233008,0.0455011,0.0115901,-0.0125259,-0.0106159,0.161179
-0.0306705,-0.0277792,0.0168642,0.012236,-0.0143373,0.0162462,0.161179
-0.10387,-0.0754478,-0.0184583,0.00947592,-0.0141088,0.0191135,0.161179
-0.0878249,-0.0286227,-0.0588462,0.0102512,-0.0203338,-0.0114755,0.161179
-0.0420846,0.00629621,-0.0732639,0.00657734,-0.00373623,-0.0121593,0.161179
-0.00396377,-0.0529959,-0.0393851,0.0266859,0.00539815,-0.00356048,0.161179
0.0318744,-0.0635401,-0.000688974,0.0418306,0.0120659,0.00133508,0.161179
0.0117551,-0.0887734,0.02127,0.0305319,0.0191984,0.0148698,0.161179
-0.00179998,-0.106782,0.0186776,0.0343017,0.00665818,0.000721097,0.161179
0.0192391,-0.0443575,0.0035207,0.0216063,0.00908931,-0.0150528,0.161179
0.0214945,0.0142494,0.00279426,0.00899346,0.0159916,-0.00833786,0.161179
0.0102439,0.0171,0.00452007,0.0156669,0.0118608,0.00687617,0.161179
-0.00751546,-0.0522882,-0.0198206,0.0242697,0.00255129,0.0189195,0.161179
-0.0106214,-0.0790744,-0.0487126,0.0203553,-0.00112294,0.0103273,0.161179
-0.0279565,-0.0467818,-0.0737368,0.00970265,0.00454415,0.00906539,0.161179
-0.0656329,-0.00284358,-0.0959038,0.00667907,0.0109978,0.0140374,0.161179
-0.0978232,-0.0120704,-0.117273,0.0134457,0.00590402,0.011149,0.161179
-0.0911935,-0.0635287,-0.105759,0.0342458,0.00870752,0.00140989,0.161179
-0.0727187,-0.0800649,-0.0592787,0.0518728,0.0172448,-0.0145874,0.161179
-0.0856456,-0.0298127,-0.000838633,0.0606974,0.0189685,-0.0177453,0.161179
-0.119209,-0.0475918,0.0470186,0.0636885,0.00658189,-0.0168071,0.161179
-0.122313,-0.0617895,0.0411249,0.0619895,-0.0112094,-0.0281883,0.161179
-0.121307,-0.0810724,0.0157574,0.0640962,-0.0328907,-0.0365872,0.161179
-0.153939,-0.197029,0.0134641,0.0562248,-0.0432448,-0.0199813,0.161179
-0.167074,-0.442023,0.00602734,0.0481821,-0.0361524,0.0068267,0.161179
-0.088625,-0.557039,0.0102411,0.0282826,-0.039171,-0.00718319,0.161179
0.0143077,-0.495234,0.0147011,0.0122865,-0.0425481,-0.0324455,0.161179
0.0817088,-0.302801,0.0329036,-0.0129717,-0.017464,-0.0215319,0.161179
0.104696,-0.0435416,0.0807694,-0.0299173,0.00144881,-0.00426096,0.161179
0.121091,0.134786,0.137094,-0.0388779,0.0174684,0.0105552,0.161179
0.154723,0.208757,0.177094,-0.0383154,0.0202953,0.0160825,0.161179
0.154723,0.208757,0.177094,-0.0383154,0.0202953,0.0160825,0
0.205024,0.23507,0.200454,-0.0308372,-0.00233829,0.0127733,0
0.258185,0.172021,0.178123,-0.0311239,-0.0201255,0.00830966,0
0.27265,0.10247,0.142451,-0.0453366,-0.0214386,0.00927132,0
0.231145,0.0867605,0.104159,-0.0624525,-0.00647226,0.0203772,0
0.154924,0.11723,0.0837214,-0.0656605,-0.00190614,0.0266002,0
0.0555545,0.151247,0.0738994,-0.0773755,-0.0047759,0.0339828,0
-0.0430145,0.153854,0.0664094,-0.0918831,-0.0204083,0.0354372,0
-0.115589,0.0993347,0.0592683,-0.103486,-0.0426696,0.0399682,0
-0.15376,0.0356858,0.0365942,-0.110667,-0.0606319,0.0557238,0
-0.162705,-0.039449,-0.0105365,-0.121575,-0.0663655,0.0712882,0
-0.16097,-0.132978,-0.0572444,-0.125569,-0.0814012,0.0595813,0
-0.186104,-0.183691,-0.0890465,-0.130613,-0.0989779,0.0429096,0
-0.228652,-0.271678,-0.136027,-0.132595,-0.111782,0.021954,0
-0.253998,-0.367559,-0.162717,-0.123939,-0.13057,-0.0145932,0
-0.254297,-0.343621,-0.168975,-0.116965,-0.13377,-0.0222429,0
-0.242876,-0.25001,-0.18204,-0.118113,-0.127277,-0.0173903,0
-0.199669,-0.119281,-0.17512,-0.10465,-0.128097,-0.00243545,0
-0.124003,0.00207684,-0.147332,-0.0863927,-0.138673,0.0171917,0
-0.0259324,0.096907,-0.139652,-0.0702414,-0.153474,0.0483868,0
0.0735595,0.141662,-0.149061,-0.0546238,-0.15277,0.0913655,0
0.144129,0.148004,-0.15154,-0.0436904,-0.139425,0.134341,0
0.17102,0.0531422,-0.119122,-0.0174449,-0.135343,0.147726,0
0.137788,-0.0213608,-0.0549633,0.014338,-0.138455,0.156014,0
0.0534002,-0.0285371,-0.0120628,0.0340476,-0.144361,0.165086,0
-0.0100409,-0.0212532,0.0117761,0.0459438,-0.145932,0.151477,0
-0.0466361,0.0172541,0.0462436,0.0589808,-0.147572,0.129766,0
-0.027769,-0.0134361,0.113217,0.0673047,-0.14145,0.0976911,0
0.0288623,-0.127882,0.187473,0.0790258,-0.140531,0.0568531,0
0.0990678,-0.297632,0.262353,0.0804547,-0.137133,-0.0171439,0
0.1571,-0.178472,0.32818,0.0698125,-0.126374,-0.0856945,0
0.187337,0.176491,0.351521,0.0492738,-0.121999,-0.124212,0
0.161698,0.229189,0.330188,0.0350155,-0.113809,-0.153595,0
0.0567321,0.0698103,0.261783,0.0169546,-0.123793,-0.17633,0
-0.106866,-0.216845,0.140736,0.00818207,-0.126585,-0.216794,0
-0.182685,-0.408102,0.0608281,0.0269168,-0.110482,-0.291731,0
-0.12917,-0.122494,0.0327461,0.0349342,-0.0822801,-0.353056,0
-0.00552207,0.348269,0.12737,0.0261642,-0.0294402,-0.323221,0
0.155145,0.748158,0.227552,0.0202886,0.0227167,-0.226906,0
0.377943,0.845647,0.301665,0.0128698,0.0505035,-0.125794,0
0.601512,0.865717,0.378842,0.0103385,0.0451645,-0.0257313,0
0.764298,0.8981,0.417932,-0.014233,0.0556787,0.0779612,0
0.830187,0.852476,0.406044,-0.0398345,0.0762929,0.156787,0
0.764332,0.596458,0.439617,-0.024613,0.089188,0.219729,0
0.576134,0.176157,0.516396,0.0145128,0.0913008,0.253033,0
0.326154,-0.254107,0.571961,0.0437868,0.0961069,0.239747,0
0.0732181,-0.576282,0.556901,0.0464423,0.0966979,0.182115,0
-0.14651,-0.731164,0.467535,0.0256772,0.0880121,0.0789624,0
-0.324641,-0.722501,0.351725,-0.00179339,0.0913853,-0.0229456,0
-0.413434,-0.713294,0.214336,-0.00659808,0.0936853,-0.129427,0
-0.40223,-0.555357,0.139333,0.0153615,0.099501,-0.216476,0
-0.325363,-0.0802863,0.207933,0.0552905,0.120736,-0.213495,0
-0.325363,-0.0802863,0.207933,0.0552905,0.120736,-0.213495,0
-0.169137,0.41358,0.340296,0.0724121,0.153102,-0.135766,0
0.0268125,0.678091,0.435395,0.0467443,0.161973,-0.0373233,0
0.230102,0.713336,0.467115,0.0266247,0.126018,0.0518519,0
0.391544,0.549647,0.42241,0.00965442,0.0799001,0.112411,0
0.422631,0.27494,0.330868,-0.00660384,0.0521821,0.163758,0
0.274346,0.00250132,0.240632,-0.0114588,0.0428171,0.214523,0
0.0238429,-0.143021,0.156298,-0.0101696,0.0418054,0.240238,0
-0.206884,-0.173815,0.0770379,-0.00986413,0.0367214,0.219122,0
-0.338959,-0.203294,-0.00787396,-0.0173998,0.0291938,0.167115,0
-0.351166,-0.26871,-0.0957276,-0.0254186,0.0165654,0.100778,0
-0.283028,-0.351847,-0.170993,-0.0166316,0.00585003,0.0359684,0
-0.208441,-0.315171,-0.207283,-0.0107802,0.00286347,-0.0088982,0
-0.17781,-0.188113,-0.195952,-0.0044559,-0.00228967,-0.0296387,0
-0.193871,-0.16313,-0.193627,-0.0116609,-0.0075708,-0.0502732,0
-0.234386,-0.268268,-0.211003,-0.022663,-0.0155201,-0.0647538,0
-0.257922,-0.411257,-0.229215,-0.0110833,-0.0325667,-0.104985,0
-0.229033,-0.376592,-0.243824,-0.0103001,-0.0508607,-0.151619,0
-0.169456,-0.138904,-0.26069,-0.0325723,-0.0558763,-0.164891,0
-0.0795857,0.0988554,-0.274007,-0.0468748,-0.0610803,-0.136308,0
0.000878781,0.216889,-0.261407,-0.0296899,-0.0845121,-0.0685328,0
-0.0280061,-0.116471,-0.283387,-0.0186794,-0.0899518,-0.0156195,0
-0.168812,-0.50632,-0.365549,-0.00871778,-0.11157,-0.0107092,0
-0.317786,-0.48313,-0.482699,-0.0197903,-0.136753,-0.0394816,0
-0.397053,-0.241737,-0.610146,-0.0301994,-0.123675,-0.0806859,0
-0.393792,0.0673446,-0.688078,-0.0206625,-0.111117,-0.0881085,0
-0.340815,0.260826,-0.667954,0.00831342,-0.101972,-0.0480238,0
-0.25583,0.179573,-0.588429,0.0429877,-0.098729,-0.0125099,0
-0.129897,0.0259221,-0.495025,0.075447,-0.0948396,0.00128889,0
0.000637808,-0.126133,-0.404067,0.091261,-0.0830466,0.00761956,0
0.0879509,-0.22398,-0.332328,0.0767415,-0.0555492,-0.00177294,0
0.148997,-0.138157,-0.277428,0.0498041,-0.0313279,-0.0141143,0
0.194823,-0.0125333,-0.222579,0.0213162,-0.0128351,-0.0195903,0
0.25355,0.0211408,-0.181986,-0.00292723,0.0141821,-0.0155187,0
0.316578,-0.0645509,-0.16951,-0.044144,0.0383928,-0.00612944,0
0.356068,-0.217519,-0.203319,-0.0956142,0.0667635,-0.00575864,0
0.350051,-0.301791,-0.269275,-0.14156,0.0837713,-0.0102944,0
0.309348,-0.265351,-0.370686,-0.178977,0.0885178,-0.00620329,0
0.234074,-0.145742,-0.499989,-0.205145,0.0954515,0.00134468,0
0.120137,0.079526,-0.652029,-0.214659,0.10311,0.0359122,0
0.00422972,0.212041,-0.800073,-0.223934,0.10431,0.0764484,0
-0.0208314,0.179383,-0.868605,-0.181252,0.0857201,0.076305,0
0.00270119,0.111833,-0.909504,-0.131539,0.0859063,0.100654,0
0.0424193,0.130705,-0.912587,-0.119371,0.0957879,0.137583,0
0.0857738,0.160252,-0.919883,-0.106458,0.100081,0.151663,0
0.119232,0.0815983,-0.854388,-0.0694828,0.100587,0.170183,0
0.102543,0.00629434,-0.736479,-0.0275623,0.0918371,0.170185,0
0.00215062,-0.0242833,-0.616259,-0.0149811,0.0822106,0.161219,0
-0.169093,-0.0373564,-0.521756,-0.0111986,0.0680908,0.165911,0
-0.357831,-0.0361389,-0.445177,-0.0163036,0.0375832,0.151379,0
-0.460649,0.036682,-0.348414,-0.00664493,0.00661045,0.107239,0
-0.460649,0.036682,-0.348414,-0.00664493,0.00661045,0.107239,0
-0.432954,0.123165,-0.233819,0.0104227,-0.0184475,0.0525326,0
-0.346633,0.278808,-0.116257,0.0132521,-0.0489161,0.00854272,0
-0.294485,0.532746,-0.0104742,0.0154615,-0.0851152,-0.0233126,0
-0.304288,0.60999,0.0943144,0.00407967,-0.113972,-0.038957,0
-0.354912,0.38915,0.233958,0.0304359,-0.125009,-0.0676266,0
-0.362568,0.127759,0.390453,0.0452437,-0.152881,-0.115293,0
-0.23012,-0.00666356,0.477516,0.0323539,-0.174759,-0.165453,0
-0.000876205,0.128083,0.510526,0.0100205,-0.179801,-0.193603,0
0.214056,0.388123,0.577523,0.0152065,-0.180154,-0.149898,0
0.328896,0.27783,0.607439,-0.000904068,-0.169484,-0.111249,0
0.249924,-0.239062,0.54392,0.000567343,-0.179578,-0.113219,0
0.0661669,-0.708626,0.40409,0.0191109,-0.196407,-0.153747,0
-0.109597,-0.736557,0.214672,-0.00202386,-0.15725,-0.228677,0
-0.179066,-0.452957,0.17652,0.0187694,-0.0909461,-0.296122,0
-0.14983,-0.199472,0.359107,0.0443207,0.000795394,-0.300282,0
-0.0199765,-0.168041,0.65861,0.0761678,0.0663873,-0.262024,0
0.188999,-0.176433,0.927156,0.0950776,0.0802011,-0.197762,0
0.430991,-0.0742518,1.08859,0.108908,0.0713981,-0.118687,0
0.643402,0.032517,1.09577,0.102455,0.0834523,-0.00406837,0
0.801793,0.0258276,1.00362,0.0991585,0.116499,0.13393,0
0.896376,-0.237804,0.826233,0.0992491,0.129522,0.239004,0
1.08541,0.406106,0.274877,0.00851799,0.101455,0.225341,0
0.468394,2.41706,-0.0744676,-0.222481,-0.009515,0.00568783,0
-0.825914,1.21594,0.0687471,-0.00555615,0.0630474,0.147685,0
-1.60059,-0.838943,0.220057,0.13867,0.129455,0.162148,0
-1.88689,-1.50144,0.331815,0.191535,0.0194695,0.103477,0
-1.53627,-1.78007,0.354425,0.157777,0.115892,-0.0785429,0
-0.810089,-2.21497,0.626381,0.0760447,0.227327,-0.125863,0
0.140608,-2.00777,0.776894,0.220562,0.152356,0.0209912,0
0.985967,-1.42036,0.599536,0.1258,0.146664,0.0697473,0
1.16811,-0.419747,0.511855,0.179738,0.144595,0.282718,0
0.79132,-0.00745268,0.544715,0.0289923,0.107907,0.444144,0
0.224833,0.343563,0.596073,-0.0423087,0.0453002,0.436672,0
-0.270991,0.798459,0.608359,-0.0193931,0.00132424,0.400557,0
-0.563235,0.80649,0.539157,-0.0100302,-0.0306972,0.299275,0
-0.826081,0.980588,0.501385,-0.00751253,-0.032516,0.163069,0
-1.47401,0.0130624,0.616413,0.0244214,-0.0476708,0.0898196,0
-1.36494,0.111549,0.661918,0.0996835,-0.0407384,0.0224065,0
-1.22587,0.374227,0.645401,0.0501138,-0.0454952,-0.13662,0
-0.828551,0.361556,0.509689,-0.00382689,-0.0166855,-0.257291,0
-0.286267,0.0855202,0.250526,-0.00327939,0.00616363,-0.280278,0
0.229446,-0.251275,-0.0286072,0.0295915,0.0367537,-0.348726,0
0.427985,-0.516855,-0.239469,0.0109501,-0.0251924,-0.0866823,0
0.35671,-0.474515,-0.294352,0.0148396,-0.0843259,0.0431094,0
0.161157,-0.700436,-0.289516,0.0256419,-0.150308,0.0966146,0
-0.079161,-0.336119,-0.269469,0.0108628,-0.165981,0.0652876,0
-0.265067,0.111599,-0.14368,-0.0534571,-0.234554,0.0888844,0
-0.275309,0.437437,0.101247,-0.0785686,-0.263067,-0.0994633,0
-0.0759694,0.0770256,0.158803,-0.0918016,-0.199574,-0.289932,0
0.0746893,-0.389002,0.128695,-0.122965,-0.0971177,-0.404165,0
0.0789049,-0.704161,0.0195678,-0.189742,-0.0854295,-0.385498,0
0.0789049,-0.704161,0.0195678,-0.189742,-0.0854295,-0.385498,0
-0.01469,-0.837568,-0.0786709,-0.236477,-0.100492,-0.337012,0
0.0227735,-0.797889,-0.124991,-0.21971,-0.0786682,-0.345371,0
0.210912,-0.664885,-0.2097,-0.222455,-0.0429356,-0.362751,0
0.651799,-0.454861,-0.540169,-0.242316,0.0202125,-0.365645,0
1.18332,-0.339607,-0.981245,-0.211819,0.11757,-0.301383,0
1.53221,-0.281438,-1.36946,-0.158483,0.16654,-0.14873,0
1.6526,-0.157214,-1.59314,-0.0912888,0.163951,0.0342333,0
1.57594,0.0761759,-1.59792,-0.023297,0.132688,0.164527,0
1.32523,0.361136,-1.43274,0.0159678,0.0930663,0.244189,0
1.02219,0.644199,-1.19192,0.0319366,0.0773731,0.255727,0
0.820857,0.868403,-0.977372,0.0289908,0.0874974,0.183438,0
0.72611,0.943651,-0.794926,0.0200063,0.115304,0.0801752,0
0.68412,0.935618,-0.627692,0.0201893,0.155372,-0.0277663,0
0.701099,0.837915,-0.448648,0.0170654,0.195717,-0.127033,0
0.792115,0.565196,-0.28867,0.032416,0.238551,-0.196609,0
0.809463,0.173392,-0.217844,0.0351166,0.28156,-0.175346,0
0.740566,-0.149441,-0.1945,0.0353767,0.3102,-0.0914943,0
0.632385,-0.299223,-0.160535,0.0357193,0.3119,0.00869966,0
0.522595,-0.274147,-0.0807241,0.0411608,0.310359,0.0966662,0
0.449623,-0.133441,0.039133,0.0590056,0.30736,0.162922,0
0.381254,0.0482797,0.178256,0.0639699,0.299028,0.20199,0
0.289266,0.237216,0.330367,0.0624348,0.292651,0.223194,0
0.156158,0.353862,0.429705,0.0574741,0.292717,0.220308,0
0.0276486,0.443455,0.525446,0.0604435,0.284944,0.197703,0
-0.0920091,0.516827,0.638779,0.067911,0.274753,0.166236,0
-0.17949,0.567918,0.768507,0.0814001,0.271513,0.113388,0
-0.241492,0.613454,0.952258,0.111207,0.265853,0.0701199,0
-0.334935,0.58502,1.15712,0.124351,0.260854,0.0578126,0
-0.384183,0.302264,1.2803,0.11054,0.260245,0.0261887,0
-0.522559,0.120643,1.37641,0.114849,0.254464,0.0532863,0
-0.776714,0.15213,1.52097,0.103736,0.198826,0.111179,0
-0.995603,0.304267,1.7582,0.102925,0.136005,0.098838,0
-1.12052,0.461138,2.0462,0.122336,0.102961,0.0333671,0
-1.23196,0.66778,2.32678,0.124226,0.0679772,-0.0222307,0
-1.2999,0.744188,2.5285,0.0958837,0.0448717,-0.0988061,0
-1.38023,0.65631,2.64529,0.0764214,0.0343607,-0.176698,0
-1.47237,0.49038,2.69605,0.0531639,0.0258955,-0.226276,0
-1.4007,0.320241,2.68663,0.0199765,0.0216944,-0.279652,0
-1.15353,0.179374,2.61643,-0.0116707,0.0266089,-0.320814,0
-0.754567,0.101126,2.49117,-0.0495776,0.0228155,-0.324187,0
-0.303656,0.0768507,2.28318,-0.0844575,0.00325191,-0.283283,0
0.0177057,0.100196,1.98987,-0.11764,0.00812863,-0.201977,0
0.193285,0.155671,1.78101,-0.135207,-0.0192838,-0.117929,0
0.242874,0.181703,1.6914,-0.120739,-0.0549131,-0.0608879,0
0.294599,0.244337,1.68652,-0.0873992,-0.0901419,-0.0464802,0
0.334084,0.343726,1.70907,-0.0595692,-0.0781622,-0.0482556,0
0.3802,0.422301,1.7293,-0.0369333,-0.0632276,-0.0700284,0
0.380723,0.465851,1.76637,-0.0131576,-0.0424512,-0.0820228,0
0.322259,0.375525,1.74523,-0.00298519,-0.00985088,-0.102088,0
0.253855,0.195248,1.68537,0.0105433,0.0213424,-0.123201,0
0.253855,0.195248,1.68537,0.0105433,0.0213424,-0.123201,0
0.292568,-0.0726946,1.56071,0.0195552,0.0509471,-0.12795,0
0.412633,-0.303506,1.32228,0.0258368,0.0828622,-0.0811613,0
0.49694,-0.369801,1.02944,0.0114172,0.0765974,0.0312707,0
0.542722,-0.288615,0.743648,0.00686689,0.0545434,0.139827,0
0.545224,-0.1172,0.519845,0.0123689,0.0248228,0.215608,0
0.495103,0.0550985,0.376385,0.0191632,0.00514269,0.251286,0
0.341901,0.14545,0.275735,0.00800662,-0.0109213,0.264068,0
0.136156,0.158776,0.196796,-0.00150993,-0.0127953,0.245789,0
-0.0523109,0.142198,0.0691437,-0.0387066,0.00322779,0.192345,0
-0.254045,0.054562,-0.100397,-0.0678129,0.0106888,0.122071,0
-0.524885,0.0384988,-0.233555,-0.0783027,-0.00743285,0.0502089,0
-0.609124,0.035653,-0.325645,-0.0764158,-0.0226474,-0.0995458,0
-0.342572,-0.0981435,-0.503225,-0.0629309,0.00459138,-0.28178,0
0.0549401,-0.167694,-0.75245,-0.0536555,0.0385049,-0.343952,0
0.420299,-0.0884731,-0.978818,-0.0418613,0.0431738,-0.305362,0
0.683819,0.0602717,-1.0675,0.00127213,0.0189526,-0.223817,0
0.790905,0.16528,-1.02948,0.0572327,-0.00944999,-0.133928,0
0.827617,0.277516,-0.941258,0.0999557,-0.0166139,-0.0661063,0
0.87852,0.346912,-0.838811,0.121503,-0.0100677,-0.0401089,0
0.904984,0.358035,-0.73063,0.139581,0.00841944,-0.0218424,0
0.885927,0.323563,-0.598332,0.15049,0.0210766,0.0142425,0
0.798059,0.281134,-0.446977,0.158841,0.029557,0.053009,0
0.621914,0.182553,-0.283825,0.163031,0.0355793,0.0958576,0
0.361103,0.110652,-0.110055,0.162473,0.0409468,0.141122,0
0.13241,0.0963275,0.0488797,0.144182,0.0515839,0.161863,0
0.0535791,0.0989297,0.174829,0.127953,0.0684771,0.142022,0
0.0671697,0.0825979,0.253877,0.0993812,0.0917413,0.1261,0
0.0725216,0.0530939,0.284691,0.0706561,0.105359,0.152603,0
0.0156998,0.0642586,0.298209,0.0328408,0.110023,0.195366,0
-0.082287,0.110738,0.335793,0.00768112,0.0954254,0.225295,0
-0.234048,0.198448,0.417467,0.00131853,0.0818639,0.246788,0
-0.407115,0.255772,0.508199,-0.0224117,0.066121,0.235296,0
-0.60837,0.208352,0.59456,-0.0331532,0.0546877,0.189823,0
-0.784505,0.0996445,0.657557,-0.0514945,0.0458481,0.122839,0
-0.950795,-0.0593154,0.700366,-0.0707147,0.030906,0.0680906,0
-1.05819,-0.133032,0.707948,-0.0963356,0.0105577,0.0190331,0
-1.07143,-0.154456,0.694355,-0.115947,-0.0109392,-0.0310406,0
-0.98524,-0.0896277,0.652489,-0.13875,-0.0273493,-0.0830357,0
-0.8277,-0.0313341,0.55743,-0.16387,-0.0368948,-0.130929,0
-0.693538,-0.00280624,0.421426,-0.190967,-0.0491893,-0.145559,0
-0.591798,0.0142267,0.262085,-0.212309,-0.0655107,-0.146176,0
-0.485583,0.0370539,0.105078,-0.222301,-0.0779386,-0.154644,0
-0.351183,0.0402115,-0.0800961,-0.227336,-0.081967,-0.170871,0
-0.203772,0.0428822,-0.271778,-0.219655,-0.0842906,-0.179514,0
-0.0194693,0.0280712,-0.440834,-0.200554,-0.0865925,-0.186269,0
0.164298,0.00887531,-0.591457,-0.176506,-0.0852554,-0.179537,0
0.305317,-0.0408229,-0.717557,-0.150906,-0.0881395,-0.1461,0
0.414812,-0.101257,-0.808789,-0.117849,-0.0859123,-0.108938,0
0.483732,-0.121474,-0.821267,-0.0784512,-0.0942063,-0.0607057,0
0.529045,-0.111534,-0.778163,-0.0521649,-0.101954,-0.0271109,0
0.565346,-0.103775,-0.726286,-0.034779,-0.0960488,-0.00820923,0
0.575478,-0.0797953,-0.639611,-0.0253434,-0.089521,0.00255585,0
0.570565,-0.079782,-0.542291,-0.0178596,-0.0789048,-0.000977218,0
0.567262,-0.0653905,-0.446141,-0.0127289,-0.0616455,-0.0203722,0
0.585335,-0.10553,-0.362545,-0.0110594,-0.0368434,-0.0494373,0
0.559677,-0.173859,-0.298159,-0.0037194,-0.00556378,-0.0550543,0
0.532879,-0.227468,-0.221147,-0.00144606,0.0166492,-0.0617148,0
0.506855,-0.287291,-0.166061,-0.00329413,0.0419087,-0.0602602,0
0.492833,-0.343863,-0.139104,-0.00696212,0.0701762,-0.0537048,0
0.473961,-0.405254,-0.134504,-0.00749627,0.0935122,-0.041555,0
0.4492,-0.433925,-0.149685,-0.00648689,0.112962,-0.0166565,0
0.412543,-0.421931,-0.160935,-0.00469077,0.127491,0.0181221,0
0.36392,-0.395462,-0.164606,0.00583666,0.13532,0.0522296,0
0.285059,-0.345243,-0.167181,0.0117939,0.141061,0.080667,0
0.16867,-0.290834,-0.175763,0.0147223,0.142141,0.103977,0
0.0463299,-0.247021,-0.179354,0.0273627,0.141413,0.106763,0
-0.0429997,-0.220615,-0.176829,0.0391852,0.136795,0.0926147,0
-0.124179,-0.19106,-0.165374,0.0489985,0.13119,0.0807151,0
-0.210976,-0.165403,-0.16263,0.0512213,0.127436,0.0758382,0
-0.268685,-0.165082,-0.192286,0.0463243,0.125542,0.0624782,0
-0.32079,-0.165807,-0.241642,0.0460387,0.124578,0.0528048,0
-0.34719,-0.109907,-0.27976,0.0422491,0.108587,0.0526579,0
-0.353513,-0.0568509,-0.305793,0.0481987,0.0922093,0.0505111,0
-0.378068,-0.01707,-0.337441,0.0504091,0.0798001,0.0568515,0
-0.42776,0.03497,-0.338736,0.055162,0.0595087,0.0671965,0
-0.484829,0.100545,-0.353347,0.0467819,0.041177,0.0684816,0
-0.484829,0.100545,-0.353347,0.0467819,0.041177,0.0684816,0
-0.510545,0.160255,-0.364152,0.0470035,0.0273661,0.0493779,0
-0.492581,0.193189,-0.36988,0.0453315,0.00780261,0.0156482,0
-0.461337,0.20665,-0.36815,0.0512575,-0.0072041,-0.0118696,0
-0.440034,0.20145,-0.350846,0.0498265,-0.023745,-0.0278323,0
-0.423812,0.171029,-0.337819,0.0530385,-0.0359074,-0.0371231,0
-0.380102,0.143302,-0.30018,0.0575159,-0.047549,-0.047376,0
-0.333607,0.138944,-0.245994,0.0595559,-0.0627106,-0.0442677,0
-0.323474,0.162634,-0.186224,0.0563298,-0.0742531,-0.0304994,0
-0.311857,0.192044,-0.113915,0.0557916,-0.0842474,-0.0315356,0
-0.284327,0.185491,-0.0390164,0.0549628,-0.0910661,-0.0506425,0
-0.259453,0.137544,0.0223914,0.0537673,-0.087669,-0.063967,0
-0.232797,0.109155,0.0763356,0.0480362,-0.0839534,-0.0662535,0
-0.205152,0.108071,0.118911,0.0373851,-0.0833842,-0.0639889,0
-0.148201,0.1198,0.155049,0.0318116,-0.0811618,-0.0667313,0
-0.0907006,0.109112,0.189701,0.024593,-0.0783471,-0.0681812,0
-0.0438603,0.0598324,0.221029,0.0214967,-0.0756749,-0.0580706,0
-0.0129216,0.0333802,0.253535,0.016756,-0.0698964,-0.0406454,0
0.00690482,0.0349234,0.266665,0.00477469,-0.0634797,-0.0171168,0
0.0481707,0.0647543,0.280065,0.000695281,-0.054248,-0.00276697,0
0.0989901,0.10042,0.291859,-0.00445796,-0.0477303,-0.00035876,0
0.128684,0.128892,0.30236,-0.00208995,-0.0369177,0.00620937,0
0.136234,0.107551,0.31551,-0.00548702,-0.0271512,0.00626385,0
0.114667,0.0846327,0.324259,-0.00584563,-0.0174834,0.0127992,0
0.101076,0.0686648,0.348502,-0.0080253,-0.0111588,0.0141091,0
0.0946639,0.0624311,0.361375,-0.012111,-0.00187327,0.0125556,0
0.0827852,0.0634089,0.375634,-0.0140672,0.00203109,0.0067513,0
0.082201,0.0373569,0.388292,-0.0149442,0.00949292,-0.00446385,0
0.0757523,-0.0032688,0.381996,-0.0192487,0.0200032,-0.0077939,0
0.0693019,-0.0263156,0.379885,-0.0215875,0.0270516,-0.00421214,0
0.0740018,-0.036491,0.364475,-0.0249517,0.0320166,-0.00094974,0
0.0521379,0.000519419,0.357787,-0.0276015,0.034192,0.0151669,0
0.0347703,-0.0155958,0.334469,-0.0308841,0.0380736,0.0103549,0
-0.00970848,-0.0203817,0.318857,-0.0279196,0.041182,0.0214729,0
-0.0335464,-0.0125351,0.325118,-0.0287201,0.0360701,0.0180565,0
-0.0503261,-0.0156683,0.300028,-0.0293746,0.042487,0.0123412,0
-0.0615193,-0.00085742,0.262896,-0.0398045,0.0433936,0.0140507,0
-0.0525916,-0.0067864,0.226388,-0.0377296,0.041335,0.00798124,0
-0.0575384,-0.0209583,0.170735,-0.0426591,0.0400038,0.0127943,0
-0.0818182,0.00240644,0.147678,-0.039051,0.0280414,0.0262791,0
-0.086534,0.0279097,0.12779,-0.0456313,0.0166704,0.0243329,0
-0.101558,0.0693754,0.0755344,-0.0507827,0.0177987,0.0186024,0
-0.110904,0.0882674,0.0309735,-0.0540186,0.00918354,0.0049873,0
-0.0836555,0.0950532,0.000896592,-0.0428931,0.00303796,-0.0216272,0
-0.0522059,0.0938986,-0.0249405,-0.0381257,-0.00397511,-0.0370483,0
-0.0314088,0.0720536,-0.0404759,-0.0328929,-0.012538,-0.0461382,0
-0.0278484,0.0254156,-0.0458054,-0.0272103,-0.0160618,-0.04435,0
-0.030627,0.00305632,-0.0544148,-0.0279481,-0.0223737,-0.0315821,0
-0.00750184,-0.0203721,-0.0650358,-0.0270344,-0.0251559,-0.0269108,0
0.00584961,-0.00999154,-0.0748915,-0.0272776,-0.025729,-0.011761,0
0.0194209,0.0282312,-0.0629451,-0.024769,-0.032671,0.0044716,0
0.0203211,0.0187719,-0.0767619,-0.0278364,-0.0284001,0.00218892,0
0.00816943,0.0155715,-0.0819405,-0.0274235,-0.0253775,0.0109845,0
0.0219198,0.00208172,-0.0835875,-0.0219784,-0.0232697,0.00239992,0
0.0255373,0.0141437,-0.0901985,-0.0175258,-0.0190969,0.00875098,0
0.0255373,0.0141437,-0.0901985,-0.0175258,-0.0190969,0.00875098,0
0.0342588,0.0326985,-0.0847981,-0.013968,-0.020362,0.010569,0
0.0243123,0.0239192,-0.0919102,-0.0129183,-0.013187,0.00963706,0
0.0239889,0.0146138,-0.0914336,-0.00799773,-0.00938261,0.0044964,0
0.0347905,0.0012155,-0.0930583,-0.00484569,-0.00831941,0.00355345,0
0.0348284,-0.00210577,-0.0928797,-0.00270902,-0.00338322,0.0126166,0
0.0308989,0.0146958,-0.0839947,-0.00249109,-0.00390396,0.0184879,0
0.025113,0.032652,-0.0776916,-0.00113015,-0.00267085,0.0272281,0
0.0176058,0.0452067,-0.0759805,-0.000234399,-0.000667304,0.0283524,0
0.00416712,0.0538197,-0.0537659,0.00387629,-0.00305954,0.0322297,0
-0.0107569,0.0594366,-0.0349613,0.00629655,-0.00260077,0.0327694,0
-0.032982,0.0711128,-0.0267068,0.000667628,-0.00159331,0.0348859,0
-0.0316738,0.0733254,-0.0197578,-0.000564598,-0.00229628,0.0292674,0
-0.0226606,0.0802893,0.00198667,0.00481782,-0.00453278,0.0220963,0
-0.018085,0.0905587,0.0312719,0.00598309,-0.0105736,0.0238519,0
-0.0364488,0.0982324,0.0488181,0.00215275,-0.0115525,0.0280747,0
-0.0378217,0.106298,0.0700733,-0.00011972,-0.0157055,0.0223901,0
-0.00716064,0.114752,0.108699,0.00543406,-0.022542,0.00678408,0
-0.0041564,0.12116,0.138636,8.00602e-05,-0.0267897,0.00714189,0
-0.018467,0.131161,0.184968,-0.00243622,-0.0332215,0.00845772,0
-0.0153658,0.129891,0.249928,0.00332889,-0.0412758,-0.00545961,0
-0.0234318,0.102972,0.309727,0.00289258,-0.043677,-0.0179572,0
-0.0600024,0.0798205,0.373212,-0.00294883,-0.0443811,-0.0195506,0
-0.0913871,0.063319,0.449168,-0.00108384,-0.0501894,-0.033821,0
-0.116095,0.0171433,0.531887,0.006846,-0.0521275,-0.0542446,0
-0.135691,-0.032507,0.59186,0.00471846,-0.0453103,-0.0676714,0
-0.106735,-0.0611086,0.629743,0.000423716,-0.0339651,-0.0890316,0
-0.046982,-0.0697538,0.632466,-0.00437997,-0.0244012,-0.0921963,0
0.0164993,-0.0652044,0.629388,-5.66989e-06,-0.0136535,-0.0812964,0
0.0560416,-0.0595103,0.620032,0.00934724,-0.00931093,-0.0553676,0
0.0757688,-0.0302797,0.620312,0.0237551,-0.00769438,-0.0278097,0
0.0878157,0.0229165,0.616223,0.0343043,-0.0052464,-0.00658602,0
0.123414,0.086929,0.615327,0.0496836,0.00161494,0.00236577,0
0.119588,0.165672,0.633226,0.06466,0.00155205,0.0122081,0
0.0762126,0.243494,0.671627,0.0908056,0.00310892,0.0194263,0
0.064398,0.251373,0.711169,0.103548,0.0071342,-0.00637788,0
0.0442506,0.204184,0.746135,0.115846,0.0155999,-0.0261312,0
0.0504008,0.124389,0.777194,0.11929,0.0195072,-0.0357513,0
0.0830599,0.0700861,0.799898,0.116676,0.0249562,-0.0269563,0
0.107966,0.0842826,0.818874,0.108608,0.0303754,-0.000644624,0
0.100093,0.14488,0.823618,0.10089,0.0315263,0.028269,0
0.117368,0.205329,0.837109,0.108251,0.032913,0.0287012,0
0.134381,0.215616,0.87584,0.121175,0.0302859,0.0194799,0
0.119059,0.168926,0.907025,0.129822,0.0303274,0.0215601,0
0.0696835,0.0995106,0.954925,0.136557,0.0213413,0.0331167,0
0.0176795,0.0241006,1.01147,0.134586,0.00375535,0.0431417,0
-0.0401512,-0.0410942,1.03599,0.118335,-0.00648323,0.0614173,0
-0.106634,-0.0440281,1.02751,0.0939565,-0.0204266,0.0818775,0
-0.178331,-0.0181917,0.999845,0.0803464,-0.0459678,0.0911193,0
-0.186567,0.00582127,0.977994,0.0818163,-0.0753771,0.0697951,0
-0.153596,0.0369117,0.944308,0.0779039,-0.0966798,0.0507109,0
-0.143649,0.046514,0.911557,0.0766111,-0.114969,0.0474949,0
-0.195182,0.0217579,0.880056,0.0697664,-0.130366,0.056208,0
-0.275363,-0.0141804,0.845772,0.0653393,-0.143065,0.0567513,0
-0.275363,-0.0141804,0.845772,0.0653393,-0.143065,0.0567513,0
-0.282384,-0.0723786,0.775142,0.0528393,-0.144371,0.0327883,0
-0.236267,-0.121254,0.6718,0.0348038,-0.140906,0.0106029,0
-0.215503,-0.144674,0.56032,0.026116,-0.148804,0.0172643,0
-0.154169,-0.118837,0.45153,0.0211323,-0.154631,0.014789,0
-0.0712038,-0.056973,0.357715,0.0262573,-0.160232,0.00521106,0
-0.00733368,-0.0160844,0.289967,0.0407453,-0.158466,-0.00313061,0
0.0188573,-0.0400028,0.229066,0.0531421,-0.156306,-0.0087828,0
0.039593,-0.128655,0.157574,0.0642297,-0.140503,-0.0129966,0
0.104241,-0.228558,0.109702,0.0691294,-0.126925,-0.014685,0
0.134466,-0.34417,0.0647253,0.0697201,-0.115308,0.0142028,0
0.069942,-0.442317,0.0144682,0.0582991,-0.105043,0.0690926,0
-0.0344076,-0.361302,-0.0707318,0.0288626,-0.0907246,0.11882,0
-0.0501199,-0.0215619,-0.167294,0.0143137,-0.0670267,0.114632,0
-0.0233421,0.326554,-0.170692,0.0340123,-0.0536651,0.0779592,0
0.00224379,0.393013,-0.114869,0.0749897,-0.0307681,0.00869811,0
-0.0285658,0.215036,-0.0878074,0.0823857,0.00647467,-0.037443,0
-0.131554,-0.0125277,-0.096119,0.0567901,0.0311429,-0.0429989,0
-0.247935,-0.0453844,-0.10791,0.0176004,0.0421302,-0.021158,0
-0.296847,0.12938,-0.0785619,-0.00701347,0.0538545,-0.0242133,0
-0.202023,0.342867,-0.0509191,-0.0234903,0.061961,-0.0687043,0
-0.0251112,0.519525,-0.0208081,-0.0345251,0.0929079,-0.119711,0
0.0618881,0.50863,-0.0050771,-0.0539012,0.113338,-0.132045,0
-0.0339783,0.411007,0.0304597,-0.0645571,0.118937,-0.0961608,0
-0.173314,0.348416,0.0975002,-0.0785796,0.12277,-0.0678161,0
-0.247402,0.355809,0.194749,-0.0689055,0.126594,-0.0767628,0
-0.258888,0.359862,0.251057,-0.0873443,0.14176,-0.0919986,0
-0.17957,0.300116,0.261742,-0.0903654,0.164241,-0.10687,0
-0.0436348,0.184259,0.237136,-0.0919755,0.174078,-0.100199,0
0.0392934,0.0931208,0.213235,-0.0873577,0.16671,-0.0441681,0
0.0930546,0.0505982,0.225106,-0.0780016,0.151354,0.0178203,0
0.0857978,0.0806862,0.28509,-0.05753,0.132483,0.0773944,0
0.0739246,0.151444,0.386776,-0.0459648,0.115586,0.114005,0
0.0858644,0.204879,0.504363,-0.0340425,0.111938,0.124251,0
0.085295,0.235458,0.640001,-0.0351574,0.109651,0.129525,0
0.0572489,0.209775,0.76209,-0.0424266,0.112929,0.127301,0
-0.0199615,0.18152,0.911314,-0.0399998,0.106783,0.132386,0
-0.0767314,0.180172,1.02798,-0.044851,0.113224,0.123321,0
-0.0569364,0.219342,1.09384,-0.035487,0.136607,0.0980331,0
-0.0884304,0.358656,1.15432,-0.0230335,0.146979,0.100696,0
-0.283486,0.576344,1.26062,-0.000159884,0.140171,0.120727,0
-0.578942,0.686432,1.39732,0.0180201,0.125289,0.0950475,0
-0.752773,0.533385,1.45211,0.0255429,0.132197,0.0099386,0
-0.751832,0.255824,1.36607,0.0169092,0.144176,-0.0619001,0
-0.694143,0.0750792,1.21424,0.00149583,0.125412,-0.0631701,0
-0.644316,0.0671663,1.07324,-0.0221284,0.0905249,-0.0250675,0
-0.61807,0.130755,0.951134,-0.0418261,0.0484756,0.00261849,0
-0.620252,0.207652,0.818215,-0.0624346,0.0157884,0.00123429,0
-0.600188,0.194094,0.635035,-0.06892,0.00697571,-0.0350273,0
-0.549071,0.150203,0.439784,-0.0740466,-0.00332854,-0.079946,0
-0.452274,0.137683,0.280852,-0.0553019,-0.0191724,-0.112648,0
-0.310341,0.124126,0.137526,-0.0468297,-0.0261741,-0.131501,0
-0.189199,0.149802,0.0184169,-0.0336943,-0.0277187,-0.118329,0
-0.090994,0.200299,-0.0313924,-0.0246843,-0.0334259,-0.106083,0
1.87382e-06,0.286106,-0.0585303,-0.0175974,-0.0264579,-0.0983542,0
1.87382e-06,0.286106,-0.0585303,-0.0175974,-0.0264579,-0.0983542,0
0.0900664,0.278832,-0.120846,-0.0374234,-0.0055064,-0.107887,0
0.131774,0.155827,-0.218285,-0.0436313,0.0105363,-0.106582,0
0.12774,-0.0519231,-0.297924,-0.0393749,0.0108561,-0.0931028,0
0.100188,-0.182308,-0.339946,-0.0199209,0.00497205,-0.0595558,0
0.0951545,-0.196843,-0.36703,-0.00209176,0.00729779,-0.0327418,0
0.127516,-0.164846,-0.390442,0.0157797,0.0187047,-0.0238406,0
0.12833,-0.106359,-0.382311,0.030436,0.020735,-0.00483268,0
0.0845998,-0.0678755,-0.393923,0.0325042,0.0239019,0.0147785,0
0.0646526,-0.0883876,-0.453944,0.0213464,0.0399039,0.00453603,0
0.0609461,-0.086543,-0.502023,0.0305527,0.0385811,-0.00382012,0
0.111285,-0.0783782,-0.512708,0.0447863,0.0285357,-0.012392,0
0.188878,-0.0644436,-0.517912,0.0533568,0.0247834,-0.0146256,0
0.250693,-0.0520036,-0.510791,0.0528136,0.0209384,-0.0012483,0
0.240407,-0.0385228,-0.475741,0.0452034,0.00593209,0.0265036,0
0.182863,-0.0604188,-0.425894,0.0435345,-0.00262076,0.0422304,0
0.121802,-0.0767722,-0.360764,0.0436968,-0.00788717,0.0480803,0
0.0322732,-0.0373169,-0.2851,0.0287104,-0.0198157,0.0516137,0
-0.0340014,-0.0182617,-0.213987,0.0360621,-0.0126905,0.036835,0
-0.0531314,-0.0548721,-0.142538,0.034947,-0.00424025,0.00355208,0
-0.0854151,-0.0735696,-0.109831,0.0112163,-0.000378322,-0.0100463,0
-0.0988632,-0.0511356,-0.116472,-0.0096295,0.00706364,-0.0196881,0
-0.0520571,0.0135058,-0.112622,-0.00861561,0.00990243,-0.047856,0
0.029968,0.027482,-0.112538,-0.0123197,0.0119369,-0.0847232,0
0.0670094,0.016193,-0.147787,-0.0206703,0.0188763,-0.095976,0
0.111655,-0.0156311,-0.158584,-0.0138981,0.0204984,-0.106365,0
0.157107,-0.0548654,-0.148827,-0.0068963,0.0160629,-0.108447,0
0.158485,-0.0636163,-0.161189,-0.0143137,0.0162366,-0.0865686,0
0.160223,-0.0541891,-0.193643,-0.0231726,0.0171535,-0.0689626,0
0.200192,-0.0148157,-0.192153,-0.0062011,0.0192138,-0.0673536,0
0.276989,-0.0127845,-0.171173,0.0087395,0.0176117,-0.0755278,0
0.30968,-0.0149265,-0.17707,0.0134347,0.0248062,-0.0607989,0
0.328845,-0.0245328,-0.200032,0.0135662,0.0260161,-0.0425059,0
0.33267,0.0121321,-0.220237,0.0127322,0.0216999,-0.0223145,0
0.374305,0.0590049,-0.233561,0.0179963,0.0214541,-0.0173928,0
0.443985,0.0932102,-0.255273,0.0270311,0.0242885,-0.0137348,0
0.501723,0.0764443,-0.280568,0.0300723,0.0287613,0.00147158,0
0.497189,0.0295782,-0.291919,0.0371465,0.0293854,0.0345395,0
0.447405,0.00775806,-0.272082,0.0356025,0.0174119,0.0704492,0
0.338137,-0.0257136,-0.241758,0.0346015,0.00737786,0.0996215,0
0.235458,-0.0833228,-0.177844,0.0368721,-0.000361875,0.102891,0
0.164792,-0.190117,-0.0967051,0.0522323,-0.00352241,0.0813677,0
0.0598472,-0.294184,-0.0442882,0.0337881,-0.00436696,0.0827537,0
-0.0267935,-0.347702,-0.0513326,0.0130002,0.0033469,0.087083,0
-0.0513623,-0.330954,-0.0795385,-0.00644077,0.00813006,0.078809,0
-0.079573,-0.280589,-0.105062,-0.0115239,0.00451094,0.0789801,0
-0.132678,-0.207611,-0.0981602,-0.0118324,-0.00407835,0.081866,0
-0.163538,-0.201972,-0.109411,-0.0186982,-0.0062317,0.0639259,0
-0.181162,-0.209197,-0.152652,-0.0253488,-0.000217456,0.0516333,0
-0.190198,-0.172183,-0.194669,-0.030641,-0.000833541,0.0608357,0
-0.157713,-0.0887514,-0.213831,-0.0347607,-0.00590272,0.0618145,0
-0.07475,-0.0633245,-0.249114,-0.0359975,-0.00124243,0.0309932,0
-0.0110675,-0.0593248,-0.295853,-0.0361951,6.88061e-06,0.0161706,0
0.00689517,-0.0518901,-0.302706,-0.0337018,-0.00848136,0.0169724,0
0.0253634,-0.0640502,-0.271621,-0.0176885,-0.0164839,0.000210822,0
0.0253634,-0.0640502,-0.271621,-0.0176885,-0.0164839,0.000210822,0
0.00601386,-0.0736911,-0.212403,-0.0141181,-0.0186277,-0.00549006,0
-0.0385999,-0.122747,-0.139741,-0.0176534,-0.027533,-0.00854069,0
-0.12168,-0.20966,-0.0780175,-0.0200806,-0.0255016,-0.0122939,0
-0.204973,-0.290751,-0.0106704,-0.0241957,-0.0275041,-0.0174557,0
-0.250441,-0.347179,0.0524394,-0.0267304,-0.0289383,-0.0356146,0
-0.256791,-0.376655,0.0858435,-0.0343009,-0.0216306,-0.0534579,0
-0.21323,-0.385963,0.0929151,-0.0414448,-0.0143424,-0.0652788,0
-0.150899,-0.369741,0.084001,-0.0467331,-0.00969356,-0.0688513,0
-0.0791647,-0.290494,0.0787312,-0.0386231,-0.00523124,-0.0628874,0
0.0263424,-0.260026,0.0312699,-0.0462717,0.00453207,-0.0668573,0
0.106666,-0.247509,0.000620637,-0.0367328,0.0110855,-0.0609177,0
0.146382,-0.23028,-0.0078783,-0.0240677,0.00745196,-0.0441294,0
0.211421,-0.221033,-0.0292096,-0.0155711,0.0158484,-0.0433825,0
0.276181,-0.21605,-0.0580005,-0.0170597,0.0246789,-0.0405865,0
0.309177,-0.186698,-0.0774337,-0.0104861,0.0278844,-0.0276799,0
0.336869,-0.135274,-0.0659956,0.00547519,0.026522,-0.0171357,0
0.357097,-0.103869,-0.0419698,0.00931461,0.0266485,-0.0181358,0
0.353515,-0.113012,-0.00526601,0.0192588,0.0313456,-0.0167117,0
0.314479,-0.144012,0.0334376,0.0224549,0.0326054,-0.00422388,0
0.284037,-0.165494,0.0655879,0.0189525,0.0361641,-0.000134945,0
0.273613,-0.184694,0.0756203,0.0090546,0.0415363,0.00668883,0
0.272409,-0.196093,0.0766302,0.00627154,0.0496609,0.0135587,0
0.238909,-0.142074,0.08221,0.00912222,0.0495824,0.0360858,0
0.205616,-0.0404461,0.116483,0.0105209,0.0457594,0.0431674,0
0.173845,0.0165975,0.141638,0.0173622,0.0521439,0.03203,0
0.122075,0.00259961,0.153206,0.0159288,0.0566142,0.0188184,0
0.0902497,-0.0819209,0.13718,0.0152089,0.0627915,-0.00255901,0
0.0806945,-0.16119,0.106689,0.00977516,0.0594433,-0.00442469,0
0.106491,-0.147391,0.0587866,-0.00195614,0.0479264,0.000978291,0
0.145554,-0.0945621,-0.0280345,-0.0198781,0.0431928,0.00588411,0
0.187707,-0.0183474,-0.111569,-0.0206719,0.0356566,0.010805,0
0.263479,0.023312,-0.16967,-0.00896937,0.0292378,0.00655836,0
0.314885,0.00419543,-0.212359,0.00113091,0.0175966,0.0103973,0
0.273521,-0.0501238,-0.246129,0.00583258,0.0101041,0.0388754,0
0.203764,-0.0418439,-0.228171,0.0172888,-0.00813837,0.065735,0
0.180312,-0.00733022,-0.163412,0.0241894,-0.0248731,0.0609421,0
0.238681,0.0180314,-0.0905167,0.035898,-0.0261521,0.0293518,0
0.263627,0.00962082,-0.050556,0.0284936,-0.0201694,0.0139985,0
0.165497,-0.0204489,-0.011421,0.0227005,-0.0232398,0.0417595,0
0.04463,-0.0623963,0.0377025,0.0264409,-0.0302924,0.0430843,0
-0.0162197,-0.113673,0.0840973,0.0244781,-0.0326295,0.0192057,0
-0.0330354,-0.145498,0.135979,0.0273921,-0.0353776,0.00230247,0
-0.0398628,-0.189295,0.174943,0.0224977,-0.0361899,-0.000401735,0
-0.0574511,-0.256435,0.176832,0.0088229,-0.0317406,0.00721675,0
-0.0894538,-0.263258,0.188751,-0.00322433,-0.0353344,0.031907,0
-0.057759,-0.170966,0.201817,-0.00794783,-0.0427827,0.0376864,0
0.0491395,-0.0443271,0.190645,-0.0167464,-0.0362217,0.0239176,0
0.143392,0.0773147,0.15637,-0.0273451,-0.0244934,0.0197868,0
0.177406,0.140861,0.140739,-0.0250671,-0.0182941,0.0210842,0
0.142797,0.123264,0.1454,-0.0155637,-0.0123339,0.0242487,0
0.100997,0.0751293,0.201695,0.00991417,-0.0160159,0.0124226,0
0.0254537,0.0358711,0.250166,0.0106444,-0.018953,0.0112469,0
-0.0121365,0.0369815,0.287184,0.0107364,-0.0119445,0.00628525,0
0.00312424,0.0541641,0.303205,0.00783807,-0.00606562,-0.0220526,0
0.00312424,0.0541641,0.303205,0.00783807,-0.00606562,-0.0220526,0
0.0321285,0.0417352,0.285988,0.00461379,0.0047785,-0.0402929,0
0.0260736,0.0186788,0.265039,0.00629357,0.00747803,-0.0392534,0
0.0101629,-0.012375,0.252241,0.0114141,0.00268418,-0.0298773,0
-0.0229489,-0.0382764,0.234775,0.0107918,0.00158434,-0.020373,0
-0.0107301,-0.058018,0.192859,0.00546171,0.00109015,-0.0204622,0
0.0165422,-0.0471036,0.156613,0.00798871,-0.00357145,-0.0214074,0
0.0160588,-0.00722862,0.140429,0.00899129,-0.0162807,-0.00852877,0
0.00592672,0.0212106,0.119152,0.00499332,-0.0226946,-0.00430816,0
0.0222212,0.0518242,0.09836,0.00765191,-0.0214483,-0.0166652,0
0.0559813,0.0553914,0.0858079,0.0116745,-0.0207259,-0.036039,0
0.0641287,0.0437581,0.0648962,0.0159431,-0.0209344,-0.0332525,0
0.055341,0.0299058,0.0564269,0.015467,-0.01979,-0.020296,0
0.0715445,0.0142889,0.0296891,0.00874788,-0.0180292,-0.0158993,0
0.0887302,0.0151448,-0.00593994,0.00216731,-0.0145913,-0.00562662,0
0.0983086,0.0498383,-0.0276152,-0.00182685,-0.0199829,0.0101342,0
0.109613,0.0843826,-0.0437088,3.92497e-05,-0.0239196,0.0165789,0
0.123819,0.103327,-0.0498215,0.00365263,-0.0277172,0.0128339,0
0.125311,0.104886,-0.0358906,0.00835613,-0.0292862,0.0075267,0
0.10088,0.0899547,-0.0235165,0.00489562,-0.0279963,0.00993913,0
0.0689693,0.0650307,-0.00763814,0.00750828,-0.0244659,0.007734,0
0.0613081,0.0418226,0.00849449,0.00415505,-0.0223821,0.00366235,0
0.0586772,0.04635,0.0155201,-0.00423905,-0.0206054,0.0029465,0
0.0557316,0.0434147,0.0259553,-0.00949222,-0.020342,0.00446141,0
0.0277627,0.0348843,0.0339167,-0.0179039,-0.0198673,0.00824785,0
0.0225604,0.00899954,0.0337176,-0.019288,-0.017084,0.00249952,0
0.0350008,-0.0129447,0.029696,-0.0257567,-0.012093,-0.00318539,0
0.039862,-0.0171986,0.0150573,-0.0322947,-0.00948629,0.00664967,0
0.029643,-0.0131311,-0.00740853,-0.0410616,-0.0107524,0.0228919,0
0.0293337,-0.00859948,-0.0155485,-0.0367298,-0.0130159,0.0244731,0
0.0319742,-0.00880304,-0.0112145,-0.032849,-0.0176436,0.0280503,0
0.0133914,-0.0059821,-0.0156233,-0.0274687,-0.0158117,0.0317343,0
-0.0145619,0.00160442,-0.0350458,-0.0367015,-0.0116032,0.0345656,0
0.00311651,0.00977638,-0.0553917,-0.0341287,-0.00646076,0.0130749,0
0.0258496,0.00926884,-0.0821942,-0.033919,-0.00278524,-0.00519025,0
0.00855629,-0.00767736,-0.108962,-0.0336827,-0.00226399,-0.00441909,0
0.00579602,-0.0380918,-0.131544,-0.0246097,-0.00255162,-0.0114776,0
0.0209445,-0.0465279,-0.129592,-0.0164433,-0.0059851,-0.0191524,0
0.0456626,-0.060555,-0.137259,-0.00855391,-0.00570966,-0.0265222,0
0.0601762,-0.0799049,-0.154211,-0.00939599,-0.00169529,-0.0231319,0
0.0798431,-0.0986937,-0.163186,-0.00261564,-0.00307545,-0.0186026,0
0.0794893,-0.115,-0.151412,0.00527218,-0.00565115,-0.00373584,0
0.0495319,-0.111523,-0.134643,0.0091325,-0.00979389,0.0133141,0
0.0314101,-0.10801,-0.130284,0.00748932,-0.00774178,0.0181007,0
0.0350512,-0.0941655,-0.119049,0.00934018,-0.00284646,0.00977832,0
0.0483644,-0.0882873,-0.115359,0.00483868,-0.000287354,0.00246119,0
0.0379678,-0.0978013,-0.139165,4.17233e-06,0.00782318,0.00224751,0
0.0276455,-0.106715,-0.153636,0.00147593,0.00906155,0.00132436,0
0.0316932,-0.112117,-0.141012,0.0126223,0.00643133,-0.00443602,0
0.0172257,-0.118081,-0.123168,0.0125709,0.0035533,0.00133497,0
-0.0054119,-0.135828,-0.144366,0.00693056,0.0123891,0.0042153,0
-0.00145823,-0.128329,-0.155677,0.00626986,0.0150356,0.00424802,0
0.024861,-0.126555,-0.153737,0.0157827,0.0128173,-0.00106245,0
0.0291848,-0.142903,-0.150007,0.0171605,0.0152113,0.00491422,0
-0.00443842,-0.157017,-0.148279,0.0175284,0.016353,0.0249001,0
-0.00443842,-0.157017,-0.148279,0.0175284,0.016353,0.0249001,0
-0.0159158,-0.171408,-0.146936,0.0150724,0.0158925,0.0352184,0
-0.0259672,-0.142284,-0.134099,0.0184091,0.0139688,0.0450162,0
-0.0346069,-0.120082,-0.128436,0.0170818,0.0103807,0.0482853,0
-0.0557971,-0.116445,-0.120374,0.0152778,0.0103931,0.0460336,0
-0.0839501,-0.134139,-0.109655,0.0164705,0.0078146,0.0420442,0
-0.120824,-0.129767,-0.0964516,0.0117138,0.00533107,0.0435792,0
-0.123246,-0.108935,-0.104707,0.00252798,0.00548689,0.0310704,0
-0.12206,-0.0670726,-0.108979,0.000676677,0.00748353,0.0185425,0
-0.118514,-0.0358454,-0.103233,0.00122966,0.00456512,0.00027597,0
-0.119858,-0.05013,-0.115931,-0.000530586,0.00854878,-0.0201359,0
-0.118005,-0.0814137,-0.122154,0.00346543,0.011723,-0.0393264,0
-0.105725,-0.111367,-0.116885,0.00972261,0.00856294,-0.0511495,0
-0.0841149,-0.125439,-0.127521,0.00712416,0.0119731,-0.0521299,0
-0.0541629,-0.119031,-0.154641,-0.000155374,0.013539,-0.05121,0
-0.00781198,-0.113592,-0.179427,0.00371708,0.0153612,-0.0488176,0
0.0192516,-0.096666,-0.181193,0.0157884,0.0129326,-0.0397324,0
0.0270256,-0.104632,-0.169208,0.0262403,0.00690787,-0.0292085,0
-0.000304832,-0.120205,-0.156112,0.0343028,0.00872537,-0.0128025,0
-0.0171354,-0.130567,-0.143978,0.0322711,0.00638938,-0.00173348,0
-0.00287341,-0.112825,-0.13905,0.0301874,0.00999421,0.00152731,0
0.0135535,-0.0832567,-0.149501,0.0254322,0.0147843,0.000140309,0
0.0177427,-0.0534133,-0.157299,0.0230017,0.0165636,0.00599027,0
0.00770885,-0.0401284,-0.153489,0.0265661,0.0130591,0.00353426,0
-0.0173049,-0.0435871,-0.13587,0.0326831,0.0100892,-0.00364733,0
-0.0371865,-0.0414641,-0.132588,0.0293368,0.0123899,-0.0116255,0
-0.0269807,-0.0537986,-0.133988,0.02915,0.0154706,-0.0265942,0
0.00133472,-0.0819202,-0.132706,0.0360126,0.0140132,-0.0333537,0
0.00632808,-0.105504,-0.131789,0.03378,0.0103738,-0.0192364,0
-0.019828,-0.10435,-0.1415,0.0264196,0.00940886,0.00897229,0
-0.0226808,-0.0868404,-0.14906,0.0214656,0.00436747,0.0216119,0
-0.00267715,-0.0631288,-0.152755,0.022007,0.000807494,0.0257627,0
-0.00332104,-0.0386908,-0.156812,0.0175877,-0.00267687,0.0358987,0
-0.0369907,-0.0253798,-0.158856,0.0126893,-0.00627518,0.0468404,0
-0.0575969,-0.0349908,-0.149042,0.0154827,-0.012234,0.0391761,0
-0.0748524,-0.0335133,-0.133563,0.0142925,-0.0161307,0.0326167,0
-0.0904046,-0.0227859,-0.118208,0.009094,-0.0174038,0.0284242,0
-0.113944,0.00109059,-0.118252,-0.00272372,-0.0164463,0.0238559,0
-0.108809,0.0151089,-0.125538,-0.0152445,-0.013743,0.00184673,0
-0.101698,-0.019752,-0.121005,-0.0135629,-0.0135444,-0.025658,0
-0.149381,-0.0639096,-0.108471,-0.00685327,-0.0142929,-0.0292173,0
-0.13802,-0.0641957,-0.116347,-0.0114385,-0.00706773,-0.0567286,0
-0.044339,-0.0310833,-0.134382,-0.010368,-0.000352368,-0.0924258,0
0.0704966,-0.000282199,-0.170802,-0.0118045,0.00715986,-0.108136,0
0.167037,-0.0163197,-0.186781,0.00844537,0.00919196,-0.106476,0
0.199474,-0.0614875,-0.157759,0.0371102,0.00348407,-0.0796604,0
0.184971,-0.0897857,-0.10739,0.056375,-0.00178933,-0.0397127,0
0.167672,-0.0753158,-0.058083,0.061372,-0.00123675,-0.00656134,0
0.170367,-0.0214559,-0.00610812,0.0692598,0.00466588,0.0127559,0
0.170613,0.0440447,0.0463921,0.074132,0.00974889,0.0185409,0
0.147639,0.0599973,0.0929935,0.0787477,0.0169751,0.0197745,0
0.0932805,0.0364166,0.137389,0.0811928,0.0229988,0.0180664,0
0.0551398,0.00970368,0.167643,0.0849862,0.0267296,0.0119257,0
0.0342592,0.0054568,0.200483,0.0859176,0.0291401,0.00596756,0
0.0342592,0.0054568,0.200483,0.0859176,0.0291401,0.00596756,0
0.0182648,0.0357715,0.216878,0.0818414,0.0318732,0.00439793,0
0.0280475,0.0674243,0.226301,0.0818659,0.0338451,0.000430524,0
0.0338138,0.0900674,0.218037,0.0783132,0.0385161,0.00625777,0
0.0278989,0.121513,0.208023,0.0761607,0.0366772,0.0178114,0
0.0225791,0.164144,0.195988,0.0794916,0.0295143,0.0281472,0
0.0459476,0.221669,0.210652,0.0871132,0.0172616,0.0245486,0
0.0822961,0.275144,0.221768,0.0924109,0.00752307,0.0180956,0
0.0966986,0.290957,0.233415,0.0977915,0.00175962,0.014152,0
0.0794175,0.324263,0.267066,0.103646,-0.0108441,0.0154719,0
0.067046,0.370497,0.329919,0.118788,-0.0217243,0.00763243,0
0.0676974,0.398991,0.424324,0.134761,-0.0284574,-0.0152266,0
0.0441924,0.404261,0.535406,0.146427,-0.0310738,-0.0328631,0
-0.000771439,0.366577,0.636442,0.146104,-0.0271846,-0.0461697,0
-0.0504458,0.293854,0.724404,0.14858,-0.0190247,-0.056769,0
-0.0553553,0.245251,0.799796,0.143293,-0.0109343,-0.0697638,0
-0.0579801,0.280149,0.859357,0.135254,-0.00508265,-0.0586067,0
-0.0595793,0.359604,0.910765,0.133661,-0.00358854,-0.0483195,0
-0.0428266,0.402136,0.980546,0.141728,-0.00855096,-0.0564413,0
-0.0279386,0.382107,1.03879,0.156159,-0.00852448,-0.0662729,0
-0.0167689,0.353913,1.08432,0.156481,-0.00689784,-0.0595055,0
-0.023797,0.343239,1.1348,0.160807,-0.0124811,-0.0386868,0
-0.0180871,0.369233,1.20289,0.166801,-0.0217391,-0.0130705,0
-0.00900964,0.415794,1.26634,0.161825,-0.0290517,0.00709152,0
-0.00431917,0.445258,1.30525,0.1492,-0.0273833,0.023252,0
-0.071804,0.491432,1.35841,0.146438,-0.0319489,0.0422353,0
-0.156544,0.510838,1.39061,0.135672,-0.0404023,0.0342461,0
-0.188327,0.471152,1.43931,0.154336,-0.0403173,-0.00892711,0
-0.158278,0.41462,1.478,0.165125,-0.0420629,-0.0607669,0
-0.108611,0.333561,1.48499,0.164577,-0.0328924,-0.0725391,0
-0.0318964,0.28041,1.4779,0.164331,-0.03383,-0.0677697,0
0.0771502,0.259533,1.47056,0.167336,-0.0372313,-0.0502996,0
0.153851,0.25718,1.47283,0.162511,-0.0387162,-0.000742972,0
0.191985,0.249718,1.47541,0.15397,-0.0412936,0.0526005,0
0.150328,0.250659,1.48878,0.142069,-0.0456069,0.100882,0
0.0100815,0.288797,1.53211,0.139624,-0.0593757,0.133163,0
-0.104188,0.342865,1.57819,0.13174,-0.0632977,0.0926034,0
-0.152628,0.385652,1.58081,0.125578,-0.0439149,0.00983542,0
-0.0922655,0.429993,1.56592,0.0899297,-0.0221707,-0.0730584,0
0.131581,0.401839,1.56144,0.0806666,-0.000664487,-0.172254,0
0.345904,0.32555,1.54012,0.0637229,0.0217246,-0.197267,0
0.436135,0.261231,1.49836,0.0399063,0.0401528,-0.154805,0
0.456545,0.338461,1.4428,0.0163679,0.0547746,-0.0886483,0
0.524427,0.489479,1.42999,0.018519,0.0708803,-0.0692912,0
0.595579,0.631471,1.46836,0.041608,0.0827498,-0.0703744,0
0.581099,0.652601,1.51933,0.0534593,0.100637,-0.0570251,0
0.434226,0.608657,1.56466,0.0525993,0.118394,-0.0203764,0
0.275501,0.521062,1.62218,0.040713,0.127535,0.00192225,0
0.17582,0.443519,1.67403,0.0245042,0.136182,0.00816011,0
0.120011,0.440857,1.71808,0.000577913,0.141648,0.0155823,0
0.0454379,0.513266,1.68891,-0.0496963,0.156588,0.0304929,0
-0.0109307,0.605023,1.59693,-0.0865975,0.177373,0.0220209,0
0.00547494,0.638528,1.47691,-0.111682,0.191734,-0.0142691,0
0.0511503,0.591232,1.36434,-0.113693,0.204029,-0.0445468,0
0.0450918,0.522772,1.23482,-0.127362,0.198665,-0.0286656,0
0.0450918,0.522772,1.23482,-0.127362,0.198665,-0.0286656,0
0.00376542,0.483466,1.10601,-0.137798,0.187746,0.00695598,0
0.0215798,0.477603,1.01742,-0.132784,0.164699,0.016718,0
0.0845071,0.45061,0.958021,-0.115008,0.141526,0.0179244,0
0.0911872,0.401678,0.917039,-0.110205,0.120669,0.0547879,0
0.0331218,0.364165,0.905094,-0.106848,0.0995767,0.101656,0
-0.0468026,0.358008,0.932235,-0.10228,0.0760619,0.130647,0
-0.112548,0.337669,0.971394,-0.101663,0.0570839,0.127066,0
-0.19453,0.310707,1.02277,-0.0946634,0.04556,0.120997,0
-0.278569,0.29693,1.08694,-0.0802308,0.0289573,0.109502,0
-0.313873,0.287543,1.17174,-0.0607063,0.0131585,0.0804099,0
-0.329445,0.227874,1.25663,-0.041267,-0.00362058,0.0519713,0
-0.359414,0.127278,1.35446,-0.0198392,-0.0149967,0.0374292,0
-0.400059,0.0293801,1.44035,-0.0150247,-0.0268567,0.047207,0
-0.427476,-0.0331055,1.50851,-0.0194972,-0.0325952,0.0554044,0
-0.40078,-0.0571014,1.53397,-0.0369032,-0.0314426,0.0524052,0
-0.366851,-0.0202343,1.52983,-0.0567287,-0.0376746,0.0493686,0
-0.372227,-0.0176282,1.54959,-0.0610676,-0.053113,0.0295764,0
-0.425644,-0.0611568,1.56439,-0.0546291,-0.0673015,0.00322831,0
-0.442799,-0.156839,1.54942,-0.0644805,-0.0697361,-0.0524418,0
-0.41521,-0.291253,1.49068,-0.0775732,-0.0581266,-0.119503,0
-0.503892,-0.479492,1.44933,-0.0881258,-0.0844277,-0.141772,0
-0.654117,-0.327164,1.50896,-0.0819772,-0.104144,-0.134183,0
-0.625649,0.0478767,1.70927,-0.0312397,-0.121232,-0.238664,0
-0.566824,0.1933,1.83176,-0.0349014,-0.105389,-0.37026,0
-0.482095,0.0792185,1.74667,-0.0771102,-0.0502226,-0.485078,0
-0.22677,-0.193425,1.56287,-0.0788521,-0.0155757,-0.568692,0
0.138344,-0.496168,1.34518,-0.0455645,-0.00309552,-0.544471,0
0.459116,-0.651982,1.15682,-0.0150897,0.0209899,-0.396132,0
0.611753,-0.632282,0.957979,0.01964,0.0249005,-0.19819,0
0.705814,-0.49237,0.770327,0.0654542,0.0381731,-0.0476012,0
0.812448,-0.374898,0.631674,0.12602,0.0498303,0.0537336,0
0.903016,-0.336805,0.566019,0.201738,0.0618123,0.145667,0
0.882931,-0.263643,0.604212,0.260685,0.0632288,0.262018,0
0.839535,-0.191869,0.68734,0.274614,0.0535893,0.348998,0
0.748513,-0.0807009,0.780366,0.274006,0.0610138,0.423937,0
0.651114,0.0729168,0.870477,0.259452,0.0647413,0.480999,0
0.501092,0.259762,0.976574,0.239414,0.0642152,0.524162,0
0.325013,0.407412,1.09324,0.214199,0.054908,0.535274,0
0.126501,0.458943,1.2103,0.191278,0.0503189,0.510923,0
-0.151653,0.435265,1.32107,0.160773,0.0399929,0.476164,0
-0.458322,0.394043,1.40278,0.119716,0.0229003,0.428766,0
-0.758998,0.372819,1.42919,0.0722495,0.000405952,0.357486,0
-0.919246,0.33643,1.42643,0.0310441,-0.0206186,0.253206,0
-0.920981,0.263421,1.37333,-0.00279497,-0.0419204,0.129873,0
-0.848253,0.167691,1.26466,-0.0436949,-0.0674527,0.0434735,0
-0.697381,0.0690148,1.10624,-0.0893435,-0.0915323,-0.0468631,0
-0.611801,0.0617173,0.87583,-0.153991,-0.118058,-0.0855754,0
-0.630043,0.278048,0.664381,-0.217314,-0.160282,-0.112429,0
-0.505981,0.491742,0.472066,-0.252855,-0.192174,-0.227624,0
-0.249785,0.578994,0.261069,-0.244752,-0.197137,-0.378387,0
-0.0197131,0.43484,0.0580488,-0.246295,-0.200438,-0.454682,0
-0.0206657,0.202141,-0.0498116,-0.224147,-0.234799,-0.452385,0
-0.188727,0.18243,-0.0579109,-0.207974,-0.260246,-0.423697,0
-0.275406,0.286711,-0.0326736,-0.21376,-0.265402,-0.469061,0
-0.275406,0.286711,-0.0326736,-0.21376,-0.265402,-0.469061,0
-0.0923855,0.258991,-0.131743,-0.220975,-0.215065,-0.580654,0
0.274128,-0.0378685,-0.33392,-0.212197,-0.133108,-0.647751,0
0.563846,-0.29223,-0.515277,-0.189039,-0.0988499,-0.557559,0
0.782682,-0.489524,-0.626961,-0.163626,-0.0844671,-0.410522,0
0.952726,-0.6156,-0.712683,-0.133317,-0.0537993,-0.257486,0
1.03321,-0.689386,-0.780279,-0.107169,-0.0228046,-0.108188,0
0.990082,-0.722292,-0.848435,-0.0799054,0.0144731,0.0396239,0
0.907102,-0.656327,-0.91244,-0.0680763,0.0464512,0.131633,0
0.829824,-0.479024,-0.972103,-0.0593905,0.0747984,0.175683,0
0.799199,-0.232788,-1.02718,-0.0677856,0.100369,0.176788,0
0.857174,-0.0263339,-1.0796,-0.067697,0.138019,0.130572,0
0.970505,0.189441,-1.09906,-0.0499843,0.177864,0.0745205,0
1.06998,0.266172,-1.12803,-0.0444743,0.210135,0.0471917,0
1.08731,0.178111,-1.27698,-0.0297747,0.25849,0.0251302,0
0.853067,-0.111473,-1.32552,-0.032961,0.318373,0.0821604,0
0.802521,-0.11757,-1.18227,0.0716496,0.235109,0.120495,0
0.331045,-0.714841,-1.28291,0.00379509,0.330067,0.203526,0
0.0910813,-0.860172,-1.08891,0.144125,0.267034,0.27946,0
0.304143,-0.726254,-0.943759,0.100297,0.21827,0.170655,0
0.209824,-0.207003,-0.799108,0.133117,0.289493,0.311243,0
0.183178,-0.00686756,-0.740629,0.108952,0.246778,0.295591,0
0.21015,0.0172808,-0.693538,0.125431,0.236312,0.252552,0
0.236364,-0.106997,-0.663464,0.134684,0.206333,0.234088,0
0.173886,-0.126637,-0.664658,0.118009,0.187447,0.245096,0
0.0379812,-0.0379296,-0.666576,0.119124,0.134977,0.269422,0
-0.588334,-0.39727,-0.631202,0.0679802,0.0537846,0.279748,0
-1.29423,-0.747057,-0.351628,0.175928,-0.0743124,0.195668,0
-1.72313,-0.716847,-0.0370703,0.251983,-0.175725,0.0529871,0
-1.45603,-0.337274,0.340614,0.223232,-0.202241,-0.203016,0
-0.9399,-0.109731,0.563676,0.154231,-0.199056,-0.40581,0
-0.458894,0.150536,0.528914,0.0964687,-0.192118,-0.447683,0
-0.104894,0.512686,0.476178,0.109056,-0.13187,-0.404769,0
-0.0176483,0.848783,0.620596,0.0941415,-0.136581,-0.381131,0
-0.192771,0.961153,0.847337,0.106311,-0.1191,-0.346202,0
-0.316251,0.816384,0.854382,0.0823478,-0.0549024,-0.369068,0
-0.20508,0.604292,0.691074,0.0868552,0.0046123,-0.397047,0
-0.000488508,0.367105,0.505352,0.121485,0.0339302,-0.353347,0
0.262893,0.187607,0.393101,0.172668,0.0393885,-0.23903,0
0.626459,0.276277,0.347908,0.225462,0.0490847,-0.133778,0
0.86615,0.557436,0.408454,0.294519,0.017988,0.0353876,0
0.77378,0.838715,0.632547,0.287735,0.0243026,0.142035,0
0.567177,1.18867,0.996821,0.40128,-0.0142524,0.201904,0
0.425182,1.46052,1.36888,0.362463,-0.0338047,0.209324,0
0.358489,1.15319,1.5487,0.310672,0.00648361,0.177572,0
0.600236,-0.280634,1.68485,0.294956,0.142654,0.0483728,0
0.682721,-0.175473,1.42676,0.178389,0.442733,0.121011,0
0.235625,-0.0645765,1.22405,0.0340661,0.0338778,0.24721,0
-0.13186,-0.413005,1.74636,0.216168,0.182656,0.316735,0
-0.460876,-0.590458,1.97357,0.139887,0.0905125,0.285665,0
-0.493844,-0.432227,2.00768,0.0727674,0.141122,0.238276,0
-0.242244,-0.241096,1.82762,-0.0526406,0.172979,0.20683,0
-0.0288367,0.131409,1.59712,-0.0639153,0.111303,0.161169,0
0.132831,0.408388,1.38823,-0.088876,0.102249,0.125802,0
0.321934,0.572207,1.10389,-0.130897,0.0835867,0.052178,0
0.321934,0.572207,1.10389,-0.130897,0.0835867,0.052178,0
0.565861,0.646524,0.831617,-0.132019,0.0475058,0.0206892,0
0.669255,0.66726,0.548841,-0.132184,0.0110608,0.0760943,0
0.659227,0.616156,0.278353,-0.161152,-0.0201873,0.110362,0
0.507068,0.418231,-0.0407507,-0.184514,-0.046178,0.0716047,0
0.184939,0.221367,-0.2378,-0.169458,-0.0829972,0.0132844,0
-0.171484,0.38063,-0.2711,-0.13626,-0.141168,-0.066398,0
-0.511977,0.520778,-0.179893,-0.0663534,-0.206236,-0.14213,0
-0.675768,0.492057,-0.297491,-0.106352,-0.157211,-0.186554,0
-0.724891,0.436531,-0.364611,-0.150569,-0.141451,-0.217395,0
-0.587256,0.433168,-0.38088,-0.0827654,-0.157082,-0.254548,0
-0.213079,0.190527,-0.362376,-0.0750762,-0.173278,-0.354363,0
0.066097,-0.416108,-0.127498,-0.0681105,-0.20456,-0.39992,0
0.335842,-0.689459,-0.0717688,-0.198258,-0.213485,-0.306137,0
0.678935,-0.233333,-0.359403,-0.332387,-0.159153,-0.315227,0
1.09654,0.701415,-0.832433,-0.268256,-0.0754943,-0.277665,0
1.33651,0.901604,-0.998654,-0.130696,0.139482,-0.118164,0
1.23048,0.42375,-0.750018,0.0461782,0.173069,0.0396587,0
1.0209,0.209959,-0.384589,0.138772,0.217331,0.166214,0
0.877662,0.0533208,0.0805717,0.131137,0.233814,0.20008,0
0.853924,-0.128159,0.549846,0.0686977,0.162553,0.173722,0
0.877609,-0.411283,0.833488,0.0287289,0.113216,0.165881,0
0.917806,-0.765294,0.721569,-0.0199423,0.0684819,0.168055,0
0.874222,-0.897737,0.177617,-0.0931033,0.0632427,0.184945,0
0.638285,-0.821276,-0.324272,-0.0829337,0.0661612,0.225848,0
0.251351,-0.496836,-0.615816,-0.0284023,0.0887432,0.262998,0
-0.155498,-0.0886159,-0.792466,0.0122148,0.137923,0.277785,0
-0.47734,0.16023,-0.902401,0.0537806,0.153857,0.267886,0
-0.695435,0.252146,-0.964014,0.106188,0.13632,0.238236,0
-0.850343,0.269803,-0.981143,0.136797,0.111127,0.211873,0
-0.965482,0.292887,-0.971539,0.141937,0.0887252,0.179622,0
-1.00997,0.327025,-0.896646,0.155192,0.0705425,0.140206,0
-0.959101,0.303624,-0.737648,0.197513,0.0428278,0.0903865,0
-0.84192,0.218635,-0.516636,0.243934,0.020636,0.0522097,0
-0.704417,0.178365,-0.247176,0.281305,0.00505644,0.0138636,0
-0.586546,0.117075,0.033325,0.299515,-0.0174396,-0.0330614,0
-0.576147,-0.0217165,0.278276,0.303789,-0.0422098,-0.0641357,0
-0.669172,-0.00657961,0.49028,0.29893,-0.0714273,-0.105679,0
-0.763429,0.124943,0.679958,0.306578,-0.119837,-0.175608,0
-0.787742,0.144477,0.832002,0.290692,-0.127452,-0.250678,0
-0.728914,0.0255756,0.937762,0.296732,-0.140839,-0.314205,0
-0.616283,-0.0122951,1.02254,0.319995,-0.143368,-0.359472,0
-0.487605,0.193766,1.10375,0.343593,-0.126163,-0.38336,0
-0.425435,0.472791,1.22008,0.360529,-0.0646753,-0.34091,0
-0.424614,0.759827,1.43201,0.382669,-0.00584982,-0.266298,0
-0.355161,1.01095,1.72029,0.392778,0.0379406,-0.194123,0
-0.180871,1.21842,2.00323,0.386389,0.0757959,-0.11207,0
-0.0381206,1.25317,2.23781,0.371481,0.110291,-0.00523865,0
-0.0587758,1.07411,2.45196,0.369038,0.122885,0.107955,0
-0.257717,0.718476,2.65681,0.360997,0.12876,0.190376,0
-0.4561,0.208985,2.83058,0.324755,0.145885,0.2087,0
-0.490727,-0.191829,2.96646,0.263266,0.188333,0.136943,0
-0.375626,-0.412011,3.0066,0.198685,0.232852,0.0425804,0
-0.138313,-0.301554,2.97886,0.158647,0.261816,-0.0492197,0
0.110894,0.0559575,2.95518,0.144055,0.293106,-0.0810903,0
0.110894,0.0559575,2.95518,0.144055,0.293106,-0.0810903,0
0.314186,0.551128,2.99638,0.157764,0.307095,-0.0613392,0
0.382861,0.907979,2.98447,0.157814,0.267775,0.0214646,0
0.258458,0.975959,2.85473,0.12157,0.209875,0.134413,0
0.110047,0.903452,2.61861,0.0623483,0.134993,0.173298,0
0.06729,0.710453,2.25606,0.0190889,0.0557961,0.157118,0
0.129958,0.420708,1.83397,0.0257803,0.00405511,0.121636,0
0.177402,0.129878,1.44782,0.0692098,-0.00470078,0.0971926,0
0.117782,0.0518086,1.19347,0.116335,0.0337259,0.0690231,0
0.0550953,0.206442,1.07006,0.139479,0.0865067,0.00875783,0
0.112282,0.511231,1.01611,0.137008,0.121173,-0.059284,0
0.249087,0.786004,0.973236,0.0960664,0.149587,-0.0994314,0
0.340953,0.949276,0.904474,0.0537806,0.166774,-0.0747007,0
0.277826,0.953806,0.753577,0.0060649,0.149994,-0.0136244,0
0.0535246,0.932072,0.494312,-0.0385422,0.118329,0.0448911,0
-0.238453,0.990855,0.219941,-0.0701839,0.100675,0.0649984,0
-0.53521,1.12239,0.0142379,-0.0736779,0.0962252,0.0672354,0
-0.787193,1.18153,-0.0116966,-0.0356158,0.0817502,0.0526642,0
-0.980231,1.06939,0.00929165,-0.0300902,0.053629,0.0196252,0
-1.20382,0.73287,-0.0975585,-0.069604,0.0188452,-0.0176967,0
-1.50254,0.291056,-0.266018,-0.0887862,-0.0315386,-0.0588132,0
-1.63659,-0.0693806,-0.286792,-0.044106,-0.0512678,-0.168755,0
-1.34245,-0.200204,-0.0915043,-0.0083763,0.0110769,-0.341188,0
-0.690793,0.013873,0.317369,-0.00188847,0.115546,-0.469935,0
0.0181127,0.365948,0.887783,-0.000918448,0.177218,-0.44978,0
0.59572,0.547899,1.38703,-0.045568,0.178578,-0.301592,0
0.925445,0.426575,1.61642,-0.157444,0.132609,-0.113916,0
0.974128,0.175558,1.54071,-0.293425,0.0690339,0.0451307,0
0.809121,-0.137677,1.19742,-0.399582,0.00530677,0.15707,0
0.524104,-0.435756,0.65481,-0.438377,-0.0599764,0.217791,0
0.151892,-0.674407,0.0487033,-0.403319,-0.0985291,0.24903,0
-0.241033,-0.757167,-0.456146,-0.314287,-0.0959095,0.252288,0
-0.530211,-0.652859,-0.737675,-0.215972,-0.0499478,0.217929,0
-0.615886,-0.575415,-0.78804,-0.116178,0.0082361,0.170384,0
-0.429339,-0.617467,-0.657063,-0.00752527,0.0284993,0.116687,0
-0.0560996,-0.692132,-0.499364,0.0421765,0.0390082,0.0778957,0
0.322612,-0.623828,-0.397802,0.0293087,0.0462643,0.0501553,0
0.474408,-0.402375,-0.361235,0.0121795,0.0304496,0.0876478,0
0.397941,-0.22926,-0.373559,0.000237659,0.00183533,0.162003,0
0.274659,-0.0929074,-0.398063,-0.0124202,-0.0066216,0.208903,0
0.155946,-0.255434,-0.388571,-0.0293118,0.000596419,0.229626,0
0.0702111,0.274073,-0.223484,0.0225245,0.0546529,0.18935,0
-0.0647201,-0.0676391,-0.0889552,-0.0298302,-0.0805354,0.169746,0
-0.0680158,-0.313011,-0.206609,-0.0592085,-0.0743508,0.111061,0
-0.0375263,-0.500528,-0.341469,-0.110251,-0.104108,0.0125676,0
-0.0932437,-0.667974,-0.534416,-0.145714,-0.1314,-0.0643918,0
-0.257403,-0.777516,-0.796102,-0.153033,-0.151758,-0.131227,0
-0.502146,-0.500967,-0.943183,-0.0964735,-0.168263,-0.216619,0
-0.758066,-0.247919,-1.00194,-0.0285254,-0.191007,-0.295419,0
-0.971432,-0.13674,-1.04412,0.0442832,-0.187568,-0.347037,0
-1.07288,-0.187329,-0.967157,0.116935,-0.202144,-0.399029,0
-0.945419,-0.188096,-0.823007,0.158402,-0.230185,-0.487542,0
-0.570007,-0.172883,-0.690006,0.164888,-0.212707,-0.555221,0
-0.135576,-0.101585,-0.532541,0.167176,-0.172876,-0.558576,0
0.225857,-0.00876803,-0.276773,0.191829,-0.130016,-0.472238,0
0.225857,-0.00876803,-0.276773,0.191829,-0.130016,-0.472238,0
0.651013,0.209209,0.0309463,0.211664,-0.0863284,-0.371567,0
1.06752,0.468256,0.262024,0.181408,-0.0332722,-0.229649,0
1.27256,0.620743,0.420204,0.144992,0.0152255,-0.0351346,0
1.19688,0.607875,0.564229,0.12628,0.043744,0.15602,0
0.952667,0.372204,0.712274,0.124531,0.0480453,0.27862,0
0.70507,-0.0188102,0.819266,0.129345,0.0398466,0.319128,0
0.588019,-0.431748,0.874558,0.127639,0.0404876,0.28707,0
0.590192,-0.635763,0.912457,0.11001,0.0784681,0.211559,0
0.6111,-0.575384,0.93754,0.0796923,0.128363,0.15181,0
0.580561,-0.413308,0.961512,0.074875,0.152859,0.132559,0
0.580202,-0.296814,0.967515,0.0829473,0.154542,0.120795,0
0.589312,-0.281217,0.968455,0.0992061,0.148615,0.131687,0
0.56246,-0.315404,0.965867,0.106645,0.144105,0.15004,0
0.489796,-0.298694,0.930134,0.0921687,0.149805,0.163313,0
0.420017,-0.238677,0.846603,0.0715654,0.142088,0.160985,0
0.382498,-0.163862,0.732053,0.0606411,0.132099,0.153679,0
0.376334,-0.0542614,0.636886,0.0634226,0.126033,0.147868,0
0.343625,0.0283288,0.569396,0.0656551,0.122543,0.155847,0
0.244029,0.018606,0.501481,0.0635162,0.11033,0.177523,0
0.0629389,-0.0509073,0.38362,0.0464499,0.0833144,0.184079,0
-0.200701,-0.154194,0.190985,0.0130447,0.0434763,0.16477,0
-0.45183,-0.279205,-0.0902923,-0.0268647,0.00126269,0.114975,0
-0.649978,-0.333201,-0.459711,-0.0670899,-0.0233391,0.0295531,0
-0.819822,-0.248499,-0.792628,-0.0794688,-0.0256093,-0.0514874,0
-0.953871,-0.013831,-0.926826,-0.0435256,-0.00743222,-0.115968,0
-1.00615,0.26968,-0.848689,0.00688018,-0.0216138,-0.182029,0
-0.957335,0.305962,-0.796648,-0.0163081,-0.048463,-0.229066,0
-0.834813,0.225141,-0.883493,-0.103173,-0.0668705,-0.269515,0
-0.763547,0.0937666,-1.0651,-0.159547,-0.109266,-0.288685,0
-0.702865,-0.0758024,-1.2025,-0.147856,-0.114719,-0.309605,0
-0.52023,-0.183664,-1.156,-0.101628,-0.0594686,-0.356503,0
-0.175548,-0.0967946,-0.925245,-0.082795,0.0257371,-0.401149,0
0.268068,0.059144,-0.596918,-0.0959035,0.0951503,-0.396429,0
0.690798,0.0830679,-0.305211,-0.140958,0.136883,-0.322153,0
0.962918,-0.0553833,-0.177461,-0.20658,0.137735,-0.195379,0
1.03933,-0.179956,-0.273636,-0.286746,0.119895,-0.0591878,0
0.971228,-0.202919,-0.546783,-0.338499,0.104311,0.0661218,0
0.79107,-0.124855,-0.880642,-0.340351,0.105221,0.179428,0
0.554112,0.0235372,-1.16801,-0.294545,0.122246,0.281858,0
0.3181,0.156791,-1.35451,-0.235034,0.14476,0.361767,0
0.138156,0.209445,-1.46486,-0.191283,0.165482,0.410947,0
0.0473457,0.121326,-1.51866,-0.157628,0.173022,0.434793,0
-0.00941684,-0.0829244,-1.53953,-0.123313,0.16354,0.441907,0
-0.0288594,-0.38489,-1.53533,-0.0811437,0.141001,0.426887,0
-0.0427889,-0.678364,-1.48155,-0.0467883,0.12643,0.386054,0
-0.0951211,-0.796926,-1.37773,-0.0287655,0.119349,0.32648,0
-0.184251,-0.713606,-1.31345,-0.0206152,0.087169,0.25492,0
-0.26498,-0.531151,-1.29593,-0.00429595,0.0334045,0.180481,0
-0.314844,-0.264563,-1.31739,0.00983467,-0.0156866,0.114373,0
-0.444381,-0.049751,-1.35993,0.0364865,-0.0458832,0.0903896,0
-0.736399,0.102307,-1.38296,0.0705678,-0.0758619,0.0966205,0
-1.17775,0.0232369,-1.36369,0.104649,-0.0991613,0.0807717,0
-1.56737,-0.216907,-1.24816,0.135254,-0.121001,-0.00832629,0
-1.56737,-0.216907,-1.24816,0.135254,-0.121001,-0.00832629,0
-1.57119,-0.434616,-1.02115,0.182004,-0.15062,-0.208459,0
-1.22551,-0.428853,-0.787804,0.196906,-0.165721,-0.422775,0
-0.945826,-0.359252,-0.543989,0.189075,-0.135963,-0.499128,0
-0.909615,-0.43422,-0.260058,0.177177,-0.134478,-0.479754,0
-0.891485,-0.646161,-0.028544,0.148892,-0.161737,-0.490499,0
-0.562245,-0.747913,0.170437,0.13702,-0.183871,-0.588531,0
0.0269254,-0.532697,0.34734,0.0822879,-0.154424,-0.671229,0
0.642615,-0.0396674,0.55187,0.0323137,-0.100583,-0.624777,0
1.12826,0.468122,0.762672,-0.00421368,-0.0437737,-0.46053,0
1.38915,0.759961,0.900292,-0.040372,-0.00132602,-0.224678,0
1.41395,0.816523,0.964956,-0.0823287,0.0322555,-0.00259644,0
1.25825,0.618738,0.955679,-0.113345,0.0457626,0.163523,0
1.03378,0.212691,0.85895,-0.132417,0.0352116,0.250103,0
0.787507,-0.275837,0.638668,-0.155302,0.0290776,0.266648,0
0.511116,-0.66725,0.377723,-0.156582,0.0381003,0.242394,0
0.276716,-0.849423,0.178688,-0.143308,0.0768473,0.17876,0
0.172973,-0.775899,0.0399003,-0.122378,0.136109,0.0934349,0
0.21997,-0.507737,-0.0149774,-0.0854252,0.185774,0.0265446,0
0.318424,-0.133309,0.0363649,-0.0425251,0.234239,0.0122961,0
0.411045,0.213795,0.166472,-0.0146089,0.268162,0.0477037,0
0.501908,0.397062,0.317268,-0.0186922,0.288196,0.115479,0
0.553863,0.369693,0.42803,-0.0489584,0.292747,0.198906,0
0.561881,0.189502,0.486052,-0.0770622,0.280406,0.272391,0
0.516175,-0.0361221,0.460967,-0.103675,0.261696,0.320436,0
0.348573,-0.278024,0.330235,-0.133611,0.248319,0.358431,0
0.0789697,-0.431568,0.14284,-0.139986,0.217936,0.368857,0
-0.247988,-0.529506,-0.0222786,-0.108927,0.182941,0.350704,0
-0.557419,-0.554322,-0.137598,-0.0722883,0.159997,0.293642,0
-0.771014,-0.491492,-0.223896,-0.0650335,0.146839,0.209856,0
-0.905887,-0.448164,-0.317483,-0.0646053,0.118702,0.127065,0
-1.02848,-0.412722,-0.475846,-0.0852822,0.0762087,0.05752,0
-1.23636,-0.423995,-0.722119,-0.122,0.0223991,-0.00643706,0
-1.49723,-0.44292,-0.950677,-0.114224,-0.0208081,-0.0782942,0
-1.55342,-0.291627,-1.05273,-0.0477026,-0.0732173,-0.212418,0
-1.32444,-0.0925309,-1.04496,-0.0112584,-0.09354,-0.369082,0
-0.966541,0.145656,-0.99288,-0.0336441,-0.0611271,-0.456441,0
-0.802178,0.0880605,-1.01964,-0.0874675,-0.0449386,-0.415651,0
-0.999269,-0.0702762,-1.25461,-0.182068,-0.0356077,-0.350615,0
-1.3604,0.103624,-1.60021,-0.267855,-0.00578598,-0.378214,0
-1.42762,0.621394,-1.75436,-0.261518,0.0361211,-0.468465,0
-0.832906,0.972394,-1.54932,-0.140093,0.0562804,-0.559779,0
0.280994,0.948907,-1.13763,-0.08485,0.0804703,-0.560115,0
1.34019,0.68377,-0.841293,-0.199979,0.148566,-0.404556,0
1.88616,0.235596,-0.797173,-0.33452,0.177678,-0.151901,0
1.92477,-0.147559,-1.06906,-0.434551,0.154327,0.0786074,0
1.68305,-0.351836,-1.53163,-0.460455,0.122223,0.227869,0
1.31804,-0.422022,-2.0283,-0.434821,0.12096,0.309377,0
0.929361,-0.36263,-2.45536,-0.383016,0.157677,0.348097,0
0.555396,-0.262058,-2.75519,-0.319108,0.196425,0.372296,0
0.281244,-0.24357,-2.95295,-0.252317,0.21905,0.366644,0
0.148336,-0.340729,-3.07874,-0.212234,0.237916,0.326326,0
0.10626,-0.480525,-3.09759,-0.160329,0.257831,0.279467,0
0.11028,-0.586712,-2.9678,-0.100059,0.265377,0.223519,0
0.136509,-0.602308,-2.79788,-0.0660724,0.250514,0.176512,0
0.136509,-0.602308,-2.79788,-0.0660724,0.250514,0.176512,0
0.149178,-0.565068,-2.65646,-0.0395309,0.210008,0.13955,0
0.104737,-0.53459,-2.51504,-0.00112493,0.156269,0.118615,0
0.0232965,-0.475644,-2.36581,0.0420158,0.100105,0.0893837,0
-0.0706742,-0.408616,-2.21042,0.0671566,0.0613594,0.0599215,0
-0.185923,-0.337961,-2.07447,0.0768425,0.0162365,0.0352057,0
-0.376743,-0.327647,-1.96785,0.0988107,-0.0399429,0.0196715,0
-0.609897,-0.373239,-1.85468,0.145072,-0.098608,-0.0125208,0
-0.771253,-0.348083,-1.69616,0.190489,-0.148981,-0.092284,0
-0.747411,-0.0716093,-1.5045,0.212102,-0.188767,-0.20706,0
-0.648314,0.207594,-1.3766,0.202486,-0.218401,-0.277653,0
-0.624858,0.00970217,-1.25644,0.212348,-0.249105,-0.260698,0
-0.593107,-0.377721,-1.08319,0.260249,-0.296914,-0.288384,0
-0.345892,-0.519317,-0.874396,0.29647,-0.301413,-0.395675,0
0.140802,-0.161132,-0.639514,0.283772,-0.247151,-0.495821,0
0.648172,0.433707,-0.329169,0.262772,-0.164738,-0.463771,0
0.903819,0.817267,-0.0484472,0.241301,-0.116086,-0.278494,0
0.919391,0.843891,0.159344,0.202534,-0.0980297,-0.0700723,0
0.83448,0.550741,0.29151,0.166613,-0.0844029,0.0641371,0
0.717871,0.137661,0.362564,0.131163,-0.0581314,0.107376,0
0.63533,-0.198076,0.447623,0.116666,-0.0162865,0.078055,0
0.625609,-0.409734,0.571936,0.0983278,0.0531695,-0.0044719,0
0.69944,-0.478055,0.699105,0.0757997,0.123426,-0.0870085,0
0.844168,-0.340582,0.833809,0.0537604,0.177188,-0.141501,0
1.03369,-0.00938525,0.967677,0.031855,0.236427,-0.145016,0
1.16899,0.341222,1.11779,0.0119014,0.294332,-0.0633133,0
1.18496,0.607874,1.24279,-0.00881828,0.321262,0.0730366,0
1.08317,0.701891,1.33455,-0.0407104,0.330677,0.205184,0
0.914457,0.676573,1.40962,-0.0742749,0.340592,0.302547,0
0.710179,0.553263,1.45805,-0.10385,0.336356,0.364002,0
0.498057,0.32707,1.4475,-0.123733,0.309615,0.391459,0
0.289699,0.0388071,1.36247,-0.133522,0.268313,0.388893,0
0.115189,-0.226825,1.22818,-0.130512,0.222867,0.358341,0
-0.0376148,-0.347406,1.06745,-0.124384,0.18587,0.30757,0
-0.214079,-0.332625,0.891285,-0.1214,0.150912,0.253105,0
-0.413192,-0.214111,0.635138,-0.14139,0.106586,0.193272,0
-0.681496,-0.0942185,0.282348,-0.168341,0.0397764,0.148608,0
-1.0025,-0.0235374,-0.0837533,-0.150089,-0.0358096,0.109527,0
-1.30963,-0.0622626,-0.370355,-0.111525,-0.0895163,0.0490026,0
-1.53793,-0.100096,-0.543505,-0.0755681,-0.136869,-0.0772633,0
-1.66844,-0.207591,-0.702185,-0.0778503,-0.171671,-0.224855,0
-1.61526,-0.252494,-0.93021,-0.102893,-0.191457,-0.384016,0
-1.4476,-0.277758,-1.08835,-0.0891041,-0.18369,-0.500501,0
-1.21646,-0.181385,-1.10313,-0.0393821,-0.170287,-0.57625,0
-0.899321,0.0229069,-0.965682,0.0013349,-0.133899,-0.620358,0
-0.391898,0.235044,-0.673765,0.0325111,-0.0736582,-0.62848,0
0.31836,0.429593,-0.247368,0.0321131,0.00123291,-0.593089,0
1.03303,0.489918,0.168161,-0.0614295,0.0831134,-0.468491,0
1.56059,0.356228,0.396448,-0.190544,0.122524,-0.263931,0
1.83627,0.0536519,0.353202,-0.338124,0.145253,-0.0638705,0
1.83961,-0.273997,0.0641202,-0.444399,0.155498,0.100277,0
1.59324,-0.538722,-0.392526,-0.488411,0.160766,0.22754,0
1.15254,-0.680672,-0.930034,-0.478321,0.16832,0.31663,0
0.606135,-0.627129,-1.46206,-0.438929,0.188707,0.359256,0
0.105709,-0.418285,-1.88761,-0.380979,0.227119,0.361112,0
0.105709,-0.418285,-1.88761,-0.380979,0.227119,0.361112,0
-0.185212,-0.210663,-2.1312,-0.305434,0.27995,0.324689,0
-0.250412,-0.157364,-2.20178,-0.233441,0.330501,0.288505,0
-0.149621,-0.191725,-2.14295,-0.162777,0.348527,0.260567,0
-0.0211526,-0.32403,-2.0096,-0.0935195,0.340543,0.260432,0
0.0660313,-0.505309,-1.83165,-0.0406028,0.316734,0.271607,0
0.0354183,-0.626271,-1.69655,-0.0225131,0.275325,0.284758,0
-0.102693,-0.65054,-1.61394,-0.00267686,0.210026,0.283284,0
-0.297966,-0.651581,-1.55781,0.0301399,0.134533,0.265873,0
-0.468211,-0.67342,-1.48627,0.0714284,0.0629613,0.223601,0
-0.582558,-0.665942,-1.40034,0.118503,-0.00706312,0.160318,0
-0.68811,-0.626132,-1.32056,0.162971,-0.0710904,0.0934029,0
-0.852692,-0.529902,-1.2358,0.209457,-0.129136,0.0295637,0
-1.06009,-0.337155,-1.13557,0.245411,-0.18437,-0.0446442,0
-1.22922,-0.250093,-0.99699,0.269476,-0.226022,-0.127855,0
-1.19056,-0.2535,-0.845827,0.277995,-0.269929,-0.271423,0
-0.991401,-0.443648,-0.70469,0.279231,-0.298944,-0.413763,0
-0.761688,-0.724963,-0.510007,0.314346,-0.310997,-0.504261,0
-0.544621,-0.792046,-0.297145,0.337329,-0.302349,-0.573235,0
-0.287484,-0.342173,-0.127626,0.296159,-0.254206,-0.644436,0
0.00661533,0.319011,0.0684804,0.253455,-0.190763,-0.632673,0
0.344625,0.812153,0.304415,0.247538,-0.141799,-0.513993,0
0.68641,1.03589,0.535672,0.245653,-0.112626,-0.32989,0
0.925516,1.03916,0.771582,0.210148,-0.0585215,-0.138202,0
1.01621,0.892427,1.00008,0.175389,-0.00544757,0.0253831,0
0.930737,0.544172,1.17334,0.151296,0.0238229,0.148821,0
0.731493,0.0978852,1.24816,0.130443,0.0276639,0.199087,0
0.532405,-0.258653,1.26016,0.10152,0.0425693,0.169221,0
0.472859,-0.368807,1.25419,0.0557399,0.0834763,0.0604727,0
0.589306,-0.276389,1.24468,0.0271771,0.137359,-0.0519007,0
0.797432,0.0137832,1.26928,0.0273327,0.190783,-0.0990507,0
0.968771,0.417655,1.34386,0.0416085,0.241869,-0.0537785,0
1.00842,0.711235,1.41347,0.0410707,0.270232,0.0700021,0
0.921905,0.808045,1.46267,0.0208886,0.277005,0.20316,0
0.768028,0.681627,1.51667,0.0103542,0.269714,0.294338,0
0.629328,0.386319,1.53648,0.00503118,0.252404,0.330059,0
0.554646,0.10633,1.50429,0.00107732,0.227194,0.312854,0
0.512613,-0.097581,1.37829,-0.00758868,0.191981,0.275524,0
0.430059,-0.20936,1.1955,-0.0134071,0.169277,0.246964,0
0.273372,-0.246142,1.08364,0.0055313,0.159587,0.222299,0
0.11112,-0.309624,1.02684,0.0178503,0.14436,0.179835,0
-0.000953151,-0.41011,0.905293,-0.00820973,0.112539,0.110028,0
-0.099362,-0.440035,0.595122,-0.078582,0.0579516,0.0273926,0
-0.239805,-0.297343,0.0993285,-0.160245,-0.00346714,-0.0578039,0
-0.489162,-0.0753983,-0.421815,-0.17617,-0.0407422,-0.10109,0
-0.747692,0.132394,-0.700296,-0.1047,-0.0415029,-0.12068,0
-0.829418,0.302868,-0.736215,-0.0355226,-0.0403954,-0.187892,0
-0.749031,0.319247,-0.743976,-0.0655585,-0.0177484,-0.252905,0
-0.59491,0.434253,-0.861236,-0.145389,-0.00964189,-0.293274,0
-0.592719,0.459354,-1.10409,-0.173444,-0.0491594,-0.249982,0
-0.69284,0.445179,-1.29194,-0.124846,-0.076365,-0.193359,0
-0.697915,0.393357,-1.2275,-0.0568202,-0.0210333,-0.203292,0
-0.470378,0.29982,-0.904409,-0.00681557,0.0770866,-0.258669,0
-0.0850324,0.170916,-0.473063,-0.0104524,0.150461,-0.28908,0
0.301747,-0.048356,-0.0485709,-0.0520258,0.194542,-0.26441,0
0.301747,-0.048356,-0.0485709,-0.0520258,0.194542,-0.26441,0
0.573756,-0.348285,0.213641,-0.135181,0.188045,-0.201405,0
0.728376,-0.593347,0.213768,-0.243429,0.14866,-0.139336,0
0.810809,-0.665584,-0.0521667,-0.361616,0.127861,-0.0946655,0
0.791171,-0.550975,-0.467774,-0.416963,0.123809,-0.0347382,0
0.620873,-0.331008,-0.890274,-0.397389,0.136348,0.0591168,0
0.329521,-0.0516168,-1.24405,-0.349512,0.157229,0.16487,0
0.0537354,0.191709,-1.50416,-0.304217,0.179853,0.247434,0
-0.107259,0.31755,-1.6986,-0.263032,0.185945,0.297854,0
-0.162428,0.269227,-1.84977,-0.235533,0.189781,0.334765,0
-0.158085,0.0614453,-1.93884,-0.203373,0.182914,0.35856,0
-0.115595,-0.296897,-1.95733,-0.156325,0.166934,0.367039,0
-0.0875148,-0.730109,-1.92672,-0.12303,0.15704,0.357219,0
-0.098235,-1.04154,-1.84771,-0.0643917,0.139679,0.326566,0
-0.134774,-1.09192,-1.80144,-0.0219774,0.0917459,0.251687,0
-0.253857,-0.913894,-1.82553,0.00673903,0.0343863,0.180365,0
-0.448498,-0.609215,-1.8712,0.0480049,-0.0209501,0.122987,0
-0.641785,-0.305991,-1.93692,0.080303,-0.0630388,0.0660384,0
-0.849475,-0.0571213,-2.0132,0.10059,-0.0861906,0.0176978,0
-1.03827,0.0608495,-1.95289,0.160747,-0.104681,-0.0229284,0
-1.14389,-0.200488,-1.68855,0.250496,-0.113818,-0.0681915,0
-1.0576,-0.63909,-1.25628,0.329319,-0.120391,-0.171497,0
-0.743766,-0.765072,-0.784832,0.369056,-0.136701,-0.319889,0
-0.321364,-0.356474,-0.409514,0.361951,-0.169369,-0.436375,0
-0.152197,-0.0860547,-0.144094,0.346129,-0.19528,-0.394075,0
-0.270491,-0.174017,0.111968,0.354702,-0.238533,-0.275669,0
-0.283675,-0.292673,0.323243,0.329647,-0.266695,-0.298662,0
0.0295125,-0.166053,0.487817,0.257476,-0.238898,-0.433063,0
0.532452,0.166555,0.631356,0.196835,-0.193479,-0.492907,0
0.963165,0.536641,0.754938,0.143479,-0.124365,-0.410875,0
1.17231,0.746752,0.819577,0.0974486,-0.068636,-0.228521,0
1.15662,0.690392,0.847868,0.0520893,-0.017816,-0.0466875,0
0.978463,0.395832,0.837998,0.015784,0.0253,0.0777671,0
0.737683,0.01608,0.79021,-0.0126622,0.054663,0.123199,0
0.542518,-0.337816,0.707043,-0.0448363,0.0873157,0.0920492,0
0.429274,-0.488579,0.63258,-0.0739696,0.14721,0.0116792,0
0.411011,-0.368045,0.567443,-0.0912477,0.207719,-0.0663924,0
0.441866,-0.0429849,0.557804,-0.0923221,0.262255,-0.0900534,0
0.472236,0.333044,0.641217,-0.0741435,0.314819,-0.0507243,0
0.502299,0.599563,0.772569,-0.0631037,0.341299,0.0231558,0
0.55404,0.715584,0.921419,-0.0704634,0.346461,0.10497,0
0.592345,0.648175,1.08122,-0.0981906,0.353322,0.184971,0
0.577995,0.435424,1.2484,-0.128033,0.353455,0.256971,0
0.478516,0.146408,1.3555,-0.16297,0.335698,0.314808,0
0.317099,-0.188601,1.32744,-0.201027,0.288038,0.342539,0
0.0912519,-0.495419,1.12025,-0.243637,0.223761,0.341891,0
-0.158943,-0.692341,0.791877,-0.263811,0.148959,0.311995,0
-0.354573,-0.841855,0.428667,-0.251799,0.0988157,0.250548,0
-0.484203,-0.898305,0.0714647,-0.241601,0.0739264,0.160669,0
-0.55762,-1.0167,-0.200994,-0.190692,0.058665,0.0739258,0
-0.591222,-1.17783,-0.421622,-0.138811,0.0511608,-0.007644,0
-0.680537,-1.1636,-0.665148,-0.131795,0.0491763,-0.0784696,0
-0.781747,-0.876185,-0.916207,-0.112289,0.0161458,-0.153035,0
-0.808607,-0.497712,-1.15172,-0.0857942,-0.0210137,-0.219973,0
-0.845765,-0.181001,-1.37567,-0.0863597,-0.0119879,-0.246766,0
-0.845765,-0.181001,-1.37567,-0.0863597,-0.0119879,-0.246766,0
-1.08212,-0.161067,-1.64081,-0.1185,-0.00261703,-0.208331,0
-1.45314,-0.267026,-1.97425,-0.13043,-0.043283,-0.202824,0
-1.62589,-0.31578,-2.23245,-0.0885283,-0.0659814,-0.305123,0
-1.40869,-0.169483,-2.24814,-0.0230649,-0.0285186,-0.455735,0
-0.850749,0.220964,-1.98408,0.0234565,0.0686861,-0.560053,0
-0.157194,0.649176,-1.49964,0.05146,0.141122,-0.52803,0
0.486578,0.826595,-0.998425,0.0343787,0.169967,-0.369449,0
0.954811,0.721438,-0.65945,-0.0573093,0.166978,-0.155109,0
1.22204,0.330439,-0.474534,-0.164187,0.160251,0.0384706,0
1.27815,-0.188399,-0.464094,-0.268872,0.15955,0.171037,0
1.11934,-0.712771,-0.652996,-0.354156,0.159119,0.251795,0
0.79718,-1.08997,-1.04313,-0.404875,0.138193,0.287523,0
0.338585,-1.266,-1.58046,-0.411051,0.11414,0.29309,0
-0.155793,-1.19471,-2.09383,-0.364717,0.118157,0.266345,0
-0.517377,-0.892266,-2.44705,-0.297333,0.161907,0.192612,0
-0.687429,-0.507694,-2.615,-0.238945,0.212865,0.11903,0
-0.691776,-0.197722,-2.58242,-0.185451,0.239595,0.0903279,0
-0.55625,-0.0824503,-2.4358,-0.142583,0.220963,0.0901313,0
-0.364296,-0.115958,-2.32138,-0.104258,0.15671,0.109946,0
-0.22183,-0.173004,-2.26257,-0.0774012,0.0765201,0.144207,0
-0.205139,-0.215488,-2.22056,-0.0414778,0.00812307,0.192249,0
-0.301284,-0.224113,-2.14727,-0.00723603,-0.0445357,0.229328,0
-0.397915,-0.212602,-2.04291,0.0355574,-0.0959789,0.223421,0
-0.473641,-0.209435,-1.89735,0.0840603,-0.139042,0.194561,0
-0.537539,-0.244079,-1.73778,0.136255,-0.186961,0.153541,0
-0.599958,-0.308676,-1.6056,0.16601,-0.232897,0.0948988,0
-0.617893,-0.419925,-1.45175,0.183471,-0.263136,-0.00393796,0
-0.64551,-0.597786,-1.24806,0.189544,-0.259934,-0.108086,0
-0.640092,-0.733861,-1.05347,0.159067,-0.255386,-0.231937,0
-0.46029,-0.575212,-0.912781,0.120178,-0.269147,-0.391002,0
-0.156205,-0.175241,-0.814069,0.103172,-0.27579,-0.505236,0
-0.0326825,0.078564,-0.718514,0.0931616,-0.239576,-0.477727,0
-0.042909,0.176209,-0.52469,0.104051,-0.209535,-0.400526,0
0.117164,0.270942,-0.323132,0.0818147,-0.19122,-0.395888,0
0.530579,0.431026,-0.130444,0.0447568,-0.158226,-0.40768,0
1.01777,0.538501,0.0590222,0.0141703,-0.101778,-0.334329,0
1.27845,0.531509,0.225989,-0.0160722,-0.0272785,-0.161592,0
1.26596,0.467658,0.394966,-0.0308975,0.0308307,0.0209827,0
1.10834,0.316776,0.51355,-0.0474203,0.0509125,0.144314,0
0.899708,-0.0258447,0.545158,-0.0737894,0.0608619,0.206669,0
0.639576,-0.469551,0.481076,-0.106017,0.0679101,0.221208,0
0.327223,-0.894032,0.307693,-0.134637,0.0689245,0.192014,0
-0.00777178,-1.1065,0.0721783,-0.152126,0.0869387,0.113972,0
-0.260232,-1.03397,-0.129227,-0.121891,0.117681,0.00845963,0
-0.321411,-0.634363,-0.227236,-0.054592,0.146008,-0.0873396,0
-0.180758,-0.0322398,-0.16232,-0.00213882,0.201009,-0.141104,0
0.0467645,0.464796,0.036686,0.0396513,0.246216,-0.0877675,0
0.248466,0.596163,0.278151,0.0728979,0.240097,0.0602794,0
0.373941,0.451096,0.49268,0.0733446,0.213039,0.201619,0
0.427447,0.138494,0.672907,0.0673262,0.182641,0.301044,0
0.425079,-0.223447,0.793824,0.0549655,0.152839,0.34301,0
0.349035,-0.55774,0.800082,0.0302221,0.122732,0.345789,0
0.163407,-0.727988,0.696383,0.00951441,0.0869491,0.325666,0
0.163407,-0.727988,0.696383,0.00951441,0.0869491,0.325666,0
-0.111783,-0.729489,0.496663,-0.0095268,0.0468492,0.282579,0
-0.384336,-0.626336,0.221667,-0.00908722,-7.80821e-06,0.214383,0
-0.545888,-0.489108,-0.0198017,0.0257431,-0.0358686,0.117284,0
-0.575005,-0.30918,-0.149441,0.0743504,-0.0454302,0.0156304,0
-0.510565,-0.0894544,-0.184316,0.100951,-0.0399393,-0.0635368,0
-0.432293,0.0620749,-0.180242,0.108872,-0.0407701,-0.103848,0
-0.401428,0.0811121,-0.193621,0.104583,-0.060564,-0.107142,0
-0.341073,0.0884398,-0.226756,0.0942026,-0.0959179,-0.124411,0
-0.212091,0.14446,-0.226093,0.0965962,-0.110768,-0.14872,0
-0.0621948,0.230492,-0.145094,0.102378,-0.0902089,-0.157132,0
0.0675921,0.333003,0.00870924,0.0923356,-0.0545385,-0.131335,0
0.117455,0.232307,0.151551,0.0755681,-0.0664869,-0.0854042,0
-0.0301017,-0.101195,0.200179,0.00333127,-0.0483787,-0.0341675,0
-0.393104,-0.479806,0.0373476,-0.12561,-0.0535975,-0.0395766,0
-0.743124,-0.594923,-0.286824,-0.197797,-0.103483,-0.115755,0
-0.798065,-0.373467,-0.634602,-0.194966,-0.106641,-0.255131,0
-0.625779,0.0925244,-0.769907,-0.130883,-0.0412863,-0.347162,0
-0.439749,0.549579,-0.596314,-0.0337266,0.0535999,-0.329794,0
-0.293765,0.789951,-0.265097,0.0236082,0.096732,-0.23902,0
0.00149212,0.783967,0.0812635,0.011157,0.0938846,-0.164012,0
0.492985,0.556901,0.329844,-0.0653269,0.0855591,-0.109734,0
0.968812,0.183356,0.452942,-0.152531,0.0925849,-0.0243617,0
1.19399,-0.262536,0.455853,-0.218557,0.101998,0.0838713,0
1.07337,-0.633286,0.224076,-0.295097,0.106492,0.170142,0
0.680855,-0.92686,-0.223136,-0.35314,0.0852856,0.211257,0
0.196537,-1.08887,-0.800168,-0.363114,0.0506883,0.192125,0
-0.222136,-1.0233,-1.37529,-0.321585,0.0499904,0.103342,0
-0.485692,-0.700503,-1.79085,-0.233478,0.094871,-0.0123988,0
-0.52628,-0.152497,-1.95572,-0.14602,0.169557,-0.105512,0
-0.341489,0.390966,-1.81909,-0.056764,0.225222,-0.137915,0
0.00144661,0.64522,-1.52682,0.0140969,0.224609,-0.0849488,0
0.337483,0.603409,-1.28211,0.0308071,0.180338,0.0439619,0
0.512767,0.447817,-1.12949,0.00695854,0.136584,0.184985,0
0.538052,0.348558,-1.07266,-0.0286454,0.101029,0.278677,0
0.422169,0.26142,-1.10742,-0.0436302,0.0614437,0.347378,0
0.198519,0.146268,-1.17674,-0.0290645,0.0134101,0.387999,0
-0.0687456,-0.0260508,-1.20466,0.019531,-0.0318098,0.387002,0
-0.262481,-0.199969,-1.11556,0.0812755,-0.0683808,0.328132,0
-0.323238,-0.305818,-0.925857,0.131225,-0.0871996,0.217572,0
-0.316641,-0.446424,-0.69218,0.168796,-0.112137,0.115319,0
-0.303043,-0.576206,-0.504135,0.168365,-0.135768,0.0224815,0
-0.348162,-0.637544,-0.419666,0.131235,-0.154261,-0.0705222,0
-0.503787,-0.578902,-0.45056,0.0950173,-0.185498,-0.152503,0
-0.655449,-0.295775,-0.527843,0.103534,-0.222977,-0.242589,0
-0.823922,-0.169101,-0.555788,0.153102,-0.223523,-0.315964,0
-0.841227,-0.100297,-0.34346,0.234466,-0.180571,-0.387489,0
-0.542064,0.158329,0.0200479,0.259458,-0.143284,-0.489004,0
0.00562521,0.47726,0.403125,0.236508,-0.112593,-0.514594,0
0.601652,0.737532,0.719334,0.197333,-0.0855501,-0.424468,0
0.943481,0.882592,0.905122,0.135396,-0.067038,-0.215661,0
0.96736,0.896305,0.995576,0.083291,-0.0593098,0.00237781,0
0.821709,0.74134,1.04121,0.0614601,-0.0554628,0.151972,0
0.637085,0.414766,1.03796,0.0522869,-0.0487364,0.219584,0
0.473087,0.0685822,1.01489,0.0471434,-0.0377844,0.215355,0
0.473087,0.0685822,1.01489,0.0471434,-0.0377844,0.215355,0
0.395807,-0.0995231,1.02161,0.0449874,-0.00851005,0.147302,0
0.414395,-0.135614,1.05,0.050282,0.0367257,0.0646033,0
0.415444,-0.14653,1.09576,0.0540025,0.0833878,0.0277316,0
0.335786,-0.23179,1.13473,0.053545,0.11521,0.029811,0
0.184387,-0.361025,1.10761,0.0288581,0.124688,0.0191639,0
0.0717701,-0.4788,1.00525,0.00683513,0.112742,-0.0385925,0
0.0866369,-0.470007,0.876973,0.00769089,0.115414,-0.119401,0
0.173194,-0.28278,0.810595,0.026058,0.142334,-0.162576,0
0.262745,0.0544941,0.845434,0.0514281,0.18305,-0.154181,0
0.348413,0.382506,0.928202,0.0555292,0.206384,-0.0952955,0
0.434935,0.587253,0.954888,0.03242,0.190818,0.00156361,0
0.485836,0.624712,0.928858,-0.00533971,0.168571,0.106868,0
0.46115,0.510187,0.869058,-0.0398379,0.148735,0.201628,0
0.373433,0.284268,0.790289,-0.0474621,0.123172,0.270282,0
0.255514,-0.0115879,0.674371,-0.0546458,0.0997269,0.294355,0
0.134364,-0.282606,0.537458,-0.0500284,0.0740271,0.277442,0
0.0409343,-0.418534,0.362653,-0.0491147,0.0481232,0.216322,0
0.0251254,-0.445554,0.203004,-0.0293053,0.032754,0.120429,0
0.069827,-0.436943,0.0597057,-0.0121731,0.0295065,0.0298719,0
0.12048,-0.395365,-0.0559375,-0.0087979,0.0303276,-0.0506029,0
0.137433,-0.387408,-0.148141,-0.00260307,0.0341914,-0.110978,0
0.192098,-0.237101,-0.272928,-0.0229209,0.0281497,-0.183366,0
0.0723739,-0.244484,-0.47682,-0.0796791,0.0284595,-0.207725,0
-0.318077,-0.43105,-0.750887,-0.139408,0.0397541,-0.185126,0
-0.596123,-0.236919,-1.06807,-0.161239,0.0227468,-0.242483,0
-0.625055,0.156306,-1.30361,-0.137774,0.0278291,-0.32154,0
-0.469249,0.482924,-1.26326,-0.0475482,0.0754525,-0.329845,0
-0.296161,0.598627,-1.00104,0.0354524,0.124478,-0.258364,0
-0.174849,0.518344,-0.710317,0.0495895,0.128132,-0.161972,0
-0.0438738,0.285764,-0.505666,0.00336388,0.103261,-0.0821673,0
0.16252,0.0607399,-0.417319,-0.0706167,0.0894379,-0.0492145,0
0.379674,0.0304054,-0.405021,-0.128506,0.0936649,-0.0119506,0
0.526815,0.12915,-0.438542,-0.156421,0.097453,0.0533101,0
0.532597,0.194237,-0.527429,-0.183793,0.10669,0.141476,0
0.363741,0.0387423,-0.631991,-0.195862,0.109186,0.232822,0
0.128784,-0.290538,-0.755238,-0.171099,0.0707164,0.273207,0
-0.0728008,-0.617567,-0.939003,-0.159083,0.0432615,0.231594,0
-0.287119,-0.762286,-1.13496,-0.160596,0.0546246,0.154395,0
-0.500644,-0.763774,-1.29838,-0.135327,0.0616097,0.0895926,0
-0.62068,-0.603653,-1.41784,-0.112951,0.0631814,0.0233271,0
-0.605366,-0.348438,-1.42779,-0.0847095,0.0743636,-0.022487,0
-0.450536,-0.0749071,-1.28469,-0.0414376,0.0931606,-0.04321,0
-0.238209,0.108193,-1.04246,0.0104591,0.100138,-0.0273337,0
-0.0477842,0.0870363,-0.781171,0.0438501,0.0841619,0.016672,0
0.0617578,-0.0475574,-0.585767,0.0572799,0.0393933,0.06565,0
0.0474002,-0.160524,-0.485248,0.0431108,-0.00168344,0.101174,0
-0.0726492,-0.141875,-0.431514,0.0208726,-0.0298254,0.104774,0
-0.201542,-0.0143758,-0.396918,0.000432588,-0.0502184,0.0828262,0
-0.250228,0.132844,-0.3369,0.000919856,-0.0648645,0.0506529,0
-0.215749,0.169538,-0.21578,0.0199783,-0.0685659,0.0291364,0
-0.11858,0.122529,-0.0680206,0.0337799,-0.0779642,0.0183502,0
0.0218496,0.0422165,0.064618,0.0487905,-0.097223,0.00669533,0
0.0947526,-0.0183944,0.163438,0.0604605,-0.103748,0.016332,0
0.054316,-0.0570482,0.27049,0.0769705,-0.105384,0.0370628,0
0.054316,-0.0570482,0.27049,0.0769705,-0.105384,0.0370628,0
-0.0652856,-0.0863009,0.328523,0.0594379,-0.10375,0.0335087,0
-0.200747,-0.0127122,0.28816,0.0245047,-0.114407,0.00479507,0
-0.271123,0.153584,0.22847,0.014468,-0.11759,-0.0412562,0
-0.249856,0.375571,0.203706,0.0448863,-0.118689,-0.0741184,0
-0.271427,0.335859,0.239588,0.0731255,-0.103989,-0.0664614,0
-0.271125,0.163572,0.391921,0.111983,-0.0888915,-0.0654849,0
-0.140796,0.104782,0.520607,0.112128,-0.0848132,-0.126434,0
0.0369337,0.273387,0.62907,0.102611,-0.0846865,-0.174062,0
0.136083,0.543426,0.690718,0.075904,-0.0726571,-0.15747,0
0.060067,0.618719,0.692049,0.0413397,-0.0597708,-0.0629361,0
-0.0910426,0.474953,0.692989,0.043592,-0.0545778,0.0175132,0
-0.145678,0.331536,0.718296,0.0466181,-0.0315465,0.00553197,0
-0.0418068,0.289468,0.77599,0.0521863,-0.00236559,-0.0550135,0
0.134054,0.306015,0.869249,0.0586421,0.0262819,-0.0879516,0
0.284142,0.292572,0.983538,0.0597814,0.0579167,-0.0686415,0
0.316207,0.218003,1.06856,0.0446853,0.0833143,-0.0200939,0
0.232503,0.0834883,1.09196,0.0256377,0.0871771,0.0237089,0
0.112061,-0.0328237,1.03037,-0.0113096,0.0821131,0.0299946,0
0.0447813,-0.144378,0.930791,-0.027128,0.091659,0.00171244,0
0.031342,-0.143652,0.851712,-0.0254065,0.109456,-0.0390516,0
0.0694052,-0.0818845,0.804359,-0.012541,0.125547,-0.0643137,0
0.10128,0.00341777,0.764881,-5.81294e-05,0.143699,-0.0568348,0
0.0652267,0.041268,0.735248,0.00826333,0.157659,-0.0178764,0
-0.0140628,-0.0286896,0.702728,0.0134057,0.155991,0.0143571,0
-0.0984365,-0.140669,0.624624,0.0142711,0.137097,0.0151612,0
-0.143061,-0.241705,0.510226,0.00595833,0.131432,-0.00297391,0
-0.218579,-0.177249,0.337053,-0.000656858,0.136369,-0.0160185,0
-0.279802,0.0347461,0.193786,0.0154807,0.125582,-0.0196253,0
-0.252153,0.25863,0.100087,0.0348788,0.135869,-0.0186765,0
-0.185284,0.328592,0.0843252,0.049719,0.1581,0.0140795,0
-0.102823,0.184396,0.111341,0.0738011,0.154896,0.0471432,0
-0.0337422,-0.0459866,0.121189,0.0945249,0.143819,0.0626113,0
0.0205776,-0.235048,0.120901,0.0945625,0.136445,0.0556508,0
0.0918633,-0.316696,0.110817,0.0957091,0.133329,0.019556,0
0.154481,-0.230194,0.0598857,0.0733872,0.121405,-0.0261186,0
0.0805951,-0.246154,-0.0578141,0.0461819,0.100286,-0.0229601,0
-0.011729,-0.238079,-0.206736,0.0252545,0.0922209,-0.036696,0
-0.0737202,-0.156841,-0.37254,0.000988342,0.082993,-0.0793456,0
-0.102441,0.0564545,-0.505049,-0.00471976,0.0768668,-0.11491,0
-0.0912441,0.292373,-0.596903,-0.0052094,0.0780975,-0.125974,0
-0.143234,0.359351,-0.652538,-0.00931913,0.0883315,-0.0828677,0
-0.230284,0.347068,-0.671669,-0.00389103,0.0782099,-0.0367569,0
-0.213241,0.329099,-0.684614,-0.0125481,0.0685831,-0.045947,0
-0.12476,0.36208,-0.628912,-0.00549411,0.0793528,-0.0607212,0
-0.0911288,0.392611,-0.48959,0.00643859,0.100077,-0.0313122,0
-0.0809749,0.334052,-0.303393,0.0231484,0.0998031,0.00659645,0
-0.0441586,0.225295,-0.145363,0.00377467,0.0898376,0.0157369,0
0.00418393,0.113928,-0.0245995,-0.0250903,0.0762401,0.014502,0
0.0405845,0.0559608,0.0440248,-0.0620706,0.0663845,0.0121659,0
0.0448584,0.00750816,0.0708868,-0.0855288,0.0591611,0.0246614,0
0.02478,-0.0526466,0.0806801,-0.0918374,0.0518642,0.0393865,0
-0.0333842,-0.0719222,0.0576865,-0.105466,0.0482554,0.0473563,0
-0.104797,-0.102165,0.0228929,-0.111267,0.0438424,0.0507789,0
-0.16283,-0.146425,-0.0310439,-0.11655,0.0416075,0.0413353,0
-0.16283,-0.146425,-0.0310439,-0.11655,0.0416075,0.0413353,0
-0.162751,-0.158285,-0.0795378,-0.106062,0.0322138,0.0135254,0
-0.125997,-0.103376,-0.117366,-0.0987233,0.0335189,-0.00903159,0
-0.0836705,-0.0641548,-0.117687,-0.088295,0.036184,-0.0133018,0
-0.0366632,-0.0328866,-0.108043,-0.0815271,0.034456,-0.00258225,0
0.0175395,-0.0316981,-0.112431,-0.0814569,0.0245251,0.0105846,0
0.0248342,-0.04414,-0.141399,-0.0841153,0.0155334,0.0312868,0
0.0186219,-0.0307591,-0.164768,-0.0748543,0.00475198,0.039655,0
0.0343962,0.000859255,-0.190589,-0.0591256,-0.00613478,0.0309982,0
0.0333888,-0.00124512,-0.20336,-0.0468332,-0.00479051,0.028724,0
-0.00660127,-0.0279444,-0.2153,-0.0319478,-0.0130782,0.0382568,0
-0.0535461,-0.0343551,-0.245482,-0.0242232,-0.0199831,0.023475,0
-0.138766,-0.0780136,-0.281216,-0.00959317,-0.0275194,0.0190724,0
-0.2495,-0.132232,-0.319312,0.00881945,-0.0392621,0.0104274,0
-0.348901,-0.171953,-0.352213,0.0264112,-0.0401741,-0.0121743,0
-0.393424,-0.154812,-0.344638,0.0396608,-0.0320717,-0.0565729,0
-0.36166,-0.13325,-0.299034,0.0559381,-0.0187338,-0.0989468,0
-0.275391,-0.0999445,-0.202547,0.0789342,-0.0038704,-0.124837,0
-0.141061,-0.0161262,-0.0576067,0.099304,0.00969951,-0.130503,0
0.0187315,0.0950385,0.125378,0.112189,0.0239029,-0.11248,0
0.15149,0.162542,0.297468,0.0951109,0.0310641,-0.065084,0
0.206274,0.16557,0.409954,0.0719308,0.0140937,0.00848341,0
0.210372,0.116572,0.452465,0.0369944,-0.00165993,0.0629661,0
0.186195,0.0396038,0.462839,0.0135115,-0.0157562,0.0941591,0
0.157851,-0.0370795,0.449246,-0.00311127,-0.0229084,0.0984668,0
0.113856,-0.104321,0.389992,-0.0231488,-0.030293,0.0910333,0
0.0439892,-0.147594,0.277311,-0.0385606,-0.0439415,0.0814303,0
-0.0595501,-0.17429,0.132285,-0.0476237,-0.0504911,0.0642336,0
-0.147806,-0.167239,0.00821643,-0.0450189,-0.0445902,0.0322703,0
-0.197512,-0.135665,-0.0835208,-0.0384511,-0.0269847,-0.0171403,0
-0.226856,-0.0857068,-0.145379,-0.0242066,-0.0124795,-0.0530125,0
-0.230849,-0.0115238,-0.17089,-0.000318266,-0.00909752,-0.0837137,0
-0.181156,0.11122,-0.135583,0.0241361,0.00570735,-0.106796,0
-0.0992258,0.25671,-0.0599004,0.0293031,0.022359,-0.106864,0
-0.0242089,0.318359,0.0305276,0.0323447,0.0239128,-0.0722526,0
0.0187289,0.278842,0.0887565,0.0201758,0.00860932,-0.0195047,0
0.022895,0.21544,0.114888,0.00118385,-0.0035622,0.0242086,0
-8.06267e-05,0.144152,0.132257,-0.0126105,-0.0133425,0.0545943,0
-0.0151441,0.0662253,0.139793,-0.0188779,-0.0228986,0.0619338,0
-0.0385088,-0.0139361,0.143595,-0.0213811,-0.0273103,0.0602344,0
-0.0695548,-0.0468521,0.14823,-0.0259448,-0.0339126,0.0502097,0
-0.0518769,-0.061578,0.146422,-0.0295083,-0.0392755,0.0234473,0
-0.0235582,-0.072505,0.122463,-0.0350348,-0.0471858,0.00443542,0
-0.0153668,-0.0844825,0.0855952,-0.0367748,-0.0541677,-0.00142241,0
-0.0332682,-0.084774,0.0242963,-0.0379142,-0.0565653,-0.00445175,0
-0.0481785,-0.0678851,-0.0197871,-0.026042,-0.0537018,-0.0166309,0
-0.023174,-0.0270218,-0.0393842,-0.0114,-0.0421721,-0.0384141,0
0.0147261,0.0014281,-0.0388307,0.00715667,-0.032699,-0.050171,0
0.0525543,0.0296122,-0.0272119,0.0196467,-0.0220273,-0.0511162,0
0.0613237,0.0511257,-0.010998,0.0284362,-0.012029,-0.038685,0
0.0639469,0.0897356,0.00320676,0.0281817,-0.00541171,-0.0277668,0
0.0856331,0.112623,0.0204382,0.0292256,7.42078e-06,-0.018836,0
0.0919244,0.106031,0.0508192,0.0303779,0.00836839,-0.000321329,0
0.0953918,0.0854992,0.0747492,0.026932,0.00931463,0.0166273,0
0.0910687,0.0506818,0.0764359,0.0165619,0.00427559,0.0274198,0
0.0910687,0.0506818,0.0764359,0.0165619,0.00427559,0.0274198,0
0.0813769,0.0329979,0.0614454,0.00822954,-0.000907511,0.0272288,0
0.0559941,0.056196,0.0479595,0.00214666,0.000453711,0.0236587,0
0.0288853,0.0728022,0.0442933,0.00645974,0.00314,0.0231831,0
0.0117633,0.07489,0.0543805,0.0091146,0.00681397,0.0250531,0
0.00156239,0.0462457,0.0555766,0.00836811,0.005714,0.0249636,0
0.0109222,0.0365482,0.0583508,0.012217,0.00316334,0.0142627,0
0.00355683,0.0527547,0.073111,0.0140297,0.00707528,0.0127693,0
-0.026366,0.0629031,0.0900858,0.0210874,0.00676262,0.0172334,0
-0.0509071,0.0392371,0.106915,0.0248083,0.0032042,0.0138477,0
-0.0332307,0.0251103,0.116289,0.0226238,-0.000196412,-0.00261837,0
-0.00181116,0.0290141,0.140927,0.0284232,-0.000289574,-0.0206649,0
0.01498,0.0518911,0.17219,0.0317616,0.00316,-0.0186736,0
0.0074874,0.0673965,0.203055,0.0298182,0.00572675,-0.0111648,0
0.0239388,0.085795,0.205811,0.0177588,-0.00390162,-0.0124891,0
0.0456871,0.0776285,0.187193,0.00606903,-0.00919083,-0.00859153,0
0.0404148,0.0632319,0.187805,0.0126379,-0.00867932,0.00429416,0
0.0278756,0.056715,0.193783,0.0141469,-0.00374356,0.0111659,0
0.0259475,0.0609182,0.179085,0.00410978,-0.00541833,0.00224894,0
0.0315386,0.0635178,0.154598,-0.00316181,-0.00739893,-0.00923586,0
0.0445213,0.0894696,0.143451,-0.000213921,-0.000130236,-0.01763,0
0.0553642,0.11184,0.147521,0.00103607,0.00708151,-0.0153774,0
0.0335913,0.0830483,0.144619,0.00263175,0.0120863,-0.00116181,0
0.0039267,0.0486358,0.146384,0.00524728,0.00865194,0.00387448,0
0.0042475,0.0606175,0.135728,-0.00496482,0.0117475,-0.0127281,0
0.039284,0.091629,0.137823,-0.0084574,0.0134827,-0.0303654,0
0.0629318,0.109931,0.156173,-0.00676445,0.0224083,-0.0268577,0
0.0678035,0.113453,0.179179,-0.00478468,0.0228166,-0.00748473,0
0.0648315,0.0803433,0.184327,-0.016105,0.0192257,0.0104503,0
0.0711259,0.0471612,0.16835,-0.0294035,0.0162577,0.0183687,0
0.0524584,0.00514602,0.141187,-0.035381,0.0122376,0.0268409,0
0.0203421,0.000926607,0.115967,-0.0368148,0.00987172,0.026916,0
0.0153003,0.0392456,0.0891567,-0.0376644,0.00951737,0.0132197,0
0.0172826,0.0523101,0.070235,-0.0390048,0.0117655,0.0160301,0
-0.00436636,0.0116235,0.0410289,-0.0344251,0.00794569,0.0317729,0
-0.0392977,-0.0393123,0.00825267,-0.0295402,0.00310352,0.0387555,0
-0.0591558,-0.0476387,-0.026556,-0.0255522,-0.000193894,0.0235074,0
-0.0698807,-0.0310114,-0.032837,-0.0131935,0.0050109,0.00659406,0
-0.0650915,0.00179567,-0.00849488,0.000446863,0.0075095,-0.00751728,0
-0.0417708,0.0205144,0.00300549,0.002294,0.00509426,-0.0151007,0
-0.0275557,0.00706596,-0.00391625,-0.00732031,-0.000758111,-0.0121938,0
-0.0347199,0.00115895,-0.0207893,-0.00830934,-0.0078516,-0.00338829,0
-0.0235404,-0.00123831,-0.0347943,-0.00601719,-0.0130123,-0.00742531,0
-0.014599,0.00975055,-0.0275308,0.00189909,-0.0121521,-0.00945967,0
0.00403905,0.0138834,-0.0122071,0.00479788,-0.00951679,-0.0123584,0
0.0188874,0.00609785,-0.0129358,-0.00480041,-0.0109149,-0.00995284,0
0.0306893,-0.0110401,-0.0303268,-0.00701518,-0.0191249,-0.00814199,0
0.0242198,0.000633009,-0.0564671,-0.0118134,-0.0210211,-0.00833035,0
0.0183071,0.0237729,-0.06794,-0.0126002,-0.0164952,-0.00750017,0
0.019408,0.0275077,-0.0688969,-0.0127533,-0.00979999,-0.00490046,0
0.0299479,0.0140496,-0.0813087,-0.0121529,-0.0102415,-0.00293833,0
0.032721,0.00208692,-0.102887,-0.0157033,-0.00738108,0.00354135,0
0.01754,-0.000709373,-0.113292,-0.0119772,-0.00511736,0.0113666,0
-0.00510376,0.00275762,-0.110012,-0.000969678,-9.02414e-05,0.01702,0
-0.0115023,0.00299749,-0.0861062,0.00778829,0.00578552,0.013132,0
-0.0115023,0.00299749,-0.0861062,0.00778829,0.00578552,0.013132,0
-0.0148565,-0.024119,-0.0618282,0.0148969,0.00764769,0.0143185,0
-0.0170023,-0.0565303,-0.0484298,0.0126419,0.002839,0.00696933,0
-0.0129853,-0.0620961,-0.0471431,0.00846498,-0.00132319,-0.00758624,0
0.0210876,-0.00687609,-0.0331527,0.00645098,-0.00168049,-0.0274019,0
0.0513161,0.0425058,-0.0315864,-0.00147946,0.00138313,-0.0310745,0
0.0527889,0.032628,-0.0249203,0.00140285,-0.0024924,-0.00597298,0
0.0486146,0.00373045,-0.0311141,-0.00220555,-0.00655872,0.0114279,0
0.0248603,-0.0180773,-0.0519837,-0.00874393,-0.00764427,0.022644,0
-0.00605556,-0.0266234,-0.0784435,-0.0103766,-0.00860804,0.0231394,0
-0.0227917,-0.0249345,-0.100357,-0.00846998,-0.00775978,0.0129707,0
-0.0103731,0.0086839,-0.101625,0.00163621,-0.00216043,-0.00285649,0
0.00286518,0.0145522,-0.0851245,0.00945926,0.00564474,-0.00250632,0
-0.00167308,-0.0099129,-0.0633412,0.0170988,0.00492442,0.004592,0
-0.00924903,-0.0404232,-0.0524616,0.0161904,0.00343907,0.00398314,0
-0.00727953,-0.0148632,-0.0529771,0.00917879,-0.00237149,-0.00670272,0
0.00402227,0.0138968,-0.0495635,0.00746229,-0.00111806,-0.018881,0
0.0222623,0.0137287,-0.0256582,0.0123692,0.00295499,-0.015855,0
0.0418023,0.0106787,0.0119354,0.0142214,0.00530019,-0.0116327,0
0.0446365,0.00473011,0.0255913,0.00328763,0.0060941,-0.00144225,0
0.0258315,-0.00157293,0.00062843,-0.00861597,-0.00558263,0.013085,0
-0.00585673,-0.0153195,-0.0334991,-0.0155908,-0.00930497,0.0249139,0
-0.0310918,-0.0342455,-0.0433692,-0.00559509,-0.00858682,0.0272778,0
-0.0364627,-0.0401322,-0.026562,0.00829054,-0.0010353,0.0159443,0
-0.0265913,-0.0439513,-0.000358902,0.0161701,0.00372121,0.00726116,0
-0.00986655,-0.0454541,0.0207467,0.0160287,0.00385702,-0.00232995,0
-0.00159949,-0.0440058,0.0265951,0.0101012,0.00168213,-0.00818443,0
0.00778905,-0.0253744,0.0319291,0.0119244,-0.00237295,-0.0141839,0
0.0135725,0.00369218,0.041223,0.00871148,0.000706613,-0.0142262,0
0.00844619,0.0149033,0.0338629,-0.0011493,0.00266778,-0.00632697,0
0.00478916,-0.00484693,0.0164399,-0.00496872,-0.000991642,-1.75238e-05,0
0.0194877,0.0104239,0.00410693,-0.00468028,-0.00101408,-0.00429577,0
0.0207836,0.0330739,0.00674315,-0.00162138,0.00655746,0.00314832,0
-0.0122415,0.0307326,0.0102097,0.000950292,0.00764009,0.0232596,0
-0.0491217,-0.0292955,0.00131577,-0.000972509,0.00439617,0.0298788,0
-0.0525649,-0.0539153,-0.00158321,0.000506558,-0.00034678,0.0153356,0
-0.0363504,-0.00802019,-0.00219392,0.00107129,0.00127885,-0.0126499,0
-0.0160006,0.0421892,0.00597925,0.000291295,0.00475869,-0.0228215,0
-0.00992591,0.039794,0.0269969,0.00577486,0.0032239,-0.0121453,0
0.0152817,0.00546474,0.0533092,0.00846484,0.000432968,-0.00418812,0
0.0268812,-0.0198224,0.0516123,-0.00388963,-0.00249657,-0.00241297,0
0.0169953,-0.00808739,0.0234044,-0.0144809,-0.0127872,-0.0010649,0
-0.0128457,0.00796159,-0.000399817,-0.0214703,-0.0113811,0.00120401,0
-0.00816398,0.0369231,-0.00865225,-0.0170033,-0.00839156,-0.00611794,0
0.0109382,0.0156003,-0.0161888,-0.0175226,-0.00674161,-0.00514567,0
0.0188973,-0.0176844,-0.0215895,-0.0116733,-0.00675252,0.000339389,0
0.0077685,-0.0184005,-0.0304656,-0.0134909,-0.00503704,-0.000223398,0
0.0106339,0.00868586,-0.0379689,-0.0110894,-0.00360861,-0.00730294,0
0.00923204,0.0173403,-0.0444566,-0.0121066,-0.000621647,-0.00569391,0
0.0166196,0.0177635,-0.0341755,-0.000337318,-0.00221446,-0.002083,0
0.0304792,0.00825093,-0.0201577,0.00153603,0.00517681,0.00283486,0
0.0340027,-0.00120369,-0.000981646,0.00335235,0.0028559,0.00916052,0
0.0164652,-0.0205343,-0.0147204,-0.00338832,-0.00190407,0.0178725,0
-0.00892305,-0.034071,-0.0256951,2.37525e-05,-0.00482705,0.016138,0
-0.00892305,-0.034071,-0.0256951,2.37525e-05,-0.00482705,0.016138,0
-0.0033376,-0.0252104,-0.0274618,0.00198711,-0.000687957,-0.000669658,0
0.0199254,-0.0101411,-0.0138052,0.00357322,0.00492537,-0.0147086,0
0.0337697,-0.0134489,-0.0123666,0.00639504,0.00274241,-0.013935,0
0.0414173,0.0107721,-0.019467,0.00549561,6.85453e-05,-0.0134312,0
0.0388143,0.0471567,-0.023711,0.00305372,0.00277856,-0.00867021,0
0.0232969,0.0412301,-0.0278146,0.00308714,0.00310555,0.00600606,0
0.00539088,0.0133546,-0.0406526,0.00155225,-0.000664353,0.0159583,0
-0.00257544,0.00106116,-0.0543072,0.00379898,-0.00270656,0.0131317,0
0.00199345,0.0148044,-0.0390539,0.0105772,0.00292411,0.00316435,0
0.000999991,0.0131694,-0.0205318,0.0110418,0.0103576,-0.000763297,0
0.0131996,0.0122664,-0.0016301,0.0150966,0.00657803,-0.00454617,0
0.00964588,0.0220339,0.00706568,0.00986709,0.00536171,-0.00214314,0
-0.00707115,0.00912656,0.0180934,0.00651255,0.00443119,0.00726551,0
-0.0122219,-0.0255217,0.0154592,0.000780851,0.00202382,0.00472641,0
-0.00725268,-0.0318727,0.0194717,-0.00119678,0.000918686,-0.00525439,0
0.00685285,0.0124088,0.0368954,0.00046809,0.00454918,-0.0174727,0
0.0130601,0.0450911,0.049772,-0.00600499,0.00663909,-0.0150705,0
0.0201727,0.0250632,0.048543,-0.00949425,-0.00131369,-0.00287694,0
0.0254247,-0.0216823,0.0378846,-0.0136208,-0.00424129,0.0118032,0
0.0187002,-0.0366257,0.0365463,-0.0120415,-0.00467354,0.0154511,0
-0.0016793,-0.0250502,0.0189353,-0.0216652,-0.00331855,0.0149898,0
-0.0116271,-0.0139831,-0.00891915,-0.0229846,-0.010465,0.0121156,0
-0.0202243,-0.0258324,-0.0381523,-0.0224814,-0.0108246,0.0128531,0
-0.0303106,-0.0427443,-0.0384275,-0.00881954,-0.00675756,0.010827,0
-0.0255081,-0.0492349,-0.0328965,-0.00191961,-0.00230086,0.0021286,0
-0.018049,-0.0332886,-0.0335284,-0.000760913,-0.000986427,-0.0083409,0
-0.014987,-0.0158786,-0.0445634,0.000604384,-0.00177631,-0.0116956,0
-0.0148687,0.00535543,-0.0318763,0.0112255,1.20401e-05,-0.00879341,0
0.000164257,0.0125398,-0.00941539,0.0152077,0.00542048,-0.00787759,0
0.00794531,-0.0032873,0.00718278,0.0166014,0.00484365,0.00297946,0
-0.00423702,-0.0178598,0.00470702,0.0121096,-0.00101736,0.0132561,0
-0.0175403,-0.0115497,-0.000554277,0.00790571,-0.00195101,0.0140842,0
-0.0151451,0.0110752,-0.0036242,0.0106234,-0.00239289,0.0056566,0
-0.014652,0.0169023,0.0101195,0.0119547,0.00225416,0.0068199,0
-0.023573,-0.00486996,0.0174106,0.0130756,-0.00125068,0.0126643,0
-0.0267934,-0.0207053,0.0118519,0.0118083,-0.00508177,0.00838453,0
-0.026226,-0.00994808,0.0157864,0.00962081,-0.00341481,-0.00284719,0
-0.0145464,0.0206721,0.022487,0.00987379,-0.00400123,-0.0129231,0
-0.000222204,0.0441368,0.0113805,0.00257794,-0.00523618,-0.018773,0
0.00280235,0.0385556,0.009244,0.00189701,-0.00714198,-0.00387812,0
-0.0097507,0.0318128,0.00711071,0.00245088,-0.00785995,0.00373954,0
-0.00159518,0.0165579,0.00213305,0.000517085,-0.00744551,0.00103515,0
0.00481452,0.022586,-0.0064378,-0.00517948,-0.00855741,-0.000982523,0
0.00765871,0.0265023,-0.00934847,-0.00248139,-0.00742716,-0.00124747,0
-0.01211,0.0381776,-0.0512216,-0.0111209,-0.0109334,0.00643796,0
-0.0418821,0.0725821,-0.0824314,-0.00945771,-0.0139504,-0.000104308,0
-0.0520007,0.0927341,-0.0687316,-4.8548e-05,0.00297719,-0.00268364,0
-0.0313017,0.0948434,-0.0364218,0.0139852,0.00729549,-0.011085,0
0.00878147,0.114633,-0.0245134,0.00261599,0.00404921,-0.0207385,0
0.0247866,0.109244,-0.0253571,0.00128377,0.00627005,-0.00927842,0
0.00225954,0.114714,-0.0283827,0.000949159,0.00223312,0.0109609,0
-0.036968,0.0946264,-0.0319281,-0.0034986,0.000799417,0.0270166,0
-0.0525296,0.0363305,-0.0113293,0.00556254,0.00248601,0.0265552,0
-0.036557,0.00629643,0.0300748,0.0157709,0.00207862,0.00554919,0
-0.036557,0.00629643,0.0300748,0.0157709,0.00207862,0.00554919,0
0.00721373,0.0164508,0.0536918,0.00989158,-0.00126132,-0.0174784,0
0.0186546,0.0128904,0.0485226,0.0017467,-0.00466914,-0.00903463,0
-0.019617,-0.00954996,0.0677136,0.0104918,-0.00850923,0.0100814,0
-0.0467094,-0.0115164,0.0641159,0.00121051,-0.0135624,0.00184155,0
-0.00179614,-0.0247223,0.061152,-0.00645775,-0.0123781,-0.0250414,0
0.0460886,0.00838246,0.0670729,-0.00869799,-0.00697798,-0.0332142,0
0.0609291,0.0486249,0.0601724,-0.0167723,-0.00321962,-0.0172529,0
0.0437149,0.043747,0.0246549,-0.0245923,-0.00666749,0.0110561,0
0.00725765,-0.00931306,0.00573615,-0.016941,-0.00839788,0.0366149,0
-0.016573,-0.0398996,0.000728494,-0.0135433,-0.00264728,0.031674,0
-0.0124805,-0.027463,-0.0132835,-0.0141971,0.000612229,0.0172694,0
-0.013118,-0.0159064,-0.0310547,-0.0135918,0.000642002,0.0097217,0
-0.041775,-0.0293296,-0.0398022,-0.00421839,0.00409847,0.0190432,0
-0.0574156,-0.0167226,-0.029341,0.00636502,0.00725792,0.0124867,0
-0.0601726,-0.00102754,-0.0203198,0.00559707,0.00988865,0.00763798,0
-0.0537858,-0.00664784,-0.0213675,0.00683221,0.00482374,0.0106858,0
-0.0568236,-0.0373277,-0.00922522,0.0118976,0.00227472,0.0144203,0
-0.0637593,-0.0585752,0.0180118,0.0240705,0.000708312,0.00817937,0
-0.043975,-0.0575183,0.0396161,0.0190351,-0.00202428,-0.00845408,0
-0.0398108,-0.0368514,0.0255038,0.00423349,-0.0084185,-0.0107664,0
-0.0533479,-0.0267259,0.0042404,-0.00651919,-0.0156896,0.00185043,0
-0.0506249,-0.049603,0.00380246,3.19853e-05,-0.0125129,0.00181997,0
-0.0422777,-0.0701589,0.000592133,0.0029811,-0.0118643,-0.0102865,0
-0.0362641,-0.0527933,-0.0088065,-0.00267546,-0.0120414,-0.021484,0
-0.0268489,-0.0272926,-0.0229325,-0.0036209,-0.00785679,-0.0290864,0
-0.00993501,-0.000156424,-0.0337304,-0.0116053,-0.00363989,-0.0225712,0
0.0128937,-0.000228012,-0.0259503,-0.0141167,-0.00106835,-0.0104275,0
0.0563321,-0.0116142,-0.0287082,-0.016013,-4.61936e-06,-0.00193459,0
0.0751685,-0.0589766,-0.0194851,-0.0160793,0.00522223,0.014513,0
0.0770196,-0.162746,-0.0152196,-0.0159777,0.00441858,0.0332931,0
0.0990541,-0.288942,-0.0161651,-0.0175729,0.00532627,0.0307702,0
0.131816,-0.383111,-0.0162196,-0.0122438,0.00787655,0.0171911,0
0.168236,-0.393048,-0.00538787,-0.00133019,0.0100449,-0.00171256,0
0.184022,-0.315787,-0.0288584,-0.00808741,0.00928247,-0.0141098,0
0.116546,-0.222224,-0.0644826,-0.00399287,0.00347978,0.00113952,0
-0.00645763,-0.105962,-0.086385,-0.000392862,0.00359347,0.0200118,0
-0.105566,0.0177858,-0.110892,-0.00251063,-0.000554323,0.0136518,0
-0.112132,0.0485443,-0.103559,0.000605125,-0.000587314,0.000460446,0
-0.0682095,-0.0226486,-0.0838773,0.00240926,0.000596464,-0.00584024,0
-0.0264005,-0.113645,-0.0605298,0.00392023,-0.00427553,-0.000507712,0
-0.000730208,-0.112093,-0.0601528,0.00347092,-0.00604418,-0.00670278,0
-0.0223828,-0.0809075,-0.0625934,0.00370788,-0.00580156,0.000137866,0
-0.0518736,-0.0640938,-0.0631418,0.00466865,-0.00453179,0.00240856,0
-0.0569942,-0.0633954,-0.0647076,0.00580279,-0.00355333,-0.00793523,0
-0.0419304,-0.0882628,-0.062907,0.00280827,-0.00227349,-0.0143824,0
-0.0209675,-0.0776052,-0.056545,0.00902188,-0.00245017,-0.0159625,0
-0.0195591,-0.0352916,-0.0391226,0.0153565,0.00302112,-0.0131395,0
-0.0332335,-0.0163253,-0.0189536,0.00981312,0.00576392,-0.00299859,0
-0.0271437,-0.0566249,-0.0110422,0.00528118,0.00207791,0.00597399,0
-0.0141118,-0.100863,-0.015675,0.00238238,-0.0021608,0.00815117,0
-0.0151706,-0.120324,-0.0159705,0.000329074,-0.000579134,0.0122438,0
-0.0281825,-0.10323,-0.0189444,-0.00348193,0.00135434,0.0102257,0
-0.0244541,-0.0787791,-0.0168712,-0.00403492,0.00243452,0.00138503,0
-0.00775669,-0.0322971,-0.0152377,0.000612814,-0.000845328,-0.00810993,0
-0.00775669,-0.0322971,-0.0152377,0.000612814,-0.000845328,-0.00810993,0
-0.00639446,0.0166771,-0.0234102,-0.00669277,-0.000941038,-0.00472701,0
-0.0130045,0.0147849,-0.0297461,-0.0074821,-0.000500709,0.00899351,0
-0.0309529,-0.0119845,-0.0287406,-0.00273008,-0.00149867,0.0168115,0
-0.0389087,-0.0390928,-0.02252,0.00697162,0.000848934,0.0141528,0
-0.0500049,-0.0360078,-0.0200877,-0.00125782,-0.000648677,0.00651842,0
-0.05396,-0.0147308,-0.0169457,0.00479474,-0.00338244,-0.00174022,0
-0.0520973,0.0386247,-0.00332449,0.0067915,-0.000352114,-0.0153248,0
-0.0332738,0.125614,-0.00842286,0.00361422,-0.00695837,-0.0339013,0
-0.000948437,0.232776,-0.0222188,-0.00277811,-0.00780034,-0.0397241,0
0.0838982,0.215977,-0.00846834,0.000297785,0.00157616,-0.011166,0
0.159263,-0.216057,0.0445131,0.02512,0.00525643,0.0338474,0
0.0500885,-0.227346,0.0722832,0.0199358,0.000433505,0.0550381,0
-0.0921232,0.0238264,-0.038586,-0.0312592,-0.0167218,0.0125017,0
-0.259161,0.266256,-0.121925,-0.0282642,-0.0190572,0.00606525,0
-0.208926,0.220465,-0.105926,-0.000677221,0.00624768,-0.0102183,0
