attitude_roll,attitude_pitch,attitude_yaw,rotationRate_x,rotationRate_y,rotationRate_z,acceleration_x,acceleration_y,acceleration_z
-0.0192724,0.164984,0.00159349,-0.143923,-0.488754,0.470578,0.112653,0.118002,-0.194243
-0.0361713,0.165764,0.0150141,0.158631,-0.435874,0.391809,0.0377581,0.049115,-0.0651795
-0.0435993,0.169394,0.022603,0.221558,-0.156694,0.345103,-0.0630717,-0.00501466,-0.0531828
-0.0454923,0.17393,0.0292889,0.265983,0.0580494,0.291839,-0.0826967,0.00746548,-0.00322819
-0.0447399,0.17975,0.0351617,0.349251,0.0919461,0.281691,-0.0534078,0.0400511,0.0429167
-0.0443077,0.187421,0.041895,0.444707,0.0676012,0.349462,-0.0151525,0.0726172,0.0816825
-0.0448079,0.196832,0.0499295,0.535421,0.050054,0.388184,-0.0195486,0.0884616,0.0931864
-0.0449354,0.208081,0.0576527,0.623695,0.103045,0.316197,-0.0559633,0.0658513,0.0833679
-0.0438375,0.220676,0.0637946,0.65144,0.131455,0.228565,-0.0618078,0.0723137,0.0878035
-0.0420581,0.232933,0.0683229,0.578572,0.147846,0.172477,-0.0409837,0.0766571,0.0913044
-0.0401397,0.242728,0.0723211,0.397552,0.113063,0.186157,0.00101919,0.0866652,0.10264
-0.0397604,0.248101,0.0768047,0.162245,0.0561704,0.229416,0.0309492,0.101719,0.10988
-0.0398002,0.249197,0.0820775,-0.0235164,0.0609782,0.269119,0.0184953,0.090986,0.0671898
-0.0396574,0.247471,0.0875624,-0.105436,0.0779343,0.264919,-0.0213601,0.0526613,0.00275409
-0.039769,0.245678,0.0929438,-0.0332178,0.0535663,0.266099,-0.0391178,0.0120434,-0.052004
-0.0388561,0.246433,0.0984601,0.129177,0.191913,0.272962,-0.0489361,0.00235334,-0.0638716
-0.0354463,0.24986,0.104352,0.206856,0.275189,0.280753,-0.0428559,0.000869691,0.00073272
-0.0312472,0.253292,0.110039,0.143442,0.288591,0.258227,-0.0369544,-0.0344881,0.088653
-0.026745,0.255076,0.115106,0.0527549,0.271327,0.233821,-0.0442375,-0.0693061,0.152631
-0.0234118,0.255491,0.119563,0.0109683,0.17413,0.189686,-0.049387,-0.0931657,0.177433
-0.0213115,0.256006,0.122382,0.0536927,0.115008,0.0738353,-0.0631249,-0.120042,0.172954
-0.0196399,0.2579,0.12258,0.135262,0.0598713,-0.0626164,-0.055901,-0.126175,0.180105
-0.0186841,0.261121,0.12023,0.186541,-0.0263805,-0.144006,-0.0382858,-0.115249,0.198019
-0.0194371,0.265751,0.117972,0.275326,-0.115362,-0.070853,0.00865226,-0.102906,0.193183
-0.0228761,0.272043,0.117463,0.34919,-0.229383,-0.00341848,0.0067893,-0.0994338,0.157186
-0.027807,0.279504,0.117965,0.398287,-0.226779,0.0289577,-0.00766889,-0.124161,0.128515
-0.0311129,0.287606,0.118261,0.407049,-0.092717,-0.0385473,-0.00100791,-0.147327,0.09663
-0.0301809,0.295744,0.116939,0.401605,0.168721,-0.0826415,-0.00552713,-0.176917,0.0411415
-0.0258372,0.302945,0.118984,0.305687,0.299945,0.313064,0.0573575,-0.124733,0.0233728
-0.0213158,0.307185,0.127249,0.131836,0.385132,0.380886,0.0212624,-0.10546,-0.0130925
-0.0160473,0.308153,0.133682,-0.02024,0.335731,0.257288,0.0436873,-0.147904,-0.0480207
-0.0104475,0.30665,0.1385,-0.111774,0.38919,0.176678,0.042156,-0.131757,-0.0895638
-0.00217132,0.303705,0.14047,-0.191179,0.490573,0.0282814,0.0218626,-0.125808,-0.116705
0.00649601,0.298744,0.140896,-0.303366,0.351709,0.0245326,0.0821707,-0.12107,-0.0801712
0.0110266,0.292002,0.141487,-0.363224,0.116641,0.0138972,0.0790857,-0.0954153,-0.103164
0.0109798,0.284316,0.141001,-0.410391,-0.139685,-0.0813507,0.0338338,-0.0874034,-0.168164
0.00697724,0.276,0.138445,-0.410386,-0.3004,-0.155251,0.00891186,-0.0489938,-0.252577
0.00257915,0.268603,0.135922,-0.306269,-0.15163,-0.0639011,0.0412297,0.0237007,-0.304675
0.00370619,0.264579,0.136641,-0.0981142,0.307239,0.132313,0.0577631,0.0744451,-0.273695
0.0125198,0.263986,0.141048,-0.00441109,0.654496,0.273067,0.0438529,0.0857294,-0.11823
0.0256853,0.263102,0.14699,-0.109498,0.779342,0.292297,0.0312316,0.0376798,0.0575852
0.0388618,0.259934,0.153101,-0.216562,0.682239,0.28986,0.0335286,0.00950399,0.139048
0.0489473,0.256085,0.159556,-0.171534,0.486281,0.333269,0.0419927,0.0284108,0.124922
0.0545388,0.25472,0.167911,-0.00313519,0.284661,0.479848,0.0638242,0.0802978,0.0728319
0.0550803,0.256975,0.179235,0.16068,0.0502551,0.615817,0.0562829,0.104513,0.0503979
0.0507576,0.261874,0.192247,0.250639,-0.130688,0.647638,0.022283,0.0863137,0.0394765
0.0439027,0.267559,0.204667,0.245285,-0.221958,0.565308,-0.0239401,0.0748329,0.0278668
0.0366039,0.272017,0.215099,0.146824,-0.211675,0.467564,-0.043734,0.0754985,0.0194705
0.0305918,0.273711,0.22427,-0.0144324,-0.147105,0.430814,-0.0429677,0.0869872,0.0125253
0.0261606,0.272633,0.233201,-0.073672,-0.0382087,0.426142,-0.0276787,0.0979878,-0.0218375
0.0247447,0.273262,0.242016,0.149281,0.138857,0.428596,-0.0242209,0.0956036,-0.0908507
0.0259198,0.278921,0.251089,0.36245,0.188294,0.468381,-0.000135019,0.102054,-0.0303332
0.0259198,0.278921,0.251089,0.36245,0.188294,0.468381,-0.000135019,0.102054,-0.0303332
0.0258925,0.286771,0.261007,0.375306,0.0761943,0.499546,0.0318082,0.0813639,0.0904021
0.0229696,0.293579,0.270632,0.269957,-0.0939625,0.425621,0.0221588,0.0310331,0.158164
0.0178768,0.297516,0.279192,0.112941,-0.141667,0.394904,0.0373375,0.0307562,0.167386
0.013081,0.299213,0.286178,0.0566624,-0.124923,0.281988,0.0288213,0.0096733,0.117932
0.00966313,0.300229,0.291326,0.0362267,-0.0532644,0.215327,0.0168312,0.0066461,0.082162
0.00816548,0.300736,0.294965,0.0200326,0.00067401,0.141264,0.00578138,0.00368166,0.0607388
0.00762948,0.301476,0.29726,0.0597097,0.0214187,0.0769043,0.0177848,0.00686052,0.0231546
0.00804153,0.303186,0.298354,0.106897,0.0393194,0.0378793,0.0290685,-0.00128856,-0.00366366
0.00802095,0.305626,0.298919,0.1315,-0.0382185,0.0161131,0.0347245,-0.00337052,-0.00389129
0.00588318,0.307987,0.298681,0.0927417,-0.185447,-0.0404655,0.0172208,-0.000890464,-0.0131352
0.00190666,0.308892,0.297452,-0.00797258,-0.223685,-0.071564,0.0137017,-0.0106329,-0.062498
-0.00126237,0.307338,0.295516,-0.160471,-0.161613,-0.117861,-0.020037,-0.021681,-0.129378
-0.00408927,0.301927,0.292408,-0.389794,-0.231648,-0.174938,-0.0341512,-0.015033,-0.167588
-0.00769503,0.292447,0.288555,-0.535231,-0.214463,-0.172573,-0.0331591,-0.0050087,-0.248587
-0.00982807,0.282352,0.285915,-0.443172,-0.0613321,-0.0644972,-0.0432957,0.00536129,-0.345827
-0.00915185,0.275905,0.285476,-0.191012,0.10825,0.0176624,-0.0949084,-0.0025607,-0.358143
-0.00602227,0.274395,0.285911,0.0193079,0.197868,0.0114396,-0.14409,-0.024293,-0.266691
-0.00128045,0.275821,0.285049,0.100404,0.257176,-0.110676,-0.187794,-0.042406,-0.142779
0.0055442,0.277535,0.280911,0.0648096,0.314571,-0.279224,-0.217597,-0.0326247,-0.0131344
0.0139105,0.278427,0.274492,0.0368142,0.338545,-0.319415,-0.19796,0.0102256,0.0830696
0.0219437,0.279267,0.268184,0.0739348,0.271685,-0.286915,-0.203358,0.0443587,0.134503
0.0273996,0.281673,0.262053,0.191985,0.100104,-0.311875,-0.229213,0.0444119,0.153041
0.0297262,0.286659,0.254277,0.322628,-0.0872912,-0.442651,-0.27799,0.0444219,0.152923
0.0301342,0.292907,0.242689,0.303151,-0.18353,-0.65265,-0.306419,0.062418,0.15691
0.0309906,0.296577,0.227283,0.0939027,-0.169554,-0.792384,-0.268021,0.0966611,0.167248
0.0328184,0.295938,0.210498,-0.0917148,-0.142073,-0.803021,-0.205519,0.131297,0.133626
0.0345664,0.292332,0.194482,-0.214073,-0.163509,-0.744792,-0.155087,0.137414,0.0909289
0.0343144,0.28702,0.179666,-0.250153,-0.298319,-0.710388,-0.14971,0.113189,0.0433507
0.0309131,0.282231,0.164923,-0.168558,-0.445646,-0.733803,-0.163413,0.0817675,-0.0202775
0.0263952,0.27969,0.149373,-0.0496495,-0.392,-0.770829,-0.165717,0.0640058,-0.0707945
0.0252359,0.278653,0.133421,-0.037944,-0.152126,-0.760313,-0.160216,0.0525117,-0.0416107
0.0291609,0.276582,0.118055,-0.14545,0.121277,-0.731139,-0.143451,0.027311,0.0336985
0.037796,0.271633,0.103381,-0.305488,0.331049,-0.703606,-0.133295,-0.00893193,0.124938
0.0491397,0.263789,0.0891765,-0.396612,0.406302,-0.703775,-0.13406,-0.0534992,0.186503
0.0603821,0.255567,0.0751294,-0.330558,0.355224,-0.699858,-0.124395,-0.0951827,0.207014
0.0703414,0.249408,0.0613053,-0.196921,0.292501,-0.674232,-0.122125,-0.116054,0.226428
0.0785921,0.245557,0.0479966,-0.102129,0.212499,-0.645288,-0.114898,-0.132224,0.245786
0.0850925,0.242748,0.0350697,-0.0858849,0.122504,-0.63839,-0.113916,-0.152787,0.250281
0.0894638,0.239657,0.0221327,-0.10805,0.0112981,-0.650765,-0.106856,-0.164303,0.215154
0.0919193,0.236599,0.00858442,-0.0602938,-0.0866698,-0.689986,-0.112777,-0.17022,0.130619
0.092596,0.235302,-0.00580059,0.064848,-0.169414,-0.714326,-0.091518,-0.147876,0.039552
0.0924968,0.236426,-0.0203253,0.162551,-0.186742,-0.674697,-0.0596594,-0.121346,-0.0388867
0.0914107,0.238474,-0.0335088,0.14474,-0.218949,-0.579993,-0.0162819,-0.108278,-0.0917139
0.091342,0.239588,-0.044867,0.0500965,-0.011596,-0.518419,-0.0108661,-0.0988949,-0.156973
0.0955923,0.237614,-0.0552209,-0.169677,0.146658,-0.516456,-0.00302797,-0.104673,-0.152576
0.0975915,0.230231,-0.0664625,-0.477314,-0.34969,-0.684552,-0.0835742,-0.125359,-0.136732
0.085364,0.216395,-0.0824673,-0.723273,-1.18029,-0.99009,-0.128407,-0.108013,-0.26606
0.0631703,0.201651,-0.102547,-0.521453,-1.28723,-1.04999,-0.0847221,-0.0386961,-0.568451
0.0493928,0.195236,-0.12253,-0.0148977,-0.373274,-0.916598,-0.0831637,0.090742,-0.727912
0.0567399,0.197788,-0.138243,0.284901,0.741827,-0.610911,-0.038575,0.152037,-0.543337
0.0567399,0.197788,-0.138243,0.284901,0.741827,-0.610911,-0.038575,0.152037,-0.543337
0.0794715,0.202287,-0.148927,0.183859,1.22144,-0.443731,-0.0184124,0.0885137,-0.141341
0.105226,0.202983,-0.15759,-0.0178509,1.11681,-0.408426,-0.031266,0.0138022,0.162666
0.124795,0.201611,-0.16609,0.027144,0.642037,-0.442007,-0.0298026,-0.0121546,0.261677
0.134037,0.203451,-0.175594,0.293359,0.0947078,-0.443139,-0.0149282,0.0108423,0.245783
0.133739,0.210817,-0.184612,0.527486,-0.267994,-0.315505,0.0149823,0.0607906,0.197156
0.127473,0.221101,-0.190853,0.536697,-0.475075,-0.175038,0.0162868,0.0896802,0.172193
0.118033,0.229787,-0.195331,0.36537,-0.560212,-0.176998,-0.0295047,0.0714134,0.141882
0.106738,0.234095,-0.200217,0.113503,-0.696563,-0.253037,-0.0720291,0.0718214,0.0896712
0.092664,0.233548,-0.206167,-0.0914723,-0.846222,-0.32682,-0.0972673,0.104249,-0.0102195
0.0768616,0.230822,-0.213432,-0.0764926,-0.873318,-0.40211,-0.0940518,0.126895,-0.164848
0.0637764,0.231144,-0.222161,0.19427,-0.595923,-0.436513,-0.0971945,0.15359,-0.296488
0.0578847,0.237512,-0.231126,0.471275,-0.205976,-0.391952,-0.079208,0.18368,-0.268044
0.0584765,0.247386,-0.239286,0.522696,0.0359683,-0.349811,-0.0629505,0.168073,-0.0956237
0.0619599,0.256206,-0.247223,0.38922,0.0900763,-0.37512,-0.0583732,0.119989,0.0890678
0.0651132,0.261533,-0.256031,0.196052,-0.0236505,-0.446458,-0.0613897,0.0781569,0.209813
0.0651913,0.263348,-0.2661,0.059801,-0.24239,-0.507881,-0.0428339,0.0471033,0.256396
0.061123,0.262975,-0.277088,-0.0333158,-0.432099,-0.555889,-0.0302526,0.0266321,0.252651
0.054646,0.260834,-0.289148,-0.112036,-0.51774,-0.631214,-0.0333011,0.000912786,0.224987
0.0478423,0.257237,-0.302968,-0.172683,-0.510767,-0.722206,-0.0322582,-0.0121918,0.180727
0.0414617,0.252935,-0.317914,-0.186286,-0.509379,-0.72898,0.00183072,-0.0108925,0.139439
0.0357658,0.249533,-0.332247,-0.0796399,-0.400848,-0.675211,0.0142385,-0.0067261,0.0627228
0.0323647,0.249125,-0.345777,0.0730271,-0.276516,-0.651926,-0.00342124,-0.0271865,0.00717998
0.0312786,0.250762,-0.35955,0.109137,-0.18089,-0.685406,-0.0057287,-0.0676384,0.0190005
0.0315483,0.251806,-0.374075,0.0264345,-0.173727,-0.72214,-0.010132,-0.0908431,0.0341901
0.0313206,0.250523,-0.389239,-0.107808,-0.23904,-0.751162,-0.00151398,-0.101317,0.0321048
0.0295521,0.247098,-0.404884,-0.177113,-0.325802,-0.777464,-0.0136815,-0.0949169,-0.0253955
0.0256441,0.242796,-0.420836,-0.213161,-0.446598,-0.774023,-0.00410673,-0.0797427,-0.0745256
0.0201484,0.238146,-0.435917,-0.200499,-0.434,-0.700976,0.000395343,-0.0616606,-0.1372
0.0162331,0.234724,-0.449553,-0.118336,-0.26313,-0.647037,-0.0117741,-0.0693364,-0.196235
0.0155689,0.232341,-0.462881,-0.121965,-0.149536,-0.668074,-0.026945,-0.0908955,-0.186641
0.0148505,0.2284,-0.477159,-0.264662,-0.280742,-0.736995,-0.0350942,-0.0995388,-0.137253
0.0103904,0.22154,-0.492725,-0.393292,-0.500313,-0.787326,-0.0328871,-0.0925539,-0.138354
0.00337055,0.213316,-0.50892,-0.394132,-0.505072,-0.799073,-0.0489789,-0.0565633,-0.196408
-0.00136749,0.206647,-0.524826,-0.261724,-0.278841,-0.754622,-0.0692182,-0.00838232,-0.249045
-0.000939551,0.203074,-0.539947,-0.11191,0.0081055,-0.740859,-0.103114,0.019461,-0.221096
0.00479166,0.201371,-0.555283,-0.0731561,0.253017,-0.763767,-0.136531,0.0400092,-0.135346
0.0147665,0.199619,-0.570795,-0.0850204,0.417537,-0.759551,-0.159523,0.0672075,-0.0396027
0.026239,0.197956,-0.585942,-0.0362541,0.40356,-0.735857,-0.182325,0.0938823,0.0346071
0.0359954,0.198357,-0.600926,0.14163,0.278281,-0.740447,-0.212498,0.104926,0.0738423
0.0434422,0.202474,-0.616826,0.31509,0.142651,-0.815387,-0.266235,0.115156,0.122508
0.0483121,0.208069,-0.634906,0.296629,-0.0239713,-0.940686,-0.306254,0.128446,0.199412
0.0508274,0.211009,-0.656046,0.070613,-0.156316,-1.12244,-0.315059,0.121236,0.260233
0.0518432,0.208023,-0.680722,-0.256351,-0.260263,-1.31392,-0.291593,0.109282,0.278884
0.0513584,0.198341,-0.708563,-0.553512,-0.345337,-1.45134,-0.245184,0.106818,0.243461
0.0498703,0.184205,-0.737806,-0.691085,-0.346015,-1.47874,-0.190821,0.119719,0.162951
0.048751,0.169016,-0.766541,-0.662654,-0.267105,-1.4234,-0.144931,0.128052,0.0943208
0.0486947,0.155934,-0.79379,-0.500063,-0.188387,-1.33015,-0.0974013,0.101073,0.0503557
0.0493919,0.146672,-0.819097,-0.31015,-0.111451,-1.22349,-0.0676405,0.0641764,0.055302
0.0515655,0.140554,-0.842654,-0.205542,-0.017295,-1.14904,-0.0771268,0.0224308,0.110939
0.0548755,0.13513,-0.865029,-0.241854,0.0364578,-1.10603,-0.0721397,-0.0338906,0.185254
0.0587134,0.127757,-0.88655,-0.377533,0.0655875,-1.07502,-0.0663954,-0.0863965,0.235106
0.0587134,0.127757,-0.88655,-0.377533,0.0655875,-1.07502,-0.0663954,-0.0863965,0.235106
0.0627856,0.117894,-0.907521,-0.467888,0.0841878,-1.07184,-0.0614543,-0.126596,0.2283
0.0670569,0.107242,-0.928304,-0.454998,0.105288,-1.06143,-0.0411242,-0.140278,0.197724
0.0710646,0.0973829,-0.948265,-0.385981,0.089156,-0.982052,-0.000279553,-0.131302,0.166563
0.0743233,0.0895255,-0.965892,-0.276233,0.0715498,-0.823326,0.0464954,-0.117274,0.132223
0.0764777,0.0838524,-0.980101,-0.192326,0.0040686,-0.624641,0.0773688,-0.114519,0.0940834
0.0756735,0.0797539,-0.990005,-0.147869,-0.184452,-0.396195,0.101931,-0.108472,0.0525776
0.0691965,0.0764121,-0.995868,-0.142627,-0.525806,-0.224846,0.112167,-0.115267,-0.0233095
0.0560671,0.0736391,-0.999308,-0.126181,-0.793703,-0.152708,0.0888132,-0.130849,-0.177052
0.0379633,0.0699635,-1.00215,-0.256434,-1.04678,-0.158922,0.0478169,-0.118418,-0.325339
0.0151977,0.0623742,-1.00528,-0.49348,-1.25324,-0.166017,0.0412747,-0.113783,-0.47879
-0.0102428,0.0514495,-1.00823,-0.553463,-1.26192,-0.124686,0.0531979,-0.0901138,-0.671236
-0.0323044,0.0421326,-1.01009,-0.357077,-0.909656,-0.0274293,0.0225808,-0.0276583,-0.825154
-0.0448115,0.037711,-1.00918,-0.092196,-0.328271,0.138815,0.0103561,0.0120214,-0.823888
-0.0458609,0.0372714,-1.00498,0.0474657,0.220676,0.276817,0.00826119,0.00601276,-0.680868
-0.0374925,0.0385999,-0.998439,0.102784,0.628491,0.377335,0.0218156,-0.0165093,-0.470075
-0.0222455,0.0412812,-0.989443,0.207448,0.912405,0.523766,0.0375751,-0.0148829,-0.263947
-0.00310137,0.0473464,-0.977701,0.433032,1.03334,0.645376,0.043076,0.0115621,-0.0691949
0.0160026,0.0587072,-0.963687,0.691634,0.916344,0.77148,0.0665453,0.0321231,0.12524
0.0302667,0.0746676,-0.947154,0.847287,0.593802,0.923369,0.10085,0.0449961,0.300254
0.0360132,0.0926415,-0.927911,0.875347,0.136121,1.05231,0.118629,0.0358837,0.407878
0.0314292,0.110417,-0.906757,0.820515,-0.392336,1.10323,0.13399,0.0226531,0.451641
0.0159692,0.12645,-0.884961,0.738278,-0.8644,1.09856,0.159513,0.0131215,0.424964
-0.00667972,0.140523,-0.863294,0.661075,-1.0817,1.06086,0.161933,0.0170446,0.32998
-0.0315727,0.152411,-0.842469,0.56159,-1.08839,0.982637,0.153211,0.0354124,0.232956
-0.0559784,0.161258,-0.823096,0.387149,-1.06168,0.899015,0.164919,0.0448676,0.159995
-0.0801863,0.165531,-0.805407,0.163971,-1.08204,0.823784,0.182582,0.0489619,0.0861891
-0.103809,0.166205,-0.789188,0.0870013,-0.986382,0.771486,0.197165,0.052831,-0.0317847
-0.123124,0.16738,-0.773687,0.222993,-0.660753,0.742112,0.186084,0.0726668,-0.14496
-0.135002,0.171444,-0.758178,0.365253,-0.273937,0.73143,0.176717,0.0913051,-0.154058
-0.139488,0.177387,-0.74238,0.415231,0.0943032,0.726012,0.162367,0.082754,-0.111495
-0.137771,0.1835,-0.727399,0.385828,0.313153,0.641707,0.12029,0.0575025,-0.0460485
-0.133055,0.189253,-0.714745,0.34908,0.370431,0.514783,0.109771,0.0349427,0.011382
-0.128036,0.194624,-0.704711,0.3192,0.314707,0.405009,0.106508,0.0362317,0.0417084
-0.124299,0.200489,-0.696027,0.391294,0.235203,0.380766,0.117269,0.0566925,0.0333523
-0.121524,0.20926,-0.687074,0.606308,0.253244,0.378392,0.0999339,0.0829801,-0.000449359
-0.117166,0.222768,-0.67815,0.820854,0.379774,0.314874,0.0572161,0.0898722,-0.00341231
-0.110221,0.238982,-0.670941,0.844991,0.482206,0.194634,0.0351401,0.0773359,0.0517585
-0.100842,0.254146,-0.666558,0.678029,0.550196,0.0670527,0.0199075,0.068313,0.0960791
-0.0903518,0.264487,-0.665566,0.353558,0.507802,-0.0695642,0.00408363,0.0650485,0.116243
-0.0806279,0.268551,-0.667714,0.0581013,0.425092,-0.162694,-0.0103589,0.0758506,0.0723372
-0.0708314,0.268364,-0.671536,-0.0845553,0.488384,-0.202406,-0.0404799,0.0945916,-0.0156593
-0.0578303,0.266434,-0.676027,-0.130133,0.695534,-0.222523,-0.076886,0.0908689,-0.0829936
-0.042368,0.263028,-0.681597,-0.270221,0.641111,-0.320938,-0.130397,0.0769764,-0.0816461
-0.0309415,0.254365,-0.690697,-0.659521,0.240559,-0.540395,-0.177029,0.0473768,-0.0560622
-0.0267359,0.237261,-0.704237,-1.06761,-0.105727,-0.703838,-0.163103,-0.00208016,-0.118358
-0.0262038,0.214567,-0.719775,-1.18969,-0.14832,-0.743825,-0.188542,0.0291016,-0.271054
-0.024961,0.192967,-0.735139,-0.968806,-0.0219433,-0.692787,-0.197734,0.075851,-0.394355
-0.0204914,0.178298,-0.747284,-0.505713,0.26195,-0.427136,-0.181739,0.0950947,-0.423973
-0.0112872,0.174037,-0.75185,0.0770292,0.560264,-0.0402234,-0.20153,0.0737789,-0.374971
0.00100013,0.180828,-0.751389,0.57383,0.641693,0.0282108,-0.27137,0.0202831,-0.207666
0.00100013,0.180828,-0.751389,0.57383,0.641693,0.0282108,-0.27137,0.0202831,-0.207666
0.0131574,0.195449,-0.751708,0.85343,0.551283,-0.0504482,-0.307264,-0.00403495,-0.0127157
0.0226163,0.21335,-0.754106,0.911909,0.334439,-0.165301,-0.316856,0.00947948,0.16061
0.0279165,0.230357,-0.760137,0.785539,0.0602879,-0.403903,-0.330124,0.0229419,0.278015
0.0289069,0.2431,-0.772217,0.510705,-0.251328,-0.74412,-0.32148,0.019018,0.333289
0.0254609,0.249813,-0.790983,0.219604,-0.540899,-1.04589,-0.282648,0.0292508,0.323518
0.0180346,0.251772,-0.814508,0.0507915,-0.763053,-1.21853,-0.217141,0.0800985,0.260384
0.0083691,0.25201,-0.840884,0.0134027,-0.85131,-1.34301,-0.183581,0.140388,0.177348
-0.0015676,0.251712,-0.86987,-0.0483079,-0.857913,-1.46574,-0.144768,0.176034,0.137523
-0.0103641,0.249812,-0.900929,-0.168756,-0.780856,-1.54668,-0.0900096,0.176299,0.112767
-0.016288,0.245489,-0.933325,-0.307403,-0.594821,-1.59228,-0.0445647,0.172046,0.0849413
-0.0174257,0.238638,-0.965877,-0.425136,-0.280733,-1.55057,-0.00755926,0.181357,0.0685896
-0.0124538,0.229822,-0.996907,-0.50001,0.0342528,-1.46064,0.0178024,0.177389,0.0776355
-0.00361781,0.219473,-1.02593,-0.557648,0.182035,-1.3665,0.053702,0.142535,0.105919
0.00586835,0.208028,-1.05262,-0.573985,0.189864,-1.24974,0.0880083,0.0952174,0.130233
0.0143462,0.19682,-1.07675,-0.524257,0.173887,-1.13163,0.100143,0.0600996,0.133562
0.0216205,0.186526,-1.09815,-0.470862,0.150775,-0.983126,0.121929,0.0298824,0.127582
0.0276726,0.177169,-1.11587,-0.426223,0.129099,-0.77895,0.158647,-0.00393185,0.111732
0.0322755,0.168607,-1.12919,-0.399386,0.0991879,-0.561584,0.190051,-0.038307,0.0898746
0.0348149,0.160485,-1.13792,-0.388047,0.013481,-0.328977,0.227587,-0.0679715,0.0520731
0.0352083,0.152873,-1.14188,-0.362065,-0.0248225,-0.0900374,0.245834,-0.0899851,-0.0128242
0.0344759,0.145834,-1.14094,-0.348003,-0.0396187,0.151831,0.239167,-0.102455,-0.0916624
0.0326181,0.139501,-1.13554,-0.293708,-0.0732986,0.354758,0.219917,-0.117223,-0.180484
0.0290053,0.134779,-1.12665,-0.197187,-0.175152,0.501298,0.188089,-0.129789,-0.26417
0.0230294,0.132967,-1.11545,0.00722894,-0.248985,0.604097,0.151264,-0.134499,-0.364391
0.0173515,0.135802,-1.10237,0.237198,-0.124085,0.708523,0.120703,-0.118583,-0.430346
0.0143095,0.142185,-1.08669,0.367233,0.029333,0.862131,0.0913957,-0.102373,-0.412338
0.0133145,0.150551,-1.06832,0.439358,0.129334,0.955713,0.0435077,-0.107387,-0.376511
0.0136927,0.160446,-1.04905,0.536053,0.213753,0.950349,0.0156279,-0.128617,-0.35835
0.0163267,0.172721,-1.03048,0.670748,0.384082,0.903261,-0.00611901,-0.104534,-0.337612
0.0233404,0.187504,-1.01237,0.762436,0.647748,0.92908,0.00189685,-0.024347,-0.255542
0.0345064,0.203282,-0.992834,0.750108,0.829799,1.04315,0.0294128,0.0523945,-0.124003
0.0470386,0.218379,-0.970877,0.673185,0.865124,1.16425,0.0404603,0.088214,-0.00264359
0.0582755,0.232277,-0.946756,0.602039,0.788888,1.26162,0.0463337,0.102081,0.0773278
0.0663111,0.245449,-0.920975,0.570658,0.616925,1.33217,0.0499661,0.117901,0.122437
0.0700771,0.258825,-0.893651,0.593164,0.445234,1.41059,0.0614629,0.143548,0.134622
0.0697213,0.272964,-0.864474,0.624381,0.296708,1.51085,0.0695417,0.174387,0.139851
0.0661212,0.287631,-0.833012,0.626408,0.217017,1.60934,0.0698353,0.189031,0.146826
0.0601538,0.301872,-0.799756,0.594595,0.155717,1.65652,0.0641371,0.18482,0.157019
0.0524765,0.315093,-0.765594,0.547407,0.120773,1.68221,0.0715136,0.1799,0.14796
0.043794,0.32738,-0.730555,0.522409,0.123126,1.70941,0.0747105,0.180679,0.12962
0.0345172,0.33891,-0.694782,0.503061,0.124184,1.7257,0.0888516,0.173325,0.118566
0.0250061,0.349846,-0.658512,0.490529,0.157145,1.72035,0.102091,0.150263,0.111556
0.0162416,0.35982,-0.622806,0.426156,0.200243,1.64711,0.0942352,0.133859,0.123962
0.00837921,0.367343,-0.589071,0.275415,0.220434,1.51985,0.10276,0.0985477,0.134134
0.00181608,0.371021,-0.557998,0.0639534,0.240551,1.39027,0.125047,0.0699641,0.136714
-0.00373262,0.370009,-0.529471,-0.158742,0.239746,1.28011,0.148042,0.0656035,0.126196
-0.00833087,0.364912,-0.503101,-0.316802,0.248666,1.20192,0.16832,0.0713296,0.083964
-0.0117976,0.357949,-0.478045,-0.343009,0.298741,1.1593,0.188158,0.0833554,0.0265334
-0.0137605,0.351042,-0.453914,-0.323556,0.336276,1.12287,0.200925,0.0938157,-0.00899589
-0.0148071,0.344216,-0.430257,-0.330267,0.372454,1.12245,0.226813,0.0953325,-0.0231336
-0.0145883,0.337011,-0.406364,-0.362703,0.455906,1.14473,0.247593,0.10145,-0.0462976
-0.0145883,0.337011,-0.406364,-0.362703,0.455906,1.14473,0.247593,0.10145,-0.0462976
-0.0123368,0.328797,-0.38212,-0.432686,0.56917,1.1646,0.246234,0.10298,-0.0682738
-0.00790037,0.319076,-0.357361,-0.523315,0.656859,1.19908,0.252512,0.100752,-0.0893984
-0.00237267,0.307869,-0.331716,-0.578519,0.689338,1.25946,0.249667,0.097737,-0.117608
0.00361455,0.296614,-0.304658,-0.53344,0.71491,1.33119,0.230903,0.10187,-0.155262
0.0100712,0.287298,-0.276142,-0.411065,0.758409,1.4029,0.207413,0.106284,-0.177617
0.0175791,0.280793,-0.246164,-0.286508,0.834042,1.4759,0.180239,0.107501,-0.171743
0.0262063,0.276465,-0.21473,-0.223322,0.893104,1.5443,0.149963,0.0986249,-0.133656
0.0353878,0.27317,-0.18209,-0.209791,0.913132,1.59261,0.108586,0.0845895,-0.0889214
0.0446208,0.270296,-0.148825,-0.206231,0.905308,1.60842,0.0711493,0.066287,-0.0509848
0.0535875,0.267811,-0.115477,-0.20136,0.880995,1.59954,0.0340713,0.0592227,-0.0202167
0.0620005,0.26563,-0.0824796,-0.200594,0.830809,1.57188,0.00297173,0.0498253,0.00765938
0.069981,0.263823,-0.0502602,-0.187189,0.822883,1.52778,-0.0258939,0.0346223,0.0252779
0.0783776,0.262346,-0.0190577,-0.190303,0.831834,1.47324,-0.0493275,0.0293206,0.052068
0.0871135,0.260667,0.010806,-0.221885,0.810443,1.39576,-0.0660283,0.0141795,0.078155
0.0952234,0.258089,0.0390279,-0.290237,0.715923,1.30662,-0.0787622,-0.00358635,0.109899
0.101605,0.254012,0.0654919,-0.364732,0.596406,1.21142,-0.0910343,-0.016014,0.1221
0.106294,0.248649,0.0900775,-0.413506,0.495222,1.10652,-0.098253,-0.0278613,0.113022
0.10979,0.242559,0.112489,-0.423039,0.403355,0.997831,-0.103219,-0.0424058,0.0920182
0.112177,0.236498,0.132704,-0.389927,0.318588,0.896046,-0.100404,-0.051421,0.0617419
0.113803,0.231382,0.150768,-0.323416,0.272751,0.801776,-0.0999718,-0.054704,0.0319651
0.115133,0.226891,0.166913,-0.319763,0.229312,0.717418,-0.0987513,-0.0617943,0.03132
0.116088,0.221612,0.181507,-0.377501,0.185261,0.641637,-0.09888,-0.0815741,0.0329128
0.116675,0.215192,0.194787,-0.405863,0.169195,0.572648,-0.105226,-0.102399,0.0167565
0.117558,0.208429,0.206563,-0.397767,0.170629,0.49351,-0.122211,-0.115434,0.00283921
0.119235,0.201973,0.216524,-0.350957,0.206665,0.395723,-0.135913,-0.130422,0.00334138
0.122025,0.196433,0.22414,-0.297291,0.210365,0.275631,-0.149624,-0.144855,0.0180166
0.124906,0.191354,0.229219,-0.276277,0.182402,0.162092,-0.137704,-0.161817,0.0450221
0.127359,0.186128,0.232271,-0.281571,0.109985,0.0752807,-0.12267,-0.167942,0.0694038
0.128372,0.180885,0.233902,-0.252539,0.0252241,0.0281214,-0.0943297,-0.164674,0.0711719
0.128249,0.176509,0.234799,-0.193371,-0.015043,0.00286693,-0.0695908,-0.167118,0.0671979
0.127389,0.172854,0.23501,-0.184264,-0.0781412,-0.0288052,-0.0518639,-0.174609,0.0673103
0.124476,0.168235,0.234369,-0.293203,-0.261771,-0.107989,-0.0451769,-0.181633,0.0682504
0.115412,0.159153,0.231456,-0.603287,-0.717814,-0.307132,-0.066581,-0.198268,0.0352368
0.0979429,0.142896,0.224864,-0.925713,-1.10598,-0.489693,-0.034778,-0.214325,-0.0829445
0.075406,0.123178,0.216422,-0.900654,-1.18883,-0.496489,0.00973944,-0.157803,-0.323919
0.0560062,0.108392,0.208432,-0.489778,-0.796024,-0.379696,-0.0125729,-0.0544336,-0.535565
0.0461253,0.103037,0.202506,-0.044354,-0.291674,-0.243929,-0.0454677,0.00109428,-0.585677
0.042661,0.104515,0.198067,0.182529,-0.164107,-0.21975,-0.0696218,-0.0270231,-0.476897
0.0395831,0.109252,0.192365,0.314017,-0.204224,-0.348646,-0.129501,-0.0541584,-0.377041
0.0369031,0.116683,0.183357,0.480372,-0.148966,-0.514105,-0.2006,-0.0203153,-0.327132
0.0365134,0.128266,0.171291,0.731871,-0.0379606,-0.637988,-0.227413,0.0411834,-0.264369
0.0386696,0.144921,0.156743,0.978338,0.0413145,-0.7402,-0.247941,0.0995227,-0.144676
0.0420219,0.164952,0.139807,1.07333,0.0173188,-0.862239,-0.274029,0.131139,-0.0102941
0.0448763,0.185118,0.119465,1.00973,-0.108584,-1.06714,-0.308636,0.143703,0.108924
0.0455499,0.202236,0.0943878,0.798544,-0.310561,-1.32469,-0.325536,0.156731,0.188321
0.0440167,0.214315,0.0641378,0.547156,-0.451532,-1.58544,-0.326077,0.179826,0.210002
0.0424135,0.221617,0.0291555,0.341857,-0.444809,-1.79341,-0.309919,0.227666,0.183452
0.0431497,0.225259,-0.00901257,0.188961,-0.312371,-1.90476,-0.264504,0.278596,0.160948
0.0475177,0.22615,-0.048203,0.0808517,-0.136607,-1.91423,-0.217616,0.30429,0.163592
0.0544382,0.224975,-0.0871824,-0.00654124,-0.0642844,-1.90233,-0.159897,0.291014,0.189924
0.0618457,0.2214,-0.125566,-0.147469,-0.0444027,-1.86207,-0.0969645,0.263724,0.212358
0.0693593,0.21425,-0.162386,-0.334805,0.0039785,-1.78272,-0.0432899,0.227522,0.210581
0.0769764,0.203434,-0.196955,-0.48682,0.0364707,-1.675,0.00148292,0.198188,0.179146
0.0842483,0.190625,-0.228408,-0.530435,0.0738794,-1.50071,0.0372029,0.180653,0.121729
0.0906401,0.177848,-0.255412,-0.50293,0.0631529,-1.25862,0.0736467,0.166505,0.0814286
0.0952109,0.166528,-0.277244,-0.422575,0.0143674,-0.994041,0.103865,0.13187,0.0533245
0.0973511,0.157597,-0.294116,-0.311182,-0.0742124,-0.757353,0.108978,0.0898677,0.0278987
0.0971161,0.151261,-0.306765,-0.207131,-0.139854,-0.560089,0.103988,0.0423014,0.00755954
0.0952363,0.14701,-0.316037,-0.129283,-0.183167,-0.403763,0.0858955,-0.00625934,-0.0141706
0.0919503,0.144484,-0.322709,-0.0642394,-0.241816,-0.290389,0.0677053,-0.0499117,-0.0240452
0.0875897,0.143212,-0.327857,-0.024456,-0.261394,-0.241651,0.0400658,-0.0893329,-0.0350276
0.0835091,0.142506,-0.332753,-0.0122357,-0.20734,-0.260789,0.00279113,-0.123616,-0.0513213
0.0812257,0.141702,-0.338452,-0.0199261,-0.0912422,-0.313889,-0.0308999,-0.147804,-0.0630152
0.0821379,0.140952,-0.345355,0.00558072,0.0920865,-0.373906,-0.0521181,-0.157457,-0.0772201
0.0870683,0.140862,-0.353591,0.0581141,0.283707,-0.441194,-0.0700295,-0.151839,-0.0657029
0.0957791,0.141761,-0.363096,0.115294,0.440974,-0.482847,-0.0738146,-0.146952,-0.0270655
0.106656,0.143466,-0.373273,0.152651,0.48783,-0.503943,-0.0757579,-0.141694,0.031069
0.117489,0.145628,-0.383854,0.180519,0.435665,-0.51504,-0.0766259,-0.141935,0.0782362
0.12694,0.148454,-0.394744,0.231705,0.352105,-0.517419,-0.0748988,-0.136164,0.0911813
0.134908,0.152281,-0.405791,0.29328,0.287976,-0.521076,-0.0814901,-0.125254,0.0817872
0.142099,0.157368,-0.416929,0.365833,0.26863,-0.499365,-0.0823915,-0.105472,0.0605438
0.149438,0.163779,-0.4278,0.415011,0.298366,-0.472659,-0.0856569,-0.0864486,0.0471249
0.15732,0.170421,-0.43802,0.386967,0.314646,-0.4202,-0.0801678,-0.0719337,0.052231
0.164715,0.176428,-0.446999,0.349151,0.261959,-0.360237,-0.0772435,-0.0708697,0.0517185
0.170726,0.181975,-0.455084,0.333079,0.199654,-0.338889,-0.0832148,-0.0813112,0.0352606
0.170726,0.181975,-0.455084,0.333079,0.199654,-0.338889,-0.0832148,-0.0813112,0.0352606
0.175602,0.187169,-0.462925,0.301715,0.147849,-0.337882,-0.0767862,-0.0882602,0.0273311
0.179347,0.190378,-0.470634,0.124184,0.0672197,-0.359384,-0.0555653,-0.0957129,0.0390744
0.179693,0.188335,-0.478471,-0.204594,-0.225235,-0.451687,-0.056564,-0.118867,0.015939
0.172574,0.179329,-0.487593,-0.496726,-0.639147,-0.587922,-0.05135,-0.125662,-0.09509
0.159809,0.16721,-0.498254,-0.471277,-0.759455,-0.627918,-0.0258372,-0.0610924,-0.307105
0.14906,0.158899,-0.508893,-0.161678,-0.453534,-0.524215,-0.0162821,0.0376101,-0.453189
0.146324,0.158139,-0.517829,0.195624,0.057548,-0.356199,-0.000473917,0.101832,-0.433584
0.152666,0.162762,-0.523989,0.312886,0.434414,-0.190994,0.0146547,0.112209,-0.250371
0.163462,0.168023,-0.52764,0.258645,0.560706,-0.0964766,0.0090967,0.075009,-0.0358921
0.174946,0.172616,-0.529979,0.241861,0.539294,-0.0590392,0.0070141,0.053245,0.111749
0.185,0.177137,-0.531955,0.23747,0.416123,-0.0531847,0.00223599,0.0556978,0.219066
0.191461,0.181382,-0.533993,0.206908,0.188913,-0.0638112,0.0256889,0.0380548,0.284455
0.193101,0.184297,-0.535882,0.103765,-0.053235,-0.0657131,0.0516265,0.0283029,0.308071
0.189904,0.184526,-0.537264,-0.0656996,-0.290689,-0.0603187,0.0786764,0.0346155,0.290073
0.181731,0.181117,-0.537601,-0.269068,-0.527361,-0.0347691,0.122227,0.0384809,0.238563
0.170026,0.173787,-0.536856,-0.462281,-0.60107,-0.0249382,0.128904,0.0500798,0.140016
0.158257,0.163434,-0.535619,-0.56437,-0.548693,-0.0219035,0.132878,0.0665922,0.0136662
0.148129,0.152394,-0.534015,-0.53288,-0.431314,0.0271664,0.167493,0.081065,-0.112791
0.141269,0.143479,-0.530797,-0.385808,-0.200316,0.175696,0.201498,0.106427,-0.202142
0.139029,0.138199,-0.524474,-0.226607,0.0580811,0.375565,0.2015,0.128925,-0.227099
0.140843,0.136698,-0.514823,-0.0543077,0.238344,0.54319,0.170868,0.115612,-0.208897
0.144393,0.138931,-0.503059,0.102625,0.25643,0.629583,0.128384,0.0772353,-0.146498
0.147204,0.143954,-0.490547,0.199503,0.199917,0.669196,0.0946357,0.0439546,-0.0624132
0.148819,0.150346,-0.477672,0.237042,0.154123,0.689924,0.0613646,0.0224609,0.0112382
0.149338,0.157101,-0.46454,0.238535,0.102346,0.694245,0.0391145,0.00191423,0.0638043
0.148685,0.163828,-0.451489,0.23423,0.0344644,0.68309,0.0232796,-0.0209099,0.100587
0.146166,0.170266,-0.438785,0.213827,-0.0726311,0.654166,0.0191954,-0.0414776,0.128183
0.141397,0.176021,-0.426537,0.187609,-0.193838,0.629711,0.023406,-0.0618401,0.138114
0.134301,0.18141,-0.414551,0.194312,-0.304089,0.615003,0.0315381,-0.0773346,0.126192
0.125113,0.187185,-0.402944,0.235249,-0.401981,0.592875,0.0501373,-0.0914175,0.107542
0.114494,0.193638,-0.391953,0.2753,-0.435149,0.561394,0.0686162,-0.105177,0.0852373
0.104439,0.200208,-0.381464,0.256185,-0.353781,0.539833,0.0815943,-0.11999,0.0505673
0.0964004,0.205865,-0.370974,0.204533,-0.238843,0.542381,0.094151,-0.128929,0.0314381
0.0902722,0.210478,-0.360161,0.164064,-0.163105,0.554603,0.10642,-0.1376,0.0215109
0.0846903,0.214495,-0.349192,0.153066,-0.166377,0.551822,0.109885,-0.143485,0.00625116
0.0791779,0.218693,-0.338217,0.175644,-0.138262,0.553416,0.118605,-0.142909,-0.0177517
0.0745403,0.223083,-0.327124,0.177737,-0.0690089,0.569866,0.134253,-0.134781,-0.043235
0.07211,0.227553,-0.315154,0.180941,0.111334,0.633751,0.149338,-0.110985,-0.0713096
0.0743301,0.232078,-0.301451,0.159084,0.435829,0.732889,0.162898,-0.0910755,-0.089723
0.0808701,0.235594,-0.285663,0.0614734,0.531687,0.821394,0.173464,-0.100091,-0.0665839
0.0850824,0.236871,-0.268502,-0.0864289,0.220037,0.842864,0.139759,-0.0855895,-0.0719971
0.0798552,0.235028,-0.251614,-0.21939,-0.317348,0.773682,0.121886,-0.0769752,-0.138822
0.0675393,0.232087,-0.235686,-0.155511,-0.50442,0.774157,0.0795089,-0.0133233,-0.29699
0.0539072,0.232582,-0.2192,0.140369,-0.439935,0.848619,0.0315388,0.108665,-0.425312
0.043515,0.240204,-0.200629,0.531152,-0.134818,1.00288,0.000212926,0.184098,-0.470746
0.0394999,0.254703,-0.179211,0.797394,0.25656,1.11159,-0.052742,0.196492,-0.413433
0.0421057,0.271566,-0.157522,0.763014,0.542481,1.03183,-0.137291,0.17066,-0.261287
0.0494109,0.2856,-0.138315,0.544049,0.700212,0.879358,-0.164242,0.155283,-0.112769
0.0591107,0.295179,-0.122024,0.345111,0.717836,0.740851,-0.16788,0.166338,-0.0266712
0.0682452,0.301929,-0.108026,0.266075,0.595265,0.648656,-0.155989,0.194946,0.0168579
0.0748566,0.30854,-0.0955783,0.33122,0.459448,0.590388,-0.134671,0.211077,0.0287079
0.0798943,0.317039,-0.0844789,0.426716,0.394363,0.534814,-0.124126,0.220293,0.0587652
0.0843814,0.326348,-0.0745633,0.406535,0.383192,0.486154,-0.0937795,0.220488,0.119661
0.0896145,0.333764,-0.0653644,0.242079,0.447706,0.449209,-0.0690988,0.211405,0.178894
0.0896145,0.333764,-0.0653644,0.242079,0.447706,0.449209,-0.0690988,0.211405,0.178894
0.0961078,0.337219,-0.0564471,0.0256754,0.496848,0.428553,-0.0424596,0.201393,0.21653
0.10349,0.337069,-0.0474026,-0.106919,0.543431,0.422541,-0.0148199,0.190066,0.203907
0.111822,0.335245,-0.0382177,-0.162556,0.589368,0.430781,0.0110937,0.192023,0.182267
0.120572,0.332401,-0.0281297,-0.240636,0.60825,0.501391,0.0528228,0.195286,0.183547
0.127994,0.328148,-0.0154042,-0.3296,0.530198,0.653969,0.0898139,0.19752,0.184808
0.13191,0.323197,0.00100721,-0.351827,0.384287,0.833178,0.103599,0.194705,0.148132
0.131565,0.319328,0.0214394,-0.273015,0.234181,1.05375,0.119541,0.19372,0.084384
0.127284,0.318495,0.0461894,-0.104243,0.119774,1.26207,0.106449,0.188778,0.00818717
0.120274,0.321755,0.0738413,0.0997357,0.0573914,1.37777,0.0657843,0.163324,-0.0626424
0.112232,0.328069,0.102871,0.181201,0.0802287,1.43118,0.0428259,0.137523,-0.0825743
0.104987,0.333906,0.132829,0.0626393,0.169657,1.45321,0.0193713,0.11277,-0.0692217
0.098235,0.335865,0.16319,-0.161991,0.112411,1.41847,-0.0260078,0.0748248,-0.0655225
0.0878365,0.333891,0.192233,-0.254754,-0.224352,1.27847,-0.0739984,0.0333336,-0.113098
0.071998,0.331812,0.216904,-0.122321,-0.516828,1.0383,-0.103977,0.0346645,-0.195164
0.0550231,0.331987,0.236998,0.00105003,-0.468421,0.88551,-0.0724087,0.0787603,-0.229801
0.0432169,0.333124,0.254948,0.0185357,-0.0919734,0.831056,-0.034084,0.110581,-0.2008
0.0400775,0.33387,0.272369,-0.00962157,0.326303,0.824395,-0.0154087,0.120671,-0.128029
0.0433623,0.334322,0.289457,-0.00842837,0.529431,0.792022,-0.00657061,0.106709,-0.0173298
0.0491907,0.33494,0.305531,-0.00175723,0.561487,0.73032,-0.00337818,0.0854717,0.0893144
0.054797,0.335651,0.320028,0.00431015,0.462873,0.642911,-0.00854618,0.0667647,0.164871
0.0580732,0.336512,0.332546,0.00967897,0.273174,0.541994,-0.00118107,0.0454064,0.202651
0.0580756,0.336842,0.342738,-0.0407079,0.070162,0.425239,0.0115946,0.0215178,0.214566
0.0554009,0.335575,0.350589,-0.132223,-0.0639641,0.314467,0.022713,0.0146298,0.191735
0.0514019,0.332372,0.356158,-0.212079,-0.152491,0.194436,0.02852,0.0161664,0.139701
0.0467958,0.32796,0.359265,-0.242712,-0.200068,0.077818,0.0400345,0.0162194,0.0720231
0.0422706,0.322709,0.359914,-0.287643,-0.228359,-0.033506,0.0503011,0.0231766,0.0164565
0.0382519,0.316578,0.358622,-0.31296,-0.209,-0.115606,0.0729565,0.0291356,-0.0418897
0.0355734,0.310262,0.355724,-0.310685,-0.147781,-0.183649,0.0813513,0.0373937,-0.102563
0.034685,0.303817,0.351804,-0.325005,-0.0523397,-0.206174,0.0914677,0.0505834,-0.135728
0.0360746,0.297185,0.347841,-0.322093,0.0715544,-0.19963,0.0929098,0.0540754,-0.162881
0.0397982,0.290916,0.344061,-0.285144,0.179885,-0.178903,0.079209,0.0575204,-0.167899
0.0455051,0.286013,0.341063,-0.184425,0.312399,-0.124122,0.0710893,0.0593511,-0.161444
0.0534513,0.283525,0.33894,-0.0547188,0.410567,-0.0978681,0.0390697,0.0514243,-0.120687
0.0624181,0.283206,0.33684,0.0277541,0.417308,-0.110097,0.0184611,0.0270545,-0.0421476
0.0709162,0.283753,0.334281,0.0358949,0.355511,-0.131811,0.0046085,0.00928479,0.0325803
0.0778741,0.284091,0.331129,0.0167392,0.246451,-0.170441,-0.00416625,-0.00096488,0.0818245
0.0826046,0.283947,0.327315,-0.0023408,0.122762,-0.195074,-0.00767355,-0.00815257,0.101139
0.0853187,0.283337,0.322953,-0.017303,0.029989,-0.229348,-0.0147399,-0.0100968,0.097047
0.0867127,0.282423,0.317566,-0.0304894,-0.0286747,-0.29164,-0.0227941,-0.0168639,0.0775785
0.0877771,0.280891,0.311092,-0.0773915,-0.0373357,-0.341019,-0.0146792,-0.0193736,0.0622582
0.0891767,0.27774,0.303772,-0.175994,-0.0228782,-0.390592,-0.00993155,-0.0176565,0.0536661
0.091051,0.272622,0.295774,-0.258008,-0.00685325,-0.425539,0.00519089,-0.0190115,0.0305663
0.0933061,0.266416,0.287303,-0.277835,0.00600036,-0.443297,0.0135098,-0.010833,-0.00750864
0.0956239,0.260353,0.278941,-0.244791,0.00895686,-0.413639,0.0386903,-0.000925124,-0.036803
0.0974811,0.2553,0.271533,-0.189837,-0.00809304,-0.347343,0.0627187,0.0088678,-0.0459171
0.0987357,0.251272,0.265489,-0.164062,-0.0216928,-0.274405,0.0691168,0.00875238,-0.0439024
0.099293,0.247647,0.26104,-0.151136,-0.0323646,-0.190653,0.0763644,0.000768661,-0.0392658
0.0991223,0.24467,0.258046,-0.105458,-0.0631871,-0.133862,0.0603135,-0.00669584,-0.0479727
0.0980602,0.243259,0.255831,-0.0109336,-0.100071,-0.0968195,0.0456501,-0.0144125,-0.0595104
0.0960779,0.243761,0.253965,0.0770018,-0.137372,-0.0864699,0.0233151,-0.0244849,-0.0635489
0.0939413,0.245679,0.251844,0.128593,-0.123615,-0.105105,-0.00237876,-0.0361277,-0.069125
0.0927159,0.248063,0.249206,0.128295,-0.0670611,-0.132823,-0.027951,-0.0376458,-0.058257
0.0925764,0.250186,0.245686,0.114247,-0.0426564,-0.194043,-0.0472077,-0.044378,-0.0413095
0.0929572,0.251852,0.240647,0.0985534,-0.0466666,-0.281847,-0.0613154,-0.0464412,-0.0210039
0.0929572,0.251852,0.240647,0.0985534,-0.0466666,-0.281847,-0.0613154,-0.0464412,-0.0210039
0.0937352,0.253187,0.233735,0.0996493,-0.0448985,-0.3713,-0.0705792,-0.0417759,-0.010893
0.0949026,0.254347,0.225252,0.0869966,-0.0510672,-0.436365,-0.0647493,-0.0224035,0.00575471
0.0962344,0.254847,0.215751,0.0499406,-0.0532334,-0.471546,-0.0524705,-0.00794324,0.018324
0.0975032,0.254668,0.20578,0.0284919,-0.0790801,-0.493836,-0.0461744,0.00586069,0.0218359
0.0981476,0.25427,0.19538,0.0375674,-0.120648,-0.51187,-0.0444244,0.0137157,0.0122615
0.0979145,0.253973,0.18469,0.0297443,-0.16568,-0.523336,-0.0471674,0.0143132,0.0107558
0.0974382,0.253326,0.173753,0.0109694,-0.161147,-0.537994,-0.0603352,0.0139154,0.00661361
0.0973261,0.252313,0.162459,-0.00353654,-0.133569,-0.568933,-0.0677896,0.00847961,0.00693727
0.097872,0.250938,0.150369,-0.0168617,-0.101049,-0.602655,-0.0706991,6.49691e-06,0.0132843
0.0990798,0.24924,0.138064,-0.0366878,-0.0953898,-0.605783,-0.0667475,0.00644794,0.0379711
0.100016,0.247058,0.125707,-0.0623734,-0.116204,-0.606262,-0.0656442,-0.00192335,0.0650865
0.100094,0.244628,0.11354,-0.0609316,-0.160518,-0.599413,-0.0643439,-0.0177079,0.0691769
0.0996771,0.242279,0.101342,-0.0589903,-0.178528,-0.6099,-0.07651,-0.0381609,0.0745567
0.0985564,0.239758,0.0887538,-0.0711952,-0.240557,-0.638367,-0.0787519,-0.0557607,0.0921851
0.0958285,0.236953,0.0754767,-0.0866015,-0.35599,-0.677792,-0.0753081,-0.0740045,0.0956039
0.0905569,0.233616,0.0612506,-0.121497,-0.506446,-0.74018,-0.0832617,-0.0856721,0.0882648
0.0828184,0.229474,0.0455832,-0.155376,-0.624692,-0.819327,-0.0944103,-0.100568,0.050954
0.0738708,0.225165,0.0280838,-0.132533,-0.650825,-0.923406,-0.110454,-0.103774,-0.0140309
0.065678,0.221698,0.00817767,-0.0770512,-0.602604,-1.03845,-0.126189,-0.0930254,-0.0847443
0.0594634,0.219274,-0.0136967,-0.0311601,-0.485601,-1.10587,-0.115531,-0.0714347,-0.1227
0.0565253,0.218083,-0.0365538,0.0520835,-0.309053,-1.13213,-0.114422,-0.0511895,-0.148674
0.0571985,0.219253,-0.059969,0.199914,-0.131894,-1.15659,-0.115934,-0.0379471,-0.153557
0.0610977,0.22318,-0.0842557,0.321223,-0.02246,-1.191,-0.117819,-0.0331081,-0.11146
0.0665273,0.228356,-0.109004,0.335772,0.0048238,-1.17982,-0.101404,-0.0189394,-0.0372395
0.0720562,0.232806,-0.133052,0.264455,-0.00965407,-1.1309,-0.0976853,-0.00587866,0.0212181
0.0765052,0.235801,-0.155989,0.215714,-0.0797925,-1.07922,-0.105993,-0.00797051,0.0353403
0.0794203,0.23882,-0.178016,0.266888,-0.146507,-1.04249,-0.121488,-0.00936927,0.0141025
0.0814024,0.243181,-0.199542,0.329543,-0.158311,-1.01392,-0.13138,-0.0113913,0.00827193
0.0837333,0.247911,-0.2205,0.296268,-0.106739,-0.980599,-0.13276,-0.0158049,0.0335659
0.0878053,0.251208,-0.240896,0.204499,0.00932097,-0.967659,-0.133997,-0.0239322,0.0628427
0.0939274,0.253066,-0.260889,0.171627,0.0936925,-0.950073,-0.119946,-0.0307083,0.0717461
0.100521,0.254848,-0.280483,0.19606,0.0567681,-0.92684,-0.0961036,-0.0282363,0.0930505
0.105242,0.257062,-0.299688,0.219378,-0.0750103,-0.907533,-0.0697816,-0.0319847,0.108534
0.107217,0.259618,-0.318684,0.213642,-0.208137,-0.898565,-0.0525065,-0.0314205,0.0980081
0.106463,0.260921,-0.337594,0.090179,-0.340798,-0.909327,-0.0405158,-0.0248058,0.0953721
0.10404,0.259131,-0.356168,-0.0714943,-0.362093,-0.90281,-0.039182,-0.0167242,0.0559451
0.102296,0.255005,-0.374652,-0.139679,-0.27447,-0.923964,-0.052993,-0.00208357,-0.0296298
0.102619,0.250395,-0.393225,-0.129537,-0.157438,-0.912309,-0.0477768,0.0193168,-0.0897946
0.104758,0.246347,-0.410949,-0.0897833,-0.07408,-0.831374,-0.0248713,0.0372895,-0.114731
0.10765,0.243571,-0.426797,-0.0212251,-0.0204582,-0.737468,-0.0177076,0.0396469,-0.117441
0.11099,0.24243,-0.441279,0.059459,0.00691884,-0.676941,-0.0281926,0.0284838,-0.107268
0.114393,0.242877,-0.454816,0.125142,0.00493611,-0.630542,-0.0270385,0.0178246,-0.0759313
0.117266,0.244203,-0.467557,0.141218,-0.0270333,-0.590951,-0.0308545,0.00995576,-0.0409112
0.11858,0.245292,-0.479681,0.0950318,-0.147019,-0.572157,-0.0354765,0.00106367,-0.00438172
0.11721,0.245306,-0.491527,0.0476101,-0.275391,-0.580142,-0.0462871,-0.0129753,-0.0011009
0.113611,0.244915,-0.503992,0.0648854,-0.380523,-0.631972,-0.0707987,-0.0123941,-0.0266206
0.10903,0.245364,-0.517593,0.133687,-0.397815,-0.66824,-0.0716043,0.00760363,-0.0417535
0.105235,0.247475,-0.531779,0.220455,-0.314327,-0.684923,-0.0660436,0.0269547,-0.0322133
0.103566,0.250788,-0.546661,0.24768,-0.225551,-0.726512,-0.0539887,0.0188278,0.0171918
0.103177,0.253595,-0.5627,0.180533,-0.240677,-0.798014,-0.0415486,-0.00080803,0.0909511
0.101275,0.254457,-0.580057,0.0774154,-0.410961,-0.874287,-0.0166392,-0.0124405,0.132428
0.0953175,0.253116,-0.599195,-0.0308556,-0.661913,-0.997428,-0.00659991,-0.0164694,0.127072
0.0861503,0.249509,-0.620845,-0.138285,-0.784122,-1.13745,-0.00855017,-0.0128068,0.081361
0.076558,0.24396,-0.645297,-0.213073,-0.755154,-1.26094,0.000763223,0.0132297,0.0191215
0.076558,0.24396,-0.645297,-0.213073,-0.755154,-1.26094,0.000763223,0.0132297,0.0191215
0.0687587,0.238067,-0.671216,-0.179343,-0.625897,-1.30234,0.0337887,0.044037,-0.02574
0.0642772,0.23315,-0.697691,-0.151357,-0.440029,-1.28581,0.0691731,0.0701853,-0.0211159
0.063259,0.228533,-0.722924,-0.154227,-0.258587,-1.20023,0.083721,0.0807506,0.0235349
0.0636863,0.224396,-0.746864,-0.0950421,-0.252363,-1.17504,0.0844826,0.0566088,0.0753692
0.0635105,0.222023,-0.770913,0.000191843,-0.297311,-1.18735,0.07458,0.0370067,0.122199
0.0622174,0.220826,-0.795024,0.010073,-0.357974,-1.16863,0.0814378,0.0395157,0.174391
0.0600008,0.218212,-0.817301,-0.127914,-0.380878,-1.00598,0.118352,0.0610893,0.22192
0.0551203,0.214552,-0.836899,-0.112187,-0.518404,-0.957064,0.1162,0.0140879,0.178789
0.0467233,0.211749,-0.855963,-0.0674158,-0.711087,-0.921313,0.11402,0.028682,0.12943
0.0363508,0.210146,-0.874452,-0.0321587,-0.714816,-0.910688,0.0827276,0.029876,0.0664353
0.025895,0.208263,-0.893647,-0.109704,-0.722559,-0.994475,0.035428,0.0176582,0.0452328
0.0162082,0.204446,-0.915056,-0.230301,-0.685846,-1.10551,0.0263359,-0.000756502,0.029811
0.00811654,0.198768,-0.938172,-0.29956,-0.583077,-1.1737,0.00251094,0.00648318,0.0249102
0.0023842,0.192772,-0.963287,-0.275502,-0.485993,-1.32035,-0.040197,-0.00303005,0.00720042
-0.00161993,0.187844,-0.992354,-0.224479,-0.48427,-1.5473,-0.0658218,-0.0236923,0.0178845
-0.00530841,0.183422,-1.02583,-0.254885,-0.501588,-1.74072,-0.0478659,-0.0194789,0.0548668
-0.00855507,0.177234,-1.06267,-0.413126,-0.486172,-1.88544,-0.0406055,0.00916314,0.0787357
-0.0106915,0.167322,-1.10235,-0.618902,-0.409881,-2.02767,-0.0386065,0.031945,0.0725563
-0.0117922,0.15371,-1.14516,-0.788256,-0.408403,-2.20692,-0.0416003,0.0426929,0.0344516
-0.0145213,0.137263,-1.19115,-0.912924,-0.539997,-2.3111,-0.0110522,0.0772466,-0.00812161
-0.0202882,0.119471,-1.23737,-0.915776,-0.609199,-2.22777,-0.00967337,0.157288,-0.0814596
-0.0263834,0.1042,-1.28032,-0.686588,-0.427255,-2.00779,-0.0305101,0.239707,-0.175265
-0.0271449,0.0942501,-1.31852,-0.438719,-0.00104966,-1.79702,-0.0844901,0.271921,-0.1826
-0.0200886,0.0869717,-1.35385,-0.428242,0.323466,-1.73699,-0.135735,0.230814,-0.0819836
-0.0106377,0.0768911,-1.38845,-0.652833,0.303632,-1.69508,-0.133925,0.17644,0.0498301
-0.00332662,0.0620351,-1.42104,-0.829287,0.198452,-1.55805,-0.12197,0.142745,0.0696194
0.000860932,0.0459322,-1.45123,-0.751538,0.0462539,-1.47447,-0.137518,0.111178,-0.000307381
0.00165784,0.0328948,-1.48045,-0.547493,-0.0778302,-1.4701,-0.159021,0.0740113,-0.0579154
-0.000191591,0.0230244,-1.51026,-0.473736,-0.178076,-1.52252,-0.166617,0.046292,-0.0580196
-0.00344398,0.0125831,-1.54085,-0.596176,-0.189563,-1.54072,-0.162404,0.0464267,-0.0392849
-0.0066472,-0.000634935,-1.57165,-0.728508,-0.152561,-1.54386,-0.154608,0.0445616,-0.051185
-0.00950374,-0.0151176,-1.60248,-0.728132,-0.105275,-1.5368,-0.141987,0.0357253,-0.0991889
-0.0112285,-0.0284905,-1.63293,-0.635428,0.0162242,-1.49863,-0.125098,0.0344101,-0.131984
-0.0101591,-0.0393435,-1.66239,-0.483044,0.199361,-1.45289,-0.110073,0.0331764,-0.144151
-0.00550326,-0.0472885,-1.69094,-0.351073,0.397415,-1.39172,-0.0722006,0.0133828,-0.122898
0.00249272,-0.0536402,-1.71744,-0.302755,0.520376,-1.25448,-0.0249958,0.00658141,-0.06681
0.0117779,-0.0593493,-1.7408,-0.242406,0.532878,-1.09065,0.00650794,-0.0140722,-0.0325153
0.0204514,-0.0635052,-1.76106,-0.14046,0.439165,-0.952878,0.00164028,-0.0297711,-0.0252042
0.0264481,-0.0657096,-1.7793,-0.0448133,0.284914,-0.881154,-0.010122,-0.0480689,-0.0369156
0.0297948,-0.066399,-1.79603,0.0252459,0.182362,-0.795829,-0.0197607,-0.0513965,-0.0775824
0.032245,-0.0655719,-1.81136,0.105229,0.157787,-0.745374,-0.0556381,-0.0406531,-0.115018
0.0339427,-0.063022,-1.82592,0.205742,0.123642,-0.698631,-0.0612125,-0.0403363,-0.153149
0.0353714,-0.0583061,-1.83965,0.314714,0.0882557,-0.668496,-0.0901745,-0.0315702,-0.155873
0.0356159,-0.0516853,-1.85371,0.386676,0.0151666,-0.726293,-0.111427,-0.0446127,-0.13321
0.0341352,-0.0445984,-1.86928,0.358393,-0.0826265,-0.811393,-0.128211,-0.0399297,-0.0892075
0.0311929,-0.039077,-1.88652,0.231468,-0.128894,-0.898422,-0.139746,-0.00525357,-0.0364515
0.027605,-0.0368949,-1.90532,0.0374806,-0.157503,-0.976091,-0.13505,0.0217072,0.0130989
0.0234005,-0.0385483,-1.92501,-0.140154,-0.200186,-0.98837,-0.103444,0.0331928,0.0444548
0.0180603,-0.0427377,-1.94428,-0.22282,-0.272163,-0.941474,-0.0760719,0.0487365,0.0463635
0.0107489,-0.0470052,-1.96196,-0.159364,-0.388495,-0.82653,-0.0431769,0.0524079,0.0358251
0.0018991,-0.0488215,-1.97698,-0.0118288,-0.414621,-0.686362,-0.020894,0.0541795,0.0264251
-0.007198,-0.0480783,-1.98984,0.0774994,-0.435156,-0.578067,-0.00523098,0.0481926,0.0260861
-0.0149829,-0.0457631,-1.99914,0.126061,-0.264093,-0.353189,0.0290353,0.0428454,0.0161291
-0.0192996,-0.0443651,-2.00472,-0.0254163,-0.164295,-0.233205,0.038063,0.0152656,0.0512592
-0.0192996,-0.0443651,-2.00472,-0.0254163,-0.164295,-0.233205,0.038063,0.0152656,0.0512592
-0.0219932,-0.0472393,-2.00945,-0.268939,-0.0802917,-0.24469,0.0347691,-0.0309864,0.0570993
-0.0227071,-0.0543306,-2.01488,-0.439392,0.053521,-0.282188,0.0782442,-0.076124,0.00742233
-0.0213904,-0.0639434,-2.02104,-0.525683,0.10479,-0.309385,0.108183,-0.0671652,-0.0597823
-0.0192509,-0.0742061,-2.02717,-0.505724,0.16053,-0.267927,0.151765,-0.0478929,-0.105171
-0.016193,-0.0832541,-2.03145,-0.405135,0.163503,-0.129268,0.177101,-0.0418677,-0.122338
-0.0138937,-0.0898518,-2.03253,-0.244083,0.0590599,0.0172332,0.189481,-0.0576417,-0.0946299
-0.0147068,-0.0927551,-2.03152,-0.0504226,-0.160913,0.0721628,0.158045,-0.0767682,-0.0592769
-0.0195598,-0.0924315,-2.03028,0.0716465,-0.318887,0.0456489,0.140538,-0.111175,-0.0135534
-0.0273789,-0.0903865,-2.02989,0.128413,-0.498508,-0.0162428,0.123181,-0.132042,0.026108
-0.0396391,-0.0871457,-2.03149,0.194008,-0.707274,-0.157662,0.106953,-0.141341,0.0322879
-0.0558719,-0.0819355,-2.03543,0.320755,-0.8805,-0.242126,0.141044,-0.15678,0.0187564
-0.0752712,-0.0730296,-2.03988,0.554918,-1.04272,-0.259819,0.172442,-0.169522,-0.0140344
-0.0981524,-0.0585771,-2.04461,0.847939,-1.2016,-0.359063,0.155398,-0.174358,-0.0186049
-0.122328,-0.0384043,-2.05097,1.04585,-1.15468,-0.467205,0.151261,-0.156254,-0.00539696
-0.142816,-0.0164429,-2.05724,1.05261,-0.858918,-0.42787,0.152246,-0.124215,0.015732
-0.154648,0.00472322,-2.06304,0.934604,-0.193068,-0.49219,0.108819,-0.091514,0.0651116
-0.156472,0.0206303,-2.06986,0.472387,-0.197251,-0.399442,0.13392,-0.127503,0.206827
-0.163306,0.0258114,-2.07624,-0.000193663,-0.409039,-0.342642,0.118109,-0.136865,0.179756
-0.162576,0.0285641,-2.08238,0.319372,0.760233,-0.291747,0.0554567,-0.225239,0.0771855
-0.141106,0.0391256,-2.08683,0.600927,0.981919,-0.344905,-0.00912793,-0.211312,0.0464934
-0.13359,0.0534254,-2.09526,0.712941,-0.339731,-0.728539,-0.137291,-0.0761166,0.0611024
-0.149554,0.0709808,-2.11229,0.761536,-1.17702,-1.16737,-0.151335,0.0723709,0.070744
-0.170354,0.0890172,-2.1349,0.643828,-0.992708,-1.30824,-0.0787599,0.172533,0.0759984
-0.183365,0.104407,-2.15883,0.450039,-0.556715,-1.32493,-0.0642744,0.175003,0.0515662
-0.18682,0.116721,-2.18416,0.302794,-0.0453401,-1.39436,-0.0706248,0.140596,0.00951385
-0.17965,0.12554,-2.21185,0.0275796,0.389624,-1.47413,-0.071973,0.131222,0.0574619
-0.165951,0.127609,-2.24189,-0.337836,0.513684,-1.50781,-0.0640426,0.166005,0.0990767
-0.153335,0.123238,-2.27302,-0.552863,0.360777,-1.46998,-0.0434767,0.19272,0.047636
-0.144951,0.116356,-2.30255,-0.539523,0.0783181,-1.32477,-0.0127371,0.1863,-0.0386012
-0.144711,0.110566,-2.3288,-0.394019,-0.328619,-1.19477,-0.046829,0.177006,-0.11203
-0.150218,0.108329,-2.35321,-0.185951,-0.427919,-1.21493,-0.14967,0.149514,-0.175352
-0.15394,0.110201,-2.37901,-0.0380769,-0.207804,-1.35536,-0.204898,0.12751,-0.185987
-0.152379,0.114396,-2.40651,0.0228178,0.0599671,-1.39125,-0.153401,0.145732,-0.139691
-0.146699,0.118624,-2.43282,-0.0101275,0.152004,-1.24923,-0.0725666,0.165465,-0.0626302
-0.142212,0.12096,-2.45627,-0.097042,-0.0148643,-1.11259,-0.0644571,0.146392,0.0167601
-0.142236,0.121229,-2.47874,-0.185915,-0.246749,-1.13441,-0.114304,0.0918337,0.0292215
-0.145108,0.12071,-2.5033,-0.209469,-0.308811,-1.28764,-0.169151,0.0724128,-0.0264684
-0.145952,0.120929,-2.53069,-0.169662,-0.0563553,-1.39828,-0.173926,0.120009,-0.0867357
-0.140839,0.121562,-2.55918,-0.189807,0.206565,-1.40159,-0.117987,0.15378,-0.0690115
-0.131921,0.120916,-2.5865,-0.241548,0.334675,-1.26774,-0.0530156,0.17096,-0.0147062
-0.122197,0.118953,-2.61069,-0.248779,0.344881,-1.10787,-0.0131848,0.167349,0.0154671
-0.114686,0.116737,-2.63123,-0.21987,0.112861,-0.887366,0.00417418,0.140947,0.0491237
-0.11401,0.113979,-2.64791,-0.252381,-0.215286,-0.773458,0.00781577,0.0795981,0.0622721
-0.117505,0.110172,-2.66457,-0.334451,-0.240679,-0.841488,-0.00899483,0.0249274,-0.0179521
-0.119118,0.105428,-2.682,-0.320796,-0.125225,-0.790313,0.00388835,0.05552,-0.0929978
-0.118845,0.101644,-2.69687,-0.215625,0.010207,-0.634697,0.000475667,0.0868515,-0.117006
-0.117632,0.100367,-2.70841,-0.0451326,-0.069359,-0.506654,-0.00249253,0.0831091,-0.0810765
-0.120314,0.102511,-2.71796,0.149842,-0.316167,-0.468648,-0.0313786,0.0488955,-0.0684252
-0.129508,0.109028,-2.72649,0.402767,-0.671785,-0.469842,-0.037331,0.0397965,-0.0813248
-0.143295,0.12064,-2.73477,0.62617,-0.770659,-0.504711,-0.0585807,0.0645924,-0.075762
-0.156516,0.135125,-2.74279,0.654364,-0.635223,-0.502787,-0.0587084,0.117548,-0.032504
-0.165431,0.147818,-2.75091,0.447889,-0.360757,-0.494859,-0.0640166,0.115649,0.0447592
-0.168544,0.155615,-2.75925,0.195266,-0.0820584,-0.438832,-0.025701,0.102726,0.0882366
-0.167182,0.159443,-2.76653,0.0879443,0.0484023,-0.347469,0.0161459,0.0968789,0.0713897
-0.167182,0.159443,-2.76653,0.0879443,0.0484023,-0.347469,0.0161459,0.0968789,0.0713897
-0.165884,0.162995,-2.77221,0.207575,-0.00931641,-0.25858,0.0273611,0.0919772,0.0248514
-0.15963,0.167329,-2.77768,-0.070664,0.557361,-0.427917,0.0472969,0.0307155,-0.0678239
-0.142069,0.160593,-2.78816,-0.602844,0.97468,-0.375599,-0.0289013,-0.0746393,-0.117142
-0.122955,0.151723,-2.79423,-0.288385,0.759354,-0.115059,0.0215048,-0.0541961,-0.211486
-0.112781,0.150589,-2.79565,0.170136,0.294121,-0.0501869,0.046388,-0.0213658,-0.158834
-0.109242,0.158936,-2.79644,0.641023,0.065948,-0.13133,0.0250547,-0.0224419,-0.119671
-0.108662,0.174827,-2.79781,0.862665,0.00657715,-0.160653,0.0324692,-0.00921363,-0.0790042
-0.107015,0.191551,-2.79892,0.760874,0.15416,-0.123016,0.0503225,0.0180492,0.0089615
-0.102611,0.204939,-2.79957,0.580345,0.264317,-0.0839173,0.0589513,0.0457616,0.0668802
-0.0966248,0.215196,-2.80029,0.433245,0.297783,-0.10007,0.0663563,0.0489428,0.0779073
-0.091452,0.222246,-2.80171,0.267053,0.190471,-0.0771941,0.0660987,0.017799,0.0792086
-0.0885623,0.226694,-2.80207,0.206046,0.100667,-0.00877635,0.0594503,-0.0155224,0.0194851
-0.0865842,0.232076,-2.8018,0.366827,0.110684,-0.0189262,0.0208948,-0.0274017,-0.0780927
-0.0837533,0.242108,-2.80145,0.634206,0.19662,-0.0220596,0.0053184,-0.0127982,-0.129752
-0.0793014,0.256362,-2.80013,0.773255,0.27578,0.0430618,0.00637788,-0.000281572,-0.109726
-0.0736077,0.272036,-2.79719,0.819824,0.376581,0.101806,-0.00879882,-0.000929356,-0.0931239
-0.0656923,0.28905,-2.79414,0.908457,0.506648,0.0618736,-0.0509546,0.0119551,-0.0959663
-0.0542651,0.307959,-2.79225,0.987656,0.707205,0.0071722,-0.0645241,0.0666646,-0.0996267
-0.0389047,0.327707,-2.79131,0.987658,0.832393,0.00304573,-0.0289709,0.105672,-0.0564514
-0.0235427,0.3472,-2.78999,0.968079,0.726242,0.0685141,0.0115616,0.137446,-0.00728858
-0.011886,0.366417,-2.78761,0.967777,0.523527,0.112694,0.0124547,0.141842,0.00239873
-0.00498509,0.385875,-2.78508,0.989594,0.258671,0.099993,-0.0156146,0.130138,-0.0213721
-0.00213048,0.40601,-2.78366,1.03786,0.0990031,0.00822939,-0.0485188,0.113224,-0.0841058
-0.000663509,0.427229,-2.78527,1.0901,-0.0229208,-0.164898,-0.0862339,0.0845014,-0.140481
0.000818408,0.449489,-2.79039,1.14625,0.00424054,-0.29072,-0.0910081,0.0850483,-0.214169
0.00647085,0.47246,-2.79779,1.13861,0.263745,-0.365527,-0.120706,0.128266,-0.241129
0.0192041,0.493426,-2.80701,0.953812,0.55333,-0.428552,-0.13265,0.137891,-0.171586
0.0360028,0.510088,-2.81804,0.777897,0.550065,-0.49779,-0.106288,0.111514,-0.127971
0.0518604,0.525894,-2.83111,0.902939,0.402674,-0.575277,-0.105944,0.109622,-0.195857
0.0670285,0.545672,-2.84671,1.16523,0.340437,-0.630745,-0.108903,0.160762,-0.236008
0.083632,0.569859,-2.86358,1.33327,0.466172,-0.615423,-0.0981052,0.201912,-0.20636
0.104564,0.595192,-2.88076,1.29174,0.676002,-0.580436,-0.0968476,0.218825,-0.100936
0.128517,0.617343,-2.89788,1.0526,0.708202,-0.571489,-0.0763853,0.190825,0.0462891
0.151404,0.632504,-2.91504,0.636741,0.538169,-0.586308,-0.0343994,0.128825,0.166784
0.167424,0.639878,-2.93054,0.332388,0.142451,-0.517805,0.0519626,0.0642762,0.170911
0.175309,0.643446,-2.94287,0.218696,-0.0501791,-0.388676,0.0517794,0.0320852,0.0860646
0.179615,0.646458,-2.95205,0.211372,-0.0533477,-0.301097,0.0342462,-0.0322504,0.0243033
0.184579,0.649433,-2.96049,0.197565,0.0507448,-0.319399,0.0297027,-0.121507,0.00418115
0.191409,0.650823,-2.96959,0.0527227,0.0503261,-0.367584,0.0226417,-0.153299,0.0429881
0.196266,0.648187,-2.97889,-0.159623,-0.147941,-0.410793,0.0214686,-0.171267,0.0901484
0.196439,0.6425,-2.98783,-0.228459,-0.355705,-0.386287,0.0468194,-0.163222,0.0329906
0.1933,0.637639,-2.99513,-0.111926,-0.356272,-0.278734,0.0675721,-0.137824,-0.0654042
0.191047,0.636206,-3.00038,0.0569479,-0.155456,-0.174303,0.0494272,-0.111327,-0.110715
0.193558,0.638693,-3.00465,0.26401,0.144233,-0.110545,0.0240018,-0.0955346,-0.0858506
0.199918,0.645898,-3.00816,0.542765,0.22633,-0.036055,0.0315086,-0.0486732,0.0299384
0.202422,0.656705,-3.01208,0.466159,-0.209341,-0.0326403,0.0679001,-0.0812616,0.170567
0.200498,0.663886,-3.01435,0.322908,-0.111354,0.00764021,0.0748632,-0.040251,0.190771
0.198969,0.67115,-3.01466,0.408787,-0.11089,0.142395,0.101361,0.00677478,0.141039
0.191132,0.681766,-3.01024,0.570418,-0.397388,0.390309,0.176867,0.0469136,0.148125
0.176909,0.695441,-3.00232,0.647598,-0.459737,0.415152,0.0973344,0.0129167,0.148061
