attitude_roll,attitude_pitch,attitude_yaw,rotationRate_x,rotationRate_y,rotationRate_z,acceleration_x,acceleration_y,acceleration_z
0.0163196,0.199314,-0.00163181,0.741556,-0.0996138,0.173191,-0.233922,0.0174246,0.0174866
0.0123605,0.21332,-0.00306641,0.630167,-0.377051,-0.307339,-0.347422,0.042501,0.0608007
0.00334851,0.223371,-0.0138482,0.384905,-0.729162,-0.707573,-0.371429,0.106406,0.0880657
-0.00747116,0.22902,-0.0306234,0.197396,-0.689435,-0.904672,-0.316744,0.13898,0.0260625
-0.0150521,0.2325,-0.0494495,0.151366,-0.481882,-0.906414,-0.247896,0.203281,-0.00673789
-0.017791,0.235937,-0.0666749,0.171193,-0.202541,-0.765028,-0.188025,0.23557,0.0051772
-0.0161518,0.240072,-0.0804428,0.229421,0.0445088,-0.58407,-0.147169,0.209941,0.0196561
-0.0110014,0.245576,-0.0906888,0.303079,0.178178,-0.435326,-0.131907,0.181699,0.0761094
-0.00658181,0.252113,-0.0983429,0.341045,0.0601468,-0.3069,-0.115163,0.159226,0.172178
-0.00588148,0.259118,-0.103083,0.358487,-0.118412,-0.16225,-0.0800846,0.132845,0.266954
-0.00949925,0.266246,-0.105602,0.356187,-0.294121,-0.104175,-0.0516419,0.0990798,0.31601
-0.0157351,0.273216,-0.108011,0.32581,-0.382372,-0.149335,-0.0284435,0.0503475,0.322484
-0.0227666,0.278515,-0.111841,0.195377,-0.39808,-0.228286,-0.0257658,0.0329701,0.323123
-0.0286686,0.280762,-0.117222,0.0134586,-0.361679,-0.293951,-0.0269926,0.0249209,0.315736
-0.0345761,0.279401,-0.123806,-0.163417,-0.412922,-0.330675,-0.0228474,0.0423052,0.295409
-0.0417064,0.274992,-0.130812,-0.299773,-0.505097,-0.321603,-0.00770859,0.059885,0.248318
-0.0505998,0.268466,-0.137158,-0.360956,-0.530449,-0.25842,0.021972,0.0718021,0.184197
-0.0581502,0.262495,-0.142114,-0.241576,-0.310664,-0.184968,0.0377856,0.0603642,0.0653704
-0.0599035,0.259134,-0.14489,-0.128414,0.0590222,-0.0542037,0.0378035,0.0648221,0.0176586
-0.0559145,0.256213,-0.144409,-0.175686,0.327534,0.124158,0.0374595,0.0590073,0.0485016
-0.0486315,0.251664,-0.140525,-0.259559,0.495635,0.266069,0.0492782,0.0316693,0.0496756
-0.0392634,0.245565,-0.134369,-0.325558,0.566012,0.349342,0.0286,-0.000501886,0.0150594
-0.0306848,0.238601,-0.126975,-0.338472,0.476559,0.395855,0.0426282,-0.0587766,-0.0217383
-0.0241628,0.231306,-0.119142,-0.385269,0.358709,0.369381,0.0203584,-0.129165,-0.0673215
-0.0197486,0.222261,-0.113083,-0.515097,0.196449,0.221804,-0.0218457,-0.207894,-0.115166
-0.0188237,0.210823,-0.111096,-0.609489,-0.045545,-0.00159561,-0.0333215,-0.268977,-0.188726
-0.0203855,0.198979,-0.113129,-0.567261,-0.132818,-0.162805,-0.000998929,-0.305765,-0.285514
-0.0219452,0.188933,-0.117428,-0.432679,-0.0697728,-0.219921,0.0264968,-0.303262,-0.352626
-0.0206736,0.182352,-0.121565,-0.231987,0.114212,-0.157066,0.0643357,-0.277764,-0.377065
-0.0171229,0.179796,-0.123312,-0.030588,0.206155,-0.00841523,0.0902255,-0.240299,-0.329573
-0.012908,0.180869,-0.122158,0.125025,0.225163,0.107757,0.0863513,-0.210023,-0.257392
-0.00945682,0.18423,-0.11961,0.205107,0.168961,0.122224,0.065098,-0.191215,-0.187544
-0.00688289,0.188692,-0.117648,0.24478,0.109968,0.0632745,0.0520335,-0.168856,-0.128796
-0.0062342,0.194292,-0.116806,0.333577,-0.0229941,0.0262695,0.0655193,-0.121442,-0.0835471
-0.00799023,0.20251,-0.11578,0.495626,-0.14189,0.0790968,0.0863486,-0.0608645,-0.0545852
-0.0125129,0.213844,-0.113043,0.634088,-0.249402,0.183242,0.0994926,0.00527832,-0.00208694
-0.0194683,0.227308,-0.107697,0.707566,-0.315099,0.32014,0.116989,0.0616898,0.0516219
-0.0277369,0.241191,-0.0996851,0.687142,-0.315257,0.415417,0.117247,0.0926501,0.091103
-0.0359676,0.253716,-0.0904624,0.592672,-0.284002,0.437175,0.111698,0.108272,0.0963124
-0.0437903,0.264069,-0.0807574,0.483218,-0.259237,0.466842,0.106529,0.137979,0.0844972
-0.0524218,0.272475,-0.0697475,0.429565,-0.322805,0.571834,0.127064,0.16705,0.0708088
-0.0629163,0.280689,-0.0555553,0.48351,-0.329792,0.755274,0.154973,0.201243,0.0162145
-0.0745475,0.289453,-0.0373363,0.481108,-0.307823,0.924166,0.165252,0.219236,-0.000240088
-0.0855584,0.295445,-0.0166086,0.249279,-0.188313,0.997171,0.148143,0.210874,0.0159937
-0.0941525,0.295016,0.00407174,-0.130091,-0.0943518,0.972577,0.115358,0.198775,0.00259328
-0.101644,0.286733,0.0230487,-0.494797,-0.114828,0.932926,0.0732481,0.196989,-0.0263684
-0.108773,0.273458,0.0410919,-0.574773,-0.0824315,0.949242,0.0686665,0.181684,-0.124497
-0.112971,0.262534,0.0602868,-0.261614,0.195241,1.02371,0.064221,0.165473,-0.246185
-0.111366,0.259205,0.0822308,0.151538,0.52657,1.12843,0.05562,0.155665,-0.24789
-0.104631,0.262122,0.106856,0.357253,0.766908,1.20863,0.0393954,0.148535,-0.109661
-0.0947896,0.266862,0.132856,0.342238,0.888805,1.24305,0.0077404,0.132404,0.0616372
-0.0947896,0.266862,0.132856,0.342238,0.888805,1.24305,0.0077404,0.132404,0.0616372
-0.0833283,0.27044,0.159152,0.238583,0.953646,1.25304,-0.026971,0.10526,0.178083
-0.0714757,0.272436,0.184976,0.155682,0.92026,1.21064,-0.0576381,0.0663958,0.232754
-0.0607196,0.272912,0.20908,0.0426268,0.789419,1.10357,-0.0901384,0.0167908,0.271808
-0.0525426,0.271204,0.230238,-0.0873962,0.593715,0.942673,-0.106506,-0.0383371,0.290031
-0.0474424,0.267949,0.24771,-0.135093,0.402213,0.762697,-0.116377,-0.0936138,0.253255
-0.0448712,0.265079,0.261738,-0.0801128,0.215974,0.612125,-0.112213,-0.145134,0.18874
-0.0454188,0.2643,0.272863,0.0660449,0.0357613,0.467944,-0.122494,-0.168271,0.132295
-0.0478397,0.267454,0.281169,0.295982,-0.0420586,0.315565,-0.118262,-0.190832,0.0604962
-0.0502347,0.274883,0.286149,0.431224,-0.0672893,0.12364,-0.132839,-0.173328,0.0326385
-0.0534677,0.283747,0.288333,0.476022,-0.222897,0.0695785,-0.0915017,-0.134885,0.0272141
-0.0607468,0.293909,0.290276,0.530812,-0.429741,0.0427338,-0.0530998,-0.122429,-0.0549157
-0.0710964,0.302645,0.290671,0.292188,-0.600164,-0.0768952,-0.0579549,-0.112919,-0.0845725
-0.0831735,0.30458,0.287583,-0.122016,-0.668031,-0.238119,-0.0620883,-0.140415,-0.135598
-0.0933808,0.299496,0.280203,-0.41007,-0.548738,-0.417918,-0.0507067,-0.162892,-0.240664
-0.0989682,0.291946,0.269358,-0.397254,-0.307947,-0.522974,-0.0313202,-0.147838,-0.35477
-0.0984247,0.287639,0.258382,-0.112798,0.0682248,-0.457764,0.0183315,-0.126696,-0.435739
-0.0910256,0.289158,0.25065,0.163293,0.423775,-0.294829,0.0459427,-0.0829428,-0.398267
-0.0801075,0.293447,0.246488,0.199605,0.487087,-0.134348,0.0221425,-0.0343543,-0.248958
-0.0721202,0.296787,0.245617,0.126193,0.266467,0.0045041,0.00170776,-0.0275274,-0.121934
-0.069586,0.299138,0.246148,0.132695,0.0204572,0.0138593,-0.0238747,-0.0399741,-0.0794062
-0.0702898,0.302618,0.246098,0.218167,-0.0684548,-0.0420461,-0.0379094,-0.0376884,-0.0825875
-0.071358,0.30759,0.245321,0.262351,-0.0589605,-0.0588846,-0.0301475,0.00161487,-0.0532656
-0.0727007,0.312732,0.244976,0.252192,-0.1014,9.31323e-06,-0.0259639,0.058224,-0.00154781
-0.0754708,0.31773,0.246161,0.257454,-0.142555,0.0702424,-0.0260005,0.0931275,0.0118485
-0.0799944,0.322742,0.248283,0.259444,-0.244235,0.0822866,-0.0385813,0.111663,0.0294276
-0.0861204,0.32763,0.250051,0.245684,-0.314446,0.034902,-0.0622686,0.12899,0.0354465
-0.0931529,0.332863,0.250751,0.30717,-0.351305,-0.00608472,-0.0815516,0.161971,0.0253789
-0.0997777,0.340838,0.251523,0.508102,-0.274019,0.00793966,-0.0839591,0.211383,0.00663489
-0.104631,0.353043,0.25341,0.722291,-0.145985,0.0519579,-0.116753,0.27236,0.0527154
-0.107315,0.368892,0.257114,0.870324,0.0323291,0.12323,-0.154445,0.317553,0.123346
-0.105626,0.385008,0.261576,0.727328,0.311326,0.0855061,-0.19364,0.322329,0.222518
-0.0968229,0.395047,0.262193,0.216959,0.569569,-0.164038,-0.218773,0.285319,0.326706
-0.0820638,0.391828,0.254354,-0.636836,0.558686,-0.541871,-0.203538,0.213132,0.41245
-0.0672841,0.371358,0.236768,-1.48535,0.239808,-0.92904,-0.111117,0.103009,0.400705
-0.0578804,0.33823,0.211688,-1.89118,-0.152222,-1.20596,0.00766511,-0.0024412,0.223197
-0.0536584,0.30265,0.182403,-1.74365,-0.304082,-1.35191,0.0334186,-0.0226129,-0.0335639
-0.0512815,0.274847,0.153391,-1.12524,-0.249501,-1.24416,0.0435215,0.00112042,-0.247127
-0.0480948,0.261933,0.130427,-0.2686,-0.00715113,-0.884049,0.0449716,0.0504977,-0.341805
-0.0413199,0.264406,0.11715,0.391514,0.341127,-0.405682,0.0479445,0.106307,-0.26844
-0.031407,0.274244,0.113846,0.498073,0.551832,0.0190302,0.0459449,0.129508,-0.0442838
-0.0196279,0.281213,0.116578,0.161317,0.699206,0.177367,-0.00867117,0.0559942,0.159387
-0.00661155,0.279412,0.119778,-0.320384,0.67847,0.0967047,-0.079262,-0.0507167,0.249664
0.00563718,0.269937,0.119527,-0.577643,0.524368,-0.137226,-0.107316,-0.160987,0.206967
0.0147359,0.258324,0.11415,-0.543128,0.241179,-0.377981,-0.117381,-0.200244,0.129816
0.0194465,0.249617,0.1056,-0.291229,0.0511404,-0.434346,-0.0989207,-0.174232,0.0482459
0.0220536,0.246747,0.0978938,0.0170504,0.0382544,-0.290375,-0.0798098,-0.11456,0.00544131
0.0233192,0.249329,0.0946782,0.217809,-0.00830868,-0.00477509,-0.0546853,-0.0557212,0.0357703
0.0211132,0.254098,0.0974548,0.238198,-0.154133,0.274764,-0.0594505,-0.0249335,0.0969014
0.0143241,0.258838,0.104867,0.230916,-0.317037,0.415032,-0.0745917,-0.044961,0.100698
0.00556237,0.263729,0.112936,0.255043,-0.331314,0.337805,-0.11267,-0.0808399,0.0478835
0.00556237,0.263729,0.112936,0.255043,-0.331314,0.337805,-0.11267,-0.0808399,0.0478835
-0.00159545,0.268411,0.117633,0.189703,-0.262883,0.0991041,-0.149127,-0.108672,0.00806147
-0.00666879,0.270175,0.116724,-0.0297451,-0.282446,-0.183064,-0.158139,-0.108726,0.00332993
-0.0119902,0.26659,0.110037,-0.352048,-0.455689,-0.465178,-0.141083,-0.0939478,-0.0335788
-0.020843,0.256336,0.0974415,-0.680193,-0.762413,-0.723888,-0.132809,-0.0632652,-0.114702
-0.0341445,0.242252,0.0806375,-0.714901,-0.942494,-0.852203,-0.0677653,-0.0375003,-0.267681
-0.0477757,0.231787,0.0623444,-0.362335,-0.772391,-0.877308,-0.0224893,-0.00717594,-0.439352
-0.0541197,0.229937,0.0451657,0.06618,-0.227051,-0.763839,0.0234337,0.0444901,-0.47614
-0.0500211,0.234062,0.0321979,0.227793,0.332004,-0.511539,0.0647043,0.111462,-0.334103
-0.0369099,0.237823,0.0244086,0.0825118,0.772768,-0.274055,0.087346,0.123679,-0.130661
-0.018377,0.237025,0.0205802,-0.172673,0.950971,-0.106744,0.0843294,0.0976808,0.0296466
0.000825763,0.232083,0.0194185,-0.284108,0.924197,-0.00686461,0.0625966,0.0562994,0.1024
0.017411,0.227443,0.0203428,-0.150407,0.745313,0.0957691,0.0437072,0.0418477,0.115868
0.0293338,0.226816,0.0236476,0.0847253,0.516274,0.239181,0.0304121,0.0557636,0.145141
0.0356721,0.230659,0.0302317,0.256772,0.264839,0.420408,0.0414519,0.0738337,0.200619
0.0355736,0.236546,0.0409375,0.265427,-0.0234123,0.646792,0.0538795,0.101015,0.267833
0.0290024,0.240848,0.0562513,0.102683,-0.249643,0.857073,0.0650852,0.116013,0.309213
0.0179825,0.241643,0.0756392,-0.0493227,-0.357325,1.02496,0.0785034,0.107127,0.275431
0.00545339,0.240284,0.0978457,-0.106002,-0.354963,1.12518,0.0794048,0.0813628,0.198459
-0.00689001,0.237262,0.121755,-0.200629,-0.317312,1.20613,0.0902388,0.0650442,0.130592
-0.0190185,0.231543,0.146888,-0.350484,-0.325943,1.23663,0.103501,0.0350521,0.0600668
-0.0319606,0.221928,0.170937,-0.555306,-0.44887,1.11598,0.0924049,-0.0134252,-0.00872684
-0.0475699,0.208549,0.191442,-0.678743,-0.67802,0.941384,0.07826,-0.0615296,-0.112343
-0.0664317,0.194847,0.207976,-0.553817,-0.879734,0.770394,0.087023,-0.0930349,-0.255431
-0.0875948,0.186002,0.221832,-0.214609,-0.931019,0.66852,0.0980894,-0.068654,-0.385259
-0.106523,0.183538,0.234862,0.0832808,-0.677997,0.643558,0.116086,-0.0267804,-0.421646
-0.117517,0.18605,0.248491,0.309946,-0.144827,0.665467,0.107838,0.00217865,-0.394763
-0.117735,0.19229,0.262837,0.455168,0.364388,0.655024,0.0925016,0.0250761,-0.289996
-0.109573,0.200209,0.27648,0.465816,0.697033,0.580919,0.0792612,0.0277922,-0.132801
-0.0964981,0.207396,0.287969,0.358877,0.812804,0.462692,0.0430294,0.0309096,0.00509989
-0.0821627,0.212712,0.296686,0.255827,0.796296,0.341267,0.0094198,0.0421208,0.0868659
-0.0687182,0.217032,0.303283,0.236894,0.667929,0.281323,0.0101075,0.0500792,0.121758
-0.0583966,0.221544,0.308653,0.246722,0.502743,0.209875,0.0227725,0.0599313,0.149494
-0.0496552,0.226297,0.312142,0.2501,0.474894,0.103145,0.0284871,0.0620625,0.156759
-0.0392044,0.230922,0.31351,0.200224,0.608114,0.0132274,0.0287851,0.0697564,0.160635
-0.0262374,0.233621,0.313198,0.064651,0.67148,-0.0440895,0.0475097,0.0661427,0.192104
-0.01279,0.233795,0.311978,-0.0348279,0.638772,-0.0750875,0.0945798,0.041897,0.191877
-7.67241e-05,0.232268,0.310145,-0.115967,0.587197,-0.100145,0.117064,0.0149605,0.165255
0.0108957,0.229387,0.307999,-0.158533,0.456423,-0.113304,0.140635,-0.0174927,0.113381
0.0172658,0.225616,0.305291,-0.23305,0.046073,-0.159016,0.135928,-0.0404834,0.0559778
0.0122961,0.219946,0.301796,-0.313476,-0.621394,-0.186189,0.0890289,-0.0561917,-0.0425665
-0.00417835,0.214309,0.29734,-0.20812,-1.06237,-0.272761,0.0298396,-0.0863083,-0.247113
-0.0243246,0.212838,0.290071,0.0542957,-1.05259,-0.444993,-0.0370024,-0.0883412,-0.441021
-0.0403983,0.215904,0.27985,0.185885,-0.763206,-0.549048,-0.109186,-0.0329008,-0.488995
-0.0500829,0.220014,0.268941,0.166175,-0.443908,-0.522274,-0.155841,0.0294619,-0.434707
-0.0532276,0.22432,0.259507,0.246652,-0.0836009,-0.421784,-0.173915,0.0448461,-0.382758
-0.0507213,0.231752,0.251961,0.47973,0.126893,-0.362725,-0.210834,0.0385513,-0.325868
-0.0464027,0.2442,0.245454,0.730892,0.123964,-0.33429,-0.259281,0.0674636,-0.206403
-0.0431172,0.260898,0.239532,0.906846,0.068403,-0.313698,-0.264065,0.105635,-0.0514476
-0.0393355,0.279578,0.233919,0.899421,0.183032,-0.31041,-0.23454,0.135539,0.107508
-0.0328387,0.295021,0.22775,0.583842,0.27331,-0.34489,-0.178821,0.141117,0.274594
-0.0246917,0.301888,0.220141,0.0642891,0.302259,-0.409947,-0.108904,0.0920314,0.384189
-0.0246917,0.301888,0.220141,0.0642891,0.302259,-0.409947,-0.108904,0.0920314,0.384189
-0.0167321,0.298123,0.210471,-0.437222,0.187404,-0.516363,-0.0456675,0.00994381,0.40325
-0.0110678,0.286461,0.198294,-0.692653,0.0304758,-0.62879,0.0193599,-0.0587492,0.32969
-0.00805099,0.273337,0.184816,-0.584388,-0.0880447,-0.639569,0.092774,-0.0885892,0.215591
-0.00740304,0.264406,0.172275,-0.324579,-0.176121,-0.556676,0.138615,-0.0724343,0.117733
-0.00894332,0.259562,0.162026,-0.196543,-0.241803,-0.423684,0.144096,-0.0225331,0.069415
-0.0138173,0.256174,0.155017,-0.134879,-0.456307,-0.251541,0.151351,-0.0061098,0.0299878
-0.0246404,0.25527,0.151562,0.0690196,-0.702734,-0.0811323,0.167593,-0.0218155,-0.064559
-0.0402347,0.260062,0.15142,0.426985,-0.822977,0.0377869,0.150627,-0.0275121,-0.172576
-0.0556314,0.271916,0.152722,0.742755,-0.6606,0.00435148,0.0879226,-0.0215074,-0.232583
-0.0665259,0.288272,0.152414,0.861101,-0.440417,-0.145009,0.00515534,0.0245304,-0.20264
-0.0725128,0.30542,0.14874,0.807148,-0.282303,-0.332713,-0.0360061,0.0701335,-0.129199
-0.0742921,0.320541,0.14098,0.636392,-0.12373,-0.515571,-0.0415258,0.114183,-0.067942
-0.0716901,0.331944,0.129704,0.434951,0.00362778,-0.62122,-0.0542907,0.15448,-0.0263476
-0.067536,0.340092,0.116773,0.296966,-0.0560256,-0.656394,-0.0776159,0.19655,-0.00394422
-0.0662551,0.345119,0.102805,0.114589,-0.291049,-0.691797,-0.126998,0.25144,0.0340634
-0.0682848,0.346484,0.0882246,-0.056046,-0.358346,-0.684044,-0.133028,0.268853,0.0601761
-0.0679335,0.345368,0.0738297,-0.142031,-0.0443678,-0.667391,-0.09874,0.242565,0.0658406
-0.0594628,0.342575,0.0591387,-0.227031,0.372589,-0.698142,-0.0601753,0.201178,0.11076
-0.0453694,0.337861,0.044113,-0.32081,0.485314,-0.684193,-0.00480232,0.152118,0.194219
-0.0326566,0.330677,0.0301389,-0.445619,0.290267,-0.603947,0.0408917,0.0998757,0.266775
-0.0265586,0.320869,0.0181024,-0.55759,-0.0626528,-0.51548,0.0619433,0.0491256,0.269504
-0.0272353,0.309451,0.00755057,-0.594481,-0.288805,-0.467189,0.0729356,-0.000868678,0.205276
-0.030583,0.297576,-0.00248796,-0.638127,-0.345409,-0.467101,0.0769333,-0.0289706,0.106497
-0.0352515,0.284007,-0.0126457,-0.7571,-0.409673,-0.457975,0.0660131,-0.0341264,0.0131769
-0.0415027,0.268541,-0.0220293,-0.800355,-0.470002,-0.371062,0.0776624,-0.0371042,-0.10262
-0.0489324,0.25412,-0.0287262,-0.642226,-0.421677,-0.202335,0.0871522,-0.0350746,-0.219614
-0.0549365,0.244071,-0.0312463,-0.366901,-0.215508,0.0224856,0.0719888,-0.0108929,-0.274571
-0.0567818,0.238946,-0.0283088,-0.140792,0.108251,0.2796,0.030969,0.0128632,-0.243235
-0.0537177,0.236636,-0.0210343,-0.0704364,0.345942,0.409078,-0.0471849,0.00800879,-0.146381
-0.0485972,0.234508,-0.0128209,-0.110513,0.304425,0.393611,-0.105904,-0.0225181,-0.041871
-0.047325,0.231671,-0.00494213,-0.122492,-0.00696372,0.398002,-0.106621,-0.0319469,0.00986838
-0.0513431,0.229915,0.00381959,0.0110117,-0.136743,0.475352,-0.103976,-0.0138654,-0.0188235
-0.055019,0.231194,0.0146237,0.162349,0.0413361,0.572351,-0.0953977,0.0128005,-0.0424226
-0.055038,0.233903,0.0272264,0.149911,0.218906,0.633063,-0.0602572,0.0116984,0.00997728
-0.0539204,0.234908,0.0404765,0.020563,0.167269,0.641325,-0.0280149,-0.0213353,0.0703959
-0.0550492,0.233974,0.0533222,-0.0276188,0.00545057,0.61111,0.00147453,-0.0552027,0.0440177
-0.0604565,0.232796,0.0654151,-0.0101962,-0.267008,0.574948,0.012098,-0.0481092,-0.0181935
-0.0699055,0.23285,0.0771963,0.117049,-0.348907,0.580492,-0.00440884,-0.0138622,-0.121557
-0.0778927,0.23651,0.0896904,0.346411,-0.1383,0.613344,-0.000997156,0.0225808,-0.209406
-0.0808459,0.244024,0.103721,0.496747,0.187617,0.692736,0.00289539,0.0717178,-0.18987
-0.0778338,0.252932,0.119452,0.497331,0.482702,0.753848,-0.0104883,0.105697,-0.102604
-0.0708701,0.260892,0.135897,0.418876,0.60688,0.776754,-0.0447751,0.126244,0.000874996
-0.0636166,0.267576,0.152397,0.35972,0.52669,0.76071,-0.0614914,0.12319,0.0709079
-0.0589045,0.27348,0.167865,0.330612,0.341797,0.688234,-0.0654334,0.103763,0.103303
-0.0581763,0.278958,0.18155,0.292492,0.112135,0.603024,-0.0385866,0.0882659,0.106064
-0.0615426,0.283223,0.194198,0.20153,-0.0858628,0.595956,-0.00059313,0.0983753,0.0877214
-0.0681782,0.285528,0.207224,0.12082,-0.198427,0.641094,0.0336595,0.100512,0.0321436
-0.0761467,0.28679,0.221153,0.116769,-0.18718,0.68682,0.0326371,0.101661,-0.0489326
-0.0828533,0.288748,0.236163,0.209258,-0.02041,0.738737,0.0223408,0.116265,-0.102747
-0.0842504,0.292733,0.252262,0.307927,0.361556,0.757963,0.000401244,0.11494,-0.0958183
-0.0842504,0.292733,0.252262,0.307927,0.361556,0.757963,0.000401244,0.11494,-0.0958183
-0.0779311,0.297628,0.268013,0.284351,0.7129,0.698954,0.00460523,0.0896856,0.022637
-0.065259,0.300921,0.281937,0.124771,0.926799,0.608059,0.0219228,0.0488263,0.159528
-0.0505407,0.300485,0.293666,-0.0951883,0.872302,0.517239,0.0473401,0.0100037,0.252893
-0.0373469,0.296098,0.303065,-0.281492,0.71196,0.396464,0.0850145,-0.0438265,0.260762
-0.0283644,0.288854,0.310153,-0.397393,0.386009,0.308146,0.124613,-0.0812045,0.244593
-0.0248833,0.280189,0.315492,-0.44657,0.13324,0.226178,0.146988,-0.101728,0.19093
-0.0244756,0.271028,0.319158,-0.452457,0.0433528,0.150423,0.152807,-0.104501,0.114102
-0.0238452,0.261913,0.321522,-0.464007,0.0896766,0.108339,0.156926,-0.0893992,0.0415344
-0.0227659,0.252465,0.323782,-0.464941,0.0561202,0.149354,0.185357,-0.0787602,0.00212145
-0.0237863,0.243951,0.327733,-0.364368,-0.0630932,0.266342,0.215432,-0.0772176,-0.0718144
-0.0279047,0.238262,0.334751,-0.175235,-0.171025,0.431451,0.199522,-0.0562221,-0.161823
-0.0335353,0.236589,0.345028,0.0339077,-0.130795,0.560855,0.141253,-0.048708,-0.246818
-0.0376776,0.238098,0.357024,0.154859,-0.00426525,0.589222,0.0762025,-0.0406953,-0.274583
-0.0390262,0.240925,0.368836,0.166316,0.149155,0.536135,0.0110493,-0.030259,-0.264882
-0.0368941,0.243564,0.378801,0.142449,0.307143,0.414758,-0.0539094,-0.0191365,-0.239114
-0.0308512,0.246473,0.386102,0.190111,0.468848,0.294146,-0.0992973,-0.0037259,-0.213864
-0.0212881,0.251472,0.39166,0.336885,0.635115,0.248213,-0.102415,0.023992,-0.172496
-0.00823149,0.259392,0.396922,0.453479,0.802815,0.255794,-0.11268,0.0667957,-0.0850766
0.00765759,0.268558,0.402205,0.442654,0.91575,0.251954,-0.135664,0.103629,0.0447078
0.0247575,0.276077,0.40687,0.281636,0.898469,0.198729,-0.154936,0.110856,0.174804
0.040543,0.279337,0.409845,0.0355725,0.748629,0.0863869,-0.166295,0.0988234,0.262771
0.0532403,0.277946,0.409826,-0.154525,0.501719,-0.102363,-0.171931,0.0618105,0.279076
0.0608437,0.273751,0.405881,-0.226506,0.153582,-0.296165,-0.13653,0.0298514,0.245406
0.0625382,0.268047,0.398446,-0.287887,-0.181697,-0.433867,-0.0828181,0.0246754,0.213214
0.0592562,0.261262,0.389402,-0.339421,-0.340542,-0.467227,-0.0123815,0.0314938,0.140959
0.0546264,0.252894,0.380405,-0.460217,-0.340849,-0.443274,0.0220581,0.0523617,0.0738344
0.0500754,0.241857,0.372704,-0.594836,-0.303299,-0.354667,0.0614335,0.0615427,0.00948805
0.045424,0.229201,0.36723,-0.617794,-0.295203,-0.236683,0.104491,0.0411947,-0.0639299
0.0405974,0.218052,0.364371,-0.456773,-0.229224,-0.0883893,0.125994,0.0218394,-0.152184
0.0374974,0.211279,0.364532,-0.229215,-0.075819,0.0771558,0.120511,0.0216611,-0.196615
0.0370205,0.208308,0.367732,-0.0895929,0.0948716,0.215522,0.0876589,0.0232113,-0.161479
0.0391679,0.207008,0.373073,-0.0622927,0.20625,0.289111,0.0617148,0.00216387,-0.0770473
0.0423972,0.205724,0.379009,-0.0809034,0.227498,0.276319,0.0299509,-0.0295645,0.000799716
0.0453692,0.204003,0.384044,-0.10714,0.149986,0.209406,0.00255341,-0.057907,0.0508571
0.0461194,0.201544,0.387723,-0.147424,-0.016011,0.140398,-0.00661088,-0.0713784,0.0844298
0.0431815,0.198176,0.390123,-0.187784,-0.231061,0.0783695,-0.00309277,-0.0799126,0.0797483
0.0371179,0.194112,0.391393,-0.208415,-0.328789,0.0325652,0.0030468,-0.0836092,0.0349869
0.0309307,0.190417,0.392113,-0.147183,-0.270355,0.0251262,0.0191022,-0.0770276,-0.0500538
0.0261182,0.188174,0.392511,-0.0757823,-0.204701,0.000627099,0.00693858,-0.0735395,-0.111219
0.0231181,0.187077,0.391978,-0.0302216,-0.116485,-0.0563284,-0.0103836,-0.0780957,-0.144236
0.021828,0.186917,0.390111,0.0239907,-0.0545926,-0.126365,-0.0297622,-0.0693426,-0.162046
0.021927,0.188323,0.386989,0.133913,0.0148003,-0.17517,-0.0419234,-0.0572187,-0.178027
0.0237584,0.192356,0.3831,0.265365,0.0872381,-0.192978,-0.0297724,-0.0439511,-0.168409
0.0267725,0.197997,0.378989,0.29475,0.138369,-0.191251,-0.0263379,-0.0190683,-0.104224
0.0308044,0.203784,0.375058,0.298481,0.190993,-0.182036,-0.0325121,-0.00730976,-0.0496755
0.0355759,0.209403,0.370922,0.274492,0.185452,-0.206557,-0.0556197,0.00815381,-0.000582635
0.0398945,0.214173,0.366257,0.214476,0.142366,-0.240532,-0.0696428,0.00704935,0.0457414
0.0431691,0.217381,0.360687,0.132859,0.066455,-0.29106,-0.0765333,0.00726819,0.0784765
0.045102,0.219206,0.354178,0.0836528,-0.0111941,-0.341747,-0.0741744,0.0069747,0.0836289
0.0460371,0.220322,0.34657,0.0607809,-0.0537245,-0.394672,-0.0712145,0.00574499,0.0761726
0.0464821,0.220818,0.338264,0.0229622,-0.0840931,-0.40565,-0.045566,0.0155676,0.0778446
0.0464821,0.220818,0.338264,0.0229622,-0.0840931,-0.40565,-0.045566,0.0155676,0.0778446
0.0465696,0.220277,0.3302,-0.0429598,-0.0780026,-0.384844,-0.0183588,0.0266357,0.0819873
0.0467319,0.218321,0.322706,-0.115766,-0.0767387,-0.357031,0.00210826,0.0280073,0.085884
0.0465213,0.215429,0.316071,-0.132007,-0.09083,-0.300809,0.025066,0.0228794,0.071119
0.0453725,0.212706,0.310711,-0.112146,-0.147542,-0.23597,0.0415722,0.0164188,0.0504319
0.0425932,0.210402,0.306685,-0.102016,-0.21074,-0.1647,0.0578155,0.0089017,0.0339907
0.0385387,0.208163,0.304167,-0.11126,-0.235485,-0.0907215,0.0557322,0.00559761,0.0085085
0.0342725,0.205961,0.303082,-0.0928553,-0.213424,-0.0224751,0.0594607,-0.00102821,-0.0233578
0.0301612,0.20449,0.303389,-0.0580654,-0.193277,0.0412639,0.0601934,-0.00907469,-0.0482736
0.0266991,0.203548,0.304605,-0.0386777,-0.118746,0.0734243,0.0353481,-0.0131718,-0.0599186
0.0248704,0.203252,0.306092,0.00511648,-0.0391452,0.0676005,0.0223207,-0.0254695,-0.0673965
0.0246169,0.203642,0.307201,0.027126,0.00613481,0.0477737,0.00427553,-0.0290396,-0.0527138
0.0252737,0.204308,0.30782,0.0361544,0.0333025,0.0211448,-0.0026659,-0.0362311,-0.034554
0.0260642,0.205043,0.307789,0.0293838,0.0214214,-0.0189452,-0.011523,-0.0323829,-0.0143071
0.0265865,0.205452,0.306896,0.0125384,0.00947093,-0.0681456,-0.0158467,-0.0393834,-0.00628608
0.0273504,0.205561,0.305087,-0.00660798,0.0240094,-0.10708,-0.0101849,-0.0387119,-0.00593179
0.0283537,0.205172,0.302736,-0.0340814,0.033143,-0.12294,-0.0117183,-0.0281218,0.00216156
0.029646,0.204537,0.300304,-0.033772,0.0523657,-0.119533,-0.00560157,-0.0278128,-0.00755745
0.0309631,0.204184,0.29805,-0.0265804,0.03784,-0.107079,-0.00532111,-0.0232297,-0.0143304
0.0313899,0.204081,0.296124,-0.0216737,-0.0139739,-0.0884653,-0.0145896,-0.0167999,-0.00715089
0.0310913,0.204452,0.294363,0.0180373,-0.0279812,-0.090006,-0.0205359,-0.0191521,-0.0138241
0.0309414,0.205738,0.292715,0.0729911,0.0145099,-0.0649525,-0.0100203,-0.0180463,-0.0106328
0.0323895,0.208131,0.29188,0.126991,0.120717,-0.0102995,0.00606528,-0.0103024,-0.00250208
0.0347603,0.210982,0.292172,0.123673,0.13396,0.0372223,-0.0045485,-0.00203574,0.0456249
0.036296,0.213308,0.293093,0.0930439,0.0451183,0.051046,-0.00276602,-0.0201934,0.0839463
0.035403,0.215073,0.294049,0.0891111,-0.0997038,0.0386786,0.00361264,-0.0315157,0.0834044
0.0323536,0.217204,0.294227,0.126157,-0.166561,-0.0154846,-0.0181296,-0.0303494,0.0512796
0.0300642,0.219791,0.29311,0.121539,-0.0817648,-0.0874547,-0.0295349,-0.0303418,0.03228
0.0299322,0.221212,0.290489,0.00481379,0.000668936,-0.168748,-0.0346306,-0.0153592,0.0588744
0.0306934,0.219838,0.286138,-0.142119,-0.0493594,-0.265377,-0.02641,-0.0206674,0.0804536
0.0299047,0.215866,0.279842,-0.228494,-0.163408,-0.358957,-0.00932407,-0.0337775,0.0539761
0.027387,0.211263,0.272145,-0.21637,-0.234866,-0.398147,0.0217024,-0.0273352,-0.0208603
0.0242489,0.207237,0.264527,-0.1699,-0.227977,-0.34809,0.0427091,0.0073618,-0.0888231
0.0215893,0.204507,0.258514,-0.0749105,-0.141767,-0.245505,0.0641588,0.0299731,-0.151011
0.0209633,0.204191,0.254693,0.0533454,0.00207961,-0.134016,0.0647704,0.0393234,-0.188043
0.0229174,0.206494,0.252994,0.184322,0.168385,-0.0297296,0.0487231,0.0429665,-0.186601
0.0278626,0.21137,0.253045,0.298881,0.317551,0.0371595,0.0164622,0.04061,-0.155127
0.034682,0.217956,0.253816,0.347272,0.364283,0.0513006,-0.0256912,0.03879,-0.078979
0.0411113,0.224692,0.25453,0.316639,0.282274,0.0409445,-0.049405,0.0320408,0.00846291
0.0450247,0.230441,0.25482,0.257274,0.107902,0.00984121,-0.0663111,0.0275857,0.0628197
0.0455658,0.235164,0.254284,0.229557,-0.0604482,-0.0399343,-0.0787659,0.0194254,0.0715339
0.0434863,0.239698,0.252788,0.237109,-0.16327,-0.086444,-0.0784388,0.0188424,0.0516986
0.0406987,0.244381,0.250472,0.235791,-0.161083,-0.117791,-0.0763895,0.0277831,0.033937
0.038847,0.248733,0.247678,0.21366,-0.0853074,-0.132581,-0.0723253,0.0378478,0.0299563
0.0386935,0.252658,0.244727,0.194413,-0.0124368,-0.140768,-0.0736495,0.0360349,0.0395634
0.0396705,0.256413,0.24131,0.204768,0.0195732,-0.187121,-0.0858946,0.020428,0.0569988
0.0411967,0.260402,0.23627,0.21434,-0.00070362,-0.291819,-0.0966966,-0.00719464,0.080579
0.0426908,0.264082,0.228794,0.181318,-0.0505567,-0.415379,-0.0828548,-0.0272611,0.111655
0.0432845,0.266347,0.218929,0.0824818,-0.160304,-0.523585,-0.0594149,-0.0303242,0.140364
0.0420362,0.266346,0.207319,-0.0198711,-0.26289,-0.590748,-0.0268854,-0.0332087,0.133198
0.0390428,0.264853,0.194779,-0.057694,-0.365942,-0.624116,0.00952354,-0.0365269,0.0825596
0.0347083,0.263189,0.181891,-0.0456481,-0.387494,-0.623461,0.0312213,-0.029176,0.0155361
0.0309369,0.262009,0.169174,-0.0180679,-0.306853,-0.619385,0.0386357,-0.0208394,-0.0498953
0.0292314,0.261198,0.15632,-0.0259076,-0.204848,-0.633857,0.0392385,-0.0155193,-0.0837395
0.0293934,0.260098,0.143208,-0.0392232,-0.115662,-0.637013,0.0478475,-0.0140651,-0.104045
0.0314752,0.259488,0.13026,0.0329716,-0.00173925,-0.616597,0.0498295,-0.0110382,-0.143927
0.0359386,0.261149,0.118054,0.17708,0.134955,-0.55373,0.0554211,-0.00174224,-0.166839
0.0423965,0.265265,0.107495,0.257404,0.226179,-0.449595,0.0611189,0.0123637,-0.122316
0.0494176,0.270091,0.098963,0.255664,0.241083,-0.358574,0.0531013,0.0103952,-0.0436708
0.055698,0.274638,0.0917819,0.235841,0.187029,-0.316277,0.0277617,-0.000636697,0.0102251
0.0603312,0.278773,0.0851864,0.207511,0.0895692,-0.29737,0.00990424,-0.00683671,0.0432476
0.0629876,0.282034,0.0789866,0.152684,0.00914623,-0.283012,-0.00185007,-0.00498506,0.0674124
0.0642647,0.284087,0.0730893,0.089289,-0.0419253,-0.271475,-0.0104379,-0.00360805,0.0756121
0.0646628,0.284996,0.0675162,0.0418546,-0.0728504,-0.250584,-0.0118556,-0.00146976,0.0666965
0.0645532,0.285098,0.062754,-0.00275572,-0.0796237,-0.200814,-0.00295973,0.00415236,0.0562528
0.0636486,0.284242,0.0592343,-0.0579523,-0.112136,-0.141886,0.000302169,0.00448966,0.0535883
0.0617893,0.282468,0.0567545,-0.0985212,-0.147315,-0.117137,-0.00621754,-0.00711566,0.0408435
0.0594602,0.28011,0.0543592,-0.119519,-0.141386,-0.133423,-0.017833,-0.0217564,0.0198278
0.0581303,0.277607,0.0516512,-0.119354,-0.0628934,-0.14176,-0.00864726,-0.0275045,0.00380605
0.0583432,0.27483,0.0487434,-0.149046,-0.00560541,-0.148183,-0.00477601,-0.0242859,0.0106383
0.0590181,0.271734,0.0462317,-0.160765,-0.0109906,-0.105882,0.0242656,-0.0222009,0.02268
0.0580809,0.268684,0.0449448,-0.161071,-0.113054,-0.0393555,0.0350683,-0.0131325,0.0291611
0.05532,0.266389,0.0448958,-0.0979569,-0.133609,0.0103491,0.0371431,-0.0155436,0.00263488
0.0530738,0.266089,0.0454564,-0.0224249,-0.0667869,0.0293323,0.0335959,-0.0136354,-0.0271983
0.0530537,0.266482,0.0460368,-0.0433928,0.0143295,0.0364504,0.0198421,-0.00254539,-0.00496143
0.0545169,0.265617,0.0465687,-0.111854,0.0284619,0.0277982,0.0156583,-0.00452372,0.0261039
0.0556658,0.263623,0.0468611,-0.126162,0.00876662,0.0148464,0.00574856,-0.00812685,0.028303
0.0556658,0.263623,0.0468611,-0.126162,0.00876662,0.0148464,0.00574856,-0.00812685,0.028303
0.056612,0.261844,0.0470973,-0.0772943,0.0249777,0.0172569,0.00590903,-0.00827369,0.004879
0.0576348,0.260734,0.047379,-0.0618983,0.0371309,0.01007,0.0025258,-0.000633389,0.00849634
0.0587375,0.259423,0.0475633,-0.116003,0.0430904,0.00221869,0.00121345,-0.00061819,0.0360841
0.0597667,0.256907,0.0474715,-0.17744,0.0479814,-0.0266209,-0.00286961,-0.00303513,0.042251
0.0610471,0.253229,0.0468773,-0.209025,0.0565501,-0.0509769,-0.000591863,-0.00509885,0.026623
0.0624085,0.248825,0.0460984,-0.232817,0.0601989,-0.0495312,-0.000831153,0.00229296,0.0176085
0.0638181,0.24436,0.045522,-0.226744,0.0638025,-0.0384755,0.0071048,0.00513422,0.00818837
0.0650081,0.240191,0.0450737,-0.222377,0.0594269,-0.0337461,0.0084663,0.00754118,0.00543487
0.0664222,0.235862,0.0449053,-0.250749,0.0805847,-0.0108695,0.0143827,0.00673719,0.00477612
0.0678638,0.230656,0.045392,-0.290535,0.0770148,0.0252124,0.0189451,0.0135435,0.00350231
0.0688187,0.225153,0.0468429,-0.281585,0.0483697,0.0766714,0.0248749,0.00619939,-0.0215355
0.0688189,0.220648,0.04932,-0.209082,-0.00500102,0.132109,0.0247605,-0.00422119,-0.0524176
0.0676582,0.217241,0.0526107,-0.172478,-0.031603,0.170615,0.0115734,-0.00643349,-0.0683866
0.0668546,0.214503,0.0566422,-0.121913,0.0430109,0.210864,0.00651884,-0.0113658,-0.0988004
0.0680091,0.213258,0.0614443,-0.0351438,0.155865,0.254553,-0.00187253,-0.00791314,-0.118678
0.070341,0.213707,0.0672027,0.0479863,0.197682,0.315207,-0.0145612,-0.0064068,-0.0898014
0.0726829,0.215843,0.0739046,0.116006,0.167826,0.348992,-0.0291858,-0.0113389,-0.0416518
0.0741304,0.218899,0.0807768,0.137942,0.12458,0.336197,-0.0606375,-0.0187459,0.00914657
0.0745593,0.221808,0.086798,0.110327,0.051647,0.265512,-0.0808745,-0.0331347,0.0534492
0.0739716,0.223943,0.0911095,0.0787668,-0.00656005,0.170683,-0.0921545,-0.0394136,0.075726
0.0730002,0.225321,0.0935259,0.0462605,-0.0254086,0.0808641,-0.0835735,-0.0347133,0.0775951
0.072231,0.22584,0.0945682,0.00399518,-0.0258629,0.0325278,-0.0629656,-0.0218175,0.0771371
0.0713963,0.225684,0.0952233,-0.0216846,-0.0320369,0.0371798,-0.0318833,-0.0106931,0.0711267
0.0699474,0.225719,0.0965698,0.00272868,-0.0550624,0.0868604,-0.00512928,0.000174329,0.0520841
0.0676737,0.22644,0.0987793,0.0329463,-0.103373,0.127363,0.00806351,0.0035934,0.0341156
0.0644148,0.227481,0.101624,0.040425,-0.142936,0.148656,0.0129106,-0.000626728,0.0160862
0.0604773,0.22853,0.104616,0.0403193,-0.175495,0.145345,0.0162805,-0.00703537,-0.00614327
0.0564173,0.229508,0.107528,0.0343192,-0.157356,0.145156,0.0226821,-0.0113477,-0.0383146
0.0532155,0.230468,0.11041,0.0483035,-0.103414,0.144593,0.0216412,-0.0104585,-0.0742816
0.0511481,0.231829,0.113217,0.0718015,-0.0544984,0.138467,0.0189218,-0.00914922,-0.0996192
0.0496567,0.23347,0.115867,0.0810396,-0.0436234,0.131464,0.0205885,-0.011092,-0.104273
0.0484296,0.23546,0.118367,0.116813,-0.0109827,0.121122,0.0219406,-0.00598301,-0.110474
0.0489508,0.238524,0.120504,0.180053,0.11242,0.098909,0.0123906,-0.00623921,-0.124157
0.0519477,0.24237,0.121996,0.191301,0.215547,0.0717071,0.00402145,0.00512582,-0.087041
0.0562855,0.245856,0.123328,0.147334,0.232134,0.079047,0.0161146,0.0153285,-0.021551
0.0598844,0.248344,0.125028,0.100178,0.171038,0.102416,0.0178695,0.0238606,0.0256276
0.062382,0.250454,0.127265,0.104002,0.13786,0.122916,0.0213449,0.0189928,0.03587
0.0642123,0.252487,0.129815,0.0846827,0.115451,0.134062,0.00967417,0.0235407,0.0472921
0.0657118,0.253956,0.13252,0.0466148,0.0994813,0.140744,0.0115759,0.0221247,0.0595717
0.066482,0.254498,0.1355,-0.00684806,0.054213,0.149642,0.00775877,0.0258383,0.0692132
0.0664875,0.254304,0.13892,-0.0212467,0.028634,0.185905,0.0191333,0.0219582,0.0487689
0.0659229,0.254376,0.14329,0.0101552,0.0172138,0.243585,0.0259663,0.0263914,0.0199938
0.0650509,0.255192,0.148654,0.0394674,0.030203,0.278054,0.0166137,0.0241603,0.000434518
0.064239,0.256327,0.154534,0.0340419,0.0293772,0.297339,0.0121366,0.0191238,0.000610828
0.0632941,0.257123,0.160609,0.0175744,0.0310597,0.300755,0.00279239,0.0168422,-0.00188261
0.0629487,0.25773,0.166679,0.0311427,0.0730866,0.296254,-0.00931567,0.0133547,-0.0220504
0.0634908,0.258598,0.172606,0.0439585,0.113489,0.289715,-0.0173626,0.0162847,-0.0180171
0.0646781,0.259401,0.178398,0.0123972,0.137588,0.278108,-0.0211041,0.014955,0.0106807
0.0655869,0.259322,0.184013,-0.0465907,0.0845985,0.261216,-0.0315034,0.0166642,0.0436484
0.0652542,0.258329,0.189091,-0.0693309,0.0196124,0.217517,-0.0420786,0.0034059,0.0423971
0.064093,0.256952,0.193106,-0.0920375,-0.0255331,0.16271,-0.0399737,-0.00384614,0.0293311
0.0629726,0.254927,0.196148,-0.126475,0.00328429,0.118851,-0.0384057,-0.000327408,0.0181776
0.0626032,0.252021,0.198437,-0.17192,0.0387744,0.0884046,-0.0283594,0.00422922,0.00211215
0.0626032,0.252021,0.198437,-0.17192,0.0387744,0.0884046,-0.0283594,0.00422922,0.00211215
0.0624271,0.248963,0.200822,-0.155174,0.051377,0.114437,-0.00298324,0.00660679,-0.0175521
0.0620581,0.246846,0.203767,-0.102228,0.0463131,0.144218,0.0093044,0.00801897,-0.0344828
0.0615211,0.245653,0.207223,-0.0623654,0.0257362,0.169119,0.00518282,0.00936449,-0.0349234
0.0606143,0.244932,0.210978,-0.0361816,0.0149876,0.178024,0.00766761,0.0035529,-0.0356562
0.0602174,0.244686,0.214771,-0.00109167,0.0525225,0.189358,0.00820091,0.00256652,-0.044927
0.0610226,0.245126,0.218803,0.036327,0.117765,0.20726,0.00440646,0.00772414,-0.0432194
0.06276,0.246173,0.223093,0.0557066,0.143295,0.21693,-0.00476718,0.00646612,-0.018355
0.0643299,0.247518,0.227398,0.0603904,0.106305,0.205247,-0.0124149,-0.00184339,0.012852
0.0649046,0.248716,0.231203,0.0443009,0.0487088,0.167066,-0.0250368,-0.00501515,0.0398051
0.0648233,0.249217,0.233959,0.00452304,0.0213865,0.0980482,-0.036913,-0.00935163,0.0467519
0.0648678,0.248853,0.235244,-0.0410112,0.0186339,0.0227334,-0.0398,-0.0110772,0.0384309
0.0651545,0.247646,0.235264,-0.0758558,0.0156627,-0.0252824,-0.0269435,-0.00663179,0.0232516
0.0653015,0.24617,0.234897,-0.0783992,0.00832786,-0.0164043,-0.00872238,0.00676838,0.000485241
0.0648796,0.245205,0.235138,-0.0474776,0.00526883,0.0256394,0.0113698,0.0164523,-0.0255295
0.0644064,0.244987,0.236145,-0.0166329,0.0256789,0.0482254,0.0142659,0.0179038,-0.042781
0.0647401,0.24504,0.237278,-0.00589475,0.0569351,0.0531662,0.00993054,0.0122791,-0.047606
0.0655821,0.244989,0.238424,-0.00664035,0.0643333,0.0592748,0.0103048,0.0105053,-0.0393766
0.0667771,0.245054,0.239858,0.0224977,0.0907491,0.0872277,0.0130553,0.0147954,-0.0411475
0.0683133,0.245838,0.241948,0.0690257,0.103472,0.124901,0.00700378,0.0164708,-0.0366009
0.0696666,0.247341,0.244591,0.0806115,0.0862668,0.143198,-6.32331e-05,0.0133057,-0.00701308
0.0700144,0.248582,0.24743,0.0420744,0.00932017,0.14042,-0.00643601,0.0100681,0.0308371
0.0690917,0.24909,0.250184,0.0268834,-0.024298,0.127619,-0.0123712,-0.000197083,0.0305151
0.0680541,0.249466,0.252404,0.0216992,-0.0269268,0.088557,-0.0248047,-0.00424276,0.0188948
0.0673614,0.249612,0.253801,0.00094199,-0.00992721,0.0581532,-0.0280845,-0.00512317,0.0150895
0.0666167,0.249363,0.254786,-0.0256076,-0.0475006,0.034353,-0.0226689,-0.00147374,0.0209669
0.0652657,0.249067,0.255341,-0.00822447,-0.0563525,0.0140182,-0.0180714,-0.00546886,-0.00118214
0.0637675,0.24951,0.255541,0.0299382,-0.055868,-0.000142707,-0.0117632,-0.00452015,-0.0199203
0.0624276,0.250644,0.255548,0.0587417,-0.0133152,-0.00754635,-0.00573487,0.00271276,-0.0275648
0.0621921,0.251924,0.255325,0.0509029,0.0127138,-0.0182017,0.000997603,0.00567624,-0.0123347
0.0624438,0.252841,0.25484,0.0402794,0.040403,-0.0351472,0.00749768,0.00755635,0.00353473
0.0630933,0.253354,0.253917,0.0181165,0.0199097,-0.0579032,0.00455885,0.0136991,0.0197245
0.0633604,0.253091,0.252583,-0.0141837,-0.00681607,-0.0756889,0.0143064,0.0144815,0.0324236
0.0631258,0.252206,0.251188,-0.0443598,-0.0496496,-0.0636241,0.0263599,0.0199574,0.0349627
0.0622314,0.250902,0.250054,-0.063604,-0.0651839,-0.0490829,0.0344673,0.025881,0.018007
0.0614795,0.249435,0.249306,-0.0701722,-0.0387968,-0.0303116,0.039063,0.0228419,-0.0105771
0.0616257,0.248065,0.248841,-0.0614787,0.0170934,-0.0140044,0.0364441,0.023269,-0.032405
0.0627355,0.246889,0.248765,-0.0513663,0.0415613,0.0113215,0.0434394,0.0225716,-0.0352209
0.06364,0.24587,0.249417,-0.0311144,0.0332418,0.0568021,0.0451118,0.0246194,-0.0348908
0.0644932,0.245604,0.250941,0.0126445,0.0620854,0.0980188,0.0402841,0.0182586,-0.0474221
0.0656378,0.246072,0.253129,0.0319736,0.0730042,0.126897,0.034316,0.0155686,-0.0350651
0.0667682,0.246516,0.255945,0.02117,0.064548,0.157559,0.0275072,0.0112537,-0.0109842
0.0673685,0.246981,0.259223,0.0353936,0.052742,0.167779,0.00752486,0.00656314,-0.00781029
0.0675989,0.247924,0.262459,0.0571793,0.0220428,0.160267,-0.00650688,-0.000671491,-0.00628555
0.0672397,0.249003,0.265319,0.0560858,-0.00150086,0.135698,-0.0205764,-0.00640061,-0.00167453
0.0672104,0.250158,0.26757,0.0658152,0.0262999,0.100666,-0.0251219,-0.0108657,-0.00511593
0.0677665,0.251426,0.2692,0.0647126,0.0495925,0.070382,-0.034,-0.00771523,-0.00236857
0.0681411,0.252482,0.270446,0.040041,0.0142867,0.0535145,-0.0379298,-0.00513551,0.0127553
0.0675607,0.253312,0.271333,0.0441399,-0.00747868,0.0296677,-0.0360428,-0.00842127,0.00657427
0.0668039,0.254555,0.271606,0.0658317,-0.00993688,-0.00931099,-0.0431034,-0.00756961,-0.00464374
0.0659094,0.25575,0.271242,0.0455827,-0.0251987,-0.0359346,-0.0433337,-0.00238505,0.000331223
0.0649044,0.256499,0.270269,0.0315481,-0.0297315,-0.0711967,-0.0427021,-0.00285017,-0.00248027
0.0642676,0.257281,0.268654,0.0475648,-0.000778159,-0.0923521,-0.0331788,0.000286698,-0.0213766
0.0644157,0.258428,0.266954,0.06555,0.0426865,-0.0837813,-0.0265586,0.00815517,-0.0224864
0.0649528,0.259679,0.265441,0.0681994,0.051822,-0.0768477,-0.0225393,0.0129659,-0.00440723
0.0649528,0.259679,0.265441,0.0681994,0.051822,-0.0768477,-0.0225393,0.0129659,-0.00440723
0.0655297,0.260937,0.263885,0.0676656,0.0471292,-0.0929047,-0.0278657,0.00819993,0.012369
0.0661978,0.261947,0.261706,0.063399,0.0370938,-0.125297,-0.0296523,0.0069783,0.02763
0.0667137,0.262441,0.259203,0.0261031,-0.00379649,-0.123472,-0.018117,0.0139403,0.0484958
0.0664024,0.262095,0.256963,-0.0201126,-0.0568761,-0.0989723,-0.00233526,0.0193737,0.0620331
0.0651667,0.261421,0.255145,-0.0223545,-0.0862685,-0.0880873,0.00528353,0.012146,0.0449059
0.0635746,0.260789,0.253422,-0.0336912,-0.105969,-0.0861014,0.0127284,0.00863644,0.0323197
0.0615381,0.259634,0.251786,-0.0723484,-0.135063,-0.0775022,0.0184428,0.00904581,0.0238893
0.0590004,0.257972,0.2505,-0.0773278,-0.146576,-0.0568614,0.0271373,0.00363982,-0.00645268
0.056705,0.256855,0.249548,-0.0271816,-0.111953,-0.0391874,0.0289706,-0.000873297,-0.0432414
0.0553776,0.256714,0.248911,0.012433,-0.0457547,-0.0203807,0.0250778,-0.00136027,-0.0600407
0.0552748,0.257105,0.2485,0.0317918,0.00622998,-0.0169503,0.0202693,-0.007651,-0.053939
0.0558974,0.257921,0.247972,0.0597088,0.0210813,-0.0285184,0.0100818,-0.0122634,-0.039852
0.0567079,0.259243,0.246981,0.0815669,0.0167499,-0.0601852,-0.00014187,-0.0203234,-0.0226556
0.0576751,0.260611,0.245197,0.0690208,0.0181539,-0.098151,-0.00938626,-0.020085,0.00356662
0.0586613,0.261326,0.242719,0.0285645,0.00530359,-0.1357,-0.015118,-0.0155185,0.0274665
0.0596582,0.261514,0.239565,0.0150361,0.0089799,-0.167635,-0.0146117,-0.0146961,0.0278035
0.060892,0.261573,0.235679,0.00289881,0.0121445,-0.208859,-0.0151138,-0.0124414,0.0302189
0.0621671,0.261166,0.231233,-0.0333165,0.00413512,-0.219947,0.000587642,-0.0110342,0.0374198
0.0630025,0.260234,0.2268,-0.0486796,-0.0159464,-0.215765,0.0126759,-0.00523642,0.032711
0.0636558,0.259418,0.22264,-0.0385196,-0.00301571,-0.199031,0.0224542,-0.00509411,0.0162939
0.0643612,0.258763,0.218871,-0.0342644,-0.00219902,-0.176374,0.0262186,-0.000858903,0.0119926
0.0650108,0.258024,0.215481,-0.042293,-0.0203966,-0.162873,0.029898,-0.00413701,0.0149938
0.0653757,0.257058,0.212327,-0.0454784,-0.0350919,-0.146813,0.0331767,-0.00798559,0.00746495
0.0655108,0.256383,0.20969,-0.0134512,-0.0471232,-0.104081,0.0429228,-0.0125905,-0.0166035
0.0651127,0.256646,0.208043,0.0378653,-0.0776111,-0.0433812,0.0471719,-0.0174479,-0.0424781
0.0637315,0.258079,0.207441,0.0987077,-0.0998263,-0.00795632,0.0442406,-0.0297036,-0.0679788
0.0624417,0.260781,0.207171,0.173127,-0.039055,0.00398239,0.0291405,-0.0320211,-0.0948675
0.0631834,0.264996,0.207114,0.245073,0.0924804,0.0224757,0.0165773,-0.0182915,-0.0917944
0.065978,0.27008,0.207303,0.248953,0.159096,0.0294053,-0.00129955,0.00029844,-0.0310536
0.0683487,0.27454,0.207636,0.188966,0.0461598,0.0322217,-0.0121947,0.00680676,0.0557921
0.067373,0.277489,0.207869,0.105281,-0.138836,0.00752031,-0.0173071,0.0027011,0.0995486
0.0637486,0.279117,0.207514,0.0719582,-0.20803,-0.0356165,-0.0185917,-0.00737542,0.0700641
0.0606923,0.280521,0.206153,0.0788478,-0.12081,-0.0811967,-0.0096086,-0.00172347,0.0126089
0.0599444,0.281804,0.20441,0.0558402,-0.0149285,-0.0671641,0.0211442,0.0125709,0.00187504
0.060063,0.282579,0.203813,0.0293517,-0.0145602,0.0224047,0.0518813,0.0282533,0.0106861
0.0584192,0.283619,0.205387,0.0707136,-0.108771,0.129335,0.0660017,0.0325171,0.00286025
0.0549285,0.286085,0.208562,0.152764,-0.128332,0.172779,0.0448341,0.0175959,-0.0308604
0.0521583,0.289499,0.211658,0.16315,-0.0579984,0.137334,0.0186231,-0.0019272,-0.0392542
0.0518608,0.292048,0.213512,0.0952722,0.0517423,0.0695828,0.00342753,-0.0072827,-0.0177523
0.0542271,0.292778,0.214241,0.0329913,0.101368,0.0442194,0.00929365,0.00235868,0.00512582
0.0566478,0.292883,0.215191,0.0364911,0.0790652,0.0775452,0.0220265,0.0126363,0.0135428
0.0572321,0.293538,0.21715,0.049846,-0.00154966,0.120818,0.0285283,0.0169259,0.0238504
0.0557683,0.294627,0.219677,0.0460339,-0.0596441,0.126136,0.0221018,0.00612658,0.0273529
0.0542194,0.295502,0.221933,0.0257549,-0.0217785,0.10018,0.0166833,-0.0017792,0.012425
0.0543193,0.295609,0.223823,-0.0119721,0.0507392,0.100828,0.0197329,0.00226048,0.00677323
0.0556427,0.294944,0.225939,-0.0323738,0.0638204,0.126922,0.0222575,0.00710195,0.00671387
0.0560649,0.29462,0.228762,-0.00861521,0.00361195,0.15361,0.0257246,0.00140557,0.00536627
0.0546737,0.294914,0.23197,0.00468246,-0.0764408,0.15484,0.0155839,-0.00742289,-0.00172532
0.0525396,0.295261,0.234883,0.00831146,-0.0774513,0.131414,0.00688598,-0.0174511,-0.0270465
0.0513554,0.295394,0.237044,0.00114819,-0.0176949,0.0919153,-0.000784852,-0.0134642,-0.0528134
0.0517117,0.295272,0.238617,-0.00773692,0.0645382,0.076543,0.0016042,-0.0062567,-0.0660401
0.0532458,0.295485,0.240271,0.0190967,0.109951,0.0934036,0.0052993,0.00656676,-0.0749226
0.0548362,0.296573,0.242497,0.0771734,0.106707,0.129561,0.00300393,0.0198598,-0.0651897
0.0561173,0.298902,0.24532,0.136707,0.111582,0.146802,-0.0053832,0.0191721,-0.0549077
0.0561173,0.298902,0.24532,0.136707,0.111582,0.146802,-0.0053832,0.0191721,-0.0549077
0.0576786,0.301991,0.248093,0.149855,0.135769,0.131781,-0.0181879,0.019529,-0.0224276
0.0600048,0.304516,0.250463,0.0940647,0.161794,0.107124,-0.0259293,0.0230062,0.0203143
0.0624707,0.305664,0.252412,0.0320269,0.140416,0.088667,-0.0324367,0.0266501,0.0493059
0.0643931,0.30602,0.254109,0.0113143,0.103437,0.0782326,-0.0313754,0.0282402,0.0542709
0.0655165,0.306143,0.255762,-0.007836,0.0702149,0.0752918,-0.0211962,0.0303568,0.0578569
0.0659175,0.305447,0.257565,-0.0731822,0.0298198,0.0896197,-0.0058903,0.0313105,0.0683711
0.0650969,0.303431,0.259896,-0.130766,-0.0311417,0.113331,0.00528832,0.0260455,0.056681
0.0629055,0.300848,0.262678,-0.131051,-0.0829699,0.135606,0.00996678,0.0150952,0.0129347
0.0601647,0.298967,0.265971,-0.0662239,-0.0718217,0.170393,0.0219608,0.00881261,-0.044089
0.0583814,0.298576,0.269981,-0.00181986,0.0183599,0.212098,0.020039,0.0127113,-0.0764201
0.0581561,0.29898,0.274904,0.00709105,0.0917439,0.263239,0.024045,0.0129901,-0.0560946
0.0583974,0.299323,0.280817,0.00262926,0.0916397,0.306046,0.0185106,0.0075959,-0.0187029
0.0579494,0.300005,0.287195,0.0369574,0.0403859,0.305314,0.00115792,-0.0103834,-0.00375754
0.056434,0.301319,0.293091,0.0686444,-0.0183783,0.267709,-0.0184319,-0.0220979,0.00712121
0.0543531,0.302633,0.298108,0.0477009,-0.0453484,0.230944,-0.0106893,-0.0267794,0.0222678
0.0522103,0.303206,0.302565,-0.0010381,-0.0550187,0.208528,-0.000871137,-0.0206325,0.0276534
0.0497492,0.303085,0.306953,-0.0223788,-0.0729762,0.216872,0.0069355,-0.0131032,0.00952911
0.0466299,0.303376,0.311748,0.023981,-0.0792129,0.239239,0.0132396,-0.00864467,-0.0265165
0.0437815,0.304876,0.316904,0.101456,-0.0476051,0.255897,0.0157917,-0.0113031,-0.0572074
0.0418212,0.307598,0.322066,0.14027,0.00704902,0.252036,0.0107972,-0.00736502,-0.056223
0.0407141,0.310612,0.327115,0.134436,0.0224982,0.246612,0.00482401,-0.000633031,-0.0353367
0.0397713,0.313554,0.331923,0.151727,0.0182132,0.226056,-0.00518362,0.00192288,-0.0309389
0.039073,0.316935,0.33607,0.18136,0.0324201,0.182032,-0.01899,0.00400835,-0.0314262
0.0392052,0.320485,0.339109,0.168834,0.0654977,0.127154,-0.0290513,0.0111482,-0.0155137
0.0401926,0.32334,0.341132,0.123059,0.094816,0.0818684,-0.0321334,0.0251637,0.0105392
0.0417498,0.325175,0.342498,0.0809062,0.113131,0.0554362,-0.0274655,0.0337081,0.0243906
0.0437374,0.326474,0.343451,0.0677922,0.131884,0.0313664,-0.0258805,0.0397913,0.0274651
0.0459296,0.32738,0.344079,0.034131,0.139009,0.0291476,-0.022372,0.0478053,0.0459567
0.048036,0.327444,0.345036,-0.0111192,0.132913,0.059125,-0.0135143,0.051223,0.0652668
0.0497574,0.326952,0.34688,-0.0208867,0.111282,0.108532,-0.014845,0.0497803,0.0663217
0.0504513,0.326917,0.349875,0.0191188,0.0604937,0.176368,-0.00814719,0.034885,0.0558478
0.0495904,0.327993,0.354342,0.0750187,0.0147056,0.244845,-0.0175848,0.0254364,0.0509195
0.0478053,0.330096,0.35977,0.109069,-0.0139821,0.269691,-0.0327101,0.0115421,0.0535121
0.045356,0.332069,0.365207,0.0614431,-0.0561298,0.247353,-0.0469681,-0.00305614,0.0762336
0.0423099,0.332516,0.36971,-0.0328142,-0.100536,0.173828,-0.0573144,-0.0186548,0.0874139
0.0390862,0.331283,0.372288,-0.096412,-0.141157,0.063369,-0.0730538,-0.0342864,0.061084
0.0358014,0.328935,0.372338,-0.134575,-0.174821,-0.0651027,-0.0736392,-0.043664,0.0244396
0.0332465,0.326,0.369906,-0.155851,-0.148904,-0.17458,-0.0627091,-0.0452067,-0.020081
0.031912,0.32292,0.365619,-0.162375,-0.0975394,-0.243673,-0.0467064,-0.0289767,-0.0588075
0.032258,0.319846,0.360229,-0.147874,-0.0220177,-0.285423,-0.0261459,-0.0171681,-0.0856339
0.0343374,0.317059,0.354061,-0.118199,0.0544399,-0.306872,-0.0084038,-0.00676897,-0.0931587
0.0380481,0.314923,0.347737,-0.0727712,0.113,-0.295216,0.0123853,0.00488788,-0.087252
0.0424645,0.313632,0.341985,-0.0353669,0.14952,-0.255929,0.0209289,0.0207962,-0.0619064
0.0469941,0.312809,0.337168,-0.0329606,0.149265,-0.208834,0.0272938,0.0237359,-0.0225542
0.0510586,0.311809,0.333291,-0.0497181,0.139257,-0.167301,0.0242853,0.0205411,0.0116819
0.0546883,0.310588,0.330141,-0.0537073,0.127285,-0.145349,0.00799759,0.0142525,0.0280009
0.0578779,0.309297,0.327219,-0.0610623,0.095234,-0.142291,-0.00387692,0.00636935,0.0421394
0.0604808,0.307713,0.324324,-0.0804534,0.0840001,-0.145997,-0.0077696,-6.55651e-06,0.0538557
0.0630864,0.305633,0.321233,-0.1048,0.0733068,-0.160534,-0.0123324,-0.00627783,0.0583423
0.0651879,0.303191,0.318103,-0.118562,0.0369566,-0.148723,-0.00153208,-0.0074628,0.0611413
0.0662407,0.300501,0.315426,-0.14283,-0.0028889,-0.124196,0.00565206,-0.0058814,0.0578604
0.066529,0.297485,0.313285,-0.15004,-0.0296667,-0.107855,0.00441799,-0.0142566,0.0406316
0.0664436,0.294526,0.31114,-0.146743,-0.0343066,-0.120171,0.00168026,-0.0271274,0.0143377
0.0665621,0.291571,0.308724,-0.153176,-0.019629,-0.12888,-0.00123616,-0.0303223,-0.00270152
0.0665621,0.291571,0.308724,-0.153176,-0.019629,-0.12888,-0.00123616,-0.0303223,-0.00270152
0.0670905,0.288521,0.306234,-0.151597,-0.00499692,-0.132058,-0.00608739,-0.0309555,-0.0216405
0.0679183,0.28589,0.303429,-0.122591,-0.0022243,-0.154573,-0.00947794,-0.0359363,-0.0401152
0.0688653,0.283615,0.300265,-0.111705,0.00906128,-0.162211,-0.0075902,-0.0330073,-0.0443618
0.0703782,0.28162,0.297032,-0.0910436,0.0541772,-0.162948,-0.00291368,-0.0286062,-0.0487601
0.072683,0.279985,0.293898,-0.0746711,0.0950298,-0.151216,0.00439701,-0.0229599,-0.0436293
0.075387,0.278704,0.291119,-0.0580923,0.101401,-0.131101,0.0142911,-0.0235958,-0.0289278
0.0776866,0.277488,0.288754,-0.0609271,0.0698609,-0.106239,0.0180574,-0.0187231,-0.00573844
0.0789367,0.276275,0.287009,-0.0521295,0.0153663,-0.0741481,0.0249504,-0.0201644,0.00232583
0.0790555,0.27547,0.285904,-0.0252264,-0.0281818,-0.0416372,0.0242088,-0.0198094,-0.0079475
0.0785554,0.275312,0.285413,0.00773407,-0.0313352,-0.00464335,0.0263636,-0.0195651,-0.0233392
0.0782419,0.276018,0.285665,0.0459813,-0.00606422,0.0349828,0.0245432,-0.0143384,-0.0382776
0.0780978,0.277466,0.286508,0.0767114,-0.00224236,0.0559764,0.0130545,-0.0138159,-0.0387984
0.0780032,0.279547,0.287586,0.114442,0.00571668,0.0653647,0.00578931,-0.0206498,-0.0373933
0.0782259,0.282159,0.288478,0.126746,0.0224048,0.0460423,-0.00555216,-0.0177734,-0.0252993
0.0787337,0.284516,0.288896,0.104755,0.0212501,0.0144998,-0.0184377,-0.0164105,-0.00109208
0.0789312,0.286378,0.288535,0.0962613,-0.0214156,-0.0314153,-0.0223391,-0.0200866,0.00662529
0.0787291,0.288287,0.287352,0.111193,-0.0289453,-0.0629178,-0.0182886,-0.0196142,-0.00525123
0.0789909,0.290577,0.285595,0.127715,0.0166184,-0.0854738,-0.0154659,-0.00670728,-0.0188621
0.0802829,0.292975,0.28353,0.113734,0.0600458,-0.100874,-0.0169039,0.00846723,-0.00750202
0.0816662,0.294912,0.281177,0.07922,0.0374765,-0.120666,-0.0159809,0.0155246,0.0143382
0.0820866,0.29652,0.2787,0.0774049,-0.00336988,-0.117025,-0.0103619,0.0209692,0.0126328
0.0823192,0.297969,0.276445,0.0903222,0.0222035,-0.10054,-0.011037,0.0316168,0.00135779
0.0836765,0.299314,0.274501,0.0885456,0.102804,-0.0907124,-0.0165541,0.0347486,0.00644064
0.08626,0.300072,0.272507,0.0333172,0.124849,-0.105735,-0.0256475,0.0321615,0.0430871
0.088617,0.299563,0.270131,-0.0357612,0.0555093,-0.132574,-0.025142,0.0217411,0.0785628
0.0898019,0.298148,0.26721,-0.0557883,-0.0109795,-0.158394,-0.027955,0.00931099,0.0684856
0.0898605,0.296211,0.264017,-0.0990858,-0.0615106,-0.152745,-0.0117347,0.0146458,0.0643611
0.0890674,0.293327,0.261568,-0.161623,-0.0744165,-0.105853,0.011865,0.0167236,0.058229
0.088007,0.289533,0.260168,-0.200223,-0.0642235,-0.0688439,0.0142299,0.0127539,0.0358145
0.087191,0.285337,0.259136,-0.219305,-0.0465916,-0.0707679,0.016889,-0.00785586,0.00839657
0.0861592,0.280798,0.258111,-0.223487,-0.0866513,-0.0645141,0.0223287,-0.0157549,-0.00548273
0.0844301,0.276633,0.257483,-0.186726,-0.108181,-0.0251401,0.037666,-0.0182633,-0.0350223
0.0823903,0.273571,0.257765,-0.127156,-0.0947386,0.0288028,0.0491813,-0.0186008,-0.0627317
0.0806814,0.271585,0.259097,-0.0899353,-0.0478671,0.0856566,0.0534179,-0.0167909,-0.0696177
0.07991,0.270482,0.261306,-0.0441093,0.0200223,0.116704,0.0485808,-0.0265204,-0.0722393
0.0801117,0.270421,0.263696,0.00759722,0.0407693,0.117543,0.0321046,-0.0338725,-0.0636174
0.0802012,0.271191,0.266131,0.0443222,0.0156572,0.128458,0.0301736,-0.0386243,-0.0386983
0.0798235,0.272686,0.268614,0.0855233,0.00945887,0.12174,0.0208638,-0.0382366,-0.0282054
0.0797499,0.274854,0.270644,0.109424,0.0284347,0.0951955,0.0105594,-0.0386829,-0.0193692
0.0798841,0.277105,0.272133,0.0990054,0.0128613,0.0693797,0.00494064,-0.0326568,-0.00648677
0.0797069,0.279249,0.273101,0.107693,-0.0108516,0.0460892,0.00349415,-0.0248115,-0.00651097
0.0792739,0.281732,0.273734,0.126111,-0.0194309,0.0378608,0.00695424,-0.0142779,-0.0205907
0.0790459,0.284641,0.274188,0.148504,0.00821072,0.0313291,0.00592448,-0.00574666,-0.0356051
0.0796518,0.288056,0.274615,0.180595,0.061577,0.0360662,0.00209515,0.00526515,-0.0429907
0.0812648,0.291921,0.274842,0.191622,0.0964154,0.0119147,-0.00880191,0.0129206,-0.0294613
0.0833585,0.295628,0.2745,0.179366,0.0975315,-0.0152622,-0.0165092,0.0184676,-0.00413024
0.0853785,0.298768,0.273744,0.157282,0.0866077,-0.027585,-0.0176696,0.0296337,0.0190521
0.0872002,0.301217,0.27285,0.135071,0.0825059,-0.0375871,-0.0226218,0.041968,0.0393602
0.0890271,0.303043,0.271841,0.0801347,0.0823933,-0.0429839,-0.0256693,0.0489142,0.0594481
0.0906468,0.303587,0.270923,-0.00328757,0.0581121,-0.0402364,-0.0270875,0.0552167,0.0807235
0.0914925,0.302669,0.270211,-0.0678158,0.0113206,-0.0398563,-0.0240405,0.0498547,0.0877894
0.0912712,0.300543,0.269456,-0.124085,-0.0513215,-0.0554153,-0.0251084,0.0396146,0.0797555
0.0898198,0.297448,0.268583,-0.175448,-0.120887,-0.0558346,-0.0215054,0.0353143,0.063638
0.0870491,0.293398,0.268092,-0.210457,-0.154615,-0.0258904,-0.00168104,0.0312419,0.0338422
0.0870491,0.293398,0.268092,-0.210457,-0.154615,-0.0258904,-0.00168104,0.0312419,0.0338422
0.0844237,0.289352,0.268272,-0.184304,-0.0917715,0.0107747,0.00513478,0.0251389,-0.0258654
0.0829731,0.286132,0.269198,-0.149394,-0.037441,0.052694,0.0082297,0.0207388,-0.0510836
0.0816514,0.283386,0.2711,-0.137615,-0.0464195,0.10441,0.0183873,0.0110539,-0.0375609
0.079736,0.281139,0.273775,-0.0988476,-0.0681228,0.12543,0.0057052,-0.00601205,-0.0367888
0.0778446,0.279796,0.276188,-0.0461865,-0.0561518,0.0921848,-0.00893071,-0.0276738,-0.0400134
0.0763355,0.278892,0.277722,-0.0520624,-0.0620155,0.0536022,-0.012951,-0.0323263,-0.0132099
0.0749977,0.27743,0.278724,-0.0795177,-0.0655355,0.0390295,-0.0109509,-0.0307565,0.00985539
0.0736159,0.275839,0.27935,-0.0724842,-0.0735336,0.0154071,-0.0135639,-0.0314939,0.00587094
0.0717586,0.274825,0.279449,-0.0475235,-0.10914,-0.0133173,-0.00980237,-0.0328818,0.0012098
0.0693825,0.274254,0.279044,-0.0420669,-0.121299,-0.0337005,-0.00426648,-0.0308827,-0.00363213
0.0673069,0.273886,0.278193,-0.0329152,-0.102064,-0.0574071,-3.67686e-05,-0.0230429,-0.0154355
0.0659881,0.273838,0.276945,-0.00858931,-0.0507752,-0.0657372,0.00560846,-0.0151553,-0.0330228
0.0658276,0.274284,0.275544,0.00809841,-0.00104992,-0.068249,0.009036,-0.00689805,-0.0345674
0.0666477,0.274917,0.274164,0.0161455,0.0495428,-0.0630816,0.0152482,0.000593543,-0.0227672
0.0681518,0.275388,0.272921,0.0107936,0.0519778,-0.0571774,0.0188328,0.00415912,0.00229162
0.0690907,0.275516,0.271813,0.00117747,0.0104857,-0.0471212,0.0182085,0.00710574,0.0235724
0.069122,0.27531,0.270992,-0.014437,-0.037403,-0.034059,0.0235303,0.00409892,0.0330563
0.0684814,0.274699,0.270418,-0.0266106,-0.0422228,-0.0189296,0.0177101,0.0101341,0.0265349
0.0683936,0.274119,0.270181,-0.0311648,-0.00836701,-0.0017237,0.023231,0.00940752,0.0111184
0.0685531,0.27316,0.270227,-0.0650343,-0.00653451,0.00789275,0.0166514,0.00985754,0.0193163
0.0687454,0.271737,0.27041,-0.0893084,-0.0276747,0.0163353,0.0202398,-0.00365913,0.0125445
0.0681854,0.270007,0.270791,-0.0879476,-0.0558342,0.0191906,0.0156958,-0.00547868,-0.00114745
0.0674058,0.268484,0.271269,-0.0623001,-0.0475797,0.0306914,0.0189817,-0.0111891,-0.0248622
0.0668996,0.26763,0.272117,-0.0281359,-0.0252206,0.0568146,0.0259995,-0.0110968,-0.038764
0.0668399,0.267581,0.273574,-0.000168994,0.0260304,0.0904561,0.0188082,-0.0108383,-0.0408378
0.0673685,0.26818,0.275604,0.0327414,0.0439303,0.113516,0.00952112,-0.0116499,-0.0345603
0.0674921,0.269219,0.277866,0.049468,0.00983902,0.113543,-0.000619456,-0.0193145,-0.0148547
0.0672476,0.270413,0.279813,0.057197,-0.00148271,0.0886014,-0.00979286,-0.0284786,-0.00386488
0.0669847,0.271668,0.281095,0.0595555,0.000697423,0.0475602,-0.0231437,-0.0278343,-0.00248933
0.0669052,0.272827,0.28169,0.0610724,-0.00514355,0.0250075,-0.0249691,-0.0245666,-0.00250524
0.0663672,0.274265,0.28208,0.0804322,-0.0374103,0.0243181,-0.0147523,-0.0160712,-0.00725293
0.0654936,0.276268,0.282428,0.0964336,-0.0293037,0.0149865,-0.0161358,-0.00930688,-0.0123641
0.0649606,0.278383,0.28234,0.0855222,-0.00264456,-0.0224761,-0.0241925,-0.0058687,-0.0101773
0.0648232,0.280201,0.281449,0.0672446,0.00366798,-0.0622164,-0.0236925,-0.000779361,0.00249946
0.0648986,0.281467,0.27997,0.0525105,0.000935518,-0.0765532,-0.0158686,0.00960732,0.0123224
0.0650606,0.282258,0.278462,0.0326053,0.00733189,-0.0713642,-0.0110199,0.0239019,0.0205612
0.0651058,0.282721,0.277116,0.0262588,0.00160639,-0.0727588,-0.00923901,0.0231562,0.0208722
0.0648842,0.28302,0.275715,0.00687832,-0.00723258,-0.0808655,-0.00288726,0.0229551,0.0281269
0.0646461,0.2824,0.274157,-0.050485,-0.0234665,-0.082312,-0.00132747,0.0258534,0.0369662
0.0646066,0.280808,0.272697,-0.0727236,-0.0106019,-0.068182,0.00632646,0.0215928,0.0200456
0.0647023,0.279551,0.271635,-0.0282604,-0.0011875,-0.0429572,0.0152301,0.0207056,-0.00701833
0.0649149,0.279161,0.271236,-0.00130707,0.0158646,0.00618368,0.0218705,0.0223143,-0.00887734
0.065107,0.278955,0.271752,-0.0156139,0.0127223,0.0387086,0.0173796,0.0209719,0.00404567
0.0651005,0.278406,0.272602,-0.0264238,0.00611999,0.0344468,0.0058708,0.00683361,0.0119024
0.0651322,0.277628,0.27313,-0.0274269,0.00268214,0.0150024,-0.000841625,-0.00537437,0.01013
0.0654678,0.276684,0.273261,-0.0393933,-0.00353835,0.00360643,-0.00490372,-0.00623643,0.0121519
0.0655514,0.27534,0.273259,-0.0557927,-0.0207911,-0.000698229,-0.00493164,-0.00588104,0.0161893
0.0651212,0.274153,0.273127,-0.0530349,-0.0439954,-0.0149665,-0.00705722,-0.0114794,0.00404084
0.064384,0.273391,0.272718,-0.0378679,-0.0299582,-0.0264932,-0.00660641,-0.0127166,-0.00930321
0.0643794,0.273097,0.272159,-0.0169243,0.0184858,-0.0300358,-0.00498965,-0.0102074,-0.0213545
0.0651585,0.272953,0.271554,-0.0227788,0.0428224,-0.0333754,-0.00880783,-0.00318947,-0.0106375
0.0659527,0.272745,0.270945,-0.0224091,0.0288467,-0.0389887,-0.00623298,-0.00689909,0.00154489
0.0665967,0.272548,0.269919,-0.0163237,0.0265309,-0.0709784,-0.0126385,-0.0126284,0.00306755
0.0665967,0.272548,0.269919,-0.0163237,0.0265309,-0.0709784,-0.0126385,-0.0126284,0.00306755
0.06741,0.272192,0.268259,-0.0245927,0.027199,-0.0955416,-0.0116716,-0.012483,0.00712371
0.0683099,0.27142,0.266264,-0.0434461,0.0309608,-0.102101,-0.00473806,-0.00739741,0.00862962
0.0692003,0.270547,0.264314,-0.0426761,0.0261167,-0.0968628,0.00186677,-0.00413376,0.00349373
0.0700041,0.269983,0.262508,-0.0280009,0.0299986,-0.0907347,0.00639363,-0.00309029,-0.00832707
0.0708717,0.26978,0.260853,-0.0192923,0.0451241,-0.0840675,0.00903466,-0.00408009,-0.0124059
0.0722457,0.269456,0.259111,-0.0258959,0.0649332,-0.0916573,0.00699045,-0.00462076,-0.011377
0.0740608,0.268824,0.257371,-0.0378223,0.0690026,-0.0819692,0.0112755,-0.00230071,-0.00530994
0.0757675,0.268156,0.256051,-0.0243401,0.0697598,-0.0504377,0.0188529,-0.0011445,-0.00632447
0.0774601,0.267901,0.255375,-0.00785381,0.0732234,-0.0202396,0.0156639,-0.00117645,-0.00699246
0.07877,0.267747,0.255208,-0.0198204,0.052433,0.00110039,0.0101137,-0.00285068,0.00645351
0.0798143,0.267372,0.255291,-0.0205889,0.0420594,0.00204269,0.00147243,-0.0139851,-0.000409126
0.0808435,0.267061,0.255175,-0.00522211,0.0419555,-0.00187471,-0.00193452,-0.0171085,-0.0148263
0.0822108,0.267364,0.25541,0.0370866,0.0789548,0.0398748,0.00917828,-0.013276,-0.031493
0.0837505,0.268565,0.256824,0.062498,0.0870942,0.109545,0.00719096,0.000867963,-0.0267146
0.0844698,0.270326,0.259467,0.0805022,0.0548346,0.15038,-0.00531661,-0.004439,-0.0148954
0.084462,0.272467,0.26224,0.102577,0.0275039,0.122978,-0.02998,-0.01649,-0.0160162
0.0845031,0.274596,0.264185,0.0897125,0.0301591,0.0877634,-0.0448177,-0.0172786,-0.0116334
0.0848476,0.27607,0.265764,0.0621599,0.0316952,0.0863831,-0.0438171,-0.00453812,-0.00546896
0.0845257,0.277394,0.267596,0.0725166,-0.0018909,0.0986929,-0.0470486,0.00952223,-0.00275141
0.0832987,0.279149,0.269479,0.0735516,-0.0434632,0.0834547,-0.0496014,0.0103709,0.000910521
0.081071,0.280279,0.270786,0.0119523,-0.088802,0.0359235,-0.0655999,0.0173008,0.0100528
0.0786129,0.280147,0.27133,-0.0191366,-0.0742713,0.00108966,-0.0608067,0.0223464,-0.0118018
0.0769238,0.279883,0.271424,0.0145986,-0.0178997,-0.00116588,-0.0498403,0.0369855,-0.0396487
0.0762948,0.280379,0.27189,0.0430751,0.0448488,0.0339485,-0.0378745,0.0538193,-0.0347494
0.076114,0.280981,0.273179,0.0241548,0.0714335,0.0632549,-0.0278925,0.0601508,0.00444984
0.0764307,0.280665,0.274797,-0.036373,0.0907661,0.0585533,-0.0347486,0.05736,0.0490239
0.0773135,0.279113,0.276034,-0.0941076,0.0654692,0.0392327,-0.0411054,0.0479485,0.0797971
0.0773657,0.276623,0.276958,-0.134418,-0.0215273,0.0353696,-0.031351,0.042762,0.0981438
0.075818,0.273475,0.278264,-0.1782,-0.08887,0.0724275,-0.0115139,0.0448749,0.100712
0.0729712,0.269267,0.280673,-0.25402,-0.119576,0.125949,0.00201675,0.0486181,0.0961816
0.0696424,0.263754,0.284122,-0.314487,-0.106117,0.161234,0.00772573,0.0370895,0.0742533
0.0668607,0.257544,0.288149,-0.326306,-0.0650517,0.182613,0.0156996,0.0177065,0.0495289
0.0646575,0.251229,0.292682,-0.338759,-0.0439001,0.221602,0.0298078,0.0114735,0.0509189
0.0627818,0.244295,0.298481,-0.39033,-0.00534491,0.305149,0.0493976,0.0169275,0.0809605
0.0604619,0.23607,0.305983,-0.4799,-0.0974121,0.35983,0.0525027,0.016202,0.108351
0.0541893,0.225925,0.313789,-0.568456,-0.377376,0.33378,0.023828,-0.00488934,0.0646943
0.0428156,0.214971,0.320484,-0.520956,-0.539221,0.261405,0.040748,-0.047194,-0.117938
0.0335289,0.20642,0.325545,-0.33705,-0.2675,0.232181,0.0837509,-0.0654433,-0.401143
0.0299365,0.201726,0.331933,-0.128775,0.0539713,0.423242,0.159365,-0.0201134,-0.516811
0.0329602,0.202877,0.343887,0.228409,0.521684,0.747309,0.223184,-0.00539002,-0.552322
0.0448604,0.211925,0.360971,0.587454,0.972991,0.937216,0.176968,-0.0224765,-0.451121
0.0622278,0.226189,0.379953,0.698214,1.14147,0.97768,0.105565,-0.0400478,-0.175521
0.0802604,0.240814,0.39869,0.610396,1.07705,0.935966,0.0328723,-0.0404373,0.0947574
0.0957112,0.252721,0.416117,0.422478,0.896882,0.858787,-0.0185245,-0.0332401,0.297743
0.107227,0.261312,0.4326,0.279773,0.682956,0.824722,-0.0387678,-0.0277387,0.423333
0.114187,0.267926,0.448986,0.193337,0.446093,0.81943,-0.0525928,-0.00843084,0.503712
0.116655,0.271763,0.465457,-0.0153179,0.228903,0.805795,-0.0769936,0.02226,0.587718
0.115208,0.269799,0.481775,-0.378957,0.0315303,0.731496,-0.0980235,0.0307745,0.643989
0.1078,0.259205,0.496543,-0.869132,-0.458864,0.547903,-0.126717,0.0388896,0.616836
0.086521,0.237551,0.507537,-1.3563,-1.45128,0.322412,-0.129915,0.0147111,0.413167
0.0459334,0.210051,0.51509,-1.31804,-2.33353,0.275291,0.0127703,-0.0162216,-0.0696421
0.00197103,0.190312,0.523657,-0.633165,-1.6696,0.555364,0.16408,0.0296651,-0.75147
-0.0207917,0.184231,0.538742,0.00504725,-0.284922,0.959702,0.218909,0.104013,-1.0117
-0.0163617,0.187607,0.562384,0.322868,1.09333,1.33904,0.223639,0.0947722,-0.835427
-0.0163617,0.187607,0.562384,0.322868,1.09333,1.33904,0.223639,0.0947722,-0.835427
0.00688762,0.194626,0.591751,0.378557,1.68624,1.52521,0.132479,0.106471,-0.440824
0.0352703,0.202747,0.623332,0.362585,1.68688,1.57536,0.0575308,0.0538088,-0.0887191
0.0589698,0.210799,0.654527,0.296702,1.30409,1.52008,-0.0155626,0.0361761,0.185271
0.0738045,0.217945,0.684557,0.214259,0.822004,1.44973,-0.0455954,0.0279001,0.3693
0.078452,0.223056,0.713771,0.0542501,0.260406,1.45027,-0.0517108,0.0265544,0.494352
0.0725526,0.223426,0.743201,-0.258325,-0.156223,1.42497,-0.0559624,0.0371088,0.571227
0.0606337,0.215872,0.771876,-0.69199,-0.441968,1.30641,-0.0896314,0.0149655,0.558476
0.0429501,0.199269,0.796883,-1.08231,-0.820192,1.04513,-0.113254,-0.0507041,0.384764
0.0173947,0.176676,0.816085,-1.16782,-1.42196,0.804313,-0.0351284,-0.109978,0.0069133
-0.0165758,0.157357,0.832169,-0.678938,-1.54733,0.825818,0.10066,-0.123137,-0.49798
-0.0423887,0.151177,0.850528,0.1163,-0.645745,1.02,0.191429,-0.113741,-0.879283
-0.0447847,0.158675,0.873234,0.653025,0.753898,1.19329,0.198916,-0.0830022,-0.896106
-0.0250967,0.171404,0.898939,0.658173,1.50571,1.2811,0.148933,-0.0480619,-0.520717
0.00296602,0.182859,0.924841,0.520964,1.6758,1.24214,0.096998,-0.0867896,-0.149458
0.0290952,0.192832,0.948737,0.460326,1.34013,1.1329,0.0265934,-0.0987664,0.0990616
0.0463463,0.203061,0.97044,0.485625,0.801032,1.03821,0.0037097,-0.101844,0.261376
0.0525641,0.213598,0.989947,0.450557,0.227132,0.924042,-0.0102082,-0.081693,0.385074
0.0486453,0.221522,1.00727,0.229718,-0.227473,0.822845,-0.0189344,-0.0500301,0.468581
0.0370898,0.223101,1.02296,-0.151845,-0.578468,0.71473,-0.0323781,-0.0235728,0.483167
0.0193067,0.21744,1.03622,-0.424819,-0.921456,0.564863,-0.0280977,-0.0374431,0.35829
-0.00389851,0.208394,1.04617,-0.45814,-1.19155,0.410195,0.00331065,-0.0510299,0.126703
-0.0283521,0.201368,1.05345,-0.205859,-1.04639,0.335363,0.0544479,-0.0663628,-0.150178
-0.0450393,0.200557,1.06063,0.127732,-0.461784,0.40129,0.0922173,-0.014286,-0.357586
-0.0491582,0.204843,1.0704,0.305141,0.230001,0.538256,0.115296,0.0293416,-0.385905
-0.0417539,0.210403,1.08243,0.287558,0.71131,0.597336,0.108998,0.0263592,-0.273806
-0.0283937,0.215161,1.09431,0.237552,0.825786,0.536448,0.0586496,0.000400811,-0.12477
-0.0147186,0.219523,1.10438,0.224698,0.729927,0.440306,0.0217654,-0.0145361,-0.00876909
-0.00440569,0.223834,1.11265,0.214369,0.475968,0.366593,0.00632524,-0.00814858,0.0807571
0.00168908,0.227656,1.11956,0.154373,0.298531,0.313666,0.00810491,-0.00703242,0.129943
0.00425523,0.229223,1.12553,-0.011462,0.105172,0.268175,0.00173076,0.00541914,0.170688
0.003933,0.227161,1.13056,-0.183098,-0.0153268,0.22525,-0.00187878,0.00173174,0.147657
0.0025926,0.223075,1.13459,-0.20412,-0.0089195,0.166342,-0.00689233,-0.0142744,0.0577075
0.00270846,0.21982,1.13762,-0.117385,0.0885059,0.139907,-0.00270427,-0.0121555,-0.0317878
0.00535805,0.218475,1.14076,-0.0316385,0.23648,0.174061,0.0104402,-0.00519812,-0.0547907
0.00996624,0.218158,1.14476,-0.00743927,0.310178,0.2175,0.00931314,0.00126758,-0.0295643
0.0155804,0.218217,1.14958,0.00707924,0.337475,0.247011,0.00981411,-0.0190756,0.000885665
0.0207203,0.21859,1.15445,0.0175609,0.264366,0.227315,-0.00161002,-0.0428967,0.0284696
0.0236048,0.218879,1.15889,-0.0037892,0.111873,0.207554,-0.00672784,-0.0632754,0.0558104
0.0236515,0.218891,1.16299,-0.00306421,-0.00373014,0.198119,-0.0047744,-0.080277,0.0441489
0.0223514,0.219178,1.1667,0.017138,-0.0425805,0.165215,-0.0278726,-0.0897163,0.00692999
0.0208417,0.219517,1.16943,-0.00356293,-0.0543175,0.101041,-0.0417939,-0.103012,-0.0135586
0.0190559,0.218959,1.17068,-0.0534178,-0.10151,0.0216385,-0.0480339,-0.116496,-0.0189109
0.0166473,0.218526,1.17021,-0.0405262,-0.154784,-0.0689751,-0.0561218,-0.126547,-0.0579748
0.013738,0.218741,1.16801,0.0167719,-0.167211,-0.141355,-0.0575081,-0.120616,-0.101283
0.0114916,0.219668,1.16465,0.0482518,-0.115332,-0.18727,-0.0482635,-0.10616,-0.116914
0.0107849,0.22103,1.16046,0.0745044,-0.0320097,-0.228885,-0.0491728,-0.0876805,-0.113648
0.0122094,0.223044,1.15525,0.124195,0.0583298,-0.281723,-0.0483141,-0.080848,-0.100177
0.0151981,0.226038,1.14892,0.177589,0.0947046,-0.331715,-0.0513252,-0.0661503,-0.0642926
0.0185405,0.23013,1.14181,0.234281,0.0784612,-0.353768,-0.0412288,-0.0476378,-0.015651
0.0212498,0.23489,1.13452,0.252441,0.0222259,-0.351166,-0.0309644,-0.0266478,0.0327451
0.0229049,0.239924,1.12728,0.267596,-0.0325177,-0.345199,-0.0219569,-0.0144312,0.0559859
0.0227368,0.245028,1.12004,0.25503,-0.169045,-0.349143,-0.0230933,0.000838429,0.0711371
0.0199149,0.249805,1.11273,0.24547,-0.288094,-0.35466,-0.024163,0.0129619,0.0532717
0.0160364,0.254709,1.10503,0.25772,-0.269475,-0.390181,-0.0317384,0.026714,0.00464523
0.0160364,0.254709,1.10503,0.25772,-0.269475,-0.390181,-0.0317384,0.026714,0.00464523
0.0144534,0.259653,1.09641,0.243611,-0.0869358,-0.441193,-0.0406713,0.0394451,-0.0403205
0.0174656,0.263865,1.08675,0.189223,0.12578,-0.488957,-0.0524742,0.0510666,-0.0505357
0.024009,0.266882,1.07607,0.139434,0.23347,-0.533571,-0.0545746,0.0635296,-0.0242207
0.0319932,0.269106,1.06476,0.118238,0.254824,-0.549728,-0.0517257,0.0735172,-0.00721788
0.0401313,0.271138,1.05336,0.12393,0.251629,-0.535556,-0.0600171,0.0973569,0.00311154
0.0479754,0.273026,1.04267,0.101087,0.23924,-0.479647,-0.0485762,0.119012,0.0344375
0.0556352,0.273729,1.03336,0.0111881,0.255907,-0.403168,-0.0505455,0.132156,0.0739965
0.0623813,0.272503,1.02646,-0.0940072,0.243525,-0.252972,-0.0412874,0.15104,0.111358
0.0674261,0.269619,1.02361,-0.166068,0.187792,-0.041067,-0.0540919,0.164299,0.127209
0.0705682,0.266273,1.02508,-0.177786,0.149175,0.154092,-0.0753032,0.150894,0.132798
0.0712352,0.262806,1.0303,-0.213975,0.042965,0.319529,-0.0909632,0.132441,0.165471
0.0688271,0.258442,1.03852,-0.284359,-0.082258,0.434967,-0.113089,0.106558,0.198906
0.0635512,0.252541,1.04856,-0.375829,-0.209842,0.491199,-0.129716,0.0790281,0.221514
0.0554183,0.244646,1.05942,-0.490002,-0.353136,0.511425,-0.12326,0.0430858,0.228621
0.0438835,0.233896,1.07064,-0.637348,-0.531852,0.520858,-0.113018,0.0125925,0.218828
0.0299748,0.220509,1.08155,-0.726985,-0.593777,0.484546,-0.114251,-0.0297327,0.149207
0.0167257,0.206303,1.09092,-0.709788,-0.519564,0.392931,-0.108228,-0.0796574,0.0424855
0.0063257,0.192492,1.09805,-0.691692,-0.363588,0.291154,-0.0894913,-0.114344,-0.0264083
0.000282966,0.178721,1.10315,-0.691318,-0.157921,0.208339,-0.0681495,-0.145181,-0.0607585
-0.00149205,0.165285,1.10625,-0.643078,0.0281008,0.0977262,-0.0587699,-0.169817,-0.0903965
0.000627271,0.153505,1.10719,-0.535719,0.187672,0.00680936,-0.035181,-0.187109,-0.126505
0.00551285,0.144078,1.10733,-0.408859,0.29035,0.0129015,-0.0107352,-0.194082,-0.133805
0.012178,0.137252,1.10771,-0.281055,0.390645,0.0163095,-0.00582225,-0.199711,-0.133211
0.0208764,0.13312,1.10813,-0.139741,0.476781,0.0198047,-0.0224449,-0.208597,-0.124481
0.0304339,0.132034,1.10861,0.013032,0.459584,0.0263072,-0.0334144,-0.216158,-0.099144
0.0388922,0.133735,1.10922,0.143479,0.386723,0.0494597,-0.0436621,-0.211008,-0.0659684
0.0458055,0.137713,1.11038,0.240946,0.331697,0.0850692,-0.0478279,-0.207631,-0.0441825
0.0523886,0.143553,1.11197,0.327654,0.357131,0.0996975,-0.0555034,-0.20658,-0.0419478
0.0599124,0.150947,1.11388,0.395582,0.425664,0.132294,-0.0666114,-0.1951,-0.0410683
0.0684508,0.159501,1.11655,0.43485,0.451998,0.194107,-0.0660643,-0.184787,-0.0260834
0.0754513,0.168591,1.12079,0.429825,0.278164,0.291049,-0.0507972,-0.175544,0.00703472
0.076687,0.177242,1.12664,0.388543,-0.0559211,0.343651,-0.0480984,-0.164551,0.0141709
0.0715391,0.18504,1.13293,0.334316,-0.344716,0.318601,-0.0552737,-0.167379,-0.0623861
0.061759,0.191207,1.13789,0.246765,-0.511553,0.19979,-0.0750144,-0.14272,-0.183289
0.0511349,0.195942,1.14061,0.238763,-0.455832,0.103798,-0.066141,-0.0928461,-0.314225
0.0443657,0.202022,1.14213,0.367108,-0.178306,0.0840782,-0.0103986,-0.0525692,-0.424698
0.044471,0.211031,1.14438,0.529337,0.233933,0.195286,0.0250571,-0.00214112,-0.431095
0.050882,0.22341,1.14941,0.678901,0.493072,0.344815,0.024226,0.0437148,-0.357276
0.0598121,0.238213,1.15604,0.757573,0.518778,0.360373,-0.0144025,0.0376477,-0.218743
0.0680292,0.254126,1.16144,0.794772,0.432231,0.259018,-0.0450568,0.0252185,-0.0923235
0.0750158,0.270507,1.16463,0.825864,0.365905,0.180622,-0.0592501,0.04818,-0.006024
0.0816857,0.287682,1.16674,0.871919,0.377722,0.161783,-0.0546362,0.0947808,0.0558959
0.088994,0.305697,1.16867,0.911083,0.423986,0.18026,-0.0526973,0.137765,0.127552
0.0967394,0.324145,1.17101,0.904326,0.414099,0.217012,-0.0495969,0.171831,0.20672
0.103355,0.341923,1.17418,0.827755,0.311311,0.265955,-0.0469518,0.193012,0.277569
0.105277,0.357684,1.17877,0.700785,0.0186881,0.332415,-0.0271885,0.199898,0.327596
0.0992463,0.371048,1.18497,0.570812,-0.400462,0.373135,0.00539194,0.183363,0.334268
0.0854092,0.381582,1.19145,0.435246,-0.714804,0.296524,0.00888854,0.153166,0.278316
0.0698162,0.389787,1.19391,0.357594,-0.684211,-0.0178557,-0.00596361,0.10782,0.118766
0.060378,0.395246,1.18998,0.196552,-0.442475,-0.28747,-0.000986353,0.0989176,-0.0206591
0.0557456,0.397279,1.18263,0.0524303,-0.297692,-0.331386,0.0567464,0.161402,-0.11615
0.0520928,0.397161,1.1775,-0.024286,-0.3025,-0.116131,0.136112,0.240851,-0.159349
0.0463572,0.397166,1.17761,0.049477,-0.223594,0.104018,0.201819,0.246456,-0.187899
0.0444133,0.399784,1.181,0.195266,0.185518,0.20422,0.168377,0.215132,-0.204061
0.0444133,0.399784,1.181,0.195266,0.185518,0.20422,0.168377,0.215132,-0.204061
0.05022,0.405318,1.18517,0.352591,0.57542,0.194263,0.112071,0.189416,-0.133711
0.065844,0.413932,1.18769,0.490466,1.08479,0.0694195,0.038973,0.166876,-0.0528681
0.0924673,0.424427,1.18644,0.534309,1.50698,-0.111342,-0.0410217,0.156413,0.064715
0.124941,0.432506,1.18167,0.268532,1.44455,-0.186599,-0.0309732,0.153568,0.286583
0.145675,0.427156,1.17976,-0.647747,0.201842,-0.0820253,0.0779356,0.136757,0.780314
0.141358,0.411761,1.18009,-0.810507,-0.435118,-0.133625,0.0997543,0.0774093,0.459965
0.129581,0.396344,1.17855,-0.693475,-0.782024,-0.213262,0.0340121,0.0147711,0.260356
0.113704,0.382114,1.17474,-0.720721,-0.917521,-0.316894,0.0319609,-0.00159782,0.193264
0.0977813,0.36517,1.16874,-0.922721,-0.896382,-0.409286,0.0429822,-0.0170371,0.158086
0.0833494,0.343955,1.16191,-1.13402,-0.749937,-0.407959,0.090706,-0.0217197,0.09145
0.0725788,0.319239,1.1561,-1.27872,-0.539005,-0.326241,0.0762904,-0.0402516,0.00477523
0.0640792,0.293259,1.15203,-1.26819,-0.44991,-0.245953,0.0523765,-0.065129,-0.0654402
0.0569178,0.269473,1.14856,-1.06593,-0.351825,-0.252503,0.0285857,-0.11372,-0.141913
0.0531285,0.25063,1.14344,-0.805165,-0.150502,-0.349031,0.0111778,-0.156908,-0.191424
0.054148,0.236006,1.13636,-0.650746,0.0812488,-0.399832,0.0239168,-0.172307,-0.163621
0.0586007,0.2228,1.12934,-0.646938,0.170933,-0.344895,0.0477847,-0.159547,-0.0702606
0.0624276,0.20962,1.12427,-0.629889,0.0917309,-0.226055,0.0623459,-0.15652,-0.000540912
0.0631142,0.197708,1.12179,-0.53751,-0.0832201,-0.0971756,0.0754092,-0.168811,0.0210017
0.0598476,0.188216,1.12131,-0.410465,-0.252268,-0.0175621,0.0657409,-0.188412,0.0239617
0.0533541,0.181211,1.12168,-0.299423,-0.380797,0.0040947,0.0710338,-0.211518,0.0145446
0.0453606,0.175896,1.12229,-0.252934,-0.399055,0.0389948,0.0719471,-0.21449,-0.0113919
0.0372121,0.171083,1.12416,-0.235259,-0.393274,0.131158,0.07244,-0.205803,-0.0402751
0.0286011,0.167107,1.12789,-0.166585,-0.418461,0.220194,0.0663904,-0.204458,-0.0724082
0.0198158,0.165394,1.13283,-0.0206821,-0.3786,0.244719,0.0697504,-0.224961,-0.114182
0.0115551,0.16591,1.13736,0.0234665,-0.41614,0.197216,0.0698722,-0.245113,-0.115924
0.00189133,0.165977,1.1405,-0.0480929,-0.506779,0.110642,0.0665856,-0.236106,-0.0975761
-0.00877846,0.16396,1.14183,-0.159659,-0.541222,0.0294662,0.0716184,-0.214185,-0.127768
-0.019534,0.159697,1.14192,-0.280661,-0.535112,-0.0124333,0.101193,-0.182488,-0.183689
-0.0290813,0.152905,1.14149,-0.393281,-0.412105,-0.00507298,0.122808,-0.152072,-0.245926
-0.035702,0.144488,1.14152,-0.442168,-0.252704,0.0348557,0.149962,-0.135845,-0.299549
-0.0393696,0.13619,1.14201,-0.368588,-0.10509,0.0359339,0.137567,-0.118503,-0.331454
-0.0394231,0.130664,1.14269,-0.172071,0.111926,0.0627559,0.0886832,-0.0914328,-0.360857
-0.0359069,0.129626,1.14466,0.0748377,0.253774,0.148299,0.0831139,-0.0477237,-0.33311
-0.0299671,0.133365,1.14907,0.309684,0.406028,0.286656,0.080249,-0.00187206,-0.268297
-0.0207894,0.142071,1.15646,0.596031,0.644634,0.419953,0.060526,0.035713,-0.207066
-0.00617978,0.157065,1.16617,0.903931,0.94451,0.512273,0.0140688,0.0660574,-0.120132
0.0119717,0.176851,1.17701,1.05815,1.02622,0.563523,-0.0596363,0.115659,0.0384549
0.0292955,0.198615,1.18827,1.07845,0.876272,0.584324,-0.112578,0.147019,0.175355
0.041241,0.219569,1.1989,0.96255,0.519971,0.512651,-0.182634,0.173467,0.257022
0.0454852,0.237397,1.20684,0.797956,0.0935985,0.332155,-0.252584,0.186086,0.274507
0.0433393,0.252405,1.21038,0.691885,-0.196335,0.0708992,-0.284812,0.196114,0.214308
0.0384723,0.26473,1.20827,0.53291,-0.325825,-0.216638,-0.2973,0.231436,0.151842
0.0338782,0.272688,1.20118,0.276874,-0.308516,-0.431032,-0.280392,0.271442,0.105366
0.031208,0.275332,1.19044,0.0331607,-0.239262,-0.590802,-0.250593,0.298722,0.0533429
0.0320303,0.27424,1.17725,-0.078883,-0.0198676,-0.671581,-0.213125,0.302295,-0.00499511
0.0384298,0.27199,1.16299,-0.0935227,0.268754,-0.707311,-0.185918,0.303744,-0.0175145
0.0495571,0.269289,1.14835,-0.126034,0.433746,-0.719259,-0.160041,0.29075,0.0485465
0.0626739,0.265156,1.13355,-0.208528,0.466517,-0.733669,-0.133457,0.24671,0.142219
0.0750135,0.259034,1.11879,-0.304663,0.371181,-0.73023,-0.1206,0.206495,0.213279
0.0846707,0.251142,1.10463,-0.378045,0.234822,-0.700161,-0.109825,0.172064,0.243571
0.090414,0.241697,1.09166,-0.465086,0.025104,-0.639981,-0.0910385,0.141145,0.253421
0.0916899,0.230329,1.08029,-0.5695,-0.170661,-0.572926,-0.0796524,0.100246,0.24358
0.0888665,0.216987,1.07014,-0.66416,-0.320254,-0.543334,-0.071547,0.0534078,0.2037
0.083911,0.20245,1.06048,-0.697902,-0.357327,-0.531203,-0.0647058,0.00798477,0.114344
0.083911,0.20245,1.06048,-0.697902,-0.357327,-0.531203,-0.0647058,0.00798477,0.114344
0.0792972,0.187583,1.05106,-0.708649,-0.28798,-0.512831,-0.0569505,-0.0257646,0.0307774
0.0761085,0.173086,1.04234,-0.664777,-0.191924,-0.454147,-0.0297329,-0.0591157,-0.042818
0.0742657,0.160325,1.03509,-0.549694,-0.108639,-0.356461,-0.00220095,-0.0883468,-0.0966918
0.0739137,0.150219,1.02961,-0.415539,-0.0133322,-0.263858,-0.0110488,-0.110141,-0.129165
0.0755125,0.142983,1.02568,-0.279524,0.102625,-0.181616,-0.0129643,-0.142797,-0.139078
0.0788239,0.138523,1.02287,-0.150997,0.178955,-0.13436,-0.0108493,-0.165173,-0.119359
0.0828976,0.136453,1.02069,-0.0457275,0.193372,-0.099144,-0.0173968,-0.181658,-0.0878927
0.0868795,0.136383,1.01903,0.0456048,0.188522,-0.0684992,-0.0226863,-0.191661,-0.0686558
0.091044,0.138049,1.01762,0.123539,0.214903,-0.0625863,-0.0416982,-0.191673,-0.056371
0.0958466,0.141419,1.0161,0.220747,0.25835,-0.0596179,-0.0379513,-0.195478,-0.0437475
0.10204,0.147098,1.01447,0.348034,0.339769,-0.0436708,-0.0402308,-0.187706,-0.0296319
0.109568,0.155095,1.01311,0.44088,0.39052,-0.00674002,-0.0462227,-0.168844,0.0205244
0.117607,0.16423,1.01212,0.450825,0.391058,0.00116251,-0.0634654,-0.157003,0.0852748
0.124695,0.172486,1.0109,0.363151,0.284837,-0.0251342,-0.0774516,-0.154204,0.130771
0.129507,0.178816,1.00914,0.278707,0.163345,-0.074912,-0.0778457,-0.151664,0.109481
0.131088,0.182881,1.00631,0.141161,-0.0730539,-0.14745,-0.0718006,-0.149954,0.0621064
0.125791,0.18347,1.00243,-0.0419928,-0.549859,-0.235589,-0.0586721,-0.136008,-0.0330819
0.111372,0.180727,0.997404,-0.153533,-0.935798,-0.279868,-0.0362884,-0.11858,-0.215146
0.0926322,0.177818,0.991971,-0.0691552,-0.977599,-0.29527,-0.0161511,-0.0696538,-0.429762
0.0773944,0.177327,0.985572,0.0619511,-0.627057,-0.336592,-0.036264,-0.0196153,-0.589779
0.0716018,0.179482,0.978652,0.232172,-0.0386353,-0.315373,-0.0292689,0.0390392,-0.639251
0.0788112,0.187206,0.972714,0.610257,0.631261,-0.198753,-0.00871997,0.0761141,-0.626555
0.0969031,0.203247,0.968626,0.995292,1.06184,-0.0634293,0.0111665,0.134345,-0.440157
0.119563,0.224915,0.966478,1.14857,1.11864,0.0947687,-0.0122401,0.185395,-0.158947
0.13981,0.247898,0.966672,1.11675,0.877266,0.214732,-0.0489439,0.220174,0.0734355
0.152507,0.269696,0.968216,1.01753,0.408897,0.230729,-0.0955368,0.226262,0.205152
0.155291,0.28883,0.968616,0.860854,-0.115227,0.0693484,-0.162848,0.231898,0.24584
0.149968,0.303141,0.964487,0.601445,-0.515235,-0.265474,-0.22609,0.229901,0.235149
0.140762,0.31071,0.953353,0.318954,-0.706087,-0.67617,-0.247547,0.234629,0.162655
0.132153,0.31343,0.934943,0.218217,-0.687009,-1.00607,-0.204115,0.264241,0.0402617
0.127911,0.315202,0.911573,0.264396,-0.410951,-1.15415,-0.140993,0.317592,-0.0626637
0.131545,0.318411,0.886648,0.349589,-0.0102542,-1.14894,-0.104232,0.376412,-0.0984796
0.142406,0.322372,0.862307,0.343056,0.293526,-1.08981,-0.0798047,0.40222,-0.0286438
0.156199,0.325086,0.839059,0.249668,0.307202,-1.06611,-0.0843213,0.381952,0.0839442
0.168027,0.325658,0.815894,0.168311,0.123106,-1.10509,-0.108139,0.33249,0.152359
0.175932,0.324416,0.791547,0.105505,-0.110201,-1.20532,-0.131151,0.286926,0.163629
0.180095,0.321174,0.765131,0.021138,-0.291484,-1.32957,-0.133419,0.250556,0.158678
0.181905,0.315533,0.736746,-0.0843338,-0.403658,-1.42357,-0.115759,0.22347,0.137217
0.181963,0.307739,0.707733,-0.173595,-0.464393,-1.42911,-0.0788621,0.211856,0.112091
0.180812,0.298527,0.679597,-0.248221,-0.481277,-1.39189,-0.059051,0.192215,0.0827373
0.179075,0.287949,0.652147,-0.324763,-0.494272,-1.40051,-0.0540559,0.150121,0.0648794
0.176602,0.275733,0.624181,-0.397796,-0.544917,-1.47206,-0.0641445,0.0966695,0.0470676
0.172566,0.262187,0.594937,-0.442747,-0.641873,-1.54345,-0.0530195,0.0538408,0.0222506
0.166866,0.248071,0.564678,-0.44877,-0.684875,-1.5807,-0.0349402,0.0252132,-0.0112705
0.160902,0.23417,0.534135,-0.432818,-0.630499,-1.57731,-0.0148295,0.00544317,-0.0448009
0.155857,0.221255,0.503851,-0.375217,-0.572705,-1.55254,-0.00546193,-0.0208256,-0.0652251
0.151068,0.209814,0.473614,-0.304497,-0.561324,-1.55708,-0.00663011,-0.0577899,-0.0590096
0.145859,0.199883,0.442778,-0.233517,-0.593222,-1.58957,-0.0158459,-0.0926895,-0.0473157
0.139485,0.191225,0.410913,-0.183559,-0.663564,-1.64104,-0.0202881,-0.113543,-0.0331342
0.132004,0.183552,0.377922,-0.141929,-0.693911,-1.69135,-0.0230252,-0.124453,-0.0354381
0.124325,0.176794,0.343518,-0.0995613,-0.689199,-1.76667,-0.0226765,-0.132414,-0.0461958
0.116555,0.170787,0.307608,-0.0763653,-0.715322,-1.82265,-0.0051024,-0.130061,-0.0535681
0.108155,0.165615,0.271,-0.0179919,-0.717551,-1.82202,0.0202722,-0.115415,-0.0732179
0.100555,0.162819,0.234787,0.118109,-0.617224,-1.76864,0.051623,-0.104012,-0.11698
0.100555,0.162819,0.234787,0.118109,-0.617224,-1.76864,0.051623,-0.104012,-0.11698
0.0946473,0.163057,0.199687,0.236378,-0.532822,-1.68385,0.0695435,-0.0862602,-0.107876
0.0897589,0.165475,0.166452,0.301919,-0.516329,-1.57161,0.0836136,-0.0815713,-0.0675266
0.0836374,0.168936,0.135139,0.296606,-0.626906,-1.49595,0.0811015,-0.0918147,-0.0285612
0.0751626,0.171343,0.104927,0.15933,-0.718738,-1.46997,0.0902533,-0.107372,-0.0152738
0.0648643,0.16988,0.0749138,-0.111782,-0.835958,-1.50146,0.0598325,-0.116199,-0.0461918
0.0518933,0.163531,0.0447836,-0.317317,-0.964461,-1.50136,0.031662,-0.13752,-0.151495
0.0370323,0.155829,0.0150273,-0.29092,-0.960829,-1.47703,0.0302735,-0.147795,-0.308799
0.0243214,0.15102,-0.0143891,-0.0825693,-0.721206,-1.44577,0.0173396,-0.10555,-0.42267
0.0178139,0.151154,-0.043024,0.149707,-0.350503,-1.37932,0.00970335,-0.00420603,-0.422005
0.018709,0.155541,-0.069682,0.322895,0.0268425,-1.24489,0.0488244,0.0830764,-0.302147
0.0260866,0.162812,-0.0930949,0.458229,0.331448,-1.05345,0.0653257,0.148162,-0.157802
0.0378335,0.172308,-0.112392,0.531869,0.476764,-0.820457,0.0659919,0.188943,-0.0169171
0.0490553,0.182301,-0.126693,0.535127,0.369351,-0.537301,0.0475106,0.196537,0.11457
0.0553309,0.193371,-0.135485,0.638955,0.0757294,-0.289512,-0.0173762,0.197936,0.155474
0.0545985,0.207415,-0.140959,0.781835,-0.263231,-0.198113,-0.131405,0.22151,0.156445
0.0466411,0.222462,-0.146696,0.715029,-0.662311,-0.323584,-0.23444,0.234792,0.187553
0.032662,0.233742,-0.157225,0.427996,-0.958391,-0.704017,-0.300506,0.198553,0.194669
0.0163454,0.237923,-0.177384,0.0367668,-1.13008,-1.26037,-0.342666,0.157285,0.145528
0.0016161,0.235488,-0.208233,-0.217202,-1.01938,-1.71528,-0.288299,0.16125,0.0390955
-0.00625472,0.230655,-0.245714,-0.255831,-0.613292,-1.90346,-0.185409,0.225319,-0.0757575
-0.00439007,0.226378,-0.284373,-0.191295,-0.0761364,-1.83932,-0.0762426,0.288658,-0.0950427
0.00623219,0.223127,-0.32017,-0.142122,0.305799,-1.65957,0.00725851,0.300016,-0.0104654
0.0209417,0.219799,-0.352196,-0.152577,0.420975,-1.47516,0.0494336,0.257783,0.127079
0.0348218,0.215882,-0.38062,-0.158985,0.326794,-1.32845,0.0500998,0.197806,0.22937
0.0454338,0.211443,-0.406577,-0.197612,0.168471,-1.24248,0.0413477,0.138628,0.281438
0.0516585,0.205194,-0.430593,-0.32364,-0.0186615,-1.14741,0.0428468,0.081351,0.320458
0.0537229,0.195561,-0.452719,-0.527318,-0.208288,-1.08526,0.0403746,0.0334281,0.325517
0.0517477,0.181975,-0.473705,-0.713626,-0.390134,-1.05754,0.0518363,-0.0220611,0.288095
0.0459239,0.165566,-0.494025,-0.8158,-0.530837,-1.02399,0.0693135,-0.073883,0.187724
0.0375072,0.148195,-0.512934,-0.832565,-0.588086,-0.905514,0.102164,-0.100623,0.0665296
0.0289234,0.131671,-0.528599,-0.74704,-0.477679,-0.699183,0.143084,-0.131313,-0.0453256
0.0227794,0.118636,-0.539774,-0.511405,-0.26113,-0.444722,0.167629,-0.172444,-0.158715
0.0207469,0.111041,-0.545933,-0.240592,-0.0233749,-0.192304,0.159268,-0.195019,-0.214136
0.0218824,0.108339,-0.547713,-0.0398441,0.11688,0.000856867,0.147086,-0.221798,-0.196622
0.0244281,0.108955,-0.546363,0.0894151,0.13706,0.123174,0.118282,-0.240076,-0.16124
0.0265155,0.112093,-0.543197,0.223212,0.116563,0.191763,0.0929166,-0.251469,-0.149875
0.0286958,0.118578,-0.539232,0.411874,0.175827,0.220527,0.0621926,-0.234972,-0.168716
0.0328455,0.128613,-0.534853,0.563562,0.30159,0.247252,0.0340668,-0.207404,-0.159505
0.0398269,0.140736,-0.530374,0.617988,0.462361,0.230936,0.00684192,-0.192812,-0.117285
0.0496,0.153213,-0.526913,0.608331,0.54233,0.168958,-0.0193969,-0.187321,-0.0628563
0.0589815,0.165142,-0.524566,0.574346,0.41301,0.137153,-0.0118807,-0.170462,-0.0131077
0.0651616,0.17664,-0.522597,0.55951,0.238979,0.122237,-0.00766004,-0.156003,-0.0133619
0.0677564,0.187422,-0.521057,0.50548,0.0645826,0.103468,-0.0172331,-0.14427,-0.0407475
0.0682749,0.197297,-0.520138,0.485687,0.0240287,0.0418011,-0.0340004,-0.138835,-0.119585
0.0699417,0.207541,-0.521248,0.557987,0.14676,-0.0806862,-0.0695752,-0.102158,-0.228426
0.0760132,0.219676,-0.524547,0.679659,0.406994,-0.133105,-0.0567353,-0.0372895,-0.282069
0.0872163,0.234016,-0.527509,0.761781,0.620067,-0.0121354,-0.00387524,0.0424172,-0.246195
0.0991724,0.248978,-0.526709,0.71224,0.564981,0.246534,0.00729931,0.127029,-0.144377
0.106808,0.26354,-0.51985,0.690798,0.357204,0.565724,-0.0216413,0.162127,-0.100499
0.107569,0.279237,-0.507174,0.736612,0.0456553,0.78368,-0.0768362,0.150516,-0.105509
0.101902,0.295102,-0.493066,0.68536,-0.167105,0.680425,-0.131233,0.0889793,-0.0929449
0.0946972,0.308552,-0.482782,0.56599,-0.252151,0.455383,-0.139666,0.0722649,-0.0869865
0.0860633,0.320018,-0.474261,0.520419,-0.35792,0.504583,-0.0712171,0.166817,-0.0854113
0.0860633,0.320018,-0.474261,0.520419,-0.35792,0.504583,-0.0712171,0.166817,-0.0854113
0.0737637,0.330785,-0.463041,0.441006,-0.53542,0.624674,-0.0784448,0.237902,-0.0898958
0.0574444,0.337961,-0.451788,0.195843,-0.705677,0.421004,-0.157574,0.184134,-0.072543
0.0428795,0.340172,-0.448301,0.0348806,-0.578371,-0.103446,-0.201375,0.0817875,-0.135745
0.037976,0.340795,-0.455158,0.0830242,-0.119266,-0.490864,-0.157014,0.0835652,-0.206399
0.0443991,0.343055,-0.466331,0.172982,0.361677,-0.50481,-0.0677535,0.188752,-0.168159
0.0575519,0.346612,-0.475066,0.230604,0.627835,-0.281827,-0.0157998,0.273062,-0.0328755
0.0716986,0.35221,-0.47901,0.380689,0.618661,-0.0644846,-0.0161685,0.27962,0.0737894
0.0828588,0.361622,-0.47998,0.551614,0.427182,0.0275534,-0.0720554,0.267305,0.148607
0.0881514,0.373062,-0.480398,0.568141,0.0717465,0.0177948,-0.121624,0.245283,0.243564
0.0863798,0.383226,-0.481575,0.44557,-0.272287,-0.044174,-0.156827,0.232893,0.294443
0.0794642,0.390376,-0.484051,0.289426,-0.490508,-0.135516,-0.186903,0.232434,0.278995
0.070503,0.394541,-0.488742,0.173153,-0.570992,-0.279901,-0.205978,0.224869,0.23547
0.0618046,0.396668,-0.497136,0.0986905,-0.628139,-0.495147,-0.198067,0.196101,0.201858
0.0541006,0.397131,-0.510686,0.00839571,-0.644333,-0.766421,-0.175202,0.162943,0.186389
0.048357,0.394728,-0.529871,-0.166018,-0.653511,-1.01194,-0.133381,0.155218,0.192682
0.0443937,0.388018,-0.553179,-0.412616,-0.63733,-1.17089,-0.0742679,0.161969,0.192022
0.0413931,0.375869,-0.57922,-0.708618,-0.637113,-1.30512,-0.0304816,0.166642,0.17721
0.0386982,0.357631,-0.608028,-0.992523,-0.677423,-1.46792,-0.0141765,0.153218,0.138893
0.0349307,0.335034,-0.63998,-1.14595,-0.784093,-1.63098,0.0113907,0.135488,0.0607205
0.0297414,0.310105,-0.674443,-1.22378,-0.80241,-1.70607,0.0618761,0.124006,-0.0110865
0.0262286,0.285434,-0.708496,-1.12606,-0.508258,-1.60149,0.132306,0.117954,-0.114597
0.0283761,0.26446,-0.738473,-0.893346,-0.0876734,-1.33108,0.195194,0.114477,-0.174422
0.0357752,0.247936,-0.761788,-0.714914,0.20851,-0.985516,0.245233,0.0838435,-0.105418
0.0449684,0.233118,-0.778709,-0.728124,0.275662,-0.748221,0.225199,0.0174047,0.0312629
0.052037,0.217398,-0.792161,-0.772618,0.109991,-0.666808,0.170448,-0.074609,0.110135
0.0537222,0.201453,-0.804884,-0.745968,-0.233575,-0.670408,0.142778,-0.156017,0.100312
0.0474358,0.187098,-0.817555,-0.606737,-0.617818,-0.637357,0.124644,-0.20483,0.0228401
0.0345677,0.17703,-0.829289,-0.352753,-0.854653,-0.568469,0.112372,-0.227732,-0.0996673
0.0187321,0.171469,-0.840454,-0.206939,-0.9195,-0.565339,0.095542,-0.243814,-0.185477
0.00350395,0.167392,-0.852783,-0.205434,-0.785625,-0.685214,0.0496608,-0.269744,-0.248374
-0.00741317,0.163124,-0.869121,-0.227463,-0.563132,-0.943877,0.00383565,-0.288496,-0.306927
-0.0130434,0.158715,-0.891056,-0.238632,-0.335342,-1.21462,-0.0211175,-0.269013,-0.338642
-0.0129552,0.154708,-0.917815,-0.188368,-0.0687418,-1.42091,-0.0256674,-0.212989,-0.36368
-0.00649709,0.152807,-0.947546,-0.0283272,0.262788,-1.50466,-0.0106228,-0.146096,-0.361847
0.00606136,0.153825,-0.977474,0.113097,0.521297,-1.44403,0.0366738,-0.070643,-0.270828
0.0221945,0.156482,-1.00506,0.18348,0.630826,-1.27537,0.0715691,-0.0225766,-0.138667
0.0377439,0.159898,-1.02871,0.22822,0.524952,-1.05581,0.065911,0.0172038,-0.0273298
0.0483188,0.163723,-1.04812,0.238227,0.191516,-0.851946,0.0300589,0.0439896,0.0390798
0.0511584,0.168013,-1.06403,0.274985,-0.159063,-0.712182,-0.00550945,0.0457488,0.044413
0.0486008,0.173877,-1.07802,0.397663,-0.27263,-0.645023,-0.0442176,0.0414565,-0.0111452
0.046779,0.18275,-1.09112,0.548005,-0.117959,-0.604566,-0.0870295,0.063662,-0.0651982
0.0488589,0.194047,-1.10362,0.626535,0.0833463,-0.572077,-0.133677,0.108512,-0.0369527
0.0542783,0.206043,-1.11579,0.623922,0.197249,-0.567522,-0.161991,0.129301,0.0333759
0.0605672,0.217218,-1.12832,0.56374,0.146915,-0.599323,-0.200572,0.145064,0.0961702
0.0650225,0.226957,-1.14167,0.494463,-0.00191762,-0.645999,-0.234148,0.16169,0.11608
0.0667149,0.235112,-1.15638,0.412895,-0.160752,-0.742553,-0.271191,0.17236,0.11008
0.0660084,0.240659,-1.17374,0.24391,-0.311681,-0.9207,-0.300037,0.171327,0.113811
0.0640627,0.242184,-1.19515,0.0423554,-0.382264,-1.1555,-0.307832,0.157045,0.100844
0.0624127,0.239682,-1.2211,-0.127281,-0.396758,-1.37806,-0.28587,0.144468,0.0633637
0.061449,0.234372,-1.25055,-0.211003,-0.385403,-1.49892,-0.234734,0.148354,0.0147242
0.0615274,0.228383,-1.2811,-0.197359,-0.29615,-1.5067,-0.177369,0.15342,-0.0330278
0.0635003,0.223075,-1.31131,-0.152202,-0.176983,-1.47205,-0.126857,0.142677,-0.0367078
0.0673745,0.21858,-1.3406,-0.114583,-0.0799688,-1.41568,-0.0807364,0.11432,0.00205237
0.0721035,0.214592,-1.3685,-0.100396,-0.0594458,-1.33709,-0.0538787,0.0893988,0.0632392
0.0721035,0.214592,-1.3685,-0.100396,-0.0594458,-1.33709,-0.0538787,0.0893988,0.0632392
0.0756185,0.210658,-1.39451,-0.101011,-0.142292,-1.23528,-0.0376368,0.062527,0.120103
0.076694,0.206895,-1.41864,-0.0991684,-0.245675,-1.16517,-0.0323366,0.0265283,0.150159
0.0753503,0.202882,-1.44179,-0.144077,-0.347787,-1.14626,-0.0358323,-0.0104364,0.164455
0.0718201,0.197637,-1.46485,-0.214427,-0.41851,-1.16777,-0.0345339,-0.044705,0.148049
0.0680518,0.191491,-1.4885,-0.22994,-0.397134,-1.19712,-0.0281823,-0.0630952,0.086215
0.0651204,0.185608,-1.51232,-0.200548,-0.328138,-1.17664,-0.00035806,-0.0657765,0.0261055
0.0635733,0.180702,-1.53526,-0.141796,-0.231403,-1.11074,0.0256386,-0.0623601,-0.0219469
0.0636152,0.177436,-1.55656,-0.0402878,-0.14075,-1.00084,0.04587,-0.0606757,-0.0615758
0.0647211,0.177117,-1.5753,0.115392,-0.0709753,-0.846409,0.0711625,-0.0600745,-0.0948689
0.0655655,0.179522,-1.59066,0.189598,-0.122896,-0.651727,0.0835293,-0.0480947,-0.0720332
0.062404,0.182266,-1.60207,0.129563,-0.439184,-0.471902,0.0810035,-0.0543223,-0.0310214
0.0494666,0.18357,-1.61078,0.0717297,-0.995751,-0.401581,0.00700258,-0.0632788,-0.0887898
0.028022,0.185973,-1.61947,0.223258,-1.25631,-0.466272,-0.0688713,-0.0769842,-0.279042
0.00627773,0.192451,-1.6305,0.460146,-1.03763,-0.6122,-0.085355,-0.0678442,-0.392016
-0.0053273,0.2046,-1.64419,0.755819,-0.367215,-0.727451,-0.0743432,-0.0408732,-0.412763
-0.0029806,0.221145,-1.65968,0.837252,0.228002,-0.791185,-0.0383823,0.0293754,-0.228841
0.00915146,0.235587,-1.67627,0.589247,0.57221,-0.823141,-0.032153,0.0739135,0.0504313
0.0245979,0.244257,-1.6936,0.332908,0.478414,-0.85352,-0.0611884,0.0850973,0.212303
0.0339864,0.249378,-1.7117,0.263313,-0.0252535,-0.898848,-0.0538944,0.0599571,0.26323
0.0318615,0.254357,-1.73111,0.307826,-0.661269,-0.97376,-0.0364616,0.0437223,0.227695
0.0203823,0.260065,-1.75222,0.302871,-0.94749,-1.05733,-0.0215724,0.0533013,0.129854
0.0079464,0.264515,-1.77471,0.162862,-0.838767,-1.10549,-0.0213724,0.109418,0.0271243
-0.000542158,0.266276,-1.79748,0.0252737,-0.611123,-1.09181,0.0114941,0.148516,-0.0431619
-0.00538936,0.265735,-1.81968,-0.0862033,-0.490681,-1.05501,0.0417602,0.1642,-0.0800667
-0.00972244,0.26339,-1.84109,-0.15467,-0.52288,-1.01506,0.0563993,0.156474,-0.102572
-0.0155137,0.260782,-1.86174,-0.119641,-0.586093,-0.982927,0.0755049,0.138497,-0.146705
-0.0221464,0.259662,-1.88176,-0.0237165,-0.576813,-0.949995,0.0967196,0.129236,-0.174843
-0.0274417,0.260458,-1.90055,0.045609,-0.432035,-0.866602,0.121331,0.139527,-0.178531
-0.0299569,0.262127,-1.91722,0.0670327,-0.256045,-0.752121,0.137282,0.151287,-0.126588
-0.0302259,0.263913,-1.93161,0.0715615,-0.161734,-0.657407,0.126007,0.144817,-0.0471647
-0.0299776,0.265485,-1.94478,0.0489033,-0.166362,-0.63367,0.100319,0.118121,0.038186
-0.0308911,0.266584,-1.95792,0.0243864,-0.289268,-0.643947,0.0709176,0.0952398,0.103819
-0.0347511,0.2677,-1.97145,0.0513524,-0.460451,-0.672896,0.0522749,0.0818055,0.133294
-0.0420326,0.269753,-1.98573,0.100233,-0.64428,-0.722561,0.0443458,0.072951,0.138233
-0.0520371,0.27257,-2.0014,0.0974035,-0.765278,-0.809913,0.0318591,0.0695617,0.136492
-0.0631099,0.274956,-2.01923,0.0429306,-0.818772,-0.926311,0.025558,0.0669453,0.127452
-0.0741637,0.276876,-2.03975,0.0251569,-0.852455,-1.06375,0.0287017,0.059897,0.0874742
-0.0849004,0.279548,-2.06284,0.0642223,-0.838583,-1.17795,0.0480287,0.0611234,0.0272525
-0.0938586,0.283107,-2.08815,0.0574304,-0.74808,-1.29324,0.0423825,0.0740642,-0.0150425
-0.100125,0.285849,-2.11656,-0.0638718,-0.698453,-1.4634,0.0273436,0.0757498,-0.0144377
-0.105222,0.286506,-2.14976,-0.186247,-0.753026,-1.74526,-0.00520999,0.0620828,-0.0332662
-0.110262,0.285979,-2.19063,-0.293264,-0.923823,-2.17464,-0.0523282,0.0535205,-0.0930253
-0.114791,0.284089,-2.24109,-0.446687,-0.920832,-2.61222,-0.0663064,0.0881141,-0.164351
-0.114763,0.280375,-2.29925,-0.554328,-0.672112,-2.88457,-0.0224373,0.169325,-0.235479
-0.105725,0.275795,-2.36081,-0.538503,-0.0775972,-2.9342,0.0348741,0.25101,-0.279308
-0.0842756,0.271167,-2.42132,-0.491174,0.561859,-2.81945,0.0899806,0.30051,-0.246152
-0.0545142,0.265043,-2.47817,-0.508772,0.847986,-2.618,0.113818,0.295581,-0.0956329
-0.0241718,0.257281,-2.53033,-0.448834,0.80101,-2.40239,0.095609,0.23814,0.029486
0.00125628,0.250247,-2.57748,-0.303341,0.562189,-2.16872,0.0654485,0.185235,0.092294
0.0197194,0.245144,-2.61951,-0.171439,0.255716,-1.93467,0.0246183,0.14147,0.119984
0.0315563,0.241077,-2.65731,-0.176744,0.0152489,-1.76684,-0.00814722,0.0966436,0.145601
0.0374325,0.23428,-2.69215,-0.404744,-0.22683,-1.65424,-0.0418183,0.0657299,0.178925
0.0389238,0.222139,-2.72486,-0.665954,-0.350631,-1.60072,-0.0941407,0.031077,0.137486
0.0380481,0.206357,-2.75726,-0.754405,-0.426358,-1.64879,-0.131089,-0.0243673,0.0230583
0.0380481,0.206357,-2.75726,-0.754405,-0.426358,-1.64879,-0.131089,-0.0243673,0.0230583
0.0353361,0.19006,-2.79093,-0.754201,-0.50806,-1.71241,-0.131464,-0.0618146,-0.0794874
0.0304315,0.173558,-2.82488,-0.779862,-0.568682,-1.66178,-0.0838943,-0.0632893,-0.133537
0.0249465,0.157679,-2.85591,-0.707841,-0.465619,-1.42204,-0.0292885,-0.0455493,-0.212328
0.02147,0.144966,-2.88035,-0.483161,-0.228436,-1.01883,0.0148743,-0.0375632,-0.273275
0.0217726,0.138313,-2.89687,-0.137858,0.0141392,-0.656915,0.0142494,-0.0554872,-0.277027
0.02481,0.138364,-2.90766,0.134775,0.101174,-0.439898,-0.00612248,-0.0928971,-0.160024
0.0272382,0.141708,-2.91554,0.196699,0.0279302,-0.347337,-0.0367427,-0.110719,0.0196688
0.0276244,0.145199,-2.92227,0.156345,-0.0932574,-0.320021,-0.0427721,-0.114131,0.132166
0.0249172,0.147482,-2.9289,0.079651,-0.285624,-0.341297,-0.0408643,-0.112329,0.185782
0.0182029,0.147777,-2.93637,-0.0435602,-0.489133,-0.400977,-0.0309735,-0.112404,0.201919
0.00833175,0.145649,-2.94457,-0.143229,-0.595326,-0.400936,-0.00360477,-0.101173,0.159574
-0.00238434,0.142994,-2.95182,-0.0967714,-0.555672,-0.313089,0.0343119,-0.0805761,0.0515738
-0.0110016,0.142544,-2.95715,0.0535694,-0.373638,-0.219077,0.0432689,-0.0543803,-0.0472046
-0.0162468,0.144958,-2.96085,0.166324,-0.219757,-0.157638,0.0528646,-0.0496565,-0.0726303
-0.0191584,0.148503,-2.96359,0.170912,-0.123315,-0.121387,0.0647838,-0.0469734,-0.0435517
-0.0205162,0.151657,-2.96558,0.143931,-0.0412962,-0.0836799,0.0609592,-0.0406501,-0.0315529
-0.0205919,0.154638,-2.96699,0.159072,0.00418886,-0.0634938,0.0525866,-0.0382688,-0.0412406
-0.0198906,0.158356,-2.96806,0.211385,0.0485158,-0.0491097,0.0424523,-0.0304608,-0.0501068
-0.0185467,0.162875,-2.96901,0.233199,0.074866,-0.0490604,0.0322925,-0.0149832,-0.0427625
-0.0162578,0.16739,-2.9699,0.211983,0.13822,-0.0418468,0.0338064,0.000990525,-0.0340506
-0.0126646,0.171339,-2.97044,0.184364,0.204391,-0.0115719,0.0338258,0.0215457,-0.030362
-0.0081349,0.175101,-2.97009,0.195972,0.23755,0.0504536,0.040298,0.0364973,-0.0356331
-0.00341855,0.179497,-2.96819,0.250084,0.259695,0.144873,0.0327368,0.0616519,-0.0473373
0.00112349,0.185153,-2.96401,0.326843,0.263329,0.267116,0.0179845,0.0849754,-0.0492885
0.00525254,0.192418,-2.95748,0.394769,0.270708,0.372786,0.00264166,0.0943853,-0.0392513
0.00907309,0.200648,-2.9492,0.416401,0.283815,0.438708,-0.0236614,0.101236,-0.00905532
0.0133298,0.208758,-2.94003,0.376917,0.324861,0.463825,-0.0609221,0.104446,0.0233224
0.0176232,0.215706,-2.93062,0.307761,0.291596,0.467299,-0.0851002,0.107744,0.057515
0.0202525,0.221334,-2.92137,0.238593,0.160819,0.447675,-0.0955628,0.0991546,0.0678432
0.0198664,0.225864,-2.91244,0.211362,0.0108787,0.437059,-0.0863466,0.084743,0.0529761
0.0167147,0.230158,-2.90349,0.201486,-0.106476,0.449463,-0.0670087,0.0893223,0.00749093
0.0125646,0.234249,-2.8937,0.20312,-0.0606888,0.518354,-0.0665119,0.116359,-0.0499402
0.00997956,0.238933,-2.88224,0.269099,0.0712266,0.600995,-0.0710667,0.127367,-0.100876
0.00940294,0.245391,-2.86939,0.358806,0.168071,0.644204,-0.0819818,0.116975,-0.100557
0.00924901,0.252661,-2.85643,0.345386,0.123449,0.614901,-0.105864,0.0994225,-0.0261297
0.00778669,0.259232,-2.84462,0.3086,0.0246389,0.529196,-0.117771,0.0719813,0.031835
0.00500823,0.26526,-2.83504,0.295068,-0.0391765,0.405737,-0.115322,0.0581344,0.0540322
0.00236653,0.270882,-2.82782,0.260357,-0.0230625,0.298865,-0.100623,0.0600923,0.0709544
0.00112674,0.275591,-2.82248,0.212488,0.0457683,0.219041,-0.0886849,0.0661067,0.0949544
0.0013104,0.279472,-2.81864,0.17982,0.0750308,0.149311,-0.0676963,0.0630946,0.122822
0.00209877,0.282755,-2.81649,0.146099,0.06276,0.0497911,-0.06154,0.049724,0.148002
0.00295513,0.285215,-2.81683,0.101884,0.0142057,-0.0878685,-0.0436835,0.0264508,0.160387
0.00351676,0.286436,-2.81998,0.0300656,-0.0191608,-0.212793,-0.0112928,0.0110048,0.160698
0.00522879,0.286258,-2.8253,-0.0419866,0.0552303,-0.30056,0.0191539,0.00917077,0.138921
0.00911013,0.284347,-2.83225,-0.154941,0.130058,-0.37125,0.0277396,0.0138068,0.126401
0.0137486,0.27977,-2.84041,-0.292974,0.0875078,-0.418871,0.0497899,-0.00217044,0.123748
0.0167924,0.272587,-2.8494,-0.407121,-0.0235489,-0.463247,0.0670192,-0.0211819,0.083105
0.0182132,0.263566,-2.85937,-0.472481,-0.083969,-0.520322,0.0657755,-0.0435677,0.0033167
0.019679,0.25343,-2.87051,-0.525299,-0.0433083,-0.575957,0.0721068,-0.0626283,-0.0801336
0.0228878,0.242157,-2.88245,-0.570408,0.0839043,-0.600397,0.0858599,-0.0782877,-0.156522
0.0288941,0.230812,-2.89402,-0.519127,0.259246,-0.548046,0.11099,-0.0834727,-0.215966
0.0379165,0.221452,-2.9038,-0.374591,0.414974,-0.432364,0.122442,-0.0895119,-0.248144
0.0483313,0.215234,-2.91054,-0.226091,0.475503,-0.247474,0.132871,-0.0881205,-0.221282
0.058273,0.211664,-2.91346,-0.117263,0.45706,-0.0677584,0.111105,-0.0975303,-0.157079
0.058273,0.211664,-2.91346,-0.117263,0.45706,-0.0677584,0.111105,-0.0975303,-0.157079
0.0672158,0.21059,-2.91354,0.0109439,0.437784,0.0468896,0.0779038,-0.121331,-0.113809
0.0752207,0.211954,-2.91193,0.10428,0.39638,0.117308,0.0347168,-0.134799,-0.0625572
0.0822563,0.214916,-2.90916,0.167981,0.370488,0.177291,0.00831914,-0.13497,-0.0150176
0.0882924,0.218994,-2.90517,0.202962,0.315427,0.241544,-0.0183838,-0.126518,0.0265898
0.0928536,0.223839,-2.90014,0.237752,0.249748,0.287424,-0.0381763,-0.129176,0.0583003
0.0956154,0.229308,-2.89471,0.255011,0.156607,0.287021,-0.0574331,-0.139274,0.0808719
0.0967977,0.235041,-2.8898,0.26659,0.082669,0.236989,-0.0792645,-0.147229,0.0882069
0.0971265,0.240478,-2.88644,0.234943,0.0301143,0.129284,-0.104636,-0.14811,0.094012
0.0968951,0.244612,-2.88556,0.168269,-0.0367559,-0.00303701,-0.0985481,-0.155174,0.0980046
0.0954492,0.247209,-2.88703,0.10637,-0.142773,-0.107828,-0.0682066,-0.152106,0.0890565
0.0925245,0.248818,-2.8899,0.0919093,-0.208636,-0.145244,-0.0314113,-0.134128,0.0438703
0.0891347,0.25067,-2.89295,0.126555,-0.196872,-0.12907,0.000145376,-0.113657,-0.0145304
0.0861967,0.253624,-2.89557,0.190769,-0.163185,-0.0974969,0.0260696,-0.104021,-0.0509195
0.0834916,0.257851,-2.89763,0.249303,-0.159525,-0.0741694,0.0347035,-0.0995808,-0.0672049
0.0808297,0.263276,-2.89966,0.311849,-0.160042,-0.0826015,0.0261664,-0.0996946,-0.0859038
0.0783043,0.269944,-2.90219,0.369543,-0.154722,-0.105873,0.0235618,-0.0931252,-0.0949992
0.0764726,0.277482,-2.90527,0.407074,-0.104109,-0.132268,0.0208693,-0.0788183,-0.0979777
0.076163,0.285774,-2.90906,0.449424,-0.0332079,-0.170289,0.00325996,-0.0621402,-0.0970332
0.0773663,0.294889,-2.9139,0.491437,0.00334258,-0.225824,-0.0118191,-0.0479133,-0.0874248
0.0791319,0.304524,-2.92001,0.514759,-0.0110758,-0.282919,-0.022739,-0.0316887,-0.0536189
0.0807481,0.31431,-2.92732,0.519563,-0.0485751,-0.334678,-0.0256072,-0.0124643,-0.0233718
0.0826439,0.324182,-2.9357,0.52349,-0.0193151,-0.382549,-0.0362578,0.0148222,0.00136286
0.0857408,0.33354,-2.94522,0.476026,0.0192319,-0.44482,-0.0499105,0.0398685,0.0425383
0.0898344,0.34119,-2.95633,0.374604,0.0158365,-0.53548,-0.0580378,0.0519856,0.0955853
0.094306,0.346625,-2.96909,0.284645,0.00183265,-0.612643,-0.0518378,0.0621676,0.125555
0.0988194,0.35024,-2.983,0.202355,-0.0285924,-0.6519,-0.0397975,0.0794206,0.136872
0.102665,0.35199,-2.99726,0.105696,-0.0802943,-0.661816,-0.0231119,0.0929051,0.146926
0.105134,0.351839,-3.01118,0.0186979,-0.14539,-0.643543,-0.00196911,0.0955558,0.141
0.1064,0.350197,-3.02455,-0.0484497,-0.182765,-0.629527,0.0109791,0.0913742,0.111743
0.106979,0.34745,-3.03736,-0.0996263,-0.196438,-0.601126,0.0230489,0.0851,0.0794153
0.107419,0.344036,-3.04942,-0.122964,-0.159854,-0.564961,0.0380929,0.0752497,0.0463266
0.108486,0.340157,-3.06048,-0.158133,-0.105164,-0.515263,0.0469629,0.0688651,0.0325886
0.109802,0.335459,-3.07028,-0.220528,-0.0853015,-0.460124,0.0572321,0.0564056,0.0428515
0.111,0.329635,-3.07875,-0.269265,-0.064769,-0.407997,0.0603678,0.0358714,0.0466914
0.111896,0.323288,-3.0861,-0.292047,-0.0803717,-0.361996,0.06,0.01457,0.0410821
0.111831,0.316677,-3.09254,-0.307185,-0.123339,-0.325758,0.054138,-0.00722349,0.0427587
0.110263,0.309951,-3.09833,-0.306676,-0.197556,-0.301817,0.0600295,-0.0320549,0.0364089
0.107541,0.303243,-3.10345,-0.315686,-0.216895,-0.253382,0.0746724,-0.045927,0.0236737
0.104505,0.296322,-3.10739,-0.342473,-0.198238,-0.196067,0.0812918,-0.0515321,0.012631
0.101475,0.289029,-3.11022,-0.357538,-0.194079,-0.153731,0.0843888,-0.0652589,0.000221074
0.0979402,0.281882,-3.11227,-0.33277,-0.217039,-0.115056,0.084878,-0.0822636,-0.0260185
0.0937378,0.27583,-3.11358,-0.258091,-0.239457,-0.0695035,0.0825755,-0.0955896,-0.071642
0.089335,0.271539,-3.1142,-0.168085,-0.208272,-0.0278505,0.0916498,-0.103231,-0.102204
0.0860519,0.269027,-3.11393,-0.0870896,-0.100816,0.0333812,0.10463,-0.104506,-0.114565
0.0848653,0.268173,-3.11238,-0.0157407,0.00980926,0.111205,0.10804,-0.0978841,-0.101347
0.0847052,0.268801,-3.10942,0.051673,0.0447203,0.173867,0.0982895,-0.096058,-0.0656421
0.0842671,0.270483,-3.10581,0.0813862,-0.00510405,0.184,0.0828027,-0.102142,-0.0209787
0.082688,0.272526,-3.10237,0.0882055,-0.0659603,0.163413,0.0737595,-0.10617,0.00707513
0.0800287,0.274473,-3.09925,0.0779695,-0.108927,0.162222,0.0768577,-0.0939202,0.00909376
0.0773883,0.276579,-3.09569,0.10654,-0.061148,0.203355,0.0887893,-0.0749407,-0.0224515
0.075802,0.279606,-3.09121,0.153261,0.0158523,0.250859,0.0859029,-0.0546966,-0.0478365
0.075392,0.283475,-3.08595,0.177053,0.073916,0.283423,0.077008,-0.0441588,-0.0443927
0.0756634,0.287636,-3.08033,0.186211,0.0949125,0.283949,0.0631344,-0.0403649,-0.0246308
0.0763199,0.291994,-3.07506,0.195188,0.100892,0.252774,0.0413003,-0.0358067,-0.0129658
0.0763199,0.291994,-3.07506,0.195188,0.100892,0.252774,0.0413003,-0.0358067,-0.0129658
0.0771727,0.296111,-3.07056,0.182613,0.115168,0.214484,0.0306446,-0.0287689,0.000491381
0.0785326,0.299831,-3.06656,0.157963,0.133604,0.206196,0.0359795,-0.0132197,0.00932664
0.0800746,0.303221,-3.0621,0.151921,0.153847,0.249887,0.0479887,0.00449821,0.00288093
0.0814093,0.306752,-3.05642,0.158132,0.160418,0.31724,0.0474919,0.0251391,0.0059787
0.0829643,0.31038,-3.04966,0.142883,0.200258,0.351245,0.0396818,0.0253303,0.01396
0.0850852,0.313462,-3.04253,0.103548,0.227364,0.350365,0.025268,0.0222213,0.0384066
0.0873148,0.315862,-3.03535,0.0774347,0.210583,0.357099,0.0203663,0.0237398,0.0532313
0.0884865,0.317958,-3.02752,0.0613898,0.148617,0.412083,0.0290956,0.0331175,0.0698471
0.08821,0.31976,-3.01823,0.0385457,0.121267,0.485617,0.0381044,0.0408249,0.0744042
0.0870178,0.321231,-3.0076,0.0174804,0.0916373,0.531142,0.0266379,0.0381469,0.0674803
0.0850005,0.322246,-2.99629,-0.0118312,0.0604499,0.543877,0.0223008,0.0210894,0.0583375
0.0821355,0.32271,-2.98477,-0.0298208,0.0234188,0.550784,0.0162166,0.00784257,0.0394357
0.0788109,0.323126,-2.97305,-0.0184679,0.0180385,0.559978,0.0134494,0.00111091,0.0072853
0.0756706,0.323948,-2.96118,0.00504256,0.0529322,0.568475,0.00931211,0.000105292,-0.0175716
0.0735668,0.324881,-2.94927,-0.000242661,0.113259,0.565029,0.00145034,-0.00337523,-0.0257455
0.0723675,0.325503,-2.93775,-0.0152956,0.124424,0.529191,-0.0122333,-0.0115594,-0.0212831
0.0710684,0.32582,-2.92706,-0.020844,0.0891703,0.488488,-0.0118528,-0.0221383,-0.0162455
0.0694533,0.326263,-2.91714,0.00159855,0.0711654,0.453055,-0.0156877,-0.023992,-0.0263201
0.0680989,0.327121,-2.90794,0.0209998,0.0902225,0.42972,-0.0119019,-0.020784,-0.037325
0.0674371,0.328253,-2.89903,0.03253,0.129856,0.424119,-0.00171534,-0.014814,-0.0362118
0.0675108,0.329579,-2.89009,0.0459639,0.166071,0.433112,-0.00160342,-0.00605193,-0.0318831
0.0680047,0.331369,-2.88105,0.0725556,0.16705,0.434341,-0.00499041,-0.00293931,-0.0208824
0.0681129,0.333641,-2.87208,0.0904965,0.135202,0.42937,-0.0135412,-0.00176901,-0.00312012
0.0674875,0.335792,-2.86342,0.0608502,0.0813622,0.399206,-0.0232494,-0.00318551,0.0157766
0.0660205,0.336993,-2.85551,0.0158858,0.0384097,0.354597,-0.0311491,-0.00380623,0.0179604
0.0641725,0.337617,-2.84841,0.0151594,0.0147215,0.314905,-0.0306925,-0.0075056,-0.0142975
0.0622522,0.338966,-2.84198,0.0933506,0.0194606,0.306806,-0.0299093,-0.00582135,-0.0559353
0.0603748,0.3421,-2.8356,0.167899,-0.00577253,0.306037,-0.0292385,0.00265697,-0.0728326
0.0580026,0.345923,-2.82948,0.172228,-0.0186946,0.285288,-0.047044,0.0081172,-0.0616583
0.055805,0.34974,-2.82429,0.19601,-0.0338664,0.228302,-0.0670022,-0.000684649,-0.0691264
0.0539946,0.354598,-2.82049,0.269504,-0.0312162,0.151886,-0.0827763,0.00126579,-0.0856141
0.0522926,0.360238,-2.81825,0.272677,-0.0624923,0.0854134,-0.0945376,0.0134315,-0.0626891
0.0507966,0.36517,-2.81756,0.215362,-0.0625152,-0.00326439,-0.102587,0.0136935,-0.044284
0.050419,0.369139,-2.81907,0.193736,-0.0238891,-0.120414,-0.122152,0.0145599,-0.054234
0.0516105,0.372843,-2.82304,0.199726,0.00443373,-0.229806,-0.134957,0.0284798,-0.0539076
0.0543752,0.376472,-2.82916,0.186908,0.0392377,-0.317774,-0.138509,0.0438501,-0.0283924
0.0581254,0.379375,-2.83704,0.143129,0.0382762,-0.400273,-0.143424,0.059305,0.0176748
0.0621199,0.381157,-2.84681,0.0914099,-0.00793726,-0.499131,-0.149055,0.0653538,0.056129
0.0657436,0.381871,-2.85869,0.04979,-0.0763859,-0.597812,-0.148046,0.0693283,0.082321
0.0686664,0.381634,-2.87228,0.00849679,-0.143188,-0.662426,-0.135835,0.0759746,0.0985692
0.0703962,0.380504,-2.88677,-0.0250233,-0.223392,-0.684169,-0.118026,0.0887953,0.106476
0.070275,0.378635,-2.90136,-0.0726388,-0.324688,-0.686943,-0.10397,0.101617,0.116528
0.0685069,0.375409,-2.916,-0.157268,-0.37991,-0.702671,-0.0958059,0.101074,0.117186
0.0662617,0.370511,-2.93108,-0.236143,-0.40435,-0.739297,-0.0866683,0.0895393,0.102002
0.0632143,0.364205,-2.94681,-0.297361,-0.464729,-0.767316,-0.0658187,0.080068,0.0872346
0.0591039,0.35683,-2.96266,-0.349838,-0.489878,-0.764306,-0.0427754,0.0731826,0.067468
0.0549823,0.348627,-2.97828,-0.392662,-0.454215,-0.749801,-0.0204597,0.0680787,0.0408394
0.0508683,0.33981,-2.99324,-0.425116,-0.460278,-0.710381,0.00851861,0.0567877,0.0272005
0.0462587,0.33015,-3.00745,-0.474847,-0.457872,-0.686082,0.0234243,0.0369536,0.0160267
0.0419381,0.319868,-3.02126,-0.490638,-0.398801,-0.676297,0.0379138,0.012821,-0.0130446
0.0390934,0.3098,-3.03497,-0.464423,-0.302606,-0.6693,0.0472651,-0.00387818,-0.0389184
0.0375098,0.300375,-3.04817,-0.446441,-0.26941,-0.622159,0.0775203,-0.0159347,-0.0310268
0.0350916,0.290996,-3.06001,-0.446284,-0.307767,-0.541115,0.0990657,-0.0241133,-0.0103588
0.0350916,0.290996,-3.06001,-0.446284,-0.307767,-0.541115,0.0990657,-0.0241133,-0.0103588
0.0317655,0.282682,-3.06992,-0.351805,-0.296636,-0.444387,0.118136,-0.0413347,-0.0332614
0.0281009,0.27631,-3.07816,-0.274615,-0.288466,-0.375684,0.115242,-0.0490157,-0.0307123
0.0245609,0.270875,-3.08544,-0.263901,-0.270763,-0.349305,0.117893,-0.0763737,-0.0128124
0.021116,0.265559,-3.09243,-0.251679,-0.256064,-0.331986,0.127407,-0.0878774,-0.0141053
0.0181223,0.260989,-3.09872,-0.189689,-0.201916,-0.278487,0.138544,-0.0888414,-0.0464289
0.0157215,0.257972,-3.10346,-0.104789,-0.169543,-0.182877,0.157483,-0.080497,-0.0676644
0.0134681,0.256711,-3.10628,-0.0191025,-0.118409,-0.0990582,0.161122,-0.0816859,-0.0811362
0.0119908,0.25703,-3.10762,0.0478353,-0.0663691,-0.0346885,0.149551,-0.0822313,-0.0888133
0.011422,0.258511,-3.10797,0.103504,0.00393127,-0.000640964,0.127797,-0.076481,-0.0885588
0.0122414,0.261104,-3.10779,0.153317,0.0758953,0.0139489,0.102874,-0.0703286,-0.0914925
0.0142815,0.264381,-3.10747,0.170054,0.128042,0.0222128,0.0842834,-0.0565442,-0.0687642
0.0169876,0.267699,-3.10708,0.152272,0.133346,0.0228193,0.0695252,-0.0426459,-0.0478421
0.019515,0.270442,-3.10658,0.128672,0.128174,0.0341254,0.0545598,-0.0272912,-0.0406505
0.022147,0.27353,-3.10578,0.188513,0.15439,0.0524718,0.0368446,-0.011057,-0.0711499
0.0253313,0.278392,-3.10439,0.292229,0.203252,0.106717,0.0236813,0.0177753,-0.0901251
0.0292922,0.285054,-3.10127,0.357669,0.276135,0.217421,0.0231482,0.0510301,-0.0685971
0.0340557,0.292481,-3.09612,0.3607,0.342342,0.285302,-0.00608329,0.069701,-0.0262544
0.039306,0.299504,-3.09038,0.32268,0.339124,0.280657,-0.0433754,0.0614191,0.0162379
0.0441074,0.305635,-3.08526,0.2651,0.290456,0.234313,-0.0731013,0.0548663,0.0370333
0.047557,0.310384,-3.08078,0.193595,0.199246,0.22384,-0.0887856,0.0687907,0.0391983
0.0492562,0.314095,-3.07593,0.167369,0.138667,0.257664,-0.0918714,0.084713,0.00561738
0.0508763,0.317913,-3.07057,0.193652,0.193096,0.267782,-0.107647,0.0860379,-0.0534298
0.0542334,0.322134,-3.06518,0.180075,0.33443,0.261125,-0.11929,0.0857872,-0.066062
0.0609378,0.325005,-3.06005,0.0731663,0.502464,0.243547,-0.127246,0.0847249,-0.0348074
0.0702637,0.325828,-3.05475,-0.0103679,0.572581,0.269488,-0.128859,0.0742289,0.00402343
0.0789184,0.326191,-3.04852,0.0119728,0.483014,0.334967,-0.118518,0.0652955,0.0409552
0.0848366,0.327545,-3.0407,0.0606254,0.370781,0.416634,-0.112716,0.0578645,0.0709017
0.08845,0.329387,-3.03129,0.0348378,0.304093,0.483411,-0.119291,0.0499953,0.102683
0.0906544,0.330171,-3.02079,-0.0500656,0.255636,0.509594,-0.12394,0.0395368,0.12472
0.091693,0.329375,-3.00981,-0.117191,0.208181,0.516802,-0.123691,0.0220605,0.119607
0.0917908,0.327901,-2.99864,-0.120124,0.167537,0.526385,-0.118059,0.00838169,0.0811474
0.0913003,0.326859,-2.98702,-0.0891887,0.159344,0.56725,-0.0985686,0.00846344,0.0388598
0.0902499,0.326259,-2.97423,-0.0846641,0.150338,0.634856,-0.0753022,0.0126251,0.0196105
0.0889086,0.325332,-2.96016,-0.137821,0.164247,0.687781,-0.0621308,0.0146914,0.0084995
0.0868981,0.322929,-2.94476,-0.231027,0.102171,0.762391,-0.0467344,0.0172507,0.00269997
0.0809027,0.319187,-2.92718,-0.25834,-0.159582,0.866064,-0.0455284,0.0133493,-0.0336716
0.0703067,0.316659,-2.90848,-0.10626,-0.26156,0.866423,-0.0851124,-0.00873569,-0.161838
0.0610543,0.317473,-2.89097,0.059254,-0.097502,0.810105,-0.0989218,-0.0237554,-0.250153
0.0568281,0.319986,-2.87439,0.0937878,0.223275,0.784152,-0.0783743,0.00170255,-0.21637
0.0591588,0.322807,-2.85874,0.0907711,0.461133,0.713404,-0.0918523,0.0113519,-0.144283
0.0636104,0.325164,-2.84449,0.0660081,0.405062,0.659018,-0.0822549,0.0136934,-0.0118682
0.065571,0.327398,-2.83105,0.0836975,0.224684,0.633361,-0.0673994,0.0162064,0.07148
0.0644205,0.330187,-2.81801,0.108967,0.0993829,0.619327,-0.0615088,0.0355233,0.108692
0.0617989,0.332681,-2.80549,0.0422599,0.0557571,0.56792,-0.0532311,0.0426119,0.144156
0.0591876,0.332437,-2.79462,-0.138934,0.0364558,0.453893,-0.0506654,0.0353625,0.174094
0.0564197,0.328477,-2.78595,-0.284992,-0.0420187,0.345569,-0.0390622,0.029206,0.164343
0.0526999,0.322934,-2.77915,-0.28643,-0.0991551,0.275744,-0.0213729,0.0372138,0.0962687
0.0491819,0.31815,-2.77335,-0.217386,-0.0405115,0.264093,0.0106476,0.0558973,0.033903
0.0476935,0.314599,-2.76725,-0.169579,0.0899335,0.301054,0.0344832,0.0828115,0.0220591
0.0484922,0.311596,-2.76027,-0.153443,0.214261,0.34803,0.0374028,0.101699,0.0544406
0.0511349,0.309561,-2.75231,-0.0839621,0.290283,0.396181,0.0403825,0.0983876,0.092824
0.0546871,0.308742,-2.74379,-0.0499005,0.328421,0.399305,0.0281859,0.0983859,0.157057
0.0587707,0.308264,-2.73557,-0.0462423,0.308892,0.385937,0.00546379,0.0780782,0.211623
0.0608927,0.307526,-2.72738,-0.0888666,0.134364,0.393888,0.0142045,0.070036,0.276346
0.0608927,0.307526,-2.72738,-0.0888666,0.134364,0.393888,0.0142045,0.070036,0.276346
0.0580951,0.304945,-2.71897,-0.238299,-0.170402,0.383884,0.00325584,0.0476006,0.303496
0.0494052,0.298096,-2.71163,-0.504795,-0.491527,0.2643,-0.0143244,0.0033564,0.261692
0.0339528,0.283826,-2.70784,-0.96838,-0.975388,0.0226324,-0.0297043,-0.0468586,0.182643
0.0105028,0.260872,-2.70949,-1.23972,-1.37434,-0.222569,-0.0137483,-0.112651,-0.0411054
-0.0164934,0.238388,-2.71591,-0.970304,-1.47138,-0.380839,0.0511367,-0.131906,-0.419937
-0.040583,0.223839,-2.72428,-0.515965,-1.04083,-0.365267,0.138406,-0.0985514,-0.634317
-0.0530194,0.216322,-2.73122,-0.325777,-0.337102,-0.272803,0.150514,-0.0232916,-0.641927
-0.0522196,0.209949,-2.73619,-0.339778,0.2585,-0.192507,0.155649,-0.0158788,-0.513679
-0.0431963,0.204171,-2.74026,-0.218183,0.51795,-0.188245,0.149311,-0.0462833,-0.381685
-0.0311644,0.202614,-2.74409,0.0528744,0.589807,-0.179791,0.148366,-0.0695829,-0.255062
-0.019447,0.205918,-2.747,0.252197,0.512016,-0.103461,0.140342,-0.0447099,-0.0829875
-0.0100644,0.212306,-2.7477,0.365686,0.421896,0.0170559,0.13879,-0.0260561,0.0571032
-0.00368461,0.220079,-2.74637,0.392546,0.241814,0.0939748,0.117976,-0.0219274,0.164655
-0.00147464,0.227585,-2.74415,0.361842,0.0350261,0.116583,0.0995659,-0.0410833,0.224762
-0.00381654,0.23446,-2.74193,0.33956,-0.215799,0.0963679,0.0855297,-0.0552342,0.221397
-0.0105507,0.241536,-2.7403,0.381429,-0.402679,0.0521473,0.0741786,-0.0649288,0.159242
-0.0193791,0.249514,-2.73978,0.407904,-0.451225,-0.0141124,0.0704593,-0.0657499,0.0804076
-0.0277564,0.257342,-2.74081,0.363343,-0.409369,-0.113543,0.0635515,-0.0660149,0.0152661
-0.0344988,0.264023,-2.74441,0.295908,-0.362886,-0.269196,0.0570241,-0.0678458,-0.0374236
-0.0391164,0.269749,-2.75206,0.254759,-0.298187,-0.501491,0.0417511,-0.080556,-0.103306
-0.0408161,0.274818,-2.76466,0.200143,-0.213946,-0.7304,0.0439885,-0.0674497,-0.151974
-0.0392455,0.278898,-2.78143,0.146684,-0.0705515,-0.89395,0.0568997,-0.0322754,-0.183302
-0.0334069,0.282266,-2.80082,0.129179,0.120321,-0.969596,0.0823719,0.00648418,-0.199548
-0.0234236,0.28547,-2.8209,0.137576,0.319191,-0.964959,0.109372,0.038841,-0.17907
-0.00956678,0.288865,-2.84062,0.17201,0.502883,-0.941247,0.109451,0.0644358,-0.127475
0.00773938,0.292459,-2.86012,0.178026,0.660838,-0.930371,0.0985464,0.0777209,-0.0545452
0.027185,0.295326,-2.87925,0.133211,0.714992,-0.901247,0.106655,0.098165,0.0422152
0.0470587,0.297069,-2.89823,0.134124,0.795589,-0.930376,0.111498,0.0947969,0.0818033
0.0736839,0.299755,-2.91903,0.253479,1.33523,-1.03759,0.0422753,0.067152,-0.00685459
0.112697,0.302697,-2.9404,0.187147,1.8428,-0.927599,-0.0192112,0.119919,0.0343267
0.153188,0.302197,-2.95637,-0.0461521,1.58118,-0.571222,-0.0112301,0.155849,0.218346
0.178268,0.296282,-2.96199,-0.378338,0.446696,-0.0646881,0.111788,0.128392,0.406771
0.175262,0.292219,-2.95835,-0.0247568,-0.419175,0.340066,0.155642,0.103797,0.184484
0.161968,0.296687,-2.9484,0.237517,-0.590791,0.648664,0.0319727,0.0728101,0.037605
0.146773,0.302739,-2.93481,0.116425,-0.501633,0.692763,-0.081963,0.0808351,0.0543376
0.134704,0.304451,-2.92215,-0.105793,-0.305525,0.497815,-0.125558,-0.0205585,0.0438344
0.129347,0.301331,-2.91424,-0.297463,-0.00135029,0.226046,-0.203039,-0.0531234,-0.0189925
0.13023,0.294583,-2.90998,-0.395474,0.17443,0.125369,-0.204362,-0.0370522,-0.0448474
0.132467,0.288071,-2.90625,-0.263276,0.13933,0.153851,-0.16596,-0.0259554,-0.0704193
0.132732,0.285711,-2.90211,-0.0273228,0.00519591,0.207382,-0.146219,-0.0247859,-0.081296
0.130548,0.287125,-2.89772,0.0896521,-0.086358,0.221312,-0.139177,-0.0301582,-0.046917
0.12757,0.289224,-2.89373,0.0508444,-0.0889884,0.175693,-0.140678,-0.0324028,-0.000418723
