rotationRate_x,rotationRate_y,rotationRate_z,acceleration_x,acceleration_y,acceleration_z,relativeAltitude
-0.189376,0.153747,0.988056,0.00687693,0.0589543,-0.0103,0.124191
0.0909092,0.303077,0.793203,0.0106878,0.0298262,0.0148121,0.124191
0.192624,0.319894,0.803343,0.0721415,-0.0242382,0.0779555,0.124191
0.0824547,0.272859,0.918598,0.0983576,-0.071499,0.147924,0.124191
-0.0843529,0.171792,1.01085,0.0959691,-0.0738092,0.174185,0.124191
-0.197618,0.166644,1.02847,0.0668441,-0.0624169,0.165139,0.124191
-0.188164,0.238927,1.01602,0.0412656,-0.0561927,0.125429,0.124191
-0.0991853,0.276257,1.00015,0.0155632,-0.0574342,0.0797259,0.124191
-0.0308344,0.23054,0.95041,-0.0212299,-0.0559256,0.0529286,0.124191
-0.0283647,0.0804555,0.819819,-0.0590089,-0.049136,0.047415,0.124191
-0.0476542,-0.0430772,0.639861,-0.0870407,-0.0540624,0.0480475,0.124191
-0.0429043,-0.0037311,0.517139,-0.0804311,-0.0768453,0.0439966,0.124191
-0.0284598,0.0329658,0.448599,-0.0758407,-0.0900155,0.0267847,0.124191
-0.0968511,0.0362588,0.450566,-0.0568182,-0.103715,0.00727981,0.124191
-0.164158,0.0988991,0.457685,-0.0487314,-0.108108,-0.0307963,0.124191
-0.138252,0.148117,0.473051,-0.055848,-0.108375,-0.0962452,0.124191
-0.108681,0.104599,0.443155,-0.0856975,-0.0995068,-0.124771,0.124191
-0.135813,0.0217427,0.357342,-0.100729,-0.0743275,-0.127554,0.124191
-0.206277,0.0986541,0.221052,-0.108625,-0.0409328,-0.118366,0.124191
-0.332865,0.292882,0.187972,-0.094741,-0.0697651,-0.152772,0.124191
-0.393488,0.478567,0.217229,-0.0856797,-0.109059,-0.233711,0.124191
-0.285574,0.273596,0.225818,-0.0762877,-0.105697,-0.323314,0.124191
-0.116187,-0.235881,0.122309,-0.0790486,-0.0675045,-0.342739,0.124191
-0.0150957,-0.630861,0.0132504,-0.0783838,-0.0394575,-0.25,0.124191
0.00654527,-0.593641,-0.0666387,-0.097943,-0.0432945,-0.103682,0.124191
0.0646715,-0.262587,-0.154541,-0.118641,-0.0292802,-0.0139418,0.124191
0.219571,-0.0298159,-0.271963,-0.12891,0.0116436,0.0264879,0.124191
0.372679,-0.0294591,-0.398058,-0.143309,0.0516413,0.0642083,0.124191
0.351341,-0.0541609,-0.519428,-0.157447,0.0758161,0.132074,0.124191
0.22001,0.0123827,-0.616159,-0.168662,0.0804676,0.161171,0.124191
0.104413,0.262688,-0.697881,-0.183255,0.0825211,0.133834,0.124191
0.023982,0.508611,-0.809122,-0.205786,0.09004,0.0696865,0.124191
-0.0196771,0.566183,-0.900174,-0.182473,0.115327,-0.017712,0.124191
0.0118707,0.413446,-0.933864,-0.127005,0.11398,-0.119496,0.124191
0.104752,0.145166,-0.902106,-0.0838893,0.102764,-0.171611,0.124191
0.200164,-0.139186,-0.870923,-0.0627848,0.099186,-0.166047,0.124191
0.296176,-0.447453,-0.846662,-0.0193791,0.105906,-0.12059,0.124191
0.320935,-0.631412,-0.790949,0.025499,0.100935,-0.0237467,0.124191
0.276229,-0.700387,-0.676819,0.0743457,0.0917588,0.0773592,0.124191
0.196539,-0.700373,-0.515123,0.113869,0.0838537,0.149314,0.124191
0.148885,-0.59471,-0.346294,0.135717,0.0742586,0.182065,0.124191
0.137991,-0.275241,-0.176353,0.127493,0.0706477,0.201992,0.124191
0.195687,-0.0443955,-0.0704193,0.11162,0.0844502,0.178889,0.124191
0.213941,0.030896,-0.0106008,0.0940554,0.100248,0.157498,0.124191
0.114269,-0.0260594,0.0586262,0.0928169,0.094562,0.149075,0.124191
0.00251067,-0.120659,0.152189,0.107378,0.0755638,0.128858,0.124191
-0.0166154,-0.121144,0.28398,0.118741,0.0542545,0.0785568,0.124191
0.0288176,-0.0747107,0.367572,0.114961,0.0650217,0.0444218,0.124191
0.0220654,0.0726621,0.374973,0.101185,0.0808581,0.0454274,0.124191
-0.0439086,0.242349,0.390073,0.0972507,0.0679697,0.0207025,0.124191
-0.134687,0.328019,0.441145,0.120429,0.0453818,-0.030799,0.124191
-0.134687,0.328019,0.441145,0.120429,0.0453818,-0.030799,0
-0.180815,0.20769,0.531531,0.135399,0.018717,-0.0943863,0
-0.341951,-0.0203752,0.694657,0.15164,-0.00336322,-0.101793,0
-0.614995,-0.00829357,0.776856,0.133385,0.00109413,-0.0697594,0
-0.653896,0.278689,0.842102,0.10185,-0.0160693,-0.128844,0
-0.523416,0.579806,0.896109,0.0739353,-0.0404729,-0.21012,0
-0.368586,0.617334,0.847502,0.0390325,-0.0475029,-0.262377,0
-0.188862,0.44612,0.732498,0.0123134,-0.0533111,-0.275576,0
-0.0999613,0.200668,0.704939,0.0137268,-0.0823649,-0.229539,0
-0.0558769,0.0258809,0.702112,0.0227225,-0.102406,-0.155548,0
0.0527436,-0.0176985,0.715695,0.0364846,-0.0975373,-0.087332,0
0.209301,0.0425946,0.720743,0.0334703,-0.0835312,-0.0200653,0
0.337166,0.124061,0.735492,0.0438513,-0.0534408,0.0397257,0
0.369638,0.213488,0.755851,0.0564003,-0.0223362,0.0859547,0
0.320947,0.240912,0.80564,0.0760965,0.0205598,0.0990165,0
0.25202,0.257467,0.871236,0.0869325,0.0606899,0.0764303,0
0.202608,0.244857,0.901087,0.0818311,0.104376,0.0391791,0
0.15095,0.200356,0.92912,0.0917798,0.140013,0.00797099,0
0.0441637,0.148273,0.982104,0.103466,0.162255,0.00863123,0
-0.0828751,0.128088,1.00943,0.0836954,0.16862,0.0253576,0
-0.121712,0.00620136,0.949203,0.0461647,0.16987,0.0311411,0
-0.0743158,-0.152376,0.810764,0.0209819,0.173858,0.069065,0
-0.00245106,-0.283957,0.662714,0.00173473,0.148248,0.141468,0
0.00287347,-0.29668,0.545353,0.00354179,0.117031,0.249456,0
-0.0961477,-0.124456,0.43071,-0.00510762,0.0724284,0.340196,0
-0.17308,0.069953,0.407803,0.00779223,0.0304121,0.348132,0
-0.283054,0.23072,0.396528,0.000424828,-0.0247666,0.323256,0
-0.493844,0.305913,0.485315,0.014225,-0.0492417,0.300956,0
-0.712723,0.263393,0.530197,-0.00990267,-0.0866352,0.234805,0
-0.839516,0.190017,0.574945,-0.0283534,-0.114205,0.138422,0
-0.801682,0.176317,0.527345,-0.0651706,-0.132967,0.0320171,0
-0.622155,0.22904,0.402842,-0.132918,-0.148553,-0.0555156,0
-0.413443,0.2533,0.186024,-0.19515,-0.155579,-0.120567,0
-0.241498,0.136509,-0.0654146,-0.226497,-0.159225,-0.163637,0
-0.160643,-0.0640239,-0.241305,-0.204886,-0.17897,-0.191394,0
-0.119703,-0.222272,-0.352542,-0.171275,-0.203145,-0.200015,0
-0.0494142,-0.263501,-0.41125,-0.155042,-0.216592,-0.211992,0
0.0338811,-0.403468,-0.395643,-0.144911,-0.233595,-0.224971,0
-0.0256413,-0.566317,-0.34742,-0.133877,-0.218706,-0.211087,0
-0.140927,-0.404166,-0.392972,-0.151721,-0.176403,-0.183272,0
-0.166441,0.166631,-0.446437,-0.166234,-0.147411,-0.22934,0
-0.0480542,0.531955,-0.429928,-0.151138,-0.115193,-0.354616,0
0.150134,0.486805,-0.52477,-0.166533,-0.0714511,-0.439187,0
0.361672,0.00955464,-0.719015,-0.16834,-0.0021995,-0.435089,0
0.463895,-0.472492,-0.94786,-0.172123,0.034804,-0.314962,0
0.469569,-0.700879,-1.13308,-0.149801,0.0420295,-0.129515,0
0.487258,-0.660736,-1.25707,-0.11609,0.0405968,0.019206,0
0.583315,-0.463213,-1.36185,-0.0818233,0.0596985,0.114212,0
0.633718,-0.156967,-1.46239,-0.0812331,0.0670157,0.199528,0
0.662188,0.0667857,-1.51869,-0.0568137,0.102898,0.237833,0
0.670424,0.196206,-1.57216,-0.0581841,0.137365,0.230096,0
0.670424,0.196206,-1.57216,-0.0581841,0.137365,0.230096,0.00265503
0.620353,0.361976,-1.67031,-0.0942167,0.174247,0.217758,0.00265503
0.484426,0.54171,-1.76745,-0.113583,0.207082,0.18741,0.00265503
0.307424,0.639155,-1.79067,-0.106505,0.209324,0.111165,0.00265503
0.165988,0.700046,-1.68089,-0.0621141,0.198863,-0.00759661,0.00265503
0.113709,0.760735,-1.4896,-0.050845,0.173809,-0.136575,0.00265503
0.178038,0.69807,-1.29976,-0.0641442,0.169411,-0.259249,0.00265503
0.344682,0.401689,-1.17974,-0.0927973,0.192146,-0.334722,0.00265503
0.51863,-0.0422322,-1.1492,-0.124402,0.222638,-0.321748,0.00265503
0.611377,-0.364777,-1.13137,-0.141569,0.237223,-0.219512,0.00265503
0.613271,-0.456806,-1.08212,-0.142248,0.233191,-0.0753884,0.00265503
0.604046,-0.381904,-0.995456,-0.138839,0.222017,0.0244018,0.00265503
0.630717,-0.254514,-0.896239,-0.133018,0.22845,0.0758212,0.00265503
0.645032,-0.148977,-0.792415,-0.133448,0.243052,0.100657,0.00265503
0.620213,-0.147356,-0.710963,-0.137617,0.269603,0.0919129,0.00265503
0.552083,-0.259501,-0.637925,-0.13054,0.302258,0.0723606,0.00265503
0.494999,-0.375955,-0.549418,-0.127215,0.318652,0.0439982,0.00265503
0.412944,-0.538272,-0.443153,-0.12402,0.339273,0.0416896,0.00265503
0.202088,-0.803067,-0.311574,-0.121034,0.347041,0.0753269,0.00265503
-0.171258,-1.13695,-0.152703,-0.093494,0.345403,0.119824,0.00265503
-0.519912,-1.28961,-0.0585042,-0.0645301,0.347018,0.143566,0.00265503
-0.769078,-1.06348,0.04233,-0.0502052,0.287569,0.148812,0.00265503
-0.93268,-0.590353,0.112797,-0.0687166,0.207031,0.137458,0.00265503
-0.909323,-0.250869,0.0613436,-0.102123,0.160764,0.0781354,0.00265503
-0.747239,-0.384947,-0.187478,-0.132181,0.168059,0.0184869,0.00265503
-0.659525,-0.809258,-0.51787,-0.149144,0.163035,0.0455309,0.00265503
-0.739223,-1.07031,-0.772389,-0.164143,0.11511,0.131,0.00265503
-0.85541,-1.13027,-1.00424,-0.17016,0.0899923,0.162276,0.00265503
-1.08094,-1.07649,-1.33589,-0.173413,0.0697651,0.157227,0.00265503
-1.29348,-0.746109,-1.66391,-0.129829,0.0426431,0.110893,0.00265503
-1.24343,-0.110009,-1.8862,-0.0493006,-0.0115902,-0.0172966,0.00265503
-0.944769,0.583316,-2.0752,0.0103986,-0.0403262,-0.178733,0.00265503
-0.636176,0.953112,-2.1523,0.0545699,-0.0878524,-0.314268,0.00265503
-0.449245,0.857405,-2.16783,0.0924353,-0.122236,-0.382832,0.00265503
-0.247309,0.319097,-2.12794,0.117205,-0.149877,-0.424935,0.00265503
-0.0306558,-0.403798,-2.04714,0.144194,-0.153476,-0.392926,0.00265503
0.0721015,-0.848739,-1.99508,0.126597,-0.146617,-0.231347,0.00265503
0.130039,-0.882547,-1.96919,0.103321,-0.149591,-0.0608998,0.00265503
0.248557,-0.644108,-1.90053,0.0966336,-0.144794,0.0447176,0.00265503
0.373039,-0.312352,-1.79081,0.0870553,-0.145022,0.111111,0.00265503
0.386218,-0.0871119,-1.6374,0.0783277,-0.123914,0.151336,0.00265503
0.239123,-0.0977966,-1.45743,0.0649675,-0.0953508,0.154015,0.00265503
0.0967089,-0.189577,-1.31273,0.00915682,-0.0664811,0.090732,0.00265503
0.098507,-0.28946,-1.31124,-0.0611144,0.00455594,-0.00435346,0.00265503
0.192023,-0.383563,-1.43404,-0.130776,0.0686766,-0.0812417,0.00265503
0.246043,-0.425759,-1.61208,-0.170645,0.123154,-0.111604,0.00265503
0.16813,-0.344463,-1.77854,-0.180744,0.15357,-0.116024,0.00265503
0.107476,-0.0131018,-1.94303,-0.150878,0.192621,-0.157908,0.00265503
0.312475,0.10367,-1.98976,-0.0914425,0.19159,-0.278065,0.00265503
0.541558,-0.161116,-1.94284,-0.0538617,0.189348,-0.309599,0.00265503
0.558613,-0.65773,-1.94531,-0.0443626,0.219656,-0.211848,0.00265503
0.384717,-0.915108,-1.97144,-0.036492,0.228686,-0.0545883,0.00265503
0.384717,-0.915108,-1.97144,-0.036492,0.228686,-0.0545883,0
0.261515,-0.793108,-1.90319,-0.0110309,0.198473,0.0446735,0
0.247588,-0.414865,-1.74305,-1.89282e-05,0.17126,0.0858135,0
0.264314,-0.135168,-1.57945,-0.0148,0.17101,0.0989089,0
0.213236,-0.206578,-1.48172,-0.0383063,0.206864,0.0905133,0
0.0963778,-0.492917,-1.45047,-0.0584053,0.246873,0.0909613,0
-0.0204241,-0.712183,-1.44627,-0.0912675,0.262591,0.103036,0
-0.0822514,-0.745518,-1.45453,-0.121773,0.268633,0.120166,0
-0.115374,-0.662445,-1.51687,-0.164233,0.28052,0.133583,0
-0.160652,-0.566853,-1.67722,-0.202323,0.313379,0.147423,0
-0.165659,-0.536605,-1.86493,-0.218658,0.330289,0.133751,0
-0.144806,-0.484406,-2.0219,-0.220145,0.335655,0.121128,0
-0.176532,-0.291557,-2.18345,-0.248417,0.321703,0.116218,0
-0.179346,-0.109521,-2.33019,-0.252318,0.322084,0.0565416,0
-0.218785,-0.0591861,-2.42203,-0.228747,0.31271,-0.0375329,0
-0.365307,-0.172973,-2.38882,-0.1653,0.268933,-0.13876,0
-0.528545,-0.301938,-2.20647,-0.0572123,0.201655,-0.257207,0
-0.559681,-0.325403,-1.97842,0.0133589,0.13631,-0.38628,0
-0.418465,-0.382354,-1.79993,0.0314309,0.0990711,-0.491948,0
-0.131967,-0.721644,-1.70535,0.0734731,0.0970365,-0.538085,0
0.139706,-1.18262,-1.66479,0.119041,0.100656,-0.466054,0
0.256373,-1.51388,-1.60045,0.165881,0.0856055,-0.282192,0
0.238502,-1.67412,-1.47419,0.229709,0.0693769,-0.0807432,0
0.149293,-1.65804,-1.28092,0.272818,0.0575919,0.0734054,0
0.0322016,-1.42331,-1.0654,0.287973,0.0422219,0.182327,0
-0.0504862,-1.03682,-0.906993,0.255909,0.0363791,0.231925,0
-0.0704668,-0.548146,-0.809628,0.222821,0.0604171,0.232581,0
-0.0573166,-0.234292,-0.776463,0.194214,0.0840873,0.195061,0
-0.0936392,-0.140452,-0.787196,0.156133,0.105828,0.1447,0
-0.170274,-0.176355,-0.816471,0.12666,0.107798,0.0929658,0
-0.239376,-0.182004,-0.830698,0.103519,0.085988,0.0316033,0
-0.179589,-0.134009,-0.812101,0.109698,0.0593606,-0.0437306,0
-0.0565383,-0.0236494,-0.743765,0.119716,0.0351287,-0.0984019,0
-0.00653078,0.071102,-0.638274,0.12258,0.00940979,-0.103163,0
-0.0400219,0.0317825,-0.487635,0.145353,-0.00707546,-0.0994592,0
-0.0984201,-0.103776,-0.308881,0.161533,-0.0189198,-0.0983392,0
-0.11459,-0.211175,-0.151396,0.162114,-0.0173669,-0.0988324,0
-0.0298944,-0.252883,-0.0783511,0.131062,-0.00870001,-0.101691,0
0.104823,-0.226964,-0.0692181,0.112504,0.0176286,-0.0702986,0
0.196248,-0.117043,-0.0831266,0.0899595,0.0206139,-0.0125658,0
0.214123,-0.0466295,-0.0498768,0.0934649,0.0199406,0.0522027,0
0.161321,-0.0467698,0.0404855,0.113648,0.0111051,0.111749,0
0.0402919,0.0126596,0.156157,0.10249,-0.00248712,0.16534,0
-0.0662188,0.147237,0.230327,0.0731566,-0.0060091,0.180728,0
-0.120287,0.261154,0.309789,0.0556986,-0.00912923,0.144232,0
-0.18222,0.364841,0.382804,0.0481286,-0.013315,0.112939,0
-0.248042,0.515841,0.428135,0.00563268,-0.0212698,0.0712138,0
-0.262502,0.6593,0.4639,-0.0490118,-0.0307093,0.00034523,0
-0.217001,0.5533,0.481333,-0.0814566,-0.0375722,-0.0917525,0
-0.203037,0.352734,0.468762,-0.110312,-0.0462994,-0.135008,0
-0.227055,0.285136,0.449819,-0.128166,-0.0744594,-0.137008,0
-0.227055,0.285136,0.449819,-0.128166,-0.0744594,-0.137008,0
-0.162645,0.278126,0.463316,-0.126558,-0.114814,-0.164843,0
-0.0392988,0.292689,0.495667,-0.120453,-0.120375,-0.177632,0
0.0990347,0.3314,0.459464,-0.132751,-0.138091,-0.170083,0
0.211956,0.221992,0.45439,-0.110583,-0.137726,-0.156019,0
0.229283,0.0496892,0.481975,-0.105145,-0.141568,-0.111483,0
0.203759,-0.111157,0.548126,-0.115388,-0.136229,-0.0733109,0
0.104136,-0.336625,0.609902,-0.133025,-0.115373,-0.0506167,0
0.0191767,-0.510739,0.583622,-0.166019,-0.0748468,-0.0485351,0
0.0282723,-0.607283,0.499537,-0.187871,-0.0301597,-0.0663376,0
0.176942,-0.533957,0.348951,-0.204414,0.0144546,-0.0802418,0
0.3838,-0.303236,0.180082,-0.214268,0.0556727,-0.0627034,0
0.499007,-0.0651821,0.0403775,-0.21098,0.087994,-0.0151026,0
0.436314,0.0574372,-0.0800262,-0.202651,0.115085,0.0490911,0
0.355063,0.106433,-0.176096,-0.180154,0.132355,0.0719234,0
0.301801,0.124021,-0.249362,-0.156641,0.149227,0.0823994,0
0.262811,0.0784059,-0.302129,-0.127083,0.157541,0.0867696,0
0.259066,-0.0314511,-0.320294,-0.092292,0.155233,0.0873584,0
0.235656,-0.187937,-0.277547,-0.0589125,0.14545,0.0985893,0
0.130222,-0.247377,-0.22953,-0.0540731,0.134843,0.136099,0
0.00438982,-0.275892,-0.202114,-0.0600318,0.120441,0.148588,0
-0.0256612,-0.290949,-0.231704,-0.064549,0.109277,0.123874,0
0.0425674,-0.344845,-0.223704,-0.0396057,0.0977771,0.109466,0
0.0440786,-0.405754,-0.208744,-0.0224207,0.0885771,0.15186,0
-0.0335822,-0.501329,-0.175926,-0.00625661,0.0706146,0.21072,0
-0.161291,-0.52378,-0.16265,-0.00238627,0.0563831,0.269048,0
-0.284828,-0.476597,-0.176891,0.00392903,0.0371282,0.305278,0
-0.367692,-0.315324,-0.195874,0.00562949,0.0230503,0.310917,0
-0.406181,-0.122523,-0.196271,0.0168459,0.0127414,0.27669,0
-0.476243,0.0589251,-0.197035,0.0132591,-0.00219747,0.228341,0
-0.559272,0.235471,-0.231104,0.00357941,-0.0119919,0.157826,0
-0.648948,0.305908,-0.209225,0.0176204,-0.0294071,0.0597536,0
-0.756681,0.263641,-0.129261,0.0302933,-0.067724,-0.0505269,0
-0.781319,0.0322996,-0.0688721,0.0359748,-0.0847487,-0.165852,0
-0.727942,-0.202814,-0.110146,0.0152989,-0.0913178,-0.228587,0
-0.618614,-0.370094,-0.269566,-0.0116383,-0.0803838,-0.237468,0
-0.530204,-0.425646,-0.44647,-0.0116558,-0.0942994,-0.205346,0
-0.482032,-0.3323,-0.54605,0.033416,-0.133984,-0.166906,0
-0.410328,-0.166864,-0.570499,0.0841512,-0.173513,-0.148319,0
-0.347129,0.0209025,-0.560587,0.119752,-0.193654,-0.131217,0
-0.273208,0.163913,-0.575365,0.136528,-0.198414,-0.123764,0
-0.117257,0.272226,-0.62191,0.153196,-0.180812,-0.131456,0
0.0585072,0.389188,-0.667145,0.149848,-0.170054,-0.108478,0
0.127863,0.423166,-0.656549,0.153503,-0.169267,-0.0636637,0
0.114013,0.32796,-0.618038,0.160741,-0.15862,-0.0141938,0
0.0450515,0.197464,-0.530547,0.164337,-0.15768,0.0377036,0
-0.0794837,0.10732,-0.418794,0.152856,-0.156537,0.0966287,0
-0.194943,0.138078,-0.352566,0.109476,-0.146249,0.139031,0
-0.259121,0.22432,-0.333075,0.0649774,-0.127482,0.15888,0
-0.301303,0.31361,-0.341513,0.0242075,-0.119671,0.174905,0
-0.319558,0.424973,-0.374668,-0.00817513,-0.117245,0.185504,0
-0.319558,0.424973,-0.374668,-0.00817513,-0.117245,0.185504,0
-0.293731,0.509349,-0.428619,-0.036722,-0.111793,0.189056,0
-0.286797,0.532192,-0.463047,-0.0637257,-0.11148,0.196035,0
-0.317631,0.445399,-0.494034,-0.0964733,-0.115269,0.208259,0
-0.393399,0.282999,-0.539335,-0.128632,-0.111156,0.225579,0
-0.488614,0.174665,-0.616463,-0.166552,-0.111787,0.235584,0
-0.525823,0.187899,-0.703714,-0.210947,-0.128525,0.20951,0
-0.418002,0.279929,-0.820036,-0.258615,-0.138631,0.1382,0
-0.269582,0.314794,-0.988645,-0.309245,-0.135004,0.0724633,0
-0.168117,0.167253,-1.16221,-0.341144,-0.137367,-0.000248551,0
-0.130588,-0.220576,-1.27933,-0.377381,-0.163561,-0.103576,0
-0.241839,-0.530858,-1.29833,-0.37368,-0.198102,-0.19815,0
-0.411595,-0.133534,-1.21265,-0.326426,-0.210676,-0.310168,0
-0.198912,0.565498,-1.03664,-0.372585,-0.245458,-0.546875,0
0.266075,0.926132,-1.04034,-0.402071,-0.132179,-0.741592,0
0.761075,0.573144,-1.29142,-0.375819,0.0245926,-0.819202,0
1.06926,-0.0891027,-1.61042,-0.289967,0.107089,-0.727458,0
1.21721,-0.689245,-1.81473,-0.166818,0.127911,-0.522572,0
1.33975,-1.05619,-1.80285,-0.0613113,0.12563,-0.271664,0
1.35927,-1.34734,-1.68507,0.00858759,0.145998,-0.0176644,0
1.11852,-1.60623,-1.56798,0.0363332,0.174789,0.221973,0
0.622166,-1.64847,-1.45289,0.0416404,0.182319,0.394069,0
0.016399,-1.33391,-1.41256,-0.0205208,0.151408,0.460431,0
-0.444699,-0.999469,-1.35602,-0.0462399,0.157584,0.392471,0
-0.669973,-0.738786,-1.44144,-0.0547767,0.230195,0.22997,0
-0.680077,-0.475097,-1.55482,-0.0501001,0.260886,0.0582172,0
-0.459731,-0.144907,-1.71544,-0.0758502,0.279113,-0.0987886,0
0.0074205,0.113754,-1.93963,-0.099146,0.303282,-0.209101,0
0.528799,0.239921,-2.19939,-0.109176,0.343575,-0.217218,0
0.799799,0.152679,-2.38143,-0.0794827,0.359002,-0.118849,0
0.737769,-0.0375895,-2.37292,0.00800829,0.345021,0.0262743,0
0.563889,-0.189857,-2.19398,0.0782117,0.295822,0.121893,0
0.398984,-0.221013,-1.92693,0.104752,0.263298,0.194806,0
0.228765,-0.0872943,-1.68441,0.0861822,0.243756,0.256562,0
0.108259,0.11395,-1.49581,0.0546558,0.243616,0.26616,0
0.0544811,0.247627,-1.37017,0.0197242,0.240912,0.220027,0
0.0308325,0.139376,-1.2352,0.0212565,0.233491,0.166925,0
-0.00993824,-0.0574168,-1.06961,0.0220264,0.21008,0.140899,0
-0.129112,-0.266754,-0.838221,0.0158703,0.18378,0.139078,0
-0.333663,-0.473929,-0.5428,0.0173042,0.156293,0.143458,0
-0.60681,-0.705567,-0.252376,0.011235,0.137454,0.143889,0
-0.838371,-0.83888,0.0291125,-0.00322776,0.113217,0.120287,0
-0.979191,-0.872009,0.252584,-0.0194612,0.100398,0.0723885,0
-1.10101,-0.79918,0.364675,-0.0399636,0.0922262,0.047406,0
-1.25329,-0.822636,0.447596,-0.0507865,0.0510283,0.00386006,0
-1.49488,-0.613253,0.594559,0.000925682,0.0292889,-0.0361179,0
-1.69048,-0.220021,0.790578,0.0138716,-0.034631,-0.136292,0
-1.64818,0.165749,0.802074,-0.00977482,-0.064299,-0.299669,0
-1.38022,0.243974,0.60057,-0.0230669,-0.0664447,-0.45201,0
-0.93805,0.056583,0.244684,-0.0116536,-0.0852676,-0.550617,0
-0.500405,-0.245098,-0.0657219,0.0358926,-0.135251,-0.54799,0
-0.25128,-0.413529,-0.193015,0.100154,-0.197956,-0.434247,0
-0.0757159,-0.462677,-0.249739,0.150458,-0.241121,-0.303575,0
0.0924158,-0.441723,-0.230444,0.206225,-0.234498,-0.191306,0
0.251491,-0.293568,-0.214554,0.216789,-0.227642,-0.091728,0
0.458072,-0.102589,-0.238095,0.213949,-0.204551,-0.0302794,0
0.606334,0.141237,-0.223096,0.23366,-0.164052,0.0269039,0
0.684466,0.388029,-0.159861,0.240471,-0.141962,0.0558058,0
0.738367,0.60913,-0.036983,0.244968,-0.107657,0.0355933,0
0.766044,0.68941,0.0852232,0.2346,-0.0559054,0.00242281,0
0.768733,0.632183,0.229415,0.223489,-0.00201309,-0.012949,0
0.717504,0.443589,0.376147,0.194266,0.0359698,-0.000722468,0
0.651406,0.162805,0.501867,0.155291,0.0694205,0.0321755,0
0.576916,-0.139294,0.575868,0.127153,0.113956,0.0946119,0
0.529437,-0.336646,0.575624,0.0968941,0.140003,0.170394,0
0.501016,-0.32846,0.557519,0.0766489,0.149659,0.251804,0
0.457858,-0.188783,0.582004,0.0675482,0.144204,0.323968,0
0.339295,0.0185734,0.646879,0.0568646,0.131855,0.371693,0
0.148887,0.225253,0.711676,0.0319146,0.117331,0.383854,0
-0.0176527,0.354804,0.731444,0.00934181,0.11304,0.352711,0
-0.132796,0.346413,0.730154,0.00101721,0.1056,0.287801,0
-0.255362,0.257999,0.739605,-0.00915857,0.0754833,0.225951,0
-0.387656,0.121498,0.803104,-0.00710921,0.0361219,0.17075,0
-0.522354,0.00833684,0.883076,-0.0292396,-0.000463784,0.12302,0
-0.650416,-0.0784297,0.871287,-0.0832473,-0.0174273,0.0821101,0
-0.777492,-0.103419,0.77959,-0.134556,-0.0327883,0.0348495,0
-0.813297,-0.0239031,0.63578,-0.168608,-0.0629271,-0.0400255,0
-0.813297,-0.0239031,0.63578,-0.168608,-0.0629271,-0.0400255,0
-0.698758,0.181587,0.4648,-0.196523,-0.0885281,-0.132484,0
-0.473403,0.176444,0.299556,-0.219815,-0.117171,-0.222277,0
-0.402448,-0.1069,0.169502,-0.226638,-0.144927,-0.237343,0
-0.58473,-0.266768,0.0365311,-0.255714,-0.171743,-0.18769,0
-0.752409,-0.0900864,-0.0470204,-0.257404,-0.207064,-0.203088,0
-0.750134,0.271935,-0.114975,-0.261357,-0.223242,-0.328297,0
-0.531664,0.410699,-0.214772,-0.276113,-0.202431,-0.472051,0
-0.227982,0.203293,-0.456114,-0.283837,-0.147673,-0.543539,0
0.025436,-0.263721,-0.760942,-0.276142,-0.0954082,-0.512508,0
0.116379,-0.661713,-1.02327,-0.246445,-0.080486,-0.373723,0
0.182056,-0.894073,-1.23395,-0.188493,-0.0689407,-0.207941,0
0.288813,-0.902906,-1.41656,-0.125817,-0.0340944,-0.0595324,0
0.460923,-0.808597,-1.59518,-0.0855901,-0.00721881,0.0680919,0
0.57413,-0.641765,-1.73887,-0.0520851,0.0234629,0.197267,0
0.492873,-0.349703,-1.84889,-0.0379393,0.0358075,0.319155,0
0.273619,-0.0167505,-1.88587,-0.0389911,0.0283808,0.336482,0
0.102522,0.452253,-1.88276,-0.0521218,0.0200387,0.266155,0
0.139654,0.906838,-1.92043,-0.0784615,0.047997,0.0940514,0
0.326338,1.19982,-1.89191,-0.0832163,0.0832078,-0.0990043,0
0.542274,1.15764,-1.80575,-0.0859301,0.0950627,-0.253251,0
0.688212,0.836323,-1.6909,-0.0974384,0.128728,-0.323844,0
0.768301,0.256575,-1.60294,-0.0969577,0.175649,-0.328655,0
0.731901,-0.270654,-1.46912,-0.066541,0.213857,-0.247227,0
0.649733,-0.57518,-1.27741,-0.043719,0.211181,-0.127499,0
0.631568,-0.596386,-1.12268,-0.041977,0.228439,-0.0303928,0
0.760733,-0.361549,-1.09113,-0.0668228,0.262372,0.0346299,0
0.950179,-0.106906,-1.10878,-0.0763153,0.297671,0.103667,0
1.01259,0.0206107,-1.06956,-0.0624907,0.304509,0.185359,0
0.887386,0.0177634,-0.911352,-0.0218229,0.286628,0.258713,0
0.643311,-0.117921,-0.655196,0.01652,0.254772,0.297108,0
0.323551,-0.247152,-0.39087,0.0230758,0.237343,0.32101,0
0.122627,-0.330495,-0.210817,0.0134672,0.23625,0.302471,0
0.0450249,-0.333373,-0.103944,0.00818135,0.246947,0.272747,0
-0.0368398,-0.482123,0.0241875,0.0399501,0.232999,0.254829,0
-0.280763,-0.825455,0.237346,0.102976,0.195277,0.260647,0
-0.546249,-0.991023,0.45945,0.146331,0.126634,0.2365,0
-0.647514,-0.751906,0.625996,0.157411,0.0563548,0.188401,0
-0.610278,0.0109989,0.696502,0.148694,0.00567988,0.131876,0
-0.548596,0.902418,0.6855,0.107641,-0.0573503,0.0466483,0
-0.476956,1.3903,0.625679,0.0852861,-0.104811,-0.0886094,0
-0.45386,0.939036,0.686977,0.107575,-0.14045,-0.212253,0
-0.775472,0.00490365,0.839552,0.174273,-0.107646,-0.200633,0
-1.40975,-0.822792,1.06916,0.168021,-0.139761,-0.12225,0
-1.87781,-1.07787,1.41046,0.124219,-0.185514,-0.139969,0
-1.87221,-0.91075,1.54506,0.0335902,-0.15481,-0.247558,0
-1.41886,-0.603132,1.27673,-0.0991146,-0.0785028,-0.338072,0
-0.727022,-0.199059,0.705821,-0.21122,-0.0152602,-0.342863,0
-0.0206461,0.186599,0.0231223,-0.262647,0.018376,-0.288069,0
0.483667,0.409459,-0.508445,-0.200434,0.0167843,-0.193636,0
0.643957,0.412755,-0.722024,-0.040321,-0.0150387,-0.0721108,0
0.592129,0.36741,-0.664272,0.0956222,-0.0451939,-0.000238597,0
0.438462,0.385934,-0.39485,0.199642,-0.056888,0.0238718,0
0.326645,0.476424,-0.035818,0.243385,-0.0516792,-0.0027225,0
0.24593,0.550233,0.319201,0.249339,-0.0115667,-0.0243469,0
0.24593,0.550233,0.319201,0.249339,-0.0115667,-0.0243469,0
0.131038,0.474107,0.594207,0.190084,0.0320026,-0.0458068,0
-0.0012402,0.117431,0.756783,0.13484,0.0753336,-0.0697517,0
-0.0738757,-0.307389,0.804483,0.081304,0.104008,-0.058089,0
-0.0242803,-0.533332,0.775453,0.0225809,0.0992292,-0.0261183,0
0.170842,-0.649278,0.67355,0.000911072,0.0949174,0.019946,0
0.336995,-0.730446,0.5893,0.0412798,0.096699,0.124216,0
0.379294,-0.660672,0.580138,0.0846321,0.0549572,0.239732,0
0.309266,-0.476708,0.669524,0.121745,0.0147551,0.326798,0
0.156214,-0.161451,0.790552,0.117386,-0.0269238,0.365465,0
0.0082639,0.180811,0.9299,0.102529,-0.0760297,0.326605,0
-0.0134761,0.398146,1.00001,0.0974861,-0.0808199,0.207298,0
-0.0241587,0.528704,1.03899,0.104069,-0.0966634,0.0820938,0
-0.0111059,0.724987,1.11009,0.10847,-0.12392,-0.0617192,0
-0.014727,0.905569,1.23906,0.0973064,-0.125395,-0.202569,0
0.0424033,0.649102,1.3547,0.076874,-0.121012,-0.358253,0
0.154292,-0.0231126,1.35821,0.0775106,-0.0656466,-0.434407,0
0.353882,-0.499349,1.20876,0.0428229,-0.0252144,-0.40375,0
0.627226,-0.459366,1.0934,0.0165124,-0.0207316,-0.297396,0
0.948309,-0.234024,1.01112,0.025646,-0.0230724,-0.202279,0
1.1424,-0.307889,0.998913,0.0452973,-0.0514595,-0.122451,0
1.08152,-0.291458,0.968873,0.0576865,-0.0767972,0.00617224,0
0.877139,0.109354,0.927414,0.0485275,-0.106041,0.0961553,0
0.666402,0.664789,0.928465,0.0218783,-0.184011,0.0947451,0
0.54281,1.06219,1.04251,0.0231902,-0.191064,0.0411286,0
0.614907,1.09842,0.953471,-0.0351281,-0.15393,-0.0401826,0
0.60437,0.994686,0.758745,-0.0845458,-0.0912804,-0.0135724,0
0.391489,0.95667,0.614324,-0.134597,-0.105265,0.0597957,0
0.192489,0.903274,0.576046,-0.145445,-0.0888176,0.0675488,0
0.177366,0.687184,0.408069,-0.195094,-0.012028,0.0342028,0
0.288851,0.259371,0.0485596,-0.28101,0.0837094,0.0479205,0
0.338991,-0.202693,-0.4048,-0.338839,0.130594,0.119073,0
0.279694,-0.478728,-0.879276,-0.380093,0.128038,0.204001,0
0.0958478,-0.57725,-1.32289,-0.385655,0.114289,0.25351,0
-0.0324256,-0.324025,-1.73825,-0.375647,0.0819865,0.241375,0
-0.0686463,0.239356,-2.02379,-0.341536,0.0675901,0.174761,0
-0.0537457,0.822432,-2.18401,-0.294388,0.0504103,0.0755541,0
0.0859652,1.07997,-2.20632,-0.229214,0.0325496,-0.0490112,0
0.27728,1.05688,-2.14784,-0.209999,0.0394759,-0.13845,0
0.368716,0.781571,-2.13595,-0.230439,0.0883337,-0.141285,0
0.334672,0.303679,-2.13565,-0.22894,0.118653,-0.117032,0
0.289789,-0.207416,-2.08098,-0.196536,0.115186,-0.0852506,0
0.284689,-0.367218,-2.01753,-0.201275,0.103371,-0.0267771,0
0.33568,-0.219723,-1.97291,-0.23635,0.0972646,0.0274364,0
0.349978,0.0357697,-1.9339,-0.264636,0.102516,0.0670958,0
0.392742,0.29052,-1.90609,-0.285691,0.100586,0.0536933,0
0.562891,0.444187,-1.83393,-0.30185,0.0966591,-0.0137858,0
0.721463,0.377201,-1.70434,-0.31826,0.102762,-0.0448694,0
0.735864,0.0486495,-1.57582,-0.322103,0.124943,-0.0247329,0
0.637491,-0.401749,-1.44218,-0.318397,0.138138,0.00900263,0
0.525285,-0.761221,-1.32643,-0.334244,0.128848,0.0366717,0
0.386783,-0.991269,-1.18248,-0.348581,0.105375,0.0459275,0
0.21325,-1.23639,-1.02822,-0.332116,0.0854637,0.0290598,0
0.015945,-1.35444,-0.809136,-0.282668,0.0750862,-0.00965738,0
-0.129226,-1.30626,-0.527331,-0.241826,0.0483897,-0.0718129,0
-0.129226,-1.30626,-0.527331,-0.241826,0.0483897,-0.0718129,0
-0.0509837,-1.09113,-0.256334,-0.228173,0.0476241,-0.183036,0
0.0356151,-1.07937,-0.146583,-0.259465,0.0731975,-0.247936,0
-0.0117969,-1.23356,-0.192528,-0.209811,0.151369,-0.229582,0
-0.1301,-1.39971,-0.0893933,-0.049512,0.126059,-0.194388,0
-0.258442,-1.22915,0.142842,0.0467777,0.0626796,-0.16506,0
-0.374436,-1.05428,0.282916,0.0743727,0.0619196,-0.166707,0
-0.543633,-1.15214,0.19007,0.0908447,0.106707,-0.195495,0
-0.736768,-1.55852,-0.0741552,0.0826113,0.134057,-0.225583,0
-0.704846,-1.85827,-0.482791,0.10823,0.147714,-0.253883,0
-0.37971,-1.82981,-0.884218,0.158133,0.130356,-0.25474,0
0.0150264,-1.36625,-1.13889,0.205912,0.105197,-0.179426,0
0.201497,-0.80973,-1.30367,0.258917,0.109702,-0.043964,0
0.113243,-0.227665,-1.45266,0.281812,0.115544,0.0617863,0
0.0107749,0.218537,-1.53447,0.316126,0.12455,0.0633391,0
0.0395369,0.465998,-1.5122,0.359084,0.117636,0.00591826,0
0.185752,0.48453,-1.33152,0.409247,0.105217,-0.0335237,0
0.273643,0.372015,-1.08128,0.383477,0.0927955,-0.00326526,0
0.224939,0.167844,-0.877728,0.320559,0.0992047,0.0900846,0
0.128252,0.0556646,-0.766327,0.250901,0.134221,0.176945,0
0.063873,0.120779,-0.711088,0.187696,0.142553,0.240261,0
0.0416817,0.213168,-0.585782,0.176766,0.139744,0.286649,0
-0.065856,0.286047,-0.366794,0.168199,0.118788,0.340401,0
-0.279631,0.420509,-0.116774,0.146787,0.0945037,0.369173,0
-0.474278,0.496309,0.153639,0.107563,0.0861317,0.328471,0
-0.588678,0.464793,0.356147,0.0682977,0.103232,0.251789,0
-0.623422,0.401654,0.47771,-0.00177094,0.106871,0.174588,0
-0.620923,0.322644,0.516427,-0.0743258,0.106491,0.109847,0
-0.587626,0.132163,0.528304,-0.0862897,0.0917148,0.0441844,0
-0.580072,-0.0831139,0.56287,-0.079563,0.0364718,-0.000263333,0
-0.616163,-0.231419,0.632705,-0.0714416,-0.0192988,-0.0140932,0
-0.651228,-0.2335,0.693048,-0.0725068,-0.0651606,-0.0353769,0
-0.654922,-0.162311,0.713273,-0.0805617,-0.0988632,-0.0716288,0
-0.631953,-0.0564452,0.705101,-0.0818787,-0.125483,-0.104367,0
-0.499114,0.0728012,0.63561,-0.0928385,-0.146041,-0.147647,0
-0.301331,0.138057,0.530688,-0.0984299,-0.165308,-0.178973,0
-0.135742,0.0996182,0.42733,-0.0972709,-0.184145,-0.182663,0
-0.146461,-0.278285,0.434291,-0.0845656,-0.228268,-0.172497,0
-0.468467,-0.588984,0.448302,-0.111295,-0.272832,-0.103797,0
-0.830491,-0.602968,0.447086,-0.158771,-0.305733,-0.101005,0
-0.823637,-0.150834,0.338955,-0.226913,-0.292615,-0.230602,0
-0.379392,0.316806,0.105741,-0.278909,-0.228504,-0.415559,0
0.126034,0.369438,-0.23488,-0.325391,-0.176967,-0.489002,0
0.402645,0.0306488,-0.554687,-0.324489,-0.113192,-0.420951,0
0.372997,-0.382295,-0.769663,-0.304364,-0.0990235,-0.271546,0
0.290323,-0.692333,-0.896061,-0.282821,-0.0960172,-0.154934,0
0.31517,-0.725817,-1.03204,-0.287068,-0.0842468,-0.102024,0
0.323037,-0.541347,-1.19178,-0.315073,-0.0659988,-0.0614667,0
0.303971,-0.202211,-1.38625,-0.33232,-0.0306916,-0.0546535,0
0.361107,0.200063,-1.59483,-0.331952,0.0182696,-0.113765,0
0.537446,0.580206,-1.84297,-0.322061,0.0990165,-0.205667,0
0.804215,0.59972,-2.03769,-0.266167,0.161725,-0.292291,0
1.02155,0.274414,-2.12252,-0.188097,0.199936,-0.279405,0
1.09667,-0.190672,-2.09665,-0.111536,0.227592,-0.174355,0
1.04669,-0.627316,-2.02074,-0.047257,0.248631,-0.0256049,0
1.04669,-0.627316,-2.02074,-0.047257,0.248631,-0.0256049,0
0.987656,-0.776892,-1.94044,0.00878983,0.266524,0.12538,0
0.931509,-0.691468,-1.78037,0.073597,0.263682,0.253081,0
0.828588,-0.398463,-1.56005,0.100718,0.24088,0.344515,0
0.740069,-0.0233588,-1.3584,0.0797319,0.244757,0.370353,0
0.689539,0.237048,-1.20334,0.0478591,0.275344,0.347606,0
0.663178,0.354669,-1.04945,0.0265812,0.294241,0.293348,0
0.607395,0.330811,-0.886353,0.0100369,0.300502,0.237139,0
0.497078,0.113738,-0.76053,-0.0249503,0.298389,0.197036,0
0.389559,-0.174234,-0.694694,-0.0492504,0.299841,0.157707,0
0.283703,-0.357918,-0.575456,-0.0445139,0.237606,0.144498,0
0.121385,-0.282356,-0.34719,-0.0258424,0.138708,0.146009,0
-0.125233,-0.080428,-0.0261421,0.0139533,0.0650406,0.136658,0
-0.389902,0.0964025,0.276689,0.00911723,0.00718665,0.064792,0
-0.606592,-0.120411,0.539705,-0.0208164,-0.0397207,-0.0606459,0
-0.757629,-0.697512,0.544327,-0.0639127,-0.0274814,-0.143978,0
-0.82306,-1.16695,0.335409,-0.095882,-0.0332831,-0.169469,0
-0.811102,-0.922365,0.207061,-0.017831,-0.0231209,-0.137654,0
-0.670843,-0.211513,0.254076,0.0671544,-0.0930429,-0.161672,0
-0.53576,0.40695,0.434988,0.131037,-0.132632,-0.217758,0
-0.418149,0.530724,0.505924,0.123648,-0.109703,-0.288075,0
-0.261109,0.171417,0.472801,0.111968,-0.0472595,-0.317724,0
-0.0854766,-0.341137,0.334503,0.0945329,-0.0147034,-0.286481,0
0.0113599,-0.621463,0.208775,0.117145,0.024276,-0.17198,0
0.107168,-0.559872,0.141963,0.154836,0.043923,-0.0493815,0
0.259372,-0.321785,0.118394,0.191144,0.0840364,0.0317079,0
0.326594,0.00920874,0.0564154,0.201631,0.132597,0.10813,0
0.283646,0.289489,-0.020987,0.215477,0.164763,0.143525,0
0.14083,0.372449,0.000564526,0.250082,0.172977,0.142156,0
-0.0935233,0.348238,0.142378,0.294135,0.157837,0.136577,0
-0.350326,0.320807,0.363099,0.300611,0.131862,0.13196,0
-0.514439,0.297811,0.577867,0.273077,0.0994737,0.115889,0
-0.581334,0.326394,0.707744,0.202519,0.0732937,0.106554,0
-0.565308,0.455457,0.71933,0.10662,0.033509,0.110328,0
-0.388905,0.565807,0.654165,0.042126,-0.00623769,0.0612144,0
-0.200761,0.573228,0.625271,0.0352559,-0.0447516,0.0371898,0
-0.0157516,0.390427,0.652579,0.0505215,-0.0855985,0.0208921,0
0.0716551,0.114158,0.733306,0.0676752,-0.107547,0.0524033,0
0.0592477,-0.000212263,0.829336,0.0599162,-0.113173,0.112982,0
0.0335432,0.0750767,0.911558,0.0358047,-0.116564,0.149476,0
0.0921853,0.26062,0.897239,-0.00329936,-0.102736,0.129653,0
0.236004,0.381983,0.830835,-0.0302934,-0.0827368,0.080195,0
0.308242,0.425792,0.740108,-0.0603623,-0.0796116,0.0568399,0
0.289212,0.332887,0.644197,-0.080936,-0.093336,0.0359898,0
0.191675,0.0580409,0.507502,-0.0838497,-0.0893889,0.0167086,0
0.0523579,-0.143158,0.388274,-0.0754328,-0.0881293,0.00600445,0
-0.0400699,-0.0905543,0.306605,-0.0670282,-0.117918,-0.0120308,0
0.0338081,0.0502917,0.273435,-0.0623343,-0.13984,-0.0827552,0
0.13911,0.0532262,0.196484,-0.0826046,-0.138882,-0.134468,0
0.137403,-0.164377,0.0914953,-0.117305,-0.131522,-0.127989,0
-0.0495645,-0.0993497,-0.0320985,-0.139964,-0.106019,-0.0736015,0
-0.252425,0.15606,-0.0710345,-0.102364,-0.0958383,-0.0949623,0
-0.379465,0.434339,0.0184764,-0.0669395,-0.116012,-0.204542,0
-0.333399,0.392715,0.075728,-0.0639987,-0.0928589,-0.346357,0
-0.333399,0.392715,0.075728,-0.0639987,-0.0928589,-0.346357,0.0052948
-0.0814497,-0.0695135,-0.0101254,-0.0785699,-0.0189399,-0.411383,0.0052948
0.121892,-0.664457,-0.287338,-0.1099,0.0739626,-0.318379,0.0052948
0.17344,-0.861969,-0.535826,-0.113311,0.0923269,-0.126326,0.0052948
0.217608,-0.812291,-0.650793,-0.0943651,0.0666023,0.0142658,0.0052948
0.283251,-0.639167,-0.669927,-0.0769065,0.0695088,0.106194,0.0052948
0.285225,-0.448705,-0.688383,-0.0838198,0.0948346,0.175292,0.0052948
0.174979,-0.280715,-0.734666,-0.117321,0.116868,0.22152,0.0052948
-0.0344891,-0.149388,-0.805466,-0.153697,0.132859,0.235381,0.0052948
-0.25977,-0.0197791,-0.915781,-0.177569,0.149641,0.202044,0.0052948
-0.424333,0.155108,-1.03134,-0.169507,0.175574,0.132202,0.0052948
-0.366789,0.218953,-1.07682,-0.13615,0.158616,0.00623792,0.0052948
-0.241625,0.258161,-1.04462,-0.103053,0.158022,-0.0682626,0.0052948
-0.135294,0.181885,-1.00504,-0.0894922,0.15423,-0.102652,0.0052948
-0.0496788,-0.119369,-0.979578,-0.0763564,0.168353,-0.106231,0.0052948
-0.0375161,-0.481138,-1.00067,-0.0757638,0.186905,-0.0550925,0.0052948
-0.0924174,-0.61116,-1.04883,-0.0672966,0.196452,0.046615,0.0052948
-0.0860957,-0.424995,-1.05208,-0.0542368,0.164708,0.10755,0.0052948
-0.0286637,-0.202972,-0.973646,-0.024849,0.13672,0.13567,0.0052948
-0.0346834,-0.125582,-0.871764,-0.0126586,0.120979,0.158046,0.0052948
-0.179249,-0.182278,-0.781389,0.00383364,0.107828,0.190097,0.0052948
-0.303305,-0.195278,-0.703034,-0.000746703,0.0733641,0.167802,0.0052948
-0.307673,-0.138067,-0.662646,-0.0118169,0.0522705,0.109398,0.0052948
-0.219831,-0.080313,-0.696817,-0.0227563,0.025229,0.038025,0.0052948
-0.122532,-0.0941055,-0.733321,-0.0176342,-0.00828916,-0.016418,0.0052948
-0.0988163,-0.153138,-0.717707,0.0294415,-0.0419464,-0.0368502,0.0052948
-0.179148,-0.161495,-0.617081,0.084469,-0.0925243,-0.0446914,0.0052948
-0.269991,-0.0463893,-0.430207,0.116376,-0.14062,-0.0797604,0.0052948
-0.282513,0.0272637,-0.268559,0.128057,-0.149232,-0.147691,0.0052948
-0.196373,0.0183649,-0.207051,0.124107,-0.139421,-0.218477,0.0052948
-0.0184443,-0.0419248,-0.231265,0.133114,-0.127018,-0.267027,0.0052948
0.132003,-0.253112,-0.150648,0.165247,-0.148133,-0.280429,0.0052948
-0.00276808,-0.210537,0.0269629,0.23254,-0.144268,-0.200922,0.0052948
-0.179533,-0.00308514,0.229401,0.264304,-0.10991,-0.179779,0.0052948
-0.258085,0.356658,0.48715,0.272444,-0.105886,-0.216883,0.0052948
-0.156205,0.572622,0.661316,0.248358,-0.059634,-0.292209,0.0052948
0.166513,0.612383,0.571084,0.180499,0.0312506,-0.322182,0.0052948
0.604365,0.47995,0.352991,0.112508,0.0909428,-0.273329,0.0052948
0.878181,0.229197,0.189885,0.101964,0.116742,-0.113071,0.0052948
0.808494,-0.0270432,0.176945,0.151293,0.116378,0.0985645,0.0052948
0.568827,-0.0931642,0.296111,0.198603,0.110583,0.247885,0.0052948
0.37812,0.122921,0.523463,0.225862,0.105111,0.289113,0.0052948
0.317499,0.472891,0.745646,0.204577,0.124554,0.257789,0.0052948
0.254582,0.655137,0.878137,0.162845,0.192697,0.217331,0.0052948
0.0466863,0.625252,0.962974,0.114199,0.239043,0.209829,0.0052948
-0.239823,0.521232,1.05127,0.0638638,0.241434,0.199766,0.0052948
-0.447582,0.314846,1.13445,0.0371861,0.228628,0.155526,0.0052948
-0.51688,-0.0204306,1.20568,0.0264921,0.224014,0.121679,0.0052948
-0.558026,-0.231049,1.25823,0.00184015,0.213032,0.15308,0.0052948
-0.538838,-0.234733,1.25256,-0.0478801,0.190421,0.202274,0.0052948
-0.472224,-0.124637,1.1683,-0.0893421,0.1743,0.236628,0.0052948
-0.423017,0.0451676,1.02477,-0.127831,0.147199,0.259839,0.0052948
-0.476475,0.213107,0.872853,-0.137235,0.104763,0.283599,0.0052948
-0.549185,0.314034,0.746479,-0.130812,0.0432055,0.255114,0.0052948
-0.572539,0.358575,0.665972,-0.121789,-0.0060426,0.197665,0.0052948
-0.572539,0.358575,0.665972,-0.121789,-0.0060426,0.197665,0.0237885
-0.564331,0.322461,0.611715,-0.138723,-0.055953,0.130071,0.0237885
-0.615695,0.192154,0.566447,-0.158232,-0.0971181,0.0702562,0.0237885
-0.671176,0.0177308,0.494554,-0.1828,-0.14436,0.00186998,0.0237885
-0.696229,-0.0806511,0.393566,-0.222691,-0.184926,-0.0705867,0.0237885
-0.655964,-0.00717853,0.259611,-0.265155,-0.218126,-0.156657,0.0237885
-0.543025,0.167383,0.115275,-0.285635,-0.245602,-0.238373,0.0237885
-0.396654,0.304966,-0.0218819,-0.281675,-0.24962,-0.320041,0.0237885
-0.271119,0.242295,-0.108999,-0.255502,-0.266615,-0.398293,0.0237885
-0.232498,0.194817,-0.161761,-0.249061,-0.247624,-0.436065,0.0237885
-0.232457,0.0977651,-0.268976,-0.244316,-0.208708,-0.463517,0.0237885
-0.155751,-0.106835,-0.377983,-0.234267,-0.180081,-0.486144,0.0237885
0.0108559,-0.416644,-0.502013,-0.230058,-0.137748,-0.461593,0.0237885
0.14115,-0.729739,-0.688765,-0.243296,-0.0883605,-0.350112,0.0237885
0.170925,-0.86173,-0.904859,-0.234155,-0.0425461,-0.179735,0.0237885
0.203083,-0.693509,-1.07047,-0.204911,-0.0226162,-0.0429354,0.0237885
0.364175,-0.382573,-1.2346,-0.188856,0.00673622,0.0376353,0.0237885
0.576291,-0.285038,-1.40987,-0.189655,0.0535631,0.108356,0.0237885
0.594738,-0.418349,-1.59498,-0.183527,0.103172,0.219263,0.0237885
0.371474,-0.4688,-1.74413,-0.170825,0.128015,0.308733,0.0237885
0.117832,-0.322713,-1.93038,-0.196801,0.113855,0.314012,0.0237885
0.0329953,0.0290875,-2.03673,-0.189999,0.125121,0.211691,0.0237885
0.0576475,0.363926,-2.04335,-0.158703,0.137103,0.0812241,0.0237885
0.0989513,0.558089,-1.95469,-0.135005,0.142774,-0.0498165,0.0237885
0.184429,0.574451,-1.80717,-0.125979,0.161988,-0.184596,0.0237885
0.340032,0.303322,-1.68542,-0.132603,0.195928,-0.282953,0.0237885
0.482839,-0.198424,-1.63511,-0.145904,0.221406,-0.281011,0.0237885
0.580243,-0.663757,-1.63475,-0.147824,0.235776,-0.173899,0.0237885
0.603211,-0.863283,-1.63763,-0.110412,0.236429,-0.00590527,0.0237885
0.625188,-0.753,-1.50342,-0.0500509,0.191473,0.142766,0.0237885
0.606012,-0.521387,-1.29757,-0.00442306,0.164634,0.262344,0.0237885
0.504803,-0.277716,-1.09677,-0.00596312,0.145888,0.33529,0.0237885
0.315575,-0.232963,-0.941794,-0.0207054,0.151474,0.352952,0.0237885
0.108195,-0.328827,-0.817865,-0.0352206,0.146002,0.319241,0.0237885
-0.0173891,-0.449245,-0.676543,-0.0498671,0.124946,0.232734,0.0237885
-0.123547,-0.594769,-0.482219,-0.0438224,0.102143,0.150309,0.0237885
-0.239517,-0.660755,-0.337999,-0.0642537,0.0834354,0.0821208,0.0237885
-0.274344,-0.650591,-0.274762,-0.093202,0.0762233,0.00928462,0.0237885
-0.268154,-0.470351,-0.283186,-0.105536,0.0707626,-0.0472515,0.0237885
-0.337324,-0.248497,-0.231353,-0.0674205,0.0454031,-0.106421,0.0237885
-0.43646,-0.154993,-0.112703,-0.018999,0.00919563,-0.190635,0.0237885
-0.544778,-0.355628,0.0458356,0.0133872,-0.0240269,-0.276718,0.0237885
-0.697949,-0.587003,0.130715,0.0445296,-0.0397211,-0.332003,0.0237885
-0.780116,-0.732706,0.186321,0.0968503,-0.0312519,-0.360816,0.0237885
-0.751754,-0.64199,0.259574,0.128405,-0.0765301,-0.366064,0.0237885
-0.589636,-0.397858,0.271076,0.143799,-0.0824338,-0.364559,0.0237885
-0.180284,-0.248623,0.106744,0.136868,-0.0570177,-0.376363,0.0237885
0.285948,-0.229636,-0.0873867,0.129806,-0.0426143,-0.306663,0.0237885
0.569736,-0.322729,-0.240678,0.145393,-0.0210309,-0.146808,0.0237885
0.610498,-0.484465,-0.309742,0.185132,-0.014844,0.0312587,0.0237885
0.539552,-0.453133,-0.322537,0.229174,-0.00654739,0.15604,0.0237885
0.518415,-0.057977,-0.315782,0.244739,0.000352919,0.200437,0.0237885
0.615242,0.342684,-0.22717,0.27157,0.0289603,0.153764,0.0237885
0.625188,0.626731,-0.0921525,0.272195,0.0694745,0.122563,0.0237885
0.483944,0.707784,0.0606199,0.229277,0.113237,0.089653,0.0237885
0.483944,0.707784,0.0606199,0.229277,0.113237,0.089653,0.0475616
0.30075,0.521873,0.244837,0.209948,0.145073,0.0448812,0.0475616
0.0771317,0.290154,0.44224,0.166222,0.167141,0.0368057,0.0475616
-0.086504,0.0939216,0.553821,0.0974087,0.180715,0.0485409,0.0475616
-0.0904294,-0.0184415,0.569542,0.0363139,0.20829,0.0769448,0.0475616
-0.0307091,-0.0844935,0.514483,-0.0123647,0.218175,0.139294,0.0475616
-0.0509253,-0.0771504,0.451558,-0.0337037,0.210358,0.243797,0.0475616
-0.166312,0.0106626,0.419182,-0.0364069,0.177805,0.339592,0.0475616
-0.356507,0.168757,0.468697,-0.0258826,0.134281,0.397098,0.0475616
-0.508926,0.281294,0.565992,-0.0133036,0.0907353,0.375275,0.0475616
-0.594976,0.304826,0.648759,-0.019043,0.0624793,0.296255,0.0475616
-0.649229,0.239837,0.613445,-0.0601551,0.051362,0.216332,0.0475616
-0.697765,0.162069,0.515453,-0.0914916,0.037966,0.140295,0.0475616
-0.716945,-0.00109369,0.450959,-0.0887761,-0.00961807,0.0657959,0.0475616
-0.715034,-0.180909,0.465709,-0.0773924,-0.0763722,-0.0050903,0.0475616
-0.693416,-0.368138,0.482769,-0.062499,-0.122261,-0.0547155,0.0475616
-0.669986,-0.380168,0.476971,-0.0684541,-0.153306,-0.0879984,0.0475616
-0.66034,-0.160245,0.457921,-0.088386,-0.184808,-0.111851,0.0475616
-0.525506,0.132174,0.369938,-0.108095,-0.205124,-0.194971,0.0475616
-0.327514,0.209182,0.271119,-0.107007,-0.216428,-0.272805,0.0475616
-0.160008,-0.0436705,0.143951,-0.0928088,-0.216975,-0.294853,0.0475616
-0.137435,-0.521801,0.0878725,-0.0711255,-0.228245,-0.24805,0.0475616
-0.311028,-0.707152,0.0945613,-0.0888926,-0.283931,-0.154395,0.0475616
-0.425208,-0.447014,0.0924334,-0.11251,-0.298176,-0.134329,0.0475616
-0.280987,0.0515514,0.0375924,-0.141128,-0.291617,-0.226117,0.0475616
0.0150916,0.371177,-0.0478208,-0.156722,-0.250981,-0.35615,0.0475616
0.266386,0.261774,-0.188321,-0.173289,-0.200213,-0.432446,0.0475616
0.427042,-0.0942505,-0.361992,-0.179335,-0.150589,-0.42961,0.0475616
0.511946,-0.342545,-0.539291,-0.17096,-0.101168,-0.360024,0.0475616
0.677002,-0.412731,-0.70374,-0.15285,-0.0657784,-0.280158,0.0475616
0.924576,-0.447227,-0.825453,-0.117726,-0.0186401,-0.194279,0.0475616
1.06975,-0.444868,-0.918551,-0.100271,0.0146696,-0.0647265,0.0475616
1.02815,-0.313715,-0.982282,-0.0895706,0.0476778,0.0637273,0.0475616
0.873159,0.00376662,-1.02585,-0.0858639,0.0685163,0.143883,0.0475616
0.739423,0.384082,-1.02583,-0.0962272,0.0780834,0.122573,0.0475616
0.725976,0.542958,-0.999646,-0.0857669,0.117145,0.0280055,0.0475616
0.708504,0.468261,-0.976875,-0.0646063,0.170003,-0.0382432,0.0475616
0.709136,0.379476,-0.976626,-0.071002,0.20806,-0.0714964,0.0475616
0.760505,0.256088,-0.96654,-0.0681077,0.247851,-0.0721937,0.0475616
0.818387,0.0660425,-0.994628,-0.0573678,0.296377,-0.0264257,0.0475616
0.813865,-0.176643,-0.993191,-0.0289261,0.325919,0.059881,0.0475616
0.695473,-0.409171,-0.941843,0.00987528,0.335627,0.180581,0.0475616
0.479454,-0.482227,-0.853927,0.0468666,0.342151,0.293763,0.0475616
0.256885,-0.386723,-0.724446,0.0726723,0.324515,0.355919,0.0475616
0.0693247,-0.187606,-0.586871,0.0834797,0.31579,0.38072,0.0475616
0.00658882,0.0623139,-0.542993,0.0628231,0.323111,0.353542,0.0475616
0.0382874,0.207293,-0.508328,0.0555481,0.323621,0.298607,0.0475616
-0.0246696,0.113658,-0.423367,0.0511827,0.305385,0.267772,0.0475616
-0.234132,-0.10372,-0.328328,0.0543518,0.264952,0.265479,0.0475616
-0.471432,-0.194852,-0.208292,0.0588049,0.214637,0.248681,0.0475616
-0.673902,-0.215289,-0.0262018,0.062882,0.148937,0.191365,0.0475616
-0.866608,-0.154553,0.0911807,0.0485591,0.102719,0.115166,0.0475616
-0.942493,-0.0298195,0.127707,0.0328841,0.0596745,0.00753987,0.0475616
-0.898123,0.127214,0.200649,0.0641438,0.0110014,-0.103891,0.0475616
-0.851224,0.190031,0.309799,0.0764298,-0.0620161,-0.190775,0.0475616
-0.851224,0.190031,0.309799,0.0764298,-0.0620161,-0.190775,0.0475616
-0.864407,0.131759,0.437989,0.105351,-0.116733,-0.250246,0.0475616
-0.921079,-0.198856,0.608235,0.130897,-0.177831,-0.310289,0.0475616
-0.988087,-0.357567,0.786364,0.167973,-0.194569,-0.337931,0.0475616
-0.850293,-0.237241,0.945237,0.178742,-0.215965,-0.373527,0.0475616
-0.594356,0.135502,1.02805,0.16012,-0.212995,-0.388655,0.0475616
-0.248382,0.390221,0.980523,0.151973,-0.183917,-0.403687,0.0475616
0.226362,0.507603,0.851406,0.152121,-0.146576,-0.38819,0.0475616
0.608199,0.604373,0.765239,0.160619,-0.122779,-0.28268,0.0475616
0.760688,0.610402,0.784827,0.195256,-0.10888,-0.140816,0.0475616
0.764174,0.400839,0.919359,0.248609,-0.0772809,-0.0304004,0.0475616
0.678091,0.13392,1.09852,0.280274,-0.0242138,0.0537531,0.0475616
0.52508,-0.0277905,1.26552,0.292031,0.0292306,0.115192,0.0475616
0.419519,0.175845,1.3089,0.260026,0.0880643,0.128518,0.0475616
0.473581,0.652362,1.28516,0.233954,0.156621,0.0603234,0.0475616
0.593891,1.01237,1.29206,0.248819,0.227326,-0.0313416,0.0475616
0.534226,1.10437,1.45459,0.287834,0.260233,-0.0837674,0.0475616
0.337263,1.00638,1.70169,0.285974,0.265722,-0.109534,0.0475616
0.161229,0.62024,1.91037,0.244707,0.292147,-0.138244,0.0475616
0.0745729,0.129403,1.94822,0.167248,0.324014,-0.115514,0.0475616
0.117194,-0.227092,1.86736,0.113093,0.344917,-0.0208077,0.0475616
0.185599,-0.312329,1.74803,0.0837948,0.329574,0.135959,0.0475616
0.21522,-0.158532,1.64696,0.0877775,0.29505,0.294045,0.0475616
0.177002,0.18651,1.61572,0.0979175,0.248913,0.412675,0.0475616
0.00931714,0.574279,1.64964,0.0951574,0.200902,0.47742,0.0475616
-0.307911,0.793278,1.68265,0.0722288,0.157093,0.482971,0.0475616
-0.574014,0.804518,1.6724,0.0376496,0.127803,0.396257,0.0475616
-0.655723,0.755243,1.57597,-0.0076506,0.104722,0.255125,0.0475616
-0.634338,0.680658,1.42808,-0.0466681,0.0601221,0.142049,0.0475616
-0.638078,0.544367,1.30642,-0.0688886,0.00153002,0.0788102,0.0475616
-0.630185,0.34566,1.26776,-0.0511204,-0.0706,0.0161088,0.0475616
-0.671897,0.167816,1.30248,-0.0529865,-0.139974,-0.0247985,0.0475616
-0.786954,0.0508917,1.28592,-0.09269,-0.186513,-0.0487191,0.0475616
-0.785021,0.110448,1.16155,-0.138902,-0.207979,-0.111954,0.0475616
-0.548711,0.445213,0.928053,-0.185094,-0.212922,-0.203349,0.0475616
-0.249028,0.595761,0.754886,-0.215672,-0.23981,-0.288414,0.0475616
-0.202618,0.448517,0.654756,-0.216885,-0.255962,-0.288852,0.0475616
-0.47663,0.412804,0.671065,-0.195419,-0.261096,-0.259509,0.0475616
-0.673068,0.661945,0.763288,-0.186386,-0.290436,-0.353879,0.0475616
-0.447293,0.806948,0.763079,-0.203204,-0.257561,-0.561949,0.0475616
0.0365502,0.511739,0.557861,-0.232595,-0.161913,-0.670339,0.0475616
0.458791,-0.16572,0.264546,-0.250607,-0.0917693,-0.617867,0.0475616
0.5147,-0.679946,0.0551171,-0.215477,-0.0641057,-0.38953,0.0475616
0.480462,-0.780961,-0.0308761,-0.15424,-0.0813228,-0.17996,0.0475616
0.603005,-0.61618,-0.0701854,-0.104118,-0.0443191,-0.0597546,0.0475616
0.82747,-0.463311,-0.173834,-0.0932529,0.0131071,0.0431567,0.0475616
0.933029,-0.412995,-0.307668,-0.0885998,0.0726812,0.166942,0.0475616
0.818003,-0.383032,-0.424339,-0.0783461,0.101375,0.272077,0.0475616
0.571084,-0.222511,-0.510636,-0.0694508,0.105811,0.332929,0.0475616
0.257005,0.106448,-0.534041,-0.061014,0.100387,0.33247,0.0475616
0.068478,0.507106,-0.575383,-0.0640514,0.116196,0.248127,0.0475616
0.0866428,0.706769,-0.640949,-0.044618,0.163018,0.0960604,0.0475616
0.147233,0.632976,-0.667641,-0.0370527,0.179294,-0.0165044,0.0475616
0.177119,0.342019,-0.654473,-0.0337898,0.177287,-0.0639961,0.0475616
0.188585,-0.0551695,-0.676239,-0.0543419,0.181713,-0.0579091,0.0475616
0.188585,-0.0551695,-0.676239,-0.0543419,0.181713,-0.0579091,0.0475616
0.183121,-0.331968,-0.782282,-0.0719013,0.204537,0.0210339,0.0475616
0.141256,-0.284885,-0.867263,-0.0653756,0.193147,0.136658,0.0475616
0.107755,-0.0357847,-0.832713,-0.0277375,0.14475,0.218366,0.0475616
0.0911538,0.166216,-0.690136,0.0104067,0.101448,0.253265,0.0475616
-0.0130958,0.216948,-0.534561,0.0183234,0.0857309,0.283879,0.0475616
-0.17657,0.163833,-0.41942,-0.002872,0.0783805,0.284476,0.0475616
-0.32765,0.0444438,-0.329684,-0.0184599,0.0768247,0.257704,0.0475616
-0.370882,-0.0627949,-0.28711,-0.0284695,0.0627164,0.188433,0.0475616
-0.286822,-0.0611327,-0.260579,-0.0488423,0.040038,0.106863,0.0475616
-0.165044,-0.0192337,-0.234486,-0.0713921,0.0111596,0.0357798,0.0475616
-0.131732,0.00165233,-0.195761,-0.0722399,-0.00538135,0.0012027,0.0475616
-0.172542,0.0420104,-0.123542,-0.0586894,-0.0308962,-0.0404193,0.0475616
-0.254129,0.112023,-0.0369282,-0.0550503,-0.0492548,-0.0970821,0.0475616
-0.278459,0.0830203,0.0752288,-0.0376329,-0.0765466,-0.183652,0.0475616
-0.351438,-0.292752,0.288423,-0.0149808,-0.113532,-0.257746,0.0475616
-0.542185,-0.568674,0.523621,0.0338829,-0.123944,-0.27898,0.0475616
-0.70068,-0.530318,0.77012,0.0395729,-0.116463,-0.296898,0.0475616
-0.72201,-0.235074,0.835013,-0.0173915,-0.0668318,-0.335031,0.0475616
-0.581431,-0.109568,0.691994,-0.0622703,-0.0172892,-0.417641,0.0475616
-0.26446,-0.0795258,0.396665,-0.0664367,0.000929803,-0.479046,0.0475616
0.163066,-0.143164,0.172672,0.00582387,-0.00523676,-0.492712,0.0475616
0.52304,-0.223274,0.0466715,0.094238,-0.0109509,-0.406217,0.0475616
0.762881,-0.380955,-0.0583821,0.16264,0.0161023,-0.247868,0.0475616
0.882134,-0.44204,-0.0843886,0.237368,0.0467084,-0.0535873,0.0475616
0.913444,-0.381624,-0.082764,0.295403,0.0738188,0.111841,0.0475616
0.827272,-0.253048,0.000999266,0.358887,0.0946821,0.233676,0.0475616
0.659303,-0.0645126,0.210222,0.402177,0.1001,0.318921,0.0475616
0.428484,0.159725,0.47476,0.407009,0.110343,0.362668,0.0475616
0.20672,0.335808,0.69451,0.366407,0.132051,0.355896,0.0475616
0.105873,0.39476,0.80965,0.288612,0.165226,0.293119,0.0475616
0.0522697,0.311565,0.819977,0.21904,0.203647,0.250277,0.0475616
-0.0113457,0.177622,0.767265,0.155046,0.206683,0.248253,0.0475616
-0.108195,0.106698,0.75908,0.122079,0.181481,0.256614,0.0475616
-0.210932,0.117378,0.805569,0.112661,0.143113,0.257096,0.0475616
-0.348383,0.157971,0.878553,0.0939198,0.1014,0.248842,0.0475616
-0.55969,0.227571,0.914481,0.0413511,0.0612944,0.236454,0.0475616
-0.667248,0.230204,0.894749,0.0274656,0.0346506,0.162687,0.0475616
-0.614802,0.234341,0.859464,0.0166611,-0.00203635,0.0576938,0.0475616
-0.457238,0.19858,0.792255,-0.0187408,-0.0425141,-0.0189794,0.0475616
-0.328744,0.0713354,0.641653,-0.0621624,-0.0630494,-0.0314575,0.0475616
-0.293703,-0.0221765,0.465296,-0.0885578,-0.0888829,0.000197589,0.0475616
-0.302716,0.0396526,0.331244,-0.109249,-0.137769,0.0180095,0.0475616
-0.269343,0.164805,0.219135,-0.131279,-0.16846,-0.0115929,0.0475616
-0.222668,0.309844,0.107284,-0.152627,-0.191917,-0.0720602,0.0475616
-0.159937,0.418948,-0.0137611,-0.16547,-0.205571,-0.155379,0.0475616
-0.0462724,0.357977,-0.124851,-0.173618,-0.214032,-0.252809,0.0475616
0.0394051,-0.103228,-0.17339,-0.180425,-0.217775,-0.329264,0.0475616
-0.110384,-0.478824,-0.262257,-0.199704,-0.208891,-0.293431,0.0475616
-0.204055,-0.277923,-0.386232,-0.200871,-0.168878,-0.279391,0.0475616
-0.0155556,0.229335,-0.444116,-0.206482,-0.181734,-0.378724,0.0475616
0.293013,0.305052,-0.515924,-0.204311,-0.142479,-0.481738,0.0475616
0.489083,-0.0990671,-0.715987,-0.208408,-0.0479035,-0.439953,0.0475616
0.509101,-0.559444,-0.875988,-0.198577,0.000383958,-0.297611,0.0475616
0.509101,-0.559444,-0.875988,-0.198577,0.000383958,-0.297611,0.0422821
0.401748,-0.681264,-0.940789,-0.193678,0.00227717,-0.114806,0.0422821
0.383167,-0.512405,-1.05549,-0.194023,0.0359766,5.85914e-05,0.0422821
0.529133,-0.235835,-1.26614,-0.21635,0.10086,0.0680643,0.0422821
0.715735,-0.160661,-1.46912,-0.203878,0.157422,0.131586,0.0422821
0.713988,-0.301127,-1.61295,-0.171396,0.199065,0.234302,0.0422821
0.474767,-0.458662,-1.67142,-0.144392,0.208272,0.33209,0.0422821
0.165627,-0.522089,-1.63666,-0.123356,0.186167,0.361456,0.0422821
-0.109939,-0.348636,-1.54665,-0.134733,0.15822,0.326373,0.0422821
-0.340425,-0.202015,-1.40341,-0.141085,0.154917,0.248949,0.0422821
-0.505152,-0.0785979,-1.27063,-0.111097,0.161897,0.145616,0.0422821
-0.473475,0.150892,-1.09906,-0.131512,0.146331,0.0129572,0.0422821
-0.333738,0.273052,-0.953024,-0.164619,0.168227,-0.0819044,0.0422821
-0.187748,0.0226296,-0.963849,-0.210145,0.197363,-0.142002,0.0422821
-0.110688,-0.497248,-1.01266,-0.184401,0.227112,-0.144784,0.0422821
-0.109781,-0.796944,-0.984507,-0.153112,0.200156,-0.0780328,0.0422821
-0.128166,-0.794503,-0.846521,-0.11525,0.14862,0.0058912,0.0422821
-0.0991371,-0.715573,-0.724329,-0.108078,0.119826,0.0519152,0.0422821
-0.0419368,-0.694218,-0.73479,-0.132797,0.12783,0.0950726,0.0422821
-0.0461591,-0.614801,-0.830438,-0.160456,0.129561,0.150772,0.0422821
-0.0623387,-0.440416,-0.977014,-0.184354,0.107766,0.1687,0.0422821
-0.0406874,-0.406829,-1.05407,-0.14718,0.0764799,0.129563,0.0422821
0.00133415,-0.391677,-1.08546,-0.113059,0.0471709,0.0888678,0.0422821
0.0446519,-0.282052,-1.08217,-0.129506,0.0110467,0.0524031,0.0422821
0.0175148,-0.140925,-1.10291,-0.173278,0.013344,0.0313224,0.0422821
-0.10368,0.018404,-1.17217,-0.205402,0.0156136,-0.00303495,0.0422821
-0.131,0.24732,-1.24726,-0.213346,0.0177711,-0.10192,0.0422821
-0.050277,0.472884,-1.31575,-0.210904,0.0319407,-0.218268,0.0422821
-0.012017,0.324794,-1.32099,-0.193895,0.00838622,-0.324661,0.0422821
-0.297162,-0.071101,-1.13695,-0.115688,0.00541997,-0.340848,0.0422821
-0.776597,-0.32379,-0.958992,-0.0649458,0.0369961,-0.282057,0.0422821
-1.04575,-0.061052,-0.812479,-0.0493501,0.0389857,-0.270586,0.0422821
-0.874313,0.17822,-0.760639,-0.0614504,0.0670169,-0.339755,0.0422821
-0.468898,0.111121,-0.978577,-0.110624,0.122325,-0.340256,0.0422821
-0.00753904,-0.162999,-1.3505,-0.157496,0.154088,-0.246418,0.0422821
0.366541,-0.373042,-1.75783,-0.164721,0.187381,-0.0811685,0.0422821
0.592946,-0.452354,-2.09114,-0.102577,0.199218,0.101255,0.0422821
0.702302,-0.383415,-2.24184,-0.0222083,0.166199,0.241844,0.0422821
0.740408,-0.281402,-2.22536,0.0298384,0.12466,0.326811,0.0422821
0.650029,-0.0290059,-2.09476,0.0224513,0.0980128,0.382121,0.0422821
0.46521,0.131817,-1.90333,0.021817,0.078811,0.37535,0.0422821
0.200024,0.102098,-1.705,0.0103849,0.0984399,0.324607,0.0422821
-0.164904,-0.00872078,-1.5213,-0.0170857,0.103388,0.26739,0.0422821
-0.53351,-0.131845,-1.32815,-0.0431803,0.0942136,0.187797,0.0422821
-0.724511,-0.228611,-1.15607,-0.0674413,0.0905511,0.0759605,0.0422821
-0.655643,-0.260272,-1.10307,-0.137638,0.110018,-0.031381,0.0422821
-0.448099,-0.392342,-1.23176,-0.228438,0.153999,-0.0746342,0.0422821
-0.337241,-0.561232,-1.50382,-0.289797,0.183663,-0.0201673,0.0422821
-0.314513,-0.624924,-1.77421,-0.304912,0.16199,0.0499576,0.0422821
-0.278465,-0.519339,-1.97582,-0.274968,0.112414,0.0915372,0.0422821
-0.278481,-0.303755,-2.05847,-0.236401,0.057634,0.11127,0.0422821
-0.322723,-0.206418,-2.03531,-0.185154,0.0119039,0.0813682,0.0422821
-0.411648,-0.250551,-1.95645,-0.133169,-0.0182128,0.0303208,0.0422821
-0.415034,-0.309333,-1.88333,-0.0945738,-0.0258735,-0.0556972,0.0422821
-0.2481,-0.388633,-1.83606,-0.0782146,-0.0198468,-0.149556,0.0422821
-0.2481,-0.388633,-1.83606,-0.0782146,-0.0198468,-0.149556,0.0422821
-0.00839576,-0.576623,-1.84668,-0.0555879,-0.00649348,-0.206206,0.0422821
0.161339,-0.8777,-1.85214,-0.000484698,-0.00360842,-0.190278,0.0422821
0.175531,-1.07061,-1.75659,0.0796713,-0.0215609,-0.110376,0.0422821
0.130722,-1.0162,-1.56606,0.1541,-0.0434478,-0.0504457,0.0422821
0.17067,-0.765919,-1.31035,0.226382,-0.0369447,-0.0562945,0.0422821
0.295576,-0.322241,-1.07331,0.253482,-0.0217394,-0.0867169,0.0422821
0.430108,-0.137201,-0.918628,0.267166,0.0303654,-0.126282,0.0422821
0.480681,-0.247571,-0.822832,0.295081,0.0707924,-0.126893,0.0422821
0.542539,-0.409005,-0.68781,0.337183,0.0732155,-0.0956043,0.0422821
0.581681,-0.593061,-0.487383,0.382139,0.0751346,-0.0258358,0.0422821
0.52324,-0.703054,-0.310293,0.379186,0.0683566,0.0904892,0.0422821
0.388259,-0.671585,-0.151113,0.344168,0.054811,0.19249,0.0422821
0.255845,-0.539064,-0.0401521,0.281861,0.0376028,0.235953,0.0422821
0.109963,-0.316516,0.0386482,0.224913,0.0134147,0.22454,0.0422821
-0.154628,0.142001,0.116672,0.166,0.00509989,0.199938,0.0422821
-0.630308,0.768182,0.305838,0.122561,-0.0462825,0.119524,0.0422821
-1.0839,1.21354,0.613227,0.122541,-0.0953947,-0.112579,0.0422821
-1.07684,1.15581,0.908147,0.0662874,-0.114303,-0.455375,0.0422821
-0.651462,0.434284,0.842056,-0.0591316,-0.0123801,-0.699982,0.0422821
-0.149347,-0.497777,0.333828,-0.182258,0.0986418,-0.655778,0.0422821
0.24996,-1.08597,-0.175175,-0.212622,0.121025,-0.426581,0.0422821
0.455587,-1.13652,-0.444364,-0.130543,0.0541311,-0.11743,0.0422821
0.571683,-0.968582,-0.503474,-0.0504851,-0.00244257,0.133983,0.0422821
0.537463,-0.796814,-0.452073,0.00764401,-0.0204354,0.349518,0.0422821
0.308439,-0.451829,-0.380855,-0.0055002,-0.0468519,0.500792,0.0422821
-0.0391968,0.107107,-0.275124,-0.0399352,-0.0881473,0.546231,0.0422821
-0.315302,0.791736,-0.144473,-0.0894864,-0.102727,0.450141,0.0422821
-0.401267,1.24142,-0.139781,-0.171565,-0.10053,0.226955,0.0422821
-0.442361,1.31275,-0.133587,-0.171119,-0.0430591,0.00019449,0.0422821
-0.504603,1.16366,-0.0808704,-0.161403,-0.0440815,-0.20619,0.0422821
-0.351697,0.740124,-0.0341555,-0.188828,-0.0340653,-0.429693,0.0422821
0.0705799,0.0852978,-0.149933,-0.216279,0.030663,-0.567285,0.0422821
0.48725,-0.665953,-0.422486,-0.209568,0.113401,-0.503111,0.0422821
0.627461,-1.01755,-0.635801,-0.160779,0.127738,-0.239665,0.0422821
0.664691,-0.992181,-0.680173,-0.0713813,0.0919048,-0.0082249,0.0422821
0.657466,-0.780387,-0.598246,0.01166,0.0722871,0.150895,0.0422821
0.581301,-0.491773,-0.444096,0.0635756,0.0556299,0.264904,0.0422821
0.416803,-0.217392,-0.259923,0.0759439,0.0465209,0.341437,0.0422821
0.264212,-0.0497491,-0.104078,0.0733126,0.0632529,0.354361,0.0422821
0.144579,0.0888366,0.0175682,0.0512257,0.0770651,0.330686,0.0422821
0.115883,0.138743,0.0828026,0.00092686,0.0775566,0.250823,0.0422821
0.168797,0.0722853,0.0890935,-0.0344031,0.100178,0.163752,0.0422821
0.145419,0.0697832,0.00132799,-0.0837784,0.103631,0.130893,0.0422821
0.0636043,0.108014,-0.133164,-0.0992495,0.0823109,0.092024,0.0422821
0.0881533,0.077581,-0.162256,-0.0688036,0.0362214,-0.0034309,0.0422821
0.128826,-0.0276589,-0.112577,-0.0207663,0.0094732,-0.0637007,0.0422821
0.0481289,-0.0939867,-0.0382677,0.00958911,-0.00424194,-0.0540574,0.0422821
-0.13342,-0.0678825,0.0730656,0.0368112,-0.0256953,-0.0498478,0.0422821
-0.256695,0.0604798,0.157413,0.0451943,-0.0406034,-0.0988344,0.0422821
-0.225606,0.144168,0.183843,0.0394016,-0.0386345,-0.188038,0.0422821
-0.228021,0.035865,0.188573,0.0197755,-0.0624467,-0.232698,0.0422821
-0.416637,-0.0200622,0.226341,0.0693154,-0.0540454,-0.206774,0.0422821
-0.562987,0.0578244,0.362926,0.115625,-0.0890959,-0.230939,0.0422821
-0.548278,0.255716,0.528363,0.127063,-0.122759,-0.282858,0.0422821
-0.548278,0.255716,0.528363,0.127063,-0.122759,-0.282858,0.0422821
-0.338485,0.325974,0.531097,0.0944236,-0.0859251,-0.330625,0.0422821
0.0128551,0.23211,0.350868,0.046863,-0.0371619,-0.305841,0.0422821
0.257995,0.0888562,0.202804,0.0332282,-0.0316277,-0.182524,0.0422821
0.312546,0.0156696,0.123067,0.0619273,-0.0405557,-0.0182155,0.0422821
0.342649,0.0167077,0.130324,0.104624,-0.0404716,0.0968688,0.0422821
0.403309,0.158773,0.209598,0.131999,-0.0380536,0.164818,0.0422821
0.460094,0.452675,0.325554,0.124979,-0.0241252,0.200014,0.0422821
0.509552,0.701491,0.405106,0.104972,0.023304,0.182779,0.0422821
0.497132,0.829764,0.450316,0.0807438,0.0863752,0.132878,0.0422821
0.437919,0.745731,0.545999,0.0775403,0.123723,0.0570729,0.0422821
0.306362,0.537577,0.714728,0.0954166,0.152785,0.00668192,0.0422821
0.117214,0.260367,0.930176,0.0965294,0.167472,-0.0140752,0.0422821
-0.0511675,-0.027151,1.14373,0.0775124,0.18215,-0.00277907,0.0422821
-0.144867,-0.243387,1.23131,0.0176777,0.207194,0.0353337,0.0422821
-0.15359,-0.321002,1.15969,-0.0457542,0.236341,0.10707,0.0422821
-0.132365,-0.297748,1.01917,-0.072163,0.232355,0.188991,0.0422821
-0.139824,-0.169743,0.882008,-0.0772342,0.200228,0.275329,0.0422821
-0.203487,-0.0211821,0.807447,-0.0580348,0.156231,0.34492,0.0422821
-0.337319,0.12473,0.806634,-0.0312787,0.110345,0.379923,0.0422821
-0.513937,0.245732,0.815208,-0.0442237,0.0617689,0.368768,0.0422821
-0.636712,0.223897,0.784794,-0.0544278,0.0369831,0.299004,0.0422821
-0.655685,0.185912,0.709096,-0.0829183,0.00569132,0.205899,0.0422821
-0.609232,0.14959,0.59199,-0.111646,-0.0235299,0.12392,0.0422821
-0.574633,0.148835,0.467191,-0.126602,-0.0534727,0.0797413,0.0422821
-0.527336,0.146222,0.387448,-0.139094,-0.110347,0.0193145,0.0422821
-0.470282,0.103939,0.331332,-0.156938,-0.150075,-0.0394402,0.0422821
-0.481012,0.0515934,0.231279,-0.194544,-0.168556,-0.0794351,0.0422821
-0.546549,-0.0610238,0.104836,-0.220908,-0.186987,-0.120921,0.0422821
-0.55903,-0.0675757,-0.0174283,-0.225995,-0.195931,-0.180218,0.0422821
-0.456214,0.0966232,-0.154935,-0.23057,-0.205996,-0.251558,0.0422821
-0.25501,0.16242,-0.301437,-0.236258,-0.202481,-0.334253,0.0422821
-0.118871,-0.0115705,-0.449383,-0.246175,-0.208897,-0.363546,0.0422821
-0.0956484,-0.185744,-0.566315,-0.217993,-0.188641,-0.34676,0.0422821
-0.0911478,-0.274416,-0.613346,-0.184834,-0.199234,-0.340586,0.0422821
-0.0234461,-0.305324,-0.629774,-0.173963,-0.203348,-0.344587,0.0422821
0.150737,-0.46541,-0.731156,-0.173517,-0.159593,-0.338381,0.0422821
0.299209,-0.63156,-0.870864,-0.16759,-0.121099,-0.266337,0.0422821
0.334697,-0.604748,-0.977514,-0.156974,-0.109595,-0.152697,0.0422821
0.370113,-0.408173,-1.02307,-0.128108,-0.0981581,-0.0844637,0.0422821
0.516116,-0.148783,-1.07408,-0.112149,-0.0670197,-0.0777938,0.0422821
0.753554,-0.060679,-1.17343,-0.115298,-0.00564152,-0.0905238,0.0422821
0.91063,-0.252928,-1.32777,-0.115902,0.0661325,-0.0412417,0.0422821
0.880256,-0.459611,-1.4467,-0.101669,0.102437,0.0629953,0.0422821
0.726648,-0.421862,-1.49156,-0.0847747,0.104589,0.154219,0.0422821
0.558999,-0.060293,-1.47445,-0.0790108,0.0939911,0.181121,0.0422821
0.493879,0.409523,-1.43298,-0.093475,0.0893703,0.128429,0.0422821
0.50877,0.595626,-1.40923,-0.101381,0.129732,0.0272951,0.0422821
0.485191,0.453624,-1.37887,-0.0925479,0.163688,-0.047662,0.0422821
0.416629,0.177619,-1.29133,-0.0827871,0.170108,-0.0925744,0.0422821
0.407916,-0.103471,-1.19708,-0.0767926,0.181468,-0.102439,0.0422821
0.458063,-0.316218,-1.17527,-0.0851201,0.214364,-0.0674664,0.0422821
0.523024,-0.425698,-1.20099,-0.0878931,0.242304,0.0180849,0.0422821
0.527653,-0.390867,-1.19263,-0.0618038,0.247961,0.133885,0.0422821
0.466373,-0.249438,-1.10787,-0.0280246,0.234146,0.227804,0.0422821
0.466373,-0.249438,-1.10787,-0.0280246,0.234146,0.227804,0.0449219
0.385501,-0.126519,-0.987324,-0.0072715,0.224386,0.275359,0.0449219
0.251146,-0.0918114,-0.8523,0.000192732,0.227165,0.30917,0.0449219
0.069841,-0.092715,-0.70423,0.00416112,0.214997,0.315312,0.0449219
0.0103075,-0.147605,-0.555078,-0.00805877,0.195221,0.257483,0.0449219
0.0240553,-0.213412,-0.484723,-0.0426629,0.206681,0.199602,0.0449219
-0.0550848,-0.239813,-0.465766,-0.0796117,0.200889,0.187213,0.0449219
-0.17961,-0.119481,-0.435706,-0.0749197,0.17213,0.157927,0.0449219
-0.258823,0.0849141,-0.302951,-0.0486281,0.12488,0.0844426,0.0449219
-0.329407,0.130976,-0.0856679,-0.00360003,0.0976104,-0.0172758,0.0449219
-0.509671,-0.13816,0.138326,0.0258419,0.0749349,-0.0820643,0.0449219
-0.808428,-0.407508,0.346935,0.0431446,0.0518183,-0.107715,0.0449219
-1.02303,-0.556663,0.561475,0.100158,0.0374897,-0.158352,0.0449219
-1.12378,-0.464272,0.774411,0.141766,-0.00841749,-0.222114,0.0449219
-1.11204,-0.261268,0.942921,0.144019,-0.0576129,-0.297133,0.0449219
-0.962338,-0.223158,0.978996,0.138298,-0.060353,-0.382252,0.0449219
-0.755413,-0.424895,0.934462,0.146854,-0.0612352,-0.420186,0.0449219
-0.587376,-0.523941,0.840039,0.137303,-0.0785173,-0.368826,0.0449219
-0.357232,-0.482343,0.700644,0.115445,-0.0873027,-0.292661,0.0449219
-0.0531195,-0.378493,0.545794,0.122362,-0.0741025,-0.195098,0.0449219
0.209216,-0.273238,0.400212,0.13585,-0.056103,-0.0654442,0.0449219
0.340345,-0.145079,0.294179,0.152242,-0.042061,0.0693191,0.0449219
0.374595,0.0982372,0.228655,0.177861,-0.034134,0.160706,0.0449219
0.310491,0.432515,0.268349,0.219907,-0.02784,0.196806,0.0449219
0.200655,0.709089,0.414596,0.255097,-0.018576,0.168448,0.0449219
0.12965,0.800951,0.631147,0.271131,0.00255153,0.0670723,0.0449219
0.101761,0.762465,0.849754,0.248785,0.0509678,-0.0283235,0.0449219
0.0957485,0.639165,0.988308,0.187029,0.0984939,-0.102748,0.0449219
0.106128,0.424645,1.03599,0.117654,0.144705,-0.141061,0.0449219
0.194521,0.136378,0.993563,0.0609351,0.176617,-0.142378,0.0449219
0.300318,-0.104038,0.933193,0.041379,0.196307,-0.0806308,0.0449219
0.292236,-0.203233,0.911367,0.0567622,0.182244,0.0483494,0.0449219
0.228525,-0.157016,0.959043,0.0722133,0.149143,0.164371,0.0449219
0.126615,-0.0385632,1.05342,0.0806773,0.131299,0.238341,0.0449219
-0.0306487,0.077711,1.11826,0.0641124,0.108719,0.274748,0.0449219
-0.195937,0.19087,1.1383,0.034087,0.0888098,0.25886,0.0449219
-0.266585,0.205868,1.11626,0.016698,0.078824,0.192943,0.0449219
-0.242377,0.235544,1.07488,-0.0123067,0.0627913,0.121472,0.0449219
-0.177403,0.202049,1.002,-0.0382439,0.0522689,0.0581773,0.0449219
-0.177691,0.111604,0.892309,-0.0614378,0.0459294,0.0388946,0.0449219
-0.213145,0.0494886,0.812424,-0.06992,0.00843655,0.0179038,0.0449219
-0.19317,-0.0142521,0.788333,-0.0579259,-0.0263606,-0.0234129,0.0449219
-0.159812,-0.102452,0.758824,-0.0589632,-0.0487567,-0.0516195,0.0449219
-0.146844,-0.168069,0.691029,-0.0600167,-0.0557483,-0.0577747,0.0449219
-0.165741,-0.190937,0.650297,-0.0469418,-0.0712787,-0.065492,0.0449219
-0.261361,-0.357562,0.697349,-0.0305616,-0.104081,-0.084313,0.0449219
-0.52247,-0.299765,0.727376,-0.0232998,-0.116292,-0.0710653,0.0449219
-0.559493,0.214482,0.772729,0.0155386,-0.097877,-0.158881,0.0449219
-0.335509,0.563687,0.835376,0.017361,-0.0858041,-0.304938,0.0449219
0.0302945,0.377545,0.691918,-0.0429546,-0.0475064,-0.380247,0.0449219
0.365774,-0.250062,0.432605,-0.0720923,0.0111962,-0.339217,0.0449219
0.428216,-0.83576,0.218648,-0.0470135,0.0123163,-0.146687,0.0449219
0.290532,-0.917744,0.162728,0.0223829,-0.0474322,0.0636172,0.0449219
0.185899,-0.507425,0.257123,0.0780557,-0.09477,0.14783,0.0449219
0.156246,0.0419311,0.418559,0.108798,-0.110055,0.130914,0.0449219
0.156246,0.0419311,0.418559,0.108798,-0.110055,0.130914,0.0528564
0.150352,0.414865,0.582108,0.144042,-0.0873369,0.0537149,0.0528564
0.129991,0.541995,0.696489,0.132959,-0.0467995,-0.0493868,0.0528564
0.12708,0.448473,0.722186,0.109281,0.0156909,-0.145431,0.0528564
0.215464,0.125405,0.652958,0.0847154,0.0696718,-0.223619,0.0528564
0.457517,-0.224174,0.506649,0.0598923,0.116735,-0.248346,0.0528564
0.652193,-0.340444,0.364263,0.0606769,0.151595,-0.129197,0.0528564
0.657699,-0.163644,0.285105,0.0717305,0.14602,0.0398211,0.0528564
0.575006,0.175123,0.278777,0.0918265,0.141804,0.133429,0.0528564
0.408643,0.620784,0.365077,0.119008,0.140325,0.162103,0.0528564
0.18518,0.915705,0.518846,0.152546,0.135263,0.114308,0.0528564
0.0285693,0.959041,0.718633,0.183315,0.141321,-0.00127822,0.0528564
-0.0116478,0.834493,0.898013,0.169498,0.159527,-0.118735,0.0528564
-0.0582444,0.529393,1.00812,0.140704,0.192425,-0.158119,0.0528564
-0.0550452,0.157208,1.00036,0.101517,0.204996,-0.162735,0.0528564
0.0726943,-0.00677318,0.930778,0.0868559,0.214436,-0.125081,0.0528564
0.203797,0.0963794,0.877094,0.089962,0.200306,-0.0250551,0.0528564
0.250524,0.325131,0.88813,0.110307,0.168736,0.0839613,0.0528564
0.210957,0.553421,0.979621,0.145715,0.141322,0.152382,0.0528564
0.140011,0.729876,1.12321,0.162248,0.118023,0.165927,0.0528564
0.0428996,0.860159,1.26753,0.151156,0.115197,0.14069,0.0528564
0.00276635,0.917607,1.39505,0.130521,0.111685,0.0780306,0.0528564
0.0216276,1.06448,1.49807,0.0888334,0.118325,0.00317848,0.0528564
0.0743243,1.162,1.59899,0.047431,0.127024,-0.0830365,0.0528564
0.0809033,1.11211,1.74283,0.0565222,0.139175,-0.154684,0.0528564
0.0780986,1.03663,1.9501,0.0567983,0.137953,-0.227062,0.0528564
0.150984,0.851568,2.15686,0.0329918,0.14985,-0.291986,0.0528564
0.320881,0.50585,2.2159,-0.019002,0.202042,-0.312474,0.0528564
0.488978,0.146007,2.15465,-0.0673112,0.246054,-0.242108,0.0528564
0.486401,0.0435966,2.0705,-0.0598005,0.271734,-0.0762949,0.0528564
0.355644,0.22648,2.13519,-0.0108649,0.237398,0.0613834,0.0528564
0.210971,0.421783,2.41453,0.0609906,0.174006,0.097457,0.0528564
0.0737331,0.375257,2.67866,0.0863108,0.160677,0.0792944,0.0528564
0.00824774,0.0501593,2.72686,0.0659788,0.213324,0.0593972,0.0528564
0.00119063,-0.24022,2.62429,0.0357012,0.249445,0.0817845,0.0528564
-0.00245349,-0.28442,2.55432,0.0311576,0.22256,0.130704,0.0528564
-0.0231143,-0.115023,2.48919,0.0396498,0.189173,0.165128,0.0528564
-0.0541398,0.207737,2.39889,0.0226134,0.169956,0.168187,0.0528564
-0.0173326,0.454978,2.22841,-0.0132342,0.16487,0.116448,0.0528564
0.0322123,0.592355,1.96507,-0.0313559,0.179773,0.0685142,0.0528564
0.0848262,0.640374,1.74672,-0.0108351,0.160655,0.0159593,0.0528564
0.137124,0.551096,1.6864,0.0539603,0.119961,-0.0195209,0.0528564
0.0671473,0.459699,1.75511,0.0953645,0.0720048,0.00433099,0.0528564
-0.103096,0.416049,1.90682,0.120352,0.0303484,0.0352376,0.0528564
-0.257355,0.436147,2.07593,0.120827,-0.001202,0.0217218,0.0528564
-0.336764,0.460928,2.17474,0.0920505,-0.00609598,-0.0250972,0.0528564
-0.319759,0.390709,2.1689,0.0461877,-0.00222769,-0.077382,0.0528564
-0.240001,0.215632,2.07865,0.000345364,-0.00389753,-0.102069,0.0528564
-0.16734,0.0156358,1.95878,-0.0281531,-0.019685,-0.0698098,0.0528564
-0.171499,-0.0804396,1.81952,-0.0510249,-0.04401,0.0130771,0.0528564
-0.189997,-0.00868361,1.69674,-0.0573084,-0.0800515,0.0809169,0.0528564
-0.174305,0.125231,1.63178,-0.0475,-0.117332,0.0894145,0.0528564
-0.144038,0.207824,1.59242,-0.0468412,-0.141985,0.0688592,0.0528564
-0.111017,0.216188,1.48803,-0.0672962,-0.135747,0.0413797,0.0528564
-0.0366931,0.199406,1.31243,-0.0892217,-0.119054,-0.0133612,0.0528564
-0.0366931,0.199406,1.31243,-0.0892217,-0.119054,-0.0133612,0.0554962
0.0752163,0.0940338,1.16013,-0.0742645,-0.112949,-0.0658226,0.0554962
0.156092,-0.0290177,1.05707,-0.0530292,-0.120037,-0.0815638,0.0554962
0.192717,-0.143293,0.984981,-0.0288093,-0.120653,-0.0692382,0.0554962
0.216316,-0.211271,0.929942,-0.00584956,-0.117941,-0.0483815,0.0554962
0.265001,-0.195359,0.8682,0.0106793,-0.112233,-0.0341504,0.0554962
0.306052,-0.173224,0.825076,0.0359585,-0.110544,-0.0211456,0.0554962
0.313829,-0.169615,0.818881,0.0582911,-0.114843,-0.0158128,0.0554962
0.318011,-0.186583,0.84074,0.0781639,-0.117586,-0.0325847,0.0554962
0.360071,-0.215268,0.818137,0.0761338,-0.10744,-0.0629802,0.0554962
0.437827,-0.25821,0.763244,0.0740806,-0.0929887,-0.0943356,0.0554962
0.497447,-0.309916,0.704114,0.0863913,-0.0870951,-0.0990402,0.0554962
0.4756,-0.217661,0.669272,0.0888267,-0.0883167,-0.0788644,0.0554962
0.423029,-0.00775384,0.684145,0.0985855,-0.0930978,-0.0925921,0.0554962
0.380543,0.150706,0.787593,0.148785,-0.0836264,-0.153889,0.0554962
0.320393,0.199436,0.936263,0.157842,-0.0816841,-0.213971,0.0554962
0.25316,0.125938,1.03365,0.131084,-0.0480663,-0.241537,0.0554962
0.282881,-0.00537058,1.00197,0.0871673,-0.00638397,-0.267801,0.0554962
0.409329,-0.021583,0.914084,0.0508761,0.0167224,-0.257571,0.0554962
0.574012,0.048852,0.802373,0.0251548,0.0310884,-0.199421,0.0554962
0.708521,0.130777,0.67756,0.0235918,0.0548493,-0.103193,0.0554962
0.79191,0.203472,0.580349,0.0344565,0.074053,-0.00369161,0.0554962
0.776499,0.295696,0.519425,0.0546497,0.0914439,0.0969791,0.0554962
0.685914,0.446161,0.524486,0.0748424,0.0943095,0.166905,0.0554962
0.583758,0.602971,0.576479,0.0812479,0.100074,0.177023,0.0554962
0.455114,0.693443,0.660004,0.0763978,0.106875,0.166674,0.0554962
0.292813,0.701181,0.741652,0.0510498,0.11469,0.146968,0.0554962
0.181203,0.614459,0.805093,0.0224708,0.131572,0.0971357,0.0554962
0.110072,0.475954,0.854059,-0.00589006,0.144361,0.067951,0.0554962
0.0230831,0.403459,0.872975,-0.0389293,0.148575,0.0774978,0.0554962
-0.0125684,0.413894,0.847445,-0.0685462,0.1549,0.0791469,0.0554962
0.0102063,0.505299,0.80278,-0.0794313,0.164452,0.077463,0.0554962
0.0475109,0.527774,0.772623,-0.0777604,0.152753,0.0704987,0.0554962
0.0313886,0.397378,0.774287,-0.063146,0.150731,0.0801111,0.0554962
-0.0500454,0.269272,0.768877,-0.0542113,0.138357,0.109994,0.0554962
-0.124853,0.281928,0.771543,-0.0576702,0.112675,0.125421,0.0554962
-0.115599,0.341637,0.793017,-0.0400689,0.0754966,0.105614,0.0554962
-0.0937419,0.365827,0.865771,-0.0219861,0.0372374,0.0971567,0.0554962
-0.150332,0.358473,0.94498,-0.0183863,0.00993104,0.101997,0.0554962
-0.233207,0.322679,0.999926,-0.0226524,-0.00686768,0.0885323,0.0554962
-0.263744,0.330237,1.01398,-0.0353301,-0.0266033,0.0528804,0.0554962
-0.198949,0.333314,1.01942,-0.053891,-0.046068,0.00849503,0.0554962
-0.146447,0.406203,1.00616,-0.0696976,-0.061309,0.0114734,0.0554962
-0.101009,0.429796,0.932569,-0.0891937,-0.0677461,-0.00889099,0.0554962
-0.0532942,0.481489,0.842187,-0.10759,-0.0809778,-0.0360746,0.0554962
0.0470982,0.537027,0.791708,-0.102134,-0.107858,-0.0793703,0.0554962
0.135448,0.537121,0.800508,-0.0830931,-0.125421,-0.103748,0.0554962
0.146696,0.31552,0.82359,-0.088619,-0.13001,-0.127174,0.0554962
-0.0495346,0.245414,0.825123,-0.122576,-0.130565,-0.101653,0.0554962
-0.18827,0.321626,0.858931,-0.110232,-0.13321,-0.14029,0.0554962
-0.201101,0.462397,0.970206,-0.0740819,-0.140123,-0.233517,0.0554962
-0.155005,0.541204,1.02211,-0.0763556,-0.120351,-0.319566,0.0554962
-0.0770504,0.406613,1.01224,-0.0623011,-0.0850659,-0.376373,0.0554962
0.0113387,0.0867222,1.00225,-0.0327912,-0.0663491,-0.378874,0.0554962
0.0113387,0.0867222,1.00225,-0.0327912,-0.0663491,-0.378874,0.0554962
0.136556,-0.245638,0.965587,0.00900494,-0.0444864,-0.314987,0.0554962
0.323918,-0.379051,0.922675,0.0465973,-0.0220215,-0.202188,0.0554962
0.481552,-0.348407,0.879486,0.0918754,0.010329,-0.0425601,0.0554962
0.602195,-0.24843,0.798453,0.128597,0.0451045,0.101653,0.0554962
0.61264,-0.0158985,0.745441,0.175589,0.0818812,0.227739,0.0554962
0.567043,0.251028,0.718399,0.205426,0.0942561,0.281143,0.0554962
0.49624,0.51116,0.776287,0.248805,0.113454,0.281574,0.0554962
0.434502,0.634612,0.87049,0.277253,0.121883,0.230522,0.0554962
0.318105,0.617385,0.981551,0.278262,0.167734,0.177341,0.0554962
0.149897,0.473219,1.0804,0.23289,0.163078,0.140377,0.0554962
-0.0770107,0.251461,1.21271,0.200405,0.143496,0.127961,0.0554962
-0.33573,0.111537,1.34184,0.171922,0.0936708,0.116398,0.0554962
-0.397427,0.11615,1.37229,0.122033,0.061725,0.0672089,0.0554962
-0.192244,0.155106,1.26021,0.0484703,0.0519591,-0.000708222,0.0554962
0.0535451,0.136043,1.05123,0.0035554,0.0495558,0.0119917,0.0554962
0.0962619,0.111636,0.90068,0.0155217,0.018365,0.0885666,0.0554962
-0.0126881,0.110038,0.897933,0.0495785,-0.0414675,0.15057,0.0554962
-0.10606,0.0988414,0.966997,0.0722237,-0.0877999,0.151557,0.0554962
-0.121128,0.0716328,0.985377,0.061519,-0.0898176,0.122256,0.0554962
-0.0981199,0.055434,0.933047,0.032776,-0.0838684,0.103652,0.0554962
-0.0719633,-0.0719332,0.808346,0.0216201,-0.0660111,0.101997,0.0554962
-0.0694859,-0.140539,0.714847,0.0249901,-0.0864612,0.105322,0.0554962
-0.0484072,-0.190171,0.699029,0.0436659,-0.120239,0.0921839,0.0554962
-0.0616756,-0.188428,0.655064,0.0232638,-0.133794,0.0987623,0.0554962
-0.0697607,-0.0756277,0.58527,-0.00340246,-0.146167,0.0771608,0.0554962
-0.00290313,-0.0158365,0.477766,-0.0309693,-0.142478,0.0190668,0.0554962
0.00432571,0.036699,0.344108,-0.053448,-0.137378,-0.018773,0.0554962
-0.0707737,0.00725417,0.284534,-0.0419095,-0.157102,-0.0564663,0.0554962
-0.128248,-0.0425399,0.280299,-0.0203738,-0.171105,-0.116601,0.0554962
-0.229365,-0.1912,0.375229,-0.0107481,-0.194705,-0.16395,0.0554962
-0.330367,-0.0172088,0.366711,-0.026462,-0.157425,-0.196979,0.0554962
-0.386454,0.32628,0.318104,-0.0393136,-0.109841,-0.238846,0.0554962
-0.30274,0.625429,0.249765,-0.0645632,-0.0906604,-0.346578,0.0554962
-0.0443098,0.59969,0.132306,-0.0591856,-0.0402213,-0.443765,0.0554962
0.157171,0.249643,-0.0163441,-0.0800779,-0.0127315,-0.40746,0.0554962
0.209095,-0.264731,-0.15805,-0.0660343,0.0129392,-0.290054,0.0554962
0.107842,-0.497549,-0.276217,-0.0511127,0.0192666,-0.112475,0.0554962
0.133843,-0.326114,-0.428425,-0.0631097,0.0218424,-0.00069207,0.0554962
0.33293,-0.00154281,-0.566085,-0.0695717,0.0404255,0.0511392,0.0554962
0.496145,0.175833,-0.667555,-0.0625393,0.0390772,0.121854,0.0554962
0.4028,0.152813,-0.782816,-0.0669836,0.0677362,0.223909,0.0554962
0.161337,0.133023,-0.832443,-0.058404,0.0483905,0.276517,0.0554962
-0.0340939,0.287447,-0.858379,-0.0958297,0.0263506,0.259259,0.0554962
-0.0793173,0.447467,-0.893746,-0.119119,0.0285124,0.179169,0.0554962
-0.0950178,0.502638,-0.86287,-0.109165,0.0270566,0.10127,0.0554962
-0.154849,0.4846,-0.79963,-0.115471,0.0187121,0.0379304,0.0554962
-0.127936,0.35362,-0.761328,-0.1292,0.0362721,-0.0414794,0.0554962
-0.0490188,0.195201,-0.775249,-0.157069,0.0648709,-0.0814667,0.0554962
0.0456107,0.0229327,-0.861057,-0.187887,0.0814911,-0.0744793,0.0554962
0.0937598,-0.148495,-0.962483,-0.174869,0.0947406,-0.024466,0.0554962
0.095186,-0.267585,-0.973851,-0.120452,0.0760116,0.0434191,0.0554962
0.144253,-0.141145,-0.893176,-0.0644012,0.0408823,0.0930877,0.0554962
0.260786,0.0833489,-0.773721,-0.0520919,0.0246176,0.113789,0.0554962
0.304783,0.0741847,-0.681767,-0.052027,0.0350909,0.133072,0.0554962
0.304783,0.0741847,-0.681767,-0.052027,0.0350909,0.133072,0.0554962
0.1827,-0.13366,-0.626993,-0.0538329,0.0452795,0.164256,0.0554962
0.0496031,-0.254904,-0.571875,-0.0611041,0.0335644,0.171102,0.0554962
0.0530814,-0.101194,-0.52736,-0.0720467,0.0156322,0.134466,0.0554962
0.188285,0.133779,-0.502217,-0.0934843,0.00121209,0.0682652,0.0554962
0.272067,0.242321,-0.463196,-0.100685,0.000351191,0.0126973,0.0554962
0.192537,0.133793,-0.424067,-0.0730153,0.0235859,-0.0264996,0.0554962
0.00495941,-0.0589452,-0.35397,-0.0372088,0.032704,-0.0718205,0.0554962
-0.136838,-0.197068,-0.233633,0.00949693,0.0198015,-0.138123,0.0554962
-0.225694,-0.250749,-0.10128,0.0287396,-0.0084101,-0.198123,0.0554962
-0.281708,0.00920799,-0.0657466,0.0573185,0.00826797,-0.227436,0.0554962
-0.273057,0.174238,0.0240802,0.0986114,-0.0020816,-0.26778,0.0554962
-0.359803,0.173054,0.188936,0.15051,-0.0323846,-0.26617,0.0554962
-0.430236,0.16203,0.323157,0.148935,-0.0376038,-0.257821,0.0554962
-0.349792,0.140394,0.357364,0.107422,-0.0135228,-0.258788,0.0554962
-0.152099,0.153861,0.297876,0.0881319,0.00521751,-0.234005,0.0554962
0.0819861,0.00599708,0.197454,0.0639736,0.0189379,-0.170384,0.0554962
0.283838,-0.348464,0.0759335,0.0529378,0.0315299,-0.070152,0.0554962
0.337382,-0.627913,-0.0338537,0.0447378,0.0435734,0.084425,0.0554962
0.351058,-0.650562,-0.192918,0.0329356,0.042467,0.202481,0.0554962
0.413651,-0.452677,-0.331906,0.0455197,0.0429205,0.257554,0.0554962
0.454309,-0.099851,-0.386718,0.0673432,0.0269351,0.275334,0.0554962
0.476929,0.176901,-0.377157,0.0937813,0.0143624,0.257957,0.0554962
0.412204,0.277583,-0.234323,0.134023,0.0202528,0.224926,0.0554962
0.166569,0.23436,-0.0179992,0.125641,0.00442329,0.192138,0.0554962
-0.0860372,0.0641118,0.174716,0.105777,0.00586694,0.119983,0.0554962
-0.164804,-0.1825,0.268203,0.0683431,0.031168,0.0346639,0.0554962
-0.100714,-0.423534,0.250633,0.0192089,0.0555591,0.000115812,0.0554962
-0.0129201,-0.543441,0.147692,-0.0137532,0.06554,0.0425882,0.0554962
-0.0131731,-0.499287,0.0509635,-0.0115234,0.0474825,0.120645,0.0554962
0.00588319,-0.402206,-0.00137554,0.0107034,0.00339925,0.150377,0.0554962
0.0793296,-0.286306,-0.0267063,0.0334754,-0.0236288,0.137581,0.0554962
0.141209,-0.232338,-0.0553289,0.0427808,-0.0437665,0.119171,0.0554962
0.119291,-0.205788,-0.0932136,0.035094,-0.061068,0.105681,0.0554962
0.119906,-0.207921,-0.130015,0.0397834,-0.0737841,0.047442,0.0554962
0.188803,-0.26146,-0.142447,0.0657913,-0.0795031,-0.0241333,0.0554962
0.193583,-0.269757,-0.122603,0.0776845,-0.0860534,-0.0457655,0.0554962
0.114185,-0.207323,-0.0642822,0.0902282,-0.098684,-0.0633664,0.0554962
0.140769,-0.106493,-0.00802292,0.107122,-0.0915318,-0.124022,0.0554962
0.262129,-0.0627266,0.0309853,0.107656,-0.0624113,-0.186983,0.0554962
0.305475,-0.222238,0.0370047,0.083955,-0.0472304,-0.199823,0.0554962
0.177374,-0.0952902,-0.0123423,0.060207,-0.0268786,-0.157623,0.0554962
0.172648,0.0414109,-0.0207872,0.0929137,-0.0115522,-0.193646,0.0554962
0.183428,0.153285,0.102793,0.126356,-0.0303525,-0.240173,0.0554962
0.113995,0.0686266,0.271205,0.138276,-0.0309819,-0.256882,0.0554962
0.0345596,-0.225188,0.373275,0.127093,0.0129513,-0.238206,0.0554962
-0.0092543,-0.423103,0.394784,0.0812431,0.0471054,-0.171683,0.0554962
0.0209045,-0.374606,0.350569,0.0434005,0.0687867,-0.0813248,0.0554962
0.133864,-0.218485,0.286608,0.0387004,0.0919921,0.00333524,0.0554962
0.233231,-0.0934086,0.249109,0.0416195,0.104015,0.10158,0.0554962
0.227568,-0.0292038,0.233407,0.0273845,0.0996391,0.191431,0.0554962
0.0885446,0.0776891,0.219339,0.00916411,0.104859,0.259614,0.0554962
-0.0668229,0.27863,0.18712,-0.0193723,0.103699,0.246499,0.0554962
-0.179996,0.473595,0.176707,-0.0329216,0.102959,0.179291,0.0554962
-0.214097,0.567819,0.233892,-0.0156927,0.0912831,0.0668499,0.0554962
-0.214097,0.567819,0.233892,-0.0156927,0.0912831,0.0668499,0.0528564
-0.187889,0.477612,0.334161,0.0171135,0.0977407,-0.0385715,0.0528564
-0.182093,0.254729,0.438094,0.0233817,0.100037,-0.0883974,0.0528564
-0.186987,0.0323371,0.470693,-0.0107541,0.111534,-0.0892404,0.0528564
-0.108441,-0.105739,0.404955,-0.0340469,0.125353,-0.0759084,0.0528564
0.0167673,-0.0829434,0.346165,-0.0212639,0.114816,-0.0232922,0.0528564
0.100628,0.0781417,0.351708,0.016558,0.0940977,0.0497682,0.0528564
0.133675,0.274766,0.418056,0.045075,0.0723682,0.0942948,0.0528564
0.139798,0.355414,0.487389,0.0532113,0.0650277,0.111252,0.0528564
0.128907,0.28949,0.531191,0.0549046,0.0641695,0.102531,0.0528564
0.0937814,0.211623,0.571455,0.0494742,0.0593925,0.104045,0.0528564
0.0879648,0.257777,0.61782,0.0416221,0.04333,0.104469,0.0528564
0.13017,0.407082,0.677263,0.038886,0.0297287,0.0858644,0.0528564
0.180776,0.555229,0.720583,0.0185702,0.0129989,0.0524437,0.0528564
0.158646,0.616941,0.79931,0.0164633,0.00644681,0.016935,0.0528564
0.0670911,0.544763,0.907441,0.0293607,0.003683,-0.0391154,0.0528564
-0.00047748,0.327804,1.04278,0.0457949,-0.00394887,-0.122726,0.0528564
-0.219044,0.048033,1.23295,0.0584576,-0.0117341,-0.14158,0.0528564
-0.388308,0.0559683,1.30552,0.0705412,0.0164722,-0.156877,0.0528564
-0.254185,0.393492,1.35579,0.0770655,0.0360789,-0.22306,0.0528564
-0.0802553,0.640332,1.40347,0.0642605,0.042949,-0.258334,0.0528564
-0.0696955,0.693349,1.32825,0.0733994,0.0773017,-0.227262,0.0528564
-0.0364129,0.766823,1.28085,0.0819767,0.0820575,-0.202162,0.0528564
-0.0354813,0.772518,1.34516,0.119811,0.0665572,-0.181055,0.0528564
-0.106107,0.509475,1.42344,0.180306,0.0637625,-0.141367,0.0528564
-0.135905,0.196472,1.53827,0.223639,0.0810959,-0.0946434,0.0528564
-0.101354,-0.00921894,1.6307,0.222442,0.0986916,-0.0212628,0.0528564
0.0206858,-0.0463615,1.58554,0.166665,0.125684,0.052199,0.0528564
0.193204,0.109011,1.43943,0.144831,0.17322,0.122457,0.0528564
0.320445,0.382662,1.35067,0.150272,0.159484,0.170216,0.0528564
0.342753,0.71323,1.38462,0.182333,0.144474,0.170756,0.0528564
0.222746,0.838664,1.47378,0.219693,0.161535,0.132103,0.0528564
-0.0360856,0.780849,1.65216,0.239542,0.173691,0.0834644,0.0528564
-0.310584,0.588917,1.89305,0.239679,0.172875,0.0233166,0.0528564
-0.499918,0.448727,2.01608,0.194862,0.187533,-0.0381419,0.0528564
-0.504411,0.365084,1.97843,0.124196,0.195446,-0.105109,0.0528564
-0.251653,0.372676,1.82433,0.0629519,0.166759,-0.165172,0.0528564
0.0941414,0.237537,1.64866,0.043736,0.142782,-0.143707,0.0528564
0.19572,0.122436,1.51196,0.056917,0.117659,-0.00424671,0.0528564
0.0712248,0.0663045,1.49121,0.0912359,0.0535417,0.133426,0.0528564
-0.0392776,0.123012,1.54765,0.115583,0.00521517,0.191017,0.0528564
-0.0637002,0.279113,1.59462,0.107543,-0.0180501,0.193484,0.0528564
-0.0634981,0.423346,1.58771,0.0856257,-0.0330621,0.174427,0.0528564
-0.0475012,0.443906,1.5678,0.0798059,-0.0493455,0.127533,0.0528564
-0.0795495,0.30431,1.58565,0.0938711,-0.0609808,0.0932078,0.0528564
-0.15544,0.119902,1.5786,0.0957487,-0.077608,0.0709713,0.0528564
-0.199684,-0.0541352,1.54976,0.0997271,-0.097956,0.0385253,0.0528564
-0.0958573,-0.16572,1.57525,0.13901,-0.133177,-0.0247799,0.0528564
0.0856588,-0.124526,1.64163,0.136399,-0.146895,-0.0567481,0.0528564
0.153088,-0.163965,1.65994,0.101461,-0.136848,-0.0474445,0.0528564
0.124571,-0.129177,1.5665,0.0636612,-0.112494,-0.0340843,0.0528564
0.181292,0.0196429,1.49108,0.0375654,-0.119384,-0.0750024,0.0528564
0.257945,0.0774707,1.43681,0.0261796,-0.125363,-0.122016,0.0528564
0.273578,-0.0954926,1.3724,0.0451931,-0.117691,-0.137868,0.0528564
0.275427,-0.164169,1.35215,0.0441428,-0.135834,-0.128274,0.0528564
0.275427,-0.164169,1.35215,0.0441428,-0.135834,-0.128274,0.0370026
0.185589,0.0803698,1.41253,0.058975,-0.118267,-0.0851883,0.0370026
0.0189791,0.405009,1.53852,0.0701793,-0.123197,-0.0929534,0.0370026
-0.0571436,0.536753,1.65487,0.0641668,-0.0952331,-0.182227,0.0370026
0.0654615,0.349289,1.58711,-0.00213331,-0.0302619,-0.282171,0.0370026
0.201189,-0.194869,1.40312,-0.0643089,0.0103973,-0.279669,0.0370026
0.133698,-0.508263,1.1227,-0.127974,0.0137614,-0.132538,0.0370026
0.0881442,-0.255565,0.799594,-0.163559,-0.0238303,-0.0240342,0.0370026
0.222358,0.404378,0.619725,-0.132963,-0.0601287,-0.0216445,0.0370026
0.42003,0.868145,0.577083,-0.0943518,-0.0503803,-0.0956239,0.0370026
0.54353,0.728989,0.434583,-0.0813732,0.043554,-0.123086,0.0370026
0.640038,0.349574,0.214131,-0.137852,0.0971562,-0.0649055,0.0370026
0.533057,-0.0326696,-0.0382286,-0.157462,0.143137,0.0483393,0.0370026
0.465292,-0.0608329,-0.125139,-0.0688286,0.0743236,0.0849643,0.0370026
0.452855,-0.0389614,0.318521,0.18866,0.112539,0.0878523,0.0370026
0.235511,0.0652304,0.434933,-0.0531603,0.0100677,0.167136,0.0370026
0.0182304,0.355016,0.432677,-0.171717,0.0909764,0.165526,0.0370026
-0.0633509,0.401388,0.179081,-0.237318,0.17155,0.0684687,0.0370026
-0.0410357,0.204972,-0.175269,-0.232452,0.23558,-0.027459,0.0370026
0.0452426,-0.0135481,-0.367881,-0.147118,0.212901,-0.0493461,0.0370026
0.106621,-0.0011518,-0.465647,-0.092603,0.172563,-0.0172567,0.0370026
0.169098,0.0802357,-0.536321,-0.0771299,0.138621,0.0302508,0.0370026
0.225493,-0.0303071,-0.609152,-0.053076,0.135929,0.0785125,0.0370026
0.150231,-0.149515,-0.613379,-0.0203041,0.108305,0.16581,0.0370026
-0.0121969,-0.102002,-0.525215,0.0165197,0.0645016,0.237755,0.0370026
-0.142726,-0.0213511,-0.416783,0.0338796,0.0459476,0.25741,0.0370026
-0.206151,0.0564818,-0.376443,0.00259255,0.0380019,0.233465,0.0370026
-0.27894,-0.0802471,-0.344326,-0.00576993,0.0304269,0.193093,0.0370026
-0.348027,-0.0646638,-0.427335,-0.0193377,0.0221137,0.160455,0.0370026
-0.172591,0.151707,-0.513233,-0.0307945,-0.00628708,0.0758991,0.0370026
0.152384,0.337488,-0.562175,-0.017973,-0.037463,-0.00155216,0.0370026
0.291649,0.293674,-0.569794,0.0279728,-0.0561501,-0.000447869,0.0370026
0.15412,0.199138,-0.46427,0.0634426,-0.106007,0.0421562,0.0370026
-0.0827319,0.167267,-0.289796,0.0886795,-0.146274,0.033385,0.0370026
-0.262948,0.151752,-0.114637,0.0900951,-0.163403,-0.0356774,0.0370026
-0.337558,0.134207,0.0505377,0.0949191,-0.163308,-0.130535,0.0370026
-0.231373,0.0670637,0.16461,0.0787023,-0.156069,-0.234594,0.0370026
-0.0610487,0.0461367,0.200116,0.0487285,-0.13082,-0.266783,0.0370026
-0.0143844,-0.122574,0.218612,0.0167695,-0.127668,-0.24329,0.0370026
-0.140355,0.11484,0.191267,0.0349974,-0.109061,-0.168923,0.0370026
-0.0675887,0.411366,0.32897,0.0780723,-0.115265,-0.192636,0.0370026
-0.0126127,0.705298,0.473533,0.094759,-0.113123,-0.197565,0.0370026
0.0283231,0.759364,0.499316,0.065232,-0.0747696,-0.2057,0.0370026
0.113204,0.562711,0.40756,0.0315035,-0.0227698,-0.196368,0.0370026
0.195129,0.296157,0.333189,0.0199876,-0.0173384,-0.138119,0.0370026
0.252458,0.10886,0.306974,0.0296797,-0.0223305,-0.0335932,0.0370026
0.28421,0.000120346,0.30163,0.0373502,-0.0038058,0.0676993,0.0370026
0.276049,0.0497443,0.274323,0.03529,0.0224719,0.15987,0.0370026
0.27932,0.235469,0.259421,0.044208,0.042723,0.192244,0.0370026
0.275264,0.490244,0.256609,0.0569154,0.0684544,0.177173,0.0370026
0.342549,0.634786,0.30686,0.0807343,0.100326,0.0924973,0.0370026
0.335833,0.485277,0.407212,0.0842682,0.127424,0.0316252,0.0370026
0.163018,0.196964,0.518506,0.0786018,0.158831,0.0394971,0.0370026
-0.0797998,0.00811569,0.622051,0.0414414,0.175295,0.0669267,0.0370026
-0.251134,-0.0736126,0.692531,0.00069131,0.179644,0.0790376,0.0370026
-0.251134,-0.0736126,0.692531,0.00069131,0.179644,0.0790376,0.0317078
-0.262844,-0.185015,0.706483,-0.0330297,0.180126,0.0692735,0.0317078
-0.22761,-0.256799,0.659647,-0.0639809,0.18234,0.113673,0.0317078
-0.203294,-0.198896,0.579742,-0.0986945,0.1623,0.190425,0.0317078
-0.183368,-0.160403,0.49952,-0.10653,0.140713,0.247526,0.0317078
-0.223345,-0.161295,0.457284,-0.0918548,0.110383,0.296262,0.0317078
-0.381703,-0.112919,0.467229,-0.0788076,0.0625132,0.349449,0.0317078
-0.587619,-0.0549318,0.500709,-0.076569,0.0232701,0.355653,0.0317078
-0.720417,-0.00976086,0.499847,-0.0809862,-0.00638138,0.285351,0.0317078
-0.630887,0.0519319,0.451895,-0.102507,-0.0349527,0.141118,0.0317078
-0.489708,0.0450985,0.344539,-0.126877,-0.0436247,0.03729,0.0317078
-0.44568,-0.105649,0.192585,-0.150685,-0.0666235,0.000246465,0.0317078
-0.437876,-0.235313,0.0507073,-0.15815,-0.102636,-0.0209848,0.0317078
-0.396157,-0.250944,-0.0486119,-0.157294,-0.151144,-0.0482271,0.0317078
-0.366493,-0.138568,-0.116472,-0.157278,-0.188758,-0.0646555,0.0317078
-0.36318,0.0383544,-0.17938,-0.157835,-0.20967,-0.0999419,0.0317078
-0.361068,0.109101,-0.230494,-0.145929,-0.222193,-0.164658,0.0317078
-0.337815,0.0794295,-0.279728,-0.117393,-0.22801,-0.239885,0.0317078
-0.202113,0.000903119,-0.336116,-0.113861,-0.227641,-0.322909,0.0317078
0.0235843,-0.146302,-0.437904,-0.117865,-0.213239,-0.36464,0.0317078
0.221508,-0.479645,-0.541601,-0.123674,-0.188537,-0.322446,0.0317078
0.0974632,-0.572684,-0.613135,-0.142981,-0.187833,-0.158775,0.0317078
-0.098404,-0.261654,-0.69606,-0.172044,-0.181558,-0.0750803,0.0317078
-0.078195,0.0879289,-0.698002,-0.162983,-0.179825,-0.151169,0.0317078
0.0482724,0.129515,-0.727251,-0.155812,-0.148655,-0.250054,0.0317078
0.160749,-0.225003,-0.841133,-0.168951,-0.0905547,-0.283905,0.0317078
0.206806,-0.511397,-1.01275,-0.177075,-0.0351838,-0.224947,0.0317078
0.303023,-0.598562,-1.16354,-0.157759,-0.00237259,-0.146061,0.0317078
0.451181,-0.553899,-1.25841,-0.133236,0.00905375,-0.0664533,0.0317078
0.567302,-0.434823,-1.33001,-0.122728,0.0353923,0.0147559,0.0317078
0.583822,-0.191713,-1.41898,-0.131088,0.0670679,0.0944429,0.0317078
0.5572,0.0510606,-1.49738,-0.120428,0.0996837,0.117927,0.0317078
0.476377,0.160938,-1.54173,-0.0849136,0.132393,0.101512,0.0317078
0.341017,0.210167,-1.50359,-0.0352094,0.15128,0.0760779,0.0317078
0.22014,0.200854,-1.33455,0.0236337,0.150519,0.0279484,0.0317078
0.114751,0.200048,-1.10618,0.0452928,0.158761,-0.0265276,0.0317078
0.117037,0.1071,-0.972275,0.0120786,0.193294,-0.0888526,0.0317078
0.236184,-0.132692,-0.969483,-0.0283644,0.244859,-0.106982,0.0317078
0.38495,-0.452052,-1.02652,-0.0487581,0.277044,-0.0459189,0.0317078
0.401719,-0.661799,-1.06312,-0.0368603,0.284841,0.104578,0.0317078
0.283667,-0.613544,-1.05031,-0.0141652,0.261405,0.258463,0.0317078
0.178067,-0.424946,-0.962355,0.012921,0.225442,0.333039,0.0317078
0.0748679,-0.231489,-0.826658,0.0303919,0.198857,0.366957,0.0317078
-0.0267875,-0.136066,-0.737992,0.0180447,0.177709,0.353179,0.0317078
-0.117684,-0.0680514,-0.746429,-0.015665,0.17446,0.322965,0.0317078
-0.143396,-0.0741645,-0.765683,-0.0297379,0.153301,0.263405,0.0317078
-0.207334,-0.10329,-0.685304,-0.00765938,0.101735,0.221425,0.0317078
-0.379577,-0.0428736,-0.554364,-0.0021665,0.0378661,0.185359,0.0317078
-0.531227,-0.00766819,-0.440475,0.00396626,-0.00486097,0.0986046,0.0317078
-0.624353,-0.0536551,-0.34331,0.00492281,-0.0254842,-0.0145383,0.0317078
-0.705398,-0.118192,-0.225659,0.0251132,-0.0562952,-0.109882,0.0317078
-0.725882,-0.0828242,-0.131684,0.0348785,-0.0919936,-0.19029,0.0317078
-0.557483,-0.0240321,-0.0985538,0.0289796,-0.0981704,-0.283215,0.0317078
-0.452376,-0.298194,-0.0359721,0.0197402,-0.139071,-0.327057,0.0317078
-0.629122,-0.348944,-0.0069903,0.0553007,-0.1409,-0.26022,0.0317078
-0.629122,-0.348944,-0.0069903,0.0553007,-0.1409,-0.26022,0.0237885
-0.685707,-0.170394,0.137973,0.10353,-0.151959,-0.257699,0.0237885
-0.607182,0.152589,0.295883,0.115144,-0.156734,-0.301946,0.0237885
-0.32366,0.410616,0.299433,0.0965655,-0.113655,-0.374989,0.0237885
0.0368815,0.492316,0.184482,0.0781759,-0.0551601,-0.395926,0.0237885
0.33617,0.447032,0.0346762,0.0726071,-0.0235632,-0.359412,0.0237885
0.510286,0.0783087,-0.0326142,0.108798,-0.00269112,-0.284618,0.0237885
0.54791,-0.420348,-0.0334316,0.159076,0.00865328,-0.161167,0.0237885
0.518951,-0.508218,-3.54066e-05,0.197164,0.0288632,-0.0177468,0.0237885
0.579614,-0.193724,0.0557838,0.207728,0.0394364,0.0530261,0.0237885
0.726324,0.232137,0.121573,0.21639,0.0799068,0.0750541,0.0237885
0.818411,0.432118,0.193961,0.198329,0.130794,0.08024,0.0237885
0.689045,0.255226,0.300284,0.188107,0.155145,0.119906,0.0237885
0.373392,-0.0322176,0.464557,0.16327,0.143151,0.182191,0.0237885
0.0418239,-0.365419,0.657748,0.125355,0.124841,0.223953,0.0237885
-0.229442,-0.585619,0.745471,0.082981,0.12811,0.245954,0.0237885
-0.250678,-0.534384,0.735449,0.0443972,0.121726,0.229028,0.0237885
-0.0529414,-0.281371,0.70271,0.0234255,0.102809,0.201023,0.0237885
0.124448,-0.0389425,0.647667,-0.00688279,0.0878729,0.231023,0.0237885
0.115011,0.0450043,0.593726,-0.0320402,0.0794195,0.281333,0.0237885
-0.109397,-0.0250637,0.525607,-0.0549063,0.0512495,0.329516,0.0237885
-0.370771,-0.0353873,0.431127,-0.0688611,0.0142126,0.30713,0.0237885
-0.388763,0.00126358,0.394947,-0.0541393,-0.0358329,0.187965,0.0237885
-0.229744,0.0491887,0.351925,-0.0686642,-0.0849915,0.0564312,0.0237885
-0.0802898,0.0515748,0.230497,-0.104362,-0.0989503,-0.0124346,0.0237885
-0.032916,0.0468248,0.0556004,-0.131216,-0.104288,-0.0391576,0.0237885
-0.038165,0.00999967,-0.0891187,-0.131925,-0.12537,-0.0813367,0.0237885
-0.0432835,0.0159496,-0.184986,-0.126595,-0.147734,-0.123143,0.0237885
-0.0204816,-0.00847707,-0.21626,-0.0917831,-0.157079,-0.174389,0.0237885
0.0368823,-0.203022,-0.189289,-0.0733683,-0.174023,-0.229436,0.0237885
0.0511629,-0.386168,-0.158431,-0.0950535,-0.180256,-0.221244,0.0237885
-0.0299574,-0.282197,-0.224431,-0.144293,-0.139785,-0.168902,0.0237885
-0.0758728,-0.106854,-0.274414,-0.15313,-0.131847,-0.195692,0.0237885
-0.0238977,0.00670819,-0.280157,-0.144322,-0.12615,-0.27499,0.0237885
0.123059,-0.090969,-0.355603,-0.158822,-0.0810437,-0.330706,0.0237885
0.241932,-0.290442,-0.487517,-0.163516,-0.0244145,-0.297529,0.0237885
0.299645,-0.400016,-0.606153,-0.13764,0.0164471,-0.204032,0.0237885
0.41915,-0.489652,-0.712812,-0.116325,0.0365904,-0.107687,0.0237885
0.494221,-0.547385,-0.781548,-0.101105,0.0653692,0.0164231,0.0237885
0.425759,-0.467355,-0.851622,-0.10349,0.0844495,0.142641,0.0237885
0.286696,-0.242347,-0.86023,-0.0890927,0.0935228,0.206576,0.0237885
0.124021,-0.0171041,-0.786305,-0.0645999,0.091893,0.188691,0.0237885
-0.00510951,0.106594,-0.763097,-0.0702811,0.119581,0.116237,0.0237885
0.00270501,0.0657099,-0.812205,-0.0597057,0.169754,0.0189449,0.0237885
0.0850221,-0.0290718,-0.823446,-0.0322661,0.186002,-0.040307,0.0237885
0.118623,-0.189075,-0.798025,0.00462331,0.187767,-0.0420976,0.0237885
0.161949,-0.380476,-0.799656,0.0311882,0.187554,-0.0096662,0.0237885
0.241294,-0.369311,-0.77964,0.0526181,0.170354,0.0591041,0.0237885
0.266249,-0.342303,-0.721877,0.0816719,0.158908,0.150042,0.0237885
0.228184,-0.135181,-0.583115,0.118824,0.135071,0.227701,0.0237885
0.135541,0.00274876,-0.399268,0.139619,0.120474,0.258586,0.0237885
-0.0408933,-0.0640203,-0.183458,0.14973,0.120302,0.238182,0.0237885
-0.215472,-0.241797,0.0420706,0.143068,0.104992,0.200377,0.0237885
-0.266028,-0.342672,0.216962,0.100909,0.087602,0.141066,0.0237885
-0.266028,-0.342672,0.216962,0.100909,0.087602,0.141066,0.0237885
-0.229381,-0.409388,0.304834,0.0680031,0.0755393,0.0970058,0.0237885
-0.221838,-0.289645,0.35507,0.065595,0.0380726,0.101235,0.0237885
-0.20511,-0.0203022,0.466811,0.0781175,-0.0338401,0.0795011,0.0237885
-0.205555,0.108232,0.672759,0.115563,-0.0705581,0.0285521,0.0237885
-0.364439,0.0422312,0.87199,0.131871,-0.0810776,0.000231683,0.0237885
-0.582477,-0.00880492,1.01997,0.106162,-0.079676,-0.0330246,0.0237885
-0.639082,-0.0396757,1.00553,0.0364368,-0.0614404,-0.128497,0.0237885
-0.565422,0.00538535,0.867385,-0.0320483,-0.0593178,-0.206338,0.0237885
-0.505033,0.25293,0.70178,-0.0512781,-0.0263878,-0.233546,0.0237885
-0.45157,0.505191,0.542079,-0.0394025,-0.0175312,-0.260976,0.0237885
-0.359834,0.659431,0.428297,-0.0170311,-0.020925,-0.296907,0.0237885
-0.182757,0.503045,0.246802,0.00139174,-0.00081256,-0.322532,0.0237885
-0.00626092,0.32276,0.124171,0.0371777,0.00128613,-0.254787,0.0237885
0.0750353,0.143958,-0.0025444,0.0695043,-0.0270769,-0.130282,0.0237885
0.113341,0.222569,0.0381438,0.115789,-0.0433845,-0.0330174,0.0237885
0.210678,0.318342,0.139002,0.148053,-0.0645483,0.0124852,0.0237885
0.228228,0.389013,0.299155,0.18401,-0.0459201,0.0389556,0.0237885
0.216671,0.403797,0.454143,0.179929,-0.00945252,0.02909,0.0237885
0.212052,0.366334,0.580513,0.167349,0.0387435,-0.00849843,0.0237885
0.200099,0.325319,0.66438,0.173369,0.0920816,-0.0400915,0.0237885
0.25703,0.286105,0.77272,0.173374,0.111792,-0.0683162,0.0237885
0.293768,0.26345,0.935109,0.196435,0.122893,-0.0598736,0.0237885
0.241651,0.211582,1.0978,0.195861,0.117366,-0.0134447,0.0237885
0.16976,0.158977,1.24587,0.173337,0.12676,0.0449008,0.0237885
0.139017,-0.0200039,1.22282,0.132042,0.139401,0.0989705,0.0237885
0.0647015,-0.0723952,1.16137,0.0983724,0.146703,0.188813,0.0237885
-0.020828,0.0077168,1.08931,0.0444116,0.11455,0.259508,0.0237885
-0.0917625,0.129252,1.02459,0.0330902,0.0742307,0.28518,0.0237885
-0.0914583,0.263048,0.950707,0.0243252,0.0371246,0.25558,0.0237885
-0.0628777,0.280586,0.875472,0.00571232,0.015295,0.206342,0.0237885
-0.154824,0.139606,0.787169,-0.00530708,0.00151226,0.179391,0.0237885
-0.304342,0.0434184,0.694557,-0.00524922,-0.0308416,0.148395,0.0237885
-0.299899,0.077534,0.635338,-0.00206418,-0.0685857,0.0796202,0.0237885
-0.150389,0.133358,0.514754,-0.0330777,-0.0879961,0.0121897,0.0237885
-0.00253933,0.162329,0.323804,-0.0627221,-0.0937571,-0.0145277,0.0237885
0.101024,0.212337,0.148718,-0.0660923,-0.131075,-0.0402028,0.0237885
0.17485,0.206947,0.0474637,-0.0337901,-0.171452,-0.0677648,0.0237885
0.212272,0.253063,-0.0182372,-0.0170474,-0.204084,-0.0967218,0.0237885
0.230025,0.232246,-0.0455225,0.000690714,-0.213197,-0.129616,0.0237885
0.259476,0.0783999,-0.044372,0.012198,-0.221844,-0.167197,0.0237885
0.252721,-0.174994,0.000568023,0.0114378,-0.227694,-0.173029,0.0237885
0.0776717,-0.040837,0.0760446,0.00340855,-0.213765,-0.124007,0.0237885
-0.0374579,0.209971,0.165155,-0.00231789,-0.169772,-0.153975,0.0237885
-0.0197304,0.359694,0.273506,-0.0224433,-0.148948,-0.253315,0.0237885
0.00906637,0.253024,0.255997,-0.0839,-0.0819667,-0.317075,0.0237885
0.0938411,-0.187628,0.0620312,-0.127884,0.00354806,-0.32815,0.0237885
0.151993,-0.431722,-0.167169,-0.145578,0.0475297,-0.244537,0.0237885
0.214505,-0.280707,-0.308755,-0.136054,0.035584,-0.129025,0.0237885
0.338554,-0.117512,-0.338785,-0.0959666,0.0307401,-0.0475205,0.0237885
0.390815,-0.14885,-0.386771,-0.100874,0.0536412,0.0315962,0.0237885
0.324408,-0.277198,-0.485955,-0.120525,0.0863204,0.119742,0.0237885
0.19176,-0.21371,-0.591556,-0.140004,0.103313,0.188176,0.0237885
0.0851201,0.0296141,-0.685687,-0.15045,0.103081,0.197301,0.0237885
0.0179846,0.307194,-0.715905,-0.136563,0.105171,0.160103,0.0237885
0.0179846,0.307194,-0.715905,-0.136563,0.105171,0.160103,0.0105743
-0.0434962,0.421631,-0.694605,-0.112524,0.111179,0.0874925,0.0105743
-0.0696063,0.276492,-0.685682,-0.0841329,0.135987,0.00462615,0.0105743
-0.0442137,0.0864764,-0.709458,-0.0810549,0.153725,-0.0467582,0.0105743
0.0544232,-0.123412,-0.762294,-0.0758764,0.168292,-0.0600179,0.0105743
0.170328,-0.23588,-0.813072,-0.0457496,0.173731,-0.019834,0.0105743
0.268842,-0.118683,-0.820629,-0.0142673,0.157856,0.0645407,0.0105743
0.293915,-0.0297512,-0.744992,0.0272562,0.141611,0.133754,0.0105743
0.178848,-0.0586451,-0.621105,0.0669843,0.124109,0.199095,0.0105743
-0.0067296,-0.0761145,-0.506312,0.0626158,0.109543,0.237857,0.0105743
-0.0926398,-0.0507278,-0.432698,0.0413508,0.110831,0.229355,0.0105743
-0.110085,0.0566674,-0.419869,0.0189579,0.102449,0.209316,0.0105743
-0.0734843,0.129877,-0.38199,0.0101983,0.0657672,0.157754,0.0105743
-0.0550058,0.148973,-0.315623,0.0196621,0.0307516,0.120548,0.0105743
-0.0642687,0.161902,-0.277548,0.00281733,0.00355747,0.0861011,0.0105743
-0.0623694,0.191495,-0.278684,-0.00787732,-0.0137852,0.041235,0.0105743
-0.0241429,0.148102,-0.301899,0.00719602,-0.0443636,-0.0165462,0.0105743
-0.0415047,0.127261,-0.23662,0.053107,-0.0718571,-0.0345966,0.0105743
-0.19173,0.198784,-0.0745475,0.0993948,-0.111064,-0.0166548,0.0105743
-0.346402,0.29558,0.139888,0.128038,-0.14075,-0.0369771,0.0105743
-0.358261,0.290558,0.292227,0.113034,-0.138988,-0.120402,0.0105743
-0.341278,0.0980591,0.388087,0.095177,-0.134282,-0.171627,0.0105743
-0.555249,0.0879532,0.524148,0.111422,-0.0957627,-0.129806,0.0105743
-0.827441,0.0414263,0.770158,0.142591,-0.10098,-0.140199,0.0105743
-0.914252,0.0738942,0.93225,0.112906,-0.0767834,-0.213568,0.0105743
-0.669444,-0.000951604,0.868152,0.0390869,-0.00481877,-0.295928,0.0105743
-0.335249,0.00728726,0.660117,-0.0175633,0.0363384,-0.282135,0.0105743
-0.116916,0.118723,0.461543,-0.014042,0.0379219,-0.181818,0.0105743
0.00558042,0.143746,0.360024,0.0352845,0.0245714,-0.0916637,0.0105743
0.084516,0.0498532,0.393053,0.100057,0.00815237,-0.0329835,0.0105743
0.136996,0.0354385,0.436887,0.12244,0.014646,0.0180328,0.0105743
0.19815,0.210697,0.438747,0.111211,0.0406166,0.0386125,0.0105743
0.301596,0.392604,0.432866,0.129367,0.0723198,0.01335,0.0105743
0.377847,0.402985,0.501296,0.158437,0.0922502,-0.0268257,0.0105743
0.327454,0.228162,0.652556,0.189539,0.102364,-0.0112966,0.0105743
0.123764,0.0401532,0.807065,0.187473,0.105099,0.0447758,0.0105743
-0.0521021,-0.0936643,0.931563,0.144867,0.0997758,0.072816,0.0105743
-0.05011,-0.175304,0.942563,0.0890562,0.102744,0.0748926,0.0105743
0.0729242,-0.212261,0.880757,0.0525531,0.103465,0.110289,0.0105743
0.128072,-0.20295,0.81201,0.0412838,0.0874078,0.1887,0.0105743
0.0799942,-0.203305,0.769892,0.0359731,0.0602484,0.260343,0.0105743
-0.0320027,-0.216813,0.776217,0.055442,0.028918,0.29825,0.0105743
-0.153038,-0.147837,0.81064,0.0490732,-0.00525023,0.290126,0.0105743
-0.192378,-0.0717456,0.814072,0.0247789,-0.0349102,0.229917,0.0105743
-0.201638,-0.0519708,0.738422,-0.00375688,-0.0325303,0.182893,0.0105743
-0.230036,-0.00113072,0.620112,-0.0262247,-0.046441,0.154351,0.0105743
-0.185098,0.0891581,0.513883,-0.0485924,-0.0711419,0.0774583,0.0105743
-0.0781739,0.00626956,0.390627,-0.0483891,-0.0770238,-0.0123556,0.0105743
0.0174365,-0.156269,0.260265,-0.0670222,-0.0931427,-0.0607103,0.0105743
0.0499138,-0.212251,0.112752,-0.0951972,-0.0987864,-0.0540465,0.0105743
0.0235735,-0.0471144,-0.0147115,-0.0955783,-0.109363,-0.0287203,0.0105743
0.040729,0.120789,-0.0860722,-0.0855303,-0.122326,-0.086352,0.0105743
0.120348,0.145532,-0.158124,-0.0540976,-0.107917,-0.166148,0.0105743
0.180453,0.027731,-0.175501,-0.040566,-0.116677,-0.205145,0.0105743
0.105505,-0.258208,-0.15466,-0.0488872,-0.109458,-0.196498,0.0105743
0.105505,-0.258208,-0.15466,-0.0488872,-0.109458,-0.196498,0
-0.0411613,-0.30051,-0.204842,-0.0819664,-0.0748783,-0.169251,0
-0.0782346,-0.169504,-0.251736,-0.063014,-0.042115,-0.175595,0
-0.101154,0.148115,-0.216176,-0.059168,-0.0540581,-0.204626,0
-0.0512041,0.110981,-0.203039,-0.0519084,-0.0348594,-0.278328,0
0.00655519,-0.188493,-0.277376,-0.0504897,0.0148513,-0.302403,0
0.101239,-0.441488,-0.38954,-0.0466823,0.0359463,-0.241832,0
0.270998,-0.592579,-0.477609,-0.0196288,0.0580304,-0.137791,0
0.325166,-0.552753,-0.513089,-0.0114735,0.0561057,0.0284691,0
0.264905,-0.39119,-0.515598,-0.00701114,0.0597119,0.159383,0
0.118167,-0.0925103,-0.51026,-0.0176789,0.0580722,0.223508,0
-0.0136223,0.258934,-0.476842,-0.0167642,0.0544408,0.193854,0
-0.0716763,0.475614,-0.492985,-0.0273196,0.0872499,0.101712,0
-0.024737,0.386945,-0.57133,-0.0142223,0.133995,-0.0192119,0
0.048717,0.177124,-0.572337,0.0287532,0.144456,-0.0894674,0
0.080504,0.0296681,-0.52261,0.0457494,0.13269,-0.0907174,0
0.13289,-0.0655228,-0.49406,0.0448991,0.134996,-0.0566228,0
0.230425,-0.138155,-0.516646,0.0351679,0.143714,-0.00723088,0
0.335516,-0.084404,-0.525429,0.0481743,0.141878,0.0618913,0
0.380582,0.0684624,-0.450859,0.0732632,0.121408,0.143896,0
0.325621,0.223606,-0.317036,0.0901689,0.103511,0.204746,0
0.213166,0.319676,-0.179635,0.0857556,0.0977099,0.224765,0
0.144454,0.350917,-0.0564712,0.0680905,0.0858107,0.176711,0
0.137284,0.228506,0.0282685,0.0563397,0.0941735,0.11672,0
0.0963194,0.0607512,0.127443,0.0494527,0.0845552,0.103768,0
0.0185938,0.0173846,0.256404,0.0278989,0.0537813,0.117665,0
-0.0715359,0.135366,0.377028,0.000980277,0.0416799,0.119065,0
-0.19008,0.180377,0.455894,-0.0140643,0.0228328,0.0744131,0
-0.247105,0.188951,0.502098,-0.0126697,0.0114079,-0.000434637,0
-0.189977,0.215549,0.563551,0.00411099,-0.00582778,-0.0818908,0
-0.159236,0.188642,0.648443,0.0343465,-0.0195653,-0.118313,0
-0.181358,0.11784,0.687758,0.0381636,-0.0354511,-0.11579,0
-0.143071,-0.0633624,0.712299,0.0448534,-0.0480859,-0.119796,0
-0.205289,-0.0506805,0.767858,0.0392181,-0.087726,-0.0698395,0
-0.3628,0.246261,0.876815,0.0487136,-0.0928479,-0.0582488,0
-0.441325,0.393511,1.0397,0.0930176,-0.0753565,-0.128819,0
-0.465842,0.384061,1.16896,0.0966476,-0.0547066,-0.221316,0
-0.390926,0.215611,1.1917,0.0923188,-0.00477672,-0.284186,0
-0.185904,0.063904,1.11002,0.076511,0.0307248,-0.290438,0
-0.0204573,0.0365503,1.02295,0.0713613,0.0509684,-0.20385,0
-0.00234381,0.0335392,0.984157,0.0977511,0.0462489,-0.0838466,0
-0.0557653,0.0765051,1.0235,0.135823,0.0361992,0.000314295,0
-0.0515688,0.129512,1.06136,0.167322,0.0534983,0.0325981,0
0.0532045,0.160218,1.04626,0.170859,0.0883389,0.0416787,0
0.165839,0.205113,1.00664,0.179432,0.122459,0.0608847,0
0.224578,0.266624,0.973953,0.176454,0.137132,0.0905915,0
0.203843,0.371658,1.03096,0.214648,0.141528,0.105611,0
0.108024,0.454912,1.17886,0.246558,0.137888,0.0901957,0
-0.0412637,0.356907,1.33931,0.255739,0.153859,0.0547605,0
-0.173025,0.18594,1.46871,0.238483,0.155819,0.0182804,0
-0.251952,0.0695911,1.58024,0.187492,0.1432,-0.00954282,0
-0.228849,0.0358336,1.57288,0.142547,0.144529,-0.0145299,0
-0.118803,0.0411035,1.48675,0.103301,0.137386,-0.00654185,0
0.00661828,0.0467633,1.39965,0.107917,0.117595,0.0246079,0
0.0692045,0.0579794,1.39135,0.141681,0.0907044,0.0732052,0
0.0692045,0.0579794,1.39135,0.141681,0.0907044,0.0732052,0
0.01184,0.0913429,1.41955,0.129472,0.0584892,0.125125,0
-0.0754917,0.0829004,1.36079,0.0917524,0.0519568,0.143956,0
-0.074447,0.0840428,1.26285,0.0787052,0.0480279,0.119263,0
-0.0679646,0.191633,1.20056,0.0768295,0.01264,0.0976078,0
-0.0705673,0.20729,1.16804,0.0892124,-0.0147783,0.0642487,0
-0.0841329,0.105032,1.18694,0.114463,-0.0275876,0.0325967,0
-0.133516,0.0562529,1.21858,0.101484,-0.058357,0.0324264,0
-0.144212,0.147166,1.15753,0.0543281,-0.0604481,0.0235691,0
0.0021349,0.158648,0.991412,0.00225644,-0.0511732,-0.0456532,0
0.157236,-0.00431085,0.845806,0.000551671,-0.0540698,-0.0799134,0
0.163091,-0.163784,0.731124,-0.000692092,-0.0758,-0.0410219,0
0.118464,-0.127631,0.61647,-0.00887059,-0.0862391,-0.00188214,0
0.166971,0.0377786,0.535311,0.00785105,-0.0918224,-0.0295609,0
0.301591,0.099454,0.498449,0.0337116,-0.0958523,-0.0942524,0
0.362323,-0.0610567,0.493173,0.0429183,-0.0791394,-0.128318,0
0.148251,-0.160366,0.427157,0.0313604,-0.0387235,-0.103814,0
-0.00900163,0.0247448,0.354189,0.0820302,-0.00769545,-0.14075,0
0.146187,0.596946,0.512789,0.144529,-0.0468234,-0.272503,0
0.447113,0.709413,0.678787,0.147727,-0.037049,-0.38488,0
0.668327,0.293896,0.63674,0.102995,0.0337523,-0.369652,0
0.64656,-0.31062,0.628492,0.101249,0.0707559,-0.217408,0
0.374812,-0.605592,0.700545,0.118881,0.0412457,0.00313604,0
0.196707,-0.39311,0.801117,0.136367,0.0274687,0.107977,0
0.31888,0.0326302,0.905793,0.121738,0.031688,0.0911857,0
0.527664,0.274512,0.907213,0.0878388,0.0798089,0.0575429,0
0.518566,0.256213,0.848711,0.0780119,0.124208,0.0818626,0
0.340886,0.199262,0.84468,0.0904343,0.136795,0.107678,0
0.180632,0.18796,0.943457,0.131054,0.135712,0.0891098,0
0.0929682,0.204625,1.1401,0.170663,0.118281,0.0481058,0
0.018487,0.216551,1.32951,0.163812,0.125399,0.0201722,0
-0.0525755,0.163987,1.41777,0.119361,0.153841,-0.00122654,0
-0.0747564,0.0511815,1.41857,0.0772076,0.177781,-0.0212377,0
-0.0144723,-0.00372974,1.37699,0.0507698,0.178461,-0.0327938,0
0.0826079,0.0758266,1.30576,0.0355645,0.171423,-0.0211744,0
0.145429,0.142059,1.23229,0.0408743,0.163015,0.0107364,0
0.106304,0.143139,1.22017,0.0652375,0.134843,0.0579357,0
0.000766314,0.0995307,1.29142,0.0917308,0.0906893,0.0949658,0
-0.0896366,0.075657,1.37104,0.0915839,0.0680659,0.120028,0
-0.141265,0.112551,1.40525,0.0586153,0.0517527,0.131817,0
-0.111802,0.191464,1.37588,0.0253853,0.0380871,0.117566,0
-0.0542985,0.263738,1.33743,0.0145736,0.0171728,0.0919811,0
-0.0135346,0.285286,1.35041,0.0213523,-0.0128579,0.0697615,0
0.0153748,0.264134,1.40078,0.0167656,-0.0382164,0.0501866,0
0.0216258,0.221562,1.40405,-0.00498785,-0.0459068,0.0385073,0
0.0460558,0.278429,1.35375,-0.0360395,-0.0552323,0.0262728,0
0.133345,0.408146,1.30882,-0.053524,-0.0731424,-0.00794077,0
0.201923,0.449781,1.27108,-0.0577928,-0.0853924,-0.0399519,0
0.192468,0.399683,1.24873,-0.0628141,-0.0894237,-0.0457322,0
0.138926,0.330843,1.24459,-0.0621592,-0.105005,-0.0606428,0
0.126119,0.358692,1.24371,-0.0720272,-0.11205,-0.0747093,0
0.168404,0.481452,1.19825,-0.101243,-0.104311,-0.106983,0
0.282087,0.508098,1.05196,-0.135628,-0.0788255,-0.151217,0
0.428685,0.364994,0.869559,-0.163499,-0.0751428,-0.179612,0
0.375297,0.405061,0.763737,-0.14311,-0.0775868,-0.132744,0
0.375297,0.405061,0.763737,-0.14311,-0.0775868,-0.132744,0
0.149591,0.499932,0.760755,-0.109264,-0.0793625,-0.0906456,0
-0.0749023,0.590497,0.818851,-0.0671883,-0.0679069,-0.131119,0
-0.0728988,0.599176,0.764564,-0.0737014,-0.0292578,-0.231591,0
0.0652673,0.437682,0.604006,-0.0862602,0.024203,-0.270781,0
0.163429,0.296942,0.393615,-0.0965888,0.0379116,-0.212053,0
0.224259,0.257494,0.252755,-0.0601476,0.0315432,-0.113343,0
0.288105,0.364524,0.244902,0.00272004,0.00883904,-0.0223227,0
0.347655,0.442287,0.303767,0.0586263,0.00983651,0.0500726,0
0.385647,0.442976,0.35729,0.0788545,0.0355996,0.113562,0
0.424275,0.333254,0.369934,0.0560526,0.0547376,0.148146,0
0.432064,0.169102,0.338903,0.0409447,0.0876108,0.174494,0
0.352364,0.191998,0.297797,0.0291987,0.10246,0.21935,0
0.220196,0.356421,0.341685,0.0393684,0.0833108,0.21392,0
0.120288,0.342111,0.469552,0.0810623,0.0695632,0.137486,0
0.0550413,0.235518,0.626445,0.106101,0.0587379,0.0574389,0
-0.0615777,0.176316,0.756041,0.0668601,0.0616943,0.0409846,0
-0.239059,0.178165,0.720217,0.0182329,0.0873573,0.048722,0
-0.30451,0.0815339,0.630553,-0.00415916,0.0840997,0.0089035,0
-0.150557,-0.169253,0.517494,-0.0111713,0.066367,-0.0356363,0
0.0114264,-0.359926,0.371177,-0.0164762,0.0588437,0.0340967,0
0.023817,-0.256965,0.233797,-0.0301624,0.0330139,0.174165,0
-0.0373518,0.000135043,0.129799,-0.0366249,-0.00235112,0.249139,0
-0.0722791,0.145373,0.0691507,-0.0162005,-0.0211543,0.240685,0
-0.149023,0.145027,0.069896,0.0112691,-0.0483784,0.213867,0
-0.280082,0.101707,0.114792,0.0300378,-0.0692288,0.17409,0
-0.359391,0.0201436,0.118887,0.0232794,-0.0782602,0.108015,0
-0.314753,-0.077181,0.0482107,0.000705939,-0.0692265,0.0337434,0
-0.225397,-0.174445,-0.0371916,-0.0185239,-0.0750936,-0.00588316,0
-0.158056,-0.274306,-0.0997014,-0.00934543,-0.0952863,-0.0138099,0
-0.121614,-0.239782,-0.141308,-0.0122591,-0.113882,0.00405711,0
-0.0702402,-0.181975,-0.204922,-0.0320512,-0.116552,-0.00260216,0
-0.0532402,-0.168991,-0.289353,-0.0309827,-0.114411,-0.00570881,0
-0.0983645,-0.118553,-0.322325,-0.0120481,-0.129539,-0.00850779,0
-0.119091,-0.0434181,-0.29284,0.0118502,-0.148058,-0.0541811,0
-0.106495,-0.0759243,-0.275117,0.0238776,-0.142937,-0.116815,0
-0.0681193,-0.205462,-0.318078,0.0156715,-0.126555,-0.169577,0
-0.068902,-0.405865,-0.348649,0.00502376,-0.122511,-0.178324,0
-0.141656,-0.269044,-0.41104,-0.0074778,-0.106636,-0.145832,0
-0.100195,-0.0979609,-0.426706,0.00947656,-0.0882061,-0.157449,0
-0.0812705,0.00626718,-0.375497,0.0467884,-0.0980158,-0.182788,0
-0.0171445,-0.0118791,-0.364077,0.0470372,-0.0756792,-0.221397,0
0.117743,-0.294745,-0.416506,0.0158158,-0.0360015,-0.241239,0
0.0603146,-0.530247,-0.516954,0.0124131,-0.00586189,-0.150821,0
0.0293532,-0.372373,-0.58496,0.0234037,-0.0110971,-0.0720833,0
0.222559,-0.0344752,-0.558693,0.0393042,-0.0153712,-0.0757527,0
0.426454,0.0417839,-0.562201,0.0418591,0.0153286,-0.0639679,0
0.42134,-0.0575085,-0.602405,0.0135879,0.0483625,0.00468093,0
0.309552,-0.0406934,-0.632455,-0.00326087,0.059352,0.0561649,0
0.2262,0.0673609,-0.609945,0.00882123,0.0670703,0.0572042,0
0.179229,0.281993,-0.534431,0.0294495,0.0836451,0.0333891,0
0.168422,0.296634,-0.383623,0.059719,0.0879656,-0.0167797,0
0.0846785,0.168164,-0.22693,0.0695338,0.108256,-0.0352778,0
0.0248803,-0.0286984,-0.141353,0.0453274,0.134636,-0.0457882,0
0.0248803,-0.0286984,-0.141353,0.0453274,0.134636,-0.0457882,0
0.0948483,-0.191315,-0.152513,0.0100542,0.165316,-0.050602,0
0.266444,-0.246744,-0.212893,-0.00728536,0.181912,-0.0255477,0
0.390149,-0.241388,-0.242612,0.00506465,0.182844,0.0402693,0
0.350213,-0.324182,-0.15228,0.0539051,0.15478,0.112877,0
0.292798,-0.515721,-0.0170504,0.101622,0.135713,0.14934,0
0.356749,-0.124161,0.149736,0.0772778,0.131546,0.224509,0
0.0924027,0.465778,0.160582,-0.00202216,0.0919609,0.309273,0
-0.0356189,0.457909,0.18401,0.0315425,0.123024,0.194109,0
-0.117398,0.168207,0.242955,0.038391,0.0912168,0.0967464,0
-0.107601,0.125479,0.254484,0.0116555,0.0796973,0.0705724,0
-0.0312878,0.367529,0.220434,-0.0238927,0.0645857,0.0287097,0
