rotationRate_x,rotationRate_y,rotationRate_z,acceleration_x,acceleration_y,acceleration_z,relativeAltitude,altitude_pressure
0.0414536,0.947011,0.699927,0.319588,0.0384007,-0.0186207,0.001,0.0001
-0.277194,0.267494,0.994834,0.265448,0.0644655,-0.0176987,0.001,0.0001
-0.311375,-0.330157,1.12776,0.174466,0.101652,0.048969,0.001,0.0001
-0.208858,-0.666775,1.10479,0.116114,0.123959,0.170601,0.001,0.0001
-0.0757797,-0.700094,1.00349,0.0816149,0.130592,0.288126,0.001,0.0001
0.0501592,-0.541817,0.910177,0.055699,0.123303,0.374779,0.001,0.0001
0.12174,-0.382359,0.890335,0.0430923,0.105898,0.423208,0.001,0.0001
0.0891163,-0.286761,0.948696,0.0240732,0.0713466,0.448642,0.001,0.0001
-0.0671393,-0.126484,1.04712,-0.0114916,0.0399725,0.461925,0.001,0.0001
-0.294439,0.202466,1.13815,-0.0592839,0.00462204,0.442854,0.001,0.0001
-0.482659,0.526639,1.16787,-0.111199,-0.0291755,0.377873,0.001,0.0001
-0.575961,0.579321,1.19126,-0.126203,-0.0410839,0.264603,0.001,0.0001
-0.632156,0.343962,1.18891,-0.138947,-0.0467678,0.155298,0.001,0.0001
-0.693837,0.257062,1.07727,-0.201208,-0.0744501,0.0531977,0.001,0.0001
-0.694759,0.296393,0.811533,-0.29098,-0.111269,-0.065097,0.001,0.0001
-0.609681,0.317904,0.460938,-0.357101,-0.132742,-0.186742,0.001,0.0001
-0.463651,0.332668,0.0916269,-0.414154,-0.167533,-0.330368,0.001,0.0001
-0.340731,0.150201,-0.163859,-0.381866,-0.192508,-0.443849,0.001,0.0001
-0.376798,0.0314251,-0.319363,-0.328397,-0.239657,-0.525458,0.001,0.0001
-0.489907,0.217645,-0.406422,-0.288964,-0.289121,-0.593217,0.001,0.0001
-0.417009,0.393537,-0.394935,-0.277869,-0.314796,-0.685711,0.001,0.0001
-0.139347,0.122352,-0.345106,-0.251612,-0.298165,-0.753967,0.001,0.0001
0.18614,-0.483485,-0.420252,-0.231002,-0.235289,-0.703186,0.001,0.0001
0.378802,-0.895981,-0.682089,-0.226787,-0.166914,-0.505495,0.001,0.0001
0.474711,-0.81573,-0.993979,-0.218289,-0.105559,-0.290208,0.001,0.0001
0.667464,-0.539629,-1.27687,-0.203378,-0.074256,-0.148259,0.001,0.0001
0.986737,-0.461011,-1.49377,-0.167766,-0.0424617,-0.033241,0.001,0.0001
1.29734,-0.496108,-1.64342,-0.139501,-0.00102061,0.0781134,0.001,0.0001
1.41533,-0.421595,-1.75162,-0.132891,0.0399146,0.180833,0.001,0.0001
1.28831,-0.142576,-1.832,-0.156596,0.0524459,0.241039,0.001,0.0001
1.00417,0.229843,-1.87023,-0.189052,0.062732,0.246152,0.001,0.0001
0.720853,0.535405,-1.83058,-0.209665,0.0841977,0.173593,0.001,0.0001
0.547079,0.738235,-1.68581,-0.172005,0.120456,0.0273104,0.001,0.0001
0.604738,0.606593,-1.55354,-0.15419,0.13606,-0.130489,0.001,0.0001
0.885253,0.274523,-1.50043,-0.164262,0.187969,-0.212155,0.001,0.0001
1.22233,-0.07923,-1.57719,-0.205606,0.259693,-0.175405,0.001,0.0001
1.4203,-0.343888,-1.77024,-0.231845,0.314623,-0.0491796,0.001,0.0001
1.40379,-0.480163,-1.90434,-0.19943,0.343127,0.092773,0.001,0.0001
1.22117,-0.49878,-1.89821,-0.141455,0.319699,0.191909,0.001,0.0001
0.984469,-0.392034,-1.73156,-0.100937,0.271012,0.235876,0.001,0.0001
0.826833,-0.227116,-1.38938,-0.0590256,0.247282,0.234578,0.001,0.0001
0.748926,-0.224869,-1.05351,-0.0505219,0.237401,0.223674,0.001,0.0001
0.687804,-0.308187,-0.839543,-0.0571916,0.241766,0.208609,0.001,0.0001
0.572481,-0.535667,-0.708212,-0.0376695,0.241858,0.195975,0.001,0.0001
0.358637,-0.879817,-0.562745,0.00391042,0.204221,0.179717,0.001,0.0001
0.0616865,-1.25929,-0.323257,0.0557749,0.139983,0.144482,0.001,0.0001
-0.239019,-1.46486,-0.00824278,0.107655,0.0733598,0.113604,0.001,0.0001
-0.461108,-1.25171,0.321851,0.1749,0.0388942,0.0828059,0.001,0.0001
-0.565098,-0.90487,0.651597,0.250279,0.021261,0.0218664,0.001,0.0001
-0.587455,-0.598097,0.960971,0.281645,0.00777167,-0.0478659,0.001,0.0001
-0.536016,-0.336919,1.11333,0.244834,-0.0273148,-0.136971,0.001,0.0001
-0.536016,-0.336919,1.11333,0.244834,-0.0273148,-0.136971,0.0369873,-0.000442505
-0.445703,-0.384306,1.1588,0.238517,-0.0640055,-0.185722,0.0369873,-0.000442505
-0.42828,-0.371886,1.15852,0.244386,-0.0466931,-0.169994,0.0369873,-0.000442505
-0.574746,-0.238262,1.23905,0.278101,-0.018947,-0.138046,0.0369873,-0.000442505
-0.891694,-0.0347641,1.41743,0.289998,-0.0145873,-0.146354,0.0369873,-0.000442505
-1.2184,0.0726218,1.5981,0.248072,0.0027293,-0.204093,0.0369873,-0.000442505
-1.30054,0.110514,1.55908,0.148684,0.03927,-0.281948,0.0369873,-0.000442505
-1.0166,0.141463,1.22571,0.041151,0.079938,-0.335203,0.0369873,-0.000442505
-0.504218,0.342111,0.684627,-0.0208916,0.128104,-0.320325,0.0369873,-0.000442505
0.112041,0.635097,0.0674263,-0.0107252,0.160661,-0.260543,0.0369873,-0.000442505
0.6773,0.757741,-0.428359,0.0582321,0.145619,-0.182508,0.0369873,-0.000442505
1.01096,0.754302,-0.588019,0.156345,0.113075,-0.0786397,0.0369873,-0.000442505
1.03057,0.725874,-0.415684,0.228063,0.0719199,0.0366518,0.0369873,-0.000442505
0.815203,0.682191,-0.05082,0.242627,0.0615273,0.139881,0.0369873,-0.000442505
0.52309,0.634953,0.337787,0.215109,0.0832125,0.227722,0.0369873,-0.000442505
0.265086,0.607017,0.591536,0.149509,0.119612,0.293192,0.0369873,-0.000442505
0.0837562,0.530448,0.69383,0.0827374,0.149144,0.329319,0.0369873,-0.000442505
-0.0161667,0.399217,0.749908,0.0481859,0.166201,0.356372,0.0369873,-0.000442505
-0.0846679,0.275278,0.839492,0.01604,0.158789,0.376321,0.0369873,-0.000442505
-0.181577,0.233292,0.955093,-0.0260291,0.153636,0.400677,0.0369873,-0.000442505
-0.32685,0.232731,1.05048,-0.0692569,0.154841,0.412288,0.0369873,-0.000442505
-0.518442,0.157985,1.06215,-0.0948943,0.16518,0.416023,0.0369873,-0.000442505
-0.728324,0.103253,0.986914,-0.129861,0.16821,0.40046,0.0369873,-0.000442505
-0.885643,0.197923,0.870818,-0.160613,0.154153,0.352852,0.0369873,-0.000442505
-0.923307,0.256365,0.735821,-0.200464,0.106525,0.270578,0.0369873,-0.000442505
-0.882166,0.160595,0.605346,-0.24556,0.049033,0.170131,0.0369873,-0.000442505
-0.838939,-0.0366637,0.437472,-0.296024,-0.0104519,0.0745836,0.0369873,-0.000442505
-0.865295,-0.228623,0.215955,-0.329939,-0.0743542,-0.0116388,0.0369873,-0.000442505
-0.906614,-0.196373,-0.00980763,-0.35649,-0.13976,-0.124827,0.0369873,-0.000442505
-0.802157,-0.181001,-0.175082,-0.325691,-0.218774,-0.281309,0.0369873,-0.000442505
-0.636937,-0.44142,-0.222588,-0.297785,-0.321452,-0.424575,0.0369873,-0.000442505
-0.631075,-0.410254,-0.1395,-0.288969,-0.396555,-0.498221,0.0369873,-0.000442505
-0.747514,0.114923,0.128909,-0.281765,-0.43475,-0.53833,0.0369873,-0.000442505
-0.635955,0.694368,0.435856,-0.229068,-0.403756,-0.647026,0.0369873,-0.000442505
-0.272432,0.837732,0.54096,-0.191557,-0.294662,-0.741296,0.0369873,-0.000442505
0.208405,0.475319,0.361878,-0.194094,-0.168504,-0.728716,0.0369873,-0.000442505
0.644984,-0.388235,-0.124411,-0.200476,-0.0730292,-0.575515,0.0369873,-0.000442505
0.84022,-1.28637,-0.798106,-0.219657,-0.0259246,-0.323009,0.0369873,-0.000442505
0.788823,-1.43412,-1.39572,-0.199183,-0.0268249,-0.0997683,0.0369873,-0.000442505
0.718244,-0.899481,-1.81606,-0.133046,-0.0784563,-0.00163341,0.0369873,-0.000442505
0.819949,-0.305519,-1.85017,-0.0432068,-0.116413,-0.0188671,0.0369873,-0.000442505
1.06901,0.227346,-1.54616,0.0198915,-0.126369,-0.0825981,0.0369873,-0.000442505
1.29452,0.664682,-1.13695,0.068267,-0.0841694,-0.112714,0.0369873,-0.000442505
1.40444,0.868053,-0.82501,0.0572501,0.00581464,-0.117025,0.0369873,-0.000442505
1.44228,0.731442,-0.672973,0.0225832,0.103643,-0.0928676,0.0369873,-0.000442505
1.45053,0.37308,-0.705663,-0.0326985,0.205571,-0.0198589,0.0369873,-0.000442505
1.40605,0.0455245,-0.895964,-0.082439,0.292881,0.087626,0.0369873,-0.000442505
1.32718,-0.122616,-1.19654,-0.125551,0.349144,0.190471,0.0369873,-0.000442505
1.26396,-0.0494529,-1.52244,-0.136984,0.381926,0.256266,0.0369873,-0.000442505
1.26121,0.135461,-1.76225,-0.123657,0.381149,0.278334,0.0369873,-0.000442505
1.28029,0.310893,-1.8225,-0.104004,0.36797,0.276286,0.0369873,-0.000442505
1.25025,0.513537,-1.7173,-0.102445,0.348148,0.254582,0.0369873,-0.000442505
1.25025,0.513537,-1.7173,-0.102445,0.348148,0.254582,0.0370026,-0.000442505
1.15229,0.640494,-1.52303,-0.114587,0.32153,0.208963,0.0370026,-0.000442505
0.971109,0.527555,-1.28239,-0.118354,0.297941,0.156356,0.0370026,-0.000442505
0.685479,0.325146,-1.03283,-0.113642,0.271449,0.105763,0.0370026,-0.000442505
0.337658,0.120979,-0.804171,-0.124456,0.232453,0.0532668,0.0370026,-0.000442505
-0.0279116,-0.0105834,-0.529887,-0.113764,0.199129,-0.00411415,0.0370026,-0.000442505
-0.37786,-0.0761491,-0.191957,-0.0695333,0.172646,-0.0605927,0.0370026,-0.000442505
-0.628561,-0.157743,0.134012,-0.0385972,0.141626,-0.133325,0.0370026,-0.000442505
-0.820508,-0.602854,0.426464,-0.0336754,0.0888821,-0.192674,0.0370026,-0.000442505
-1.00552,-0.780989,0.657839,-0.0126233,0.0718706,-0.20225,0.0370026,-0.000442505
-1.09934,-0.628833,0.738681,0.00423034,0.0787512,-0.168878,0.0370026,-0.000442505
-1.02778,-0.21325,0.725434,0.0309852,0.0655834,-0.124249,0.0370026,-0.000442505
-0.773644,0.306463,0.685486,0.056146,0.0356696,-0.116236,0.0370026,-0.000442505
-0.403888,0.593845,0.601763,0.0632837,-9.61423e-05,-0.114881,0.0370026,-0.000442505
-0.0376885,0.434927,0.525743,0.0894129,0.00689265,-0.078984,0.0370026,-0.000442505
0.106026,-0.168736,0.470509,0.106798,0.0178321,0.00151634,0.0370026,-0.000442505
-0.104138,-0.707982,0.456785,0.104236,0.0359275,0.0999616,0.0370026,-0.000442505
-0.56441,-0.795323,0.404753,0.0852012,0.0533836,0.180583,0.0370026,-0.000442505
-1.00118,-0.556982,0.234061,0.0566192,0.0508624,0.212881,0.0370026,-0.000442505
-1.198,-0.196425,0.0704606,0.0828322,0.0644128,0.154295,0.0370026,-0.000442505
-1.15668,0.118928,-0.0820537,0.14114,0.0751173,0.0696982,0.0370026,-0.000442505
-0.938227,0.340005,-0.161075,0.185631,0.0519191,0.0111368,0.0370026,-0.000442505
-0.588358,0.357425,-0.121729,0.217847,0.0380892,-0.0126864,0.0370026,-0.000442505
-0.258794,0.0752242,-0.0512226,0.17295,0.0362839,0.0383121,0.0370026,-0.000442505
-0.139632,-0.226538,-0.00258828,0.0880881,0.0486465,0.146856,0.0370026,-0.000442505
-0.291216,-0.313459,-0.00504091,0.0279131,0.0668596,0.25157,0.0370026,-0.000442505
-0.606043,-0.270829,-0.0736077,-0.00747715,0.0571518,0.323484,0.0370026,-0.000442505
-0.90839,-0.109693,-0.099975,-0.0186009,0.0270716,0.325508,0.0370026,-0.000442505
-1.02252,0.1304,-0.00942292,-0.0134681,-0.0134477,0.255569,0.0370026,-0.000442505
-0.900584,0.333086,0.0895918,-0.0427546,-0.0502474,0.169426,0.0370026,-0.000442505
-0.634978,0.55598,0.132266,-0.114745,-0.0588699,0.0930294,0.0370026,-0.000442505
-0.426141,0.487744,0.0978594,-0.163506,-0.0538586,0.058515,0.0370026,-0.000442505
-0.412819,0.269895,-0.0119602,-0.211075,-0.0590934,0.031658,0.0370026,-0.000442505
-0.545622,0.0941752,-0.1512,-0.267874,-0.0854568,-0.00705785,0.0370026,-0.000442505
-0.67988,0.0112671,-0.260084,-0.317782,-0.121131,-0.0564715,0.0370026,-0.000442505
-0.729707,0.138213,-0.340138,-0.329646,-0.139398,-0.116784,0.0370026,-0.000442505
-0.664453,0.426306,-0.40506,-0.307177,-0.144534,-0.212467,0.0370026,-0.000442505
-0.527268,0.396811,-0.480258,-0.268168,-0.147359,-0.359244,0.0370026,-0.000442505
-0.443136,0.132075,-0.535015,-0.264187,-0.173691,-0.496743,0.0370026,-0.000442505
-0.403212,-0.0796035,-0.610517,-0.276058,-0.16864,-0.56378,0.0370026,-0.000442505
-0.324781,-0.264962,-0.72507,-0.280911,-0.156026,-0.581234,0.0370026,-0.000442505
-0.122442,-0.457797,-0.923243,-0.254234,-0.10048,-0.552825,0.0370026,-0.000442505
0.196186,-0.796163,-1.21684,-0.235247,-0.0488691,-0.459103,0.0370026,-0.000442505
0.460585,-1.0776,-1.50263,-0.228488,-0.00745428,-0.283205,0.0370026,-0.000442505
0.556974,-1.11214,-1.72986,-0.223088,0.0166238,-0.0922768,0.0370026,-0.000442505
0.542172,-1.00139,-1.9299,-0.228619,0.0342836,0.0623972,0.0370026,-0.000442505
0.475223,-0.680338,-2.12953,-0.248797,0.0481986,0.157518,0.0370026,-0.000442505
0.433847,-0.174278,-2.31656,-0.274325,0.0603323,0.187252,0.0370026,-0.000442505
0.448981,0.36856,-2.46759,-0.284686,0.0697678,0.158064,0.0370026,-0.000442505
0.528232,0.804463,-2.5695,-0.280556,0.0855413,0.0729781,0.0370026,-0.000442505
0.60432,1.06647,-2.61718,-0.240585,0.116496,-0.0461497,0.0370026,-0.000442505
0.60432,1.06647,-2.61718,-0.240585,0.116496,-0.0461497,0.0158539,-0.000175476
0.722814,1.16047,-2.6365,-0.211215,0.150815,-0.166106,0.0158539,-0.000175476
0.914602,0.889487,-2.63994,-0.194406,0.180086,-0.260052,0.0158539,-0.000175476
1.13771,0.304102,-2.67298,-0.202672,0.217337,-0.270012,0.0158539,-0.000175476
1.27819,-0.162218,-2.7773,-0.242905,0.261301,-0.16605,0.0158539,-0.000175476
1.31006,-0.357687,-2.90611,-0.273319,0.281668,-0.019933,0.0158539,-0.000175476
1.25907,-0.475806,-2.98133,-0.283113,0.273994,0.0988905,0.0158539,-0.000175476
1.11826,-0.528143,-2.97497,-0.274037,0.258121,0.190647,0.0158539,-0.000175476
0.894075,-0.454146,-2.89712,-0.267199,0.22334,0.241694,0.0158539,-0.000175476
0.672964,-0.316651,-2.75724,-0.268458,0.181299,0.250562,0.0158539,-0.000175476
0.494104,-0.198355,-2.53069,-0.252968,0.135828,0.207899,0.0158539,-0.000175476
0.378793,-0.185645,-2.19231,-0.243305,0.0847686,0.127426,0.0158539,-0.000175476
0.339466,-0.245094,-1.76764,-0.236744,0.0546668,0.0217717,0.0158539,-0.000175476
0.338601,-0.323907,-1.27883,-0.219299,0.0502045,-0.0848181,0.0158539,-0.000175476
0.322729,-0.376597,-0.814927,-0.212322,0.0811234,-0.165556,0.0158539,-0.000175476
0.255226,-0.529959,-0.506628,-0.242208,0.130653,-0.20611,0.0158539,-0.000175476
0.117571,-0.742768,-0.33106,-0.243632,0.173816,-0.22532,0.0158539,-0.000175476
-0.0699439,-0.939527,-0.201312,-0.192047,0.19533,-0.235779,0.0158539,-0.000175476
-0.214803,-1.24316,-0.0849921,-0.136739,0.186393,-0.252936,0.0158539,-0.000175476
-0.396222,-1.61055,0.0936437,-0.0521503,0.170206,-0.237567,0.0158539,-0.000175476
-0.66716,-1.78028,0.312993,0.0500773,0.159044,-0.184631,0.0158539,-0.000175476
-0.963543,-1.76406,0.571584,0.14448,0.145391,-0.123597,0.0158539,-0.000175476
-1.20905,-1.69013,0.799837,0.196712,0.123159,-0.0824775,0.0158539,-0.000175476
-1.34428,-1.66395,0.915468,0.198544,0.0847565,-0.0867584,0.0158539,-0.000175476
-1.31792,-1.66492,0.895597,0.208778,0.0594929,-0.102621,0.0158539,-0.000175476
-1.15195,-1.61602,0.73345,0.232767,0.0484076,-0.0863411,0.0158539,-0.000175476
-0.88991,-1.36321,0.457727,0.262552,0.0547321,-0.0515518,0.0158539,-0.000175476
-0.569887,-0.89986,0.117048,0.266023,0.0723042,-0.00462067,0.0158539,-0.000175476
-0.244633,-0.221214,-0.252674,0.260113,0.101613,0.00946438,0.0158539,-0.000175476
0.0286133,0.325284,-0.606048,0.26348,0.0934288,-0.00814205,0.0158539,-0.000175476
0.201675,0.559893,-0.850058,0.304492,0.0641779,-0.0204734,0.0158539,-0.000175476
0.250608,0.580415,-0.913149,0.353611,0.0116685,-0.0253428,0.0158539,-0.000175476
0.221852,0.401554,-0.806884,0.396017,-0.0483212,-0.0067988,0.0158539,-0.000175476
0.154241,0.102839,-0.530446,0.408308,-0.0882072,0.053144,0.0158539,-0.000175476
0.0725771,-0.0431893,-0.20051,0.356864,-0.106562,0.138658,0.0158539,-0.000175476
-0.0332707,-0.0209228,0.0496509,0.276334,-0.111866,0.226523,0.0158539,-0.000175476
-0.11474,0.0123645,0.235934,0.22659,-0.106577,0.280877,0.0158539,-0.000175476
-0.150034,-0.0292991,0.394191,0.204641,-0.108904,0.293469,0.0158539,-0.000175476
-0.159612,-0.129479,0.558148,0.178011,-0.118106,0.288613,0.0158539,-0.000175476
-0.132618,-0.138914,0.694655,0.129703,-0.117931,0.279909,0.0158539,-0.000175476
-0.0643469,-0.00944461,0.786155,0.0535233,-0.11474,0.272382,0.0158539,-0.000175476
0.0269916,0.169408,0.841393,-0.0267285,-0.107848,0.253972,0.0158539,-0.000175476
0.110444,0.317718,0.896409,-0.100976,-0.100273,0.215262,0.0158539,-0.000175476
0.125767,0.404809,0.920417,-0.169417,-0.100749,0.165904,0.0158539,-0.000175476
0.0662643,0.386266,0.841768,-0.242862,-0.109899,0.103146,0.0158539,-0.000175476
-0.0520016,0.284499,0.692135,-0.319875,-0.114554,0.0160851,0.0158539,-0.000175476
-0.226643,0.230377,0.528908,-0.352972,-0.119304,-0.0815457,0.0158539,-0.000175476
-0.408714,0.336019,0.451335,-0.318568,-0.13463,-0.228064,0.0158539,-0.000175476
-0.52168,0.0752483,0.444463,-0.288477,-0.192351,-0.391908,0.0158539,-0.000175476
-0.511482,-0.282176,0.488601,-0.299804,-0.208458,-0.516522,0.0158539,-0.000175476
-0.471028,-0.313082,0.423442,-0.35584,-0.200613,-0.546499,0.0158539,-0.000175476
-0.410694,-0.0833606,0.263209,-0.388101,-0.17511,-0.548835,0.0158539,-0.000175476
-0.410694,-0.0833606,0.263209,-0.388101,-0.17511,-0.548835,0.00791931,-0.00012207
-0.242529,-0.046281,0.044074,-0.343303,-0.10768,-0.564422,0.00791931,-0.00012207
-0.00196576,-0.232329,-0.255475,-0.303227,-0.057732,-0.534319,0.00791931,-0.00012207
0.252328,-0.444621,-0.6018,-0.272623,-0.0263393,-0.429718,0.00791931,-0.00012207
0.485744,-0.644157,-0.914124,-0.24265,-0.0104378,-0.26961,0.00791931,-0.00012207
0.618763,-0.778199,-1.13469,-0.209838,0.00691,-0.0964174,0.00791931,-0.00012207
0.654431,-0.650662,-1.31853,-0.199161,0.0268462,0.0423354,0.00791931,-0.00012207
0.647163,-0.303855,-1.51822,-0.190463,0.0428603,0.138712,0.00791931,-0.00012207
0.637018,0.183511,-1.6733,-0.175168,0.0644691,0.171609,0.00791931,-0.00012207
0.667846,0.570984,-1.77903,-0.159513,0.079222,0.140681,0.00791931,-0.00012207
0.747293,0.731759,-1.8187,-0.144373,0.112509,0.0830617,0.00791931,-0.00012207
0.841495,0.640333,-1.83739,-0.132453,0.148321,0.0417666,0.00791931,-0.00012207
0.911393,0.408235,-1.8731,-0.129374,0.188212,0.0358871,0.00791931,-0.00012207
0.919668,0.185461,-1.94908,-0.147466,0.222587,0.0679263,0.00791931,-0.00012207
0.907957,-0.0708458,-2.01016,-0.159666,0.251064,0.106524,0.00791931,-0.00012207
0.810566,-0.382081,-1.99317,-0.157933,0.25388,0.153373,0.00791931,-0.00012207
0.672875,-0.366456,-1.97224,-0.170163,0.242927,0.181306,0.00791931,-0.00012207
0.645239,-0.16305,-1.9602,-0.155808,0.247651,0.186931,0.00791931,-0.00012207
0.755386,0.0632722,-1.9215,-0.141379,0.257716,0.174621,0.00791931,-0.00012207
0.9083,0.214751,-1.84123,-0.143034,0.251881,0.143745,0.00791931,-0.00012207
0.983564,0.185223,-1.68622,-0.140979,0.233646,0.11291,0.00791931,-0.00012207
0.895621,-0.0341041,-1.4601,-0.141771,0.221176,0.109767,0.00791931,-0.00012207
0.676464,-0.308816,-1.22644,-0.151502,0.208409,0.112012,0.00791931,-0.00012207
0.337854,-0.752217,-0.978112,-0.147053,0.193178,0.117837,0.00791931,-0.00012207
-0.0960097,-1.097,-0.683754,-0.121582,0.177878,0.10141,0.00791931,-0.00012207
-0.457166,-1.30804,-0.324368,-0.0740822,0.154509,0.0514732,0.00791931,-0.00012207
-0.677556,-1.30747,0.0858138,-0.0174155,0.137007,-0.0185384,0.00791931,-0.00012207
-0.793192,-1.19097,0.402019,-0.0110172,0.124071,-0.0821363,0.00791931,-0.00012207
-0.909324,-1.30566,0.536392,-0.0198116,0.0904154,-0.134855,0.00791931,-0.00012207
-1.12199,-1.45937,0.596278,0.0404278,0.0788657,-0.170627,0.00791931,-0.00012207
-1.3682,-1.55184,0.678535,0.138487,0.0266227,-0.213735,0.00791931,-0.00012207
-1.53297,-1.52878,0.885129,0.2386,-0.0500067,-0.286362,0.00791931,-0.00012207
-1.509,-1.43118,1.1334,0.301482,-0.114186,-0.366624,0.00791931,-0.00012207
-1.24689,-1.2718,1.21977,0.311292,-0.145215,-0.425455,0.00791931,-0.00012207
-0.800913,-1.14496,1.0945,0.306355,-0.134885,-0.434533,0.00791931,-0.00012207
-0.296917,-0.996998,0.813502,0.303693,-0.111802,-0.383832,0.00791931,-0.00012207
0.140369,-0.651189,0.459976,0.306083,-0.0769082,-0.270327,0.00791931,-0.00012207
0.495643,-0.0364188,0.0916045,0.313976,-0.0482232,-0.175016,0.00791931,-0.00012207
0.810519,0.489138,-0.201565,0.33362,-0.0551473,-0.113678,0.00791931,-0.00012207
1.05012,0.768402,-0.224036,0.390489,-0.0774103,-0.0801989,0.00791931,-0.00012207
1.13907,0.984372,0.0280014,0.437061,-0.0780402,-0.024443,0.00791931,-0.00012207
1.18911,1.1443,0.342803,0.40357,-0.0552483,0.04032,0.00791931,-0.00012207
1.23824,1.2208,0.585807,0.334416,0.0102912,0.107654,0.00791931,-0.00012207
1.24354,1.0896,0.715403,0.257392,0.0860602,0.177577,0.00791931,-0.00012207
1.13731,0.886389,0.806415,0.204491,0.147083,0.254835,0.00791931,-0.00012207
0.91419,0.723446,0.856671,0.151703,0.17052,0.316057,0.00791931,-0.00012207
0.639379,0.717975,0.918234,0.106142,0.168508,0.34535,0.00791931,-0.00012207
0.459897,0.764346,1.02754,0.0651594,0.165869,0.333105,0.00791931,-0.00012207
0.336025,0.753321,1.16935,0.0274587,0.165819,0.307111,0.00791931,-0.00012207
0.182339,0.663062,1.29327,-0.0105868,0.165498,0.298949,0.00791931,-0.00012207
0.0308693,0.596454,1.35883,-0.0655775,0.164869,0.284714,0.00791931,-0.00012207
-0.0874036,0.488423,1.32391,-0.121545,0.157078,0.261567,0.00791931,-0.00012207
-0.181396,0.358941,1.15903,-0.20981,0.124994,0.230835,0.00791931,-0.00012207
-0.244143,0.17554,0.855203,-0.303512,0.0697197,0.202206,0.00791931,-0.00012207
-0.345069,0.120459,0.52777,-0.370952,-0.00223148,0.16846,0.00791931,-0.00012207
-0.568111,0.200944,0.343356,-0.408645,-0.0882153,0.120939,0.00791931,-0.00012207
-0.95054,0.363016,0.338375,-0.416,-0.172409,0.00894928,0.00791931,-0.00012207
-1.12764,0.328442,0.334613,-0.42487,-0.230721,-0.208658,0.00791931,-0.00012207
-0.893521,-0.0633487,0.161424,-0.463498,-0.264921,-0.455031,0.00791931,-0.00012207
-0.465034,-0.244797,-0.162537,-0.491081,-0.234431,-0.58237,0.00791931,-0.00012207
-0.133044,-0.0778685,-0.564607,-0.489736,-0.199686,-0.574842,0.00791931,-0.00012207
0.130749,-0.067013,-0.802839,-0.417589,-0.180426,-0.567202,0.00791931,-0.00012207
0.304144,-0.337318,-0.884918,-0.344794,-0.153025,-0.528916,0.00791931,-0.00012207
0.379038,-0.809989,-0.957639,-0.295664,-0.102891,-0.42909,0.00791931,-0.00012207
0.391551,-1.22484,-1.06395,-0.237456,-0.0412496,-0.272453,0.00791931,-0.00012207
0.353493,-1.34745,-1.20105,-0.193198,-0.00146699,-0.109194,0.00791931,-0.00012207
0.28563,-1.02339,-1.32902,-0.162587,0.0328061,0.00511968,0.00791931,-0.00012207
0.208712,-0.505314,-1.37733,-0.147528,0.0302919,0.0537338,0.00791931,-0.00012207
0.120486,0.013573,-1.33986,-0.120453,0.0456406,0.0480937,0.00791931,-0.00012207
0.080055,0.349685,-1.30587,-0.091908,0.0886913,-0.00928277,0.00791931,-0.00012207
0.150953,0.386942,-1.25311,-0.044452,0.146311,-0.0673109,0.00791931,-0.00012207
0.267345,0.161103,-1.22815,0.0104356,0.200304,-0.0682703,0.00791931,-0.00012207
0.377013,-0.201464,-1.29549,0.0378261,0.25338,-0.0161344,0.00791931,-0.00012207
0.433691,-0.547332,-1.41199,0.0539955,0.301306,0.093991,0.00791931,-0.00012207
0.446334,-0.687718,-1.56428,0.0604957,0.326753,0.207548,0.00791931,-0.00012207
0.448495,-0.665435,-1.71224,0.0555704,0.326569,0.304035,0.00791931,-0.00012207
0.448495,-0.665435,-1.71224,0.0555704,0.326569,0.304035,0.0105743,-9.91821e-05
0.468472,-0.543583,-1.79041,0.0693729,0.323494,0.377579,0.0105743,-9.91821e-05
0.472451,-0.281149,-1.78348,0.084111,0.30837,0.419264,0.0105743,-9.91821e-05
0.430832,0.0654767,-1.68148,0.0953959,0.304031,0.435447,0.0105743,-9.91821e-05
0.333083,0.306506,-1.52095,0.0944932,0.286491,0.430346,0.0105743,-9.91821e-05
0.190099,0.386016,-1.35979,0.0824565,0.264791,0.397569,0.0105743,-9.91821e-05
-0.029786,0.359293,-1.21172,0.0608864,0.237595,0.337864,0.0105743,-9.91821e-05
-0.350493,0.330206,-1.01479,0.0668997,0.199657,0.228395,0.0105743,-9.91821e-05
-0.683794,0.328658,-0.752578,0.0855297,0.128081,0.0577541,0.0105743,-9.91821e-05
-0.861304,0.302891,-0.342885,0.123467,0.0535961,-0.137198,0.0105743,-9.91821e-05
-0.918978,0.124668,0.163836,0.131499,0.00770536,-0.294273,0.0105743,-9.91821e-05
-0.994291,-0.250856,0.557536,0.127469,0.00834039,-0.36964,0.0105743,-9.91821e-05
-1.14875,-0.655891,0.736795,0.0906326,-0.0091998,-0.377162,0.0105743,-9.91821e-05
-1.27598,-0.704219,0.773629,0.0760521,-0.0146399,-0.36049,0.0105743,-9.91821e-05
-1.28675,-0.564309,0.869376,0.115617,-0.0448668,-0.344653,0.0105743,-9.91821e-05
-1.21275,-0.31189,1.06129,0.150599,-0.10783,-0.366816,0.0105743,-9.91821e-05
-0.975742,-0.08942,1.22469,0.149525,-0.123283,-0.396887,0.0105743,-9.91821e-05
-0.594949,0.0396742,1.21855,0.116304,-0.0884789,-0.388041,0.0105743,-9.91821e-05
-0.200028,-0.00424269,1.02056,0.0606313,-0.0503374,-0.308496,0.0105743,-9.91821e-05
0.0991578,-0.230288,0.717302,0.0282154,-0.0245668,-0.187765,0.0105743,-9.91821e-05
0.190212,-0.423766,0.438325,0.0439861,-0.00826314,-0.0523455,0.0105743,-9.91821e-05
0.162361,-0.377774,0.210555,0.0804266,-0.0140917,0.0486593,0.0105743,-9.91821e-05
0.179561,0.00829748,0.0106947,0.102345,-0.0397166,0.0887493,0.0105743,-9.91821e-05
0.332617,0.446565,-0.0908659,0.16177,-0.0453269,0.0621703,0.0105743,-9.91821e-05
0.525805,0.661886,-0.0581488,0.233375,-0.0368887,0.0366953,0.0105743,-9.91821e-05
0.662923,0.657021,0.114988,0.303284,-0.0188116,0.029503,0.0105743,-9.91821e-05
0.694899,0.674238,0.346835,0.310712,0.00387767,0.0579972,0.0105743,-9.91821e-05
0.658967,0.818749,0.530883,0.2327,0.0155303,0.0940105,0.0105743,-9.91821e-05
0.672055,0.984493,0.633395,0.141062,0.0206782,0.113332,0.0105743,-9.91821e-05
0.734571,1.02813,0.710296,0.0883574,0.0371841,0.131453,0.0105743,-9.91821e-05
0.627559,0.964639,0.814349,0.0670284,0.0577554,0.177087,0.0105743,-9.91821e-05
0.360512,0.740691,0.957912,0.0279918,0.0476163,0.208471,0.0105743,-9.91821e-05
0.139646,0.351214,1.11656,-0.0180199,0.0244209,0.198352,0.0105743,-9.91821e-05
0.00662974,0.0832382,1.21368,-0.0850769,0.0108532,0.183695,0.0105743,-9.91821e-05
-0.00513829,0.0731973,1.14745,-0.190762,-0.00427365,0.162871,0.0105743,-9.91821e-05
0.0783407,0.03861,1.00452,-0.24543,-0.0289404,0.12147,0.0105743,-9.91821e-05
0.141456,-0.121031,0.88761,-0.27212,-0.0613359,0.0745863,0.0105743,-9.91821e-05
0.202598,-0.306191,0.79071,-0.313657,-0.0968203,0.00784898,0.0105743,-9.91821e-05
0.322541,-0.488575,0.655073,-0.386702,-0.122038,-0.0544084,0.0105743,-9.91821e-05
0.412313,-0.854973,0.339008,-0.482033,-0.141966,-0.0879481,0.0105743,-9.91821e-05
0.202004,-1.42893,-0.0593422,-0.549022,-0.168546,-0.0748326,0.0105743,-9.91821e-05
-0.400992,-1.57448,-0.386537,-0.538026,-0.164256,-0.019191,0.0105743,-9.91821e-05
-1.01471,-0.389982,-0.756233,-0.479195,-0.138428,-0.0816991,0.0105743,-9.91821e-05
-0.865554,0.757166,-1.06285,-0.389032,-0.148299,-0.416559,0.0105743,-9.91821e-05
-0.070553,1.13983,-1.0907,-0.242088,-0.0915109,-0.695606,0.0105743,-9.91821e-05
0.657806,0.70535,-1.03909,-0.15127,0.00271627,-0.686694,0.0105743,-9.91821e-05
1.02808,-0.269789,-1.17293,-0.11817,0.113639,-0.492604,0.0105743,-9.91821e-05
1.04906,-1.36663,-1.48784,-0.100225,0.210283,-0.213061,0.0105743,-9.91821e-05
0.78697,-2.02505,-1.80456,-0.0649152,0.272473,0.0285572,0.0105743,-9.91821e-05
0.36477,-2.09318,-2.04202,-0.0286672,0.243335,0.208864,0.0105743,-9.91821e-05
0.0571105,-1.52402,-2.04282,0.0289885,0.186321,0.26083,0.0105743,-9.91821e-05
0.0281189,-0.559462,-1.78046,0.074719,0.146021,0.228406,0.0105743,-9.91821e-05
0.212441,0.198042,-1.42527,0.0942785,0.136935,0.195698,0.0105743,-9.91821e-05
0.264241,0.52952,-1.15453,0.0685695,0.172177,0.18527,0.0105743,-9.91821e-05
0.0977722,0.381806,-1.00749,0.0396536,0.227074,0.198585,0.0105743,-9.91821e-05
0.0977722,0.381806,-1.00749,0.0396536,0.227074,0.198585,0.00263977,-3.05176e-05
-0.12747,-0.00557333,-0.971843,0.00869619,0.24891,0.194939,0.00263977,-3.05176e-05
-0.285316,-0.363855,-0.981212,-0.0139505,0.242069,0.184735,0.00263977,-3.05176e-05
-0.29576,-0.551838,-0.974824,-0.0311032,0.215148,0.175484,0.00263977,-3.05176e-05
-0.246592,-0.664885,-0.921416,-0.0424531,0.18067,0.19162,0.00263977,-3.05176e-05
-0.308144,-0.678216,-0.849766,-0.0355823,0.173745,0.24014,0.00263977,-3.05176e-05
-0.458107,-0.559664,-0.800012,-0.031658,0.163605,0.274564,0.00263977,-3.05176e-05
-0.521446,-0.365833,-0.775472,-0.0528273,0.131503,0.244357,0.00263977,-3.05176e-05
-0.477303,-0.168327,-0.753832,-0.082323,0.0970045,0.188213,0.00263977,-3.05176e-05
-0.417505,0.0754689,-0.745232,-0.0988296,0.0740406,0.139191,0.00263977,-3.05176e-05
-0.370537,0.196021,-0.717565,-0.109645,0.0416317,0.0717418,0.00263977,-3.05176e-05
-0.381798,0.198416,-0.619396,-0.0849905,0.0244405,0.0178929,0.00263977,-3.05176e-05
-0.454995,0.118127,-0.447471,-0.0718826,-0.0164919,-0.0322176,0.00263977,-3.05176e-05
-0.601246,0.0347011,-0.176238,-0.0435939,-0.0562241,-0.0845934,0.00263977,-3.05176e-05
-0.759263,0.103075,0.121111,-0.014294,-0.0808812,-0.149415,0.00263977,-3.05176e-05
-0.897787,-0.0984011,0.411677,-0.00305504,-0.123454,-0.245789,0.00263977,-3.05176e-05
-1.03086,-0.365378,0.717053,0.0328915,-0.152499,-0.326365,0.00263977,-3.05176e-05
-1.07057,-0.567929,0.985953,0.0559001,-0.140847,-0.366183,0.00263977,-3.05176e-05
-1.07847,-0.676062,1.18363,0.0417986,-0.1242,-0.351154,0.00263977,-3.05176e-05
-1.08035,-0.708084,1.29763,0.0287182,-0.0971487,-0.316134,0.00263977,-3.05176e-05
-0.946969,-0.731089,1.25183,-0.00566544,-0.071104,-0.302223,0.00263977,-3.05176e-05
-0.695251,-0.74799,1.04134,-0.0247554,-0.0295501,-0.258526,0.00263977,-3.05176e-05
-0.419819,-0.668313,0.691264,-0.0215682,0.0163642,-0.185476,0.00263977,-3.05176e-05
-0.18215,-0.488543,0.230998,-0.000621423,0.0475731,-0.100194,0.00263977,-3.05176e-05
0.104735,-0.185171,-0.251425,0.0359049,0.0578375,-0.0409977,0.00263977,-3.05176e-05
0.429847,0.227179,-0.610036,0.0995693,0.0644543,-0.0306412,0.00263977,-3.05176e-05
0.721567,0.58737,-0.733994,0.185771,0.0643472,-0.0386937,0.00263977,-3.05176e-05
0.848491,0.760135,-0.61656,0.263122,0.0674992,-0.0355544,0.00263977,-3.05176e-05
0.776348,0.789253,-0.332376,0.313201,0.0731887,-0.00869215,0.00263977,-3.05176e-05
0.592266,0.623466,-0.0187202,0.3028,0.0805099,0.0314946,0.00263977,-3.05176e-05
0.417238,0.297101,0.258059,0.249233,0.0973643,0.0883696,0.00263977,-3.05176e-05
0.263509,-0.0522297,0.440214,0.19824,0.124914,0.163299,0.00263977,-3.05176e-05
0.150661,-0.267627,0.514141,0.162529,0.143915,0.246051,0.00263977,-3.05176e-05
0.081312,-0.340486,0.517159,0.129128,0.137503,0.322443,0.00263977,-3.05176e-05
0.04736,-0.284707,0.512235,0.0990375,0.118752,0.389913,0.00263977,-3.05176e-05
-0.00256415,-0.157529,0.544955,0.0914081,0.0985294,0.440337,0.00263977,-3.05176e-05
-0.156842,0.0103355,0.640072,0.0720544,0.0620487,0.458701,0.00263977,-3.05176e-05
-0.389144,0.0982875,0.805181,0.0458192,0.0135133,0.439301,0.00263977,-3.05176e-05
-0.592253,0.182891,0.962645,0.0230424,-0.0111326,0.371219,0.00263977,-3.05176e-05
-0.65386,0.321659,0.999432,-0.0337189,-0.0256561,0.264606,0.00263977,-3.05176e-05
-0.609439,0.36791,0.912497,-0.0858153,-0.0356446,0.146359,0.00263977,-3.05176e-05
-0.556038,0.294249,0.779452,-0.115428,-0.055432,0.0456348,0.00263977,-3.05176e-05
-0.551141,0.157811,0.66503,-0.133723,-0.0859223,-0.0391553,0.00263977,-3.05176e-05
-0.630127,0.0937606,0.599251,-0.16124,-0.121494,-0.110767,0.00263977,-3.05176e-05
-0.750846,0.198689,0.559494,-0.190027,-0.149606,-0.197765,0.00263977,-3.05176e-05
-0.775089,0.338897,0.484408,-0.212086,-0.169941,-0.324103,0.00263977,-3.05176e-05
-0.644168,0.305606,0.347179,-0.222888,-0.163562,-0.452215,0.00263977,-3.05176e-05
-0.376072,0.0125146,0.0884986,-0.241101,-0.146502,-0.537061,0.00263977,-3.05176e-05
-0.0951856,-0.472996,-0.323671,-0.27841,-0.147045,-0.54212,0.00263977,-3.05176e-05
0.0674487,-0.552244,-0.809409,-0.29457,-0.139314,-0.449656,0.00263977,-3.05176e-05
0.170151,-0.204138,-1.17758,-0.25361,-0.161091,-0.370903,0.00263977,-3.05176e-05
0.283529,0.161646,-1.27595,-0.150776,-0.194032,-0.365699,0.00263977,-3.05176e-05
0.447867,0.146313,-1.14885,-0.0529151,-0.201174,-0.39625,0.00263977,-3.05176e-05
0.641802,-0.145229,-1.04036,-0.00149022,-0.150542,-0.355317,0.00263977,-3.05176e-05
0.827344,-0.453042,-1.07024,-0.0170144,-0.0710355,-0.213189,0.00263977,-3.05176e-05
0.827344,-0.453042,-1.07024,-0.0170144,-0.0710355,-0.213189,0.00263977,-3.05176e-05
0.955108,-0.695185,-1.19864,-0.03417,0.00626221,-0.0323272,0.00263977,-3.05176e-05
1.00488,-0.910625,-1.39066,-0.0366026,0.0585274,0.143824,0.00263977,-3.05176e-05
0.901249,-0.881122,-1.59766,-0.0352137,0.0874527,0.292649,0.00263977,-3.05176e-05
0.702247,-0.523274,-1.72537,-0.0458793,0.0783369,0.367254,0.00263977,-3.05176e-05
0.47984,0.0106337,-1.64361,-0.0526067,0.0527654,0.360403,0.00263977,-3.05176e-05
0.222539,0.759456,-1.37703,-0.0631785,0.040773,0.30662,0.00263977,-3.05176e-05
-0.0864537,1.48913,-1.03605,-0.0676709,0.0801063,0.204644,0.00263977,-3.05176e-05
-0.253862,1.75404,-0.764712,-0.0960944,0.136035,0.0167034,0.00263977,-3.05176e-05
-0.17577,1.37977,-0.56499,-0.120706,0.188722,-0.164671,0.00263977,-3.05176e-05
0.0183814,0.551982,-0.516857,-0.166802,0.247903,-0.242412,0.00263977,-3.05176e-05
0.134673,-0.300728,-0.742907,-0.240283,0.301258,-0.17092,0.00263977,-3.05176e-05
0.0944258,-0.738213,-1.08654,-0.277032,0.333862,-0.000731587,0.00263977,-3.05176e-05
0.0590197,-0.829092,-1.41653,-0.256584,0.308052,0.121058,0.00263977,-3.05176e-05
0.0948308,-0.856368,-1.5768,-0.190471,0.240179,0.188015,0.00263977,-3.05176e-05
0.142935,-0.783767,-1.48933,-0.108088,0.190054,0.232305,0.00263977,-3.05176e-05
0.0789724,-0.612933,-1.27284,-0.0661646,0.128576,0.282825,0.00263977,-3.05176e-05
-0.0407812,-0.361343,-0.999097,-0.0618517,0.0881884,0.305323,0.00263977,-3.05176e-05
-0.104188,-0.151851,-0.7581,-0.0809051,0.0689628,0.279246,0.00263977,-3.05176e-05
-0.124604,-0.0816063,-0.656863,-0.0986187,0.0899909,0.224299,0.00263977,-3.05176e-05
-0.116763,-0.159364,-0.697794,-0.113284,0.105721,0.152793,0.00263977,-3.05176e-05
-0.072172,-0.296725,-0.777151,-0.102597,0.0910656,0.08517,0.00263977,-3.05176e-05
-0.0491012,-0.29543,-0.779066,-0.0875093,0.0425589,0.0413839,0.00263977,-3.05176e-05
-0.0668541,-0.157938,-0.65652,-0.0575667,-0.0167556,-0.00926852,0.00263977,-3.05176e-05
-0.23604,0.0250309,-0.404795,0.0218349,-0.0382906,-0.0614513,0.00263977,-3.05176e-05
-0.599241,0.120346,-0.0954101,0.0646027,-0.0839653,-0.143553,0.00263977,-3.05176e-05
-0.902375,0.000387094,0.279229,0.0944958,-0.138526,-0.309033,0.00263977,-3.05176e-05
-1.01652,-0.359607,0.681466,0.119771,-0.137005,-0.451725,0.00263977,-3.05176e-05
-1.06849,-0.691378,0.94394,0.100287,-0.0996712,-0.496392,0.00263977,-3.05176e-05
-1.04862,-1.03478,0.933985,0.0405638,-0.0572677,-0.487235,0.00263977,-3.05176e-05
-0.863759,-1.29168,0.676628,-0.0261092,-0.01917,-0.441923,0.00263977,-3.05176e-05
-0.581356,-1.40685,0.287783,-0.0532674,0.0013583,-0.341802,0.00263977,-3.05176e-05
-0.290028,-1.27389,-0.123042,-0.0364851,0.00590688,-0.207797,0.00263977,-3.05176e-05
0.052161,-0.904643,-0.49146,0.00408821,0.000817046,-0.0821461,0.00263977,-3.05176e-05
0.443514,-0.440615,-0.800927,0.0551524,0.00296514,0.023607,0.00263977,-3.05176e-05
0.775278,-0.0237427,-1.01507,0.105718,0.0134784,0.120856,0.00263977,-3.05176e-05
0.896742,0.246236,-1.08172,0.150533,0.0142571,0.209991,0.00263977,-3.05176e-05
0.803353,0.32444,-0.928157,0.205292,0.0103895,0.267433,0.00263977,-3.05176e-05
0.575137,0.373426,-0.596603,0.241534,0.00877433,0.293133,0.00263977,-3.05176e-05
0.316125,0.515032,-0.220701,0.232665,0.0289296,0.284075,0.00263977,-3.05176e-05
0.131934,0.647268,0.0985723,0.196172,0.0584702,0.226574,0.00263977,-3.05176e-05
-0.0277181,0.576499,0.368652,0.145335,0.0831014,0.159462,0.00263977,-3.05176e-05
-0.168268,0.414241,0.562898,0.0872354,0.0988118,0.119746,0.00263977,-3.05176e-05
-0.231019,0.180621,0.671123,0.0261312,0.107002,0.0966939,0.00263977,-3.05176e-05
-0.257872,0.038821,0.685684,-0.0387671,0.110524,0.1125,0.00263977,-3.05176e-05
-0.251797,0.0151599,0.613529,-0.0954585,0.0980897,0.128648,0.00263977,-3.05176e-05
-0.246008,0.0028484,0.499596,-0.127525,0.0758599,0.140822,0.00263977,-3.05176e-05
-0.30208,-0.084776,0.404999,-0.132576,0.0413203,0.154794,0.00263977,-3.05176e-05
-0.349622,-0.188512,0.384304,-0.116203,-0.00403397,0.149161,0.00263977,-3.05176e-05
-0.370275,-0.197493,0.381218,-0.129733,-0.0427145,0.1318,0.00263977,-3.05176e-05
-0.373971,-0.141895,0.320633,-0.152612,-0.0610033,0.11238,0.00263977,-3.05176e-05
-0.367716,-0.141487,0.183867,-0.173874,-0.0714516,0.0748315,0.00263977,-3.05176e-05
-0.323109,-0.235339,0.0100301,-0.190394,-0.0855385,0.0291779,0.00263977,-3.05176e-05
-0.27917,-0.310809,-0.174101,-0.195226,-0.102098,0.0109721,0.00263977,-3.05176e-05
-0.239244,-0.346154,-0.328882,-0.1853,-0.127878,-0.0079807,0.00263977,-3.05176e-05
-0.239244,-0.346154,-0.328882,-0.1853,-0.127878,-0.0079807,-0.0132141,0.0001297
-0.189726,-0.415707,-0.424717,-0.167656,-0.158134,-0.041554,-0.0132141,0.0001297
-0.191346,-0.539807,-0.430974,-0.135091,-0.181733,-0.0650982,-0.0132141,0.0001297
-0.126983,-0.61038,-0.390296,-0.107597,-0.176905,-0.100365,-0.0132141,0.0001297
0.427495,-0.309618,-0.45994,-0.1285,-0.188622,-0.260033,-0.0132141,0.0001297
0.781694,-0.587896,-0.673056,-0.194956,-0.128749,-0.19576,-0.0132141,0.0001297
0.586799,-0.712723,-1.08356,-0.270607,-0.0947301,-0.110133,-0.0132141,0.0001297
0.271471,-1.08063,-1.39294,-0.243797,-0.0942779,-0.0796543,-0.0132141,0.0001297
-0.0212689,-1.63321,-1.4727,-0.20681,-0.125851,-0.0594032,-0.0132141,0.0001297
-0.316415,-1.86347,-1.44293,-0.196889,-0.167941,-0.0241386,-0.0132141,0.0001297
-0.588524,-1.71047,-1.3208,-0.17076,-0.195553,-0.0363167,-0.0132141,0.0001297
-0.328309,-0.962974,-1.15125,-0.294894,-0.186001,-0.324905,-0.0132141,0.0001297
-0.193598,-0.308017,-0.815626,-0.176034,-0.0815291,-0.336685,-0.0132141,0.0001297
-0.233176,0.405134,-0.812355,-0.285003,0.00590518,-0.252384,-0.0132141,0.0001297
-0.0135191,1.22208,-1.0722,-0.276505,0.122565,-0.237389,-0.0132141,0.0001297
0.0235976,1.5583,-1.59542,-0.326122,0.161362,-0.104878,-0.0132141,0.0001297
-0.215433,0.991388,-1.99184,-0.255164,0.235993,0.109175,-0.0132141,0.0001297
-0.334524,-0.102877,-2.16665,-0.13229,0.223391,0.219008,-0.0132141,0.0001297
-0.272388,-0.974514,-2.24272,-0.127601,0.184348,0.200601,-0.0132141,0.0001297
0.0332593,-1.50267,-2.33853,-0.17892,0.117389,0.0961237,-0.0132141,0.0001297
0.339163,-1.84584,-2.18269,-0.135234,0.106794,0.075168,-0.0132141,0.0001297
0.173439,-1.06555,-1.3253,-0.0932557,0.189639,0.153327,-0.0132141,0.0001297
-0.156817,0.152212,-0.613155,-0.16595,0.175959,0.216995,-0.0132141,0.0001297
-0.16005,0.767732,-0.424836,-0.177726,0.0857785,0.172034,-0.0132141,0.0001297
-0.0481202,0.842214,-0.374619,-0.165281,0.149287,0.143232,-0.0132141,0.0001297
-0.126768,0.423516,-0.39968,-0.246303,0.222095,0.163589,-0.0132141,0.0001297
-0.378367,0.0541574,-0.543055,-0.254302,0.27681,0.190989,-0.0132141,0.0001297
-0.42028,-0.0687737,-0.960708,-0.22619,0.256057,0.119028,-0.0132141,0.0001297
-0.11931,-0.344655,-1.30435,-0.134562,0.200661,0.0531495,-0.0132141,0.0001297
0.455952,-0.17319,-1.35522,-0.104272,0.202058,0.0104548,-0.0132141,0.0001297
0.976446,0.0419356,-1.16273,-0.11016,0.216376,-0.0191756,-0.0132141,0.0001297
1.07137,0.265181,-1.09794,-0.0954103,0.27376,0.00577235,-0.0132141,0.0001297
0.762931,0.135503,-1.2569,-0.0853988,0.20052,0.0111641,-0.0132141,0.0001297
0.515891,0.203844,-1.14729,0.0344776,0.185263,0.0349907,-0.0132141,0.0001297
0.38105,0.752208,-0.542446,0.180176,0.174856,0.00918633,-0.0132141,0.0001297
0.439307,1.15101,0.0997699,0.272417,0.121964,-0.00545663,-0.0132141,0.0001297
0.425652,1.4223,0.591467,0.312097,0.143252,-0.00190908,-0.0132141,0.0001297
0.192288,1.29103,0.923609,0.290512,0.183638,-0.00221407,-0.0132141,0.0001297
-0.461822,0.155235,1.09957,0.173494,0.15896,0.0573794,-0.0132141,0.0001297
-1.44242,-1.28161,1.12417,0.0351441,0.0738044,0.116206,-0.0132141,0.0001297
-2.05396,-1.56833,0.785525,-0.0534463,0.0260557,0.0422562,-0.0132141,0.0001297
-2.10775,-1.2553,-0.653339,-0.468436,-0.234752,-0.110256,-0.0132141,0.0001297
-1.70707,-0.60072,-1.28552,-0.340136,-0.400814,-0.252402,-0.0132141,0.0001297
-0.989989,0.179099,-0.405515,0.220843,-0.04468,-0.358415,-0.0132141,0.0001297
-0.285306,0.491107,-0.217005,0.105088,-0.10727,-0.448179,-0.0132141,0.0001297
0.279952,0.710705,-0.318544,0.084852,-0.0468752,-0.371612,-0.0132141,0.0001297
0.457113,0.688866,-0.436201,0.063609,-0.0408039,-0.24299,-0.0132141,0.0001297
0.548675,0.519791,-0.485742,0.118,-0.0435835,-0.151994,-0.0132141,0.0001297
0.738423,0.271841,-0.453197,0.183395,-0.0318462,-0.0848739,-0.0132141,0.0001297
0.943037,0.148845,-0.359191,0.211088,-0.0264863,0.0107397,-0.0132141,0.0001297
1.03546,0.120384,-0.194215,0.235208,-0.013871,0.111969,-0.0132141,0.0001297
0.988477,0.311215,0.0182181,0.228538,-0.00796133,0.199184,-0.0132141,0.0001297
0.864381,0.701428,0.296341,0.206587,-0.00171947,0.211895,-0.0132141,0.0001297
0.678959,0.857067,0.447002,0.172215,0.0458247,0.191947,-0.0132141,0.0001297
0.393279,0.985013,0.57286,0.155666,0.0778462,0.17405,-0.0132141,0.0001297
0.393279,0.985013,0.57286,0.155666,0.0778462,0.17405,-0.00263977,4.57764e-05
0.0566276,0.928105,0.822617,0.171318,0.0782177,0.129589,-0.00263977,4.57764e-05
-0.243914,0.673093,0.969792,0.137362,0.097742,0.0818287,-0.00263977,4.57764e-05
-0.4418,0.529925,1.03294,0.0674843,0.109987,0.0330522,-0.00263977,4.57764e-05
-0.483968,0.191698,0.977373,-0.00565808,0.114481,-0.0162801,-0.00263977,4.57764e-05
-0.408779,-0.122321,0.737253,-0.0668124,0.119961,-0.0468131,-0.00263977,4.57764e-05
-0.239885,-0.218543,0.490542,-0.100343,0.0983523,-0.0498859,-0.00263977,4.57764e-05
0.0131038,-0.248781,0.300915,-0.0795377,0.0689963,-0.0373166,-0.00263977,4.57764e-05
0.235789,-0.317817,0.242392,-0.0212852,0.0513533,0.0135728,-0.00263977,4.57764e-05
0.341934,-0.470478,0.242078,-0.00130566,0.0246708,0.0787908,-0.00263977,4.57764e-05
0.272365,-0.604513,0.255496,-0.00302263,0.00717998,0.162139,-0.00263977,4.57764e-05
0.0248581,-0.654251,0.246043,-0.0383809,-0.0117896,0.232637,-0.00263977,4.57764e-05
-0.287157,-0.622011,0.240434,-0.0635435,-0.0335531,0.248826,-0.00263977,4.57764e-05
-0.522306,-0.467545,0.231956,-0.0828767,-0.0469393,0.193233,-0.00263977,4.57764e-05
-0.616466,-0.377862,0.212821,-0.0839711,-0.0515341,0.0951033,-0.00263977,4.57764e-05
-0.680768,-0.0980191,0.0888247,-0.113211,-0.020206,0.0458662,-0.00263977,4.57764e-05
-0.546309,-0.182005,-0.074632,-0.14462,-0.0328129,-0.0942471,-0.00263977,4.57764e-05
-0.280146,-0.266831,-0.278706,-0.131372,0.00566596,-0.15709,-0.00263977,4.57764e-05
-0.00828306,-0.340066,-0.485943,-0.1244,0.00206608,-0.179981,-0.00263977,4.57764e-05
0.153654,-0.546612,-0.627759,-0.0948973,-0.0260844,-0.171839,-0.00263977,4.57764e-05
0.0579705,-0.586509,-0.648311,-0.0459986,-0.0701918,-0.127039,-0.00263977,4.57764e-05
-0.125136,-0.146946,-0.554246,-0.0130206,-0.121397,-0.134284,-0.00263977,4.57764e-05
-0.156232,0.311737,-0.455679,0.0302643,-0.111389,-0.238056,-0.00263977,4.57764e-05
0.00869005,0.469405,-0.45018,0.0675665,-0.0571422,-0.337891,-0.00263977,4.57764e-05
0.288969,0.261406,-0.486808,0.103066,0.000554234,-0.361824,-0.00263977,4.57764e-05
0.463675,-0.114491,-0.540285,0.12129,0.0395289,-0.270961,-0.00263977,4.57764e-05
0.467857,-0.456277,-0.571303,0.115173,0.0552442,-0.120174,-0.00263977,4.57764e-05
0.333451,-0.570199,-0.584266,0.100467,0.0555558,0.0373994,-0.00263977,4.57764e-05
0.186814,-0.447858,-0.569341,0.0843876,0.0504597,0.134642,-0.00263977,4.57764e-05
0.155274,-0.171577,-0.56394,0.045788,0.0561298,0.156308,-0.00263977,4.57764e-05
0.199335,0.00141107,-0.598496,0.0306527,0.0829875,0.149962,-0.00263977,4.57764e-05
0.243336,0.060591,-0.660394,0.0163683,0.105977,0.144672,-0.00263977,4.57764e-05
0.257812,0.0766991,-0.70155,0.000693575,0.116133,0.150268,-0.00263977,4.57764e-05
0.220134,0.160578,-0.709695,-0.0175339,0.116901,0.147192,-0.00263977,4.57764e-05
0.171977,0.185518,-0.688763,-0.0334582,0.124356,0.12937,-0.00263977,4.57764e-05
0.113985,0.143247,-0.691196,-0.0588144,0.129416,0.105567,-0.00263977,4.57764e-05
0.0178591,0.0658481,-0.658409,-0.0744867,0.125808,0.0868843,-0.00263977,4.57764e-05
-0.116691,0.0317537,-0.612258,-0.0871662,0.113912,0.0690072,-0.00263977,4.57764e-05
-0.236781,0.0721549,-0.483976,-0.0825272,0.102057,0.0351485,-0.00263977,4.57764e-05
-0.346509,0.0678856,-0.365651,-0.0867214,0.103036,-0.00655311,-0.00263977,4.57764e-05
-0.408663,0.0852646,-0.279166,-0.0990141,0.111701,-0.0591653,-0.00263977,4.57764e-05
-0.395425,-0.00806594,-0.215697,-0.101662,0.116857,-0.113209,-0.00263977,4.57764e-05
-0.359221,-0.194175,-0.207415,-0.108454,0.121094,-0.130526,-0.00263977,4.57764e-05
-0.361895,-0.307346,-0.207848,-0.12152,0.110526,-0.105955,-0.00263977,4.57764e-05
-0.319437,-0.297702,-0.208601,-0.125305,0.0958329,-0.092335,-0.00263977,4.57764e-05
-0.208903,-0.297109,-0.213545,-0.120679,0.0919603,-0.0946998,-0.00263977,4.57764e-05
-0.142014,-0.372481,-0.257684,-0.11552,0.0989542,-0.0586048,-0.00263977,4.57764e-05
-0.138231,-0.434806,-0.271862,-0.107364,0.0941778,-0.00516146,-0.00263977,4.57764e-05
-0.200395,-0.452935,-0.302839,-0.108261,0.0832543,0.0374194,-0.00263977,4.57764e-05
-0.277669,-0.326069,-0.317061,-0.109093,0.0713146,0.0611526,-0.00263977,4.57764e-05
-0.267269,-0.202904,-0.338353,-0.110307,0.0621815,0.0302961,-0.00263977,4.57764e-05
-0.254485,-0.0658058,-0.404927,-0.111949,0.0688163,0.00896317,-0.00263977,4.57764e-05
-0.192928,0.0285107,-0.478945,-0.109678,0.0648823,-0.0266155,-0.00263977,4.57764e-05
-0.149681,0.100859,-0.493622,-0.0830727,0.0637809,-0.051856,-0.00263977,4.57764e-05
-0.149681,0.100859,-0.493622,-0.0830727,0.0637809,-0.051856,-0.00263977,4.57764e-05
-0.132862,0.172041,-0.495257,-0.0764989,0.0521132,-0.0700857,-0.00263977,4.57764e-05
-0.0899004,0.215322,-0.535578,-0.0787145,0.0544396,-0.106425,-0.00263977,4.57764e-05
0.031954,0.282585,-0.592395,-0.0801243,0.0608578,-0.149375,-0.00263977,4.57764e-05
0.214193,0.236377,-0.632088,-0.0576731,0.0597386,-0.184348,-0.00263977,4.57764e-05
0.371959,0.0825397,-0.633117,-0.0266933,0.0580348,-0.171353,-0.00263977,4.57764e-05
0.409581,-0.105638,-0.627251,-0.0236672,0.0559749,-0.10469,-0.00263977,4.57764e-05
0.376806,-0.264021,-0.616113,-0.0336163,0.0555099,-0.0242994,-0.00263977,4.57764e-05
0.329476,-0.31599,-0.592059,-0.0509079,0.048431,0.0393256,-0.00263977,4.57764e-05
0.321318,-0.255894,-0.543528,-0.0701034,0.0305758,0.0656259,-0.00263977,4.57764e-05
0.30551,-0.146765,-0.476427,-0.0944105,0.00918841,0.0659849,-0.00263977,4.57764e-05
0.25137,-0.0139608,-0.425817,-0.1161,-0.00205117,0.050787,-0.00263977,4.57764e-05
0.213142,-0.0342885,-0.334442,-0.096331,-0.0142997,-0.00651819,-0.00263977,4.57764e-05
0.153724,-0.137159,-0.180223,-0.0606277,-0.0225243,-0.0442794,-0.00263977,4.57764e-05
0.0608293,-0.228851,-0.0371354,-0.0478548,-0.0254484,-0.0532427,-0.00263977,4.57764e-05
0.00117629,-0.184683,0.0840005,-0.0466268,-0.0265433,-0.0634063,-0.00263977,4.57764e-05
0.00179922,-0.147831,0.151698,-0.0488161,-0.0193707,-0.0909794,-0.00263977,4.57764e-05
0.0219917,-0.18223,0.163814,-0.0407362,-0.00196368,-0.100813,-0.00263977,4.57764e-05
0.0582583,-0.331317,0.121343,-0.0348872,0.0150973,-0.0943773,-0.00263977,4.57764e-05
0.0838606,-0.478025,0.0424658,-0.0235766,0.0260492,-0.0480911,-0.00263977,4.57764e-05
0.0955985,-0.540944,-0.0281515,-0.00731973,0.0303147,0.0197304,-0.00263977,4.57764e-05
0.0931983,-0.516237,-0.109645,-0.00318503,0.0340563,0.0819461,-0.00263977,4.57764e-05
0.0701013,-0.444259,-0.230969,-0.00344577,0.0454572,0.12111,-0.00263977,4.57764e-05
0.0669477,-0.39673,-0.387869,-0.00221612,0.0415947,0.131623,-0.00263977,4.57764e-05
0.0367216,-0.2804,-0.529904,0.0146744,0.0304088,0.147315,-0.00263977,4.57764e-05
-0.0107721,-0.183324,-0.62955,0.0350611,0.0022724,0.136997,-0.00263977,4.57764e-05
-0.155209,-0.12259,-0.65974,0.069638,-0.0234144,0.135186,-0.00263977,4.57764e-05
-0.35749,-0.12951,-0.629731,0.105227,-0.047733,0.114119,-0.00263977,4.57764e-05
-0.612332,-0.0801173,-0.598914,0.123456,-0.0557858,0.0884539,-0.00263977,4.57764e-05
-0.889749,0.04275,-0.570403,0.132543,-0.0587283,0.0339128,-0.00263977,4.57764e-05
-0.980846,0.0232795,-0.616705,0.130962,-0.0439383,-0.083437,-0.00263977,4.57764e-05
-0.767467,-0.184505,-0.748271,0.132652,-0.0161117,-0.20748,-0.00263977,4.57764e-05
-0.369808,-0.405421,-0.92615,0.132416,0.00396925,-0.229841,-0.00263977,4.57764e-05
0.0504911,-0.421128,-1.07746,0.119658,0.00588173,-0.148294,-0.00263977,4.57764e-05
0.298258,-0.332271,-1.13844,0.130736,-0.00536048,0.00379229,-0.00263977,4.57764e-05
0.329902,-0.229857,-1.10367,0.142235,-0.0170228,0.147934,-0.00263977,4.57764e-05
0.202977,-0.177998,-1.01005,0.136454,-0.0245557,0.236279,-0.00263977,4.57764e-05
-0.0160911,-0.195033,-0.910293,0.115821,-0.0211441,0.272912,-0.00263977,4.57764e-05
-0.243697,-0.248417,-0.798573,0.0967636,-0.0166288,0.258065,-0.00263977,4.57764e-05
-0.383519,-0.278723,-0.733301,0.0600892,-0.0141465,0.191419,-0.00263977,4.57764e-05
-0.422774,-0.244977,-0.772413,0.0114375,0.00159073,0.095826,-0.00263977,4.57764e-05
-0.40862,-0.171719,-0.850568,-0.0129673,0.000708193,0.00131893,-0.00263977,4.57764e-05
-0.46449,-0.0479238,-0.898833,-0.0149088,-0.0332869,-0.0748504,-0.00263977,4.57764e-05
-0.624837,0.411517,-0.766199,0.0379416,-0.0710556,-0.166412,-0.00263977,4.57764e-05
-0.528944,0.686649,-0.657487,0.0455823,-0.0651621,-0.373767,-0.00263977,4.57764e-05
-0.147451,0.309031,-0.711984,0.0618121,-0.00352433,-0.528303,-0.00263977,4.57764e-05
0.371623,-0.445671,-0.806145,0.0849361,0.0456651,-0.520503,-0.00263977,4.57764e-05
0.700158,-0.890094,-0.823745,0.0928348,0.0390048,-0.321788,-0.00263977,4.57764e-05
0.774499,-0.908463,-0.713704,0.0755161,0.0138316,-0.060889,-0.00263977,4.57764e-05
0.675008,-0.747151,-0.555771,0.0625168,0.00736719,0.133074,-0.00263977,4.57764e-05
0.472209,-0.483698,-0.35107,0.0449747,0.000875711,0.24973,-0.00263977,4.57764e-05
0.244533,-0.225408,-0.14757,0.0291915,0.0056411,0.286437,-0.00263977,4.57764e-05
0.01334,-0.0252647,0.0448629,0.0164295,0.0260888,0.263869,-0.00263977,4.57764e-05
-0.159504,0.0991088,0.192524,-0.0073557,0.0556468,0.191019,-0.00263977,4.57764e-05
-0.228192,0.114376,0.24908,-0.0341837,0.0967017,0.0878537,-0.00263977,4.57764e-05
-0.228192,0.114376,0.24908,-0.0341837,0.0967017,0.0878537,0.0211334,-0.000259399
-0.280518,0.0827692,0.204638,-0.0770924,0.134781,0.0173005,0.0211334,-0.000259399
-0.269295,0.0462472,0.138421,-0.0953749,0.148041,-0.048556,0.0211334,-0.000259399
-0.191582,-0.0331968,0.0863416,-0.0854362,0.146787,-0.0983904,0.0211334,-0.000259399
-0.105523,-0.135521,0.0534514,-0.0717252,0.142994,-0.119802,0.0211334,-0.000259399
-0.0599605,-0.197882,0.0521021,-0.0603961,0.131533,-0.109729,0.0211334,-0.000259399
-0.0415793,-0.231622,0.0976652,-0.041994,0.106702,-0.100442,0.0211334,-0.000259399
-0.078078,-0.266277,0.163375,-0.027692,0.0857884,-0.0851718,0.0211334,-0.000259399
-0.125066,-0.302845,0.2453,-0.00516375,0.0658376,-0.0797759,0.0211334,-0.000259399
-0.0739847,-0.356703,0.362333,0.0233668,0.0507742,-0.107873,0.0211334,-0.000259399
-0.0271111,-0.397829,0.440121,0.0154073,0.0488313,-0.0994025,0.0211334,-0.000259399
-0.0148577,-0.470317,0.477965,0.00759502,0.0466456,-0.0840985,0.0211334,-0.000259399
0.00738888,-0.492397,0.481514,-0.00533651,0.0473859,-0.0688915,0.0211334,-0.000259399
0.0767001,-0.453826,0.461138,-0.012532,0.0532656,-0.0667492,0.0211334,-0.000259399
0.151857,-0.388183,0.452061,0.00270627,0.0525523,-0.061855,0.0211334,-0.000259399
0.197953,-0.352219,0.424734,0.00653206,0.0598101,-0.0487062,0.0211334,-0.000259399
0.206742,-0.334746,0.387349,0.0124803,0.0639902,-0.02529,0.0211334,-0.000259399
0.178125,-0.31182,0.33695,0.0140632,0.0661955,-0.00536346,0.0211334,-0.000259399
0.123753,-0.280501,0.274141,0.0163815,0.0676305,0.0159916,0.0211334,-0.000259399
0.0896044,-0.197776,0.161993,0.0171384,0.0700215,0.018541,0.0211334,-0.000259399
0.0869087,-0.108133,0.0920569,0.0224169,0.0677127,0.0144228,0.0211334,-0.000259399
0.075179,-0.00421497,0.0255257,0.0326519,0.0712689,0.0247329,0.0211334,-0.000259399
0.0601556,0.0879623,-0.0480193,0.0308347,0.0641196,0.0308314,0.0211334,-0.000259399
0.0254882,0.151623,-0.141123,0.0270479,0.0642754,0.036154,0.0211334,-0.000259399
0.0557993,0.225892,-0.204169,0.0412503,0.0549673,0.0165904,0.0211334,-0.000259399
0.130551,0.259266,-0.253787,0.0433338,0.0468996,0.00672984,0.0211334,-0.000259399
0.143184,0.332241,-0.295102,0.0349927,0.0285234,0.0315714,0.0211334,-0.000259399
0.0683825,0.384444,-0.292511,0.0352524,0.00489923,0.0565442,0.0211334,-0.000259399
0.00170376,0.373858,-0.25558,0.047111,-0.014248,0.0525084,0.0211334,-0.000259399
-0.022448,0.357403,-0.215432,0.0494283,-0.0240435,0.0379127,0.0211334,-0.000259399
-0.0752602,0.351388,-0.19464,0.0280448,-0.0260745,0.0520259,0.0211334,-0.000259399
-0.0643495,0.374605,-0.185131,0.01351,-0.0195254,0.0535954,0.0211334,-0.000259399
0.0231167,0.409635,-0.174627,-0.00166047,-0.0215065,0.0419915,0.0211334,-0.000259399
0.0633713,0.476157,-0.17685,-0.0211813,-0.0195633,0.0580081,0.0211334,-0.000259399
0.0640058,0.522718,-0.177548,-0.0377021,-0.019578,0.0700837,0.0211334,-0.000259399
0.034831,0.528191,-0.174068,-0.0485523,-0.025336,0.0697917,0.0211334,-0.000259399
-0.0165876,0.490735,-0.186018,-0.0612629,-0.0270952,0.0682449,0.0211334,-0.000259399
-0.0744517,0.434836,-0.19414,-0.0723186,-0.0269058,0.0589482,0.0211334,-0.000259399
-0.13002,0.338413,-0.0991071,-0.0687448,-0.0363584,0.0441388,0.0211334,-0.000259399
-0.196282,0.258514,-0.0607608,-0.0685704,-0.0448472,0.0333404,0.0211334,-0.000259399
-0.245091,0.18881,-0.0562111,-0.0769194,-0.0469991,0.0199246,0.0211334,-0.000259399
-0.287332,0.138393,-0.0709188,-0.0796097,-0.0457095,0.012234,0.0211334,-0.000259399
-0.334445,0.202411,-0.0707331,-0.0632724,-0.0560419,0.0102377,0.0211334,-0.000259399
-0.348949,0.277046,-0.0682038,-0.0621099,-0.0613443,-0.0206042,0.0211334,-0.000259399
-0.325284,0.312432,-0.081643,-0.0459929,-0.060136,-0.0587555,0.0211334,-0.000259399
-0.242201,0.248142,-0.0918336,-0.0302807,-0.0556601,-0.0990842,0.0211334,-0.000259399
-0.164204,0.140011,-0.0814149,0.000355065,-0.0522844,-0.109617,0.0211334,-0.000259399
-0.100258,0.00832649,-0.0890036,0.00965506,-0.0519179,-0.102791,0.0211334,-0.000259399
-0.0556604,-0.0812586,-0.124375,0.00797383,-0.0430809,-0.0784908,0.0211334,-0.000259399
0.012485,-0.113339,-0.147424,0.0165606,-0.0410053,-0.0600604,0.0211334,-0.000259399
0.0726591,-0.085868,-0.168181,0.0300084,-0.036061,-0.036374,0.0211334,-0.000259399
0.0954526,-0.0210562,-0.189834,0.0304776,-0.0322511,-0.00441146,0.0211334,-0.000259399
0.112311,0.0273667,-0.204384,0.0358595,-0.030914,0.00600219,0.0211334,-0.000259399
0.124816,0.060939,-0.220845,0.0447996,-0.0249114,0.0119303,0.0211334,-0.000259399
0.104801,0.116017,-0.22153,0.0532333,-0.0220831,0.0176926,0.0211334,-0.000259399
0.104801,0.116017,-0.22153,0.0532333,-0.0220831,0.0176926,0.0132141,-0.000160217
0.11893,0.138757,-0.191868,0.0657398,-0.0236712,0.00158715,0.0132141,-0.000160217
0.136664,0.130901,-0.145912,0.0788412,-0.0145485,-0.00770611,0.0132141,-0.000160217
0.121029,0.0647243,-0.104665,0.0654937,-0.014145,-0.00309426,0.0132141,-0.000160217
0.0531598,0.0393268,-0.0916581,0.0408385,-0.00573039,0.0198756,0.0132141,-0.000160217
0.00370128,-0.000846497,-0.0939673,0.022302,0.000376523,0.0175759,0.0132141,-0.000160217
-0.013002,0.0234654,-0.0992821,0.0147385,0.00470811,0.0166983,0.0132141,-0.000160217
0.0132903,0.0677922,-0.0811783,0.0107635,0.00375468,0.00350535,0.0132141,-0.000160217
0.0500357,0.0505392,-0.0760366,0.00974454,0.00853288,-0.00924057,0.0132141,-0.000160217
0.0415284,0.0367594,-0.08424,-0.00427151,0.0127973,-0.00182134,0.0132141,-0.000160217
-0.00301234,0.00546758,-0.102326,-0.00947154,0.0156133,0.00802445,0.0132141,-0.000160217
-0.0324828,-0.00440892,-0.101016,0.000440925,0.0111708,0.00511688,0.0132141,-0.000160217
-0.0239395,-0.0215195,-0.0962053,0.00514333,0.0134327,-0.00556195,0.0132141,-0.000160217
0.00310124,-0.00602023,-0.0997468,-0.000919417,0.0185835,-0.00939393,0.0132141,-0.000160217
0.0256519,-0.0172378,-0.133564,-0.00856793,0.0255524,-0.00737697,0.0132141,-0.000160217
0.0224252,-0.023568,-0.173075,-0.00979635,0.0269828,0.00258327,0.0132141,-0.000160217
0.0140805,-0.00287071,-0.175472,-0.00225936,0.0202803,0.0103151,0.0132141,-0.000160217
-0.00919507,0.0171078,-0.169635,0.000866249,0.018283,0.0143287,0.0132141,-0.000160217
-0.0216703,0.0329298,-0.147088,0.00361511,0.0124738,0.00651652,0.0132141,-0.000160217
-0.0243419,0.0155427,-0.141302,-0.000191733,0.0104416,-0.00628066,0.0132141,-0.000160217
-0.0222475,-0.0092843,-0.156512,-0.00436516,0.0115024,-0.0139356,0.0132141,-0.000160217
-0.00718333,-0.0228478,-0.182667,-0.00792021,0.0105006,-0.0139851,0.0132141,-0.000160217
0.00676704,0.00488581,-0.178974,0.00106536,0.00402188,-0.00646979,0.0132141,-0.000160217
0.0199455,0.0420556,-0.152402,0.00638552,-0.00479624,-0.00424701,0.0132141,-0.000160217
0.0203931,0.0406185,-0.139723,0.00837988,-0.00529015,8.77976e-05,0.0132141,-0.000160217
0.00907539,0.0125875,-0.126453,0.00963248,-0.00588781,0.00396973,0.0132141,-0.000160217
-0.0312714,-0.0152409,-0.112605,0.00783076,-0.0075815,0.0136111,0.0132141,-0.000160217
-0.0610095,-0.0210833,-0.099328,0.00443426,-0.0081417,0.01495,0.0132141,-0.000160217
-0.0665467,-0.0369276,-0.0770378,0.00666581,-0.00873056,0.0103925,0.0132141,-0.000160217
-0.055187,-0.0489222,-0.0595196,0.00381984,-0.00800937,0.00407887,0.0132141,-0.000160217
-0.0439102,-0.0728886,-0.0463542,0.00188671,-0.00501469,0.00492817,0.0132141,-0.000160217
-0.0581866,-0.0763858,-0.0491858,-0.0103763,-0.00928694,0.00923616,0.0132141,-0.000160217
-0.0800234,-0.0701599,-0.070465,-0.0168393,0.00134557,0.0138929,0.0132141,-0.000160217
-0.0487605,-0.0558828,-0.104692,-0.0205805,-0.00390166,-0.00766784,0.0132141,-0.000160217
0.0146038,-0.02893,-0.12718,-0.0109385,-0.00400579,-0.0223318,0.0132141,-0.000160217
0.0534162,-0.00959886,-0.134348,0.000543728,-0.00776178,-0.0221699,0.0132141,-0.000160217
0.0484262,-0.0196383,-0.135282,0.00714609,-0.0112203,-0.0144951,0.0132141,-0.000160217
0.0250285,-0.0506967,-0.109723,0.0209001,-0.0129447,-0.0090757,0.0132141,-0.000160217
0.0314176,-0.0918354,-0.0589984,0.032166,-0.0195714,-0.0112047,0.0132141,-0.000160217
0.0271517,-0.090478,-0.036537,0.0232837,-0.012124,0.00505745,0.0132141,-0.000160217
0.0207535,-0.0698065,-0.0170023,0.0131419,-0.00897706,0.0163458,0.0132141,-0.000160217
0.0120321,-0.0524817,0.0113146,0.0134836,-0.00743645,0.0225925,0.0132141,-0.000160217
-0.00220565,-0.0388953,0.0434137,0.0101533,-0.00721127,0.0213014,0.0132141,-0.000160217
-0.0373524,-0.0357439,0.0479698,-0.00448405,-0.00145218,0.0217243,0.0132141,-0.000160217
-0.0466461,-0.0502256,0.0340114,-0.0135931,0.00293952,0.0102271,0.0132141,-0.000160217
-0.0276367,-0.0308514,0.0172863,-0.0155182,0.00176856,-0.00241011,0.0132141,-0.000160217
-0.00326955,0.00655275,0.0174487,-0.00959323,-0.00261223,-0.0102956,0.0132141,-0.000160217
-0.00516382,0.0169138,0.0234017,-0.00598954,-0.00622985,-0.011944,0.0132141,-0.000160217
-0.0274668,-0.00948947,0.0202169,-0.00192444,-0.00598264,-0.0128576,0.0132141,-0.000160217
-0.0256494,-0.0519366,0.0215349,0.000650421,-0.00721869,-0.0222527,0.0132141,-0.000160217
-0.00903766,-0.0711001,0.0182636,-0.0014693,-0.00370917,-0.0205334,0.0132141,-0.000160217
0.00533258,-0.0576449,0.0136085,-0.00538003,-0.00532299,-0.00813037,0.0132141,-0.000160217
0.00623026,-0.0421551,0.00545718,-0.00915062,-0.00476131,0.00439316,0.0132141,-0.000160217
0.00658345,-0.0373156,-0.00749141,-0.0138365,-0.00379848,0.0111504,0.0132141,-0.000160217
-0.00477097,-0.0313127,-0.0198556,-0.0167691,-0.00343227,0.0208052,0.0132141,-0.000160217
-0.00477097,-0.0313127,-0.0198556,-0.0167691,-0.00343227,0.0208052,0.0132141,-0.000160217
-0.0138182,-0.0191592,-0.0248054,-0.0171251,-0.00725776,0.0260754,0.0132141,-0.000160217
-0.0151428,0.000338897,-0.0265684,-0.0129414,-0.00833336,0.0235694,0.0132141,-0.000160217
-0.0145594,0.0496791,-0.0229566,-0.0140409,-0.00770414,0.0199977,0.0132141,-0.000160217
-0.00353179,0.0599489,-0.0358127,-0.0181447,-0.00418037,-0.000497818,0.0132141,-0.000160217
0.0127666,0.0391,-0.0572796,-0.0136568,-0.000290781,-0.0173924,0.0132141,-0.000160217
-0.00385514,0.0299886,-0.0616178,-0.00584571,-0.00502264,-0.0182698,0.0132141,-0.000160217
-0.000467857,0.0127273,-0.0303149,0.00693694,-0.0108126,-0.0301374,0.0132141,-0.000160217
0.0112718,-0.000376394,-0.0165658,0.00751318,-0.00882247,-0.0392367,0.0132141,-0.000160217
0.0486116,-0.00339489,-0.0196828,0.00491624,-0.00523335,-0.0496097,0.0132141,-0.000160217
0.0906244,-0.0200884,-0.0227829,0.0109718,-0.00199795,-0.0509487,0.0132141,-0.000160217
0.107408,-0.0399544,-0.0127982,0.0192489,-0.00407109,-0.0360312,0.0132141,-0.000160217
0.114396,-0.0696136,0.0103567,0.0249015,-0.00569376,-0.0164739,0.0132141,-0.000160217
0.0919576,-0.0671873,0.0324046,0.0251546,-0.00516075,0.0131089,0.0132141,-0.000160217
0.0630096,-0.0414499,0.0676196,0.0239402,-0.00445908,0.03178,0.0132141,-0.000160217
0.0443844,-0.0107329,0.0888536,0.0193393,-0.00116742,0.0349203,0.0132141,-0.000160217
0.0320947,-0.00830589,0.0911634,0.0145752,0.00564706,0.0287825,0.0132141,-0.000160217
0.00914483,-0.00274764,0.098539,0.0104462,0.0112507,0.032878,0.0132141,-0.000160217
-0.0380188,0.00559694,0.104358,0.00368832,0.0119175,0.0378373,0.0132141,-0.000160217
-0.0872278,0.0293795,0.10051,-0.00703053,0.0155826,0.0373291,0.0132141,-0.000160217
-0.0909805,0.0678918,0.0623738,-0.0189512,0.0209774,0.0128592,0.0132141,-0.000160217
-0.0449444,0.0772253,0.0169525,-0.0202145,0.0255343,-0.0170633,0.0132141,-0.000160217
0.00802939,0.0548809,-0.0144515,-0.013672,0.0226122,-0.0329213,0.0132141,-0.000160217
0.0134762,0.0210058,-0.0417142,-0.0128582,0.0165358,-0.0271415,0.0132141,-0.000160217
0.00253425,-0.00182821,-0.0717531,-0.0167065,0.0116711,-0.016302,0.0132141,-0.000160217
0.0203688,7.90767e-05,-0.0953177,-0.0154504,0.00458226,-0.0175347,0.0132141,-0.000160217
0.0649068,0.0171032,-0.0989593,-0.00178576,-0.00121576,-0.0217539,0.0132141,-0.000160217
0.0839015,0.0262627,-0.0812778,0.0084754,-0.00755316,-0.0135404,0.0132141,-0.000160217
0.0564468,0.0410442,-0.0730141,0.0127264,-0.00758252,0.00357115,0.0132141,-0.000160217
0.0418157,0.0223888,-0.0440302,0.0262047,-0.0090045,0.00223708,0.0132141,-0.000160217
0.00741002,0.000979729,-0.0023147,0.0345093,-0.00955445,0.0147284,0.0132141,-0.000160217
-0.0352183,-0.0198707,0.0398855,0.0333511,-0.0076867,0.0294039,0.0132141,-0.000160217
-0.0671481,-0.0124978,0.0621888,0.0157072,-0.00151628,0.0371727,0.0132141,-0.000160217
-0.0881881,0.027983,0.0411678,-0.00935379,0.00472331,0.0376585,0.0132141,-0.000160217
-0.0811767,0.0628322,0.0195821,-0.0182428,0.00830317,0.0231455,0.0132141,-0.000160217
-0.0653742,0.0834014,0.00165155,-0.0154129,0.00681928,0.00861472,0.0132141,-0.000160217
-0.0521394,0.092733,-0.0268277,-0.0149839,0.00765258,-0.00200999,0.0132141,-0.000160217
-0.0312488,0.0894636,-0.0543361,-0.0125986,0.00839502,-0.0142278,0.0132141,-0.000160217
-0.0168932,0.0795987,-0.0607042,-0.00105497,0.00285026,-0.0167826,0.0132141,-0.000160217
-0.0170699,0.0846766,-0.0551287,0.00458826,-0.00371164,-0.0104303,0.0132141,-0.000160217
-0.026759,0.070682,-0.0602459,0.00351425,-0.00335544,-0.00241596,0.0132141,-0.000160217
-0.0256248,0.0659958,-0.0476557,0.00603807,-0.00397477,0.000564098,0.0132141,-0.000160217
-0.012721,0.0486408,-0.0173363,0.00892228,-0.00937712,-0.0017907,0.0132141,-0.000160217
-0.0251802,0.0348767,0.00140303,0.00152479,-0.0094884,0.00392032,0.0132141,-0.000160217
-0.0272323,0.0205398,0.00761113,-0.00303879,-0.010016,0.00204337,0.0132141,-0.000160217
-0.0310661,0.0389924,0.011647,-0.00486135,-0.0105747,-0.00172734,0.0132141,-0.000160217
0.016569,0.0457631,0.012975,-0.00324397,-0.0094516,-0.0239498,0.0132141,-0.000160217
0.0554769,0.0329443,0.0160968,0.00596628,-0.00677601,-0.0294846,0.0132141,-0.000160217
0.0458367,-0.00715146,0.039555,0.0123107,-0.00963259,-0.0175737,0.0132141,-0.000160217
0.0158108,-0.0604266,0.0733891,0.0166741,-0.00918466,-0.00406313,0.0132141,-0.000160217
-0.00505872,-0.0569261,0.0989522,0.0112458,-0.00545365,0.00488847,0.0132141,-0.000160217
0.00469519,-0.0440517,0.107878,0.00222476,0.00035432,0.00316113,0.0132141,-0.000160217
0.00864252,-0.010943,0.101951,-0.000561967,0.0070605,0.00686765,0.0132141,-0.000160217
0.00411308,0.00288353,0.106955,0.000985309,0.00641972,0.00484073,0.0132141,-0.000160217
-0.00978017,-0.0146361,0.108269,0.00359578,0.0112315,-8.22544e-06,0.0132141,-0.000160217
-0.00978017,-0.0146361,0.108269,0.00359578,0.0112315,-8.22544e-06,0.0132141,-0.000160217
-0.023149,-0.0301015,0.101322,-0.000933871,0.0107593,-0.0053308,0.0132141,-0.000160217
-0.0204721,-0.0512246,0.0899381,-0.00273153,0.0138365,-0.00767434,0.0132141,-0.000160217
-0.00751342,-0.0270683,0.0712443,-0.0066531,0.0123155,-0.00296485,0.0132141,-0.000160217
0.0105774,-0.0216047,0.0553446,-0.00653967,0.0112872,-0.00295782,0.0132141,-0.000160217
0.0028301,-0.00994083,0.0450188,-0.00422631,0.00532126,0.00117528,0.0132141,-0.000160217
0.00115572,-0.000643003,0.0423936,-0.00139149,0.000696003,-0.00201112,0.0132141,-0.000160217
0.00222736,-0.0185009,0.0233324,-0.00155947,0.00502992,-0.00511539,0.0132141,-0.000160217
0.012031,-0.00585652,0.0176641,0.00101766,0.00121814,-0.00378823,0.0132141,-0.000160217
0.0319628,-0.0203781,0.0204863,0.00450283,-0.00331515,-0.00868535,0.0132141,-0.000160217
0.0296943,-0.0232241,0.00765301,0.00198346,-0.00387293,-0.000995815,0.0132141,-0.000160217
0.0218009,-0.0204394,0.00575003,-0.000442088,-0.00320709,0.00965899,0.0132141,-0.000160217
0.00827766,0.00215461,0.0104532,0.00164628,-0.00524586,0.0146915,0.0132141,-0.000160217
0.00803385,0.0232299,0.0200355,0.00679275,-0.00685179,0.0113357,0.0132141,-0.000160217
0.00297138,0.0239589,0.0270534,0.00204834,-0.00536418,0.00800532,0.0132141,-0.000160217
-0.00311328,0.00441375,0.0262954,0.00303885,-0.00197035,0.00126255,0.0132141,-0.000160217
-0.0138559,0.00882852,0.0368318,0.004682,-0.00430569,0.00246525,0.0132141,-0.000160217
-0.0114974,0.0100912,0.0302119,-0.00118396,0.000660837,-0.00320774,0.0132141,-0.000160217
0.00195625,0.0229918,0.0202778,-0.00385706,0.0059149,-0.00545925,0.0132141,-0.000160217
0.0201728,0.00983885,0.0164617,-0.00324151,0.00329682,-0.00813913,0.0132141,-0.000160217
0.00394703,0.0128642,0.0149556,-0.00594011,0.00419194,0.000162005,0.0132141,-0.000160217
-0.00971538,0.0113437,-0.000754604,-0.0113565,0.00381833,-0.000596523,0.0132141,-0.000160217
0.0132134,0.00665772,-0.00460727,-0.00312485,0.00261301,-0.0126886,0.0132141,-0.000160217
0.0406243,0.00372503,0.00231233,0.00472558,-0.000980735,-0.0175028,0.0132141,-0.000160217
0.039936,-0.0196548,0.00487324,0.00203666,0.00139916,-0.00473237,0.0132141,-0.000160217
0.00350974,-0.0254263,0.00335695,-0.0017263,-7.76947e-05,0.011686,0.0132141,-0.000160217
-0.023865,-0.0071664,0.0199117,0.00135109,-0.00281519,0.0160781,0.0132141,-0.000160217
-0.0158869,0.00699958,0.0347798,0.00414855,-0.00171924,0.00460893,0.0132141,-0.000160217
0.00515777,0.00504816,0.0252273,-0.0026539,0.00258416,-0.00385362,0.0132141,-0.000160217
-0.0011223,-0.00734038,0.00407875,-0.00676097,0.00495639,0.00189388,0.0132141,-0.000160217
-0.0143653,-0.0162137,0.0179063,0.0024713,0.000577599,0.00619256,0.0132141,-0.000160217
-0.0156305,-0.0254856,0.0306348,0.00398016,-0.00323462,0.00644189,0.0132141,-0.000160217
-0.029049,-0.0145236,0.0241762,-0.00402196,0.000571042,0.012813,0.0132141,-0.000160217
-0.0366033,0.00610291,0.0154356,-0.00821798,-0.000466704,0.0112584,0.0132141,-0.000160217
-0.0212093,0.00710708,0.00842282,-0.00347944,0.00184226,8.86321e-05,0.0132141,-0.000160217
-0.0114246,0.0041057,0.0123427,0.00226015,-0.00137055,-0.0034216,0.0132141,-0.000160217
-0.0262367,-0.01236,0.00818039,0.00038594,-0.00328451,0.00218338,0.0132141,-0.000160217
-0.0447174,-0.00253516,0.0106552,0.00132659,-0.00363004,0.00474596,0.0132141,-0.000160217
-0.0294141,0.00500235,0.00872478,0.000300005,-0.00469348,-0.00556844,0.0132141,-0.000160217
-0.00257571,-0.00566594,0.0104979,0.00381283,-0.00418377,-0.0148646,0.0132141,-0.000160217
-0.00254383,-0.0204057,0.0223078,0.00732006,-0.00931442,-0.00678539,0.0132141,-0.000160217
-0.0382153,-0.0312266,0.0286899,0.00462179,-0.00810143,0.00780863,0.0132141,-0.000160217
-0.0432036,-0.0196758,0.0333819,0.00594383,-0.00823167,0.00388652,0.0132141,-0.000160217
-0.00342687,-0.0150966,0.0371477,0.00654875,-0.00504225,-0.00902498,0.0132141,-0.000160217
-0.00329204,-0.0137056,0.0371918,0.00282983,-0.004399,0.00257254,0.0132141,-0.000160217
-0.0424452,-0.00951762,0.0322282,-0.0026063,-0.00459808,0.0160656,0.0132141,-0.000160217
-0.042741,-0.00122371,0.0389697,-0.00143318,-0.00283921,0.00687563,0.0132141,-0.000160217
-0.033295,0.00338173,0.0337278,-0.00145283,-0.00227958,-0.00217885,0.0132141,-0.000160217
-0.0446557,-0.0355223,0.0294416,0.00266945,-0.000698328,-0.00149018,0.0132141,-0.000160217
-0.0956376,-0.0695626,0.046241,0.0111361,-0.00602344,0.0117525,0.0132141,-0.000160217
-0.0919228,-0.0330317,0.05647,-0.000312507,-0.00639737,0.00571346,0.0132141,-0.000160217
-0.0262369,0.0229832,0.0351767,-0.0101635,0.0011301,-0.0103017,0.0132141,-0.000160217
0.0184698,0.0444939,0.0159058,-0.0106194,0.0015769,-0.0117983,0.0132141,-0.000160217
0.00149454,0.0306286,0.0229153,0.000925958,-0.00177437,-0.00212568,0.0132141,-0.000160217
-0.0359401,-0.00032073,0.0454357,0.0059486,-0.00690562,0.00291628,0.0132141,-0.000160217
-0.0359401,-0.00032073,0.0454357,0.0059486,-0.00690562,0.00291628,0.0184937,-0.000190735
-0.0494776,-0.019754,0.0430574,-0.00190304,-0.00343668,-0.00156832,0.0184937,-0.000190735
-0.0218295,0.006333,0.0297682,-0.00880481,0.00222233,-0.00730222,0.0184937,-0.000190735
0.00414195,0.0312577,0.0204537,-0.00792997,0.000584066,-0.00703889,0.0184937,-0.000190735
-0.00696511,0.0374428,0.0208363,-0.00261128,-0.000333667,0.00279546,0.0184937,-0.000190735
-0.0262772,0.0147423,0.0216487,-0.00219701,-0.00321475,-0.00117135,0.0184937,-0.000190735
-0.0190455,0.00115454,0.0216749,0.00207882,0.000274897,-0.00519156,0.0184937,-0.000190735
-0.00257974,-0.00283087,0.00571969,-0.00635733,0.000495195,-0.00731391,0.0184937,-0.000190735
-0.00213123,0.0178512,-0.00603813,-0.00788051,0.0018236,0.0018698,0.0184937,-0.000190735
-0.00723823,0.025169,-0.00686291,-0.00554359,-0.00250754,0.00323451,0.0184937,-0.000190735
-0.00425184,0.0248394,-0.0027372,0.000366017,-0.00379395,0.000842988,0.0184937,-0.000190735
-0.00487608,0.018023,0.00363025,-0.000395596,-0.00540829,-0.00207597,0.0184937,-0.000190735
-0.00599273,-0.00374403,-0.00186402,-0.000609845,-0.00422394,0.000620961,0.0184937,-0.000190735
-0.0144855,0.0268154,-0.00731417,-0.00767973,-0.00280228,0.00950015,0.0184937,-0.000190735
0.00516345,0.0286189,-0.0142427,-0.00761141,-0.00371942,-0.00194681,0.0184937,-0.000190735
0.00949589,0.0434849,-0.0149325,-0.00422525,-0.00303578,0.000160098,0.0184937,-0.000190735
0.0118084,0.0483815,-0.000560498,0.00212941,-0.008811,-0.00553131,0.0184937,-0.000190735
0.00460118,0.00560413,0.0152283,0.00735098,-0.00474524,-0.0087111,0.0184937,-0.000190735
-0.0241159,-0.0179729,0.0108503,-0.00206107,-0.00546056,0.000627697,0.0184937,-0.000190735
-0.0143096,-0.00555927,0.00843585,-0.00327425,-0.00235134,-0.00340068,0.0184937,-0.000190735
0.0303735,0.00874513,0.00551601,-0.00422737,-0.000518411,-0.00752395,0.0184937,-0.000190735
0.0197156,0.0162207,0.0104718,-0.00464144,-0.00049156,0.00477338,0.0184937,-0.000190735
-0.0255852,0.0151156,0.0150781,-0.00743628,-0.00293839,0.0166516,0.0184937,-0.000190735
-0.0367385,0.0147068,0.00613541,-0.00754665,-0.000732899,0.00470036,0.0184937,-0.000190735
-0.00756065,0.00830061,0.00124585,-0.00533414,0.00106946,-0.0174982,0.0184937,-0.000190735
0.0212966,-0.00800258,-0.00482598,-0.000625685,0.0010938,-0.0198632,0.0184937,-0.000190735
0.0207731,-0.00833102,-0.0109018,-0.00490457,0.00144708,-0.00804508,0.0184937,-0.000190735
0.0120984,-0.00360856,-0.0112641,-0.0027589,0.000926822,-0.000210404,0.0184937,-0.000190735
0.0115841,0.00550677,-0.00792877,-0.00226887,-0.00269282,0.000300884,0.0184937,-0.000190735
0.0163038,0.00314825,-0.00774259,0.00556363,9.75132e-05,-0.00219065,0.0184937,-0.000190735
0.00970383,-0.00140487,-0.00171887,0.00369074,0.000703901,0.000849605,0.0184937,-0.000190735
0.00744901,-0.00855528,0.00279355,0.00667028,0.00288272,-0.00126928,0.0184937,-0.000190735
0.0165743,-0.0014693,-0.00997191,0.000848904,0.00436938,-0.00338769,0.0184937,-0.000190735
0.0223019,0.00557153,-0.018261,0.0026378,0.00699914,-0.000925601,0.0184937,-0.000190735
0.018219,0.0108306,-0.0111838,0.0120043,0.00128338,0.000323117,0.0184937,-0.000190735
0.00865192,-0.000827453,0.00155781,0.0158106,-0.000491202,0.00532991,0.0184937,-0.000190735
-0.00807376,0.00805859,0.0034889,0.011641,0.000918597,0.0112825,0.0184937,-0.000190735
-0.00541905,0.0165283,0.00406552,0.00922453,0.00203639,0.00715411,0.0184937,-0.000190735
-0.00392464,0.0366255,-0.00698113,0.00309946,0.00427374,0.00784928,0.0184937,-0.000190735
-0.00687096,0.0366654,-0.0117054,0.00223418,0.00247657,0.00560254,0.0184937,-0.000190735
-0.0064438,0.0171139,-0.015288,0.00429296,0.00235868,-1.15037e-05,0.0184937,-0.000190735
-0.00820706,0.006154,-0.014926,0.000207353,0.000493944,0.00246233,0.0184937,-0.000190735
-0.026647,0.0243576,-0.0145564,-0.003527,-0.000624627,0.011533,0.0184937,-0.000190735
-0.0298118,0.0388222,-0.0072846,-0.00294901,-0.00409481,0.00698072,0.0184937,-0.000190735
-0.0115386,0.0381572,-0.00769188,-0.00648235,-0.00221318,-0.00663352,0.0184937,-0.000190735
0.000251447,0.0233853,-0.0145805,-0.00690944,-0.000533909,-0.0135661,0.0184937,-0.000190735
-0.00300178,-0.00432561,-0.0158715,-0.00384372,-0.00107452,-0.00925905,0.0184937,-0.000190735
-0.0131657,-0.0100371,0.00073991,-0.000746038,-0.00561041,-0.00521702,0.0184937,-0.000190735
-0.0128356,-0.010629,0.0103461,-0.00231777,-0.00287002,-0.00383729,0.0184937,-0.000190735
-0.00888319,-0.00957781,-0.00127761,-0.0093233,0.00213888,-0.00575125,0.0184937,-0.000190735
-0.00432413,-0.0169544,-0.00786672,-0.00831616,0.00374252,-0.00185716,0.0184937,-0.000190735
-0.0112878,-0.0174565,0.000263916,-0.00223229,0.00073272,0.000912547,0.0184937,-0.000190735
-0.0209923,-0.0199789,0.00780723,-0.00190832,0.00046739,0.00124836,0.0184937,-0.000190735
-0.0142305,-0.023,-0.00269601,-0.00481264,0.00504884,-0.00302827,0.0184937,-0.000190735
-0.0142305,-0.023,-0.00269601,-0.00481264,0.00504884,-0.00302827,0.0184937,-0.000190735
-0.00885456,-0.0204585,-0.00902591,-0.00350177,0.00615644,0.000874341,0.0184937,-0.000190735
-0.00741096,-0.024084,-0.00638524,0.00384374,0.00296259,0.00326926,0.0184937,-0.000190735
-0.0116434,-0.0099924,-0.00881161,0.00112709,0.00163543,0.0101236,0.0184937,-0.000190735
-0.00145042,-0.00147706,-0.0165064,-0.000767406,0.00233206,0.00706589,0.0184937,-0.000190735
-0.00248142,0.00218157,-0.0164152,0.000846922,0.00100738,0.00797379,0.0184937,-0.000190735
-0.0222309,-0.00172131,-0.0156883,0.00589156,-0.0018695,0.0123543,0.0184937,-0.000190735
-0.0431803,0.0158319,-0.0063528,0.00765802,-0.00442204,0.0129329,0.0184937,-0.000190735
-0.0390974,0.0186309,-0.000580749,0.00743369,-0.00402489,-0.00241935,0.0184937,-0.000190735
-0.019338,0.0116861,0.00270253,0.00704773,-0.00288296,-0.0138999,0.0184937,-0.000190735
-0.0157962,0.00446398,0.00127436,0.00305412,-0.000843614,-0.0105671,0.0184937,-0.000190735
-0.0250297,-0.0039717,0.00222689,0.00370808,-0.00354838,-0.010325,0.0184937,-0.000190735
-0.0256641,-0.0142015,0.00352478,0.00259709,-0.00287831,-0.0114123,0.0184937,-0.000190735
-0.00183791,-0.0262929,-0.00951667,-0.000679597,-0.00235373,-0.0147191,0.0184937,-0.000190735
0.0209166,0.00149635,-0.0130866,-0.00458264,-0.00228226,-0.00700104,0.0184937,-0.000190735
0.027987,0.00264947,-0.0124449,-0.00137523,-0.00449032,-0.000856161,0.0184937,-0.000190735
0.000586215,0.00215504,-0.00642235,-0.00079453,-0.00786185,0.0083127,0.0184937,-0.000190735
-0.00903891,-0.000517667,0.00274616,-0.00241342,-0.00826839,0.00234562,0.0184937,-0.000190735
0.0175466,-0.0222613,0.00233124,0.000817761,-0.0057202,-0.0112222,0.0184937,-0.000190735
0.0296192,0.000838764,0.0010495,-0.00410184,-0.00494194,-0.00585979,0.0184937,-0.000190735
0.0408592,-0.00161127,-0.00591883,-0.0085455,-0.003371,-0.00584888,0.0184937,-0.000190735
0.0217357,-0.020112,0.00581213,0.000886861,-0.0071176,-0.00291455,0.0184937,-0.000190735
0.0159962,-0.0356095,0.0263981,0.00711192,-0.0088672,-0.00487429,0.0184937,-0.000190735
0.0200361,-0.0260513,0.0328878,8.89152e-05,-0.0025968,-0.00398612,0.0184937,-0.000190735
0.0244189,-0.0174817,0.0213376,-0.00780489,0.00225163,-0.00290889,0.0184937,-0.000190735
0.0392692,-0.0263545,0.014051,-0.00669393,0.00401777,-0.0082323,0.0184937,-0.000190735
0.0350136,-0.0469493,0.00867311,-0.00186123,0.00626135,-0.0012452,0.0184937,-0.000190735
0.0220091,-0.0229034,0.00320187,-0.00601999,0.0064199,0.00984788,0.0184937,-0.000190735
0.0235543,-0.00305039,0.00270679,-0.00635268,0.00674751,0.00533736,0.0184937,-0.000190735
0.0280917,-0.0256727,-0.0100057,-0.00107099,0.00944331,-0.00153369,0.0184937,-0.000190735
0.0280598,-0.0366966,-0.0128385,0.00157683,0.00607616,0.00306886,0.0184937,-0.000190735
0.0203922,-0.0202949,-0.017839,-0.00426623,0.00633124,0.00890374,0.0184937,-0.000190735
0.00905229,0.0123235,-0.0197882,-0.00323519,0.00347924,0.011355,0.0184937,-0.000190735
0.00970501,-0.000974776,-0.0197249,-0.00102,0.00259292,0.00267559,0.0184937,-0.000190735
0.00235401,-0.0225245,-0.0217108,0.00372317,0.00150335,0.00266665,0.0184937,-0.000190735
0.0122712,-0.0158244,-0.00917091,0.00470417,-0.00343534,-0.000395298,0.0184937,-0.000190735
0.0145069,-0.00789795,-0.0257617,-0.00424165,-0.00150019,0.00252509,0.0184937,-0.000190735
0.0107598,0.00498773,-0.0184842,-0.00132388,-0.00452903,0.00534582,0.0184937,-0.000190735
0.0116138,-0.014003,-0.00267257,0.00828987,-0.00870946,0.000510335,0.0184937,-0.000190735
0.00157622,-0.0207479,0.00476963,0.00708598,-0.00547045,0.00529259,0.0184937,-0.000190735
-0.00164891,-0.013812,0.00895483,0.00172034,-0.00469089,0.00551528,0.0184937,-0.000190735
-0.00225982,-0.000985538,0.00988259,0.00100255,-0.00336885,0.00210214,0.0184937,-0.000190735
-0.00346504,-3.17208e-06,0.0215386,0.00499408,-0.0032891,-0.00360447,0.0184937,-0.000190735
-0.0029049,-0.02066,0.019491,0.00557996,0.000498354,-0.00896472,0.0184937,-0.000190735
0.0034124,-0.0232874,0.00654529,0.00138319,0.00213099,-0.00675637,0.0184937,-0.000190735
0.0146124,-0.0189617,0.00381582,0.00250249,0.00194788,-0.00368541,0.0184937,-0.000190735
0.015177,-0.00510938,0.0136977,0.00839089,-0.00104633,0.00742543,0.0184937,-0.000190735
-0.00482841,-0.0121076,0.0132967,0.0040354,0.00171855,0.0147739,0.0184937,-0.000190735
-0.022538,-0.000933199,0.0105089,0.0042111,0.00333506,0.0189448,0.0184937,-0.000190735
-0.019676,0.0138055,0.0150551,0.00282,0.00135979,0.0142011,0.0184937,-0.000190735
-0.0127746,0.0206439,0.0112781,0.00178514,0.00442863,0.00833124,0.0184937,-0.000190735
-0.0147904,0.0312333,-0.000400897,-0.00276222,0.00479737,0.00684744,0.0184937,-0.000190735
-0.0201893,0.0368809,-0.000376394,-0.000914019,0.00316867,0.00714833,0.0184937,-0.000190735
-0.0390083,0.0385091,0.00892021,0.00382671,-9.60827e-05,0.00587767,0.0184937,-0.000190735
-0.039268,0.041963,0.0241439,0.00524761,-0.00249553,-0.0056029,0.0184937,-0.000190735
-0.039268,0.041963,0.0241439,0.00524761,-0.00249553,-0.0056029,0.0132141,-0.000160217
-0.0141761,0.0311212,0.0178982,-0.00159836,0.00109947,-0.0181111,0.0132141,-0.000160217
-0.00337061,0.0227943,0.000380071,-0.00955291,0.00392389,-0.0140988,0.0132141,-0.000160217
-0.00828399,0.0159459,0.00158848,-0.00531846,0.000110149,-0.00483364,0.0132141,-0.000160217
-0.010302,0.0183019,0.012503,-0.00432296,-0.00164309,-0.000248253,0.0132141,-0.000160217
-0.0204291,0.0194359,0.0176305,-0.00470048,-1.40071e-05,0.00170904,0.0132141,-0.000160217
-0.0380696,0.0213516,0.00176691,-0.0137762,-0.00269407,0.00390923,0.0132141,-0.000160217
-0.051444,-0.0100478,0.00707392,0.00360157,-0.00182992,0.00355202,0.0132141,-0.000160217
-0.0500099,-0.00533154,0.0158246,-0.00334863,-0.00852782,0.00500059,0.0132141,-0.000160217
-0.0280422,0.0157074,0.00795117,-0.00545363,-0.00384846,-0.000107706,0.0132141,-0.000160217
-0.00209214,-0.0203343,0.00331048,-0.00123372,-0.00659505,-0.00294685,0.0132141,-0.000160217
-0.0270742,0.0107147,0.019335,0.0088242,-0.000220239,-0.00017947,0.0132141,-0.000160217
-0.0266785,0.00465315,0.0233318,0.00461189,-0.00565779,-0.00243509,0.0132141,-0.000160217
-0.0396113,-0.0420617,0.0328407,0.00701329,-0.00155473,0.00166178,0.0132141,-0.000160217
-0.0760462,-0.0124244,0.038803,-0.00121084,-0.00251108,0.0093109,0.0132141,-0.000160217
-0.0446858,0.0138165,-0.0176132,-0.0234317,-0.0015071,0.00171089,0.0132141,-0.000160217
0.141463,-0.201135,-0.165556,-0.0871885,-0.0121792,-0.0426939,0.0132141,-0.000160217
0.191908,0.00495702,-0.220825,0.0141737,0.0424112,-0.0233647,0.0132141,-0.000160217
0.199758,0.102034,-0.259472,-0.019173,0.0133022,0.0305353,0.0132141,-0.000160217
0.157178,0.212168,-0.235444,-0.00781344,0.00611046,0.0213069,0.0132141,-0.000160217
0.0291352,-0.0106692,-0.147713,-0.00807893,-0.00729939,0.0324058,0.0132141,-0.000160217
-0.0412658,-0.0568807,-0.212147,0.00630923,-0.0160273,0.0305731,0.0132141,-0.000160217
-0.225834,-0.0806652,-0.199946,0.0233732,0.0013971,0.0460035,0.0132141,-0.000160217
-0.517784,-0.0940423,-0.314099,-0.038032,-0.0569136,0.121761,0.0132141,-0.000160217
-0.610276,-0.0090689,-0.263902,-0.0298393,-0.0225917,0.0552546,0.0132141,-0.000160217
-0.488474,0.10398,-0.184019,0.0378883,0.00731725,0.00758713,0.0132141,-0.000160217
-0.267259,0.212066,-0.175197,0.0349283,0.0186255,-0.0500631,0.0132141,-0.000160217
-0.0157008,0.0231435,-0.181847,0.0211603,0.0251694,-0.0769745,0.0132141,-0.000160217
0.146815,-0.0977759,-0.137969,0.0241386,-0.00926077,-0.0892928,0.0132141,-0.000160217
0.181547,-0.0426073,-0.0616521,0.0328369,0.0118212,-0.0448059,0.0132141,-0.000160217
0.13998,-0.00409781,-0.0222766,0.0131546,0.0036121,-0.0130576,0.0132141,-0.000160217
0.0370758,-0.0716397,-0.0330387,-0.0125742,-0.00488818,-0.00290847,0.0132141,-0.000160217
-0.0286179,-0.10399,-0.102793,-0.00639765,0.00357091,-0.0115551,0.0132141,-0.000160217
-0.0678474,-0.240406,-0.123032,0.00933658,0.00725159,-0.0171886,0.0132141,-0.000160217
-0.143194,-0.278398,-0.105001,0.0095598,0.00602913,0.0164049,0.0132141,-0.000160217
-0.139743,-0.13679,-0.156864,-0.0397433,-0.00399184,-0.000751853,0.0132141,-0.000160217
-0.153839,-0.0291772,-0.164803,-0.0204888,-0.00119284,0.000498116,0.0132141,-0.000160217
-0.165528,-0.04003,-0.16855,-0.00762838,0.012363,0.0104632,0.0132141,-0.000160217
-0.202547,0.0318944,-0.17784,-0.0047348,-0.000661224,0.0265158,0.0132141,-0.000160217
-0.24841,0.224274,-0.171018,-0.0190228,-0.0176058,0.0328803,0.0132141,-0.000160217
-0.302071,0.480586,-0.0926798,-0.00833617,-0.0286722,0.0570211,0.0132141,-0.000160217
-0.360787,0.720792,0.005271,-0.00836752,-0.0287108,0.0739544,0.0132141,-0.000160217
-0.402412,0.839814,0.0701731,-0.0170053,-0.0329328,0.0649547,0.0132141,-0.000160217
-0.507431,0.671408,0.0493562,-0.0206905,-0.023411,0.0751337,0.0132141,-0.000160217
-0.65823,0.532438,0.0143714,-0.0117223,-0.0291067,0.0505535,0.0132141,-0.000160217
-0.831648,0.227807,-0.0221434,-0.0591765,-0.0165673,0.0395623,0.0132141,-0.000160217
-1.07257,0.0123913,-0.154287,-0.0821346,-0.0287182,0.0821807,0.0132141,-0.000160217
-1.02703,-0.131147,-0.241537,-0.0317702,-0.0623604,0.026535,0.0132141,-0.000160217
-0.673078,0.209498,-0.235592,0.0187036,-0.0578351,-0.104663,0.0132141,-0.000160217
-0.283384,0.503699,-0.159937,0.059446,0.0170337,-0.154146,0.0132141,-0.000160217
0.0744618,0.337089,-0.1203,0.0299631,0.0116919,-0.115333,0.0132141,-0.000160217
0.299924,0.138351,-0.195997,-0.0202988,-0.00527373,-0.0791335,0.0132141,-0.000160217
0.29213,0.172034,-0.382428,-0.0683458,0.000805944,-0.0363306,0.0132141,-0.000160217
0.0586898,0.333044,-0.538491,-0.0870806,0.00340018,0.0185404,0.0132141,-0.000160217
-0.10628,0.417946,-0.707337,-0.061078,-0.00657047,0.0179297,0.0132141,-0.000160217
-0.10628,0.417946,-0.707337,-0.061078,-0.00657047,0.0179297,0.0132141,-0.000152588
-0.129917,0.244933,-0.824497,-0.0350118,-0.0171444,-0.0104465,0.0132141,-0.000152588
-0.0937326,-0.00554201,-0.874348,-0.00186756,-0.0153945,-0.0235727,0.0132141,-0.000152588
-0.101942,-0.162635,-0.816815,0.0407234,-0.0160808,0.00530446,0.0132141,-0.000152588
-0.241562,0.0289192,-0.586848,0.0766222,0.0199428,0.0256268,0.0132141,-0.000152588
-0.325404,0.310664,-0.212887,0.114747,0.0672937,-0.0262266,0.0132141,-0.000152588
-0.188005,0.197066,0.0688271,0.123477,0.0645156,-0.0612323,0.0132141,-0.000152588
-0.00519073,-0.0861506,0.219891,0.103465,0.0661922,-0.0642291,0.0132141,-0.000152588
0.144386,-0.373175,0.266067,0.0842541,0.0522104,-0.0530672,0.0132141,-0.000152588
0.212992,-0.450278,0.233582,0.0305336,-0.00217527,-0.0357455,0.0132141,-0.000152588
0.235465,-0.518229,0.197786,0.0137294,-0.00518394,-0.0240976,0.0132141,-0.000152588
0.235392,-0.619684,0.15431,0.0076345,0.0100341,-0.0153836,0.0132141,-0.000152588
0.157565,-0.723745,0.1079,0.000832591,0.014111,0.00596744,0.0132141,-0.000152588
0.0229352,-0.722111,0.0462509,-0.0108913,0.00894919,0.0299696,0.0132141,-0.000152588
-0.070131,-0.603829,0.00952879,-0.0179715,-0.00707637,0.0288144,0.0132141,-0.000152588
-0.0718658,-0.440374,0.00118596,-0.0151863,-0.00334285,0.0177545,0.0132141,-0.000152588
-0.0164456,-0.29729,0.00233541,-0.00962857,0.000695318,0.00223047,0.0132141,-0.000152588
0.0567112,-0.161789,-0.00680037,-0.0126022,0.0013991,-0.00616509,0.0132141,-0.000152588
0.13207,-0.0919062,-0.0444308,-0.0220991,0.0144908,-0.0108692,0.0132141,-0.000152588
0.191476,-0.149573,-0.0848967,-0.024544,0.0168572,-0.0121282,0.0132141,-0.000152588
0.166467,-0.18266,-0.105564,-0.0154112,0.0134945,0.0130893,0.0132141,-0.000152588
0.119369,-0.0959987,-0.0837573,0.00123646,-0.00189173,0.0315118,0.0132141,-0.000152588
0.112834,-0.0144621,-0.0359185,0.00773154,-0.0105205,0.0221264,0.0132141,-0.000152588
0.125621,0.0322208,-0.0270482,-0.00287771,-0.00406629,0.0171641,0.0132141,-0.000152588
0.107233,-0.0172755,-0.0321172,-0.0089322,-0.00202048,0.0205562,0.0132141,-0.000152588
0.0378844,-0.0721814,-0.0507376,-0.00529619,-0.0019486,0.0317946,0.0132141,-0.000152588
-0.00744166,-0.0476974,-0.0565823,0.000429526,-0.0054246,0.0321303,0.0132141,-0.000152588
0.00655449,0.0316453,-0.0455405,-0.00419413,-0.0152021,0.0109988,0.0132141,-0.000152588
0.040431,0.0624511,-0.017128,0.00193153,-0.0119014,-0.00281662,0.0132141,-0.000152588
0.0272145,0.00634905,0.00174246,0.00936995,-0.0120213,-0.00308478,0.0132141,-0.000152588
-0.00690518,-0.0496946,0.0123684,0.0113185,-0.0068485,0.000383675,0.0132141,-0.000152588
-0.0339728,-0.0146329,0.0061021,-0.00376312,-0.00345387,0.00646883,0.0132141,-0.000152588
-0.0285862,0.0129218,-0.00607676,-0.00741223,-0.00508171,-0.000951171,0.0132141,-0.000152588
0.0206458,0.013944,-0.0117172,-0.000867158,-2.39909e-05,-0.0221409,0.0132141,-0.000152588
0.0716159,-0.00497904,-0.0139108,0.000956789,0.000116915,-0.0223501,0.0132141,-0.000152588
0.0831379,6.26827e-06,-0.0111842,0.00512739,0.000458896,-0.00123304,0.0132141,-0.000152588
0.034595,0.0203998,0.00681037,0.00348451,-0.00406633,0.0212691,0.0132141,-0.000152588
-0.0363929,0.026222,-0.00176954,-0.00532069,-0.006394,0.0276333,0.0132141,-0.000152588
-0.0645607,-0.0312633,-0.0240604,-0.00466138,0.000449538,0.00944066,0.0132141,-0.000152588
-0.0343856,-0.0647717,-0.0434384,0.000123128,0.00323248,-0.00932628,0.0132141,-0.000152588
0.0379443,-0.0125844,-0.0442038,0.00359274,0.00273477,-0.0155683,0.0132141,-0.000152588
0.0930978,0.0784209,-0.0457277,-0.00273617,-0.00137578,-0.00862241,0.0132141,-0.000152588
0.0957298,0.0914839,-0.0411743,-0.000228256,-0.00294709,0.00281042,0.0132141,-0.000152588
0.038343,0.0377348,-0.0329708,0.00947616,0.00156745,0.0141988,0.0132141,-0.000152588
-0.0180337,0.0132484,-0.0399046,0.00142897,-0.00337693,0.0171784,0.0132141,-0.000152588
-0.0219723,-0.00639896,-0.0368424,-0.00345714,-0.00527683,0.00706911,0.0132141,-0.000152588
-0.021205,-0.000791144,-0.0458122,-0.00103567,-0.00348887,0.0021522,0.0132141,-0.000152588
0.00309233,0.018109,-0.046157,-0.0036112,-0.0061543,-0.00246161,0.0132141,-0.000152588
0.0385289,0.0428057,-0.0383329,-0.00108948,-0.00697839,-0.00419283,0.0132141,-0.000152588
0.0596249,0.0535555,-0.0285988,-0.000526048,-0.00602198,0.000677884,0.0132141,-0.000152588
0.0513149,0.0886165,-0.0394211,-0.00711459,-0.00654811,0.00605035,0.0132141,-0.000152588
0.0639957,0.0937181,-0.0438393,-0.0116782,-0.00316718,0.00217605,0.0132141,-0.000152588
0.0444907,0.0329988,-0.0296888,-0.00206753,-0.00700775,-0.000301182,0.0132141,-0.000152588
-0.00450933,-0.0212312,-0.0276993,-0.00260159,-0.00550564,0.00698459,0.0132141,-0.000152588
-0.0380791,-0.022454,-0.0260884,-0.00159802,-0.00168228,0.0099014,0.0132141,-0.000152588
-0.0380791,-0.022454,-0.0260884,-0.00159802,-0.00168228,0.0099014,0.00793457,-8.39233e-05
-0.0379827,0.000632594,-0.0198937,-0.00466888,-0.00883333,0.00262493,0.00793457,-8.39233e-05
-0.013539,0.0255222,-0.0332481,-0.00767604,-0.00419928,-0.00687361,0.00793457,-8.39233e-05
0.0283659,0.0177554,-0.0276009,-0.00121661,-0.00393385,-0.0186898,0.00793457,-8.39233e-05
0.0567846,-0.0054602,-0.0313872,-0.000461766,-0.00456591,-0.0161132,0.00793457,-8.39233e-05
0.0525532,-0.0301136,-0.0158209,0.00558536,-0.00558117,-0.00366706,0.00793457,-8.39233e-05
0.00667346,-0.0486915,-0.00335867,0.00789222,-0.00908686,0.0102232,0.00793457,-8.39233e-05
-0.0197124,-0.0403957,0.0036264,0.00583592,-0.00970921,0.00908291,0.00793457,-8.39233e-05
-0.00608503,-0.0299523,0.00655994,0.00829068,-0.00636594,-0.00499856,0.00793457,-8.39233e-05
0.0221445,-0.0345538,0.00641084,0.00354898,-0.0020663,-0.0102708,0.00793457,-8.39233e-05
0.0267482,-0.0349009,-0.00340683,0.00314724,0.00130585,-0.00226527,0.00793457,-8.39233e-05
0.0253539,-0.0469355,0.00688069,0.0164489,-2.88337e-05,-0.00215214,0.00793457,-8.39233e-05
0.0180871,-0.0345066,0.0287717,0.01566,-0.00406152,-7.51019e-06,0.00793457,-8.39233e-05
0.00113054,-0.0348182,0.0253651,0.00746507,0.00074929,0.0062291,0.00793457,-8.39233e-05
-0.00737281,-0.0447959,0.0180963,0.00356215,0.00162162,0.00768977,0.00793457,-8.39233e-05
0.00866645,-0.0653241,0.0192075,0.00644989,-0.00517535,0.000786722,0.00793457,-8.39233e-05
0.0173044,-0.0247993,0.00278177,-0.00373424,0.00330953,0.0141079,0.00793457,-8.39233e-05
0.0226658,0.0289587,-0.00293768,-0.00357949,-7.21067e-05,0.0190772,0.00793457,-8.39233e-05
0.0192516,0.0529147,0.0058761,0.00255892,0.00104675,0.0146991,0.00793457,-8.39233e-05
0.00154792,0.0272224,0.00152294,0.00344574,-0.000785023,0.0123956,0.00793457,-8.39233e-05
-0.0186481,0.000862464,0.0159285,0.00697859,-0.00300743,0.0124102,0.00793457,-8.39233e-05
-0.0409755,0.00301282,0.0235139,0.00256849,-0.00421365,0.0124832,0.00793457,-8.39233e-05
-0.045851,0.0123923,0.0105604,-0.00551707,0.000790462,0.00937098,0.00793457,-8.39233e-05
-0.0370946,0.0186424,0.00759918,-0.00246258,0.000274703,-0.00152004,0.00793457,-8.39233e-05
-0.0210042,-0.00315675,0.0300698,0.00557213,-0.004509,-0.0140064,0.00793457,-8.39233e-05
-0.0171815,0.00537846,0.0325394,-6.52149e-05,-0.00156838,-0.0136098,0.00793457,-8.39233e-05
-0.0160705,-0.0475627,0.0279106,-0.00271107,-0.00332215,-0.019807,0.00793457,-8.39233e-05
-0.0154695,-0.0806043,0.00946214,-0.00235561,0.00492653,-0.0114697,0.00793457,-8.39233e-05
-0.00529741,-0.0413154,0.00280767,-0.00989641,-0.0012898,0.00142068,0.00793457,-8.39233e-05
-0.00325089,0.00136979,-0.000838641,-0.00791079,-0.00636585,0.0116745,0.00793457,-8.39233e-05
-0.000294769,0.0181327,0.00447085,0.00668308,-0.00646716,0.00613129,0.00793457,-8.39233e-05
0.00407509,-0.0112691,0.0425935,0.0128136,-0.0114503,-0.00139576,0.00793457,-8.39233e-05
-0.0169253,-0.0449839,0.0376173,0.00329262,-0.00884332,0.00506133,0.00793457,-8.39233e-05
-0.0263367,-0.0328239,0.0179776,-0.00538209,-0.00683512,0.00924623,0.00793457,-8.39233e-05
-0.0236143,0.00948469,0.00918233,-0.00587092,-0.00543615,0.0129052,0.00793457,-8.39233e-05
-0.0262302,0.0377613,0.00992185,-0.0016102,-0.00568773,0.0100914,0.00793457,-8.39233e-05
-0.0123206,0.000752328,0.0276012,0.0095219,-0.00963025,-0.00217462,0.00793457,-8.39233e-05
-0.0131016,-0.001572,0.0408654,0.00598576,-0.00721309,-0.00172359,0.00793457,-8.39233e-05
-0.0257537,0.0203344,0.0254077,-0.00723308,-0.00268354,0.00746369,0.00793457,-8.39233e-05
-0.0322844,0.0466012,0.00456967,-0.014205,0.00241342,0.00718361,0.00793457,-8.39233e-05
-0.0324631,0.0331075,-0.00266835,-0.0017138,-0.000479192,-0.00666976,0.00793457,-8.39233e-05
-0.021991,-0.00310623,0.022756,0.00934412,-0.00279114,-0.0185516,0.00793457,-8.39233e-05
-0.00734061,-0.0241272,0.0328769,0.00202129,-0.00121799,-0.0203816,0.00793457,-8.39233e-05
-0.00479292,-0.00976636,0.0105777,-0.00922133,0.00447643,-0.00911707,0.00793457,-8.39233e-05
-0.00335782,0.0247031,-0.00214961,-0.0144927,0.00158286,-0.00773591,0.00793457,-8.39233e-05
0.00203555,0.00371545,-0.00764033,-0.00297356,0.000937119,-0.0130489,0.00793457,-8.39233e-05
0.00162528,-0.026993,-0.00922447,-0.000183836,0.00192219,-0.00719398,0.00793457,-8.39233e-05
0.00820507,-0.032217,-0.0161892,-0.00337665,-0.000677273,-0.00163776,0.00793457,-8.39233e-05
0.0121562,-0.00235859,-0.0135449,0.00109016,-0.00120738,0.00952494,0.00793457,-8.39233e-05
0.00791237,0.0265566,-0.0107712,-0.00279225,-0.00339873,0.01104,0.00793457,-8.39233e-05
0.00222476,0.0128053,-0.00766519,-0.00213946,-0.00213373,0.00907105,0.00793457,-8.39233e-05
-0.00875056,0.0106092,-0.00766231,-0.00058268,0.00323875,0.0083015,0.00793457,-8.39233e-05
-0.0224597,0.0201779,-0.00528061,-0.00332262,-0.00050585,0.00648648,0.00793457,-8.39233e-05
-0.0166885,0.00750868,-0.00643619,-0.00304382,0.00375254,-0.00280052,0.00793457,-8.39233e-05
-0.0109323,0.0156294,-0.0315265,-0.00970989,0.00758725,-0.00479174,0.00793457,-8.39233e-05
-0.0109323,0.0156294,-0.0315265,-0.00970989,0.00758725,-0.00479174,0.00793457,-8.39233e-05
0.00878271,0.0132209,-0.0455485,-0.0075066,0.00639349,-0.0118846,0.00793457,-8.39233e-05
0.0287534,0.021659,-0.0374608,0.00252902,0.00722572,-0.0124192,0.00793457,-8.39233e-05
0.0352356,0.0143283,-0.0315969,0.00458103,0.00316104,-0.00665271,0.00793457,-8.39233e-05
0.00725879,0.0048411,-0.0301139,0.00217674,0.00468475,0.00464666,0.00793457,-8.39233e-05
-0.0390383,0.00650042,-0.0356191,0.000365011,0.00407267,0.011895,0.00793457,-8.39233e-05
-0.0318144,0.00103969,-0.0330004,0.00623077,0.00161025,0.000153065,0.00793457,-8.39233e-05
0.0113223,0.00782461,-0.0259004,0.00974265,0.000748098,-0.00942862,0.00793457,-8.39233e-05
0.0483031,0.0282939,-0.0243593,0.00841287,0.00145468,-0.00621605,0.00793457,-8.39233e-05
0.0439711,0.0167753,-0.0199819,0.0104226,0.00214091,0.00646847,0.00793457,-8.39233e-05
0.00173168,-0.00470741,-0.00533565,0.0122816,-0.0021778,0.0217345,0.00793457,-8.39233e-05
-0.0548161,0.0131448,0.00933425,0.0127243,-0.00604835,0.0298734,0.00793457,-8.39233e-05
-0.0818596,0.044065,0.0279257,0.0116438,-0.00446591,0.0159839,0.00793457,-8.39233e-05
-0.0676967,0.0343776,0.0285996,0.00821641,-7.02888e-05,-0.00965977,0.00793457,-8.39233e-05
-0.0357135,0.0153766,0.0182417,0.00823171,0.00507259,-0.021253,0.00793457,-8.39233e-05
0.00202846,0.00316083,0.0197505,0.00646311,0.000281543,-0.0253044,0.00793457,-8.39233e-05
0.0342417,0.00539638,0.0203719,0.000834249,-0.00141791,-0.020408,0.00793457,-8.39233e-05
0.0376722,0.0182848,0.00409521,-0.00868434,0.00261623,-0.00769705,0.00793457,-8.39233e-05
0.0163655,-0.000206659,-0.00147856,-0.00350878,0.000709996,0.00071454,0.00793457,-8.39233e-05
-0.0109678,-0.010214,0.0225027,0.00895166,-0.00575733,0.00608963,0.00793457,-8.39233e-05
-0.019251,0.0134466,0.0391256,0.0018993,-0.00439908,0.00565702,0.00793457,-8.39233e-05
0.00595365,0.0132048,0.028322,-0.00807315,0.00373761,-0.00319231,0.00793457,-8.39233e-05
0.021736,0.00443966,0.0204525,-0.00558077,0.0083034,-0.00544822,0.00793457,-8.39233e-05
0.0222238,0.00602752,0.0185865,-0.00498956,0.00572589,0.00221735,0.00793457,-8.39233e-05
0.00362365,0.0150402,0.0123513,-0.00647479,0.00704998,0.0080297,0.00793457,-8.39233e-05
-0.00256196,-0.0119199,0.00859238,-0.00127933,0.00800183,0.00331712,0.00793457,-8.39233e-05
-0.00549333,0.00350151,0.00373407,-0.00167288,0.00659464,0.0068754,0.00793457,-8.39233e-05
-0.00601643,0.0198782,0.0043686,-0.00229039,0.00312659,0.00586987,0.00793457,-8.39233e-05
-0.00902484,0.00456751,0.0104859,0.0016127,0.0017672,0.0057832,0.00793457,-8.39233e-05
-0.0138657,0.0118941,0.0119876,-0.00414614,-0.00105803,0.00510526,0.00793457,-8.39233e-05
-0.0153485,0.0164938,0.00244229,-0.00574812,0.00172648,0.0041123,0.00793457,-8.39233e-05
-0.0138612,0.0120002,-0.000588242,-0.00353735,0.00184514,-0.00209719,0.00793457,-8.39233e-05
-0.00205467,0.00854335,0.00626275,-0.00342891,-0.00182824,-0.00736445,0.00793457,-8.39233e-05
-0.00200253,0.000165253,0.0180623,0.00270521,-0.00328463,-0.00930065,0.00793457,-8.39233e-05
-0.00306205,0.00426873,0.0280645,-0.00201909,-0.00592141,-0.00633419,0.00793457,-8.39233e-05
-0.00535913,0.00246637,0.0328878,0.000992342,-0.00162394,-0.00527906,0.00793457,-8.39233e-05
0.00791384,-0.00278763,0.0322676,-0.00464421,-0.0046792,-0.00896949,0.00793457,-8.39233e-05
0.0158011,0.00111929,0.0244719,-0.00593665,0.0018779,-0.00348258,0.00793457,-8.39233e-05
0.00553417,-0.000777918,0.0159527,-0.00956672,-0.00498295,8.28505e-06,0.00793457,-8.39233e-05
0.00570004,-0.00631691,0.0118052,-0.000786425,0.00326315,-0.00150204,0.00793457,-8.39233e-05
0.0111037,-0.00977894,0.00906706,-0.00404932,-0.000837505,7.98106e-05,0.00793457,-8.39233e-05
0.0170239,-0.0128234,-0.00692414,-0.00711529,0.00407562,0.0034672,0.00793457,-8.39233e-05
0.00655736,0.0106385,-0.0202269,-0.00500923,0.00390175,0.0123278,0.00793457,-8.39233e-05
0.00179947,0.0141024,-0.0180349,0.000174567,-0.0036101,0.00943005,0.00793457,-8.39233e-05
0.00501966,0.0132481,-0.00751829,0.0075539,0.00158674,0.00650799,0.00793457,-8.39233e-05
-0.0034431,0.0268593,-0.014888,-0.0018811,-0.000665158,0.00953084,0.00793457,-8.39233e-05
-0.0269405,0.0220178,-0.0198097,0.00297668,0.00265476,0.0125726,0.00793457,-8.39233e-05
-0.0318082,0.0103489,-0.00353271,0.0117932,-0.00350991,0.00173074,0.00793457,-8.39233e-05
-0.00831139,-0.0248336,0.0130988,0.0141495,-0.00547977,-0.0130845,0.00793457,-8.39233e-05
0.00970852,-0.0146499,0.0155154,0.00426083,0.000875831,-0.00428843,0.00793457,-8.39233e-05
0.000281678,0.0252661,-0.0029804,-0.0110243,-0.00343183,0.00840336,0.00793457,-8.39233e-05
-0.0332457,0.0345238,0.00272952,0.00223559,-0.00458077,0.0125016,0.00793457,-8.39233e-05
-0.048862,0.0231675,0.027591,0.00736022,-0.00922064,0.000817478,0.00793457,-8.39233e-05
-0.037013,0.00918257,0.0330747,0.00635568,-0.00467169,-0.0127104,0.00793457,-8.39233e-05
-0.000608658,0.0121333,0.0307753,0.00215122,-0.00177963,-0.019497,0.00793457,-8.39233e-05
-0.000608658,0.0121333,0.0307753,0.00215122,-0.00177963,-0.019497,-0.00793457,9.91821e-05
0.0180767,0.0213483,0.022174,-0.00311993,-0.00303489,-0.0148709,-0.00793457,9.91821e-05
0.0141512,0.015066,0.0127069,-0.00122296,0.00313498,-0.0057866,-0.00793457,9.91821e-05
5.86468e-05,-0.016226,0.0209556,0.00522014,-0.00263919,-0.00604081,-0.00793457,9.91821e-05
-0.00339823,-0.0223939,0.0106282,0.00202504,0.00123605,0.00298947,-0.00793457,9.91821e-05
0.0011951,-0.00926504,0.00547016,-0.00237626,-0.0012072,0.00907564,-0.00793457,9.91821e-05
0.00464743,0.00794515,0.00665158,0.00420114,-0.00199172,0.0116323,-0.00793457,9.91821e-05
0.00186245,0.0345747,0.0243574,0.00517771,-0.00571334,0.0101686,-0.00793457,9.91821e-05
0.00428887,0.0440971,0.0190034,0.00336138,-0.000933796,0.000387132,-0.00793457,9.91821e-05
0.0152035,0.0301911,0.0218333,-6.7234e-05,-0.00048241,-0.00602531,-0.00793457,9.91821e-05
0.00321202,-0.00587384,0.0254092,0.00601201,-1.09524e-05,-0.00586152,-0.00793457,9.91821e-05
-0.0115179,0.00391742,0.0259454,0.0011055,0.00213023,-0.000471234,-0.00793457,9.91821e-05
-0.00374534,-0.00162921,0.013555,-0.00334213,-0.00102878,-0.00468224,-0.00793457,9.91821e-05
0.0127558,0.0013786,0.011702,0.00260586,0.00430092,-0.00510639,-0.00793457,9.91821e-05
0.0255629,0.0061372,0.0228149,-0.00185887,-0.00441733,-0.00168675,-0.00793457,9.91821e-05
0.0131363,0.00786863,0.0205841,0.00152817,0.00141117,0.00814253,-0.00793457,9.91821e-05
-0.00103549,0.0117603,0.0247177,0.000759966,-0.00633107,0.00905269,-0.00793457,9.91821e-05
-0.00229785,-0.00239028,0.0364543,0.0029881,-0.00378826,0.00304168,-0.00793457,9.91821e-05
-0.0117858,-0.00175841,0.0280535,-0.0019182,-0.00103968,0.00351042,-0.00793457,9.91821e-05
-0.00953729,0.00092456,0.0257867,-0.00408039,-0.000199646,-7.76052e-05,-0.00793457,9.91821e-05
-0.000129831,0.0111697,0.0175404,-0.0046277,0.00192723,-0.00340968,-0.00793457,9.91821e-05
0.00796343,0.00268802,0.0189458,-0.000744171,-0.00101221,-0.00593251,-0.00793457,9.91821e-05
0.000581993,-0.0102376,0.0201278,0.00052356,-0.00150022,-0.000555933,-0.00793457,9.91821e-05
-0.00896925,-0.00178066,0.0243851,0.000477739,-0.00321485,0.00556993,-0.00793457,9.91821e-05
-0.0169859,0.00827269,0.0252391,0.000893316,-0.000492483,0.00334072,-0.00793457,9.91821e-05
-0.00267148,-0.00205128,0.0162936,-0.0026975,-0.00106849,-0.006396,-0.00793457,9.91821e-05
0.0171193,-0.0117815,0.00972141,-0.00183349,0.00214808,-0.00797629,-0.00793457,9.91821e-05
0.0270646,-0.0160733,-0.00300258,-0.00522469,0.00176966,0.000416815,-0.00793457,9.91821e-05
0.0255999,-0.00454458,-0.0224565,-0.0103764,0.000586599,0.0075928,-0.00793457,9.91821e-05
0.00344264,-0.00178993,-0.0145246,-0.0076983,-0.00414227,0.0138248,-0.00793457,9.91821e-05
-0.026931,0.00862408,-0.0174728,-0.00415972,-0.00622006,0.01943,-0.00793457,9.91821e-05
-0.0445476,-0.0217357,-0.00335119,0.00426972,-0.00915575,0.00609022,-0.00793457,9.91821e-05
-0.0712567,-0.0982347,0.0341191,0.0176385,-0.00995129,-0.0163661,-0.00793457,9.91821e-05
-0.0903394,-0.286263,0.0796942,0.0293196,-0.0133108,-0.0499317,-0.00793457,9.91821e-05
0.0964111,-0.225996,0.0134646,-0.000928372,0.0174175,-0.0277392,-0.00793457,9.91821e-05
0.427382,0.48277,0.0588628,-0.043293,0.00357622,-0.0298468,-0.00793457,9.91821e-05
0.350305,0.430487,-0.0537147,-0.055732,0.00307786,0.0138816,-0.00793457,9.91821e-05
0.0685438,-0.0205246,-0.0455404,0.0166449,0.0216031,0.0274733,-0.00793457,9.91821e-05
-0.284707,-0.353914,-0.0338982,0.0216306,-0.0112979,0.0411641,-0.00793457,9.91821e-05
-0.432998,-0.3683,0.0109394,0.0144725,-0.00964768,0.0435123,-0.00793457,9.91821e-05
