rotationRate_x,rotationRate_y,rotationRate_z,acceleration_x,acceleration_y,acceleration_z,relativeAltitude,altitude_pressure
0.120691,-0.423232,0.242574,0.0891688,-0.092451,-0.0897206,0.001,0.0001
0.427221,-0.460976,0.275411,0.0850665,-0.111744,-0.157219,0.001,0.0001
0.462079,-0.274099,0.237467,0.062197,-0.137157,-0.136394,0.001,0.0001
0.22649,-0.24374,0.14642,0.0707029,-0.16375,-0.0368664,0.001,0.0001
-0.13199,-0.381003,-0.0220781,0.0243883,-0.145479,-0.000276208,0.001,0.0001
-0.438196,-0.565105,-0.167302,0.0129853,-0.125243,-0.0651085,0.001,0.0001
-0.461803,-0.407256,-0.202961,0.0131008,-0.060629,-0.241852,0.001,0.0001
-0.264462,-0.0559855,-0.126979,0.0281173,0.00845298,-0.353051,0.001,0.0001
0.0210517,0.203033,-0.0343776,0.0470309,0.0341807,-0.339245,0.001,0.0001
0.128823,0.181936,0.0413588,0.0624039,0.0409569,-0.192423,0.001,0.0001
0.101809,0.135129,0.0720895,0.0334329,0.0437613,-0.0717155,0.001,0.0001
0.155256,0.220923,0.1188,0.00448973,0.0727811,-0.0331765,0.001,0.0001
0.311863,0.334864,0.183227,-0.0287371,0.111548,-0.00797933,0.001,0.0001
0.484618,0.257762,0.267251,-0.0376322,0.134271,0.0668809,0.001,0.0001
0.641603,0.124305,0.298282,-0.0816734,0.139258,0.110282,0.001,0.0001
0.606572,-0.0442287,0.22874,-0.138244,0.134082,0.180215,0.001,0.0001
0.467208,-0.0422672,0.0865506,-0.184637,0.122513,0.191104,0.001,0.0001
0.206891,-0.0122115,-0.114526,-0.218184,0.123053,0.207401,0.001,0.0001
-0.0949289,-0.019917,-0.271967,-0.187062,0.122549,0.213201,0.001,0.0001
-0.270778,-0.0595168,-0.325846,-0.132146,0.134337,0.163606,0.001,0.0001
-0.28846,-0.0754094,-0.307766,-0.0799162,0.14611,0.0872838,0.001,0.0001
-0.222982,-0.00959856,-0.227249,-0.0511911,0.141368,0.028012,0.001,0.0001
-0.170104,0.00534123,-0.188629,-0.0555924,0.114569,0.0273684,0.001,0.0001
-0.1492,0.0539278,-0.194313,-0.0630637,0.0675707,0.0449904,0.001,0.0001
-0.187245,0.0771507,-0.255869,-0.0955412,0.0340433,0.0728081,0.001,0.0001
-0.285528,0.0732479,-0.303325,-0.0818449,-0.000790685,0.10989,0.001,0.0001
-0.36071,0.0512174,-0.325289,-0.0669249,-0.0160723,0.112864,0.001,0.0001
-0.349886,0.0799116,-0.312839,-0.0478002,-0.0263675,0.0708803,0.001,0.0001
-0.313046,0.0978761,-0.300447,-0.0391648,-0.0315218,0.0534577,0.001,0.0001
-0.301287,0.133387,-0.296662,-0.0386045,-0.0500036,0.046873,0.001,0.0001
-0.317785,0.159551,-0.24031,-0.0247621,-0.0475702,0.060218,0.001,0.0001
-0.309207,0.143003,-0.164292,-0.0120587,-0.0540185,0.0546283,0.001,0.0001
-0.234646,0.0997432,-0.0937554,-0.009692,-0.0715743,0.0321016,0.001,0.0001
-0.10931,0.0332274,-0.0323429,-0.0163268,-0.0833306,0.0133986,0.001,0.0001
0.00520658,0.0366277,-0.0109452,-0.0288816,-0.0922449,0.00324547,0.001,0.0001
0.0859613,0.116323,-0.025471,-0.0454924,-0.107664,-0.00289512,0.001,0.0001
0.104137,0.120695,-0.0409701,-0.044336,-0.115416,0.0292667,0.001,0.0001
0.122661,0.127046,-0.0548579,-0.0381921,-0.119426,0.0380444,0.001,0.0001
0.107921,0.0504966,-0.0745309,-0.0398097,-0.116843,0.0494606,0.001,0.0001
0.0393255,0.0372573,-0.116152,-0.0404234,-0.127711,0.0432463,0.001,0.0001
-0.0541332,0.0502353,-0.174168,-0.0651778,-0.119281,0.0198058,0.001,0.0001
-0.0789487,0.102238,-0.247796,-0.0687604,-0.117553,-0.0303217,0.001,0.0001
-0.0866216,0.201348,-0.260054,-0.0459684,-0.0998163,-0.0626456,0.001,0.0001
-0.0827626,0.347704,-0.203706,-0.00029736,-0.0907082,-0.073226,0.001,0.0001
-0.0814696,0.474189,-0.12494,0.044613,-0.0941285,-0.0592957,0.001,0.0001
-0.154834,0.35041,-0.0361569,0.0916229,-0.116218,-0.00160652,0.001,0.0001
-0.299907,0.0592837,0.0453868,0.112227,-0.11756,0.0366991,0.001,0.0001
-0.405303,-0.107223,0.100367,0.0996465,-0.0987764,-0.0283855,0.001,0.0001
-0.428055,-0.118476,0.152536,0.0798776,-0.0744479,-0.137193,0.001,0.0001
-0.335162,-0.0356001,0.26226,0.0907666,-0.029308,-0.226117,0.001,0.0001
-0.184528,0.0601155,0.366192,0.0878347,6.35684e-05,-0.26428,0.001,0.0001
-0.0628804,0.0794884,0.440111,0.071716,0.00510542,-0.237703,0.001,0.0001
-0.0628804,0.0794884,0.440111,0.071716,0.00510542,-0.237703,-0.0449066,0.000801086
0.0493106,0.0616467,0.439068,0.0392046,0.00186898,-0.200856,-0.0449066,0.000801086
0.15872,0.108767,0.442994,0.0300528,0.00569145,-0.173298,-0.0449066,0.000801086
0.268198,0.248823,0.499819,0.038873,0.0361322,-0.136129,-0.0449066,0.000801086
0.347835,0.33321,0.554205,0.0390561,0.0514327,-0.0715242,-0.0449066,0.000801086
0.398062,0.294927,0.605689,0.0405822,0.0618327,0.00407106,-0.0449066,0.000801086
0.429583,0.154086,0.62329,0.0422224,0.0671607,0.0657096,-0.0449066,0.000801086
0.430489,-0.0205731,0.603751,0.0338504,0.0734616,0.0899456,-0.0449066,0.000801086
0.370443,-0.131495,0.554666,0.0305747,0.0775539,0.0829978,-0.0449066,0.000801086
0.267644,-0.138645,0.515408,0.0308031,0.0878591,0.0551984,-0.0449066,0.000801086
0.168502,-0.157249,0.498927,0.0408937,0.10808,0.0301855,-0.0449066,0.000801086
0.0969445,-0.234299,0.452711,0.0332149,0.117075,0.00159788,-0.0449066,0.000801086
0.0397785,-0.240406,0.352494,-0.0069094,0.122636,-0.0466788,-0.0449066,0.000801086
0.0496679,-0.0770318,0.230747,-0.0280274,0.125817,-0.113283,-0.0449066,0.000801086
0.103264,0.194138,0.19898,-0.0158101,0.155303,-0.132664,-0.0449066,0.000801086
0.192569,0.368251,0.240921,0.00388068,0.16876,-0.081217,-0.0449066,0.000801086
0.275542,0.363575,0.299144,0.00933184,0.163561,0.0119674,-0.0449066,0.000801086
0.293746,0.207358,0.325297,0.00119171,0.144316,0.110669,-0.0449066,0.000801086
0.230343,0.0459212,0.279922,-0.0168833,0.10645,0.174703,-0.0449066,0.000801086
0.0869865,-0.0450923,0.17013,-0.0450899,0.073222,0.198679,-0.0449066,0.000801086
-0.0433249,-0.0820221,0.077625,-0.0440953,0.0573957,0.174893,-0.0449066,0.000801086
-0.099288,-0.0712702,0.0454471,-0.0281817,0.0677741,0.115642,-0.0449066,0.000801086
-0.0738855,-0.0596971,0.0261633,-0.0228377,0.0686227,0.0535372,-0.0449066,0.000801086
-0.0524479,-0.102938,-0.0310483,-0.0277814,0.0507203,0.0247735,-0.0449066,0.000801086
-0.0414577,-0.146281,-0.102857,-0.0362717,0.0326289,0.00739694,-0.0449066,0.000801086
-0.0536342,-0.153859,-0.133241,-0.0223605,0.0267429,-0.00195205,-0.0449066,0.000801086
-0.0717968,-0.121938,-0.147576,-0.0248393,0.0240092,-0.00959104,-0.0449066,0.000801086
-0.0623746,-0.0881414,-0.202053,-0.0411004,0.00671345,-0.0219011,-0.0449066,0.000801086
-0.0615058,-0.0560803,-0.264872,-0.0462189,-0.0146889,-0.0196914,-0.0449066,0.000801086
-0.0747556,-0.0665333,-0.305064,-0.0458092,-0.0164403,-0.00033474,-0.0449066,0.000801086
-0.0880442,-0.0876982,-0.283145,-0.0242311,-0.0157994,0.0161974,-0.0449066,0.000801086
-0.0588448,-0.0878356,-0.28781,-0.027127,-0.0310025,0.0127149,-0.0449066,0.000801086
-0.0201768,-0.100101,-0.302132,-0.0299258,-0.0475628,0.0222556,-0.0449066,0.000801086
-0.0158559,-0.152584,-0.309169,-0.0248211,-0.0563901,0.0547098,-0.0449066,0.000801086
-0.0198064,-0.205928,-0.293239,-0.00869365,-0.0678836,0.070156,-0.0449066,0.000801086
0.00115637,-0.297681,-0.241555,0.01669,-0.0700164,0.0692883,-0.0449066,0.000801086
0.00100354,-0.425587,-0.179245,0.0249558,-0.0769415,0.0579597,-0.0449066,0.000801086
0.0401201,-0.519568,-0.151606,0.0182682,-0.0980903,0.0106951,-0.0449066,0.000801086
0.11602,-0.563571,-0.154123,-0.00483656,-0.10784,-0.0634065,-0.0449066,0.000801086
0.187742,-0.524998,-0.134464,0.00652947,-0.101833,-0.108112,-0.0449066,0.000801086
0.206903,-0.469429,-0.150396,0.0329059,-0.118367,-0.128695,-0.0449066,0.000801086
0.0193546,-0.597012,-0.213647,0.0466801,-0.140443,-0.0875066,-0.0449066,0.000801086
-0.239242,-0.674031,-0.309237,0.0114582,-0.100087,-0.107484,-0.0449066,0.000801086
-0.312804,-0.576583,-0.359202,0.0194705,-0.0616402,-0.216004,-0.0449066,0.000801086
-0.187207,-0.26701,-0.33858,0.0120221,6.38664e-05,-0.305146,-0.0449066,0.000801086
0.0932528,-0.00893851,-0.303172,0.000869632,0.037614,-0.298196,-0.0449066,0.000801086
0.294235,-0.0426292,-0.28951,0.018904,0.028687,-0.164839,-0.0449066,0.000801086
0.309787,-0.158044,-0.295685,0.0260574,0.0195237,-0.0108076,-0.0449066,0.000801086
0.231701,-0.157407,-0.339745,0.00943165,0.0238174,0.0582175,-0.0449066,0.000801086
0.178253,-0.0645706,-0.374393,-0.00111276,0.0479861,0.0667532,-0.0449066,0.000801086
0.20806,-0.0204369,-0.355496,0.00442352,0.0822699,0.0578926,-0.0449066,0.000801086
0.20806,-0.0204369,-0.355496,0.00442352,0.0822699,0.0578926,0.0264282,-0.000305176
0.295184,-0.103022,-0.301456,-0.00346289,0.113635,0.0684826,0.0264282,-0.000305176
0.348783,-0.241196,-0.322078,-0.0436335,0.124247,0.0888466,0.0264282,-0.000305176
0.272211,-0.281834,-0.44595,-0.0999305,0.119171,0.106797,0.0264282,-0.000305176
0.0522136,-0.212178,-0.605709,-0.11629,0.114587,0.13259,0.0264282,-0.000305176
-0.225895,-0.0311899,-0.721354,-0.095384,0.120315,0.130718,0.0264282,-0.000305176
-0.434969,0.00344348,-0.725604,-0.0416976,0.147997,0.118432,0.0264282,-0.000305176
-0.437295,-0.105578,-0.665181,0.00827257,0.160295,0.0633842,0.0264282,-0.000305176
-0.304558,-0.133503,-0.577124,0.0396727,0.166193,-0.00580305,0.0264282,-0.000305176
-0.179005,-0.0140236,-0.450774,0.0679025,0.151353,-0.0225442,0.0264282,-0.000305176
-0.15887,0.122082,-0.329387,0.0830986,0.130076,0.032142,0.0264282,-0.000305176
-0.229916,0.162897,-0.224879,0.0947518,0.09587,0.11791,0.0264282,-0.000305176
-0.318341,0.157714,-0.170285,0.0863353,0.0510192,0.177216,0.0264282,-0.000305176
-0.391522,0.118799,-0.121943,0.0886049,0.0191827,0.203224,0.0264282,-0.000305176
-0.461211,-0.0341237,-0.0526063,0.0988254,0.00890446,0.206898,0.0264282,-0.000305176
-0.531742,-0.098432,0.0349553,0.106093,-0.00548235,0.187067,0.0264282,-0.000305176
-0.581641,-0.136091,0.104147,0.0925573,-0.0137466,0.140194,0.0264282,-0.000305176
-0.565618,-0.0649074,0.174931,0.088898,-0.0271416,0.0659559,0.0264282,-0.000305176
-0.5071,0.0936867,0.2622,0.0794594,-0.0320497,0.00129503,0.0264282,-0.000305176
-0.460733,0.21666,0.321697,0.0605177,-0.0557948,-0.0334898,0.0264282,-0.000305176
-0.372777,0.213173,0.371529,0.0458256,-0.085796,-0.056137,0.0264282,-0.000305176
-0.196482,0.071315,0.401584,0.0292632,-0.111581,-0.0831673,0.0264282,-0.000305176
-0.00865911,-0.055325,0.365002,0.00640471,-0.136379,-0.112188,0.0264282,-0.000305176
0.0786354,0.021433,0.319579,-0.0102508,-0.150881,-0.130009,0.0264282,-0.000305176
0.0174843,0.17108,0.247592,-0.0414627,-0.156721,-0.117994,0.0264282,-0.000305176
-0.0691884,0.246822,0.144114,-0.0567409,-0.163653,-0.0972131,0.0264282,-0.000305176
-0.0713846,0.233703,0.0512206,-0.0682017,-0.149253,-0.110893,0.0264282,-0.000305176
0.00720476,0.29947,-0.00468393,-0.0623327,-0.125216,-0.149152,0.0264282,-0.000305176
0.0916701,0.459405,-0.0338548,-0.0480727,-0.111883,-0.154305,0.0264282,-0.000305176
0.105098,0.553327,-0.00916568,-0.0162242,-0.0985802,-0.0993308,0.0264282,-0.000305176
0.110544,0.561585,0.0686989,0.0302578,-0.0880758,-0.0380948,0.0264282,-0.000305176
0.127801,0.573666,0.174673,0.0716234,-0.0829776,-0.00751597,0.0264282,-0.000305176
0.0913339,0.456616,0.319221,0.126437,-0.097714,0.0353151,0.0264282,-0.000305176
-0.00667172,0.21665,0.443087,0.157362,-0.112049,0.0624715,0.0264282,-0.000305176
-0.185446,0.0270192,0.506504,0.144131,-0.121304,0.035497,0.0264282,-0.000305176
-0.373981,-0.0834586,0.533603,0.117443,-0.117906,-0.0411185,0.0264282,-0.000305176
-0.353261,-0.0236999,0.564709,0.0852739,-0.0673767,-0.198044,0.0264282,-0.000305176
-0.0826985,0.186957,0.671665,0.105,-0.0110864,-0.345825,0.0264282,-0.000305176
0.261667,0.434815,0.880888,0.150606,0.0403011,-0.364618,0.0264282,-0.000305176
0.479567,0.55601,1.13918,0.169636,0.0935881,-0.245459,0.0264282,-0.000305176
0.543631,0.525997,1.29552,0.1329,0.0879896,-0.0726444,0.0264282,-0.000305176
0.542048,0.529673,1.35254,0.0779188,0.0745679,0.061366,0.0264282,-0.000305176
0.538055,0.50589,1.36703,0.0393932,0.0766986,0.148117,0.0264282,-0.000305176
0.489588,0.439752,1.39734,0.0558468,0.0810149,0.229264,0.0264282,-0.000305176
0.346668,0.311705,1.44614,0.0870566,0.0906031,0.29228,0.0264282,-0.000305176
0.153083,0.0841535,1.53016,0.121569,0.0937353,0.321086,0.0264282,-0.000305176
-0.0209027,-0.215775,1.60502,0.145035,0.0967314,0.303047,0.0264282,-0.000305176
-0.136286,-0.439604,1.66709,0.157953,0.0991914,0.226372,0.0264282,-0.000305176
-0.20982,-0.539667,1.63845,0.131295,0.101469,0.124589,0.0264282,-0.000305176
-0.247453,-0.505931,1.5707,0.109465,0.0927665,0.0185484,0.0264282,-0.000305176
-0.281263,-0.483886,1.4731,0.0992667,0.0952456,-0.0693855,0.0264282,-0.000305176
-0.291888,-0.388114,1.3974,0.0977914,0.10406,-0.151635,0.0264282,-0.000305176
-0.291888,-0.388114,1.3974,0.0977914,0.10406,-0.151635,0.00791931,-0.000114441
-0.149766,-0.252809,1.34982,0.117183,0.117736,-0.238493,0.00791931,-0.000114441
0.127561,0.0599306,1.31778,0.123342,0.132919,-0.301357,0.00791931,-0.000114441
0.35118,0.310883,1.28215,0.11076,0.143596,-0.271965,0.00791931,-0.000114441
0.404789,0.358944,1.19693,0.100549,0.118753,-0.13995,0.00791931,-0.000114441
0.343329,0.351573,1.05788,0.0782318,0.0932138,-0.0237639,0.00791931,-0.000114441
0.260622,0.414056,0.906042,0.063393,0.0837103,0.0281214,0.00791931,-0.000114441
0.180148,0.516584,0.755649,0.04392,0.0910693,0.0571323,0.00791931,-0.000114441
0.10395,0.59049,0.621779,0.0438966,0.0858719,0.0895926,0.00791931,-0.000114441
0.0242031,0.574982,0.523375,0.0431117,0.0968609,0.127134,0.00791931,-0.000114441
-0.0202825,0.551878,0.449404,0.035357,0.0949486,0.13582,0.00791931,-0.000114441
-0.0135634,0.535332,0.381451,0.0252636,0.0830059,0.119954,0.00791931,-0.000114441
-0.0309439,0.539777,0.331506,0.0142822,0.0720328,0.12186,0.00791931,-0.000114441
-0.104255,0.508004,0.304442,0.0221355,0.0533436,0.144376,0.00791931,-0.000114441
-0.19882,0.460676,0.279515,0.0151987,0.0268584,0.139686,0.00791931,-0.000114441
-0.230048,0.40269,0.269003,0.00374867,0.0104854,0.10505,0.00791931,-0.000114441
-0.24122,0.309428,0.24682,-0.016328,-0.00988516,0.0771835,0.00791931,-0.000114441
-0.295606,0.24361,0.189844,-0.0370507,-0.0451851,0.05902,0.00791931,-0.000114441
-0.369712,0.16881,0.119262,-0.0516656,-0.0732286,0.0351657,0.00791931,-0.000114441
-0.366671,0.0918971,0.073246,-0.051675,-0.092362,-0.01774,0.00791931,-0.000114441
-0.309159,0.0770641,0.0868695,-0.028116,-0.0957475,-0.0709054,0.00791931,-0.000114441
-0.298201,0.0403247,0.103808,0.000957703,-0.116709,-0.0794566,0.00791931,-0.000114441
-0.415225,-0.0650772,0.0863623,0.00211692,-0.132772,-0.0454946,0.00791931,-0.000114441
-0.625547,-0.246386,-0.00425646,-0.0213427,-0.146427,-0.0367475,0.00791931,-0.000114441
-0.78095,-0.313403,-0.117835,-0.0463596,-0.140408,-0.121478,0.00791931,-0.000114441
-0.751796,-0.282406,-0.135514,-0.0276889,-0.103895,-0.254423,0.00791931,-0.000114441
-0.49571,-0.107175,-0.048749,0.0327069,-0.081665,-0.35454,0.00791931,-0.000114441
-0.173211,-0.0304264,0.0753478,0.0533279,-0.0466854,-0.382867,0.00791931,-0.000114441
0.0302524,-0.0545903,0.155833,0.0417349,-0.0466224,-0.318417,0.00791931,-0.000114441
0.146517,-0.0378134,0.120204,-0.0104162,-0.0549764,-0.248802,0.00791931,-0.000114441
0.283672,0.110199,0.060056,-0.0553287,-0.0337956,-0.207255,0.00791931,-0.000114441
0.430345,0.315177,0.0329782,-0.0740035,0.00515191,-0.145727,0.00791931,-0.000114441
0.540378,0.364185,0.014582,-0.0902373,0.04432,-0.0382722,0.00791931,-0.000114441
0.637636,0.329665,-0.0274985,-0.109871,0.065252,0.0543417,0.00791931,-0.000114441
0.673534,0.163368,-0.0964444,-0.118973,0.0856525,0.127046,0.00791931,-0.000114441
0.635087,0.0284927,-0.171936,-0.14239,0.119663,0.178538,0.00791931,-0.000114441
0.476859,-0.127873,-0.287243,-0.154184,0.13024,0.216269,0.00791931,-0.000114441
0.228214,-0.207572,-0.421155,-0.159714,0.147367,0.228602,0.00791931,-0.000114441
-0.0140645,-0.137147,-0.55659,-0.161891,0.158078,0.18138,0.00791931,-0.000114441
-0.170638,0.000132035,-0.610953,-0.120402,0.172681,0.11896,0.00791931,-0.000114441
-0.255942,0.101957,-0.567275,-0.0774679,0.189991,0.0775311,0.00791931,-0.000114441
-0.20489,0.124577,-0.482682,-0.0414892,0.176399,0.0500109,0.00791931,-0.000114441
-0.108104,0.0768205,-0.41142,-0.0231509,0.146718,0.0552252,0.00791931,-0.000114441
-0.0574799,0.0589806,-0.320361,-0.00806167,0.111612,0.0849486,0.00791931,-0.000114441
-0.109274,0.0546447,-0.276616,-0.0194725,0.0686574,0.135879,0.00791931,-0.000114441
-0.18719,0.0890197,-0.245081,-0.0277385,0.0196286,0.167952,0.00791931,-0.000114441
-0.245921,0.0855332,-0.233317,-0.029413,-0.0119739,0.188959,0.00791931,-0.000114441
-0.291668,0.0405563,-0.203816,-0.0174874,-0.040222,0.200814,0.00791931,-0.000114441
-0.314129,-0.0423208,-0.185863,-0.0174336,-0.0589804,0.197092,0.00791931,-0.000114441
-0.320836,-0.0704922,-0.189288,-0.0223548,-0.0802724,0.159983,0.00791931,-0.000114441
-0.335003,-0.054348,-0.175337,-0.0225164,-0.0874778,0.124496,0.00791931,-0.000114441
-0.335003,-0.054348,-0.175337,-0.0225164,-0.0874778,0.124496,0.0052948,-3.8147e-05
-0.322071,0.0135122,-0.15018,-0.012877,-0.0963093,0.0789793,0.0052948,-3.8147e-05
-0.241,0.089559,-0.0858746,0.00697896,-0.0928808,0.0283942,0.0052948,-3.8147e-05
-0.0948252,0.161656,-0.0216327,0.0132918,-0.0957069,-0.0197808,0.0052948,-3.8147e-05
-0.0346706,0.185441,0.00753361,0.0151337,-0.11833,-0.0206831,0.0052948,-3.8147e-05
-0.0454309,0.116155,0.0260893,0.0299668,-0.14443,-0.018872,0.0052948,-3.8147e-05
-0.101613,0.0198286,0.0176822,0.0305955,-0.158045,-0.0503693,0.0052948,-3.8147e-05
-0.143452,-0.0780356,-0.0164978,0.0191137,-0.165318,-0.125487,0.0052948,-3.8147e-05
-0.133538,-0.0691196,-0.0715569,0.0153027,-0.161724,-0.228656,0.0052948,-3.8147e-05
-0.124363,-0.00368351,-0.0997059,0.028259,-0.152751,-0.314351,0.0052948,-3.8147e-05
-0.143376,-0.0258997,-0.086448,0.0463502,-0.134621,-0.357021,0.0052948,-3.8147e-05
-0.132009,-0.0306452,-0.0385078,0.0539276,-0.104729,-0.402569,0.0052948,-3.8147e-05
-0.0139476,0.107381,0.0173876,0.0365603,-0.0775915,-0.467838,0.0052948,-3.8147e-05
0.238387,0.444717,0.084939,0.0213236,-0.0469924,-0.468979,0.0052948,-3.8147e-05
0.424746,0.646304,0.163408,0.0347716,-0.0213309,-0.342853,0.0052948,-3.8147e-05
0.445446,0.621447,0.26207,0.0461307,-0.00416997,-0.128235,0.0052948,-3.8147e-05
0.402811,0.428596,0.349909,0.050035,-0.00472085,0.0390269,0.0052948,-3.8147e-05
0.451418,0.194587,0.463476,0.0614396,0.00635472,0.11846,0.0052948,-3.8147e-05
0.58884,0.00535916,0.578903,0.0662777,0.0330281,0.161405,0.0052948,-3.8147e-05
0.658854,-0.0718369,0.65002,0.0470952,0.0544352,0.216436,0.0052948,-3.8147e-05
0.531929,-0.0822603,0.655039,0.0323803,0.0537522,0.30605,0.0052948,-3.8147e-05
0.251411,-0.150106,0.704783,0.0658205,0.0565163,0.375724,0.0052948,-3.8147e-05
-0.0180624,-0.398524,0.787102,0.106236,0.0871129,0.362701,0.0052948,-3.8147e-05
-0.131311,-0.594113,0.852475,0.132251,0.0995124,0.245727,0.0052948,-3.8147e-05
-0.122631,-0.744686,0.889232,0.129954,0.127568,0.0783203,0.0052948,-3.8147e-05
-0.0903817,-0.758808,0.90107,0.117302,0.152697,-0.0737005,0.0052948,-3.8147e-05
-0.0811595,-0.621114,0.877076,0.11701,0.147819,-0.186853,0.0052948,-3.8147e-05
-0.00232589,-0.290241,0.879728,0.118338,0.157346,-0.278708,0.0052948,-3.8147e-05
0.150955,0.151498,0.912419,0.0962856,0.180282,-0.308732,0.0052948,-3.8147e-05
0.344962,0.417104,0.903953,0.0738558,0.175254,-0.23655,0.0052948,-3.8147e-05
0.45524,0.44014,0.836865,0.0511932,0.147074,-0.0737133,0.0052948,-3.8147e-05
0.453281,0.422109,0.754459,0.0477279,0.123443,0.0756867,0.0052948,-3.8147e-05
0.344018,0.392263,0.625842,0.0201727,0.101638,0.179406,0.0052948,-3.8147e-05
0.149293,0.337157,0.491611,0.0151528,0.0741251,0.257486,0.0052948,-3.8147e-05
-0.0738666,0.224139,0.352523,0.0136661,0.057509,0.305708,0.0052948,-3.8147e-05
-0.247254,0.13566,0.196324,-0.00369047,0.0453276,0.28853,0.0052948,-3.8147e-05
-0.378289,0.0922471,0.0376018,-0.0115007,0.0367226,0.239492,0.0052948,-3.8147e-05
-0.479625,0.130055,-0.0663878,-0.00046656,0.0233073,0.163535,0.0052948,-3.8147e-05
-0.480857,0.194781,-0.100515,0.0182838,0.030658,0.0841874,0.0052948,-3.8147e-05
-0.372179,0.255395,-0.130753,0.0123765,0.0282764,9.76324e-05,0.0052948,-3.8147e-05
-0.254513,0.255317,-0.163514,0.017732,8.8349e-05,-0.0370319,0.0052948,-3.8147e-05
-0.184699,0.27459,-0.146442,0.0260583,-0.00960207,-0.0440651,0.0052948,-3.8147e-05
-0.191539,0.294685,-0.12917,0.0257495,-0.026846,-0.0239571,0.0052948,-3.8147e-05
-0.25436,0.255607,-0.156164,0.00358157,-0.0668215,0.00320333,0.0052948,-3.8147e-05
-0.295961,0.10953,-0.22129,-0.0198749,-0.114171,0.00696445,0.0052948,-3.8147e-05
-0.288083,-0.090236,-0.301253,-0.0443704,-0.147659,-0.0291007,0.0052948,-3.8147e-05
-0.233753,-0.199221,-0.370833,-0.0756655,-0.14955,-0.0960361,0.0052948,-3.8147e-05
-0.0924692,-0.227428,-0.40357,-0.0801624,-0.146747,-0.172509,0.0052948,-3.8147e-05
0.0529723,-0.0294496,-0.405842,-0.077589,-0.144521,-0.221271,0.0052948,-3.8147e-05
0.0571657,0.0811242,-0.386386,-0.0591172,-0.163295,-0.166925,0.0052948,-3.8147e-05
-0.0284258,-0.177469,-0.390251,-0.047487,-0.170541,-0.0568261,0.0052948,-3.8147e-05
-0.104365,-0.473126,-0.449243,-0.0469516,-0.175275,-0.0531357,0.0052948,-3.8147e-05
-0.104365,-0.473126,-0.449243,-0.0469516,-0.175275,-0.0531357,0.0052948,-3.8147e-05
-0.145732,-0.581406,-0.54679,-0.0927002,-0.157326,-0.136505,0.0052948,-3.8147e-05
-0.108361,-0.55479,-0.64424,-0.0955006,-0.115522,-0.225945,0.0052948,-3.8147e-05
-0.0539325,-0.346445,-0.671193,-0.0552598,-0.0712043,-0.289878,0.0052948,-3.8147e-05
0.0479282,-0.154038,-0.572476,0.00756568,-0.02134,-0.293835,0.0052948,-3.8147e-05
0.266751,-0.178825,-0.482955,0.0482304,0.0203294,-0.272789,0.0052948,-3.8147e-05
0.492859,-0.191076,-0.404328,0.0491102,0.0612727,-0.226272,0.0052948,-3.8147e-05
0.657962,-0.100233,-0.369584,0.0193107,0.100292,-0.154685,0.0052948,-3.8147e-05
0.742396,0.0466943,-0.322728,0.00452711,0.12873,-0.0601537,0.0052948,-3.8147e-05
0.740696,0.120324,-0.292332,-0.0170426,0.14834,0.0409158,0.0052948,-3.8147e-05
0.69419,0.145233,-0.290782,-0.0445192,0.154956,0.120981,0.0052948,-3.8147e-05
0.550077,0.0682402,-0.364667,-0.0815001,0.160798,0.204455,0.0052948,-3.8147e-05
0.292723,-0.114767,-0.494409,-0.112273,0.153424,0.253148,0.0052948,-3.8147e-05
0.0101642,-0.200081,-0.597626,-0.105636,0.148321,0.255585,0.0052948,-3.8147e-05
-0.164704,-0.163068,-0.636805,-0.0873179,0.167302,0.18063,0.0052948,-3.8147e-05
-0.20399,-0.0944139,-0.578044,-0.0478866,0.18805,0.110527,0.0052948,-3.8147e-05
-0.144789,-0.0516419,-0.463082,-0.0210865,0.190646,0.0782192,0.0052948,-3.8147e-05
-0.0484963,-0.0446641,-0.394126,-0.0147132,0.157129,0.0814222,0.0052948,-3.8147e-05
-0.00368222,-0.0394744,-0.355909,-0.0167716,0.116772,0.120255,0.0052948,-3.8147e-05
-0.0606913,-0.0505588,-0.298881,-0.000812739,0.0811455,0.181674,0.0052948,-3.8147e-05
-0.170162,-0.035836,-0.255178,0.00957709,0.040054,0.221963,0.0052948,-3.8147e-05
-0.291253,-0.010919,-0.234363,0.00461004,0.0024175,0.238502,0.0052948,-3.8147e-05
-0.387444,-0.0403316,-0.21962,0.00915769,-0.0351723,0.233101,0.0052948,-3.8147e-05
-0.397012,-0.0593939,-0.196324,0.0067587,-0.0636232,0.193184,0.0052948,-3.8147e-05
-0.397778,-0.0671327,-0.200511,-0.00132643,-0.0897775,0.165534,0.0052948,-3.8147e-05
-0.463716,-0.0666429,-0.176924,0.0140024,-0.11148,0.154421,0.0052948,-3.8147e-05
-0.540821,-0.0414243,-0.13513,0.023841,-0.120457,0.120247,0.0052948,-3.8147e-05
-0.500063,0.0164842,-0.0827099,0.0250454,-0.128593,0.0390233,0.0052948,-3.8147e-05
-0.341361,0.0539742,-0.0297095,0.037099,-0.137225,-0.0357845,0.0052948,-3.8147e-05
-0.0957986,0.0946544,0.0463629,0.0581812,-0.137761,-0.0830425,0.0052948,-3.8147e-05
0.0443865,0.163944,0.128598,0.0799835,-0.140234,-0.0861199,0.0052948,-3.8147e-05
0.0157944,0.158193,0.210813,0.0864855,-0.144619,-0.0540801,0.0052948,-3.8147e-05
0.00422813,-0.0342907,0.260451,0.0874235,-0.161896,-0.0713465,0.0052948,-3.8147e-05
0.0850391,-0.25104,0.257308,0.0668393,-0.158609,-0.148406,0.0052948,-3.8147e-05
0.119638,-0.208038,0.223408,0.0507416,-0.148365,-0.240048,0.0052948,-3.8147e-05
0.0868341,0.0298262,0.152244,0.0479167,-0.168493,-0.316949,0.0052948,-3.8147e-05
0.0174269,0.222923,0.101895,0.032415,-0.154137,-0.356709,0.0052948,-3.8147e-05
0.00137473,0.247756,0.0923214,0.0385337,-0.125218,-0.37234,0.0052948,-3.8147e-05
0.119267,0.281196,0.107168,0.0416927,-0.107003,-0.411311,0.0052948,-3.8147e-05
0.315231,0.385539,0.119475,0.0307927,-0.0810781,-0.411837,0.0052948,-3.8147e-05
0.430636,0.43351,0.149026,0.0308249,-0.0530327,-0.313762,0.0052948,-3.8147e-05
0.488061,0.41001,0.232327,0.0496065,-0.0271695,-0.176901,0.0052948,-3.8147e-05
0.603742,0.287453,0.31379,0.0509088,0.00363787,-0.0615984,0.0052948,-3.8147e-05
0.769993,0.108117,0.41398,0.0596554,0.0446842,0.0329953,0.0052948,-3.8147e-05
0.899225,0.0573049,0.533184,0.073781,0.085256,0.131309,0.0052948,-3.8147e-05
0.900704,0.0755518,0.653267,0.0975897,0.131148,0.234081,0.0052948,-3.8147e-05
0.790506,0.144724,0.778232,0.133868,0.143546,0.300117,0.0052948,-3.8147e-05
0.593263,0.207315,0.930002,0.162945,0.165499,0.326328,0.0052948,-3.8147e-05
0.342459,-0.00579224,1.02704,0.175906,0.189044,0.325867,0.0052948,-3.8147e-05
0.105386,-0.33349,1.10259,0.204093,0.188759,0.27739,0.0052948,-3.8147e-05
-0.114651,-0.518786,1.1518,0.201475,0.221649,0.169729,0.0052948,-3.8147e-05
-0.257429,-0.501181,1.17946,0.191004,0.245798,0.0152164,0.0052948,-3.8147e-05
-0.288281,-0.35395,1.19386,0.18921,0.255334,-0.124918,0.0052948,-3.8147e-05
-0.19964,-0.13225,1.26216,0.206498,0.278551,-0.219138,0.0052948,-3.8147e-05
0.0131623,0.155458,1.41211,0.219402,0.303928,-0.258586,0.0052948,-3.8147e-05
0.239854,0.370432,1.51619,0.206905,0.301184,-0.207781,0.0052948,-3.8147e-05
0.262935,0.430683,1.52473,0.172156,0.255605,-0.0650508,0.0052948,-3.8147e-05
0.1497,0.469201,1.43295,0.1278,0.195918,0.0607086,0.0052948,-3.8147e-05
0.00093474,0.504745,1.29914,0.0902087,0.158842,0.125022,0.0052948,-3.8147e-05
-0.13105,0.511301,1.16681,0.0726654,0.127942,0.150664,0.0052948,-3.8147e-05
-0.209241,0.468131,1.06514,0.0642887,0.109937,0.155704,0.0052948,-3.8147e-05
-0.218628,0.385275,0.955717,0.0520143,0.091262,0.130394,0.0052948,-3.8147e-05
-0.215365,0.324107,0.825118,0.0323642,0.067179,0.100665,0.0052948,-3.8147e-05
-0.257238,0.337039,0.72265,0.0381432,0.0460919,0.0781039,0.0052948,-3.8147e-05
-0.331327,0.349495,0.677352,0.0430688,0.0379616,0.0444295,0.0052948,-3.8147e-05
-0.34037,0.425597,0.682178,0.0527909,0.0239205,-0.000691116,0.0052948,-3.8147e-05
-0.237723,0.401432,0.666978,0.0332923,0.00411975,-0.0444365,0.0052948,-3.8147e-05
-0.101248,0.349669,0.656245,0.0094197,-0.0271237,-0.0870191,0.0052948,-3.8147e-05
-0.0474088,0.219916,0.629671,-0.0155255,-0.0477326,-0.0763595,0.0052948,-3.8147e-05
-0.074976,0.203392,0.607649,-0.0368615,-0.0757478,-0.0724099,0.0052948,-3.8147e-05
-0.120612,0.212463,0.548979,-0.0741316,-0.0901386,-0.0790386,0.0052948,-3.8147e-05
-0.123999,0.246842,0.469473,-0.110256,-0.116188,-0.0916986,0.0052948,-3.8147e-05
-0.0697949,0.248455,0.390603,-0.119784,-0.129009,-0.0866418,0.0052948,-3.8147e-05
0.0224733,0.218219,0.334176,-0.0948399,-0.14314,-0.0871717,0.0052948,-3.8147e-05
-0.00818681,0.117839,0.316432,-0.0376301,-0.158966,-0.0289803,0.0052948,-3.8147e-05
-0.225265,-0.0950302,0.317645,-0.00435112,-0.153606,0.0371352,0.0052948,-3.8147e-05
-0.225265,-0.0950302,0.317645,-0.00435112,-0.153606,0.0371352,0.0052948,-3.8147e-05
-0.513158,-0.39882,0.235643,-0.0233102,-0.157863,0.0341743,0.0052948,-3.8147e-05
-0.716271,-0.608546,0.118647,-0.0551876,-0.137672,-0.0732357,0.0052948,-3.8147e-05
-0.632746,-0.548733,0.0435259,-0.063709,-0.0864794,-0.279111,0.0052948,-3.8147e-05
-0.316168,-0.245555,0.0531737,-0.0356794,-0.0266677,-0.414926,0.0052948,-3.8147e-05
0.11263,0.156883,0.19958,-0.00419921,0.0500895,-0.44188,0.0052948,-3.8147e-05
0.44422,0.331448,0.323405,0.00486559,0.103111,-0.315157,0.0052948,-3.8147e-05
0.65069,0.332679,0.329529,-0.0221693,0.09926,-0.143023,0.0052948,-3.8147e-05
0.746972,0.289296,0.259318,-0.063284,0.109854,0.00270349,0.0052948,-3.8147e-05
0.747684,0.163585,0.2031,-0.0733698,0.138694,0.0967759,0.0052948,-3.8147e-05
0.681708,2.67397e-05,0.130233,-0.0797241,0.154316,0.14786,0.0052948,-3.8147e-05
0.494899,-0.113838,0.0208405,-0.101857,0.166845,0.184376,0.0052948,-3.8147e-05
0.131428,-0.200989,-0.135199,-0.130525,0.177617,0.213462,0.0052948,-3.8147e-05
-0.188452,-0.18295,-0.32176,-0.139508,0.155935,0.176162,0.0052948,-3.8147e-05
-0.305299,-0.00545587,-0.498026,-0.137948,0.158628,0.0682655,0.0052948,-3.8147e-05
-0.303147,0.206188,-0.514736,-0.079293,0.182978,0.00732636,0.0052948,-3.8147e-05
-0.259146,0.217692,-0.413776,-0.0105646,0.196699,0.0299526,0.0052948,-3.8147e-05
-0.164435,0.133369,-0.294442,0.025649,0.17177,0.059551,0.0052948,-3.8147e-05
-0.0683781,0.102679,-0.188088,0.039391,0.143673,0.0799317,0.0052948,-3.8147e-05
-0.0717401,0.139559,-0.136393,0.0248288,0.100278,0.114918,0.0052948,-3.8147e-05
-0.18663,0.137859,-0.106969,0.0175849,0.0485388,0.170496,0.0052948,-3.8147e-05
-0.310274,0.107285,-0.0720614,0.0248217,0.00898823,0.188644,0.0052948,-3.8147e-05
-0.399572,0.069792,-0.0499782,0.0175901,-0.0169078,0.177541,0.0052948,-3.8147e-05
-0.453426,0.071293,-0.0315123,0.0170871,-0.0478898,0.14141,0.0052948,-3.8147e-05
-0.529892,0.102827,-0.0282263,0.00866347,-0.0612096,0.120625,0.0052948,-3.8147e-05
-0.578679,0.148974,-0.0366762,-0.00193574,-0.0755423,0.0800005,0.0052948,-3.8147e-05
-0.533877,0.194001,-0.0193133,0.000525362,-0.0731507,0.0130152,0.0052948,-3.8147e-05
-0.435717,0.201547,0.0294361,0.00399267,-0.0663373,-0.0360633,0.0052948,-3.8147e-05
-0.293343,0.202004,0.0940147,0.0164932,-0.0793289,-0.0687316,0.0052948,-3.8147e-05
-0.157123,0.220253,0.143153,0.0143121,-0.0869644,-0.0781251,0.0052948,-3.8147e-05
-0.0663406,0.210493,0.182228,0.00399085,-0.100903,-0.0657213,0.0052948,-3.8147e-05
0.000784699,0.201266,0.186083,-0.011824,-0.121526,-0.0616581,0.0052948,-3.8147e-05
0.080065,0.198781,0.137838,-0.0470679,-0.129243,-0.0791025,0.0052948,-3.8147e-05
0.131635,0.21782,0.0747114,-0.0720459,-0.129113,-0.0917873,0.0052948,-3.8147e-05
0.148716,0.276933,0.0391475,-0.0883778,-0.117425,-0.09856,0.0052948,-3.8147e-05
0.221177,0.377957,-0.0191717,-0.114598,-0.10593,-0.119389,0.0052948,-3.8147e-05
0.330646,0.450621,-0.103114,-0.132253,-0.101404,-0.120616,0.0052948,-3.8147e-05
0.415934,0.432639,-0.139623,-0.117836,-0.0888476,-0.078946,0.0052948,-3.8147e-05
0.502126,0.349826,-0.158899,-0.107195,-0.0791591,-0.0485212,0.0052948,-3.8147e-05
0.503652,0.385861,-0.208844,-0.0983288,-0.079564,-0.0335231,0.0052948,-3.8147e-05
0.329251,0.417665,-0.182992,-0.0618916,-0.0968395,0.00471336,0.0052948,-3.8147e-05
0.135787,0.226897,-0.191559,-0.0524856,-0.110815,0.0178753,0.0052948,-3.8147e-05
0.0622178,-0.073104,-0.321452,-0.104868,-0.109914,-0.0619667,0.0052948,-3.8147e-05
0.0220498,-0.209385,-0.500279,-0.152331,-0.0934443,-0.190835,0.0052948,-3.8147e-05
0.0242862,-0.0990668,-0.5354,-0.143523,-0.0147145,-0.304574,0.0052948,-3.8147e-05
0.228404,0.304143,-0.449707,-0.094244,0.0402222,-0.383901,0.0052948,-3.8147e-05
0.488276,0.608844,-0.284531,-0.0551605,0.110001,-0.324034,0.0052948,-3.8147e-05
0.575486,0.577282,-0.0577976,-0.0305222,0.130133,-0.123077,0.0052948,-3.8147e-05
0.588468,0.274197,0.0531926,-0.0520188,0.0862696,0.0530537,0.0052948,-3.8147e-05
0.560188,-0.101419,-0.0259806,-0.113074,0.0515179,0.131589,0.0052948,-3.8147e-05
0.48787,-0.221849,-0.164882,-0.149192,0.0450056,0.147177,0.0052948,-3.8147e-05
0.418667,-0.159871,-0.257155,-0.116981,0.0815152,0.159158,0.0052948,-3.8147e-05
0.322772,0.0267855,-0.275352,-0.053593,0.138337,0.184235,0.0052948,-3.8147e-05
0.138306,0.10849,-0.205779,0.00292334,0.182226,0.239445,0.0052948,-3.8147e-05
-0.0474748,-0.048095,-0.185074,0.0458569,0.165201,0.293341,0.0052948,-3.8147e-05
-0.0474748,-0.048095,-0.185074,0.0458569,0.165201,0.293341,0.0184937,-0.000244141
-0.181078,-0.344284,-0.198031,0.0825097,0.145768,0.29194,0.0184937,-0.000244141
-0.350972,-0.446722,-0.167568,0.114828,0.158108,0.231305,0.0184937,-0.000244141
-0.568844,-0.389388,-0.168812,0.113641,0.167818,0.147765,0.0184937,-0.000244141
-0.762341,-0.364822,-0.199585,0.114612,0.157635,0.0633536,0.0184937,-0.000244141
-0.874511,-0.466097,-0.166398,0.133736,0.17895,-0.0419668,0.0184937,-0.000244141
-0.749578,-0.536961,-0.0460481,0.146621,0.199176,-0.193579,0.0184937,-0.000244141
-0.353842,-0.342684,0.0898542,0.141507,0.201447,-0.343762,0.0184937,-0.000244141
0.0862424,0.0563172,0.221238,0.116583,0.195409,-0.38511,0.0184937,-0.000244141
0.264264,0.328872,0.334117,0.07268,0.170964,-0.256125,0.0184937,-0.000244141
0.236543,0.303711,0.33991,0.0234355,0.113144,-0.0539739,0.0184937,-0.000244141
0.195483,0.234732,0.24299,-0.0376826,0.0602586,0.0465562,0.0184937,-0.000244141
0.123871,0.173958,0.0734357,-0.0975201,0.0328335,0.10707,0.0184937,-0.000244141
0.0456473,0.112652,-0.0986629,-0.118496,0.00808048,0.13093,0.0184937,-0.000244141
-0.0359215,0.028172,-0.254619,-0.116046,-0.0031409,0.151006,0.0184937,-0.000244141
-0.175353,-0.0688274,-0.332374,-0.0897113,0.00155708,0.172553,0.0184937,-0.000244141
-0.28249,-0.169417,-0.426895,-0.0824445,-0.0142021,0.148944,0.0184937,-0.000244141
-0.316588,-0.222151,-0.552362,-0.101014,-0.0243542,0.0797665,0.0184937,-0.000244141
-0.323936,-0.197195,-0.63772,-0.0879536,-0.021416,0.0140311,0.0184937,-0.000244141
-0.346113,-0.160965,-0.641405,-0.0588058,-0.00620665,-0.00953966,0.0184937,-0.000244141
-0.34822,-0.193358,-0.614897,-0.0432785,-0.0084524,-0.0301706,0.0184937,-0.000244141
-0.290005,-0.257139,-0.599701,-0.0518043,-0.0179484,-0.0586095,0.0184937,-0.000244141
-0.17047,-0.243685,-0.584258,-0.0604223,-0.0318,-0.0947882,0.0184937,-0.000244141
-0.0140026,-0.152763,-0.549858,-0.0586105,-0.0366611,-0.107043,0.0184937,-0.000244141
0.0933688,-0.162372,-0.502324,-0.0497453,-0.0489785,-0.048223,0.0184937,-0.000244141
0.152748,-0.283743,-0.487744,-0.0503533,-0.0760057,0.0200717,0.0184937,-0.000244141
0.203146,-0.405028,-0.497514,-0.0571728,-0.0952552,0.0555075,0.0184937,-0.000244141
0.203956,-0.464378,-0.539487,-0.06614,-0.113249,0.0764055,0.0184937,-0.000244141
0.143427,-0.503945,-0.587066,-0.0608998,-0.125098,0.089007,0.0184937,-0.000244141
0.0772237,-0.579801,-0.65986,-0.0526243,-0.138285,0.0812511,0.0184937,-0.000244141
0.0373703,-0.638236,-0.721717,-0.0341207,-0.135214,0.0519984,0.0184937,-0.000244141
0.0368166,-0.66511,-0.757641,-0.00705388,-0.124517,-0.00479746,0.0184937,-0.000244141
0.0703535,-0.612718,-0.741269,0.0407364,-0.114172,-0.0657226,0.0184937,-0.000244141
0.0126072,-0.540873,-0.699211,0.0921072,-0.118381,-0.0812099,0.0184937,-0.000244141
-0.254611,-0.55893,-0.71235,0.107776,-0.136909,-0.049598,0.0184937,-0.000244141
-0.578231,-0.747639,-0.767377,0.094563,-0.157232,-0.0765735,0.0184937,-0.000244141
-0.610373,-1.05433,-0.809107,0.0962239,-0.128205,-0.232054,0.0184937,-0.000244141
-0.413703,-1.00367,-0.763296,0.118839,-0.044893,-0.395703,0.0184937,-0.000244141
-0.0669983,-0.593515,-0.595211,0.125685,0.0335663,-0.490606,0.0184937,-0.000244141
0.311504,-0.186686,-0.397616,0.135837,0.0914682,-0.4532,0.0184937,-0.000244141
0.563846,0.159877,-0.18462,0.156063,0.111504,-0.288609,0.0184937,-0.000244141
0.694131,0.383303,-0.00678982,0.130243,0.123941,-0.0900794,0.0184937,-0.000244141
0.799616,0.436747,0.108691,0.0979427,0.117964,0.0682345,0.0184937,-0.000244141
0.856025,0.302159,0.19034,0.0655893,0.117922,0.196273,0.0184937,-0.000244141
0.803087,-0.0106985,0.16901,0.018349,0.0981844,0.281023,0.0184937,-0.000244141
0.661444,-0.361106,0.0411514,-0.00842715,0.0685742,0.317101,0.0184937,-0.000244141
0.347674,-0.514997,-0.150006,-0.0564502,0.0805092,0.31375,0.0184937,-0.000244141
-0.0860249,-0.48515,-0.375352,-0.0838403,0.0853745,0.270772,0.0184937,-0.000244141
-0.44282,-0.322132,-0.599625,-0.0786091,0.0773242,0.162496,0.0184937,-0.000244141
-0.618556,-0.15127,-0.694447,-0.0334753,0.107966,0.0316256,0.0184937,-0.000244141
-0.580364,-0.0262538,-0.649726,0.0330327,0.135218,-0.0785756,0.0184937,-0.000244141
-0.32608,0.116998,-0.479122,0.107298,0.1443,-0.168854,0.0184937,-0.000244141
0.0109853,0.366053,-0.262699,0.131778,0.150533,-0.175767,0.0184937,-0.000244141
0.146081,0.450347,-0.0965322,0.114005,0.126309,-0.0498561,0.0184937,-0.000244141
0.0870151,0.433459,-0.0203335,0.0957323,0.0450247,0.109225,0.0184937,-0.000244141
0.0870151,0.433459,-0.0203335,0.0957323,0.0450247,0.109225,0.0184937,-0.000244141
-0.0259611,0.394336,0.0186498,0.0758811,-0.00879064,0.200918,0.0184937,-0.000244141
-0.182385,0.319655,0.0535661,0.0602919,-0.0372387,0.249616,0.0184937,-0.000244141
-0.308397,0.203313,0.0821251,0.0551113,-0.0753465,0.25359,0.0184937,-0.000244141
-0.360531,0.119857,0.0624443,0.0359621,-0.104322,0.209496,0.0184937,-0.000244141
-0.361379,0.110043,0.0775811,0.0329752,-0.109193,0.146315,0.0184937,-0.000244141
-0.350578,0.133414,0.154423,0.0522693,-0.0929201,0.0922691,0.0184937,-0.000244141
-0.30473,0.184067,0.281684,0.0695093,-0.0800738,0.0426807,0.0184937,-0.000244141
-0.18335,0.252624,0.402007,0.0650372,-0.0833469,-0.00964314,0.0184937,-0.000244141
-0.0139476,0.295429,0.474857,0.0412647,-0.0907472,-0.0509166,0.0184937,-0.000244141
0.17187,0.288068,0.522504,0.031352,-0.102226,-0.0705656,0.0184937,-0.000244141
0.306961,0.238115,0.589456,0.0387981,-0.0935112,-0.0645828,0.0184937,-0.000244141
0.306809,0.19153,0.651706,0.0370006,-0.0871204,-0.0452368,0.0184937,-0.000244141
0.247159,0.208569,0.657139,0.00420791,-0.0918318,-0.0631912,0.0184937,-0.000244141
0.160604,0.315273,0.577302,-0.02606,-0.104724,-0.100263,0.0184937,-0.000244141
-0.0311179,0.384751,0.451886,-0.0407314,-0.140643,-0.108858,0.0184937,-0.000244141
-0.257302,0.0986765,0.292296,-0.051703,-0.139398,-0.11109,0.0184937,-0.000244141
-0.336694,-0.179659,0.196303,-0.0306072,-0.0977238,-0.213984,0.0184937,-0.000244141
-0.234708,0.0207218,0.213581,0.00855682,-0.0226328,-0.342716,0.0184937,-0.000244141
0.0334721,0.555899,0.312415,0.0373368,0.0315557,-0.400021,0.0184937,-0.000244141
0.174727,0.927509,0.433519,0.0785961,0.0634382,-0.278059,0.0184937,-0.000244141
0.0686037,0.840314,0.608101,0.12499,0.0668227,-0.0296011,0.0184937,-0.000244141
-0.0195393,0.499443,0.753685,0.152814,0.0478829,0.102196,0.0184937,-0.000244141
0.00800616,0.229283,0.922644,0.164191,0.055557,0.111018,0.0184937,-0.000244141
0.119945,0.132527,1.12613,0.155635,0.083576,0.0728796,0.0184937,-0.000244141
0.281327,0.161779,1.24789,0.123502,0.107324,0.0471194,0.0184937,-0.000244141
0.376488,0.2241,1.3615,0.118393,0.129859,0.0729305,0.0184937,-0.000244141
0.349108,0.211439,1.50904,0.140348,0.148201,0.142713,0.0184937,-0.000244141
0.222492,0.0847906,1.63016,0.148881,0.143219,0.201379,0.0184937,-0.000244141
0.098446,-0.0986543,1.6612,0.15759,0.122507,0.217503,0.0184937,-0.000244141
-0.0747357,-0.146149,1.6528,0.154747,0.116625,0.184255,0.0184937,-0.000244141
-0.305601,-0.127643,1.61756,0.157355,0.115622,0.13486,0.0184937,-0.000244141
-0.527088,-0.135085,1.55305,0.179476,0.0943871,0.0688283,0.0184937,-0.000244141
-0.622899,-0.198896,1.52914,0.199079,0.113204,-0.0236786,0.0184937,-0.000244141
-0.53429,-0.324963,1.56462,0.221324,0.146946,-0.13481,0.0184937,-0.000244141
-0.259935,-0.366095,1.63461,0.234924,0.170975,-0.251948,0.0184937,-0.000244141
0.100726,-0.0910693,1.72009,0.227587,0.184596,-0.328327,0.0184937,-0.000244141
0.32302,0.29369,1.78151,0.20522,0.181247,-0.288777,0.0184937,-0.000244141
0.350769,0.478025,1.76997,0.163252,0.145574,-0.137547,0.0184937,-0.000244141
0.327947,0.478949,1.68978,0.130928,0.102482,-0.00772882,0.0184937,-0.000244141
0.32189,0.416597,1.5691,0.0911342,0.0825181,0.0587584,0.0184937,-0.000244141
0.302023,0.371651,1.4177,0.0590947,0.078808,0.0928321,0.0184937,-0.000244141
0.217502,0.337008,1.25572,0.0522719,0.0556319,0.120877,0.0184937,-0.000244141
0.0969806,0.330346,1.09877,0.0474517,0.0484594,0.127121,0.0184937,-0.000244141
-0.0236478,0.261286,0.944961,0.0485194,0.0424761,0.110022,0.0184937,-0.000244141
-0.100857,0.207527,0.813934,0.0594787,0.0430406,0.0545498,0.0184937,-0.000244141
-0.120039,0.230494,0.688985,0.0570544,0.052716,-0.0287123,0.0184937,-0.000244141
-0.185864,0.226578,0.577685,0.0452194,0.0689685,-0.084771,0.0184937,-0.000244141
-0.295008,0.18155,0.496268,0.039455,0.0751555,-0.137674,0.0184937,-0.000244141
-0.299636,0.179224,0.442274,0.030598,0.078637,-0.220107,0.0184937,-0.000244141
-0.146446,0.351482,0.445807,0.0191331,0.103452,-0.296241,0.0184937,-0.000244141
0.147437,0.693893,0.542701,-0.00159223,0.142894,-0.328419,0.0184937,-0.000244141
0.417887,1.03948,0.699608,-0.0128205,0.175029,-0.235359,0.0184937,-0.000244141
0.39973,1.2535,0.813884,-0.0378466,0.165578,-0.0240237,0.0184937,-0.000244141
0.203421,1.27387,0.906124,-0.0595425,0.118247,0.15325,0.0184937,-0.000244141
0.203421,1.27387,0.906124,-0.0595425,0.118247,0.15325,0.0132141,-0.000144958
-0.0261568,0.882945,0.970785,-0.0566355,0.0874246,0.258321,0.0132141,-0.000144958
-0.220274,0.253926,1.05738,-0.0273837,0.0682184,0.272514,0.0132141,-0.000144958
-0.329995,-0.113632,1.13061,-0.0494087,0.0743522,0.165703,0.0132141,-0.000144958
-0.397763,-0.161996,1.18054,-0.083215,0.0837397,0.0205756,0.0132141,-0.000144958
-0.432908,-0.0787975,1.20347,-0.109355,0.0834199,-0.0938706,0.0132141,-0.000144958
-0.370841,0.0021514,1.26201,-0.0984615,0.0708137,-0.177468,0.0132141,-0.000144958
-0.119914,0.230614,1.35505,-0.0820456,0.0685656,-0.248301,0.0132141,-0.000144958
0.203823,0.420918,1.40538,-0.100107,0.07243,-0.236842,0.0132141,-0.000144958
0.34448,0.419369,1.41205,-0.0977981,0.0354982,-0.0861623,0.0132141,-0.000144958
0.314267,0.367765,1.38228,-0.0917373,0.0108505,0.0669549,0.0132141,-0.000144958
0.245097,0.329294,1.33378,-0.0835625,-0.0003407,0.140617,0.0132141,-0.000144958
0.186056,0.299468,1.27946,-0.0734382,-0.00172207,0.159001,0.0132141,-0.000144958
0.068384,0.189619,1.22142,-0.0501382,-0.00272244,0.176853,0.0132141,-0.000144958
-0.00585719,0.120336,1.19898,-0.0216948,0.00642943,0.140564,0.0132141,-0.000144958
-0.017537,0.119709,1.20165,-0.0105227,0.0467753,0.0632148,0.0132141,-0.000144958
0.0117681,0.169531,1.21807,0.00542794,0.0633935,-0.0185947,0.0132141,-0.000144958
0.0423687,0.198294,1.2548,0.0281567,0.081881,-0.0731388,0.0132141,-0.000144958
0.0213112,0.154484,1.31107,0.0423986,0.11056,-0.104796,0.0132141,-0.000144958
-0.0241206,0.0944496,1.35361,0.0323174,0.131754,-0.146496,0.0132141,-0.000144958
0.0485808,0.139536,1.37324,0.0149369,0.145856,-0.214592,0.0132141,-0.000144958
0.22994,0.35657,1.38389,-0.00359783,0.154869,-0.252919,0.0132141,-0.000144958
0.412787,0.638202,1.41166,-0.0124551,0.163935,-0.208696,0.0132141,-0.000144958
0.432813,0.691056,1.39179,-0.0212351,0.147239,-0.0377934,0.0132141,-0.000144958
0.331707,0.606081,1.33151,-0.0187955,0.107559,0.115573,0.0132141,-0.000144958
0.165286,0.566601,1.19408,-0.0287558,0.0705261,0.198989,0.0132141,-0.000144958
-0.0498582,0.530354,1.04295,-0.0290926,0.0425152,0.236714,0.0132141,-0.000144958
-0.286835,0.360408,0.908195,0.00396101,0.0137326,0.257587,0.0132141,-0.000144958
-0.404136,0.17375,0.826626,0.0430251,0.0140137,0.208769,0.0132141,-0.000144958
-0.435544,0.117628,0.758553,0.0622314,0.0303124,0.122392,0.0132141,-0.000144958
-0.491663,0.216907,0.705571,0.0732585,0.0343998,0.0512387,0.0132141,-0.000144958
-0.546626,0.33949,0.689148,0.0895577,0.0440646,0.00413626,0.0132141,-0.000144958
-0.554195,0.387701,0.715871,0.111145,0.0567888,-0.0253664,0.0132141,-0.000144958
-0.497353,0.347312,0.785101,0.134779,0.0618087,-0.0597191,0.0132141,-0.000144958
-0.346686,0.338878,0.866525,0.148637,0.0588068,-0.111359,0.0132141,-0.000144958
-0.182563,0.386768,0.962697,0.151764,0.0621955,-0.13716,0.0132141,-0.000144958
-0.0924902,0.443656,1.05687,0.143978,0.062948,-0.109724,0.0132141,-0.000144958
-0.0519444,0.467579,1.12367,0.126488,0.0538927,-0.0636047,0.0132141,-0.000144958
-0.0311506,0.471242,1.1594,0.0984491,0.0426572,-0.0157501,0.0132141,-0.000144958
-0.0126981,0.457507,1.15138,0.0650079,0.0194448,0.0152683,0.0132141,-0.000144958
-0.0133401,0.434394,1.08337,0.0358768,-0.00826767,0.0318565,0.0132141,-0.000144958
-0.0534467,0.377955,1.01334,0.0297698,-0.0240621,0.0473095,0.0132141,-0.000144958
-0.101362,0.342464,0.979382,0.0443372,-0.0291228,0.0431851,0.0132141,-0.000144958
-0.105314,0.368071,0.969391,0.0599271,-0.0241615,0.0125325,0.0132141,-0.000144958
-0.0739618,0.388894,0.971041,0.0593047,-0.0126103,-0.0203551,0.0132141,-0.000144958
-0.0623446,0.367398,0.969275,0.0610351,-0.012156,-0.0304595,0.0132141,-0.000144958
-0.0741026,0.301367,0.971777,0.0583102,-0.0103807,-0.0490435,0.0132141,-0.000144958
-0.0881468,0.283789,0.979961,0.0562294,-0.00872596,-0.0884333,0.0132141,-0.000144958
-0.0790547,0.295795,0.997032,0.0373117,0.00353678,-0.135453,0.0132141,-0.000144958
-0.0337542,0.310894,0.977588,0.0154606,0.00300258,-0.171839,0.0132141,-0.000144958
0.0410989,0.375179,0.967927,0.0045893,0.0111059,-0.188052,0.0132141,-0.000144958
0.12737,0.45971,0.982928,-0.00413874,0.035798,-0.175154,0.0132141,-0.000144958
0.204894,0.473747,1.03517,0.00943077,0.0484191,-0.113349,0.0132141,-0.000144958
0.290775,0.395173,1.07247,0.00310295,0.051187,-0.049648,0.0132141,-0.000144958
0.290775,0.395173,1.07247,0.00310295,0.051187,-0.049648,0.00263977,-2.28882e-05
0.336116,0.285502,1.0804,-0.0150888,0.0411861,0.0153208,0.00263977,-2.28882e-05
0.321283,0.213129,1.03767,-0.0355433,0.021916,0.0648454,0.00263977,-2.28882e-05
0.255639,0.190077,0.94886,-0.0578903,0.00107247,0.0895666,0.00263977,-2.28882e-05
0.144483,0.170607,0.844097,-0.0704323,-0.0127643,0.111174,0.00263977,-2.28882e-05
0.0424199,0.133776,0.724208,-0.0739065,-0.0237314,0.103761,0.00263977,-2.28882e-05
-0.0460664,0.0752311,0.590569,-0.0736539,-0.0212519,0.0795773,0.00263977,-2.28882e-05
-0.0795084,0.0731246,0.467234,-0.076198,-0.0208689,0.0247269,0.00263977,-2.28882e-05
-0.0542749,0.113314,0.388749,-0.0511339,0.000378281,-0.0282689,0.00263977,-2.28882e-05
-0.0298713,0.215048,0.374016,-0.0259215,0.0270378,-0.0603286,0.00263977,-2.28882e-05
-0.0259165,0.265546,0.385935,-0.00730236,0.0362634,-0.0502856,0.00263977,-2.28882e-05
-0.0134222,0.217672,0.415276,0.0100231,0.0382424,-0.0299957,0.00263977,-2.28882e-05
0.0297581,0.203575,0.4234,-0.00619738,0.0304547,-0.0322037,0.00263977,-2.28882e-05
0.0563778,0.197999,0.418018,-0.0183454,0.0205258,-0.0145671,0.00263977,-2.28882e-05
0.0407512,0.184678,0.407851,-0.0211882,0.018431,0.019866,0.00263977,-2.28882e-05
0.0260599,0.142078,0.365765,-0.0469755,0.00256971,0.0312052,0.00263977,-2.28882e-05
0.0167681,0.0894223,0.335318,-0.0443619,-0.00727984,0.0351975,0.00263977,-2.28882e-05
-0.000686131,0.0808539,0.312964,-0.0446847,-0.0071663,0.0357392,0.00263977,-2.28882e-05
-0.0371115,0.066432,0.288983,-0.0451488,-0.0124258,0.0443997,0.00263977,-2.28882e-05
-0.0491539,0.0259756,0.2422,-0.0547571,-0.0243013,0.0396577,0.00263977,-2.28882e-05
-0.0175804,0.00221951,0.159986,-0.0691554,-0.0340577,0.0146922,0.00263977,-2.28882e-05
0.00334829,-0.026462,0.0757275,-0.0711554,-0.0364294,-0.0032953,0.00263977,-2.28882e-05
-0.0398852,-0.00774676,0.0432849,-0.0495942,-0.0311838,0.000133872,0.00263977,-2.28882e-05
-0.0899745,-0.0109775,0.0297005,-0.0369541,-0.0221838,0.000410259,0.00263977,-2.28882e-05
-0.0671586,0.000113691,0.0284753,-0.0292795,-0.0229094,-0.0250046,0.00263977,-2.28882e-05
0.0070626,0.022459,0.0181533,-0.0285004,-0.0222283,-0.047394,0.00263977,-2.28882e-05
0.0578464,0.0107532,0.00640336,-0.0239997,-0.0186,-0.0338556,0.00263977,-2.28882e-05
0.0303519,-0.049395,0.00096202,-0.0162766,-0.0233071,0.00836498,0.00263977,-2.28882e-05
0.0137551,-0.0662342,-0.00821024,-0.0128657,-0.0258135,0.0124609,0.00263977,-2.28882e-05
0.0496829,-0.0392415,-0.0216542,-0.0192117,-0.0230615,-0.00781691,0.00263977,-2.28882e-05
0.105117,-0.0256895,-0.0353496,-0.0201066,-0.0227273,-0.00918949,0.00263977,-2.28882e-05
0.103165,-0.0534551,-0.0626131,-0.0177784,-0.0208214,0.018575,0.00263977,-2.28882e-05
0.0206178,-0.096311,-0.0772232,-0.00617749,-0.0212515,0.05374,0.00263977,-2.28882e-05
-0.0394422,-0.0882067,-0.0941212,-0.000778824,-0.0245781,0.0439436,0.00263977,-2.28882e-05
-0.0486518,-0.0742425,-0.116951,-0.00297288,-0.019444,0.0207598,0.00263977,-2.28882e-05
-0.0388579,-0.0897904,-0.123752,0.00217051,-0.0140255,0.00764239,0.00263977,-2.28882e-05
-0.0359938,-0.149193,-0.120372,0.0120845,-0.00295904,0.0116868,0.00263977,-2.28882e-05
-0.029868,-0.152428,-0.107879,0.0256739,-0.00971916,-0.00581622,0.00263977,-2.28882e-05
-0.0128614,-0.0732819,-0.0968431,0.0179268,0.000245422,-0.0344235,0.00263977,-2.28882e-05
0.00176265,-0.0360545,-0.0871811,0.0176204,0.00126237,-0.036167,0.00263977,-2.28882e-05
0.0102007,-0.0325488,-0.0795668,0.0197084,-0.00145134,-0.0240889,0.00263977,-2.28882e-05
0.0413223,-0.0131344,-0.0766224,0.0187747,-0.00318936,-0.03091,0.00263977,-2.28882e-05
0.0479482,-0.0132132,-0.0762447,0.0140538,-0.00384337,-0.0172133,0.00263977,-2.28882e-05
0.029037,-0.0494215,-0.0741028,0.011893,-0.00815022,0.00542724,0.00263977,-2.28882e-05
0.0129307,-0.050579,-0.0873152,0.00358469,-0.0117412,0.0078392,0.00263977,-2.28882e-05
-0.00667891,-0.02119,-0.0895656,0.00195544,-0.00726444,0.00715142,0.00263977,-2.28882e-05
-0.0305905,0.0106457,-0.0954768,0.00538184,-0.00845039,0.0121716,0.00263977,-2.28882e-05
-0.0120678,-0.0156634,-0.0949919,0.00931329,-0.005824,0.00947332,0.00263977,-2.28882e-05
0.0290932,-0.0463084,-0.085004,0.0112204,-0.00111362,0.00982261,0.00263977,-2.28882e-05
0.0258548,-0.0563783,-0.074354,0.0154262,-0.000957429,0.0199951,0.00263977,-2.28882e-05
-0.00805203,-0.0347618,-0.0794071,0.0103114,-0.00175065,0.0227362,0.00263977,-2.28882e-05
-0.0349469,-0.0166757,-0.0919719,0.00881214,-0.0036906,0.0180299,0.00263977,-2.28882e-05
-0.0458226,-0.0305898,-0.0682424,0.0235681,0.00347608,0.0141663,0.00263977,-2.28882e-05
-0.0368456,-0.0479489,-0.0289111,0.0351119,0.013876,0.000661552,0.00263977,-2.28882e-05
-0.0176699,-0.0422199,-0.000213567,0.0336255,0.0136562,-0.0119715,0.00263977,-2.28882e-05
-0.0176699,-0.0422199,-0.000213567,0.0336255,0.0136562,-0.0119715,0.0184937,-0.000228882
-0.0473113,-0.0453602,0.00640843,0.0227738,0.00498056,-0.00684685,0.0184937,-0.000228882
-0.0317141,0.00229208,-0.00556376,0.0133464,-0.000601113,-0.0190932,0.0184937,-0.000228882
-0.0025088,0.0229748,0.0214479,0.0154695,0.00633132,-0.0237956,0.0184937,-0.000228882
0.0224155,0.0048223,0.0515871,0.0225198,0.00833318,-0.00846821,0.0184937,-0.000228882
0.0347733,0.0096444,0.0589673,0.012431,0.0045777,0.00396532,0.0184937,-0.000228882
0.012076,0.0147614,0.0263212,-0.00502305,-0.00782144,0.0169608,0.0184937,-0.000228882
-0.0309398,0.011702,0.00875834,-0.00680667,-0.00980058,0.0312309,0.0184937,-0.000228882
-0.0790798,-0.00571208,0.00667863,0.00613261,-0.00675479,0.0396763,0.0184937,-0.000228882
-0.0991955,-0.0115432,0.0190748,0.0106159,-0.00286826,0.024548,0.0184937,-0.000228882
-0.0614081,-0.0144097,0.0198006,0.00781497,-0.00328469,-0.00193781,0.0184937,-0.000228882
-0.0419165,-0.0171028,0.0241577,0.00569154,0.0013524,-0.0128032,0.0184937,-0.000228882
-0.0340129,0.000674102,0.0433594,0.0164885,0.00127935,-0.0090214,0.0184937,-0.000228882
-0.0462071,0.0180356,0.0595556,0.0174112,0.00312844,-0.00101823,0.0184937,-0.000228882
-0.069994,-0.00930978,0.0778735,0.01731,0.00265452,0.0104626,0.0184937,-0.000228882
-0.0628305,-0.0479375,0.0761779,0.0102506,-0.00799745,0.00937659,0.0184937,-0.000228882
-0.0327897,-0.0401799,0.0508877,-0.00173629,-0.0095073,-0.0134546,0.0184937,-0.000228882
-0.03496,0.0135206,0.0446758,0.000166003,-0.0086374,-0.016395,0.0184937,-0.000228882
-0.0563599,0.039468,0.0710452,0.0116285,-0.00173467,-0.00360382,0.0184937,-0.000228882
-0.0793185,0.00909495,0.0791745,0.0126567,-0.00581336,0.00915653,0.0184937,-0.000228882
-0.0526479,-0.0225397,0.068961,0.00561856,-0.0141676,-0.000596285,0.0184937,-0.000228882
-0.0184262,-0.0188454,0.0552204,0.00194938,-0.0151132,-0.00756639,0.0184937,-0.000228882
-0.0275092,0.00754893,0.0590972,0.00437829,-0.00877964,0.00414419,0.0184937,-0.000228882
-0.0733851,0.00407523,0.0571554,0.00769253,-0.01171,0.026197,0.0184937,-0.000228882
-0.101074,-0.0132287,0.0539247,0.0087898,-0.0158181,0.0246334,0.0184937,-0.000228882
-0.077534,-0.0215699,0.0562996,0.00981831,-0.0140032,0.00722301,0.0184937,-0.000228882
-0.0531525,-0.0147349,0.0762161,0.0180454,-0.00810608,0.0022136,0.0184937,-0.000228882
-0.0597029,-0.0329024,0.096059,0.0231441,-0.00331822,0.0110686,0.0184937,-0.000228882
-0.0521367,-0.0273127,0.103626,0.0180718,-0.011222,0.0030635,0.0184937,-0.000228882
-0.039633,-0.0368786,0.0927581,0.00889568,-0.0155113,-0.00301063,0.0184937,-0.000228882
-0.0352408,-0.0648869,0.0860349,0.0146493,-0.0176488,0.000172973,0.0184937,-0.000228882
-0.041642,-0.0659244,0.0765298,0.0107329,-0.0148159,-0.000285089,0.0184937,-0.000228882
-0.0593482,-0.0493793,0.0691033,0.0100384,-0.0153405,-0.00611711,0.0184937,-0.000228882
-0.0556627,-0.0312298,0.0345355,-0.00950545,-0.0100626,-0.00406629,0.0184937,-0.000228882
-0.107776,-0.0666459,0.0315882,0.0170403,-0.0194121,0.0238109,0.0184937,-0.000228882
-0.0912017,-0.0423517,0.0410798,0.0131053,-0.010693,0.00549692,0.0184937,-0.000228882
-0.0563177,-0.0514726,0.0373395,0.0113322,-0.00122884,-0.0040825,0.0184937,-0.000228882
-0.0633296,-0.0458765,0.0548471,0.0185423,-0.00516808,4.60744e-05,0.0184937,-0.000228882
-0.0616692,-0.00948862,0.060952,0.0144174,0.000405148,-0.000777245,0.0184937,-0.000228882
-0.0554852,0.0123755,0.064289,0.0110727,0.000969574,-0.00452596,0.0184937,-0.000228882
-0.0504517,0.00441506,0.0831045,0.0177716,0.00114299,0.00512111,0.0184937,-0.000228882
-0.0675372,-0.00311301,0.101786,0.0195993,0.00627531,0.0164664,0.0184937,-0.000228882
-0.0847531,-0.00568696,0.108462,0.0153061,-0.00296542,0.0256943,0.0184937,-0.000228882
-0.11207,-0.0207576,0.115313,0.0143183,-0.00715093,0.036678,0.0184937,-0.000228882
-0.125416,-0.0768683,0.141876,0.0260754,-0.00900207,0.0507655,0.0184937,-0.000228882
-0.134138,-0.105753,0.168239,0.0322145,-0.0113097,0.0512577,0.0184937,-0.000228882
-0.134749,-0.157548,0.206207,0.0411252,-0.0140685,0.0671393,0.0184937,-0.000228882
-0.163396,-0.153094,0.228088,0.0386101,-0.0292925,0.0749466,0.0184937,-0.000228882
-0.226387,-0.199131,0.258576,0.0436398,-0.0382664,0.0970535,0.0184937,-0.000228882
-0.273769,-0.318909,0.27139,0.0499607,-0.0532741,0.114328,0.0184937,-0.000228882
-0.291497,-0.461339,0.249688,0.04853,-0.0700046,0.095367,0.0184937,-0.000228882
-0.335316,-0.565075,0.255316,0.0559668,-0.0674709,0.0746265,0.0184937,-0.000228882
-0.375431,-0.644085,0.259751,0.0682184,-0.0713504,0.0317774,0.0184937,-0.000228882
-0.343746,-0.612905,0.261503,0.0671368,-0.0622503,-0.0458615,0.0184937,-0.000228882
-0.240261,-0.456943,0.212132,0.0549255,-0.0763595,-0.127395,0.0184937,-0.000228882
-0.240261,-0.456943,0.212132,0.0549255,-0.0763595,-0.127395,0.0105743,-0.0001297
-0.212278,-0.210527,0.170232,0.0500455,-0.0613111,-0.16777,0.0105743,-0.0001297
-0.219505,0.0472483,0.187947,0.0650509,-0.0618637,-0.156882,0.0105743,-0.0001297
-0.161236,0.163887,0.219892,0.0774352,-0.0448025,-0.136308,0.0105743,-0.0001297
-0.0396193,0.219904,0.279702,0.0851826,-0.0446454,-0.0958369,0.0105743,-0.0001297
0.0438422,0.181236,0.319407,0.0886393,-0.0441474,-0.0299966,0.0105743,-0.0001297
0.0536185,0.178907,0.36376,0.0919552,-0.0530722,0.0395597,0.0105743,-0.0001297
-0.0334637,0.135508,0.382309,0.089499,-0.0587583,0.120502,0.0105743,-0.0001297
-0.11449,0.159065,0.362878,0.0799064,-0.0681668,0.160716,0.0105743,-0.0001297
-0.317362,0.195758,0.451617,0.0713998,-0.0467573,0.171748,0.0105743,-0.0001297
-0.344844,0.0250906,0.544257,0.0709344,-0.0516116,0.171733,0.0105743,-0.0001297
-0.379113,-0.348931,0.459402,0.0848472,-0.0904143,0.181408,0.0105743,-0.0001297
-0.366322,-0.67309,0.401578,0.121505,-0.122336,0.125821,0.0105743,-0.0001297
-0.355519,-0.706222,0.386637,0.0923671,-0.0764229,0.0390397,0.0105743,-0.0001297
-0.397035,-0.577526,0.436739,0.0767807,-0.0431479,-0.0266784,0.0105743,-0.0001297
-0.436971,-0.449819,0.473484,0.0895461,-0.0597482,-0.0757232,0.0105743,-0.0001297
-0.377553,-0.327465,0.451717,0.0888358,-0.0754976,-0.133108,0.0105743,-0.0001297
-0.258933,-0.077939,0.43678,0.0763754,-0.077338,-0.185721,0.0105743,-0.0001297
-0.220441,0.0955137,0.429377,0.06696,-0.0648116,-0.169558,0.0105743,-0.0001297
-0.218578,0.18255,0.476523,0.0894534,-0.0678903,-0.127522,0.0105743,-0.0001297
-0.184898,0.215083,0.533433,0.0989855,-0.0739994,-0.10004,0.0105743,-0.0001297
-0.0977308,0.261404,0.582058,0.100695,-0.078654,-0.0750623,0.0105743,-0.0001297
-0.0158616,0.210289,0.626579,0.0930659,-0.083132,-0.0483436,0.0105743,-0.0001297
0.0416609,0.138867,0.644613,0.0878755,-0.0867004,-0.0310085,0.0105743,-0.0001297
0.0536816,0.0750812,0.668893,0.0811561,-0.0887085,-0.0231519,0.0105743,-0.0001297
0.0277539,0.0797907,0.661673,0.0694884,-0.0815366,-0.021013,0.0105743,-0.0001297
0.00427398,0.0951851,0.668275,0.0615261,-0.0673583,-0.0228566,0.0105743,-0.0001297
0.0196845,0.0893779,0.700151,0.0580155,-0.0486852,-0.0268912,0.0105743,-0.0001297
0.0722721,0.00580325,0.733773,0.0581765,-0.0322132,-0.0250596,0.0105743,-0.0001297
0.187248,0.0148741,0.814653,0.0619903,-0.00153822,-0.0331319,0.0105743,-0.0001297
0.332741,0.0742558,0.851229,0.0511824,0.0124362,-0.0291964,0.0105743,-0.0001297
0.347243,0.216094,0.920247,0.0465192,0.0362407,0.0011512,0.0105743,-0.0001297
0.248138,0.20813,1.00374,0.0580147,0.0453081,0.029594,0.0105743,-0.0001297
0.142644,0.096233,1.06586,0.0580395,0.0543914,0.0139472,0.0105743,-0.0001297
0.0502729,0.000893952,1.08184,0.0207289,0.075463,-0.031173,0.0105743,-0.0001297
0.0232507,-0.00545372,1.05087,-0.0321404,0.090111,-0.0970483,0.0105743,-0.0001297
0.0524097,-0.000784449,0.994056,-0.0492202,0.0919556,-0.144513,0.0105743,-0.0001297
0.126272,0.189049,0.961226,-0.0224149,0.0849704,-0.158861,0.0105743,-0.0001297
0.229528,0.384118,0.98498,0.0051563,0.0890033,-0.127608,0.0105743,-0.0001297
0.309302,0.433966,1.09527,0.0290945,0.100088,-0.0456186,0.0105743,-0.0001297
0.371098,0.355085,1.1929,0.0401812,0.0844726,0.049862,0.0105743,-0.0001297
0.341567,0.218097,1.19788,0.0243007,0.0577153,0.12756,0.0105743,-0.0001297
0.247102,0.207729,1.14639,0.00856306,0.0134706,0.160797,0.0105743,-0.0001297
0.129959,0.187,1.06866,-0.00475012,-0.0121581,0.168042,0.0105743,-0.0001297
0.0626191,0.182598,1.02955,-0.00786766,-0.00688588,0.154967,0.0105743,-0.0001297
-0.0181457,0.161047,1.04347,-0.00449964,0.00790646,0.158581,0.0105743,-0.0001297
-0.1033,0.115056,1.07562,0.00624567,-0.00780009,0.155094,0.0105743,-0.0001297
-0.119839,0.0788422,1.07021,-0.00490649,-0.0334692,0.121529,0.0105743,-0.0001297
-0.0948017,0.0730205,1.02171,-0.0271676,-0.0542607,0.0772939,0.0105743,-0.0001297
-0.0642057,0.0924351,0.975507,-0.0332459,-0.0724682,0.0426819,0.0105743,-0.0001297
-0.0635905,0.129987,0.964158,-0.0177612,-0.0750767,0.0331745,0.0105743,-0.0001297
-0.105168,0.131894,0.977904,-0.00375737,-0.0732034,0.0375798,0.0105743,-0.0001297
-0.115392,0.113966,0.984067,-0.00316922,-0.0724892,0.0180291,0.0105743,-0.0001297
-0.0702736,0.0624379,0.960437,-0.0114115,-0.0818982,-0.0119792,0.0105743,-0.0001297
0.0167265,0.0978965,0.925465,-0.015109,-0.0854873,-0.0556971,0.0105743,-0.0001297
0.0167265,0.0978965,0.925465,-0.015109,-0.0854873,-0.0556971,0.0105743,-0.0001297
0.12424,0.19874,0.91951,-0.0199266,-0.0806872,-0.0905272,0.0105743,-0.0001297
0.253472,0.304498,0.946,-0.0101314,-0.0673621,-0.126008,0.0105743,-0.0001297
0.439764,0.441458,0.984889,-0.00670183,-0.0546891,-0.149118,0.0105743,-0.0001297
0.60429,0.558395,1.02924,-0.0103085,-0.0404004,-0.140888,0.0105743,-0.0001297
0.650276,0.649592,1.06736,-0.00415104,-0.0428116,-0.0895938,0.0105743,-0.0001297
0.517745,0.636461,1.06375,0.00496803,-0.0664547,-0.0295796,0.0105743,-0.0001297
0.204776,0.53901,0.956449,-0.0419411,-0.0614775,-0.00227046,0.0105743,-0.0001297
-0.161166,0.163357,0.756098,-0.111532,-0.0572487,-0.0225443,0.0105743,-0.0001297
-0.230515,-0.03806,0.50127,-0.123058,-0.0746636,-0.166917,0.0105743,-0.0001297
-0.016719,0.16412,0.337755,-0.0895015,-0.0317532,-0.306913,0.0105743,-0.0001297
0.323004,0.675657,0.396053,-0.0383345,0.0518753,-0.33398,0.0105743,-0.0001297
0.577931,0.975118,0.596734,0.00796343,0.115001,-0.208473,0.0105743,-0.0001297
0.736185,0.938519,0.699459,0.0113585,0.107108,-0.0225523,0.0105743,-0.0001297
0.816623,0.814654,0.673345,-0.0131663,0.0667168,0.102505,0.0105743,-0.0001297
0.77855,0.575706,0.570187,-0.0277009,0.048585,0.191462,0.0105743,-0.0001297
0.62277,0.247807,0.445554,-0.0261272,0.0352813,0.242886,0.0105743,-0.0001297
0.373838,-0.068069,0.299304,-0.0208325,0.0264264,0.25279,0.0105743,-0.0001297
0.0405481,-0.292152,0.127319,-0.0482111,0.0572752,0.224639,0.0105743,-0.0001297
-0.325944,-0.478321,-0.0990592,-0.0893016,0.0771096,0.153433,0.0105743,-0.0001297
-0.578823,-0.551462,-0.39597,-0.132965,0.0985036,0.0151964,0.0105743,-0.0001297
-0.526543,-0.438592,-0.599362,-0.126864,0.116762,-0.146464,0.0105743,-0.0001297
-0.0977654,-0.080726,-0.621754,-0.0726088,0.162858,-0.283333,0.0105743,-0.0001297
0.375508,0.267829,-0.471759,-0.0229021,0.229841,-0.252522,0.0105743,-0.0001297
0.531566,0.357512,-0.294283,-0.00874052,0.245721,-0.0579365,0.0105743,-0.0001297
0.454349,0.202708,-0.30173,-0.0606104,0.168843,0.124077,0.0105743,-0.0001297
0.354473,-0.0167727,-0.510756,-0.132825,0.0995141,0.202638,0.0105743,-0.0001297
0.219563,-0.167653,-0.815776,-0.16835,0.0605488,0.23222,0.0105743,-0.0001297
-0.0306912,-0.280818,-1.0741,-0.15126,0.0485567,0.251773,0.0105743,-0.0001297
-0.322393,-0.448172,-1.21168,-0.111563,0.0606089,0.259514,0.0105743,-0.0001297
-0.519108,-0.604652,-1.27683,-0.0625917,0.059632,0.211062,0.0105743,-0.0001297
-0.53038,-0.680805,-1.29272,-0.0222325,0.0549397,0.111454,0.0105743,-0.0001297
-0.403655,-0.722026,-1.24864,0.0240627,0.0412475,0.0144464,0.0105743,-0.0001297
-0.230365,-0.749484,-1.13673,0.0700414,0.0318322,-0.0359563,0.0105743,-0.0001297
-0.101047,-0.796755,-1.02508,0.105294,0.00719276,-0.058836,0.0105743,-0.0001297
-0.141032,-0.688269,-0.965764,0.137059,-0.0424337,-0.0630651,0.0105743,-0.0001297
-0.462571,-0.528246,-0.992599,0.140759,-0.107828,-0.0589477,0.0105743,-0.0001297
-0.954976,-0.703186,-1.14092,0.0869688,-0.113293,-0.0850815,0.0105743,-0.0001297
-1.16577,-0.81019,-1.25885,0.069961,-0.11416,-0.255457,0.0105743,-0.0001297
-0.873,-0.678155,-1.27256,0.0868825,-0.0688553,-0.468309,0.0105743,-0.0001297
-0.203606,-0.172121,-1.11358,0.130446,-0.0175231,-0.607012,0.0105743,-0.0001297
0.312834,0.141952,-0.87026,0.178503,-0.00237591,-0.502404,0.0105743,-0.0001297
0.565911,0.321405,-0.683365,0.167608,-0.00403357,-0.298693,0.0105743,-0.0001297
0.716272,0.497646,-0.597829,0.113765,-0.00950946,-0.147434,0.0105743,-0.0001297
0.82408,0.609145,-0.568923,0.0553575,-0.0108669,-0.0300282,0.0105743,-0.0001297
0.837108,0.51241,-0.512723,0.0298526,0.00793576,0.0890182,0.0105743,-0.0001297
0.843153,0.44204,-0.517993,0.0160626,0.0158834,0.149313,0.0105743,-0.0001297
0.82491,0.399055,-0.529115,-0.0108335,0.0322167,0.17388,0.0105743,-0.0001297
0.782629,0.341762,-0.470776,-0.0248025,0.0684242,0.183061,0.0105743,-0.0001297
0.718671,0.151498,-0.458771,-0.0321184,0.0748343,0.18889,0.0105743,-0.0001297
0.6804,-0.00931268,-0.511311,-0.0503067,0.0722234,0.159841,0.0105743,-0.0001297
0.683445,-0.0554631,-0.537994,-0.0743791,0.107192,0.0966423,0.0105743,-0.0001297
0.55479,-0.00347463,-0.538468,-0.078362,0.115843,0.0790889,0.0105743,-0.0001297
0.312515,0.055295,-0.518389,-0.0715294,0.122554,0.112603,0.0105743,-0.0001297
0.0688578,0.00481599,-0.446488,-0.041555,0.103521,0.13818,0.0105743,-0.0001297
0.0688578,0.00481599,-0.446488,-0.041555,0.103521,0.13818,-0.00265503,4.57764e-05
-0.107298,-0.0773489,-0.416849,-0.0290656,0.0790227,0.139003,-0.00265503,4.57764e-05
-0.191773,-0.138608,-0.434893,-0.0341933,0.0292686,0.103481,-0.00265503,4.57764e-05
-0.258982,-0.205488,-0.41861,-0.0397972,0.0342488,0.10464,-0.00265503,4.57764e-05
-0.336233,-0.333561,-0.287673,-0.0166331,0.044873,0.133571,-0.00265503,4.57764e-05
-0.25287,-0.279573,-0.184321,-0.00834245,0.0259752,0.100945,-0.00265503,4.57764e-05
-0.118985,-0.186206,-0.107152,-0.00495972,-0.00403911,0.0482674,-0.00265503,4.57764e-05
-0.15165,-0.0382487,-0.0260318,0.00366289,-0.0152096,0.073468,-0.00265503,4.57764e-05
-0.317752,-0.0256093,0.0995739,0.0209253,-0.0247252,0.13223,-0.00265503,4.57764e-05
-0.442509,-0.128783,0.201796,0.0376256,-0.0500716,0.152085,-0.00265503,4.57764e-05
-0.384577,-0.200474,0.238206,0.0155541,-0.0828428,0.0957777,-0.00265503,4.57764e-05
-0.240104,-0.2119,0.234964,0.00196506,-0.10117,0.038693,-0.00265503,4.57764e-05
-0.162075,-0.162415,0.279746,0.0132054,-0.102244,0.039726,-0.00265503,4.57764e-05
-0.18555,-0.125564,0.369257,0.0578975,-0.11201,0.0610694,-0.00265503,4.57764e-05
-0.228055,-0.106095,0.468787,0.0791378,-0.125882,0.0648443,-0.00265503,4.57764e-05
-0.204958,-0.0898464,0.523685,0.0775001,-0.135879,0.0342066,-0.00265503,4.57764e-05
-0.0983499,0.0367251,0.524894,0.0576356,-0.148753,-0.028812,-0.00265503,4.57764e-05
-0.03078,0.172367,0.528288,0.0443579,-0.15178,-0.0517573,-0.00265503,4.57764e-05
-0.0332213,0.249128,0.509228,0.0542915,-0.159449,-0.0487221,-0.00265503,4.57764e-05
-0.0480807,0.322877,0.496077,0.0615582,-0.155679,-0.0575863,-0.00265503,4.57764e-05
-0.0770044,0.442243,0.510591,0.072916,-0.140981,-0.0688218,-0.00265503,4.57764e-05
-0.138969,0.637204,0.534811,0.0873917,-0.142925,-0.0743832,-0.00265503,4.57764e-05
-0.22751,0.680252,0.576463,0.126586,-0.149188,-0.0494172,-0.00265503,4.57764e-05
-0.319298,0.536091,0.613531,0.135097,-0.143083,-0.0397933,-0.00265503,4.57764e-05
-0.407119,0.203465,0.635219,0.139364,-0.140847,-0.0431349,-0.00265503,4.57764e-05
-0.492676,-0.119493,0.629333,0.141947,-0.129925,-0.0912125,-0.00265503,4.57764e-05
-0.512907,-0.175407,0.662092,0.136869,-0.0916083,-0.178434,-0.00265503,4.57764e-05
-0.400134,0.00237557,0.738867,0.148028,-0.0598023,-0.257846,-0.00265503,4.57764e-05
-0.185451,0.273392,0.866027,0.154378,-0.0160898,-0.291364,-0.00265503,4.57764e-05
0.0916496,0.439548,1.08749,0.165053,0.0305958,-0.254508,-0.00265503,4.57764e-05
0.409319,0.518339,1.36649,0.186024,0.0540816,-0.181908,-0.00265503,4.57764e-05
0.630711,0.489034,1.59084,0.167163,0.0821988,-0.086851,-0.00265503,4.57764e-05
0.721614,0.453482,1.7529,0.13594,0.0784554,-0.0133318,-0.00265503,4.57764e-05
0.661727,0.350454,1.8117,0.103322,0.0686177,0.036024,-0.00265503,4.57764e-05
0.432592,0.22382,1.76334,0.0731015,0.0499655,0.0710851,-0.00265503,4.57764e-05
0.193643,0.0560424,1.6612,0.0337709,0.0379414,0.0393712,-0.00265503,4.57764e-05
0.133056,-0.141648,1.49621,-0.00708702,0.0502058,-0.0518986,-0.00265503,4.57764e-05
0.23966,-0.095216,1.35943,-0.0105886,0.0808274,-0.157884,-0.00265503,4.57764e-05
0.458944,0.254822,1.31572,0.00546279,0.12231,-0.2245,-0.00265503,4.57764e-05
0.69977,0.662367,1.34978,0.0118378,0.168471,-0.20346,-0.00265503,4.57764e-05
0.802535,0.86024,1.39273,0.012274,0.181572,-0.071193,-0.00265503,4.57764e-05
0.619922,0.784384,1.36406,-0.00446086,0.150156,0.130972,-0.00265503,4.57764e-05
0.377364,0.280173,1.23405,-0.00864542,0.101389,0.263571,-0.00265503,4.57764e-05
0.289095,0.126193,1.02683,-0.0451435,0.0693326,0.228996,-0.00265503,4.57764e-05
0.121786,-0.0901621,0.792819,-0.0519626,0.0625137,0.25067,-0.00265503,4.57764e-05
-0.0622891,-0.298634,0.642388,-0.0290891,0.0571393,0.259963,-0.00265503,4.57764e-05
-0.125772,-0.393682,0.537,-0.0285168,0.0674616,0.201607,-0.00265503,4.57764e-05
-0.0622285,-0.341633,0.453504,-0.0367093,0.065546,0.116531,-0.00265503,4.57764e-05
0.043563,-0.267911,0.390165,-0.0359091,0.0622872,0.0655345,-0.00265503,4.57764e-05
0.137861,-0.131024,0.318269,-0.0431501,0.0549745,0.0464107,-0.00265503,4.57764e-05
0.153886,-0.0715146,0.187224,-0.0613266,0.0437937,0.0641179,-0.00265503,4.57764e-05
0.103593,-0.0600415,-0.00392864,-0.083821,0.0250981,0.0815596,-0.00265503,4.57764e-05
0.0149769,-0.0793541,-0.200289,-0.0820064,-0.00186479,0.0693363,-0.00265503,4.57764e-05
-0.0668325,-0.121031,-0.348944,-0.0635978,0.00259468,0.04199,-0.00265503,4.57764e-05
-0.0668325,-0.121031,-0.348944,-0.0635978,0.00259468,0.04199,-0.00265503,4.57764e-05
-0.122396,-0.112631,-0.430156,-0.0549942,0.0243529,-0.00809669,-0.00265503,4.57764e-05
-0.107091,-0.0265372,-0.437146,-0.037512,0.0228409,-0.0671794,-0.00265503,4.57764e-05
-0.0569443,0.0472236,-0.426998,-0.0328564,0.0142251,-0.101331,-0.00265503,4.57764e-05
-0.137047,-0.0924756,-0.469292,-0.0409991,0.00150532,-0.0749319,-0.00265503,4.57764e-05
-0.451284,-0.304202,-0.677075,-0.10957,-0.0198243,-0.0549338,-0.00265503,4.57764e-05
-0.828801,-0.355881,-0.944746,-0.146366,-0.0627942,-0.106122,-0.00265503,4.57764e-05
-0.975186,-0.197447,-1.11283,-0.114987,-0.0728684,-0.227696,-0.00265503,4.57764e-05
-0.777577,0.00885866,-1.08003,-0.0782991,-0.0181936,-0.350075,-0.00265503,4.57764e-05
-0.402786,0.0953678,-0.895214,-0.0321401,0.026184,-0.365108,-0.00265503,4.57764e-05
-0.0168067,0.194328,-0.705788,-0.0298867,0.0447632,-0.32401,-0.00265503,4.57764e-05
0.230211,0.198314,-0.597838,-0.0456283,0.0317803,-0.204893,-0.00265503,4.57764e-05
0.283569,0.12072,-0.543939,-0.0792399,0.0439188,-0.0647702,-0.00265503,4.57764e-05
0.28667,0.0638839,-0.475736,-0.103877,0.0577884,0.00811023,-0.00265503,4.57764e-05
0.317999,-0.0120986,-0.441493,-0.130914,0.0698723,0.0501907,-0.00265503,4.57764e-05
0.390841,-0.112622,-0.421263,-0.158475,0.0872931,0.075723,-0.00265503,4.57764e-05
0.419326,-0.237834,-0.458674,-0.183118,0.0935975,0.117033,-0.00265503,4.57764e-05
0.378237,-0.307932,-0.593337,-0.212374,0.0881804,0.147756,-0.00265503,4.57764e-05
0.236368,-0.324802,-0.769309,-0.215381,0.0888306,0.184718,-0.00265503,4.57764e-05
0.0522118,-0.255555,-0.892534,-0.180494,0.106902,0.222652,-0.00265503,4.57764e-05
0.0161332,-0.135919,-0.931766,-0.124675,0.131067,0.207802,-0.00265503,4.57764e-05
0.120281,-0.0108669,-0.91178,-0.0799256,0.141921,0.176078,-0.00265503,4.57764e-05
0.133539,-0.0321326,-0.903682,-0.0632212,0.138562,0.229978,-0.00265503,4.57764e-05
-0.00585416,-0.127674,-0.88214,-0.0212227,0.101276,0.296101,-0.00265503,4.57764e-05
-0.247155,-0.238006,-0.813403,0.0126159,0.0803726,0.33302,-0.00265503,4.57764e-05
-0.456094,-0.249259,-0.774585,0.00265065,0.0588203,0.294442,-0.00265503,4.57764e-05
-0.603882,-0.218512,-0.821354,-0.0375287,0.0389477,0.222666,-0.00265503,4.57764e-05
-0.693462,-0.166342,-0.851469,-0.026393,-0.00232059,0.1544,-0.00265503,4.57764e-05
-0.635336,-0.0554746,-0.792702,-0.00103155,-0.0177872,0.0636849,-0.00265503,4.57764e-05
-0.44649,0.058659,-0.659648,0.0237925,-0.0218557,0.00105256,-0.00265503,4.57764e-05
-0.253181,0.203732,-0.508612,0.0336272,-0.0386543,-0.0212888,-0.00265503,4.57764e-05
-0.171408,0.287622,-0.402152,0.0439794,-0.100123,0.013216,-0.00265503,4.57764e-05
-0.221472,0.312135,-0.349308,0.0410502,-0.157778,0.049106,-0.00265503,4.57764e-05
-0.374418,0.23731,-0.345519,0.0248794,-0.1991,0.0434421,-0.00265503,4.57764e-05
-0.506737,0.0725698,-0.366245,0.00668437,-0.22509,-0.0264897,-0.00265503,4.57764e-05
-0.485417,-0.0931251,-0.477085,-0.041603,-0.240134,-0.172595,-0.00265503,4.57764e-05
-0.452896,-0.0894514,-0.643347,-0.0433781,-0.263123,-0.311065,-0.00265503,4.57764e-05
-0.548309,-0.105659,-0.706234,0.0221544,-0.254273,-0.367728,-0.00265503,4.57764e-05
-0.595596,-0.0626645,-0.686088,0.0799118,-0.242568,-0.446598,-0.00265503,4.57764e-05
-0.545406,-0.161755,-0.57383,0.0995454,-0.224562,-0.533489,-0.00265503,4.57764e-05
-0.259667,-0.0105633,-0.454433,0.0840565,-0.192786,-0.638279,-0.00265503,4.57764e-05
0.331183,0.555274,-0.329882,0.0671765,-0.130121,-0.684897,-0.00265503,4.57764e-05
0.80912,0.970433,-0.0903983,0.0827633,-0.0356839,-0.487518,-0.00265503,4.57764e-05
0.962616,1.03246,0.217928,0.113852,-0.0247052,-0.161329,-0.00265503,4.57764e-05
1.01274,0.852741,0.442023,0.0900825,-0.0380436,0.0767367,-0.00265503,4.57764e-05
1.01672,0.509096,0.562208,0.0419623,-0.0374179,0.228706,-0.00265503,4.57764e-05
0.966769,0.171045,0.588226,0.0151642,-0.0391636,0.30808,-0.00265503,4.57764e-05
0.839714,-0.0727901,0.575545,0.0156532,-0.0143522,0.341044,-0.00265503,4.57764e-05
0.607071,-0.321435,0.578511,0.0406383,0.0196434,0.350289,-0.00265503,4.57764e-05
0.349929,-0.616104,0.670841,0.0742398,0.0567322,0.30586,-0.00265503,4.57764e-05
0.181156,-0.921563,0.779633,0.0910735,0.0852498,0.184268,-0.00265503,4.57764e-05
0.0858078,-1.09517,0.688911,0.0170512,0.119391,0.023788,-0.00265503,4.57764e-05
0.0397002,-0.970892,0.498548,-0.0278993,0.123268,-0.131988,-0.00265503,4.57764e-05
0.0614396,-0.588396,0.374808,0.00149947,0.135727,-0.227374,-0.00265503,4.57764e-05
0.177452,-0.122739,0.425283,0.0742048,0.190376,-0.235906,-0.00265503,4.57764e-05
0.177452,-0.122739,0.425283,0.0742048,0.190376,-0.235906,-0.026413,0.000305176
0.360608,0.198664,0.639974,0.114194,0.254488,-0.150204,-0.026413,0.000305176
0.513896,0.327779,0.797376,0.0964369,0.266435,-0.0142097,-0.026413,0.000305176
0.577446,0.300343,0.813356,0.0580692,0.224298,0.132026,-0.026413,0.000305176
0.500422,0.221298,0.733815,0.0347356,0.190681,0.255769,-0.026413,0.000305176
0.279022,0.122631,0.627523,0.0116485,0.169852,0.363454,-0.026413,0.000305176
-0.00273466,0.0249972,0.526211,0.00352009,0.14512,0.411637,-0.026413,0.000305176
-0.239409,-0.0516917,0.443279,0.00226628,0.123343,0.392548,-0.026413,0.000305176
-0.414125,-0.216594,0.430631,0.0384496,0.101147,0.353213,-0.026413,0.000305176
-0.533491,-0.357956,0.414182,0.040792,0.0749459,0.299215,-0.026413,0.000305176
-0.541153,-0.374656,0.352062,0.0132573,0.0449273,0.190146,-0.026413,0.000305176
-0.41528,-0.238999,0.267303,-0.00336871,0.0231947,0.0639732,-0.026413,0.000305176
-0.363669,-0.076139,0.224855,-0.00358888,0.00802198,-0.00176162,-0.026413,0.000305176
-0.414208,-0.0463315,0.211178,0.0202027,-0.0189041,-0.0204476,-0.026413,0.000305176
-0.582836,-0.0937191,0.114085,-0.00792883,-0.0405111,-0.0414729,-0.026413,0.000305176
-0.794683,-0.104642,-0.0011264,-0.0328753,-0.0562307,-0.098275,-0.026413,0.000305176
-0.876055,0.126894,-0.116966,-0.0656129,-0.0790568,-0.219107,-0.026413,0.000305176
-0.807682,0.354347,-0.168042,-0.0498569,-0.0963901,-0.31174,-0.026413,0.000305176
-0.746044,0.313033,-0.125551,-0.0205516,-0.08056,-0.301499,-0.026413,0.000305176
-0.764148,0.0460108,-0.0696137,-0.0192596,-0.0758076,-0.264795,-0.026413,0.000305176
-0.779648,-0.147162,-0.0767801,-0.0587554,-0.0754691,-0.28006,-0.026413,0.000305176
-0.595453,-0.0450285,-0.1099,-0.0956624,-0.0609714,-0.372186,-0.026413,0.000305176
-0.223737,0.237718,-0.0228638,-0.0854061,-0.0296023,-0.410826,-0.026413,0.000305176
0.135612,0.368459,0.168716,-0.0788336,0.0247198,-0.318823,-0.026413,0.000305176
0.412282,0.319283,0.305707,-0.117235,0.0289594,-0.166952,-0.026413,0.000305176
0.553759,0.183106,0.21173,-0.220058,0.00585246,-0.0394031,-0.026413,0.000305176
0.535279,0.00784429,-0.0870316,-0.31189,-0.0272749,0.0666997,-0.026413,0.000305176
0.420686,-0.178667,-0.484967,-0.349047,-0.0313668,0.136725,-0.026413,0.000305176
0.279921,-0.371598,-0.884426,-0.332177,0.000863045,0.161814,-0.026413,0.000305176
0.11207,-0.441714,-1.14298,-0.265107,0.0605026,0.147865,-0.026413,0.000305176
-0.0493887,-0.35735,-1.24635,-0.202077,0.132002,0.101918,-0.026413,0.000305176
-0.170286,-0.151693,-1.2864,-0.16822,0.165316,0.0529547,-0.026413,0.000305176
-0.224799,-0.0295804,-1.29279,-0.135595,0.168379,0.0253971,-0.026413,0.000305176
-0.157804,-0.0131292,-1.27262,-0.114451,0.162902,0.00351948,-0.026413,0.000305176
0.000271605,-0.0214692,-1.22131,-0.0946932,0.151366,-0.00766116,-0.026413,0.000305176
0.197968,0.0554081,-1.13212,-0.0740715,0.134575,0.00764352,-0.026413,0.000305176
0.310172,0.131445,-1.08701,-0.0815563,0.120212,0.0843712,-0.026413,0.000305176
0.275561,0.129744,-1.07423,-0.0778606,0.0770443,0.190562,-0.026413,0.000305176
0.15941,0.0765166,-1.07971,-0.0633404,0.0336958,0.270892,-0.026413,0.000305176
0.0325941,0.00840546,-1.07556,-0.0529741,0.00902221,0.302979,-0.026413,0.000305176
-0.0466175,-0.0529117,-1.05538,-0.0434747,-0.0119458,0.291068,-0.026413,0.000305176
-0.0698305,-0.0771039,-1.01829,-0.0376648,-0.0296267,0.253257,-0.026413,0.000305176
-0.0741555,-0.124752,-0.938259,-0.018179,-0.0442027,0.223161,-0.026413,0.000305176
-0.05721,-0.199099,-0.804095,0.0178449,-0.0466263,0.198142,-0.026413,0.000305176
-0.0576259,-0.247528,-0.702205,0.0197659,-0.0520596,0.164143,-0.026413,0.000305176
-0.0707951,-0.269041,-0.607654,0.0472684,-0.077453,0.119687,-0.026413,0.000305176
-0.0524721,-0.162097,-0.533628,0.0758836,-0.108272,0.0436639,-0.026413,0.000305176
-0.0894393,-0.0302043,-0.460389,0.0686819,-0.122433,-0.00963181,-0.026413,0.000305176
-0.241928,-0.0215214,-0.385963,0.0706291,-0.136011,-0.0345865,-0.026413,0.000305176
-0.436507,-0.094042,-0.346598,0.0699108,-0.150555,-0.0815784,-0.026413,0.000305176
-0.584321,-0.0127302,-0.376389,0.0625137,-0.182167,-0.186424,-0.026413,0.000305176
-0.714659,-0.024225,-0.456532,0.0271975,-0.184075,-0.274848,-0.026413,0.000305176
-0.812469,-0.286678,-0.503394,0.0206099,-0.156645,-0.360662,-0.026413,0.000305176
-0.79294,-0.53922,-0.46428,0.0417887,-0.109269,-0.452322,-0.026413,0.000305176
-0.559191,-0.376409,-0.422621,0.0376472,-0.0469542,-0.554155,-0.026413,0.000305176
-0.559191,-0.376409,-0.422621,0.0376472,-0.0469542,-0.554155,-0.0132141,0.000144958
-0.182939,0.161641,-0.301324,0.053218,-0.00333196,-0.574253,-0.0132141,0.000144958
0.188777,0.651707,-0.0809444,0.112735,0.0365321,-0.441874,-0.0132141,0.000144958
0.421814,0.824926,0.158851,0.158986,0.0732522,-0.196201,-0.0132141,0.000144958
0.550953,0.763229,0.339351,0.165188,0.093303,0.0120305,-0.0132141,0.000144958
0.564987,0.380256,0.555468,0.200548,0.0898067,0.171095,-0.0132141,0.000144958
0.485649,-0.0609626,0.766466,0.219974,0.107131,0.250559,-0.0132141,0.000144958
0.344666,-0.36302,0.967644,0.210632,0.117491,0.248943,-0.0132141,0.000144958
0.126477,-0.56405,1.05987,0.163337,0.119351,0.21783,-0.0132141,0.000144958
-0.0881013,-0.59175,0.971062,0.0688978,0.112745,0.13765,-0.0132141,0.000144958
-0.270298,-0.587074,0.75383,-0.00686631,0.104501,0.0512094,-0.0132141,0.000144958
-0.354205,-0.493249,0.560628,-0.0215534,0.121514,-0.0355517,-0.0132141,0.000144958
-0.259691,-0.237828,0.499247,0.0161518,0.131489,-0.115207,-0.0132141,0.000144958
-0.000276004,0.091526,0.562183,0.0536213,0.14521,-0.13317,-0.0132141,0.000144958
0.284657,0.298465,0.671409,0.058378,0.150759,-0.0561742,-0.0132141,0.000144958
0.389729,0.269082,0.736114,0.0400416,0.131272,0.100872,-0.0132141,0.000144958
0.349584,0.157501,0.698468,-0.00530636,0.0808961,0.221222,-0.0132141,0.000144958
0.211476,0.0431678,0.543484,-0.0530708,0.0390189,0.287644,-0.0132141,0.000144958
-0.00620777,-0.00947256,0.350017,-0.079204,0.00528499,0.32372,-0.0132141,0.000144958
-0.206903,-0.0291161,0.225605,-0.0596719,-0.00926313,0.299072,-0.0132141,0.000144958
-0.277096,-0.0377288,0.20247,-0.0170601,-0.00362276,0.235525,-0.0132141,0.000144958
-0.220983,-0.0453797,0.233078,0.00115402,0.000493854,0.162779,-0.0132141,0.000144958
-0.109567,-0.119041,0.246194,0.00276612,-0.033426,0.107717,-0.0132141,0.000144958
0.0196021,-0.259259,0.205289,0.00204572,-0.0731543,0.0673137,-0.0132141,0.000144958
0.0780927,-0.31953,0.164636,0.0093543,-0.0893295,0.0386178,-0.0132141,0.000144958
-0.0190979,-0.327194,0.141229,0.022244,-0.0889721,0.0239178,-0.0132141,0.000144958
-0.163133,-0.308343,0.150668,0.033349,-0.0974091,-0.0153446,-0.0132141,0.000144958
-0.305293,-0.313665,0.0637859,-0.0108006,-0.101872,-0.0805846,-0.0132141,0.000144958
-0.39361,-0.329922,-0.0592226,-0.0538581,-0.108599,-0.167412,-0.0132141,0.000144958
-0.347264,-0.213665,-0.144843,-0.0558927,-0.0941904,-0.264957,-0.0132141,0.000144958
-0.209748,-0.0718326,-0.160591,-0.0345225,-0.0895502,-0.332933,-0.0132141,0.000144958
-0.162598,-0.0940676,-0.166177,-0.0365747,-0.0528935,-0.304812,-0.0132141,0.000144958
-0.225246,-0.252478,-0.210995,-0.0459468,-0.0526341,-0.259201,-0.0132141,0.000144958
-0.251482,-0.263251,-0.319688,-0.0715044,-0.0466342,-0.271426,-0.0132141,0.000144958
-0.113483,-0.0259108,-0.377351,-0.0741766,-0.00449302,-0.327065,-0.0132141,0.000144958
0.118134,0.1498,-0.314,-0.0420456,0.0583268,-0.302758,-0.0132141,0.000144958
0.318745,0.149946,-0.203879,-0.0429852,0.106351,-0.211048,-0.0132141,0.000144958
0.453513,0.104695,-0.177,-0.0925724,0.120751,-0.110649,-0.0132141,0.000144958
0.52447,0.0916161,-0.273988,-0.158387,0.117292,-0.0269884,-0.0132141,0.000144958
0.463847,0.0725473,-0.448705,-0.211038,0.118666,0.0519797,-0.0132141,0.000144958
0.30341,-0.0472771,-0.638138,-0.22412,0.125772,0.120376,-0.0132141,0.000144958
0.129899,-0.129425,-0.806761,-0.227559,0.140592,0.139351,-0.0132141,0.000144958
-0.00102038,-0.0618611,-0.980501,-0.220796,0.151272,0.120423,-0.0132141,0.000144958
-0.0729316,0.043152,-1.06347,-0.172039,0.156746,0.106819,-0.0132141,0.000144958
-0.0759125,0.0722193,-1.04857,-0.112052,0.161384,0.113904,-0.0132141,0.000144958
-0.0161602,-0.00352775,-1.00176,-0.0687506,0.15655,0.132266,-0.0132141,0.000144958
0.0723358,-0.0638398,-0.951376,-0.0449512,0.138181,0.13966,-0.0132141,0.000144958
0.134551,-0.0360556,-0.911903,-0.0397706,0.116457,0.151093,-0.0132141,0.000144958
0.134406,0.0158871,-0.886428,-0.03311,0.0904845,0.189774,-0.0132141,0.000144958
0.0477843,0.0159889,-0.871165,-0.028313,0.0701191,0.240631,-0.0132141,0.000144958
-0.0979433,-0.0649182,-0.851056,-0.00697733,0.0457374,0.272963,-0.0132141,0.000144958
-0.221268,-0.0969215,-0.834605,0.00968079,0.0178586,0.250371,-0.0132141,0.000144958
-0.30144,-0.0767782,-0.792198,0.0208139,0.00818816,0.201738,-0.0132141,0.000144958
-0.345287,-0.0630562,-0.720202,0.0304156,-0.00255466,0.151476,-0.0132141,0.000144958
-0.34029,-0.0264282,-0.682623,0.00774002,-0.0123701,0.0914093,-0.0132141,0.000144958
-0.34029,-0.0264282,-0.682623,0.00774002,-0.0123701,0.0914093,-0.00263977,4.57764e-05
-0.305562,0.00314917,-0.654438,-0.0036845,-0.0282712,0.0388656,-0.00263977,4.57764e-05
-0.227458,0.0876481,-0.596718,-0.00055094,-0.0388337,-0.00485581,-0.00263977,4.57764e-05
-0.0667816,0.238178,-0.491556,0.0139618,-0.0462643,-0.0435622,-0.00263977,4.57764e-05
0.132132,0.275254,-0.36587,0.0259178,-0.0546868,-0.0370708,-0.00263977,4.57764e-05
0.30193,0.148795,-0.252233,0.0337899,-0.0763716,0.0059306,-0.00263977,4.57764e-05
0.36084,-0.0435973,-0.181348,0.0407424,-0.105985,0.0429239,-0.00263977,4.57764e-05
0.285287,-0.137967,-0.153424,0.0315413,-0.129635,0.0433702,-0.00263977,4.57764e-05
0.146827,-0.163557,-0.158389,0.0165609,-0.136479,0.00874496,-0.00263977,4.57764e-05
0.0227182,-0.0768224,-0.231627,-0.0172193,-0.141143,-0.0626617,-0.00263977,4.57764e-05
-0.0572677,0.190738,-0.380671,-0.0506377,-0.138466,-0.138421,-0.00263977,4.57764e-05
-0.099343,0.459808,-0.512757,-0.0270503,-0.155446,-0.179562,-0.00263977,4.57764e-05
-0.193056,0.336109,-0.457584,0.0918571,-0.132959,-0.126175,-0.00263977,4.57764e-05
-0.414827,0.0132626,-0.350843,0.143644,-0.0851995,-0.106986,-0.00263977,4.57764e-05
-0.622572,-0.182182,-0.25674,0.154075,-0.0896108,-0.203987,-0.00263977,4.57764e-05
-0.514648,-0.0699135,-0.180373,0.137716,-0.0766579,-0.379625,-0.00263977,4.57764e-05
-0.113862,0.318383,-0.010289,0.143219,-0.0110016,-0.498137,-0.00263977,4.57764e-05
0.312493,0.766568,0.302241,0.180865,0.0449755,-0.418683,-0.00263977,4.57764e-05
0.597044,0.873274,0.618912,0.181154,0.0455343,-0.209208,-0.00263977,4.57764e-05
0.739878,0.664232,0.814555,0.155413,0.00891432,0.00466871,-0.00263977,4.57764e-05
0.725413,0.273558,0.934513,0.132458,-0.0265718,0.159425,-0.00263977,4.57764e-05
0.58376,-0.104795,0.988524,0.107265,-0.024297,0.231566,-0.00263977,4.57764e-05
0.376593,-0.342655,0.966941,0.0792259,-0.0137234,0.231438,-0.00263977,4.57764e-05
0.128751,-0.45461,0.921608,0.0455322,-0.00278458,0.185061,-0.00263977,4.57764e-05
-0.0651831,-0.495752,0.866967,0.0172106,0.0188647,0.0905273,-0.00263977,4.57764e-05
-0.189967,-0.586039,0.765551,-0.0226469,0.0540929,-0.0124519,-0.00263977,4.57764e-05
-0.164651,-0.541133,0.65128,-0.0396688,0.0869306,-0.137882,-0.00263977,4.57764e-05
0.0289293,-0.239922,0.615231,-0.0208087,0.119763,-0.239091,-0.00263977,4.57764e-05
0.320918,0.117138,0.711177,0.0208455,0.164597,-0.24341,-0.00263977,4.57764e-05
0.610194,0.331821,0.861563,0.0459337,0.205407,-0.130243,-0.00263977,4.57764e-05
0.760414,0.290323,0.934634,0.0273864,0.197876,0.0423867,-0.00263977,4.57764e-05
0.758044,0.140931,0.88054,-0.0182598,0.172795,0.186865,-0.00263977,4.57764e-05
0.623956,0.0103726,0.760962,-0.0391796,0.139424,0.282686,-0.00263977,4.57764e-05
0.405806,-0.0450069,0.605685,-0.0443087,0.116742,0.335901,-0.00263977,4.57764e-05
0.151585,-0.0754937,0.466802,-0.0411199,0.109978,0.357958,-0.00263977,4.57764e-05
-0.067576,-0.145402,0.363206,-0.0220917,0.111096,0.342199,-0.00263977,4.57764e-05
-0.189368,-0.211165,0.280241,-0.0040544,0.103881,0.27618,-0.00263977,4.57764e-05
-0.208327,-0.266263,0.232477,0.0261975,0.0897684,0.190436,-0.00263977,4.57764e-05
-0.170917,-0.284204,0.217354,0.0537158,0.0870092,0.106881,-0.00263977,4.57764e-05
-0.147838,-0.261042,0.210033,0.0585304,0.088227,0.0438358,-0.00263977,4.57764e-05
-0.20667,-0.209215,0.20444,0.0541156,0.0755612,0.0110488,-0.00263977,4.57764e-05
-0.389254,-0.224474,0.152614,0.0281479,0.0544777,0.000608146,-0.00263977,4.57764e-05
-0.626761,-0.255299,0.0514568,-0.0140657,0.022812,-0.0416995,-0.00263977,4.57764e-05
-0.760081,-0.142414,-0.0525786,-0.0550136,-0.00909714,-0.140962,-0.00263977,4.57764e-05
-0.666691,0.12096,-0.0928088,-0.0631965,-0.0266608,-0.247252,-0.00263977,4.57764e-05
-0.458996,0.206,-0.0652517,-0.0419245,-0.0528544,-0.2793,-0.00263977,4.57764e-05
-0.43731,-0.0022025,-0.0438714,-0.0468004,-0.0690985,-0.193466,-0.00263977,4.57764e-05
-0.633833,-0.248236,-0.147235,-0.0948442,-0.102557,-0.126708,-0.00263977,4.57764e-05
-0.808476,-0.318397,-0.296358,-0.131567,-0.128466,-0.168087,-0.00263977,4.57764e-05
-0.773428,-0.0844382,-0.375391,-0.141892,-0.103451,-0.263493,-0.00263977,4.57764e-05
-0.478441,0.143712,-0.327306,-0.118017,-0.078682,-0.318894,-0.00263977,4.57764e-05
-0.100385,0.130714,-0.22249,-0.0920159,-0.0570279,-0.270531,-0.00263977,4.57764e-05
0.168653,-0.0899274,-0.152184,-0.0978929,-0.0518152,-0.163869,-0.00263977,4.57764e-05
0.310858,-0.331912,-0.162419,-0.134722,-0.0471918,-0.0833142,-0.00263977,4.57764e-05
0.396428,-0.415229,-0.23089,-0.201846,-0.0166333,-0.0617731,-0.00263977,4.57764e-05
0.396428,-0.415229,-0.23089,-0.201846,-0.0166333,-0.0617731,-0.00793457,9.91821e-05
0.442191,-0.384154,-0.391893,-0.282633,0.0321679,-0.0639516,-0.00793457,9.91821e-05
0.475371,-0.318462,-0.6477,-0.330851,0.0648692,-0.0583356,-0.00793457,9.91821e-05
0.433867,-0.250343,-0.918199,-0.345524,0.114478,-0.0231752,-0.00793457,9.91821e-05
0.358532,-0.137393,-1.13266,-0.32396,0.16546,0.0162321,-0.00793457,9.91821e-05
0.269356,-0.0782423,-1.30682,-0.275804,0.196827,0.0639046,-0.00793457,9.91821e-05
0.200468,-0.0805704,-1.43382,-0.228505,0.219704,0.113129,-0.00793457,9.91821e-05
0.168085,-0.101608,-1.52439,-0.187285,0.237677,0.153184,-0.00793457,9.91821e-05
0.157554,-0.110586,-1.57456,-0.130772,0.244561,0.191481,-0.00793457,9.91821e-05
0.123506,-0.111404,-1.56581,-0.0694352,0.235512,0.234947,-0.00793457,9.91821e-05
0.0951567,-0.0906319,-1.5336,-0.0330054,0.215297,0.264774,-0.00793457,9.91821e-05
0.0643894,-0.110611,-1.5203,-0.00716103,0.17594,0.287889,-0.00793457,9.91821e-05
-0.0344558,-0.145334,-1.51933,0.0111694,0.139318,0.312093,-0.00793457,9.91821e-05
-0.208702,-0.188622,-1.50769,0.0310512,0.110355,0.325808,-0.00793457,9.91821e-05
-0.405845,-0.205828,-1.49538,0.0463318,0.0790026,0.307368,-0.00793457,9.91821e-05
-0.599056,-0.189691,-1.4958,0.0508227,0.0434813,0.2584,-0.00793457,9.91821e-05
-0.748317,-0.127833,-1.49713,0.0593508,0.0134465,0.182498,-0.00793457,9.91821e-05
-0.728699,0.00829958,-1.4284,0.084157,-0.0041313,0.0743566,-0.00793457,9.91821e-05
-0.504759,0.193159,-1.23487,0.1304,-0.0001131,-0.0222371,-0.00793457,9.91821e-05
-0.227305,0.314898,-0.961698,0.170044,-0.00478373,-0.050241,-0.00793457,9.91821e-05
-0.11138,0.237205,-0.6936,0.200459,-0.0395493,0.0061568,-0.00793457,9.91821e-05
-0.0662426,0.112339,-0.479158,0.19981,-0.108168,0.0300566,-0.00793457,9.91821e-05
-0.0831617,-0.0401888,-0.358531,0.163941,-0.143234,0.0137162,-0.00793457,9.91821e-05
-0.178454,-0.187381,-0.263806,0.145507,-0.16539,-0.0262503,-0.00793457,9.91821e-05
-0.321124,-0.252203,-0.255936,0.0872083,-0.185929,-0.10162,-0.00793457,9.91821e-05
-0.502649,-0.2127,-0.360755,0.0177079,-0.192434,-0.191355,-0.00793457,9.91821e-05
-0.629303,-0.117655,-0.442365,0.0243461,-0.218635,-0.303782,-0.00793457,9.91821e-05
-0.593019,-0.047405,-0.391051,0.0670501,-0.196965,-0.404699,-0.00793457,9.91821e-05
-0.368501,0.0471367,-0.26986,0.104219,-0.166514,-0.489689,-0.00793457,9.91821e-05
-0.112132,0.131707,-0.151659,0.0994046,-0.158531,-0.511195,-0.00793457,9.91821e-05
0.119706,0.3001,-0.107159,0.0564185,-0.155275,-0.497424,-0.00793457,9.91821e-05
0.313318,0.588654,-0.095083,0.0314471,-0.155385,-0.43513,-0.00793457,9.91821e-05
0.477101,0.795883,-0.0542711,0.0410229,-0.153337,-0.310957,-0.00793457,9.91821e-05
0.587032,0.803261,0.0224364,0.0525823,-0.122256,-0.146614,-0.00793457,9.91821e-05
0.63539,0.674645,0.125236,0.0624232,-0.0982814,-0.00370139,-0.00793457,9.91821e-05
0.697555,0.466572,0.238951,0.073608,-0.0817101,0.0812772,-0.00793457,9.91821e-05
0.807356,0.274453,0.33172,0.0511796,-0.0374082,0.114606,-0.00793457,9.91821e-05
0.924799,0.105641,0.434315,0.046408,0.00525641,0.123315,-0.00793457,9.91821e-05
0.948623,-0.0884123,0.550969,0.054465,0.0436122,0.142214,-0.00793457,9.91821e-05
0.8753,-0.26392,0.68584,0.0634944,0.0762969,0.144464,-0.00793457,9.91821e-05
0.756753,-0.378403,0.765527,0.0251744,0.113131,0.109133,-0.00793457,9.91821e-05
0.644414,-0.434925,0.717568,-0.0377181,0.131108,0.0608264,-0.00793457,9.91821e-05
0.551581,-0.410931,0.571363,-0.0739938,0.120255,0.0136673,-0.00793457,9.91821e-05
0.431147,-0.352692,0.4175,-0.0758832,0.134264,-0.00373966,-0.00793457,9.91821e-05
0.344566,-0.247066,0.351405,-0.0365642,0.169813,-0.00902879,-0.00793457,9.91821e-05
0.358292,-0.109292,0.336316,-0.000324715,0.190414,-0.00762975,-0.00793457,9.91821e-05
0.43566,0.0309065,0.321465,0.011122,0.199368,0.0211395,-0.00793457,9.91821e-05
0.463789,0.0664059,0.337756,0.041399,0.204395,0.104677,-0.00793457,9.91821e-05
0.443573,0.0648475,0.334875,0.0504457,0.190531,0.183606,-0.00793457,9.91821e-05
0.354335,-0.00442874,0.305113,0.0483947,0.181473,0.256091,-0.00793457,9.91821e-05
0.223745,-0.0923976,0.249506,0.0456032,0.165402,0.291611,-0.00793457,9.91821e-05
0.0815091,-0.18082,0.18903,0.0492418,0.154493,0.298568,-0.00793457,9.91821e-05
-0.0674217,-0.241611,0.162467,0.0765658,0.154207,0.294337,-0.00793457,9.91821e-05
-0.196231,-0.252972,0.15397,0.0845247,0.149872,0.259238,-0.00793457,9.91821e-05
-0.196231,-0.252972,0.15397,0.0845247,0.149872,0.259238,-0.00527954,6.10352e-05
-0.268421,-0.233088,0.148339,0.0893375,0.132964,0.200103,-0.00527954,6.10352e-05
-0.299331,-0.18652,0.102395,0.0785344,0.111256,0.13325,-0.00527954,6.10352e-05
-0.315612,-0.142818,0.0293444,0.0656765,0.084023,0.0768067,-0.00527954,6.10352e-05
-0.354395,-0.130855,-0.0200828,0.0771063,0.067466,0.0373857,-0.00527954,6.10352e-05
-0.440221,-0.131686,-0.00169829,0.0960148,0.0572979,0.00440031,-0.00527954,6.10352e-05
-0.555339,-0.141232,0.0150047,0.0706958,0.0447781,-0.049606,-0.00527954,6.10352e-05
-0.671437,-0.152866,-0.049868,0.0141355,0.00738382,-0.11116,-0.00527954,6.10352e-05
-0.736875,-0.0366416,-0.138215,-0.0177958,-0.0395394,-0.186373,-0.00527954,6.10352e-05
-0.778581,0.0358593,-0.221787,-0.0414864,-0.0796165,-0.243481,-0.00527954,6.10352e-05
-0.814943,-0.0170811,-0.282193,-0.0513353,-0.0901141,-0.262901,-0.00527954,6.10352e-05
-0.833512,-0.120246,-0.336807,-0.0707361,-0.115884,-0.292416,-0.00527954,6.10352e-05
-0.760646,-0.0984454,-0.366937,-0.0981804,-0.127422,-0.347261,-0.00527954,6.10352e-05
-0.477867,0.10078,-0.398371,-0.132576,-0.14322,-0.424881,-0.00527954,6.10352e-05
-0.137147,0.13719,-0.415072,-0.144646,-0.14465,-0.40845,-0.00527954,6.10352e-05
0.131973,-0.00955948,-0.388224,-0.131489,-0.128122,-0.32499,-0.00527954,6.10352e-05
0.346781,-0.0652888,-0.382324,-0.168465,-0.0861152,-0.267075,-0.00527954,6.10352e-05
0.552599,0.031262,-0.446439,-0.236031,-0.0544662,-0.22931,-0.00527954,6.10352e-05
0.71822,0.0939851,-0.62251,-0.312352,-0.0202185,-0.160783,-0.00527954,6.10352e-05
0.819795,0.0766818,-0.847542,-0.358782,0.029959,-0.0695602,-0.00527954,6.10352e-05
0.779867,-0.0316551,-1.063,-0.36578,0.0986719,0.0266896,-0.00527954,6.10352e-05
0.628709,-0.166283,-1.23357,-0.359006,0.165019,0.101024,-0.00527954,6.10352e-05
0.439498,-0.242189,-1.37875,-0.348869,0.216756,0.127108,-0.00527954,6.10352e-05
0.260319,-0.225907,-1.54131,-0.331704,0.244187,0.12635,-0.00527954,6.10352e-05
0.0971791,-0.22843,-1.65697,-0.272979,0.258832,0.135008,-0.00527954,6.10352e-05
0.01133,-0.277605,-1.65081,-0.192443,0.260408,0.130134,-0.00527954,6.10352e-05
0.0131208,-0.410783,-1.55752,-0.117047,0.263857,0.132335,-0.00527954,6.10352e-05
0.0560428,-0.524523,-1.41844,-0.0608991,0.256273,0.126996,-0.00527954,6.10352e-05
0.109708,-0.537573,-1.296,-0.0373751,0.219368,0.114644,-0.00527954,6.10352e-05
0.115993,-0.493106,-1.22836,-0.0202882,0.18524,0.121462,-0.00527954,6.10352e-05
0.13395,-0.35596,-1.15339,-0.008138,0.150575,0.12191,-0.00527954,6.10352e-05
0.120887,-0.313186,-1.08417,0.0167484,0.125635,0.146378,-0.00527954,6.10352e-05
0.0745951,-0.346652,-1.03438,0.0315858,0.0915602,0.172255,-0.00527954,6.10352e-05
0.00899349,-0.316927,-1.01048,0.0364106,0.0599434,0.174141,-0.00527954,6.10352e-05
-0.0869292,-0.263392,-0.992911,0.0368885,0.0404119,0.173745,-0.00527954,6.10352e-05
-0.17208,-0.274373,-0.973469,0.0441629,0.0197524,0.153721,-0.00527954,6.10352e-05
-0.199669,-0.296169,-0.954284,0.0505726,0.00316352,0.114021,-0.00527954,6.10352e-05
-0.169415,-0.269503,-0.909574,0.062177,0.00583261,0.0619432,-0.00527954,6.10352e-05
-0.100324,-0.185521,-0.820835,0.0703224,0.00838262,0.0148151,-0.00527954,6.10352e-05
-0.0480791,-0.134314,-0.755882,0.0620225,0.00455934,-0.0177828,-0.00527954,6.10352e-05
-0.0233192,-0.118264,-0.726505,0.0459929,-0.0174044,-0.0445259,-0.00527954,6.10352e-05
-0.0540859,-0.0927595,-0.761755,0.0173728,-0.0387061,-0.068687,-0.00527954,6.10352e-05
-0.106809,-0.0401103,-0.831813,-0.0194367,-0.0489008,-0.0997897,-0.00527954,6.10352e-05
-0.123869,0.0831914,-0.905283,-0.0336076,-0.060758,-0.13884,-0.00527954,6.10352e-05
-0.158943,0.12872,-0.952839,-0.0267548,-0.0672252,-0.141623,-0.00527954,6.10352e-05
-0.243519,0.0067438,-0.993326,-0.0340993,-0.0617938,-0.121775,-0.00527954,6.10352e-05
-0.272728,-0.0209994,-1.09898,-0.0773218,-0.0479659,-0.16069,-0.00527954,6.10352e-05
-0.128883,0.182085,-1.18205,-0.0853518,-0.0216843,-0.218082,-0.00527954,6.10352e-05
0.194525,0.419604,-1.08649,-0.0475604,0.0356809,-0.2168,-0.00527954,6.10352e-05
0.546796,0.497285,-0.870242,-0.0103871,0.0931568,-0.127276,-0.00527954,6.10352e-05
0.749029,0.275815,-0.715243,0.00401586,0.083604,0.00375056,-0.00527954,6.10352e-05
0.720437,-0.0846914,-0.655406,0.000440843,0.0451348,0.102327,-0.00527954,6.10352e-05
0.498464,-0.445403,-0.688961,-0.0323969,0.0237559,0.136356,-0.00527954,6.10352e-05
0.16125,-0.750892,-0.853893,-0.134719,0.0330294,0.10381,-0.00527954,6.10352e-05
-0.238647,-0.922702,-1.19632,-0.275882,0.0720509,0.00640392,-0.00527954,6.10352e-05
-0.238647,-0.922702,-1.19632,-0.275882,0.0720509,0.00640392,-0.00527954,6.10352e-05
-0.465134,-0.935912,-1.46015,-0.281271,0.0945581,-0.130544,-0.00527954,6.10352e-05
-0.36641,-0.689766,-1.54039,-0.211854,0.171558,-0.243161,-0.00527954,6.10352e-05
-0.148381,-0.15359,-1.4789,-0.160383,0.243266,-0.260881,-0.00527954,6.10352e-05
-0.0769649,0.188172,-1.34515,-0.110863,0.256433,-0.130896,-0.00527954,6.10352e-05
-0.0468901,0.0636017,-1.23033,-0.0781267,0.210069,0.0261091,-0.00527954,6.10352e-05
0.088935,-0.350557,-1.16578,-0.0592121,0.161573,0.0990014,-0.00527954,6.10352e-05
0.277979,-0.670857,-1.18521,-0.0838911,0.150585,0.115416,-0.00527954,6.10352e-05
0.380967,-0.836498,-1.22526,-0.110394,0.146967,0.123624,-0.00527954,6.10352e-05
0.313302,-0.942265,-1.31098,-0.108237,0.127117,0.142643,-0.00527954,6.10352e-05
0.161785,-0.996478,-1.4442,-0.112588,0.106847,0.138452,-0.00527954,6.10352e-05
0.046841,-0.995141,-1.64574,-0.126359,0.105146,0.0897024,-0.00527954,6.10352e-05
0.011333,-0.991308,-1.87437,-0.120249,0.113134,0.0130677,-0.00527954,6.10352e-05
0.0448794,-0.932415,-2.07158,-0.0809193,0.140274,-0.0545464,-0.00527954,6.10352e-05
0.0572431,-0.834169,-2.21398,-0.0470623,0.184093,-0.0922462,-0.00527954,6.10352e-05
0.0482053,-0.781581,-2.32454,-0.00276239,0.210157,-0.0993347,-0.00527954,6.10352e-05
-0.0427306,-0.727239,-2.42577,0.0317077,0.226729,-0.0890269,-0.00527954,6.10352e-05
-0.272054,-0.663348,-2.51997,0.0407263,0.244659,-0.0576177,-0.00527954,6.10352e-05
-0.646402,-0.600092,-2.61919,0.0462427,0.239846,-0.0411566,-0.00527954,6.10352e-05
-1.06136,-0.51632,-2.65635,0.0641972,0.230293,-0.0725135,-0.00527954,6.10352e-05
-1.27247,-0.391396,-2.64252,0.0582775,0.222418,-0.182804,-0.00527954,6.10352e-05
-1.147,-0.206789,-2.53849,0.0490987,0.228215,-0.304416,-0.00527954,6.10352e-05
-0.778621,0.042043,-2.34496,0.0551167,0.234417,-0.355147,-0.00527954,6.10352e-05
-0.371287,0.321243,-2.04426,0.0963191,0.211698,-0.292501,-0.00527954,6.10352e-05
-0.0833917,0.478506,-1.74656,0.115222,0.16338,-0.129239,-0.00527954,6.10352e-05
0.0843342,0.431015,-1.48136,0.0930639,0.114121,0.0353807,-0.00527954,6.10352e-05
0.233943,0.217858,-1.22128,0.0872559,0.0536601,0.14124,-0.00527954,6.10352e-05
0.335587,-0.142239,-1.00127,0.0713106,0.0202159,0.203527,-0.00527954,6.10352e-05
0.400655,-0.497673,-0.840679,0.0199355,-0.0205203,0.218656,-0.00527954,6.10352e-05
0.399426,-0.740273,-0.812148,-0.0445677,-0.0537106,0.200983,-0.00527954,6.10352e-05
0.311338,-0.856508,-0.895725,-0.109249,-0.0664626,0.16584,-0.00527954,6.10352e-05
0.148219,-0.885556,-1.11277,-0.178918,-0.0589565,0.117675,-0.00527954,6.10352e-05
-0.0349809,-0.833942,-1.39169,-0.210848,-0.0482911,0.0468516,-0.00527954,6.10352e-05
-0.155727,-0.709019,-1.57127,-0.173934,-0.00976232,-0.0417073,-0.00527954,6.10352e-05
-0.121368,-0.465133,-1.5934,-0.112013,0.0445846,-0.132022,-0.00527954,6.10352e-05
0.0699199,-0.247779,-1.48401,-0.0522233,0.0846378,-0.177454,-0.00527954,6.10352e-05
0.305115,-0.219031,-1.36983,-0.017367,0.084578,-0.154376,-0.00527954,6.10352e-05
0.381991,-0.373495,-1.35689,-0.00839895,0.0581464,-0.0605631,-0.00527954,6.10352e-05
0.173953,-0.517707,-1.41285,-0.00786823,0.0274443,0.0320555,-0.00527954,6.10352e-05
-0.263691,-0.540429,-1.49393,0.000638783,0.00719702,0.0732878,-0.00527954,6.10352e-05
-0.702191,-0.440643,-1.56241,0.00697659,-0.00496972,0.0274799,-0.00527954,6.10352e-05
-0.908108,-0.333776,-1.56537,0.0261293,0.00597204,-0.0893571,-0.00527954,6.10352e-05
-0.743814,-0.159798,-1.43032,0.0803298,0.0147147,-0.211729,-0.00527954,6.10352e-05
-0.289174,0.111509,-1.1827,0.145789,0.0116338,-0.274507,-0.00527954,6.10352e-05
0.117715,0.242124,-0.881191,0.173247,0.0105884,-0.176755,-0.00527954,6.10352e-05
0.300636,0.178236,-0.649582,0.177445,-0.037687,0.0117695,-0.00527954,6.10352e-05
0.300888,-0.0257476,-0.520579,0.163249,-0.087807,0.166383,-0.00527954,6.10352e-05
0.190256,-0.29562,-0.419432,0.158921,-0.127855,0.241907,-0.00527954,6.10352e-05
0.0805321,-0.464815,-0.362695,0.143429,-0.154497,0.222415,-0.00527954,6.10352e-05
0.0440775,-0.472812,-0.36783,0.111286,-0.16467,0.130065,-0.00527954,6.10352e-05
0.0481674,-0.421971,-0.400207,0.0774362,-0.164478,0.034587,-0.00527954,6.10352e-05
0.0613574,-0.408896,-0.446332,0.0575444,-0.15283,-0.0300561,-0.00527954,6.10352e-05
0.0156985,-0.451483,-0.515884,0.036871,-0.132863,-0.0807394,-0.00527954,6.10352e-05
-0.0602339,-0.481563,-0.56597,0.028984,-0.110981,-0.141288,-0.00527954,6.10352e-05
0.0109322,-0.336933,-0.58634,0.0279385,-0.0819603,-0.24418,-0.00527954,6.10352e-05
0.0109322,-0.336933,-0.58634,0.0279385,-0.0819603,-0.24418,0.0132141,-0.000167847
0.202718,-0.00910386,-0.599303,0.0130969,-0.0427169,-0.302812,0.0132141,-0.000167847
0.434658,0.26896,-0.520043,0.0283742,-0.000514865,-0.267208,0.0132141,-0.000167847
0.575134,0.31879,-0.396329,0.0645585,0.0242233,-0.134701,0.0132141,-0.000167847
0.591963,0.287209,-0.302263,0.0707488,0.0199211,0.00376248,0.0132141,-0.000167847
0.525897,0.230915,-0.266915,0.0453539,0.0194909,0.0937074,0.0132141,-0.000167847
0.449808,0.200513,-0.24665,0.0326114,0.00614634,0.135655,0.0132141,-0.000167847
0.373751,0.166546,-0.217857,0.0330192,0.0105554,0.156738,0.0132141,-0.000167847
0.293254,0.107516,-0.176968,0.031806,0.0113415,0.161711,0.0132141,-0.000167847
0.200712,0.0208758,-0.152116,0.0379874,0.00150952,0.167874,0.0132141,-0.000167847
0.0942319,0.00168628,-0.150176,0.0355462,-0.00450099,0.154071,0.0132141,-0.000167847
0.0290426,0.0228317,-0.147898,0.0322899,-0.004069,0.117392,0.0132141,-0.000167847
0.111228,-0.0842095,-0.131359,0.0622342,0.00756961,0.102784,0.0132141,-0.000167847
0.058729,-0.333923,-0.0475958,0.104122,0.0206952,0.101071,0.0132141,-0.000167847
-0.142914,-0.182515,0.0143549,0.0921391,0.0175705,0.0702329,0.0132141,-0.000167847
-0.294767,0.0624846,0.00777892,0.0752743,0.00370201,0.0152849,0.0132141,-0.000167847
-0.356294,0.218006,0.0532379,0.0944085,0.0055224,-0.0209997,0.0132141,-0.000167847
-0.217357,0.136523,0.134002,0.11454,0.0138086,-0.0417636,0.0132141,-0.000167847
-0.00568175,0.000226561,0.248297,0.116308,0.0277511,-0.0687908,0.0132141,-0.000167847
0.101028,-0.0030562,0.330325,0.100968,0.0191006,-0.0703289,0.0132141,-0.000167847
