attitude_roll,attitude_pitch,attitude_yaw,rotationRate_x,rotationRate_y,rotationRate_z,acceleration_x,acceleration_y,acceleration_z
0.0545329,0.457115,-0.0126886,-0.198083,-0.112661,0.138744,0.0568337,0.0210886,0.0653223
0.0464892,0.455916,-0.00926132,0.0575025,-0.487064,0.145928,0.0400461,0.0205919,0.00589687
0.0356102,0.458698,-0.00641218,0.178843,-0.411828,0.119369,0.000395715,0.0191815,-0.0507159
0.0291333,0.461837,-0.00448373,0.108658,-0.149584,0.0579439,-0.0350496,0.0254276,-0.0454063
0.0280833,0.462936,-0.0039801,0.0111939,0.0340621,-0.000105288,-0.0299307,0.0349711,-0.0241561
0.0290717,0.462909,-0.00387548,0.00322433,0.0580063,0.0262171,0.019478,0.0566757,-0.0162044
0.0295324,0.463656,-0.0024747,0.0724984,0.0452553,0.101734,0.0463891,0.0703898,-0.00960714
0.028652,0.465857,0.000185363,0.133025,-0.0261187,0.131814,0.0545897,0.0620122,0.0299873
0.0257367,0.468531,0.00297108,0.120322,-0.129477,0.118287,0.0560952,0.041923,0.0677796
0.0215191,0.470045,0.00534165,0.0226221,-0.192071,0.0893699,0.0528682,0.0281369,0.0884699
0.016445,0.468915,0.00638815,-0.130964,-0.280838,-0.000431926,0.0413763,0.00779647,0.0932477
0.010382,0.464912,0.00549828,-0.262197,-0.367953,-0.086525,0.0273259,-0.00232461,0.0691976
0.00368625,0.45843,0.00272162,-0.385036,-0.423874,-0.160058,-0.0026495,0.00746709,0.0394272
-0.00354259,0.449465,-0.00152392,-0.513542,-0.489005,-0.230041,-0.00721577,-0.00281757,0.00931644
-0.0105631,0.438378,-0.00794195,-0.586443,-0.4721,-0.340921,-0.00889902,-0.013181,-0.0303392
-0.0158022,0.426909,-0.0170212,-0.555932,-0.415416,-0.429821,-0.00786398,-0.00345173,-0.058751
-0.0187911,0.417422,-0.0256514,-0.394678,-0.260092,-0.34059,0.0401258,-0.03034,-0.0645399
-0.0211103,0.411976,-0.0329127,-0.156933,-0.291411,-0.328343,0.0152837,-0.01854,-0.0435285
-0.0237248,0.411539,-0.0405794,0.093782,-0.256666,-0.390399,-0.00569342,-0.034687,-0.0265923
-0.0227526,0.416084,-0.0516039,0.348466,-0.108611,-0.65435,-0.0418584,-0.0120475,0.0202006
-0.0194903,0.426021,-0.0666103,0.609423,-0.232852,-0.688241,0.01645,-0.06409,0.0426313
-0.0205124,0.44078,-0.0814651,0.881945,-0.509494,-0.76623,0.0321918,-0.0469575,0.0627525
-0.0271233,0.464083,-0.099492,1.40519,-1.01554,-0.833805,-0.0224861,-0.0288684,0.00806993
-0.0516452,0.490713,-0.113113,1.06567,-1.92738,-0.473729,0.113966,-0.110914,0.0469588
-0.0775337,0.508846,-0.119946,0.782047,-0.830381,-0.252749,0.0267951,-0.0519994,0.054491
-0.0833057,0.520993,-0.122937,0.319238,-0.0662424,-0.142768,0.0009721,-0.0874635,0.048125
-0.0769674,0.519018,-0.124681,-0.50276,0.692715,0.0338302,0.0361867,-0.011281,0.140135
-0.0577451,0.505117,-0.124247,-0.803056,1.08021,0.0405008,0.0138998,-0.0906145,0.077761
-0.0398686,0.489422,-0.126336,-0.731936,0.604237,-0.175013,0.00588198,-0.128929,0.00105923
-0.0275861,0.478767,-0.132913,-0.319212,0.333969,-0.328059,-0.0112701,-0.113656,-0.0639917
-0.0194168,0.477623,-0.140341,0.179534,0.167423,-0.347295,0.0354923,-0.128557,-0.0977646
-0.0130918,0.484335,-0.149906,0.411906,-0.00249813,-0.536307,0.026875,-0.12868,-0.0826964
-0.00961711,0.491881,-0.163821,0.302552,-0.314273,-0.675649,0.0239035,-0.101202,-0.0281557
-0.0122437,0.495815,-0.179388,0.0569854,-0.697092,-0.695364,0.0271875,-0.0494285,-0.0338299
-0.0214992,0.49386,-0.194967,-0.277921,-0.901708,-0.663938,0.0298541,-0.0206313,-0.0906868
-0.0303891,0.486323,-0.20934,-0.472686,-0.607381,-0.589112,-0.00641789,-0.0187516,-0.215365
-0.0321471,0.477397,-0.222431,-0.430786,-0.187488,-0.548712,-0.0701002,0.00794619,-0.294882
-0.0267347,0.46989,-0.234704,-0.289297,0.0958596,-0.529993,-0.0792388,0.0148608,-0.268628
-0.0188002,0.467279,-0.246337,-0.0126733,0.155061,-0.519602,-0.0675668,0.0301857,-0.205215
-0.0113312,0.469345,-0.258036,0.194887,0.0426583,-0.52103,-0.0850481,0.0642258,-0.096657
-0.00734853,0.474963,-0.269194,0.352866,-0.154265,-0.481966,-0.103038,0.0960536,-0.0212063
-0.00729865,0.483316,-0.279865,0.473644,-0.325068,-0.478193,-0.143486,0.122615,0.0241836
-0.00982337,0.493726,-0.290912,0.550097,-0.451432,-0.514827,-0.174577,0.138873,0.057502
-0.0139982,0.504534,-0.303465,0.49574,-0.555871,-0.613592,-0.185317,0.148057,0.0986724
-0.017904,0.512322,-0.318841,0.230009,-0.585277,-0.746459,-0.186208,0.154555,0.141748
-0.0205433,0.513139,-0.337259,-0.189725,-0.571144,-0.860534,-0.175967,0.155465,0.166388
-0.0206585,0.50585,-0.358362,-0.556187,-0.477175,-0.970518,-0.175045,0.152566,0.121525
-0.0182703,0.493328,-0.381382,-0.700063,-0.399262,-1.01012,-0.139366,0.145054,0.0324243
-0.0153673,0.480183,-0.403694,-0.621937,-0.351381,-0.92677,-0.0738955,0.133221,-0.0299727
-0.0125422,0.470004,-0.422932,-0.414586,-0.231716,-0.766537,-0.0275296,0.124094,-0.0522141
-0.00878195,0.463885,-0.438226,-0.225086,-0.0856932,-0.602058,-0.00969383,0.106301,-0.0158852
-0.00415416,0.460513,-0.450314,-0.142595,-0.0152089,-0.494714,-0.00897393,0.0585431,0.062321
-0.00415416,0.460513,-0.450314,-0.142595,-0.0152089,-0.494714,-0.00897393,0.0585431,0.062321
-0.000454847,0.457563,-0.460879,-0.159107,-0.100988,-0.467903,-0.0199777,0.00177616,0.123236
0.00111155,0.454194,-0.471683,-0.176312,-0.225311,-0.510919,-0.0324472,-0.0456525,0.127252
0.000598631,0.450603,-0.483568,-0.174965,-0.330698,-0.559919,-0.0319873,-0.0787131,0.104317
-0.000627019,0.447051,-0.496399,-0.192721,-0.351028,-0.60316,-0.0315238,-0.0853618,0.0893633
-0.00190526,0.442174,-0.509862,-0.312238,-0.352025,-0.60835,-0.0225242,-0.0838285,0.0896587
-0.00317827,0.434521,-0.522865,-0.459481,-0.333933,-0.571805,-0.0168315,-0.0779563,0.0779048
-0.00495648,0.424299,-0.534992,-0.554555,-0.350671,-0.533136,-0.0205685,-0.0720671,0.0455631
-0.00700189,0.413544,-0.546628,-0.513659,-0.313086,-0.532976,-0.0281954,-0.0712415,-0.0166627
-0.00766452,0.404659,-0.558312,-0.373086,-0.198079,-0.524936,-0.0161327,-0.0752433,-0.0624338
-0.00569596,0.399053,-0.568722,-0.197756,-0.0178673,-0.418566,0.00453122,-0.049183,-0.0544309
-0.00234753,0.396742,-0.576002,-0.0437559,0.0461838,-0.255218,0.0232223,-0.0300883,-0.0119429
-0.000303174,0.396956,-0.580284,0.0611995,-0.011831,-0.156309,0.0170643,-0.0429831,0.0274972
0.000416077,0.398954,-0.583227,0.133063,-0.02282,-0.124193,-0.00326733,-0.0644415,0.0481157
0.000871135,0.40178,-0.585994,0.143977,-0.0324838,-0.134353,-0.0161063,-0.0696208,0.0666521
0.00221301,0.404468,-0.58922,0.123552,0.0544883,-0.166756,-0.0344289,-0.0748542,0.0600873
0.00558293,0.406659,-0.593076,0.0986006,0.125638,-0.176005,-0.024491,-0.0799359,0.0506047
0.00964974,0.408464,-0.596533,0.0846874,0.131883,-0.13052,-0.00156205,-0.073427,0.0422775
0.0129954,0.410393,-0.59857,0.10216,0.136184,-0.0557279,0.0107128,-0.0726949,0.023271
0.0162787,0.413172,-0.598784,0.148082,0.211458,0.0371644,0.0227504,-0.0744965,0.00107282
0.0204307,0.416643,-0.596991,0.161036,0.269383,0.127607,0.025874,-0.0793009,-0.00358474
0.0241138,0.419372,-0.593521,0.0732723,0.228303,0.185316,0.00580992,-0.0911653,0.00470847
0.0254382,0.419749,-0.589505,-0.0548783,0.0548449,0.170659,-0.033222,-0.114228,-0.0173256
0.0235011,0.417868,-0.586617,-0.137652,-0.109917,0.0772713,-0.0812151,-0.12092,-0.0760423
0.0213101,0.415025,-0.585839,-0.140731,-0.0291787,-0.00104179,-0.0898883,-0.111177,-0.142184
0.0235599,0.412851,-0.585721,-0.0687995,0.258453,0.0232604,-0.0639978,-0.0836716,-0.175323
0.0303959,0.412566,-0.584415,0.0335733,0.439573,0.0956437,-0.0376527,-0.0602202,-0.153771
0.0376376,0.41406,-0.581837,0.0989725,0.358904,0.139886,-0.0135597,-0.0705095,-0.0935612
0.0415705,0.416234,-0.579065,0.09849,0.147026,0.122629,-0.00622613,-0.0733724,-0.0509092
0.0424024,0.418059,-0.576631,0.0744162,0.0678961,0.108951,-0.0101136,-0.055042,-0.0573863
0.0430082,0.419491,-0.574496,0.0666108,0.0859757,0.0919421,-0.0131289,-0.0221786,-0.0720603
0.044784,0.421147,-0.572538,0.0968103,0.174361,0.0988812,-0.00248133,0.0133303,-0.0745463
0.0476414,0.423464,-0.570147,0.121373,0.19356,0.127137,0.012003,0.0545209,-0.0533677
0.0504753,0.426488,-0.567193,0.171572,0.227548,0.165432,0.0254309,0.0835669,-0.0345523
0.0538203,0.430742,-0.562948,0.232683,0.279449,0.247994,0.0459528,0.111621,-0.00423461
0.0570653,0.436206,-0.556988,0.286805,0.284686,0.326335,0.0573761,0.132831,0.0388427
0.059629,0.442782,-0.549353,0.330127,0.291448,0.408375,0.0656907,0.134982,0.0769909
0.0608611,0.44993,-0.540047,0.321061,0.224138,0.461146,0.062051,0.128185,0.117622
0.0595347,0.455977,-0.530321,0.214457,0.0660592,0.444872,0.0676274,0.10103,0.146912
0.0555319,0.459249,-0.520964,0.0563714,-0.0424319,0.407388,0.0548618,0.082038,0.145355
0.0501653,0.45889,-0.512707,-0.131843,-0.131835,0.322987,0.0362507,0.0699367,0.122422
0.0445659,0.455089,-0.506499,-0.265001,-0.131665,0.218147,0.0267404,0.0588053,0.0601412
0.0402482,0.449256,-0.502287,-0.332101,-0.12432,0.143727,0.0209606,0.0764613,0.00441122
0.0363264,0.44243,-0.499306,-0.350592,-0.141247,0.103281,0.026459,0.0853176,-0.0409282
0.0329129,0.436162,-0.496875,-0.270823,-0.0578685,0.105469,0.0306596,0.0857785,-0.0930124
0.0326352,0.432505,-0.493801,-0.103841,0.166307,0.163068,0.0252153,0.0944245,-0.114217
0.0362343,0.432157,-0.48968,0.0561657,0.352874,0.204569,0.0188314,0.084663,-0.0728325
0.0421726,0.434598,-0.485369,0.161346,0.387755,0.18652,0.00655892,0.0625863,0.0117017
0.0471342,0.437951,-0.482021,0.140105,0.23781,0.126692,0.00446445,0.0334295,0.0983269
0.0493734,0.439648,-0.48014,0.00609386,0.0740717,0.0501789,0.00987495,0.0048908,0.153738
0.0496338,0.437875,-0.479678,-0.195275,-0.016205,-0.0127736,0.0118911,-0.00446597,0.166106
0.0496338,0.437875,-0.479678,-0.195275,-0.016205,-0.0127736,0.0118911,-0.00446597,0.166106
0.0493425,0.431963,-0.480076,-0.384185,-0.0201127,-0.0476589,0.0164262,-0.00759977,0.138211
0.0493877,0.423378,-0.480817,-0.454696,-0.0111068,-0.0611041,0.01624,-0.00889614,0.0846822
0.0490931,0.414357,-0.481711,-0.43316,-0.0718096,-0.0675348,0.00837836,-0.012224,0.0398981
0.047565,0.406524,-0.482896,-0.340124,-0.126901,-0.085365,0.00489674,-0.0267455,-0.00380278
0.0450604,0.40054,-0.484691,-0.254113,-0.187517,-0.105576,0.00545615,-0.0334391,-0.0309204
0.0420256,0.395906,-0.486704,-0.210759,-0.187341,-0.10412,-0.000418104,-0.0375887,-0.0459558
0.0396455,0.391819,-0.489001,-0.191256,-0.126823,-0.126429,-0.0146893,-0.0455439,-0.0581539
0.0389619,0.388095,-0.49175,-0.170108,-0.051712,-0.140479,-0.00683467,-0.059654,-0.056272
0.0396819,0.385029,-0.494784,-0.123461,0.000749437,-0.155829,-0.00278572,-0.0716032,-0.049879
0.0409554,0.383029,-0.498388,-0.0672391,-0.0133342,-0.185741,-0.000821859,-0.0773637,-0.0271595
0.0420298,0.382057,-0.502456,-0.0178713,-0.0299187,-0.193684,0.0145094,-0.0823859,0.00213838
0.0428335,0.381736,-0.506683,-0.00493369,-0.0460831,-0.201506,0.0209613,-0.0854762,0.0326676
0.0433731,0.381246,-0.511193,-0.0354119,-0.0756691,-0.225547,0.0303561,-0.0979085,0.0631778
0.0431796,0.37969,-0.516348,-0.0972319,-0.137172,-0.264907,0.0427023,-0.108539,0.0829889
0.0421577,0.377343,-0.522281,-0.111062,-0.183824,-0.292928,0.0643355,-0.111468,0.0722687
0.0407217,0.37507,-0.528463,-0.0919679,-0.179208,-0.291076,0.0735088,-0.105372,0.0516282
0.0395997,0.373253,-0.534732,-0.0774536,-0.175914,-0.307049,0.0715808,-0.107048,0.0474356
0.0379022,0.371315,-0.541551,-0.0999718,-0.245335,-0.337939,0.0656719,-0.111784,0.0550833
0.0349057,0.36881,-0.548968,-0.120271,-0.322579,-0.359195,0.0570019,-0.118681,0.0355214
0.0310973,0.36675,-0.556404,-0.0432206,-0.311488,-0.336957,0.0446906,-0.116606,-0.0164928
0.0282586,0.367317,-0.563472,0.12063,-0.214287,-0.325502,0.0275239,-0.123111,-0.0478065
0.02763,0.370555,-0.570688,0.189143,-0.125086,-0.34366,0.0242364,-0.165806,-0.0108714
0.0277243,0.372595,-0.578986,-0.00856925,-0.195398,-0.447033,0.00369181,-0.188639,0.05203
0.0265072,0.368351,-0.590561,-0.395095,-0.348419,-0.662941,-0.0512308,-0.199416,0.0478137
0.0239666,0.356945,-0.607297,-0.667854,-0.486706,-0.933438,-0.0905691,-0.185468,-0.0506508
0.0220925,0.342939,-0.628541,-0.647397,-0.396387,-1.06127,-0.0803747,-0.112382,-0.192355
0.0231968,0.331872,-0.649835,-0.384435,-0.19897,-0.946796,-0.0103782,-0.0446697,-0.277187
0.0258154,0.327204,-0.667387,-0.0487455,-0.141678,-0.728855,0.0202652,0.00886589,-0.276622
0.0262639,0.328477,-0.680822,0.188185,-0.26334,-0.564213,-0.00451689,0.0165717,-0.216923
0.0236659,0.333291,-0.692797,0.306035,-0.375608,-0.588126,-0.0952985,0.0131742,-0.160946
0.0206068,0.339644,-0.706604,0.35413,-0.368873,-0.708478,-0.165211,0.0342014,-0.115951
0.0198404,0.346597,-0.722648,0.367873,-0.231101,-0.781256,-0.170942,0.0761646,-0.0712476
0.0233143,0.353427,-0.739436,0.345313,0.000452234,-0.775798,-0.16535,0.105087,-0.0120599
0.0304166,0.359335,-0.756081,0.2848,0.105195,-0.779581,-0.178265,0.120252,0.0592331
0.0382822,0.363752,-0.773207,0.210793,0.0395547,-0.819004,-0.201983,0.12353,0.116043
0.0432046,0.366375,-0.791469,0.119219,-0.213639,-0.883504,-0.197826,0.118487,0.156485
0.0435691,0.366847,-0.810938,0.00263936,-0.425508,-0.931609,-0.178185,0.118592,0.164816
0.041508,0.364605,-0.830831,-0.151776,-0.47694,-0.929198,-0.152584,0.123899,0.150699
0.0384979,0.359463,-0.849661,-0.282226,-0.500613,-0.843141,-0.11069,0.127589,0.130049
0.0337456,0.352793,-0.865655,-0.306066,-0.5307,-0.679094,-0.0649101,0.116303,0.0957444
0.02768,0.347203,-0.878152,-0.206135,-0.490303,-0.518008,-0.0297481,0.0836014,0.0721089
0.0218697,0.343871,-0.887575,-0.118015,-0.418327,-0.389603,-0.0132025,0.0471866,0.0988243
0.0168617,0.341516,-0.895063,-0.102445,-0.309352,-0.332386,-0.00776947,-0.0031122,0.140585
0.0143614,0.339717,-0.901413,-0.0763388,-0.153652,-0.271357,0.00531967,-0.0424204,0.134997
0.0152422,0.337971,-0.906968,-0.108573,0.055578,-0.268579,-0.00148576,-0.0581661,0.165961
0.0190219,0.334278,-0.91287,-0.280383,0.0918936,-0.300243,0.0220712,-0.0611951,0.198871
0.0237675,0.326433,-0.918407,-0.497307,0.135103,-0.234678,0.0924799,-0.110409,0.207942
0.0258021,0.315003,-0.922318,-0.613541,-0.0778595,-0.185685,0.120566,-0.144725,0.17785
0.0229096,0.30336,-0.926118,-0.511129,-0.309881,-0.205615,0.0562482,-0.119668,0.0972458
0.0165464,0.295652,-0.930004,-0.244903,-0.424117,-0.178746,0.0429796,-0.112582,0.0258936
0.00905346,0.2934,-0.933555,0.0122351,-0.431069,-0.175862,0.0465093,-0.120704,0.00587195
0.00905346,0.2934,-0.933555,0.0122351,-0.431069,-0.175862,0.0465093,-0.120704,0.00587195
0.00186501,0.295334,-0.937373,0.158818,-0.385012,-0.182316,0.0562907,-0.123263,0.0241168
-0.00333233,0.298941,-0.940615,0.185575,-0.216098,-0.115942,0.0725967,-0.122087,0.0480203
-0.00439559,0.30251,-0.941631,0.165955,0.111101,0.030802,0.0830229,-0.113444,0.0452959
9.50361e-05,0.305237,-0.939139,0.100985,0.376936,0.203912,0.0896615,-0.112201,0.0153298
0.00656668,0.306475,-0.933641,0.0228183,0.39321,0.312692,0.0654709,-0.116223,-0.018984
0.0108707,0.306383,-0.926372,-0.0299984,0.253126,0.367752,0.047375,-0.144174,-0.0903572
0.0119491,0.306042,-0.918869,-0.00325776,0.0875626,0.329713,0.0179186,-0.164167,-0.194957
0.0103513,0.3066,-0.912691,0.0395629,-0.0598135,0.263986,0.00201818,-0.155319,-0.281076
0.00665704,0.306937,-0.907689,-0.0345462,-0.140714,0.21809,0.0269183,-0.135726,-0.322805
0.00321382,0.30462,-0.903509,-0.208493,-0.0386856,0.17735,0.0397045,-0.112896,-0.359093
0.00414886,0.298945,-0.899918,-0.348483,0.251001,0.179168,0.0505701,-0.0801828,-0.398578
0.0107291,0.292058,-0.895365,-0.310855,0.529684,0.264222,0.0918982,-0.0442754,-0.407239
0.0206161,0.287785,-0.888486,-0.118409,0.608463,0.392175,0.132729,-0.00205961,-0.35598
0.0287825,0.287906,-0.878597,0.112969,0.480126,0.570249,0.166132,0.0264532,-0.253593
0.0329782,0.292964,-0.864766,0.349712,0.354687,0.776626,0.164645,0.0776246,-0.159492
0.035023,0.302554,-0.846768,0.551084,0.402939,0.978219,0.139121,0.122895,-0.06418
0.0373273,0.316125,-0.825018,0.724926,0.492037,1.13354,0.124183,0.142765,0.0445269
0.039858,0.332367,-0.800935,0.788648,0.513628,1.21082,0.111152,0.152636,0.155627
0.040552,0.348297,-0.775336,0.688831,0.388218,1.27154,0.118021,0.150181,0.245442
0.0367008,0.361154,-0.748311,0.49403,0.157934,1.31371,0.13079,0.143241,0.272506
0.0274707,0.370138,-0.720449,0.333904,-0.0586669,1.31795,0.13078,0.137608,0.23144
0.0152932,0.37618,-0.692991,0.217719,-0.138908,1.25236,0.0882089,0.153076,0.150883
0.00315434,0.379603,-0.667334,0.104061,-0.115674,1.13374,0.0476226,0.153725,0.0780076
-0.00745931,0.380457,-0.644737,-0.0119502,-0.118567,0.964768,0.0077956,0.158271,0.0163141
-0.0165382,0.379218,-0.626051,-0.0751036,-0.0743385,0.781485,-0.00140686,0.156175,-0.0491391
-0.0219299,0.377729,-0.610766,-0.0293145,0.121206,0.665518,0.0115017,0.16947,-0.105418
-0.0218885,0.378157,-0.596556,0.114748,0.4054,0.676055,0.0420689,0.183112,-0.110854
-0.0170661,0.382112,-0.581457,0.304422,0.614777,0.719518,0.0447804,0.187395,-0.056402
-0.0106992,0.389151,-0.565812,0.398331,0.567307,0.713014,0.0284843,0.160516,0.0565567
-0.00640964,0.396926,-0.551295,0.376006,0.425385,0.61475,0.00330201,0.116444,0.136819
-0.00377799,0.403297,-0.539582,0.254027,0.296743,0.464939,-0.015797,0.0953186,0.187069
-0.00234668,0.406453,-0.530867,0.058021,0.206047,0.346013,-0.00120146,0.0769339,0.203606
-0.00111596,0.405771,-0.524008,-0.118987,0.191524,0.294424,0.0124999,0.0698524,0.188375
-0.000299411,0.40265,-0.517902,-0.167351,0.146852,0.270047,0.0132302,0.0604517,0.137494
0.000469482,0.400197,-0.512357,-0.0710576,0.134073,0.245699,0.0125376,0.0391973,0.0865724
0.000644142,0.399433,-0.507269,-0.0254807,0.075626,0.225387,0.00892804,0.0239054,0.0869768
-0.000247205,0.398532,-0.502776,-0.0800713,0.021826,0.183951,0.0113057,-0.00561064,0.101716
-0.000762332,0.395927,-0.499535,-0.178893,0.0567111,0.117944,0.00206137,-0.0405598,0.103868
3.14729e-05,0.391667,-0.497553,-0.245185,0.0818372,0.0710352,0.00311421,-0.0502771,0.0999942
0.000542477,0.386768,-0.49627,-0.233137,0.010221,0.0522533,0.0328075,-0.0734253,0.0803076
-0.00102362,0.38279,-0.494898,-0.162173,-0.11888,0.0854275,0.0683781,-0.083781,0.0526105
-0.00532932,0.380388,-0.492389,-0.0875274,-0.200159,0.145266,0.0897262,-0.103298,0.0184579
-0.0108748,0.378794,-0.488928,-0.091885,-0.231653,0.169843,0.0687585,-0.13615,0.00350386
-0.0167664,0.376176,-0.485586,-0.188175,-0.239632,0.128932,0.0482471,-0.182377,-0.0107741
-0.0220423,0.371507,-0.483824,-0.264322,-0.202647,0.0406523,0.0355058,-0.219057,-0.055124
-0.024956,0.366351,-0.483843,-0.241653,-0.0875077,-0.020164,0.0431339,-0.22881,-0.106033
-0.0255851,0.362474,-0.484485,-0.14284,-0.00532162,-0.0174966,0.0758609,-0.230586,-0.128256
-0.0256457,0.360909,-0.484514,-0.0112118,-0.0140612,0.0195233,0.0865062,-0.228769,-0.12183
-0.0262273,0.362158,-0.483943,0.134239,-0.0235107,0.0213431,0.0821404,-0.250688,-0.110597
-0.0270535,0.365727,-0.484012,0.194721,-0.068047,-0.048876,0.0738299,-0.270454,-0.0826674
-0.0270535,0.365727,-0.484012,0.194721,-0.068047,-0.048876,0.0738299,-0.270454,-0.0826674
-0.0283208,0.368595,-0.486148,0.06438,-0.134068,-0.153567,0.0389273,-0.231766,-0.0437208
-0.0301744,0.367886,-0.49033,-0.148067,-0.208554,-0.237152,-0.0048841,-0.17272,-0.0418528
-0.0337088,0.36331,-0.496504,-0.309239,-0.376912,-0.324415,-0.0571511,-0.10746,-0.0924165
-0.0397495,0.357101,-0.504294,-0.310338,-0.490213,-0.376252,-0.0836023,-0.0408364,-0.196059
-0.0465992,0.352443,-0.512785,-0.179759,-0.467842,-0.41005,-0.122724,0.033439,-0.289537
-0.0513563,0.350713,-0.522273,-0.0447993,-0.3301,-0.478401,-0.174524,0.0981905,-0.326423
-0.0525348,0.351372,-0.533263,0.0456222,-0.17321,-0.559357,-0.210738,0.156885,-0.301484
-0.0508683,0.353116,-0.545616,0.0619517,-0.0962819,-0.603666,-0.221959,0.210523,-0.241243
-0.0477385,0.355174,-0.558133,0.0938302,-0.0212707,-0.574079,-0.228329,0.245229,-0.183584
-0.0433799,0.358366,-0.569664,0.18543,0.0474262,-0.531957,-0.256599,0.267066,-0.114291
-0.0381971,0.363394,-0.580847,0.268311,0.0726517,-0.545787,-0.28738,0.258524,-0.0268012
-0.032511,0.369317,-0.592897,0.270605,0.0551001,-0.605549,-0.296301,0.225389,0.0749797
-0.0267639,0.374365,-0.60677,0.188434,0.00857955,-0.713489,-0.29452,0.184834,0.165819
-0.0217145,0.377452,-0.623549,0.0858205,-0.136926,-0.860804,-0.274783,0.14698,0.228017
-0.0191485,0.378829,-0.643282,0.0211627,-0.343803,-0.969199,-0.220247,0.119329,0.246158
-0.0200317,0.379293,-0.664609,-0.00607211,-0.504563,-1.00906,-0.162881,0.117853,0.234984
-0.0215915,0.379541,-0.686326,-0.0167466,-0.437247,-1.01902,-0.129788,0.112896,0.209166
-0.0212183,0.378973,-0.708643,-0.0910755,-0.366687,-1.06131,-0.0988037,0.0911427,0.205432
-0.0201921,0.376455,-0.731556,-0.208551,-0.396306,-1.05838,-0.0488807,0.0638234,0.204519
-0.0207991,0.371528,-0.753886,-0.324401,-0.470077,-1.01272,-0.014389,0.0538512,0.173103
-0.0224248,0.364695,-0.774972,-0.40155,-0.455398,-0.942249,0.00105075,0.038702,0.117896
-0.0239245,0.357249,-0.794229,-0.372662,-0.35272,-0.850159,0.00138517,0.0108162,0.0445043
-0.0234908,0.351031,-0.811821,-0.294363,-0.224953,-0.796992,-0.0202716,-0.00977147,0.00995713
-0.0217173,0.34608,-0.828506,-0.246711,-0.175168,-0.767184,-0.0364109,-0.0232907,0.0140201
-0.019492,0.341629,-0.844646,-0.234176,-0.154292,-0.750915,-0.0382305,-0.03305,0.0231164
-0.0169403,0.337404,-0.860536,-0.216139,-0.0939726,-0.741237,-0.0270759,-0.0496376,0.019852
-0.0127326,0.333523,-0.875846,-0.192775,0.00198598,-0.697051,-0.00898069,-0.0570254,0.0255067
-0.00763742,0.330198,-0.889656,-0.149842,0.0621822,-0.606472,-0.000770861,-0.0593758,0.0379153
-0.00200135,0.328292,-0.901435,-0.0415313,0.113912,-0.512935,-0.000684295,-0.0640325,0.0401747
0.00357834,0.328749,-0.911592,0.081407,0.109946,-0.460108,-0.00242542,-0.0754256,0.053756
0.00873611,0.331261,-0.921067,0.162848,0.105042,-0.440462,0.0144745,-0.108267,0.0816596
0.0139236,0.334563,-0.930343,0.163574,0.103989,-0.436152,0.0190754,-0.117978,0.107518
0.0185851,0.337232,-0.939341,0.114229,0.0637443,-0.406601,0.0259808,-0.119624,0.108443
0.0223079,0.338788,-0.947597,0.0591724,0.0503637,-0.37506,0.0239143,-0.116951,0.0868291
0.0265604,0.339353,-0.955434,0.00864678,0.10348,-0.370986,0.00416259,-0.110864,0.0484117
0.0308993,0.338762,-0.963167,-0.0419262,0.0690335,-0.355122,0.00250819,-0.109377,0.0173779
0.034148,0.337485,-0.970131,-0.0552611,0.0090701,-0.307818,-0.00282706,-0.131196,-0.0160967
0.0357766,0.336542,-0.976204,-0.00899476,-0.0302517,-0.264043,-0.0183205,-0.139303,-0.0720215
0.0379117,0.337352,-0.981004,0.115662,0.11978,-0.185472,-0.00279196,-0.142735,-0.108496
0.0438314,0.341037,-0.984846,0.261279,0.341905,-0.173429,-0.00636651,-0.142143,-0.127528
0.054064,0.347588,-0.988494,0.415472,0.557095,-0.119395,0.00226399,-0.146064,-0.139485
0.0667688,0.357177,-0.990396,0.539959,0.607865,-0.00123287,0.0212623,-0.149835,-0.132613
0.0756636,0.368151,-0.990485,0.523622,0.196951,0.0500587,0.0168912,-0.166949,-0.116275
0.0732386,0.376726,-0.990917,0.318257,-0.411754,-0.0453557,-0.0255918,-0.17535,-0.145052
0.0634319,0.380933,-0.993749,0.137753,-0.591685,-0.186588,-0.0658951,-0.149041,-0.208467
0.0559869,0.38227,-0.999245,0.0378213,-0.314001,-0.304346,-0.0694205,-0.0699812,-0.244608
0.0568423,0.382472,-1.0061,0.0341676,0.161501,-0.310989,-0.0306121,0.0115515,-0.226158
0.0670847,0.383192,-1.0118,0.067436,0.616627,-0.195044,0.00835327,0.0858576,-0.14152
0.0813976,0.384781,-1.01365,0.118276,0.683372,0.0472091,0.0581976,0.105291,-0.0376752
0.0916277,0.388432,-1.01066,0.219417,0.423323,0.235507,0.0856659,0.10118,0.0143037
0.0943961,0.393966,-1.00554,0.273575,0.0549462,0.272462,0.0540779,0.0948671,0.0371115
0.0943961,0.393966,-1.00554,0.273575,0.0549462,0.272462,0.0540779,0.0948671,0.0371115
0.0904599,0.399845,-1.00047,0.258607,-0.241013,0.240335,0.0136824,0.0995572,0.0488553
0.0815267,0.404608,-0.99596,0.170244,-0.465047,0.223352,-0.00192402,0.137844,0.0435078
0.0690373,0.407124,-0.99071,0.0429532,-0.554405,0.285478,0.00150573,0.16486,-0.000671804
0.055887,0.407635,-0.983778,-0.0132036,-0.444337,0.343715,-0.0229912,0.183442,-0.0642378
0.0472021,0.408106,-0.976173,0.0268021,-0.103871,0.354695,-0.0478719,0.190664,-0.0957976
0.0450909,0.409522,-0.968255,0.0873287,0.182069,0.388732,-0.0341005,0.183312,-0.050647
0.0463058,0.412515,-0.958979,0.181066,0.279085,0.480351,-0.0293448,0.176534,0.0250274
0.0462323,0.417942,-0.947702,0.317591,0.150901,0.567022,-0.0405899,0.157971,0.0985424
0.0428276,0.426119,-0.935607,0.445086,0.0118212,0.566138,-0.0814054,0.124629,0.166654
0.0369021,0.435855,-0.924295,0.466662,-0.136767,0.490282,-0.109586,0.0991876,0.216088
0.0285604,0.444271,-0.914838,0.317382,-0.272338,0.431022,-0.109754,0.0807854,0.249388
0.0175807,0.447836,-0.904838,0.026149,-0.389493,0.443558,-0.0453415,0.141009,0.249513
0.00619317,0.446893,-0.897025,-0.114787,-0.360046,0.233009,-0.119004,0.00379074,0.196363
-0.000176379,0.443132,-0.895359,-0.278541,-0.246708,-0.0805933,-0.101739,-0.025865,0.178941
-0.00376626,0.436018,-0.89954,-0.409872,-0.272528,-0.274029,-0.0833476,-0.0307915,0.129731
-0.00473812,0.428086,-0.906804,-0.37567,-0.118097,-0.376113,-0.0511857,-0.00531062,0.105217
-0.00266978,0.421248,-0.915507,-0.316143,-0.0598806,-0.405175,-0.00613908,0.0147652,0.0955137
-0.000328829,0.415077,-0.924074,-0.305279,-0.0556402,-0.365643,0.04211,0.00525036,0.0925143
0.00130038,0.408913,-0.931298,-0.324737,-0.0633403,-0.299159,0.0739411,-0.0198987,0.0917013
0.00257019,0.401637,-0.937309,-0.415243,-0.052406,-0.267857,0.0684961,-0.0506182,0.105692
0.00363391,0.391978,-0.943342,-0.551702,-0.0887292,-0.301883,0.0517107,-0.0883811,0.110307
0.00359256,0.379704,-0.950087,-0.665355,-0.167364,-0.326935,0.0506642,-0.122808,0.0741082
0.0026558,0.366191,-0.956953,-0.671472,-0.164018,-0.314089,0.057884,-0.122423,-0.0063839
0.00239739,0.353417,-0.963232,-0.609995,-0.0773107,-0.277937,0.0567412,-0.117548,-0.0528653
0.00347221,0.341586,-0.968815,-0.580493,-0.0312676,-0.259256,0.0640654,-0.136088,-0.080654
0.0042591,0.330251,-0.974297,-0.554939,-0.0561087,-0.268813,0.0409997,-0.129532,-0.114564
0.00616205,0.319462,-0.980616,-0.527972,0.0702581,-0.344828,-0.0108399,-0.144563,-0.138657
0.011533,0.308997,-0.989043,-0.51788,0.183408,-0.475404,-0.0471804,-0.218785,-0.165832
0.0184851,0.298622,-1.00003,-0.511034,0.173053,-0.579241,-0.0464593,-0.253419,-0.177248
0.0243355,0.288076,-1.01243,-0.527032,0.0386364,-0.631574,-0.0279691,-0.253062,-0.1888
0.0274465,0.27686,-1.02553,-0.564586,-0.0591968,-0.654149,-0.0284884,-0.218882,-0.216788
0.030123,0.264852,-1.03826,-0.59037,0.00433801,-0.594804,-0.0310519,-0.163954,-0.24542
0.0342192,0.253612,-1.04894,-0.481424,0.136012,-0.484051,-0.0500249,-0.10417,-0.287574
0.0402731,0.246007,-1.0579,-0.227965,0.231407,-0.427412,-0.0957212,-0.0449195,-0.313425
0.0469992,0.244344,-1.0667,0.102183,0.219917,-0.446442,-0.133294,0.00165513,-0.30197
0.0535361,0.24874,-1.0763,0.35734,0.199262,-0.454839,-0.155028,0.0421116,-0.21817
0.0587652,0.25658,-1.0859,0.470648,0.0644472,-0.429807,-0.169037,0.085515,-0.112531
0.0614142,0.266764,-1.09543,0.612194,-0.0257487,-0.444347,-0.207718,0.123154,-0.0695076
0.0624952,0.279834,-1.10608,0.748462,-0.178709,-0.500008,-0.23692,0.152661,-0.0240512
0.060327,0.294775,-1.11807,0.792251,-0.364716,-0.565728,-0.245465,0.162641,0.0317565
0.0565081,0.309214,-1.13196,0.715214,-0.411343,-0.684347,-0.255612,0.172474,0.0980406
0.053655,0.321141,-1.1486,0.553703,-0.386712,-0.834716,-0.251022,0.182349,0.162415
0.0525395,0.329116,-1.16798,0.345164,-0.351507,-0.951629,-0.213012,0.182139,0.206345
0.0528826,0.333663,-1.18889,0.238062,-0.274078,-1.00099,-0.147858,0.171897,0.18834
0.0562648,0.337225,-1.21108,0.248669,-0.124122,-1.09148,-0.112959,0.186841,0.161849
0.0634483,0.340802,-1.23603,0.228218,0.0107098,-1.24973,-0.106192,0.187224,0.214852
0.0751579,0.342119,-1.26401,0.0675298,0.235808,-1.35725,-0.0565601,0.144871,0.273005
0.0907953,0.339061,-1.29219,-0.16144,0.356258,-1.29543,0.036104,0.090811,0.322697
0.105915,0.331018,-1.3165,-0.424248,0.339165,-1.05085,0.113355,0.0463503,0.343336
0.117418,0.317982,-1.33462,-0.663245,0.241325,-0.84173,0.151008,0.00556725,0.332549
0.126722,0.302481,-1.3494,-0.673367,0.267139,-0.753125,0.133627,-0.0818105,0.235917
0.13703,0.288107,-1.36225,-0.597571,0.389283,-0.649118,0.123667,-0.0730097,0.158597
0.147935,0.275179,-1.3722,-0.549552,0.40713,-0.474479,0.140864,-0.0853063,0.127326
0.157419,0.263982,-1.37803,-0.471368,0.393936,-0.247724,0.166135,-0.100203,0.0754161
0.165575,0.25541,-1.37913,-0.367769,0.393806,-1.18115e-05,0.187665,-0.114424,0.0372283
0.172723,0.248697,-1.37575,-0.381259,0.455057,0.206712,0.179751,-0.134642,0.0305568
0.179316,0.24143,-1.36844,-0.453493,0.328072,0.353608,0.161747,-0.142104,-0.0305339
0.183115,0.233939,-1.35837,-0.46423,0.288925,0.473162,0.144232,-0.137254,-0.11026
0.185346,0.22637,-1.34582,-0.508592,0.232947,0.589008,0.117367,-0.109253,-0.170819
0.186661,0.218741,-1.3316,-0.472532,0.237486,0.633531,0.0960952,-0.0896248,-0.295821
0.189963,0.213504,-1.3166,-0.325262,0.448583,0.730354,0.138051,-0.111433,-0.412173
0.197336,0.210518,-1.29917,-0.33942,0.598868,0.876628,0.13426,-0.115817,-0.417979
0.203584,0.206021,-1.28001,-0.465222,0.382395,0.841046,0.105165,-0.0986714,-0.417156
0.20605,0.200352,-1.26291,-0.40438,0.267272,0.688791,0.108,-0.102072,-0.471596
0.208744,0.196518,-1.24882,-0.290062,0.226581,0.60583,0.112675,-0.0352439,-0.435893
0.205295,0.193039,-1.23478,-0.294518,-0.133778,0.745783,0.13596,0.133371,-0.228377
0.201238,0.192666,-1.21419,-0.163884,-0.0971817,1.21509,0.23242,0.0305567,-0.085154
0.18912,0.197836,-1.18646,0.21696,-0.175143,1.55384,0.194533,0.186752,-0.0722663
0.185538,0.214103,-1.15426,0.785787,0.330686,1.81633,0.139988,0.0680618,0.022286
0.186289,0.239993,-1.12125,1.12071,0.47442,1.8053,0.103252,0.1112,0.146245
0.186294,0.269198,-1.08953,1.14205,0.272048,1.77108,0.109889,0.0988446,0.237237
0.179126,0.297013,-1.05712,1.02504,-0.0760239,1.8325,0.135723,0.104173,0.246869
0.165662,0.321905,-1.01943,0.853137,-0.0583299,2.14413,0.16899,0.223769,0.201867
0.154157,0.346617,-0.976099,0.968182,0.411625,2.27876,0.0726719,0.179531,0.0842049
0.151394,0.371963,-0.930621,0.80665,0.784219,2.29942,0.0417178,0.153774,0.096558
0.151394,0.371963,-0.930621,0.80665,0.784219,2.29942,0.0417178,0.153774,0.096558
0.149144,0.388873,-0.886363,0.23023,0.612902,1.9711,-0.00462361,0.0693006,0.0940502
0.145682,0.393531,-0.849568,-0.227362,0.505459,1.49357,-0.0582041,0.0680834,0.025533
0.146353,0.391105,-0.820378,-0.353337,0.692583,1.17415,-0.0525136,0.0703124,-0.0742254
0.151373,0.388574,-0.797025,-0.192125,0.652507,0.924274,-0.0150878,0.0935296,-0.077457
0.155408,0.389272,-0.781143,0.0265706,0.297588,0.527689,-0.108825,0.120451,0.00737381
0.149932,0.392324,-0.773774,0.138247,-0.62889,0.242184,-0.0780858,0.1275,0.121497
0.127132,0.394741,-0.768708,0.0126136,-1.32935,0.298853,-0.0145151,0.195742,0.203839
0.10167,0.394384,-0.760562,-0.134368,-0.729471,0.428209,-0.0151974,0.218407,0.203332
0.0907418,0.391945,-0.750238,-0.16478,-0.0819793,0.48127,-0.0176445,0.129439,0.157457
0.0880918,0.389502,-0.742009,-0.162958,0.110339,0.178488,-0.103834,0.0698518,0.220446
0.089927,0.385041,-0.743248,-0.286448,-0.0239534,-0.30993,-0.077951,0.0129571,0.226169
0.0905757,0.377222,-0.752209,-0.42817,-0.262116,-0.549573,-0.0548413,0.0125197,0.218849
0.0884461,0.366362,-0.762881,-0.581151,-0.398165,-0.51386,0.00542171,0.0458742,0.208201
0.0806104,0.352089,-0.771179,-0.765263,-0.659319,-0.361366,0.109811,-0.00607738,0.135634
0.0708999,0.335289,-0.774482,-0.876002,-0.31723,-0.0593364,0.104232,-0.0211319,0.0983302
0.0665515,0.317679,-0.771862,-0.896474,-0.0891129,0.139729,-0.0123173,0.0104217,0.00372243
0.0644641,0.300698,-0.768449,-0.798869,-0.0428627,0.0448111,-0.153951,0.0547317,-0.0582827
0.0610537,0.286808,-0.768489,-0.588228,-0.364105,-0.143386,-0.226111,0.0442594,-0.122225
0.0524632,0.276466,-0.773097,-0.458382,-0.605716,-0.364502,-0.259768,0.0193564,-0.11936
0.0412273,0.26632,-0.782854,-0.534901,-0.776172,-0.612262,-0.258452,-0.0583499,-0.0791647
0.0276913,0.254362,-0.795791,-0.601208,-0.854578,-0.624608,-0.165743,-0.101307,-0.0848847
0.0147015,0.242645,-0.80571,-0.531808,-0.684732,-0.352506,-0.139011,-0.0528503,-0.159007
0.00451794,0.23354,-0.811461,-0.387398,-0.505728,-0.26354,-0.118516,-0.134407,-0.19424
-0.00454636,0.225993,-0.818752,-0.404906,-0.62557,-0.497697,-0.172281,-0.199616,-0.153612
-0.0163042,0.216455,-0.832628,-0.594347,-0.822353,-0.806956,-0.205696,-0.167724,-0.155972
-0.0297271,0.202968,-0.849402,-0.781909,-0.846969,-0.782446,-0.0860912,-0.11164,-0.194102
-0.0409807,0.187272,-0.865479,-0.812626,-0.567269,-0.748488,-0.148468,-0.0542837,-0.248381
-0.047309,0.173023,-0.881513,-0.670039,-0.410467,-0.812817,-0.148056,-0.0212598,-0.272533
-0.0536593,0.162253,-0.901709,-0.528319,-0.603003,-1.1315,-0.225254,-0.0346251,-0.189024
-0.0633521,0.153725,-0.927063,-0.48012,-0.728201,-1.29796,-0.227934,0.0325302,-0.0964317
-0.0730448,0.146588,-0.954228,-0.404681,-0.584906,-1.33847,-0.0945357,0.0196751,-0.0404013
-0.0773527,0.141794,-0.982084,-0.297413,-0.25255,-1.37429,-0.0500869,0.0170978,0.000309467
-0.0758428,0.13766,-1.0096,-0.356948,0.0277747,-1.30208,-0.0301408,0.0354039,0.070807
-0.0697962,0.130241,-1.03525,-0.590177,0.206434,-1.20025,-0.0230295,0.0477201,0.148449
-0.0612448,0.117713,-1.0598,-0.80895,0.369256,-1.15761,-0.0128865,0.0593357,0.155097
-0.0499996,0.101984,-1.08384,-0.88209,0.406814,-1.16674,-0.00617385,0.0422366,0.100464
-0.0384593,0.0848248,-1.10905,-0.975171,0.567086,-1.28336,-0.134097,0.0591646,0.148393
-0.0228721,0.064326,-1.13624,-1.12305,0.742194,-1.34553,-0.104924,0.100598,0.143972
-0.00602852,0.046476,-1.16166,-0.645339,0.920798,-1.13469,0.013514,0.102993,-0.0613854
0.0148644,0.0380038,-1.18268,-0.25107,1.06029,-1.02326,-0.0267092,0.0867313,-0.0249261
0.0366389,0.0339691,-1.20331,-0.125717,1.01969,-1.05939,-0.0214423,0.0509151,0.0861089
0.0560541,0.0311546,-1.225,-0.0471927,0.851426,-1.14441,-0.0315377,0.0146548,0.144094
0.0708323,0.0298087,-1.24899,0.0828028,0.55194,-1.27002,-0.058382,0.00543602,0.138559
0.0775676,0.0313448,-1.27539,0.246296,-0.0697834,-1.3325,-0.0552198,0.000928868,0.127866
0.0693586,0.034612,-1.3022,0.274002,-0.772063,-1.31736,-0.0338458,-0.0166797,0.21262
0.0533164,0.0393393,-1.32829,0.373954,-0.808649,-1.28113,0.0757478,-0.0234302,0.181278
0.0416358,0.046956,-1.3539,0.509878,-0.41241,-1.23006,0.0821861,-0.0891849,0.121842
0.0400078,0.0561237,-1.37723,0.451896,0.0881162,-1.05061,0.0961742,-0.0790986,0.148475
0.0449632,0.0622957,-1.39529,0.275349,0.278577,-0.724009,0.0800018,-0.0130773,0.193554
0.0524169,0.067804,-1.40778,0.359242,0.368878,-0.542957,0.0221599,-0.0543182,0.0965669
0.0606826,0.0745408,-1.41917,0.331419,0.382082,-0.573141,-0.078757,-0.0685641,0.0897022
0.0683559,0.0764646,-1.43104,-0.158151,0.280528,-0.581685,-0.0480378,-0.0869553,0.24362
0.0714289,0.0642831,-1.43952,-1.01615,0.0235641,-0.329695,0.139915,-0.137437,0.438536
0.0768252,0.0363443,-1.44263,-1.66642,0.436175,-0.246507,0.200691,-0.231303,0.187112
0.0768252,0.0363443,-1.44263,-1.66642,0.436175,-0.246507,0.200691,-0.231303,0.187112
0.0849744,0.00231085,-1.44404,-1.67323,0.39969,-0.174512,0.0276768,-0.0673455,-0.23852
0.0921173,-0.0315888,-1.45144,-1.68659,0.278608,-0.839032,-0.413139,0.0187552,-0.227271
0.0913318,-0.0659379,-1.46033,-1.53405,-0.223726,-0.165208,0.323971,-0.0256832,-0.32756
0.0911252,-0.0925513,-1.45731,-1.1561,0.157768,-0.0258103,0.17059,-0.0333982,-0.41341
0.091178,-0.112969,-1.46173,-0.872024,-0.134634,-0.557046,-0.0448476,-0.00986939,-0.434971
0.0867846,-0.129383,-1.47312,-0.666324,-0.112439,-0.668451,-0.0276322,0.0986844,-0.457418
0.0849541,-0.140737,-1.48478,-0.339542,0.133561,-0.564024,0.0049762,0.133347,-0.522278
0.0899358,-0.144597,-1.49375,0.00963926,0.466364,-0.348274,0.0499929,0.106547,-0.466034
0.09916,-0.143058,-1.49908,0.174633,0.489804,-0.175947,0.0499477,0.0736615,-0.298632
0.10899,-0.138068,-1.50184,0.377085,0.577395,-0.0465958,0.0111874,0.075001,-0.181134
0.122406,-0.127354,-1.50339,0.713611,0.801376,-0.0141159,0.00265201,0.0165447,-0.128298
0.140236,-0.110985,-1.50664,0.908343,0.984246,-0.0799492,-0.011109,-0.0294736,0.00789469
0.157878,-0.0936678,-1.51056,0.836218,0.764409,-0.0233122,0.0375428,-0.0296881,0.196399
0.168315,-0.0785664,-1.51188,0.700068,0.278103,0.160096,0.100543,0.0111293,0.27337
0.172719,-0.0637821,-1.5086,0.676688,0.205565,0.337416,0.14787,0.0346498,0.149881
0.175473,-0.0505869,-1.5056,0.563857,0.0594303,0.171532,0.015194,0.0224785,0.114839
0.175321,-0.0410531,-1.50567,0.360069,-0.0675769,0.000714495,-0.0350563,0.0455826,0.1203
0.173816,-0.0362848,-1.50737,0.160895,-0.0331123,-0.0638076,-0.0455239,0.0802698,0.0528873
0.171326,-0.034182,-1.5084,0.068494,-0.501388,0.0175437,-0.093577,0.142613,-0.0198395
0.154071,-0.0322256,-1.50839,0.137525,-1.23347,0.0487623,-0.233995,0.180182,-0.014922
0.117636,-0.0278408,-1.50578,0.295601,-2.55535,0.306795,-0.258097,0.141718,0.0453926
0.053487,-0.0198321,-1.49813,0.381435,-3.89475,0.373747,-0.409576,0.115011,0.222159
-0.0400143,-0.0114234,-1.49326,0.550614,-5.01231,0.242349,-0.445656,0.152853,0.479405
-0.139247,-0.00541512,-1.49594,-0.757981,-5.12515,-1.10317,0.0450608,0.0124682,0.409694
-0.215738,-0.0361466,-1.54651,-2.5552,-1.74646,-2.86787,0.338806,-0.265158,0.34169
-0.22394,-0.0686608,-1.60766,-1.78473,0.444992,-2.08105,0.418281,-0.0129276,-0.0651853
-0.23327,-0.0850873,-1.63841,-0.520246,-1.18073,-0.623168,0.270286,0.0314399,-0.398768
-0.25644,-0.0830013,-1.64058,0.612032,-0.770641,0.247503,0.0611605,0.155207,-0.159032
-0.261835,-0.0699777,-1.62963,0.690416,0.0170291,0.359683,-0.101064,0.0500745,-0.139475
-0.25642,-0.0641972,-1.6236,0.0565736,0.530307,0.0767028,-0.0186926,0.0567881,0.0221505
-0.242205,-0.0656768,-1.6241,-0.155171,0.738908,-0.0513689,-0.0649178,-0.0127884,0.0966481
-0.230403,-0.0688014,-1.62507,-0.184224,0.460071,0.0392841,0.0258795,-0.0802828,-0.0368008
-0.221668,-0.073144,-1.62452,-0.219197,0.431885,0.088856,0.0852665,-0.0613295,0.0296711
-0.212624,-0.077899,-1.62436,-0.259905,0.485626,-0.00058173,0.171155,-0.0485539,0.0540757
-0.202833,-0.0831646,-1.62751,-0.296412,0.543102,-0.19919,0.199483,-0.129928,-0.0565852
-0.191767,-0.0870461,-1.63579,-0.279039,0.629713,-0.549057,-0.0771871,-0.0793679,-0.0786731
-0.181981,-0.0915767,-1.6509,-0.458453,0.466792,-0.804027,0.0367718,-0.00703715,-0.0136606
-0.168996,-0.0971523,-1.6685,-0.343495,1.07111,-0.80985,-0.0159958,0.00904906,-0.193974
-0.147277,-0.098542,-1.68582,-0.0589571,1.16496,-0.874864,-0.174829,0.0526795,-0.221939
-0.126928,-0.0937134,-1.70275,0.317759,0.988532,-0.851233,-0.144308,0.0998289,-0.196983
-0.114898,-0.0819825,-1.7172,0.652036,0.255163,-0.707467,-0.0223979,0.0538514,-0.191983
-0.121506,-0.0659249,-1.72774,0.795506,-0.76622,-0.524408,0.152178,-0.0210927,-0.178718
-0.141109,-0.0490821,-1.73487,0.753853,-1.00404,-0.406109,0.260696,-0.078344,-0.20855
-0.15766,-0.0358881,-1.73892,0.455641,-0.62361,-0.138914,0.277436,-0.127494,-0.177711
-0.164902,-0.0325978,-1.73754,-0.123231,-0.258916,0.182679,-0.0228064,-0.0135491,-0.0583248
-0.168282,-0.0403433,-1.73391,-0.526006,-0.0492525,0.27163,-0.120627,0.0578275,0.00646466
-0.165375,-0.0528264,-1.73081,-0.627056,0.313284,0.232703,-0.139135,0.00219083,0.00918114
-0.157919,-0.0652162,-1.72894,-0.547429,0.437149,0.163791,-0.145806,-0.0445706,-0.0403452
-0.146845,-0.0755677,-1.72624,-0.428955,0.568266,0.278797,-0.169728,-0.0406447,0.0180154
-0.136208,-0.0837272,-1.72037,-0.303866,0.424443,0.423081,-0.125736,0.000461817,0.0744104
-0.12513,-0.0890784,-1.71058,-0.0898589,0.580615,0.609066,-0.0968364,0.0661755,0.0487944
-0.116321,-0.0905891,-1.69783,0.0794046,0.112621,0.6422,-0.0997182,0.0542185,0.125583
-0.119617,-0.0896087,-1.6857,0.147607,-0.557944,0.539288,-0.0853251,0.0471537,0.0959572
-0.133662,-0.0876382,-1.67598,0.169624,-0.860859,0.398514,-0.0140364,0.0556014,0.0786008
-0.133662,-0.0876382,-1.67598,0.169624,-0.860859,0.398514,-0.0140364,0.0556014,0.0786008
-0.152169,-0.0847912,-1.66969,0.206528,-1.07519,0.147788,0.0282812,0.0744595,0.092117
-0.177181,-0.0800206,-1.67081,0.242241,-1.4643,-0.368874,-0.00951946,0.0595148,0.066537
-0.220869,-0.0719504,-1.68139,0.362732,-3.07082,-0.812843,0.0488178,0.138622,0.166756
-0.302112,-0.057232,-1.69894,0.632819,-4.89001,-1.26873,0.0351021,0.091725,0.176017
-0.408981,-0.029774,-1.72087,1.30753,-5.25113,-1.78002,0.033958,-0.0273129,0.00641418
-0.509136,0.0152667,-1.74103,1.60699,-4.61561,-1.85068,0.15442,-0.0861591,-0.0467509
-0.577914,0.0455381,-1.7564,0.0551677,-1.88829,-0.913718,0.229199,-0.012278,-0.0475875
-0.583026,0.0470654,-1.76535,-0.146256,1.11883,-0.0159746,0.25586,-0.0456949,0.100035
-0.541087,0.0451198,-1.75955,0.231391,2.99055,0.578693,0.182528,-0.0832372,0.133346
-0.470333,0.0404252,-1.74671,-0.105745,3.9435,0.688954,-0.00617129,-0.132834,0.1021
-0.39279,0.029415,-1.73783,-0.459131,3.72637,0.587324,-0.00906092,-0.139794,0.158507
-0.325536,0.0155731,-1.73193,-0.641503,3.0863,0.456233,0.00659138,-0.140052,0.13636
-0.268886,3.81229e-05,-1.72723,-0.65164,2.55919,0.477834,0.0834374,-0.0676499,0.0461139
-0.225098,-0.0121221,-1.71909,-0.265821,1.77057,0.628195,0.178081,-0.0810763,-0.13263
-0.197245,-0.0141167,-1.70452,0.399951,1.0616,0.829472,0.25645,-0.0888843,-0.276888
-0.179894,-0.00145491,-1.68492,1.19091,0.718962,0.797318,0.182923,0.00760881,-0.318949
-0.166594,0.0256927,-1.66731,1.7526,0.605464,0.451385,-0.0620288,0.0458925,-0.265818
-0.156494,0.0616975,-1.65606,1.92168,0.498745,0.102205,-0.0965007,-0.00487001,-0.235001
-0.145985,0.0968784,-1.64983,1.57295,0.61342,0.0354531,-0.00925277,-0.0384201,-0.13315
-0.134082,0.119965,-1.64436,0.778441,0.604627,0.19622,0.0377949,-0.0729956,-0.104584
-0.124123,0.128523,-1.63685,0.243974,0.507694,0.423975,0.0244254,-0.0560806,-0.206582
-0.113557,0.131354,-1.62647,0.233549,0.728719,0.584,-0.0593243,-0.00392681,-0.285538
-0.0978709,0.137012,-1.6115,0.482221,1.06475,0.831382,-0.0501737,0.0610676,-0.260847
-0.0746443,0.145528,-1.59299,0.476317,1.50063,0.879161,-0.00111876,0.065486,-0.165608
-0.046469,0.152354,-1.57603,0.319649,1.4704,0.779515,0.0598302,0.0596332,-0.046464
-0.024272,0.158531,-1.55906,0.41314,1.0246,0.918485,0.130426,0.0540163,-0.0375651
-0.0102683,0.168727,-1.53809,0.634872,0.741104,1.13409,0.137716,0.0666851,-0.0150307
-0.00226154,0.182407,-1.513,0.738621,0.49548,1.33548,0.138226,0.0994884,0.0458921
-8.13915e-05,0.196802,-1.48423,0.681,0.316435,1.47636,0.163532,0.11657,0.111526
-0.000962317,0.209765,-1.45275,0.625013,0.222496,1.62413,0.198771,0.112954,0.133856
-0.00486094,0.22096,-1.4183,0.479239,0.143111,1.73971,0.214246,0.127797,0.156783
-0.00851157,0.228264,-1.38298,0.274061,0.319921,1.68028,0.149282,0.120284,0.160351
-0.00843036,0.231857,-1.34984,0.131381,0.379327,1.56128,0.116466,0.135852,0.131013
-0.0102301,0.23381,-1.31807,0.117188,0.170706,1.56173,0.149325,0.172055,0.0794292
-0.0158512,0.237097,-1.28503,0.25945,0.0390602,1.6702,0.188411,0.179523,0.0247582
-0.0250846,0.241924,-1.24992,0.274524,-0.124729,1.72593,0.200438,0.22419,0.0798874
-0.036391,0.246106,-1.21385,0.250857,-0.0944617,1.76466,0.171456,0.230995,0.0892367
-0.0469081,0.250168,-1.17763,0.32345,-0.10605,1.73943,0.124685,0.194573,0.0478069
-0.0583707,0.256627,-1.14039,0.519342,-0.0908933,1.86106,0.173767,0.180745,-0.000643194
-0.0707285,0.265617,-1.09986,0.595802,-0.127501,1.98105,0.194183,0.179466,0.0454955
-0.085565,0.273129,-1.05837,0.447312,-0.236408,1.93095,0.140658,0.13939,0.0888337
-0.100416,0.276079,-1.02,0.170197,-0.18335,1.71659,0.0841521,0.0681025,0.110147
-0.112088,0.272983,-0.987102,-0.119985,-0.11263,1.48946,0.0596924,0.0384803,0.106113
-0.121904,0.265501,-0.958846,-0.277121,-0.129001,1.32201,0.0753647,0.0262023,0.0599118
-0.127589,0.258578,-0.935204,0.0127017,0.364147,0.941856,-0.00728149,0.0384665,-0.0455745
-0.122754,0.261464,-0.919607,0.382604,0.407079,0.583732,-0.146395,0.070049,-0.136258
-0.118941,0.268488,-0.907593,0.437759,0.343367,0.524223,0.0522299,0.0172575,-0.0513364
-0.113988,0.275968,-0.894957,0.428756,0.452742,0.589331,0.0877393,-0.0548683,-0.0288081
-0.109638,0.282572,-0.882724,0.374262,0.313013,0.490127,0.0210637,-0.0478333,-0.0188133
-0.10635,0.290545,-0.872498,0.577629,0.314884,0.415454,0.0180825,-0.00794438,-0.122215
-0.105038,0.304579,-0.862157,0.902738,0.147021,0.440394,0.0807777,0.0578874,-0.19165
-0.103827,0.323267,-0.850598,1.01836,0.352768,0.433488,0.0608572,0.0273526,-0.178409
-0.0990392,0.339483,-0.840716,0.63091,0.399374,0.344695,0.0300933,-0.0236595,-0.100558
-0.0944968,0.347079,-0.832615,0.243958,0.328606,0.361152,0.0398253,-0.0328331,-0.156355
-0.0944968,0.347079,-0.832615,0.243958,0.328606,0.361152,0.0398253,-0.0328331,-0.156355
-0.0913127,0.349794,-0.824132,0.146349,0.285501,0.414764,0.0105754,-0.0090104,-0.22362
-0.0889532,0.3531,-0.814675,0.288685,0.273237,0.432487,-0.0556066,0.00776535,-0.243139
-0.0878385,0.359878,-0.804948,0.465225,0.16144,0.415322,-0.0972918,0.00139138,-0.20219
-0.0893843,0.370006,-0.795309,0.620754,0.0461089,0.393449,-0.0916109,0.00418422,-0.150422
-0.0922764,0.382641,-0.785796,0.70815,0.0124462,0.380387,-0.0778331,0.0542796,-0.0797133
-0.0955967,0.396369,-0.775955,0.758465,0.0412934,0.408438,-0.0506822,0.0854581,-0.0157793
-0.0989887,0.410973,-0.764792,0.785543,0.0685817,0.476246,-0.0229427,0.0974844,0.041212
-0.102759,0.425191,-0.752431,0.732639,0.0287022,0.487508,-0.0242465,0.107136,0.089962
-0.108326,0.437745,-0.740949,0.622167,-0.118072,0.40826,-0.0662495,0.101052,0.0990554
-0.115489,0.447907,-0.732838,0.464044,-0.234567,0.190899,-0.115052,0.0737045,0.10194
-0.121902,0.454451,-0.729886,0.220948,-0.266157,0.0217479,-0.103007,0.0849957,0.0970195
-0.127299,0.457388,-0.729525,0.0950987,-0.262321,-0.0175258,-0.077653,0.0784929,0.0327103
-0.13201,0.458625,-0.729892,0.0204523,-0.21939,-0.0320036,-0.0700096,0.101361,0.00270641
-0.135079,0.459051,-0.730557,0.0407634,-0.0892203,-0.0195592,-0.0544899,0.122709,0.00212252
-0.135224,0.46173,-0.729308,0.254072,0.121028,0.0884523,-0.0152912,0.152697,-0.0344138
-0.133162,0.468084,-0.726262,0.388701,0.195541,0.0789862,-0.0270817,0.121389,-0.00345129
-0.130412,0.475859,-0.723941,0.394542,0.203306,0.0348524,-0.0425775,0.109408,0.0573921
-0.126287,0.483256,-0.721781,0.368895,0.32365,0.0732372,-0.00361433,0.0972634,0.0773487
-0.120929,0.490382,-0.717598,0.383536,0.396014,0.221083,0.0627014,0.072159,0.050073
-0.116773,0.496902,-0.709621,0.3357,0.381438,0.388288,0.0859379,0.0480853,0.042007
-0.115129,0.501589,-0.698787,0.243414,0.315777,0.500608,0.0739606,0.0401917,0.0487798
-0.115323,0.504754,-0.685594,0.218412,0.313271,0.615017,0.0751286,0.0692703,0.00926524
-0.116266,0.507481,-0.670161,0.196002,0.338198,0.698791,0.0685319,0.0663761,0.0202163
-0.118135,0.508713,-0.65303,0.0876154,0.310669,0.784406,0.0558477,0.0361872,0.0426997
-0.120789,0.506999,-0.634087,-0.0467457,0.366603,0.886085,0.0390075,-0.00602135,0.0658037
-0.122551,0.503495,-0.613093,-0.052634,0.474179,0.982178,0.0448489,0.0123971,0.0545588
-0.123058,0.501128,-0.590371,0.0871925,0.562221,1.02179,0.0405313,0.0471879,0.0199602
-0.122717,0.502666,-0.566751,0.303467,0.59948,1.01684,0.0324991,0.0486271,-0.0369352
-0.122389,0.506607,-0.542413,0.319486,0.600071,1.07422,0.0339196,0.0122216,0.00516886
-0.123977,0.50917,-0.515543,0.224681,0.553866,1.23715,0.0476092,-0.0130815,0.0242847
-0.127556,0.510011,-0.48535,0.213015,0.564709,1.36393,0.0548082,-0.0104707,-0.00817609
-0.132139,0.511431,-0.453273,0.296072,0.542024,1.39893,0.0463536,0.0162197,-0.0389841
-0.137064,0.514096,-0.420334,0.342544,0.63002,1.42197,0.040604,0.0398898,-0.0568777
-0.138296,0.516798,-0.386679,0.333348,0.901353,1.45284,0.0226695,0.0233347,-0.0533695
-0.135839,0.519563,-0.352232,0.361412,1.03999,1.47518,0.0072145,0.0275368,-0.0636201
-0.131574,0.523216,-0.317802,0.380814,1.09874,1.44113,0.00643434,0.015202,-0.0779463
-0.126658,0.525648,-0.283654,0.216371,1.0933,1.49478,0.0355969,-0.0158659,-0.0798417
-0.124403,0.524332,-0.24693,0.0806236,0.967887,1.69119,0.0685643,-0.0260071,-0.138468
-0.126773,0.522014,-0.20586,0.176769,0.87404,1.87036,0.0548466,0.0138093,-0.210681
-0.13103,0.523308,-0.161586,0.450226,0.950466,1.89713,-0.00819822,0.10717,-0.210636
-0.131618,0.52897,-0.118236,0.571345,1.17495,1.7417,-0.0658212,0.140966,-0.106206
-0.126789,0.535379,-0.0784212,0.483055,1.31256,1.60974,-0.0281456,0.138219,-0.0173575
-0.120206,0.539462,-0.0401895,0.337456,1.28741,1.64188,0.0631679,0.101977,-0.00910711
-0.116581,0.541197,0.000402373,0.24842,1.17286,1.81644,0.12832,0.0918534,-0.0533428
-0.117183,0.540718,0.0448844,0.148934,1.07659,1.97738,0.148728,0.0969512,-0.0847436
-0.120178,0.538281,0.0920926,0.100993,1.06229,2.07793,0.130356,0.132702,-0.106693
-0.123938,0.5354,0.140527,0.123174,1.03925,2.0898,0.0720201,0.165901,-0.117526
-0.127742,0.532457,0.188725,0.0936056,1.04634,2.07581,0.0415217,0.168785,-0.100643
-0.131127,0.528314,0.236643,0.0365031,1.04017,2.09332,0.0731757,0.172444,-0.0711093
-0.135279,0.523768,0.285353,0.0941407,0.98711,2.15259,0.0933491,0.191843,-0.106601
-0.141207,0.520949,0.334978,0.213283,0.900258,2.14616,0.0615371,0.195366,-0.116856
-0.147528,0.519566,0.383714,0.240058,0.914802,2.06858,0.0192122,0.174131,-0.0931156
-0.151935,0.518073,0.43026,0.221799,0.947143,1.96214,0.00549828,0.153715,-0.0577369
-0.155123,0.516978,0.474576,0.273662,0.92681,1.88202,0.0166201,0.15609,-0.0623557
-0.155123,0.516978,0.474576,0.273662,0.92681,1.88202,0.0166201,0.15609,-0.0623557
-0.158291,0.517455,0.517553,0.356691,0.887775,1.81311,0.038361,0.175089,-0.0652764
-0.161494,0.519274,0.55931,0.38724,0.865557,1.75154,0.0352269,0.167057,-0.0509842
-0.164607,0.520963,0.599407,0.343864,0.820582,1.6685,0.0300809,0.147648,-0.027318
-0.167398,0.522082,0.637555,0.316594,0.829625,1.58549,0.0223053,0.140882,-0.0198603
-0.167817,0.522714,0.673397,0.271271,0.925032,1.47934,0.026288,0.133648,-0.000914395
-0.165551,0.523041,0.70722,0.262031,0.976671,1.4228,0.0570849,0.144994,-0.0195789
-0.163057,0.52382,0.740236,0.281886,0.910596,1.39776,0.0762225,0.127938,-0.0423605
-0.161856,0.524239,0.772507,0.197377,0.846101,1.35943,0.0629703,0.101476,-0.0118666
-0.160319,0.522809,0.803323,0.100554,0.855493,1.307,0.0474894,0.0911281,0.00168687
-0.157644,0.520477,0.832743,0.0868533,0.883381,1.2655,0.0350683,0.0943701,-0.0352199
-0.153401,0.51834,0.861338,0.0702862,0.968661,1.2138,0.0105671,0.0841687,-0.0492419
-0.146966,0.515546,0.887796,-0.000789678,0.964737,1.11419,0.00887413,0.0763232,-0.0441406
-0.140238,0.511755,0.912067,-0.0591843,0.902175,1.04977,0.0172727,0.0741962,-0.06514
-0.13387,0.507264,0.935108,-0.111154,0.869676,1.0198,0.0235082,0.0534144,-0.0673983
-0.127542,0.502036,0.957473,-0.137206,0.840896,0.998223,0.0206964,0.0341436,-0.0585854
-0.121724,0.497229,0.9794,-0.0948233,0.783461,0.987448,0.0200042,0.0289484,-0.0858629
-0.117848,0.493186,1.00124,-0.0900514,0.636807,0.971663,0.0111563,0.0173342,-0.0930844
-0.116485,0.488541,1.02256,-0.155596,0.532001,0.961365,-0.0163466,-0.00690374,-0.0700786
-0.115544,0.483312,1.04367,-0.121158,0.561249,0.955205,-0.0292963,0.0144123,-0.0751401
-0.113621,0.480204,1.0643,0.0226545,0.5781,0.892976,-0.0502796,0.037537,-0.0880868
-0.11154,0.479579,1.08343,0.0816345,0.498814,0.806436,-0.0641817,0.0207774,-0.0675577
-0.110419,0.479292,1.10067,0.0603964,0.430564,0.730907,-0.0606998,-0.00196856,-0.0188084
-0.108757,0.479406,1.1166,0.114768,0.482454,0.679119,-0.0669931,0.00588405,-0.0187756
-0.10496,0.480635,1.131,0.132215,0.555906,0.57294,-0.0675644,0.00908023,0.0122997
-0.0994975,0.481787,1.14287,0.0905554,0.521152,0.47274,-0.0366077,0.0130921,0.0439101
-0.0952787,0.482562,1.15373,0.0876266,0.406635,0.488235,0.00344529,0.00868168,0.024507
-0.0929033,0.483069,1.1649,0.0418536,0.364297,0.482242,0.00447193,0.0050115,0.0223795
-0.0905958,0.48233,1.17521,-0.0288308,0.34741,0.434461,-0.0364724,-0.00366914,0.0184527
-0.0876587,0.480797,1.18407,-0.0479242,0.367753,0.360263,-0.0447086,0.00568312,0.0087719
-0.0836209,0.479384,1.19142,-0.0280583,0.364661,0.314333,-0.0334047,0.00703937,-0.00450814
-0.0803607,0.478891,1.19855,0.031256,0.292023,0.319402,-0.0127252,0.00229934,-0.0121015
-0.0781616,0.479401,1.20539,0.0694354,0.249518,0.27528,-0.00466409,-0.00347373,0.00550354
-0.0760816,0.481064,1.21114,0.138008,0.238555,0.227519,-0.00933965,-0.00170925,-0.00426012
-0.0734057,0.483234,1.21592,0.0749603,0.245208,0.183836,0.00915609,-0.00534087,0.0272622
-0.0713511,0.483328,1.22038,-0.0129289,0.154147,0.22474,0.0452564,-0.0085535,0.0276554
-0.0714805,0.482837,1.22587,0.00593159,0.108944,0.258484,0.0601117,-0.00573802,-0.0128359
-0.0719654,0.483075,1.23165,0.0539191,0.108157,0.244695,0.0441442,0.0139121,-0.028739
-0.0720967,0.484005,1.23668,0.0543228,0.109344,0.188166,0.0226989,0.00765589,-0.0249217
-0.071558,0.484248,1.24036,-0.0140009,0.117827,0.145576,0.0307449,0.000638336,-0.00206643
-0.0703133,0.483221,1.24361,-0.0543785,0.151232,0.155366,0.0562757,0.0189095,-0.00276309
-0.0692598,0.48249,1.24732,0.012089,0.115403,0.173341,0.0565588,0.0300266,-0.0328923
-0.068936,0.4829,1.25103,0.0446726,0.0808268,0.150098,0.0301822,0.0263611,-0.0323145
-0.0690093,0.483363,1.25399,0.0124045,0.0445091,0.119815,0.0166976,0.0109782,-0.00201589
-0.0690543,0.483063,1.2565,-0.0135875,0.0582556,0.115289,0.0224995,-0.0084067,0.00535309
-0.0681014,0.48233,1.25874,-0.0353117,0.11464,0.103892,0.0263805,-0.013725,0.00695568
-0.0663916,0.480332,1.26062,-0.143106,0.113648,0.085628,0.0400978,-0.0205922,0.0128936
-0.0654805,0.475946,1.26228,-0.274673,0.043853,0.101742,0.0420634,-0.0232203,-0.0176013
-0.0661491,0.469722,1.26475,-0.321659,0.0122878,0.16672,0.0227632,-0.000441223,-0.0531727
-0.0669917,0.46357,1.26861,-0.265831,0.0782284,0.218028,-0.0119921,0.0204017,-0.0579077
-0.0665565,0.459311,1.27291,-0.132966,0.144348,0.184615,-0.0457475,0.0266591,-0.0329337
-0.0643199,0.457746,1.27575,-0.0349935,0.195511,0.0806029,-0.0555923,0.0204034,0.0154962
-0.060653,0.456946,1.27632,-0.0543732,0.176939,-0.0168653,-0.0385749,-0.0224437,0.0649737
-0.0576184,0.455622,1.27556,-0.0788891,0.0970941,-0.0297412,-0.0356598,-0.0726591,0.0569741
-0.0558341,0.453522,1.27525,-0.145789,0.0898606,0.0195207,-0.0256114,-0.0924905,0.0530875
-0.0558341,0.453522,1.27525,-0.145789,0.0898606,0.0195207,-0.0256114,-0.0924905,0.0530875
-0.0538467,0.44999,1.27545,-0.182429,0.12727,-0.00459007,-0.0250082,-0.0763502,0.0404733
-0.0524476,0.447464,1.27464,-0.0786368,-0.0181094,-0.0412948,-0.0451297,-0.0523658,-0.039588
-0.0520321,0.446073,1.27348,-0.0998146,0.0469076,-0.0597812,-0.0271925,-0.0282293,-0.043012
-0.0497647,0.44323,1.27202,-0.205499,0.0891733,-0.0521098,-0.0314785,-0.0546612,0.00587535
-0.0488357,0.438795,1.27148,-0.229773,-0.017843,0.034022,-0.0215279,-0.0290696,-0.019109
-0.0497578,0.435157,1.27294,-0.113876,0.00610243,0.0961718,-0.0317413,0.0308511,-0.0555151
-0.0502307,0.434605,1.27474,0.0614433,0.00684495,0.0719689,-0.0513362,0.0451673,-0.070075
-0.0513485,0.43642,1.27632,0.0922803,-0.0457896,0.0659925,-0.0601437,0.0321791,-0.0161272
-0.0528741,0.437046,1.27808,-0.0323948,-0.0111901,0.0990321,-0.057007,-0.000166416,0.06218
-0.0532623,0.435075,1.28071,-0.147277,0.0860546,0.144421,-0.0579694,-0.0152588,0.0897414
-0.052142,0.431316,1.28334,-0.195819,0.116231,0.0904613,-0.0819272,-0.0315793,0.0852671
-0.0504392,0.427539,1.2838,-0.177456,0.0759593,-0.0231405,-0.12215,-0.0680941,0.0482205
-0.0480066,0.424028,1.28243,-0.190234,0.13683,-0.0702291,-0.091897,-0.0553921,0.0441322
-0.0440184,0.420085,1.28057,-0.201959,0.132874,-0.0754352,-0.0631543,-0.0641468,0.0480341
-0.0415915,0.416463,1.27905,-0.18563,0.121032,-0.0572794,-0.046203,-0.0609559,0.00634003
-0.0377934,0.413183,1.27752,-0.16692,0.202224,-0.0794192,-0.0635398,-0.0777521,0.000673175
-0.0338149,0.410262,1.27601,-0.134591,0.129889,-0.0459387,-0.0411711,-0.0836024,-0.0121122
-0.0318282,0.408215,1.27586,-0.085016,0.100367,0.0342523,-0.0180027,-0.0675059,-0.019722
-0.0293386,0.406766,1.27734,-0.0714033,0.224878,0.0942638,-0.0144714,-0.0479622,-0.00172889
-0.024626,0.405213,1.27961,-0.0892399,0.334265,0.109536,-0.0140069,-0.0368003,0.029076
-0.0178327,0.403177,1.28195,-0.123385,0.452252,0.111014,-0.00981256,-0.0350717,0.0354873
-0.00895364,0.400423,1.28458,-0.148451,0.545178,0.146442,-0.00980586,-0.0311207,0.0297917
0.00145393,0.397369,1.28832,-0.14515,0.622354,0.20034,-0.0108621,-0.0335078,-0.0027234
0.0114016,0.394906,1.29295,-0.115374,0.513969,0.207239,-0.0189772,-0.0247635,-0.0165872
0.0199311,0.392558,1.29666,-0.120482,0.547571,0.126882,-0.0762293,-0.0175626,0.00422478
0.0320394,0.389781,1.29823,-0.183617,0.712418,0.0140511,-0.0782151,-0.00944933,0.0219604
0.0465412,0.384545,1.29809,-0.346414,0.718253,-0.0376786,-0.0389,-0.0177912,0.0606699
0.0600805,0.376552,1.29795,-0.422697,0.630904,-0.00825038,-0.00650587,-0.0221303,0.0520852
0.0711951,0.368993,1.29869,-0.327473,0.504422,0.0249375,-0.0111253,0.00478002,0.0106354
0.0791218,0.363469,1.29971,-0.240996,0.329015,0.0272312,-0.0210801,0.0106552,0.0210851
0.0838269,0.359044,1.30069,-0.215136,0.18806,0.0295529,0.00103236,0.0022279,0.0368427
0.0866554,0.355415,1.30232,-0.154728,0.160608,0.10469,0.0356833,-0.00512448,0.00892049
0.0875914,0.353402,1.30585,-0.076682,0.0404788,0.203171,0.0530128,0.0147015,0.0135071
0.0854644,0.352783,1.31075,-0.0448598,-0.068643,0.236954,0.0463767,0.0199189,0.0125806
0.0830416,0.351529,1.31531,-0.116345,-0.0269169,0.173847,0.00115145,0.00389504,0.0210307
0.080967,0.348823,1.3187,-0.186748,-0.0677221,0.134598,-0.0141638,0.0110119,0.000188768
0.0786715,0.344565,1.32182,-0.262943,-0.0455366,0.115724,-0.0137903,-0.010159,-0.00733685
0.0776677,0.338785,1.32373,-0.325958,0.0205887,0.0144201,-0.0451947,-0.0135291,-0.00725502
0.0793774,0.331963,1.32386,-0.348207,0.165367,-0.0325364,-0.0479721,-0.0117468,-0.00668436
0.0838746,0.32529,1.32434,-0.318818,0.27275,0.0330109,0.0127345,0.00520688,-0.0125754
0.0880859,0.319832,1.32659,-0.235138,0.188862,0.12533,0.0434118,0.00120515,-0.011988
0.0888118,0.31702,1.33006,-0.0622054,-0.0167779,0.169694,0.0326376,-0.00135827,-0.0283993
0.0851215,0.318253,1.33367,0.153262,-0.239679,0.180293,0.0158235,-0.00516191,-0.0323387
0.0771905,0.323327,1.33706,0.313718,-0.439856,0.185336,0.00418295,-0.0201526,-0.0299205
0.0662904,0.330688,1.34038,0.383844,-0.528151,0.177954,-0.0133975,-0.031553,-0.0174552
0.0548923,0.337878,1.34342,0.292624,-0.496706,0.148802,-0.0321246,-0.045818,0.0199657
0.0456427,0.341794,1.34589,0.0813181,-0.327365,0.106207,-0.0379979,-0.0512817,0.0535089
0.0410047,0.341425,1.34771,-0.120131,-0.0798116,0.062766,-0.0398783,-0.0347833,0.0584756
0.0408586,0.33769,1.34888,-0.240364,0.0880211,0.0340025,-0.0191006,-0.00168389,0.0409558
0.043521,0.332938,1.34979,-0.220212,0.19394,0.0370828,0.0205274,0.0339897,-0.00589716
0.0467887,0.329511,1.35083,-0.12475,0.138207,0.0463842,0.0381117,0.0741759,-0.0147196
0.0472294,0.327985,1.35196,-0.0342104,-0.0701041,0.0507133,0.0425393,0.0748067,-0.00712115
0.0434595,0.328168,1.35315,0.0442105,-0.257989,0.0624622,0.0421094,0.0514046,-0.00312716
0.0434595,0.328168,1.35315,0.0442105,-0.257989,0.0624622,0.0421094,0.0514046,-0.00312716
0.0369872,0.329726,1.3544,0.105004,-0.336475,0.0648458,0.037111,0.0437238,0.00175846
0.0297875,0.332296,1.35587,0.149862,-0.340172,0.0858769,0.0337664,0.0306361,0.00116628
0.0223702,0.335229,1.35785,0.148245,-0.360331,0.117619,0.024821,0.00588036,0.00765169
0.0137797,0.337833,1.36071,0.110007,-0.400898,0.156463,0.0223543,-0.0162436,0.00825071
0.00477365,0.340162,1.36446,0.122769,-0.37432,0.200651,0.014787,-0.0149777,-0.0102215
-0.00437331,0.342855,1.36909,0.142739,-0.403961,0.230066,0.00147902,-0.0104717,-0.0184764
-0.0146699,0.345636,1.37393,0.137999,-0.459507,0.21975,-0.0178144,-0.0183366,-0.0220707
-0.0252671,0.34822,1.37819,0.129494,-0.438124,0.169019,-0.0339301,-0.0187451,-0.0199437
-0.0338094,0.350681,1.38107,0.124525,-0.311828,0.0918519,-0.0506518,-0.00927606,-0.0240443
-0.0386622,0.353047,1.3823,0.112835,-0.136866,0.0183778,-0.0537124,-0.00357601,-0.0259398
-0.0397282,0.354914,1.38206,0.0740123,0.0197779,-0.0437313,-0.0511518,-0.00789756,-0.0094595
-0.0375885,0.355919,1.38075,0.022907,0.132513,-0.0789464,-0.0308919,-0.00875622,-0.000118315
-0.0340015,0.356102,1.37892,-0.00249021,0.149301,-0.0877776,-0.00729179,-0.00585318,-0.00436479
-0.030866,0.356441,1.37716,0.0366462,0.101069,-0.0751634,0.00920696,0.000796735,-0.0123984
-0.0291928,0.357746,1.37575,0.0868732,0.0150699,-0.0621002,0.0168885,0.000874549,-0.0147908
-0.0297112,0.359804,1.37471,0.114843,-0.0943148,-0.0492019,0.0175965,-0.00102848,-0.00927126
-0.0321202,0.362404,1.37365,0.136176,-0.177724,-0.0594506,0.0141139,-0.00300542,-0.00262994
-0.0360322,0.364962,1.37233,0.11138,-0.252149,-0.0702374,0.00615543,-0.00813779,-0.00149697
-0.0400827,0.366906,1.37057,0.085264,-0.205323,-0.0995364,0.00029546,0.00402373,-0.00511336
-0.0423066,0.368533,1.3682,0.0751719,-0.122267,-0.118935,0.00406909,0.0091885,-0.0058136
-0.0433465,0.369986,1.36579,0.0711318,-0.0753182,-0.103129,0.00367275,0.00729355,-0.0132761
-0.0435384,0.371747,1.36392,0.0987752,-0.0240233,-0.0732813,0.00647878,0.00864506,-0.0249994
-0.0432609,0.373969,1.36274,0.12127,-0.00112539,-0.0474608,0.00679589,0.0134908,-0.0234163
-0.0429253,0.376546,1.36171,0.145989,-0.0101379,-0.0627619,0.00299468,0.0120592,-0.0100339
-0.0427186,0.37978,1.36021,0.18053,-0.0267296,-0.0826382,-0.00115459,0.0076794,-0.00351298
-0.0430566,0.383128,1.35893,0.147879,-0.0587761,-0.0450997,0.00461383,0.000364423,0.0126541
-0.0437984,0.385455,1.35825,0.106184,-0.0335724,-0.0340089,0.0191943,0.0116924,0.0109897
-0.0438151,0.387665,1.35764,0.125457,-0.00462616,-0.0305763,0.00908724,0.00968024,0.00860035
-0.043997,0.390001,1.35728,0.113727,-0.022578,-0.013174,-0.000747472,-0.00126481,0.0148948
-0.0443504,0.391532,1.35722,0.0338028,-0.00729046,-0.000968702,0.000438191,-0.00552592,0.0239111
-0.0438588,0.391082,1.35698,-0.0662601,0.0404244,-0.0206931,0.002662,0.000284135,0.0218441
-0.0425686,0.389472,1.35639,-0.0815516,0.0496768,-0.0153588,0.000397801,0.00439507,-0.00224215
-0.0420647,0.387997,1.35663,-0.0672005,0.0172693,0.0466299,0.0144057,-0.00665915,-0.0285804
-0.0422906,0.387027,1.35811,-0.0252661,0.0190605,0.0840699,0.0178802,0.00916636,-0.0333957
-0.0425634,0.387245,1.35962,0.052665,0.0115611,0.0472549,-0.00288226,0.00859019,-0.0339007
-0.0423151,0.389033,1.35993,0.125156,0.0166102,-0.0242978,-0.0148746,0.00574309,-0.0178888
-0.0419649,0.391592,1.35918,0.11459,-0.0200231,-0.0398306,-0.00223873,0.00450891,0.010464
-0.0425501,0.392935,1.35901,0.0214926,-0.0377573,0.0270223,0.0253795,-0.0215482,0.0202127
-0.0430987,0.392706,1.36019,-0.00725373,0.0218281,0.0786163,0.0368912,-0.0134435,-0.00616503
-0.0437733,0.392891,1.36194,0.0349065,-0.0490551,0.0775523,0.0144699,-0.00797758,-0.0310584
-0.0469653,0.393582,1.36313,0.0394477,-0.200071,0.0218203,-0.0125192,-0.0431823,-0.00937718
-0.0508917,0.394214,1.36312,0.00895001,-0.178985,-0.0101218,-0.0120682,-0.0504727,-0.0123295
-0.052871,0.393917,1.3632,-0.0351787,-0.0200209,0.0350207,0.0032363,-0.0146899,-0.0291564
-0.052096,0.393069,1.36458,-0.0270483,0.138521,0.0962354,0.0154781,0.00767434,-0.0467842
-0.0496158,0.393594,1.36698,0.0938877,0.178153,0.110321,-0.00137698,0.0333213,-0.058557
-0.0476292,0.396712,1.36911,0.217207,0.104308,0.0613077,-0.0196698,0.0390367,-0.0385026
-0.0462038,0.401653,1.36995,0.259448,0.0829599,-0.00404372,-0.00537045,0.041728,0.00122076
-0.0444651,0.405979,1.36984,0.162179,0.0803213,-0.0165817,0.0190631,0.0424863,0.0533367
-0.0429398,0.407626,1.36998,0.00938951,0.0766273,0.0280687,0.0386312,0.0280535,0.0745516
-0.0420561,0.406239,1.37131,-0.129536,0.0659596,0.106232,0.0346394,0.01445,0.0656896
-0.0420818,0.402898,1.37429,-0.171531,0.0506263,0.178753,0.015187,0.00558081,0.0315562
-0.0429802,0.399636,1.37841,-0.123196,0.00706801,0.204733,0.00314334,0.0120229,-0.00341499
-0.0453257,0.398066,1.38226,-0.0199016,-0.103404,0.150393,-0.0180164,0.0177022,-0.0100272
-0.0494682,0.398266,1.38461,0.033561,-0.225678,0.0687874,-0.0198365,0.0170015,0.00605661
-0.0494682,0.398266,1.38461,0.033561,-0.225678,0.0687874,-0.0198365,0.0170015,0.00605661
-0.0555759,0.398564,1.38565,-0.019271,-0.341135,0.0380366,-0.00747657,0.00508475,0.0302274
-0.0630675,0.397095,1.38664,-0.120926,-0.351869,0.0672526,0.00126734,-0.0030604,0.0406249
-0.0698981,0.393666,1.38822,-0.203285,-0.262499,0.0963944,-0.00790393,-0.00767404,0.0352371
-0.0743931,0.38878,1.38992,-0.270588,-0.122913,0.0954291,-0.015527,-0.00752157,0.0285561
-0.0761677,0.382801,1.39129,-0.316769,-0.017508,0.0698453,-0.0117804,-0.00375307,0.0194759
-0.0762006,0.376483,1.39167,-0.301604,0.0219387,0.0131283,-0.028982,0.00301281,-0.00281942
-0.0754035,0.371207,1.39108,-0.222297,0.034344,-0.0210811,-0.0193831,-0.000388265,-0.0172299
-0.0744066,0.368072,1.39036,-0.0936376,0.0332249,-0.0149518,-0.00632454,0.00154042,-0.0270934
-0.0739924,0.367245,1.39031,-0.00316414,-0.00157117,0.0173214,0.00492396,-0.00423539,-0.0234422
-0.0747955,0.367183,1.39087,-0.0200774,-0.0494415,0.0284676,0.00066825,-0.0145629,-0.0143355
-0.0759467,0.365851,1.39138,-0.109999,-0.0225418,0.0290466,-0.00563993,-0.0282418,0.00751323
-0.0755683,0.362907,1.39188,-0.17271,0.0913363,0.0414853,-0.00539428,-0.0282461,0.0136521
-0.0723571,0.359176,1.39227,-0.186987,0.239108,0.017975,-0.0145336,-0.0149679,-5.48363e-05
-0.0664184,0.35607,1.39179,-0.1225,0.322379,-0.0473283,-0.0214727,0.00018996,-0.0182839
-0.0595421,0.354674,1.3899,-0.0486185,0.292927,-0.120423,-0.0260449,0.000864089,-0.0264264
-0.0532352,0.354396,1.38698,-0.00706924,0.256997,-0.142958,-0.0066914,0.00171745,-0.0214191
-0.0470918,0.354726,1.38422,0.0193361,0.280519,-0.11255,0.0132599,0.00393417,-0.0252729
-0.0409116,0.355454,1.38254,0.0471791,0.287315,-0.0556748,0.0243665,0.00354907,-0.0184962
-0.0355474,0.356483,1.38192,0.0471332,0.229033,-0.0155889,0.0155443,0.000561416,-0.0087288
-0.0316092,0.357077,1.38181,0.00567748,0.166085,0.00074038,0.00151902,-0.00916687,0.000953555
-0.0284726,0.356772,1.38188,-0.0278805,0.166206,0.00829257,-0.000652425,-0.0107192,0.00857937
-0.0245211,0.356439,1.38204,0.00579823,0.231824,0.00373131,0.00314111,0.00166449,-0.00429845
-0.0194632,0.357137,1.38214,0.0727283,0.280602,0.00743736,-0.000488572,0.00842214,-0.00987017
-0.0132049,0.359678,1.38261,0.188889,0.367349,0.0341201,-4.57913e-05,0.0126634,-0.0361174
-0.00633164,0.364333,1.38385,0.260774,0.342008,0.0735581,0.00567188,0.0139345,-0.0178514
-0.00194128,0.369144,1.38564,0.205989,0.146136,0.0882854,0.00896691,0.00507358,0.029986
-0.00161502,0.372125,1.38765,0.0963057,-0.0113383,0.108712,0.0164581,-0.0109612,0.0451266
-0.00271408,0.373444,1.39078,0.0411283,0.0258044,0.18781,0.0304201,-0.00567487,0.025815
-0.00376368,0.373485,1.39525,-0.0296693,0.0168403,0.223811,0.017878,0.00806606,0.0268496
-0.00568459,0.372865,1.40026,-0.00723817,-0.0289875,0.24538,0.0166007,0.00777906,-0.00790614
-0.00911131,0.373466,1.40552,0.0681332,-0.12762,0.23621,0.00826953,0.00675103,-0.0109562
-0.0145318,0.374901,1.41008,0.0699543,-0.242589,0.183636,-0.00802339,0.000518829,0.00667852
-0.0210349,0.375742,1.4133,0.0166618,-0.285798,0.115888,-0.017818,-0.0143545,0.0282202
-0.0270536,0.375339,1.41514,-0.044555,-0.246377,0.0570379,-0.0242102,-0.0185441,0.0325058
-0.0310832,0.374147,1.41553,-0.069173,-0.146671,-0.0136956,-0.040484,-0.0165552,0.0129963
-0.0328694,0.372294,1.41452,-0.119564,-0.075945,-0.0671985,-0.032666,-0.0211039,0.0208665
-0.033097,0.369598,1.41279,-0.156906,-0.00806571,-0.0749639,-0.0142943,-0.0237996,0.0138711
-0.0322096,0.366822,1.41133,-0.128241,0.0410129,-0.0501962,0.000978306,-0.014045,-0.00643504
-0.0313735,0.365024,1.41062,-0.0696248,0.0269964,-0.0159587,0.00401784,-0.00476801,-0.0234216
-0.0314107,0.364161,1.41061,-0.0426383,-0.0227361,0.00868378,0.0042301,-0.00667351,-0.0232828
-0.032578,0.363492,1.41087,-0.0362844,-0.0744598,0.0118274,0.004733,-0.0159659,-0.0169456
-0.0345551,0.362979,1.41102,-0.0231924,-0.107239,0.0062165,0.00495346,-0.0169482,-0.0147964
-0.0365614,0.362755,1.4111,0.00105425,-0.0860097,0.00982834,0.00583888,-0.00629362,-0.0168129
-0.0378246,0.363145,1.41147,0.0431344,-0.0280153,0.0304438,0.0143228,-0.00348771,-0.0264404
-0.0382259,0.364322,1.41251,0.0719846,0.0185657,0.0627874,0.0176571,-0.00629368,-0.0260034
-0.038342,0.365775,1.4141,0.0776507,0.0185644,0.0789273,0.0138547,-0.00722513,-0.0274414
-0.038702,0.367323,1.4159,0.0796304,0.013113,0.0850073,0.00945415,-0.00918275,-0.0164273
-0.0388813,0.368739,1.41775,0.0673342,0.0431135,0.079751,0.00682451,-0.00558847,-0.00249267
-0.0379578,0.369918,1.41938,0.0597398,0.103384,0.0688592,0.00643584,0.0106171,-0.0021981
-0.0358472,0.370979,1.42084,0.0556594,0.152284,0.0681911,0.011261,0.0225013,0.0056386
-0.0331038,0.372056,1.42246,0.0631568,0.173205,0.0846984,0.0180464,0.02529,0.00663304
-0.0305665,0.37338,1.42446,0.0737713,0.146783,0.0954895,0.0181869,0.0244326,0.00753862
-0.0288707,0.374902,1.42651,0.0873598,0.102722,0.0879024,0.00862746,0.0245368,0.00725853
-0.0271694,0.376878,1.4286,0.135809,0.171138,0.107791,0.00809338,0.0248488,-0.0146319
-0.0271694,0.376878,1.4286,0.135809,0.171138,0.107791,0.00809338,0.0248488,-0.0146319
-0.023138,0.379877,1.43132,0.17663,0.325728,0.136518,0.0111412,0.0206933,-0.0186055
-0.0169275,0.383152,1.43456,0.161105,0.374553,0.166464,0.00594904,0.0183007,-0.00178015
-0.0123352,0.385894,1.43869,0.134055,0.227327,0.213948,0.0167226,0.00797889,0.0204472
-0.0114958,0.388174,1.44353,0.111679,0.0513864,0.229491,0.0161029,0.00322413,0.0314061
-0.0129531,0.390134,1.44856,0.0829981,0.0199654,0.236774,0.0105451,0.00558683,0.023978
-0.0140369,0.391233,1.45348,0.0240435,0.0579859,0.209869,-0.00412922,0.00475654,0.0243243
-0.0141727,0.391277,1.45736,-0.0133567,0.0696843,0.152131,-0.0201935,-0.00394598,0.013594
-0.0141092,0.390624,1.46005,-0.0479723,0.0292949,0.102062,-0.0202182,-0.0107448,0.0034219
-0.0147549,0.389447,1.46188,-0.0734328,-0.0228935,0.0709368,-0.0119089,-0.0084154,0.00534087
-0.0159584,0.387812,1.46309,-0.0859648,-0.041717,0.0434609,-0.012922,-0.00689176,0.00423414
-0.0166133,0.386123,1.46374,-0.0839517,0.00847477,0.013868,-0.0195379,-0.0155815,-0.00850523
-0.0159798,0.38471,1.46372,-0.0647615,0.0569557,-0.0143271,-0.0221762,-0.0108177,-0.00898695
-0.0144505,0.383521,1.46359,-0.0618278,0.0966227,0.00684911,-0.00149233,-0.0114323,-0.00307226
-0.0124708,0.38253,1.46423,-0.042628,0.109801,0.0515242,0.0171386,-0.00765207,-0.013404
-0.0118114,0.382003,1.46557,-0.00910392,0.00387435,0.0645823,0.0105936,-0.0037764,-0.00639486
-0.0132044,0.382286,1.46681,0.0312513,-0.0782569,0.0469241,-0.00242803,-0.0112041,-0.0128642
-0.0152847,0.38322,1.46779,0.0577691,-0.0747914,0.0421016,-0.00460804,-0.00750026,-0.00849473
-0.0167934,0.384242,1.46862,0.0448585,-0.0495725,0.0368027,-0.00452763,-0.0112364,0.000178993
-0.0177549,0.385064,1.46938,0.037396,-0.0311647,0.0390134,0.00313306,-0.0144573,-0.00145698
-0.0184927,0.385661,1.47039,0.0207536,-0.00959804,0.0502033,0.00474333,-0.0112031,-0.00219738
-0.0188206,0.385939,1.47124,0.0103774,0.00653192,0.0242735,-0.00972536,-0.00676459,0.00169021
-0.0184424,0.386357,1.47159,0.033771,0.0504471,0.0132466,-0.00545525,-0.00659159,-0.0117814
-0.0175381,0.38727,1.47194,0.0466255,0.0313737,0.0139415,0.00540473,0.000784785,0.00185114
-0.0183166,0.387884,1.47195,0.0110047,-0.111585,-0.017158,0.00425967,-0.0139355,0.0221748
-0.0203786,0.388162,1.47159,0.0179998,-0.0698689,-0.0123908,0.00679161,-0.0139686,-0.00460893
-0.0203839,0.388557,1.47159,0.0139013,0.0655553,0.00721445,0.00326864,0.00946862,0.00705159
-0.0187848,0.38828,1.47163,-0.0405891,0.0694017,-0.00652852,0.000249878,-0.00169796,0.0202776
-0.0179721,0.387301,1.47117,-0.0566289,-0.00868736,-0.0338234,0.000496298,-0.0168716,0.00973636
-0.018117,0.386435,1.4703,-0.0358505,-0.0226038,-0.0446324,-0.00128623,-0.00618342,-0.0024212
-0.0178867,0.385939,1.4693,-0.0246401,-0.00596725,-0.0463395,0.00251682,0.00400749,-0.00314599
-0.0176481,0.385296,1.46821,-0.038168,-0.00569719,-0.048692,0.00579436,-0.00194359,2.92063e-05
-0.0171605,0.384632,1.46743,-0.0387741,0.0235891,-0.0243732,0.016791,0.00088948,-0.00807542
-0.016637,0.383987,1.46702,-0.0329934,0.00269739,-0.0190668,0.00910762,0.00410581,-0.00834405
-0.0168247,0.383495,1.46633,-0.00532224,-0.0409349,-0.0457355,-0.00508904,-0.00233153,-0.0171503
-0.0167898,0.384167,1.46545,0.0634476,0.0110698,-0.0241407,0.00680676,0.00732458,-0.0388552
-0.0162322,0.385403,1.46531,0.054821,0.0255738,0.00995238,0.0132708,0.0119034,-0.00345236
-0.0156552,0.386391,1.46541,0.0518393,0.0338791,-0.00571008,0.0020188,-0.00347739,-0.00225937
-0.0151432,0.387302,1.46503,0.0369622,-0.00469403,-0.0302727,-0.00572385,-0.00376257,0.0117169
-0.0151871,0.387879,1.46432,0.0306752,-0.0199751,-0.0322375,0.00259908,-0.0010469,0.016427
-0.015293,0.388056,1.46368,-0.00547316,-0.0135719,-0.0211384,0.00728893,-0.00567451,0.0180524
-0.01497,0.38793,1.46371,-0.0018681,0.0374709,0.0190508,0.0155051,-0.001091,-0.00566876
-0.0148013,0.388,1.46405,0.00352972,-0.0238016,0.0033428,0.000639051,0.00605345,0.00163144
-0.0161062,0.388163,1.46391,0.0111445,-0.0986215,-0.0151239,0.000670947,-0.0100155,-0.00667346
-0.0177824,0.388637,1.46368,0.0333962,-0.0674951,-0.00260444,0.00330236,-0.000802964,-0.0198645
-0.0184778,0.389368,1.46384,0.0337112,-0.00839297,0.0163624,0.0025369,0.00841835,-0.00996047
-0.0185405,0.389872,1.46409,0.0254037,0.00476914,0.00397292,-0.000414645,-0.00377992,-0.00388169
-0.0184299,0.390527,1.46413,0.039574,0.0052234,0.00634479,0.00141633,-0.00602803,-0.00805026
-0.0184782,0.391266,1.46434,0.0313135,-0.00356207,0.0102839,-0.000161663,0.000423312,0.00364542
-0.0185147,0.391782,1.46439,0.0303465,-0.00409288,-0.00559988,0.00018888,-0.0048219,0.000319958
-0.0186334,0.392551,1.46415,0.052163,-0.0118533,-0.0130396,-0.00538319,-0.00118178,-0.00749844
-0.0186534,0.393731,1.46406,0.0606133,0.00714099,0.00248093,0.00817671,0.00483704,-0.00479233
-0.0185834,0.394769,1.46419,0.04459,0.00133165,0.00508251,0.0148948,0.000973672,0.00456065
-0.0187863,0.395594,1.46427,0.0396693,-0.0194956,0.00430581,0.00463913,-0.00287315,-0.00499195
-0.0193491,0.396256,1.46422,0.0279577,-0.0219051,-0.00537585,0.00159813,-0.000309438,-0.000618398
-0.0193491,0.396256,1.46422,0.0279577,-0.0219051,-0.00537585,0.00159813,-0.000309438,-0.000618398
-0.0189999,0.396768,1.46428,0.0222021,0.0589406,0.015013,0.011633,0.0050914,-0.0082714
-0.0175711,0.396857,1.46486,-0.0121329,0.0931921,0.0363354,0.0071715,0.00865275,0.00705326
-0.0159299,0.396612,1.46551,0.000225604,0.0963358,0.0212647,-0.00514369,0.00281197,-0.0118699
-0.0144662,0.397055,1.4657,0.0388184,0.0448405,-0.00677547,-0.00951727,0.0112157,-0.00439101
-0.0145879,0.397731,1.46542,0.0297607,-0.0600604,-0.0152918,0.00527007,0.00552228,0.0119167
-0.0157855,0.398373,1.46548,0.0344266,-0.0406211,0.02491,0.0170665,0.00744152,0.000191748
-0.0166193,0.398878,1.46631,0.00784583,-0.0163065,0.0387057,0.00469386,0.0217164,0.0193009
-0.0171259,0.398656,1.46671,-0.0214099,-0.013923,-0.00186174,-0.00686182,0.0071986,0.0168921
-0.0172233,0.398062,1.46648,-0.0349645,0.00106267,-0.00372723,-0.00292289,0.00837514,0.00756907
-0.0168312,0.397213,1.46672,-0.0500121,0.0444797,0.0239095,0.0101795,0.0148706,0.00553894
-0.0160443,0.395979,1.46713,-0.0672591,0.0349548,0.0123863,-0.00256231,0.00947586,0.00106806
-0.0157988,0.394823,1.4671,-0.0405766,-0.0115379,-0.00952937,-0.0103501,-0.000593573,-0.009561
-0.0163048,0.394274,1.46689,-0.0154123,-0.0313951,-0.000514855,-0.00745351,0.00573525,-0.0147132
-0.0167508,0.394096,1.46718,-0.00466289,-0.00715388,0.0247754,0.0101865,0.0088056,-0.00636607
-0.0171834,0.393733,1.46767,-0.0249822,-0.0200733,0.0145467,0.000487007,0.0077531,0.0101239
-0.0177692,0.393257,1.46783,-0.0203868,-0.0294888,0.00527219,-0.00247845,-0.00138372,0.00399494
-0.0185479,0.392759,1.46816,-0.0353395,-0.0304801,0.0279122,0.000533111,-0.00118724,0.00911623
-0.018875,0.391836,1.46873,-0.0513254,0.0215391,0.0227027,-0.00724527,-0.00980759,0.00606102
-0.0180754,0.39072,1.46896,-0.0592655,0.052045,0.00638173,-0.0114097,-0.0118006,0.000137329
-0.0174009,0.389524,1.46915,-0.0607337,0.0208918,0.0129405,0.00387435,-0.0121281,0.00412774
-0.0173067,0.388416,1.46944,-0.0511037,0.00260289,0.00862844,0.00307731,-0.00697353,-0.00610125
-0.0175006,0.38753,1.46944,-0.0421764,-0.0171363,-0.00400007,-0.00215426,-0.00472632,-0.0104843
-0.018126,0.386922,1.46939,-0.0218054,-0.0465497,0.00403129,0.00656179,-0.00440463,-0.0175281
-0.0191924,0.38686,1.46966,0.00981979,-0.0425394,0.0198587,0.00600844,-0.00115108,-0.0170959
-0.0199464,0.387357,1.47005,0.0340145,-0.0271368,0.0136088,-0.00294067,-0.00290331,-0.0130705
-0.0205528,0.387967,1.4702,0.027464,-0.0305978,-0.00126814,-0.0080298,-0.00986111,-0.000845969
-0.0210133,0.388362,1.4701,0.0148363,-0.0157017,-0.00818408,-0.00647766,-0.01006,0.0040921
-0.020874,0.388594,1.46991,0.0105219,0.0220458,-0.0122658,-0.0080732,-0.00394037,0.00107735
-0.020023,0.388726,1.46952,0.00233389,0.0396295,-0.0246075,-0.00924306,0.00242299,0.00253868
-0.018868,0.388653,1.46881,-0.0113255,0.0605061,-0.0358332,-0.00451288,0.000921071,0.00649339
-0.0172943,0.388278,1.4681,-0.0290659,0.0692811,-0.0298436,0.000701569,-5.51343e-06,0.0101253
-0.0160281,0.387473,1.46745,-0.0520475,0.0365422,-0.0344567,-0.00115195,-0.00239953,0.0104954
-0.0149494,0.386288,1.46665,-0.0618577,0.0510751,-0.0375238,0.0013199,0.000668854,0.00601405
-0.0136329,0.385089,1.46587,-0.0605092,0.0527555,-0.0311367,0.000747547,0.00515813,-0.00317639
-0.0123397,0.383964,1.46537,-0.0496238,0.0599862,-0.0165195,0.0057494,0.0024673,-0.00896442
-0.0110518,0.383327,1.46509,-0.0227534,0.0575702,-0.013582,-0.00154552,0.00547796,-0.0108789
-0.0100421,0.383038,1.46471,-0.00900723,0.0369047,-0.0253701,-0.00792815,0.00125781,-0.00174302
-0.00915204,0.382779,1.46411,-0.0172029,0.0396452,-0.0238233,-0.00315284,0.00428259,0.00289369
-0.00780261,0.382304,1.4637,-0.0284498,0.0876778,-0.0127137,0.00142567,0.00219458,-0.00299168
-0.00544899,0.38173,1.46345,-0.0292277,0.125094,-0.0142893,-0.00339659,0.00288254,-0.00465524
-0.0029042,0.381253,1.46303,-0.0184402,0.114984,-0.0221343,-0.00630699,-0.00122252,-0.00301814
-0.000850994,0.380976,1.46257,-0.012902,0.0739284,-0.0209354,0.00188864,0.000626117,0.000506461
0.000369718,0.380789,1.46221,-0.00324304,0.0348624,-0.0129961,0.00685893,0.000406623,-0.00345206
0.000716315,0.380779,1.46192,0.00817222,-0.0090457,-0.0143828,0.0030429,-0.000472218,-0.0015412
0.000255629,0.381006,1.4615,0.011369,-0.0441103,-0.0215574,0.00293655,-0.00474808,-0.000480831
-0.000307956,0.381029,1.46101,-0.0125924,-0.0105831,-0.022331,0.000621587,-0.00989863,0.0043931
0.000437056,0.380365,1.46068,-0.053813,0.0707538,-0.0119503,-0.00048209,-0.00309944,0.00567746
0.00263935,0.379098,1.4603,-0.0660709,0.136143,-0.024382,-0.00593093,-0.00125566,-0.00111896
0.00571748,0.377898,1.45955,-0.0480852,0.132071,-0.0472234,-0.00926604,-0.00276676,-0.01143
0.00804651,0.377271,1.45856,-0.0171837,0.0579009,-0.0439241,0.00335322,-0.00490651,-0.0157759
0.00873596,0.377248,1.45784,0.00515076,-0.0218953,-0.0327428,0.0137443,-0.00544643,-0.0158644
0.00816773,0.377408,1.45716,0.00380012,-0.0323364,-0.0215735,0.00159299,-0.00480983,-0.00250626
0.00812839,0.377185,1.45689,-0.0233993,0.0258092,-0.00832959,-3.79281e-06,0.0116152,0.0137352
0.00899313,0.376382,1.45679,-0.0532281,0.048144,0.00112446,0.00659013,0.00630623,0.0163583
0.00899313,0.376382,1.45679,-0.0532281,0.048144,0.00112446,0.00659013,0.00630623,0.0163583
0.00963613,0.375089,1.45688,-0.0756136,0.00849035,0.0120158,0.0103058,0.00148669,0.013272
0.00934963,0.373613,1.4573,-0.0692389,-0.0167404,0.0261613,0.0128104,0.00415701,-0.00127691
0.00876317,0.372427,1.45801,-0.0476571,-0.010844,0.0396186,0.00840876,0.0082252,-0.00540215
0.0085166,0.371787,1.45906,-0.0165539,0.0154628,0.0558455,0.0036468,0.0114741,-0.00420612
0.00830085,0.371675,1.46021,0.00251225,-0.00293366,0.0502953,-7.40364e-05,0.00776917,0.00354177
0.00771807,0.37183,1.46132,0.00773477,-0.0199635,0.0562319,0.0060083,0.00606728,0.0128129
0.00692205,0.371724,1.46267,-0.0180321,-0.00136082,0.0702995,0.00758887,0.00699082,0.01658
0.00703092,0.371037,1.4642,-0.0457179,0.0583649,0.0683358,-0.00217313,-0.00314072,0.00414872
0.00797349,0.370021,1.46539,-0.0515955,0.0833317,0.0384594,-0.016589,-0.00352272,-0.00189888
0.00944665,0.369124,1.46605,-0.0315938,0.102323,0.0312632,-0.0132353,0.001286,-0.0129239
0.0113678,0.368747,1.46699,-0.00523303,0.118197,0.0588278,0.00236656,0.00816697,-0.0189101
0.013555,0.369255,1.46844,0.0476426,0.141791,0.0690009,0.000313766,0.00963259,-0.0363764
0.0153162,0.370342,1.46994,0.0580933,0.0936175,0.0740054,-0.00431325,0.0100819,-0.0142558
0.015908,0.371514,1.47193,0.0603041,0.0419732,0.11435,0.00754733,0.0060932,-0.00315362
0.0151811,0.372772,1.47464,0.0669329,-0.00518636,0.141795,0.0082925,0.00355718,0.00207579
0.0136178,0.37392,1.4778,0.0488499,-0.0343347,0.156332,0.00873161,-0.00211895,0.00801075
0.0115973,0.374624,1.48117,0.0317026,-0.0431132,0.15831,0.00837234,-0.00497231,0.01475
0.00906368,0.375422,1.48485,0.0528411,-0.0891843,0.191884,0.00908481,-0.008259,-0.00440794
0.00510869,0.376897,1.48896,0.0906197,-0.160714,0.17881,-0.00745088,-0.00743625,-0.0153303
0.000855103,0.378919,1.492,0.103304,-0.13874,0.103894,-0.0329752,-0.020785,-0.0204439
-0.000977728,0.380734,1.49337,0.0703812,0.0125203,0.0245612,-0.0331041,-0.0171921,-0.00953543
0.000961763,0.381576,1.49349,0.0060143,0.178926,-0.000920467,-0.0199355,-0.0103225,-0.00150204
0.00554351,0.381186,1.49349,-0.0379752,0.253741,-0.000246282,-0.000125423,-0.00680816,-0.00365978
0.0100324,0.380412,1.49347,-0.0293744,0.191565,-0.00498318,0.00617265,-0.00534523,-0.0135056
0.0125834,0.380257,1.49353,0.00886905,0.0842673,0.00758249,0.0131113,-0.00170472,-0.0151077
0.0137338,0.380853,1.49395,0.0471033,0.0743578,0.0229668,0.0127786,0.00487626,-0.00989592
0.0155041,0.382025,1.49401,0.0558881,0.107883,-0.0205249,-0.0209166,0.0113194,-0.00144482
0.018726,0.382705,1.4933,0.00785672,0.220953,-0.0224364,-0.0166226,0.0365627,0.0128073
0.0248494,0.382283,1.49408,-0.0505106,0.396635,0.103048,0.0324277,0.066338,0.0103232
0.0316473,0.381158,1.4973,-0.0563744,0.37579,0.181833,0.0292836,0.0485242,0.00734442
0.0358565,0.380847,1.5014,0.0250985,0.180643,0.191953,0.0092765,-0.0102516,-0.021282
0.0353575,0.38254,1.50541,0.128992,-0.0807241,0.177812,0.0176963,-0.0352457,-0.019134
0.0304412,0.385725,1.5083,0.174745,-0.277635,0.0866311,-0.0120411,-0.0320177,0.00409955
0.0245463,0.388652,1.50847,0.103263,-0.271996,-0.0560445,-0.0534751,-0.0106464,0.0292528
0.0218241,0.389155,1.50634,-0.0579469,-0.0581618,-0.127968,-0.0449405,-0.0110353,0.0406103
0.0241955,0.386261,1.50342,-0.215647,0.168583,-0.14944,-0.0186112,-0.0103878,0.0382355
0.0300392,0.381147,1.50004,-0.271983,0.252843,-0.174904,-0.016008,0.00171587,0.0174499
0.034984,0.37597,1.49669,-0.225167,0.109341,-0.14831,0.00057783,0.0104243,0.00450349
0.0367815,0.372157,1.49422,-0.147435,0.00420063,-0.0999589,0.0218812,0.0114986,-0.0190361
0.0371883,0.369913,1.49259,-0.0776369,-0.0273123,-0.0618853,0.0217927,0.0221487,-0.0313445
0.036157,0.368871,1.49182,-0.0233064,-0.0982777,-0.0201032,0.0183455,0.0186593,-0.0200537
0.0339257,0.368876,1.49154,0.0157013,-0.130718,-0.0133141,0.00130619,0.00718895,-0.0134517
0.0317951,0.36904,1.49104,-0.0021812,-0.0908968,-0.0223805,-0.01111,0.00157422,0.007047
0.0306779,0.368394,1.49063,-0.0579116,-0.0468569,-0.0108414,0.00278746,0.00203994,0.0221742
0.030175,0.366651,1.49056,-0.0968993,-0.0142403,-0.00194261,0.0063045,-0.00315726,0.0139949
0.0298271,0.364748,1.49037,-0.0856242,-0.0442368,-0.0272289,-0.00509465,-0.00763547,-5.49555e-05
0.0288543,0.363309,1.4894,-0.0562688,-0.0745181,-0.0659256,-0.0074511,-0.00753024,-0.00700843
0.0278446,0.362206,1.48794,-0.0563393,-0.0723609,-0.0731817,0.00191951,-0.00213751,-0.00178391
0.027035,0.360938,1.48661,-0.0719072,-0.0602932,-0.050217,0.0142456,0.00181785,0.00111175
0.0260336,0.359607,1.48612,-0.059328,-0.0621994,0.00284444,0.029498,0.00510472,-0.00214821
0.024319,0.358785,1.48652,-0.0310951,-0.0936917,0.0196799,0.0160044,0.000596881,-0.00924999
0.0222686,0.358166,1.48664,-0.0407803,-0.104803,-0.0111982,-0.00733447,-0.0140513,-0.00511253
0.0207124,0.356989,1.48609,-0.0759925,-0.0690891,-0.03218,-0.00617573,-0.0183893,-0.00325
0.0207124,0.356989,1.48609,-0.0759925,-0.0690891,-0.03218,-0.00617573,-0.0183893,-0.00325
0.0202178,0.3551,1.4856,-0.106388,-0.00496015,-0.0112863,-0.00162117,-0.0133539,-0.00816709
0.0205787,0.352862,1.48545,-0.118031,0.00828357,-0.0156495,-0.00292151,-0.012753,-0.00721508
0.020517,0.35052,1.48425,-0.113908,-0.0420433,-0.106915,-0.0311699,-0.0232064,-0.00924546
0.0209538,0.348406,1.48143,-0.105126,0.00444406,-0.152394,-0.0142155,-0.00904903,0.000411391
0.0229812,0.346327,1.47844,-0.105835,0.100878,-0.124018,0.0129006,0.00913829,0.00579184
0.0259837,0.343992,1.47681,-0.144369,0.12207,-0.0351457,0.0357678,0.0165693,0.00745851
0.0272682,0.340378,1.47707,-0.21501,0.0292459,0.0363444,0.0375014,-0.00813702,0.0290245
0.0274392,0.336284,1.47788,-0.184906,0.022606,0.0173675,0.0158033,-0.0137224,-0.000856578
0.0274149,0.333602,1.478,-0.0905368,-0.0224672,-0.017706,-0.0207123,0.00327554,-0.0291646
0.027336,0.332637,1.4773,-0.00421419,-0.00879588,-0.0371993,-0.0218213,0.0111828,-0.04229
0.0275468,0.332822,1.47693,0.000148814,0.00972867,-0.000324448,0.0021206,9.6947e-05,-0.0194983
0.0281297,0.332638,1.47698,-0.0103513,0.0464001,0.00305423,0.00454367,-0.00132793,-0.0099932
0.0293704,0.33287,1.47714,0.0418462,0.0827625,0.0132537,-0.00507962,0.0119983,-0.0277112
0.0308472,0.334223,1.4775,0.0893857,0.0732565,0.0129304,-0.00333306,0.016268,-0.0144785
0.0319678,0.336018,1.47717,0.0929993,0.0191288,-0.0294725,5.28526e-05,0.013751,0.0119676
0.0315163,0.337189,1.47685,0.019591,-0.0621262,0.00841735,0.00790685,-0.00586513,0.0471475
0.0306735,0.336951,1.47707,-0.0297436,0.00737635,0.00366709,0.00320615,0.00228724,0.0326177
0.031533,0.335983,1.47686,-0.0705195,0.0558135,-0.0180614,-0.00194818,0.00485256,0.023421
0.0325079,0.33418,1.47668,-0.0933745,0.0404201,-0.00565877,-0.00378765,0.00887209,0.00996119
0.0334555,0.332836,1.47665,-0.0384393,0.053031,-0.00501749,-0.00312532,0.0154915,-0.013463
0.0345747,0.332751,1.47623,0.0265914,0.0350671,-0.0378766,-0.0116145,0.019821,-0.0155922
0.0348374,0.333474,1.47515,0.0338672,-0.0522917,-0.0628763,-0.0111372,0.00970083,0.00457925
0.0336329,0.333822,1.47364,0.00723868,-0.107187,-0.0746322,0.00424049,-0.00272691,0.0106232
0.0319903,0.333778,1.47229,0.00102328,-0.0943901,-0.0470805,0.0101704,-0.00379109,-0.00435662
0.0306685,0.33387,1.4715,0.0208487,-0.0619105,-0.0339881,0.000814743,-0.00170496,-0.00790304
0.029765,0.33437,1.47051,0.0407988,-0.0641806,-0.0626251,-0.010992,-0.0105709,-0.00201392
0.0290039,0.335367,1.46876,0.069108,-0.0696342,-0.0981327,-0.015284,-0.0028702,-0.00723344
0.0281475,0.336989,1.46675,0.0867597,-0.0904005,-0.0770772,-0.00850969,-0.0169023,-0.00982064
0.0266996,0.338161,1.46527,0.028285,-0.108261,-0.0630627,0.0147172,-0.0226022,0.00658309
0.024824,0.338076,1.46404,-0.0287277,-0.117643,-0.0494515,0.0205289,-0.00960559,0.0161325
0.0227127,0.337489,1.46315,-0.0147954,-0.113685,-0.0362625,0.0162902,0.00412324,0.00790554
0.0207515,0.3381,1.46243,0.0867487,-0.105041,-0.0371048,0.0127429,0.01445,-0.0120168
0.0183717,0.340981,1.4616,0.190585,-0.189304,-0.0353799,0.0153713,0.0154118,-0.0166859
0.0133591,0.345491,1.46085,0.25045,-0.337212,-0.0253578,0.00572598,0.0154627,-0.00767636
0.00660294,0.350469,1.46045,0.231363,-0.333095,-0.00301422,0.00762297,0.00775185,-0.0112024
0.0014854,0.353944,1.46033,0.121303,-0.177712,-0.00686646,0.00513746,-0.0108223,-0.000983179
0.000210402,0.355381,1.45991,0.0534535,0.019628,-0.0246893,-0.00498849,-0.0128621,-0.0191509
0.00198818,0.356562,1.45938,0.0727487,0.110091,-0.0241667,-0.00816498,-0.00507116,-0.0202665
0.00403521,0.357735,1.45872,0.0458168,0.0518371,-0.0390734,-0.000270195,-0.017034,-0.00810897
0.0046623,0.358256,1.45769,0.0126698,-0.0189158,-0.0561795,0.0063912,-0.0343374,-0.00446427
0.00469254,0.358688,1.45635,0.0364357,-0.0182393,-0.0679062,0.000687316,-0.0354132,-0.0200731
0.00474173,0.359637,1.45502,0.0594825,-0.0233301,-0.0564084,-0.00971788,-0.0262547,-0.00906944
0.00484458,0.360872,1.45378,0.0611815,-0.00283087,-0.0611139,-0.0087897,-0.0189955,0.0014506
0.00567949,0.362054,1.45243,0.0571542,0.0368499,-0.0616789,0.00123478,-0.0116488,0.00533134
0.00679523,0.36336,1.45121,0.0616906,0.0155546,-0.0511652,0.0124016,-0.00411084,0.0132386
0.0066478,0.36431,1.45012,0.0300984,-0.0653783,-0.0508515,0.00712474,0.0016748,0.0260394
0.00521765,0.364943,1.44893,0.0399828,-0.107957,-0.063918,-0.00610995,0.00479949,0.0185583
0.0037322,0.366142,1.4473,0.0782327,-0.0861899,-0.0872399,-0.0150967,0.0104209,0.0188377
0.00310391,0.367902,1.44547,0.0888738,-0.0510666,-0.0801761,-0.0095948,0.00904238,0.0180708
0.00252469,0.369369,1.44388,0.0501871,-0.0792825,-0.0709759,-0.00951076,-0.0191304,0.0206108
0.00102764,0.369807,1.44231,-0.0023942,-0.119896,-0.0781441,-0.0193297,-0.0310665,0.0155571
-0.000476172,0.36952,1.44041,-0.0259477,-0.0930497,-0.107463,-0.0279373,-0.0261914,0.00572753
-0.000875195,0.368804,1.43769,-0.034759,-0.0461819,-0.141178,-0.0244369,-0.00653526,0.00398701
-0.00072602,0.368392,1.43474,-0.0134273,-0.0554424,-0.133129,-0.0105684,-0.00614083,0.00944543
-0.00072602,0.368392,1.43474,-0.0134273,-0.0554424,-0.133129,-0.0105684,-0.00614083,0.00944543
-0.00133241,0.36804,1.43193,-0.0362877,-0.103174,-0.139429,-0.00470772,-0.0114899,0.0114943
-0.00268009,0.367073,1.42875,-0.0694766,-0.13138,-0.156911,-0.00901881,-0.00798249,0.0149521
-0.00382121,0.365566,1.4252,-0.0892536,-0.092031,-0.182428,-0.0147113,-0.0119224,0.00656199
-0.00337796,0.363806,1.42073,-0.0874754,-0.0180886,-0.231722,-0.0198686,0.00117347,-0.000758708
-0.00150132,0.362447,1.41553,-0.0479452,0.0148925,-0.246635,-0.00798035,0.00762448,-0.00532252
0.000323239,0.36202,1.41041,-0.00667223,-0.024464,-0.229859,0.00477891,0.00432545,-0.00718415
0.000484129,0.361774,1.40578,-0.028108,-0.116315,-0.204005,0.00833629,-0.0142609,0.00742924
-0.000766734,0.360911,1.4016,-0.0519493,-0.132984,-0.193519,-0.00227336,-0.0233843,0.00134075
-0.00113344,0.360023,1.39727,-0.0313981,-0.0455139,-0.214912,-0.0109479,-0.0154565,-0.0220586
0.000364148,0.3595,1.39251,-0.0249345,0.0105537,-0.230974,-0.00316372,-0.00851437,-0.00467747
0.0021146,0.358945,1.3876,-0.030374,-0.0138847,-0.223467,0.00603105,-0.00401434,-0.00683409
0.00302468,0.358707,1.38321,-0.0013779,-0.0508274,-0.188905,0.0210479,0.00624585,0.00138015
0.00261848,0.358798,1.37946,0.00440799,-0.122921,-0.170311,0.023061,0.0014939,0.00255477
0.000830633,0.358847,1.37581,-0.000979723,-0.17062,-0.178023,0.00975087,-0.00213751,-0.00150311
-0.000869649,0.358834,1.37185,-0.00713732,-0.135152,-0.192864,0.00186714,0.0125597,0.0123564
-0.00160186,0.358399,1.36771,-0.0380029,-0.0946299,-0.195845,0.00433823,0.00343987,0.0053212
-0.00168756,0.357242,1.36358,-0.0744123,-0.0657015,-0.185549,0.00396141,-0.00451025,0.00784731
-0.00137897,0.355555,1.35986,-0.0896515,-0.0371858,-0.164581,0.00406983,0.00664961,0.0151502
-0.000741717,0.354148,1.35649,-0.0405126,-0.0244131,-0.158158,0.00107718,0.0140733,-0.00947607
-2.615e-05,0.35402,1.35294,0.0186767,-0.0333502,-0.176049,-0.00128771,0.0104439,-0.0182053
0.000401563,0.354443,1.349,0.0152043,-0.060734,-0.191739,0.00276673,0.0162418,-0.00194877
0.000597644,0.354606,1.34492,-0.000876607,-0.0561919,-0.18775,0.0114025,0.0136634,0.00142777
0.000906452,0.354171,1.34117,-0.0372029,-0.0404674,-0.155997,0.0237775,-0.00384927,-0.00132084
0.00126736,0.353204,1.33835,-0.0457776,-0.0236369,-0.105188,0.0241863,-0.0137896,-0.00608271
0.00175967,0.352406,1.33637,-0.0261439,0.00194854,-0.0873481,0.0128443,-0.0165222,-0.0257967
0.00275017,0.351902,1.33431,-0.0217067,0.0212776,-0.10757,0.0149965,-0.000363141,-0.0155999
0.00403272,0.351398,1.33208,-0.0312762,0.0193226,-0.0895436,0.0234507,0.0148041,-0.00366592
0.00502832,0.350778,1.33059,-0.0316986,0.0244459,-0.0510559,0.0254598,-0.000457406,-0.00775975
0.00606803,0.350171,1.32937,-0.0339058,0.0290881,-0.0733037,0.0184397,-0.00705439,-0.00519174
0.00702818,0.34942,1.32761,-0.0418154,0.000257283,-0.0854288,0.00889953,0.00391278,0.00348264
0.0074169,0.348477,1.32604,-0.0442802,-0.00828804,-0.0604077,0.0137352,-0.00930241,-0.00616163
0.00795173,0.347706,1.32495,-0.0303947,0.0169103,-0.0426271,0.0107127,-0.0047172,-0.0155308
0.00871562,0.347557,1.32434,0.0218886,0.0291415,-0.0149376,-0.000305572,-0.00337654,-0.0369553
0.00940795,0.348669,1.32408,0.0813051,0.0214692,-0.00531978,-0.00905533,-0.0115328,-0.0436422
0.00950744,0.350436,1.32409,0.0894758,-0.016164,0.00953888,-0.00706788,-0.0202024,-0.0212229
0.00863707,0.351927,1.3244,0.0588363,-0.055131,0.0211298,-0.00905363,-0.0120887,-0.0145567
0.00740133,0.352991,1.32486,0.0560945,-0.0451342,0.0249247,-0.012255,-0.00312513,-0.0170051
0.0067355,0.354241,1.32529,0.0739236,-0.00476986,0.0202185,-0.0154878,0.00547808,-0.0115435
0.00688267,0.356005,1.32563,0.105119,0.0261546,0.0124347,-0.0186733,0.00911573,-0.00370437
0.00740829,0.358209,1.3255,0.104642,0.0176864,-0.0309418,-0.0272322,0.00338331,0.0143511
0.00791479,0.359671,1.32421,0.0406749,-0.0127501,-0.0900756,-0.0196611,-0.000633657,0.0237366
0.00839214,0.359564,1.32188,-0.0343101,-0.01149,-0.117729,-0.00115674,0.00942862,0.0368016
0.00921897,0.358801,1.31971,-0.0210749,0.0271106,-0.088745,0.0133104,0.0249645,0.0171351
0.0105765,0.359026,1.3181,0.043726,0.0485075,-0.0724567,0.019105,0.0242906,0.0122216
0.0116531,0.36015,1.31624,0.0689989,-0.0104428,-0.104398,0.0124407,0.0202762,0.0280811
0.011648,0.361369,1.31372,0.0472119,-0.0683775,-0.122139,0.0178979,0.0212491,0.0442981
0.0112736,0.361628,1.31119,-0.0224588,-0.0443954,-0.108911,0.0344387,0.00983396,0.0555934
0.0117914,0.360144,1.30923,-0.118778,0.0254514,-0.0761183,0.0420659,0.00624794,0.0598503
0.0132865,0.357221,1.30811,-0.160615,0.0789656,-0.0359086,0.0383949,0.00164962,0.0278081
0.0151243,0.354044,1.30772,-0.164213,0.0819125,-0.00811446,0.0396931,-0.0105292,0.00209516
0.0161957,0.350508,1.30799,-0.1992,0.0266462,0.0264158,0.0471218,-0.013803,0.000614047
0.0158592,0.346419,1.30928,-0.203311,-0.00914046,0.0899525,0.0528937,-0.00521019,-0.0226431
0.0151185,0.343114,1.31199,-0.126091,0.0315865,0.162322,0.0498654,0.00309262,-0.0517278
0.0148598,0.341589,1.31612,-0.0431646,0.0719229,0.226007,0.0405037,0.00482985,-0.0632819
0.0148598,0.341589,1.31612,-0.0431646,0.0719229,0.226007,0.0405037,0.00482985,-0.0632819
0.0144775,0.341202,1.32141,-0.011214,0.0573514,0.271865,0.0329732,-0.00548333,-0.0546175
0.0132567,0.341454,1.32745,0.0382724,0.0212197,0.298421,0.0212919,-0.00234675,-0.0599349
0.0113766,0.343151,1.3338,0.123114,0.00627043,0.305418,0.0066819,0.00593537,-0.0650451
0.00947281,0.346065,1.34021,0.155165,0.0208689,0.305958,0.00103767,0.00989896,-0.0461745
0.00798873,0.349033,1.34685,0.131212,0.0561311,0.323511,-0.00289878,0.0118808,-0.0206228
0.0071792,0.351258,1.35373,0.0864325,0.100295,0.323781,-0.0124781,0.00629517,-0.00395459
0.00715115,0.352619,1.36051,0.0410453,0.12823,0.314644,-0.0283023,0.00215635,0.0175795
0.00780263,0.352993,1.367,-0.00495016,0.163839,0.293173,-0.035596,0.00642878,0.024007
0.00949816,0.352575,1.37293,-0.0405,0.206371,0.263388,-0.0363643,0.00559363,0.0212234
0.0118348,0.351577,1.37829,-0.0584881,0.204071,0.244307,-0.0254081,0.00802881,0.0108325
0.0136438,0.35055,1.3833,-0.0447977,0.143135,0.226774,-0.0301934,0.00892651,-0.0121363
0.0142858,0.350166,1.38791,-0.000240423,0.0801996,0.208256,-0.0315306,0.0293023,-0.0129589
0.0141415,0.350661,1.392,0.0412692,0.0511084,0.17783,-0.0328117,0.0353212,-0.00957155
0.013989,0.351538,1.39536,0.0355749,0.0521444,0.143447,-0.0294294,0.0320711,0.00656241
0.0140635,0.351926,1.39813,0.00384357,0.0442318,0.118894,-0.0331138,0.0268205,0.0116767
0.013722,0.351975,1.4005,0.0163383,0.0107191,0.0973964,-0.0381794,0.0288038,0.0012427
0.0127673,0.352591,1.40238,0.0594106,-0.0315294,0.0753593,-0.0403629,0.0386439,0.00192708
0.0113741,0.354107,1.40375,0.0922204,-0.0450978,0.0495829,-0.046267,0.0331541,-0.00474632
0.0103608,0.355441,1.40464,0.0317651,-0.0155213,0.0331018,-0.0378349,0.016873,0.0241889
0.00984652,0.354934,1.4053,-0.0706655,-0.0119379,0.0302756,-0.0336924,0.0138493,0.03232
0.00914669,0.353136,1.40598,-0.0879554,-0.0301617,0.0279155,-0.0424414,0.0200364,0.00894749
0.00835751,0.351722,1.40639,-0.04847,-0.0248646,0.00120554,-0.0484189,0.0146347,-0.0104095
0.00819939,0.350674,1.406,-0.0627913,0.0056849,-0.0409341,-0.0467323,0.00730368,-0.00304419
0.00883516,0.349013,1.40479,-0.104681,0.0174187,-0.0743216,-0.0401627,0.007498,0.00757557
0.00944215,0.346728,1.40306,-0.118901,-0.0100143,-0.0926596,-0.034698,0.00725681,0.00332928
0.00934168,0.344317,1.40106,-0.115292,-0.0524923,-0.105872,-0.029301,0.00646871,-0.00842667
0.00870136,0.342204,1.39881,-0.096611,-0.0660029,-0.112599,-0.0307187,0.00914854,-0.0132797
0.00811717,0.340507,1.39633,-0.0739756,-0.0623912,-0.127594,-0.0274417,0.00675553,-0.00609976
0.00765611,0.33921,1.39347,-0.0531347,-0.0720207,-0.147557,-0.0321679,0.0059751,-0.0168181
0.00714102,0.338358,1.39029,-0.0313536,-0.0750477,-0.157485,-0.028373,0.00442377,-0.00658262
0.00665238,0.337584,1.38691,-0.0470921,-0.0748005,-0.165969,-0.017492,-0.00134167,0.00319868
0.00623395,0.33629,1.38345,-0.0835857,-0.0746515,-0.165976,-0.00930267,-0.000442326,0.00449884
0.00574087,0.334119,1.37994,-0.128978,-0.0806013,-0.171881,-0.00449255,0.0044961,0.0129672
0.00509159,0.331225,1.37648,-0.150282,-0.0833054,-0.160819,0.00244839,0.0175232,0.00802577
0.00458013,0.328519,1.37322,-0.116621,-0.0652284,-0.151964,0.0066817,0.0179543,-0.0151739
0.0043878,0.326872,1.37019,-0.0536631,-0.0506446,-0.13643,0.0120647,0.0166698,-0.0233558
0.00418643,0.326231,1.36753,-0.0193332,-0.0546177,-0.117727,0.0133684,0.0088906,-0.0187395
0.00390247,0.325995,1.36521,-0.00431133,-0.044393,-0.106603,0.0142932,0.00148055,-0.0312972
0.00409238,0.326143,1.3631,0.0290536,-0.00630292,-0.0931909,0.0295859,0.0112033,-0.0472755
0.0047013,0.326891,1.36148,0.0533899,0.00885962,-0.0600181,0.0374483,0.0192968,-0.0511495
0.00529859,0.328165,1.36051,0.0806114,0.0201263,-0.0346076,0.03365,0.0216015,-0.0433834
0.00632026,0.329905,1.35983,0.0902407,0.0663681,-0.0284223,0.0341207,0.0204099,-0.0214597
0.00850554,0.331411,1.35917,0.059352,0.120344,-0.0268482,0.0427082,0.00619376,-0.00256997
0.0111295,0.331899,1.35864,-0.0106552,0.111958,-0.0243174,0.0418311,-0.00437632,0.0263451
0.0131523,0.330546,1.35821,-0.119752,0.0791404,-0.0177456,0.0393026,-0.0113318,0.039457
0.0148837,0.327228,1.35797,-0.196219,0.0922932,-0.0100289,0.0389767,-0.0110242,0.0385375
0.0171007,0.323271,1.35793,-0.186683,0.1203,0.00438392,0.0275786,-0.0043672,0.0197791
0.0193977,0.320109,1.35808,-0.129912,0.102321,0.0025281,0.0191102,0.00604597,0.00236726
0.0211541,0.318186,1.35792,-0.0723192,0.0516544,-0.019039,0.0149434,0.00620326,0.00359291
0.021631,0.31746,1.35729,-0.00973759,-0.0312365,-0.0334419,0.000981612,-0.000772357,-0.00558954
0.0206449,0.317715,1.35651,0.0164436,-0.0940543,-0.0377329,-0.00439723,-0.00638947,0.00989932
0.0188294,0.31778,1.35558,-0.0108762,-0.11478,-0.045204,-0.0102257,-0.00440589,0.00452697
0.0170627,0.317459,1.35457,-0.00760933,-0.0944169,-0.0478959,-0.0193221,0.00113347,-0.00556612
0.0158704,0.317635,1.35361,0.0230641,-0.062508,-0.0439136,-0.0242921,0.00590941,-0.00413775
0.0158704,0.317635,1.35361,0.0230641,-0.062508,-0.0439136,-0.0242921,0.00590941,-0.00413775
0.014839,0.318025,1.35259,0.00389918,-0.0815769,-0.0511097,-0.0338698,-0.00772819,0.00512445
0.0132201,0.317604,1.35142,-0.0464892,-0.112986,-0.0582532,-0.0393834,-0.00875348,0.00752056
0.0113564,0.316574,1.35014,-0.0407282,-0.102416,-0.0615432,-0.0354958,0.000552088,-0.00921112
0.0102134,0.316157,1.3489,0.00346608,-0.0433456,-0.0598754,-0.0299859,0.00166669,-0.0165618
0.0102927,0.316415,1.34756,0.0105419,0.0146703,-0.0705903,-0.0277259,0.000858516,-0.00139916
0.0110055,0.316354,1.34599,-0.023371,0.00899336,-0.0850939,-0.0194161,0.00122777,0.0132611
0.0111593,0.315568,1.3442,-0.050686,-0.0413983,-0.0916877,-0.0136598,2.31862e-05,0.0123287
0.0104312,0.314509,1.34215,-0.0450395,-0.0821587,-0.112284,-0.0116436,0.00447944,-0.00640935
0.0093621,0.314122,1.33947,0.013574,-0.0967621,-0.147238,-0.0117878,0.0133882,-0.020516
0.00833795,0.314891,1.33604,0.0627364,-0.106864,-0.179191,-0.0150537,0.0131125,-0.0223169
0.00727823,0.316347,1.33213,0.076631,-0.116752,-0.190633,-0.00844287,0.0102544,-0.00574738
0.00607431,0.317425,1.32804,0.0352201,-0.139473,-0.201248,0.00111092,0.00790709,0.0148287
0.00435144,0.317906,1.3237,0.0294828,-0.163898,-0.216549,-0.013487,0.00505206,-0.00417256
0.00274436,0.318458,1.31887,0.0265482,-0.144265,-0.246914,-0.0126314,0.0132824,0.00835532
0.00175719,0.318488,1.31332,-0.0134198,-0.131802,-0.2724,-0.0119532,0.0139672,0.0158706
0.000984661,0.318182,1.3076,-0.00719944,-0.118695,-0.269079,-0.0263564,0.00232387,-0.000954568
0.00106674,0.317858,1.30175,-0.0316962,-0.0502726,-0.295717,-0.0178895,0.000124007,0.0129559
0.00253302,0.316655,1.29522,-0.0776698,-0.0165824,-0.323757,-0.0115776,0.00319305,0.00588214
0.00429697,0.315334,1.28847,-0.0490028,-0.0130755,-0.317183,-0.00992918,0.00216582,-0.00314277
0.0061398,0.314205,1.28173,-0.0730904,-0.0220626,-0.325596,0.0101978,0.00553301,0.00908405
0.0072542,0.312319,1.27486,-0.103752,-0.079987,-0.328851,0.00838612,0.00187707,-0.00672978
0.00731727,0.310504,1.26822,-0.061236,-0.107056,-0.305941,0.00882558,0.00228551,-0.0300541
0.00744173,0.309897,1.26198,-0.000380664,-0.0653765,-0.294541,0.0138784,0.00234792,-0.0243916
0.0083258,0.309992,1.25575,0.00743018,-0.0414406,-0.299367,0.0145168,-0.00383285,-0.0176218
0.00903308,0.31004,1.24958,0.00922611,-0.0813869,-0.287749,0.0211982,-0.00323802,-0.00479436
0.00860103,0.310557,1.24373,0.0594476,-0.137561,-0.270559,0.0221755,0.00540257,-0.0220995
0.0073919,0.312358,1.23821,0.11642,-0.146345,-0.252572,0.0253298,0.0020664,-0.0157605
0.00625608,0.314375,1.23284,0.0742982,-0.130781,-0.257178,0.0204025,-0.00854194,0.00207287
0.00556355,0.315061,1.22736,0.00198684,-0.105015,-0.262502,0.0131125,-0.0063335,0.0132018
0.00543511,0.314983,1.22181,-0.000408862,-0.0789493,-0.26258,0.0163167,-0.00355434,0.00292695
0.00573379,0.314962,1.21627,0.000961824,-0.0708127,-0.266477,0.0200152,-0.00578663,0.00622767
0.00578187,0.3149,1.21067,-0.00658431,-0.0996186,-0.26744,0.0121569,-0.00683764,0.00171483
0.00531977,0.314637,1.20496,-0.0163907,-0.11752,-0.279818,0.00952883,0.00185379,0.00953496
0.00500263,0.314158,1.19887,-0.0279584,-0.0981792,-0.300181,0.00743403,-0.00174493,-0.00278181
0.00550493,0.31367,1.19236,-0.0131675,-0.0484984,-0.319367,0.0068792,-0.00111061,-0.0140929
0.00704673,0.313621,1.1855,0.0154185,-0.0138081,-0.333003,0.0043902,0.000781178,-0.0187716
0.00888722,0.314014,1.17844,0.0309962,-0.0281405,-0.336163,0.00500574,-0.000340402,-0.0259565
0.00997049,0.314684,1.17152,0.0413064,-0.0775148,-0.321105,0.0124767,0.000983477,-0.0196273
0.00991101,0.315408,1.16502,0.0371695,-0.128695,-0.302298,0.0123371,0.000588477,-0.0150903
0.00905758,0.316156,1.1587,0.047085,-0.146506,-0.300467,0.005338,0.00863922,-0.00715154
0.00834242,0.317223,1.15237,0.0628658,-0.120268,-0.303185,-0.000693397,-0.000372112,-0.010438
0.00824075,0.318385,1.146,0.0541871,-0.0917518,-0.303964,-0.00312678,-0.00105405,-0.00443727
0.00852592,0.319257,1.13966,0.0415335,-0.0860936,-0.29574,-0.00124377,0.00654909,0.00070399
0.00858722,0.319913,1.13353,0.0306453,-0.105957,-0.285662,0.00423874,0.013428,0.00350332
0.00818072,0.320476,1.12756,0.0304529,-0.121214,-0.282764,0.00458027,0.0143442,-0.00298792
0.00759438,0.320945,1.12163,0.0210089,-0.129689,-0.280278,0.00510734,0.0125154,-0.00139171
0.00689275,0.321381,1.11579,0.0308832,-0.122644,-0.27366,-0.00176377,0.00890037,-0.00717014
0.00653915,0.321928,1.10998,0.0250211,-0.100474,-0.277619,0.00304367,0.0131277,-0.00195467
0.00654231,0.322435,1.10406,0.0304661,-0.0940593,-0.286471,0.000737652,0.0175909,-0.00841701
0.00642733,0.323013,1.09795,0.0320692,-0.112085,-0.297717,-0.00343983,0.0298273,0.00316495
0.00604479,0.323657,1.09144,0.0343406,-0.126985,-0.317918,-0.00103118,0.0346035,-0.000226438
0.00572892,0.324189,1.08466,0.0205178,-0.119613,-0.329939,-0.00497268,0.0181099,0.00680798
0.00579423,0.324125,1.07759,-0.0231602,-0.0996039,-0.343531,-0.00605705,0.0104961,0.00975776
0.00641327,0.323375,1.07019,-0.0440919,-0.0771324,-0.362042,-0.00586717,0.0160257,0.00741404
0.00641327,0.323375,1.07019,-0.0440919,-0.0771324,-0.362042,-0.00586717,0.0160257,0.00741404
0.00742157,0.322487,1.0625,-0.0387219,-0.0750785,-0.37074,-0.000325039,0.019029,-0.00601321
0.00807281,0.321786,1.05469,-0.0251558,-0.114169,-0.375056,0.00242771,0.0282057,0.00030756
0.00797669,0.321499,1.04673,0.00472602,-0.143874,-0.387873,-0.00500441,0.0320082,-0.00260723
0.00789989,0.321595,1.03825,-0.00315634,-0.127587,-0.423984,-0.01134,0.0286506,0.0147123
0.00851376,0.320825,1.02905,-0.0646508,-0.105154,-0.443251,-0.00589722,0.0257374,0.0168582
0.00927508,0.319179,1.01982,-0.0808309,-0.120273,-0.432819,-0.00619723,0.0174457,0.00105792
0.00921977,0.317633,1.01089,-0.0664,-0.166331,-0.423325,-0.0167235,0.0189534,-0.0210256
0.00841746,0.316212,1.00195,-0.0706218,-0.18615,-0.431422,-0.0204207,0.0223637,-0.0170817
0.00748108,0.314839,0.992917,-0.0508284,-0.189788,-0.425617,-0.0206631,0.0271771,-0.0116742
0.00635463,0.314379,0.984156,0.0104985,-0.193348,-0.41466,-0.0301978,0.0241464,-0.0102429
0.00556518,0.314734,0.975344,0.0117578,-0.155958,-0.426346,-0.0323456,0.0189599,0.0042851
0.0056902,0.314358,0.966206,-0.0466404,-0.122103,-0.442425,-0.0264379,0.0153062,0.0252443
0.00599137,0.313063,0.957022,-0.0608107,-0.142411,-0.43149,-0.0257502,0.0179046,0.0120618
0.00557708,0.312347,0.947931,-0.00740096,-0.178337,-0.442123,-0.0273409,0.0239676,-0.00221139
0.00481883,0.312389,0.93842,0.00546264,-0.191032,-0.469144,-0.0238117,0.0198875,-0.000648856
0.00404296,0.312194,0.928357,-0.024963,-0.196092,-0.487368,-0.022036,0.0109136,0.0108124
0.00312264,0.311338,0.918105,-0.0583246,-0.210662,-0.489891,-0.0174226,0.0091368,0.0165563
0.00192168,0.309832,0.907752,-0.0905396,-0.227474,-0.502421,-0.0159903,0.0147373,0.0205899
0.000372835,0.30761,0.896966,-0.130337,-0.261715,-0.53013,-0.0143629,0.0130481,0.00924265
-0.00218698,0.304739,0.885747,-0.151627,-0.33914,-0.540948,-0.0175213,0.0136673,0.0109298
-0.00617091,0.302053,0.874524,-0.116902,-0.384278,-0.535833,-0.028929,0.0204272,-0.00302362
-0.0101539,0.300215,0.863227,-0.0769135,-0.344881,-0.548135,-0.0362141,0.0189621,-0.00118208
-0.0131302,0.299015,0.85154,-0.0615013,-0.307646,-0.570945,-0.0459397,0.00653839,0.00774521
-0.0158495,0.297543,0.839559,-0.113119,-0.327295,-0.576368,-0.0510554,-0.00756335,0.0268777
-0.0193792,0.294666,0.827646,-0.190767,-0.373498,-0.559848,-0.0460172,-0.0106203,0.0297023
-0.0236061,0.290952,0.816059,-0.191415,-0.375735,-0.544474,-0.054796,-0.00962949,0.00656307
-0.0273251,0.287855,0.804782,-0.147376,-0.315429,-0.53235,-0.0538042,-0.0187924,-0.00903225
-0.0299517,0.28541,0.793676,-0.134725,-0.275821,-0.526347,-0.0455593,-0.0353889,-0.00267619
-0.0324424,0.28283,0.782866,-0.158717,-0.281669,-0.501744,-0.0389814,-0.0522402,-0.0115491
-0.0356579,0.279666,0.772834,-0.1834,-0.320084,-0.445477,-0.018225,-0.0628023,-0.0196725
-0.0401158,0.276661,0.764261,-0.133574,-0.36446,-0.367854,-0.00747102,-0.0623499,-0.0407237
-0.0458919,0.275278,0.757261,-0.0332459,-0.400175,-0.307702,-0.0119428,-0.0526026,-0.0532815
-0.0520687,0.275625,0.751345,0.0335934,-0.366372,-0.266838,-0.0180955,-0.0465624,-0.0412765
-0.0570561,0.276815,0.746235,0.0514356,-0.267367,-0.236023,-0.0160991,-0.053886,-0.0108259
-0.0602056,0.278065,0.741919,0.0478514,-0.171737,-0.189111,-0.00906704,-0.0718028,0.000159919
-0.0620415,0.279172,0.738585,0.0457341,-0.108535,-0.139819,0.0027623,-0.0687856,0.0145798
-0.06319,0.280192,0.736172,0.0341173,-0.0746063,-0.098347,0.0181439,-0.0604045,0.0188226
-0.0638583,0.280299,0.734564,-0.0411197,-0.0347988,-0.0523159,0.0370019,-0.0669393,0.0264122
-0.0639774,0.278754,0.73414,-0.104969,0.0124181,0.0275648,0.0503575,-0.0654184,0.0164543
-0.0633447,0.27691,0.735485,-0.0590289,0.0910746,0.10958,0.0452964,-0.0476446,-0.00116032
-0.0612982,0.276863,0.738463,0.0451361,0.191526,0.172126,0.0310186,-0.049384,-0.014071
-0.057696,0.278299,0.742536,0.0772459,0.264855,0.217797,0.0203043,-0.0456381,0.00942385
-0.0533296,0.279667,0.747634,0.0676195,0.293399,0.279304,0.0117588,-0.0309556,0.0107605
-0.0491838,0.281576,0.754271,0.158237,0.29493,0.349979,-0.00880247,-0.00939232,-0.0213625
-0.045282,0.285793,0.762171,0.288288,0.317678,0.389561,-0.0223502,-0.000704944,-0.0510207
-0.0411743,0.291898,0.770857,0.341984,0.339256,0.415167,-0.0307995,-0.00358054,-0.0496126
-0.0374187,0.298324,0.780051,0.336458,0.296959,0.442418,-0.0501647,-0.000255853,-0.0541159
-0.0349477,0.304685,0.789707,0.334196,0.243715,0.45631,-0.0677887,0.0172172,-0.0674999
-0.0332273,0.310955,0.799351,0.31969,0.229194,0.44344,-0.0838201,0.0227798,-0.0731571
-0.0316552,0.316439,0.808559,0.249758,0.210505,0.417187,-0.0949978,0.0280422,-0.0690169
-0.0306218,0.320129,0.817064,0.144641,0.157927,0.384239,-0.106299,0.0265119,-0.0612448
-0.0305457,0.32176,0.824846,0.0507071,0.0957651,0.355037,-0.10744,0.0230089,-0.0689895
-0.031666,0.322198,0.832262,0.0266858,0.0252868,0.353754,-0.0952432,0.0342119,-0.0646901
-0.0342576,0.3228,0.839896,0.056645,-0.0383378,0.365713,-0.0876353,0.035805,-0.047582
-0.0342576,0.3228,0.839896,0.056645,-0.0383378,0.365713,-0.0876353,0.035805,-0.047582
-0.0379373,0.323667,0.847509,0.0436989,-0.0779918,0.347716,-0.0853791,0.0300505,0.00801665
-0.0414243,0.323467,0.854272,-0.0378925,-0.0414921,0.290077,-0.0789756,0.0482939,0.0775443
-0.0428397,0.32193,0.859449,-0.0805658,0.0700313,0.204968,-0.0649185,0.0715706,0.120333
-0.0410757,0.320291,0.862901,-0.0702164,0.218077,0.129813,-0.0436658,0.0632254,0.144648
-0.0361708,0.318526,0.864869,-0.118967,0.32351,0.0656306,-0.00410825,0.0211593,0.161357
-0.0301286,0.314876,0.86575,-0.249544,0.284132,0.0349907,0.0294823,-0.00534976,0.155176
-0.0260806,0.308633,0.866215,-0.365681,0.12749,0.0306408,0.0579418,-0.0077368,0.125491
-0.0251966,0.300919,0.866702,-0.390306,-0.0148541,0.0376992,0.080794,0.00376505,0.074253
-0.026434,0.293618,0.867291,-0.333679,-0.0778602,0.0406202,0.088929,0.014057,0.0145469
-0.028234,0.287437,0.868077,-0.295184,-0.0775426,0.0484418,0.089801,0.000993729,-0.00197971
-0.0300412,0.281412,0.86885,-0.31012,-0.0894734,0.0450151,0.08751,-0.00262195,0.0102338
-0.0323554,0.275229,0.869505,-0.294005,-0.126227,0.0366071,0.0824628,-0.00546923,-0.00348806
-0.0355203,0.270123,0.8701,-0.208611,-0.17476,0.0400822,0.0849147,-0.00980741,-0.0215347
-0.0398053,0.266985,0.870954,-0.0977737,-0.226303,0.0605777,0.0850005,-0.00189236,-0.0449823
-0.0446774,0.26634,0.872417,0.0366228,-0.199729,0.0794511,0.0656402,0.00563356,-0.0599188
-0.0477273,0.268077,0.874094,0.131039,-0.0556123,0.070201,0.06221,-0.00950548,-0.0638547
-0.0479309,0.270807,0.875385,0.125305,0.0520118,0.0431659,0.0578241,-0.0309376,-0.0432276
-0.0469574,0.272258,0.87617,0.0169925,0.0426755,0.0288312,0.0570062,-0.0437913,-0.0446399
-0.0467432,0.271687,0.876622,-0.0516802,-0.0139375,0.0141551,0.0591113,-0.0305782,-0.047895
-0.0472161,0.270862,0.876523,-0.0199913,-0.0263888,-0.0286744,0.0493077,-0.0113835,-0.0705533
-0.0468675,0.270741,0.875186,-0.0198778,0.0257315,-0.106941,0.0448081,-0.00396249,-0.0448398
-0.0450093,0.269504,0.872054,-0.132325,0.0693481,-0.184191,0.0462081,-0.0108612,-0.00779158
-0.0422025,0.265852,0.867462,-0.238619,0.0897504,-0.238259,0.045377,-0.00290877,0.0183007
-0.0387632,0.261374,0.862071,-0.208282,0.1116,-0.26102,0.0449293,0.00512758,-0.00311947
-0.0349337,0.258684,0.856649,-0.0754848,0.126558,-0.252403,0.0454832,-0.00186619,0.00649703
-0.0312616,0.258547,0.851715,0.0315598,0.104913,-0.225878,0.0354362,-0.0261382,0.0232512
-0.0284492,0.25967,0.847339,0.0555848,0.0576817,-0.19882,0.0312759,-0.036283,0.0356179
-0.0268037,0.261078,0.843597,0.0861442,0.0087655,-0.166135,0.0342999,-0.0230515,0.0251982
-0.0259569,0.263722,0.840506,0.183571,-0.00719578,-0.144087,0.0341509,-0.00714648,-0.00695997
-0.0252335,0.268381,0.837694,0.262244,0.00380847,-0.148687,0.0330862,-0.00167531,-0.0215485
-0.0245507,0.273561,0.834486,0.232561,-0.0333572,-0.174384,0.0275874,0.00455227,0.000107169
-0.0247807,0.27754,0.830715,0.156082,-0.0937809,-0.196977,0.0220142,0.00453579,0.000133336
-0.0256546,0.28014,0.826614,0.102683,-0.110998,-0.195046,0.0312436,0.000947088,-0.00176287
-0.0268274,0.281923,0.822798,0.0770856,-0.126754,-0.172935,0.028344,0.00586471,-0.00413316
-0.0285547,0.283578,0.81934,0.0912553,-0.152169,-0.163729,0.00984761,0.012703,-0.000169873
-0.0303246,0.285719,0.815792,0.115839,-0.122418,-0.180599,-2.30148e-05,0.0104395,-0.00349104
-0.0305964,0.287937,0.811812,0.0886076,-0.0245495,-0.204746,0.00447562,0.00745463,0.0166717
-0.0290325,0.289288,0.807574,0.0448877,0.0427092,-0.198084,0.0164392,0.0042029,0.00459796
-0.0268648,0.290221,0.803803,0.0528815,0.0548555,-0.162017,0.0330319,0.00341845,0.0117443
-0.0253595,0.291537,0.800843,0.0785792,0.0102461,-0.127196,0.045466,0.00266516,0.0068422
-0.0248453,0.293259,0.798395,0.0875496,-0.0244354,-0.11462,0.0508054,-0.000949979,0.0110427
-0.024691,0.294888,0.796012,0.0721219,-0.0233598,-0.118937,0.0568565,-0.00515893,0.00158697
-0.0242883,0.296173,0.793652,0.0512063,-0.0127153,-0.108379,0.0676164,-0.00431085,-0.00224155
-0.0239088,0.297016,0.791529,0.0270295,-0.0253723,-0.0958945,0.0701315,-0.00817436,0.00312102
-0.023945,0.297387,0.789593,0.00957671,-0.0494428,-0.0825953,0.0716894,-0.00664419,0.00856566
-0.0244234,0.2976,0.78803,0.0143259,-0.0662378,-0.056234,0.0721757,-0.0134448,-0.00374526
-0.0255309,0.297985,0.787117,0.0218548,-0.096103,-0.0257264,0.0708508,-0.0233761,-0.00525796
-0.0272811,0.298607,0.786796,0.0378418,-0.107466,0.000770798,0.0553675,-0.0189822,-0.00116664
-0.0288172,0.29966,0.786867,0.0647341,-0.0657875,0.00821689,0.0428949,-0.0213026,-0.0127484
-0.0292543,0.301079,0.786927,0.0698207,-0.00601119,0.00169805,0.0350145,-0.0177194,-0.00336879
-0.0288721,0.302522,0.78689,0.0683695,0.0120736,0.000423137,0.02861,-0.0102381,-0.01134
-0.0282247,0.304173,0.787003,0.0884229,0.0339699,0.0158137,0.0312132,-0.0184124,-0.0109152
-0.0272611,0.305782,0.787505,0.0620875,0.0631268,0.0372481,0.0315322,-0.0316181,-0.00531483
-0.0272611,0.305782,0.787505,0.0620875,0.0631268,0.0372481,0.0315322,-0.0316181,-0.00531483
-0.0259884,0.306594,0.788533,0.0176656,0.0844918,0.0600063,0.0306331,-0.0284484,0.00445211
-0.0245352,0.306803,0.789957,0.015477,0.0988404,0.0769799,0.0256608,-0.0270283,-0.0112773
-0.0228164,0.307434,0.791584,0.0445412,0.118551,0.078136,0.0230265,-0.0218031,-0.0122685
-0.0205867,0.308428,0.793219,0.0520043,0.145035,0.0771605,0.0221163,-0.0215881,-0.0106774
-0.0179978,0.309169,0.794955,0.0185232,0.150871,0.0944782,0.022118,-0.0238734,0.0030002
-0.0159825,0.309304,0.79719,0.00203963,0.114925,0.124477,0.0213117,-0.0255148,-0.00550741
-0.0146245,0.309631,0.800014,0.0312624,0.103635,0.144874,0.0180636,-0.022136,-0.00497693
-0.0134318,0.31048,0.803027,0.0446162,0.1017,0.142315,0.00529718,-0.013851,0.00189066
-0.0122404,0.311149,0.805925,0.0188524,0.100123,0.137222,0.00162736,-0.00639302,0.015937
-0.011003,0.311397,0.808843,0.00477479,0.106472,0.143243,0.0011963,-0.0143815,0.0226802
-0.00992069,0.311546,0.811937,0.00461237,0.086881,0.154344,-0.00424415,-0.0073885,0.0108197
-0.0095243,0.311638,0.815243,0.00168864,0.051344,0.164757,-0.0116102,-0.00791088,-0.00745445
-0.00995346,0.31173,0.818831,0.014527,0.0221908,0.179251,-0.0183432,0.00357443,-0.0243932
-0.0107876,0.312626,0.822725,0.0784479,0.0135321,0.19263,-0.0263718,0.0148031,-0.0334504
-0.0119779,0.314947,0.826781,0.149144,-0.00898979,0.187173,-0.0400794,0.0120209,-0.0234221
-0.0135933,0.318087,0.830499,0.158717,-0.0277181,0.155523,-0.0531137,0.0166991,-0.000783265
-0.0150227,0.320685,0.83342,0.110167,-0.0105734,0.114223,-0.0529739,0.0229501,0.0202474
-0.0155877,0.322194,0.835555,0.0557838,0.0286525,0.0891424,-0.0412758,0.0220468,0.023852
-0.0155878,0.322716,0.837372,0.0108674,0.0344245,0.0874511,-0.0361818,0.0226491,0.0172167
-0.0157066,0.322432,0.839214,-0.0237236,0.0243109,0.084684,-0.0334127,0.0224102,0.0141923
-0.0160659,0.321872,0.841048,-0.0163606,0.0183231,0.0864839,-0.0321231,0.0241375,0.00395757
-0.0163962,0.321735,0.842792,0.00579543,0.0230135,0.0732798,-0.0322821,0.0178269,0.0106642
-0.0163603,0.321719,0.844109,-0.00946476,0.0346999,0.0515976,-0.0294932,0.0160571,0.0256996
-0.0158568,0.321138,0.845072,-0.0419751,0.0501721,0.0441157,-0.0186001,0.015293,0.0145686
-0.0152164,0.319913,0.846064,-0.0787773,0.0487034,0.0563569,-0.00772725,0.0124213,0.00107849
-0.0150194,0.318033,0.847478,-0.10256,0.0182829,0.0761694,-0.00468571,0.0129549,-0.0116805
-0.0157681,0.316145,0.84921,-0.0750654,-0.0285516,0.0907177,-0.0129833,0.0186229,-0.0209296
-0.0171891,0.31518,0.851076,-0.0179832,-0.0351621,0.0842958,-0.0296789,0.0221611,-0.0217357
-0.0178038,0.315188,0.852654,0.0144309,0.0327717,0.0639455,-0.039318,0.0186742,-0.014775
-0.0166822,0.315357,0.853865,0.00751395,0.107432,0.056321,-0.0349682,0.00943559,-0.0123371
-0.0149385,0.315513,0.855155,0.0232952,0.0967813,0.0716078,-0.0267845,0.00552493,-0.0121609
-0.0141671,0.315949,0.856911,0.031638,0.0449058,0.0899766,-0.0215535,0.00531417,-0.0238519
-0.014417,0.316364,0.858989,0.0184433,0.0123446,0.0978171,-0.0170759,0.011018,-0.015424
-0.0148503,0.3165,0.861012,0.00527568,0.0221233,0.091215,-0.0173515,0.00916374,-0.00949091
-0.0149367,0.316545,0.862955,0.00856416,0.0344732,0.0945924,-0.0205654,0.00493389,-0.0128477
-0.015097,0.316896,0.864925,0.0349284,0.0105072,0.0883325,-0.0215592,0.00513032,-0.0103196
-0.01585,0.317855,0.866703,0.0654826,-0.0275601,0.0745736,-0.0187428,0.00897175,-0.0121103
-0.0171977,0.319292,0.868064,0.0828195,-0.0573075,0.0512011,-0.0167839,0.00964931,-0.00768316
-0.0187734,0.321076,0.868942,0.103157,-0.0625643,0.0240312,-0.0254152,0.0170498,0.00213486
-0.0198541,0.323309,0.868989,0.12252,-0.0348939,-0.0291874,-0.0342153,0.0161462,0.014302
-0.0198584,0.325415,0.867824,0.083267,0.0014605,-0.0877937,-0.0355674,0.0103303,0.03275
-0.0189867,0.326067,0.865591,-0.0217282,0.0165203,-0.12297,-0.033681,7.27177e-06,0.0497083
-0.0177678,0.324595,0.862723,-0.118087,0.0219296,-0.151429,-0.0395574,-0.00096029,0.0373368
-0.0162624,0.321729,0.859207,-0.16571,0.0249101,-0.17953,-0.0360559,0.00225803,0.0208607
-0.0145072,0.318466,0.855256,-0.159914,0.0306099,-0.186575,-0.0311446,-0.00315866,0.0100569
-0.0127042,0.31563,0.851343,-0.132431,0.0338779,-0.183935,-0.0291072,-0.00379387,0.0130244
-0.0107813,0.313009,0.847469,-0.148893,0.0441038,-0.184922,-0.0175443,-0.0207665,0.0162669
-0.00888632,0.309728,0.843693,-0.181604,0.0267339,-0.165459,0.00199366,-0.02003,0.0201433
-0.00818745,0.306328,0.840824,-0.153135,-0.0378768,-0.109971,0.0132841,-0.0184476,-0.00901753
-0.00903785,0.304081,0.838984,-0.077258,-0.0910542,-0.0663033,0.0213032,-0.010398,-0.0142239
-0.0111389,0.303299,0.837873,-0.0140498,-0.141765,-0.0417147,0.0174967,-0.0125177,-0.0120266
-0.0139245,0.303545,0.837234,0.0235278,-0.149923,-0.0264301,0.0144167,-0.0183859,-0.00856304
-0.0164799,0.304131,0.836789,0.0249744,-0.121814,-0.0182746,0.016379,-0.012242,-0.00283974
-0.0185766,0.304621,0.836366,0.0175334,-0.114057,-0.0196896,0.0186816,-0.00789878,0.00428736
-0.0185766,0.304621,0.836366,0.0175334,-0.114057,-0.0196896,0.0186816,-0.00789878,0.00428736
-0.0205504,0.304716,0.835776,-0.0119268,-0.109848,-0.0316919,0.0178171,-0.00120184,0.0151628
-0.0222602,0.304199,0.834925,-0.0416165,-0.0936155,-0.0454703,0.0203667,0.00112817,0.014413
-0.0234972,0.30316,0.833938,-0.0683777,-0.0660891,-0.0432493,0.0289849,-0.00366309,0.0102717
-0.0242648,0.301504,0.83312,-0.104607,-0.0482753,-0.0240777,0.0364736,-0.00597608,0.00954151
-0.0252889,0.299197,0.832854,-0.123965,-0.070461,0.00614776,0.0350729,-0.00909534,-0.00299925
-0.026864,0.296995,0.833113,-0.0916196,-0.0825189,0.0239499,0.0326429,-0.00134331,-0.0233269
-0.0283447,0.295907,0.833589,-0.0270321,-0.0605385,0.0260047,0.0336399,0.0110137,-0.0212784
-0.0292634,0.295667,0.834171,-0.0114967,-0.0305613,0.0349067,0.0316975,0.00356653,-0.0188381
-0.0298278,0.295306,0.834957,-0.025142,-0.023803,0.0492403,0.0326218,-0.000914127,-0.00994462
-0.0307991,0.294966,0.836152,0.0022767,-0.0557196,0.06896,0.0239864,0.00227082,-0.0341509
-0.0326152,0.295569,0.837704,0.060811,-0.0854526,0.0797032,0.0148837,0.00351861,-0.0433991
-0.0345558,0.296779,0.839456,0.0607568,-0.058851,0.0848378,0.0142703,0.0054999,-0.0224826
-0.0357155,0.297654,0.841318,0.0278721,-0.00899509,0.0877655,0.00316242,0.000324816,-0.00236148
-0.0358712,0.297789,0.843131,-0.00656888,0.0384555,0.0799541,-0.00662373,-0.00815174,-0.00332201
-0.0351515,0.297301,0.844654,-0.028561,0.0686838,0.0671299,-0.0069859,-0.00419396,-0.00304759
-0.0342039,0.296716,0.84603,-0.0214231,0.0585209,0.0708753,-0.00783968,-0.00464651,-0.00693446
-0.0336193,0.296292,0.847482,-0.0166603,0.0435931,0.0722249,-0.0105152,-0.00302252,-0.00511324
