attitude_roll,attitude_pitch,attitude_yaw,rotationRate_x,rotationRate_y,rotationRate_z,acceleration_x,acceleration_y,acceleration_z
0.0556537,0.32301,-0.00906962,0.173992,-0.0606759,-0.0134236,0.00473154,0.213663,0.145623
0.0532653,0.327444,-0.00882522,0.272212,-0.157278,0.0535674,0.022312,0.194976,0.158888
0.050134,0.333807,-0.00842875,0.355622,-0.12077,0.0045002,-0.0318287,0.160986,0.179317
0.049632,0.340451,-0.0098029,0.275979,0.02571,-0.106344,-0.0594747,0.135472,0.246695
0.0520068,0.342751,-0.0136853,-0.0617177,0.0613297,-0.24827,-0.0421085,0.077321,0.339028
0.054523,0.337096,-0.0194505,-0.453692,-0.0100924,-0.310485,0.0302971,0.0406787,0.344126
0.055677,0.325979,-0.0254281,-0.573004,-0.0492064,-0.305061,0.0632339,0.0307469,0.241005
0.0561484,0.315686,-0.0305042,-0.415539,-0.0741534,-0.212564,0.0791463,0.0210405,0.155506
0.0540704,0.309039,-0.032851,-0.233765,-0.249569,-0.0453435,0.0771478,-0.0133466,0.143449
0.0462143,0.306364,-0.0327422,-0.0425242,-0.52916,0.00740315,0.0567986,-0.0840872,0.13972
0.0336418,0.306319,-0.0331719,0.0184809,-0.722492,-0.0447688,0.0495801,-0.144494,0.111663
0.0192091,0.306065,-0.0340074,-0.0648139,-0.722614,-0.0275335,0.0612898,-0.14205,0.0580564
0.00639953,0.303226,-0.0341144,-0.227791,-0.537385,0.00966034,0.0599478,-0.134322,-0.00427473
-0.00101089,0.296929,-0.0338285,-0.405241,-0.167958,0.00920381,0.0282188,-0.150408,-0.0926502
0.000412872,0.286968,-0.034299,-0.597624,0.268155,-0.0538207,-0.00201344,-0.180242,-0.154602
0.00735385,0.273349,-0.035848,-0.756702,0.343495,-0.099005,-0.0144965,-0.164491,-0.195036
0.0139126,0.257491,-0.0385924,-0.83011,0.207649,-0.199943,-0.0152388,-0.151656,-0.258022
0.0163224,0.239946,-0.0440411,-0.927112,-0.123885,-0.372988,-0.00848404,-0.148824,-0.308472
0.0120787,0.220452,-0.0533658,-1.01777,-0.502987,-0.550968,-0.0057436,-0.112643,-0.389568
0.00364156,0.199804,-0.0650156,-1.0134,-0.506649,-0.570579,0.0288863,-0.0389186,-0.528675
-0.00118494,0.18183,-0.0747362,-0.747472,-0.109025,-0.361878,0.0967007,0.056471,-0.641929
0.00320741,0.17185,-0.0783206,-0.235653,0.47767,0.024437,0.159605,0.11731,-0.631739
0.0157045,0.172541,-0.0737506,0.285795,0.78654,0.422692,0.143923,0.153864,-0.439195
0.0292237,0.182682,-0.0620422,0.675198,0.732051,0.728927,0.0605611,0.156003,-0.192444
0.0383965,0.199032,-0.0464793,0.887138,0.475856,0.834342,-0.0401774,0.135434,0.0178965
0.0424899,0.217771,-0.0301709,0.890111,0.262398,0.796368,-0.107956,0.119954,0.182989
0.0420097,0.234361,-0.0166939,0.708588,0.0152142,0.585247,-0.144929,0.105696,0.300342
0.0391548,0.246921,-0.00707466,0.504219,-0.048949,0.4175,-0.120401,0.109822,0.338158
0.0364732,0.255185,0.000408806,0.308759,-0.00833175,0.355779,-0.068701,0.14102,0.356164
0.0356586,0.260262,0.00755738,0.184675,0.0960539,0.361752,-0.0266532,0.149607,0.357722
0.0359267,0.263365,0.0150538,0.107759,0.12701,0.371977,-0.00857265,0.140122,0.359016
0.0366738,0.26494,0.0223121,0.0223651,0.121356,0.322835,-0.00930899,0.105845,0.367352
0.0371602,0.26484,0.0278232,-0.0455695,0.0857085,0.201362,-0.00770391,0.0754298,0.346106
0.038118,0.263439,0.0307074,-0.107304,0.0958334,0.0735559,-0.000493348,0.0541188,0.318971
0.0406687,0.260685,0.0312001,-0.167163,0.181647,-0.0257141,0.0284652,0.0287384,0.286826
0.0453337,0.256357,0.0308106,-0.273597,0.269667,-0.0136984,0.0755018,0.0117827,0.284396
0.0512486,0.249796,0.031681,-0.375614,0.343993,0.0684079,0.0972143,-0.0129712,0.268258
0.0579509,0.24155,0.0340922,-0.478566,0.358201,0.111498,0.0745461,-0.0546761,0.259881
0.0631701,0.230296,0.0375419,-0.667857,0.244073,0.135182,0.0567942,-0.0865233,0.255715
0.06622,0.2164,0.0401339,-0.71611,0.137349,0.0218687,0.00469242,-0.129538,0.139362
0.0684545,0.202547,0.0404696,-0.672399,0.0969691,-0.0557794,0.0156694,-0.1352,0.0416095
0.0711421,0.189656,0.0412079,-0.612899,0.206835,0.0594236,0.0642714,-0.105668,-0.0323169
0.0767502,0.179292,0.0451157,-0.427708,0.416664,0.250589,0.0867246,-0.105008,-0.124426
0.0836497,0.173535,0.0521794,-0.218421,0.351487,0.383092,0.0649043,-0.126208,-0.122086
0.0873028,0.170667,0.0608321,-0.179561,0.160665,0.427013,0.0162476,-0.160437,-0.0856184
0.0874047,0.16715,0.0697108,-0.245133,0.0384208,0.401138,-0.029955,-0.176034,-0.136994
0.0875936,0.163003,0.0774364,-0.222068,0.115605,0.328874,-0.055072,-0.189876,-0.255472
0.0901796,0.159454,0.0840372,-0.200093,0.288752,0.292316,-0.0349294,-0.184758,-0.29868
0.0977138,0.155381,0.0901746,-0.287248,0.521298,0.27621,-0.0190668,-0.19908,-0.287894
0.105683,0.148196,0.0961342,-0.509224,0.298857,0.235031,0.00388502,-0.209737,-0.268447
0.105707,0.136089,0.101661,-0.720013,-0.232224,0.174135,0.0496704,-0.229443,-0.375463
0.105707,0.136089,0.101661,-0.720013,-0.232224,0.174135,0.0496704,-0.229443,-0.375463
0.0969418,0.122682,0.106675,-0.618961,-0.53161,0.199248,0.0786811,-0.169342,-0.598815
0.0868344,0.114517,0.112433,-0.206817,-0.35282,0.319638,0.0743347,-0.0410518,-0.758538
0.0835715,0.117014,0.121108,0.385464,0.147815,0.574779,0.0804114,0.0798971,-0.781026
0.0891277,0.130806,0.134367,0.848792,0.53233,0.86037,0.0974959,0.114778,-0.562924
0.0993691,0.152876,0.152299,1.15802,0.700938,1.1083,0.0875593,0.120131,-0.262312
0.10894,0.179928,0.173536,1.28946,0.56617,1.24478,0.0504096,0.118045,0.0244262
0.112216,0.207832,0.195952,1.20735,0.164614,1.23341,0.0096311,0.0920204,0.238241
0.105879,0.231293,0.217229,0.869376,-0.331751,1.08136,-0.0354691,0.065006,0.364511
0.0913038,0.24646,0.235875,0.482286,-0.62553,0.874946,-0.0476808,0.0656274,0.330687
0.0753108,0.254956,0.251536,0.269306,-0.557306,0.722836,-0.0264971,0.118505,0.191509
0.0622517,0.261003,0.26548,0.282811,-0.376971,0.689608,0.020645,0.17135,0.082943
0.0527944,0.269042,0.279647,0.447546,-0.228101,0.72454,0.0380261,0.215332,0.0381834
0.0439621,0.279688,0.294135,0.538234,-0.288714,0.713231,0.0263023,0.214258,0.0820543
0.0338648,0.291014,0.307748,0.533728,-0.324455,0.631175,-0.00599118,0.1983,0.0938178
0.0244377,0.30094,0.319194,0.413003,-0.277464,0.492662,-0.0477054,0.196717,0.10492
0.0175087,0.307977,0.327785,0.288515,-0.138921,0.344971,-0.0701661,0.183838,0.0716993
0.0147529,0.313596,0.333519,0.286047,0.036197,0.212054,-0.0895029,0.184397,0.0359048
0.0161662,0.319789,0.336589,0.334002,0.198519,0.0910223,-0.10754,0.178197,0.059041
0.0215699,0.326891,0.336819,0.370553,0.340547,-0.0559411,-0.128641,0.154169,0.114702
0.0299667,0.33397,0.333905,0.331754,0.401032,-0.198563,-0.125276,0.131095,0.20412
0.0398442,0.338853,0.328211,0.162848,0.397437,-0.318739,-0.105012,0.106285,0.291448
0.0500677,0.339629,0.320515,-0.054898,0.357521,-0.401376,-0.0683825,0.060173,0.334015
0.0589653,0.335871,0.311963,-0.271356,0.25343,-0.409541,-0.0193529,0.0332963,0.344094
0.0655612,0.328433,0.304415,-0.405369,0.173821,-0.345892,0.0267937,0.00915992,0.293392
0.069738,0.319497,0.298652,-0.423463,0.0514615,-0.259927,0.064338,-0.0284703,0.223926
0.070988,0.311912,0.294956,-0.295306,-0.0315187,-0.139424,0.0850819,-0.0540826,0.118205
0.069715,0.307385,0.293922,-0.163868,-0.123467,0.00957322,0.0913518,-0.0631554,0.0577769
0.0662251,0.30436,0.295809,-0.171326,-0.17233,0.143507,0.0613156,-0.0745234,0.0417455
0.0609135,0.300713,0.299767,-0.217884,-0.238353,0.194765,0.00731616,-0.0986047,0.00224328
0.0545194,0.296142,0.303887,-0.265634,-0.279061,0.172519,-0.0291711,-0.115653,-0.0429071
0.04769,0.29066,0.307558,-0.292702,-0.283626,0.161896,-0.0452909,-0.133368,-0.106511
0.0413187,0.284891,0.311346,-0.31005,-0.244394,0.174795,-0.0505673,-0.165633,-0.149617
0.0351676,0.27737,0.314617,-0.504834,-0.335816,0.0552921,-0.137881,-0.180961,-0.151227
0.0251259,0.262915,0.312301,-0.957472,-0.747847,-0.365503,-0.261793,-0.194296,-0.182786
0.0102286,0.239569,0.299852,-1.33804,-1.00041,-0.882967,-0.268298,-0.156454,-0.338776
-0.00503669,0.211351,0.278325,-1.4114,-0.936851,-1.15397,-0.196461,0.00613765,-0.549135
-0.0143382,0.187869,0.255753,-0.877314,-0.381349,-0.969894,-0.0399002,0.150007,-0.763866
-0.0117886,0.179612,0.241062,0.0562615,0.365978,-0.438756,0.0865346,0.233121,-0.757229
0.00133597,0.189595,0.237121,0.884267,0.777288,0.00744269,0.0605319,0.240554,-0.461859
0.015404,0.211894,0.239467,1.27025,0.604049,0.199068,-0.0549453,0.198197,-0.0626886
0.022176,0.237125,0.242702,1.19996,0.134649,0.125746,-0.182625,0.157974,0.227714
0.0207983,0.257588,0.241862,0.819519,-0.2801,-0.210035,-0.265197,0.104252,0.387376
0.0144606,0.268218,0.232152,0.245423,-0.564908,-0.699776,-0.293255,0.0757282,0.437441
0.0087407,0.26757,0.214177,-0.246204,-0.427996,-0.999367,-0.213889,0.115082,0.326486
0.00861242,0.260761,0.192069,-0.351391,-0.15302,-1.11407,-0.114766,0.175357,0.175799
0.0138762,0.255273,0.169693,-0.148321,0.0813019,-1.04631,-0.0200942,0.200661,0.116259
0.0214193,0.254509,0.149427,0.0939944,0.149341,-0.92087,0.0451139,0.196549,0.164281
0.0283942,0.256854,0.131596,0.136648,0.0745387,-0.80784,0.0878669,0.152186,0.294655
0.0331837,0.257413,0.115841,-0.0602442,0.0246596,-0.731737,0.0939683,0.103365,0.389905
0.0371591,0.252699,0.100937,-0.35093,0.000636746,-0.72885,0.0884037,0.0552702,0.417631
0.0371591,0.252699,0.100937,-0.35093,0.000636746,-0.72885,0.0884037,0.0552702,0.417631
0.04381,0.230969,0.0729725,-0.638162,-0.00931591,-0.658959,0.13234,-0.0113129,0.320152
0.0461779,0.217313,0.0615295,-0.652961,-0.0140531,-0.504796,0.184645,-0.045425,0.244955
0.0469641,0.204871,0.0538408,-0.553847,-0.0919071,-0.317574,0.195429,-0.0715221,0.176387
0.0441703,0.194161,0.0492177,-0.519033,-0.28881,-0.195507,0.164895,-0.113804,0.15582
0.0377763,0.182971,0.046502,-0.594166,-0.379768,-0.120447,0.135882,-0.143183,0.0986643
0.0308775,0.170561,0.0448167,-0.627087,-0.321892,-0.0963995,0.107057,-0.161029,-0.0143392
0.0268702,0.158904,0.043426,-0.509797,-0.0732507,-0.0718304,0.0784368,-0.159177,-0.146119
0.0286701,0.151099,0.0427184,-0.257548,0.224088,-0.0131131,0.0621145,-0.15575,-0.222798
0.0351018,0.148959,0.0432784,0.025338,0.401608,0.0629973,0.0494615,-0.151442,-0.21461
0.042681,0.150726,0.0450237,0.107827,0.366498,0.113746,0.0342928,-0.168981,-0.117203
0.0484499,0.15219,0.0475387,0.0140011,0.244824,0.136083,0.0108904,-0.190407,-0.0768206
0.0520073,0.151804,0.0501836,-0.0541498,0.15985,0.11537,-0.0194342,-0.197945,-0.134663
0.0543945,0.150784,0.0522029,-0.0508172,0.123667,0.0852389,-0.0335787,-0.193994,-0.219931
0.0577198,0.150185,0.0538101,-0.0172124,0.286192,0.0646678,-0.0209819,-0.186423,-0.288828
0.0666951,0.149247,0.0546666,-0.115586,0.592321,0.0165924,0.00222573,-0.204487,-0.274347
0.0773862,0.144252,0.0549148,-0.420217,0.38158,-0.0334447,0.035936,-0.202988,-0.213696
0.0792469,0.132338,0.0549465,-0.731107,-0.192622,-0.0310906,0.0723613,-0.179922,-0.318923
0.0709995,0.118207,0.0567182,-0.606474,-0.541416,0.110669,0.10523,-0.0877409,-0.578053
0.0614241,0.111795,0.0615604,-0.0247976,-0.295055,0.348024,0.100222,0.0246484,-0.7406
0.0591494,0.118815,0.0715746,0.65328,0.181374,0.707411,0.111041,0.100546,-0.652967
0.0640335,0.138001,0.0879663,1.12719,0.478435,1.00681,0.0842931,0.082983,-0.354814
0.0708824,0.164233,0.107775,1.31535,0.445943,1.10911,0.0123749,0.0655194,-0.0174134
0.0725795,0.191104,0.128116,1.18292,0.0304726,1.06581,-0.0237103,0.0288102,0.254479
0.0629988,0.212514,0.146472,0.80041,-0.63355,0.859863,-0.0442526,-0.018055,0.388712
0.0425304,0.224608,0.160923,0.345929,-1.02403,0.628332,-0.0511694,-0.0078515,0.32927
0.0187208,0.2285,0.171722,0.0525102,-1.07538,0.44413,-0.0459126,0.086685,0.15859
-0.00180962,0.22941,0.179587,0.0794959,-0.770828,0.343193,-0.0246508,0.160433,-0.0244309
-0.0149744,0.233203,0.186232,0.336553,-0.423249,0.300253,0.0119745,0.223161,-0.0963308
-0.0224041,0.242769,0.192669,0.626513,-0.183909,0.303633,0.039827,0.222126,-0.0689809
-0.0263827,0.256716,0.198818,0.744876,-0.0675046,0.261398,0.039248,0.230788,0.0455973
-0.0289259,0.270781,0.204594,0.668598,-0.0529325,0.257536,0.0301721,0.235181,0.143671
-0.0323556,0.282773,0.209713,0.550229,-0.162272,0.185925,-0.000474706,0.214841,0.183828
-0.0371682,0.2927,0.212569,0.464151,-0.212179,0.0473288,-0.04427,0.188303,0.169972
-0.0403431,0.301047,0.212089,0.368724,-0.10628,-0.127497,-0.0794016,0.184689,0.160976
-0.0397455,0.307482,0.207848,0.264283,0.0310565,-0.294093,-0.0775461,0.163821,0.163466
-0.0360103,0.312337,0.200617,0.210398,0.104392,-0.409573,-0.0614882,0.139696,0.158078
-0.0309679,0.316931,0.191292,0.229795,0.103667,-0.495825,-0.0567912,0.112464,0.145892
-0.025596,0.32234,0.18041,0.282775,0.0827017,-0.549528,-0.0408342,0.0705555,0.153814
-0.0208275,0.328354,0.168724,0.282012,0.0208017,-0.571419,-0.0327159,0.0475071,0.181827
-0.0174053,0.333631,0.156657,0.224742,-0.0670349,-0.577931,-0.00665705,0.000831515,0.187072
-0.0148667,0.337897,0.144753,0.192919,-0.0478595,-0.550268,0.0218228,-0.0221183,0.156942
-0.0111911,0.341806,0.133739,0.187999,0.0535021,-0.49346,0.0343472,-0.0374151,0.135466
-0.00644456,0.34547,0.124067,0.160082,0.0651699,-0.421523,0.0474456,-0.0854943,0.145136
-0.00336869,0.347475,0.115663,0.0195947,-0.0713126,-0.393882,0.0472653,-0.139181,0.177046
-0.00382435,0.345908,0.106744,-0.171389,-0.249885,-0.478628,0.0194364,-0.18814,0.147045
-0.00606052,0.34063,0.0953993,-0.367337,-0.357515,-0.559203,0.0338953,-0.19015,0.106528
-0.00992021,0.331758,0.0840715,-0.504746,-0.381393,-0.493209,0.0766093,-0.163858,0.0197504
-0.0134841,0.321585,0.0743484,-0.525069,-0.286884,-0.417297,0.107473,-0.193664,-0.07401
-0.0165732,0.309761,0.0660206,-0.71868,-0.320298,-0.382591,0.061911,-0.17962,-0.074229
-0.0216242,0.291764,0.0559877,-1.11001,-0.515317,-0.558691,-0.0527471,-0.169526,-0.11997
-0.0216242,0.291764,0.0559877,-1.11001,-0.515317,-0.558691,-0.0527471,-0.169526,-0.11997
-0.0316171,0.267249,0.041494,-1.33158,-0.910834,-0.761119,-0.0357792,-0.152043,-0.263276
-0.0488861,0.241698,0.0239952,-1.26308,-1.21906,-0.807273,-0.0012446,-0.0319651,-0.458236
-0.0687776,0.219953,0.00775676,-0.977474,-1.04457,-0.607493,0.0524039,0.0816022,-0.643373
-0.080651,0.20578,-0.00255307,-0.47743,-0.314334,-0.274261,0.0723331,0.114365,-0.749149
-0.0785357,0.204221,-0.00458708,0.357856,0.433715,0.0583553,0.047482,0.143493,-0.713511
-0.0675904,0.219895,5.65564e-05,1.1842,0.659117,0.248124,-0.0715385,0.188296,-0.418383
-0.0586385,0.246956,0.00654252,1.46596,0.336828,0.171289,-0.210858,0.222283,-0.0109637
-0.0564218,0.274345,0.0088043,1.22761,-0.0402798,-0.136702,-0.268761,0.180493,0.277233
-0.0579602,0.29418,0.00288246,0.70166,-0.244716,-0.541707,-0.23991,0.163826,0.415821
-0.0583849,0.303323,-0.0107528,0.152816,-0.153531,-0.774763,-0.1361,0.199038,0.413157
-0.0539046,0.30296,-0.0273408,-0.245296,0.0990745,-0.789776,-0.0362676,0.243796,0.359642
-0.0458919,0.296812,-0.0436782,-0.410393,0.18921,-0.740075,0.0120094,0.235589,0.308294
-0.0382518,0.289275,-0.0589869,-0.388675,0.116336,-0.706325,0.031969,0.200891,0.27321
-0.0329353,0.282676,-0.073862,-0.322638,0.00600346,-0.692925,0.0458741,0.162792,0.253539
-0.029405,0.276962,-0.0877523,-0.305248,-0.0202065,-0.619793,0.0783596,0.133786,0.258701
-0.0260072,0.270873,-0.0996816,-0.343711,0.0593991,-0.514615,0.100557,0.0993444,0.268235
-0.0209847,0.263368,-0.109742,-0.429523,0.177646,-0.442213,0.0900991,0.0468478,0.280873
-0.014216,0.254673,-0.118452,-0.447133,0.262289,-0.380652,0.0794614,-0.0172968,0.268215
-0.00753552,0.246392,-0.12574,-0.381088,0.204207,-0.319969,0.0744313,-0.0629937,0.268737
-0.00337926,0.239601,-0.131766,-0.316852,0.0530127,-0.268453,0.0726797,-0.104909,0.285545
-0.00292409,0.233213,-0.137116,-0.336503,-0.127428,-0.258105,0.0652534,-0.146397,0.292825
-0.00514257,0.226097,-0.142609,-0.375311,-0.19983,-0.274447,0.0657721,-0.167274,0.238788
-0.00704661,0.218617,-0.148254,-0.371759,-0.0943276,-0.269897,0.0823488,-0.161324,0.14515
-0.00624029,0.211831,-0.153396,-0.297315,0.0680835,-0.219898,0.117322,-0.159638,0.0624216
-0.00347181,0.207146,-0.156922,-0.16894,0.105131,-0.117078,0.15948,-0.163977,0.0201199
-0.00186261,0.204813,-0.158379,-0.0809781,0.028868,-0.0329859,0.162728,-0.189042,0.00114638
-0.00130785,0.202967,-0.158821,-0.137284,0.0298506,-0.0256131,0.141723,-0.233131,-0.0236866
-0.000409174,0.19838,-0.159822,-0.334119,0.0368586,-0.0852643,0.100651,-0.254701,-0.0829826
0.000653435,0.189565,-0.162632,-0.544711,0.0239076,-0.194095,0.05577,-0.258788,-0.198761
0.00317426,0.177391,-0.167403,-0.644678,0.182231,-0.273587,0.0636022,-0.250204,-0.364407
0.0105719,0.165155,-0.173252,-0.567986,0.409555,-0.299996,0.0952392,-0.252968,-0.504415
0.018925,0.154481,-0.178646,-0.506851,0.294368,-0.225373,0.149667,-0.236696,-0.553025
0.0225873,0.144922,-0.181053,-0.442066,0.0228477,-0.0255456,0.177297,-0.185098,-0.612328
0.0214506,0.138188,-0.17965,-0.206349,-0.0565103,0.131944,0.108654,-0.0978165,-0.702739
0.0217399,0.13731,-0.176126,0.103891,0.160318,0.213397,0.038113,-0.00868939,-0.710467
0.0274031,0.142402,-0.170803,0.394305,0.499571,0.3388,0.0565264,0.0437159,-0.598995
0.040734,0.153816,-0.162332,0.718561,0.96302,0.547288,0.0968277,0.0830956,-0.411247
0.0607018,0.171145,-0.150104,0.924888,1.17814,0.743875,0.0932674,0.109916,-0.124899
0.0801093,0.190809,-0.134965,0.893352,0.959837,0.870443,0.0802726,0.0870226,0.150638
0.0906292,0.20768,-0.118313,0.626214,0.419869,0.888977,0.0723283,0.0382065,0.310098
0.0900888,0.218338,-0.101344,0.303504,-0.100743,0.86992,0.059874,0.0256284,0.292475
0.0805449,0.224144,-0.083804,0.158518,-0.425244,0.893873,0.0571902,0.0759094,0.144172
0.0668769,0.228591,-0.0653547,0.184662,-0.474941,0.946585,0.0356346,0.137311,-0.0116195
0.0548834,0.235096,-0.0457422,0.366113,-0.249347,1.00885,0.0132577,0.184154,-0.128276
0.0476554,0.246007,-0.0247913,0.632527,0.0167675,1.08826,0.00439497,0.205447,-0.162694
0.0437627,0.262544,-0.00233369,0.910322,0.116616,1.16845,-0.00822245,0.223589,-0.0899252
0.0386351,0.282998,0.021577,1.00651,-0.015773,1.2138,-0.0402324,0.217712,0.0636168
0.0298351,0.303302,0.0456444,0.927438,-0.148934,1.14283,-0.113781,0.191968,0.154248
0.0200826,0.320707,0.0670341,0.762376,-0.141867,0.919732,-0.190063,0.158057,0.194213
0.013142,0.334616,0.082938,0.613694,-0.0320962,0.61468,-0.224861,0.144629,0.20358
0.013142,0.334616,0.082938,0.613694,-0.0320962,0.61468,-0.224861,0.144629,0.20358
0.0106015,0.346165,0.0929678,0.547922,0.10858,0.357326,-0.206246,0.164183,0.21109
0.0116035,0.357015,0.0984645,0.533931,0.156077,0.18554,-0.156639,0.182472,0.261542
0.0130975,0.367321,0.101245,0.485756,0.0747969,0.10506,-0.0927288,0.187806,0.329987
0.0128108,0.376277,0.103225,0.408663,-0.0232046,0.0982438,-0.0356874,0.171126,0.35666
0.010678,0.383677,0.105339,0.330982,-0.114126,0.105906,-0.00172274,0.138249,0.35934
0.00689642,0.389528,0.10738,0.249548,-0.194607,0.0890866,0.0211624,0.089301,0.334795
0.00087919,0.393288,0.108911,0.112906,-0.366566,0.0430194,0.0143552,0.0472142,0.298318
-0.00849468,0.393255,0.108752,-0.128034,-0.559058,-0.0660899,-0.0124023,0.0172149,0.239246
-0.0187294,0.388217,0.105815,-0.366068,-0.553459,-0.204225,-0.0248406,-0.0216991,0.116738
-0.0262793,0.379484,0.099528,-0.502348,-0.423081,-0.356382,-0.0200267,-0.0530663,-0.02018
-0.0299779,0.369278,0.0907398,-0.527236,-0.261227,-0.411098,0.0187213,-0.0755206,-0.130483
-0.0299852,0.359177,0.0816019,-0.530304,-0.0887391,-0.417185,0.0235662,-0.100446,-0.169459
-0.0288672,0.347378,0.0713527,-0.707199,-0.186425,-0.533905,-0.0185151,-0.122351,-0.113636
-0.0302824,0.330591,0.056643,-1.04147,-0.46833,-0.837785,-0.115863,-0.132688,-0.117007
-0.0345399,0.306415,0.0342844,-1.44255,-0.623209,-1.2068,-0.116383,-0.12687,-0.228926
-0.0393989,0.276371,0.00655126,-1.58867,-0.647775,-1.27567,-0.0316709,-0.0214304,-0.409178
-0.0429179,0.249309,-0.0186015,-1.14095,-0.296925,-1.02249,0.0542583,0.0954896,-0.613719
-0.0385942,0.23472,-0.0363979,-0.388748,0.335766,-0.633212,0.0971122,0.117703,-0.614449
-0.0243502,0.233362,-0.0462571,0.15079,0.768261,-0.351331,0.0694337,0.0920285,-0.327138
-0.00768318,0.238642,-0.0509712,0.335763,0.743416,-0.118318,0.0256386,0.0776617,0.00716889
0.00427026,0.245751,-0.0515489,0.371604,0.412105,0.0472063,-0.0124427,0.0835256,0.223227
0.00813904,0.253131,-0.049693,0.355018,0.0210635,0.130956,-0.0491699,0.0819642,0.314521
0.00405458,0.259077,-0.046889,0.218877,-0.354003,0.125727,-0.0943276,0.0693295,0.353979
-0.00617838,0.260858,-0.0454651,-0.0534029,-0.602807,-0.00877178,-0.146847,0.0580195,0.339457
-0.0179032,0.256906,-0.048034,-0.32714,-0.597951,-0.241323,-0.170887,0.0551451,0.256317
-0.0258835,0.249201,-0.0552756,-0.423423,-0.351103,-0.431189,-0.111805,0.0678276,0.144688
-0.0269293,0.241885,-0.0657528,-0.323204,-0.0243372,-0.560094,-0.0660819,0.101365,0.0942391
-0.0227237,0.236758,-0.0780769,-0.238268,0.128279,-0.606589,0.0154809,0.10354,0.166616
-0.0170721,0.232143,-0.0903338,-0.260851,0.13731,-0.575879,0.0797694,0.107764,0.275097
-0.0122562,0.22669,-0.101708,-0.305773,0.0719099,-0.52423,0.116862,0.110984,0.332939
-0.00962676,0.220414,-0.111828,-0.328377,-0.0210179,-0.449765,0.150339,0.104269,0.331994
-0.00849271,0.213503,-0.119645,-0.390301,-0.0322767,-0.291469,0.187484,0.110078,0.339228
-0.00857074,0.204148,-0.123398,-0.560834,-0.0571386,-0.0734945,0.220688,0.0665179,0.348262
-0.0102768,0.191097,-0.123277,-0.743144,-0.117441,0.0879033,0.192798,-0.00098148,0.314996
-0.0139557,0.175226,-0.120838,-0.819782,-0.202525,0.147334,0.135171,-0.086686,0.211551
-0.0185521,0.159093,-0.118842,-0.777394,-0.227965,0.0650674,0.0803895,-0.181451,0.0707128
-0.0232223,0.144441,-0.118966,-0.698214,-0.235757,-0.040909,0.0698992,-0.248837,-0.0540458
-0.0271085,0.131069,-0.120486,-0.645504,-0.158763,-0.0466591,0.126421,-0.283735,-0.15628
-0.0286426,0.118968,-0.120801,-0.564943,-0.0100372,0.0607192,0.17637,-0.291881,-0.264861
-0.0284021,0.108351,-0.118714,-0.500568,0.035062,0.170535,0.176669,-0.30693,-0.340082
-0.0287146,0.0985159,-0.115038,-0.475009,-0.0248785,0.20858,0.131584,-0.313463,-0.414668
-0.0287595,0.0897631,-0.111187,-0.38046,0.0867081,0.200008,0.10916,-0.322879,-0.523954
-0.0254238,0.0832147,-0.107397,-0.272009,0.267175,0.205143,0.130665,-0.308849,-0.582197
-0.0202502,0.0780778,-0.102957,-0.243005,0.234342,0.25104,0.158645,-0.273793,-0.585862
-0.0178783,0.0731532,-0.0972559,-0.232779,0.0528854,0.340645,0.193367,-0.228014,-0.628215
-0.0179393,0.0696985,-0.0888906,-0.0595809,0.0317272,0.513407,0.235332,-0.151748,-0.728708
-0.0170263,0.0723365,-0.0761552,0.376334,0.163999,0.763888,0.233503,-0.0207441,-0.770765
-0.0133285,0.0844686,-0.0582744,0.859829,0.374196,1.00746,0.209814,0.0852075,-0.659065
-0.00444866,0.105355,-0.0358158,1.22091,0.727881,1.2023,0.189925,0.131589,-0.429306
0.00985022,0.131283,-0.0101304,1.34369,0.969069,1.36222,0.170685,0.176285,-0.127184
0.0247832,0.158038,0.0183144,1.26199,0.882679,1.49587,0.169315,0.199221,0.132102
0.0247832,0.158038,0.0183144,1.26199,0.882679,1.49587,0.169315,0.199221,0.132102
0.0339676,0.18192,0.0486375,1.02459,0.532641,1.56097,0.147599,0.191508,0.265722
0.0345505,0.20018,0.0797971,0.692207,0.119464,1.55858,0.0891168,0.213784,0.289871
0.0262772,0.212331,0.110553,0.46641,-0.308852,1.49187,0.0492213,0.244614,0.203203
0.0120195,0.222171,0.139652,0.497618,-0.431466,1.38043,0.0486857,0.260509,0.0277495
-0.000569549,0.233698,0.167142,0.644342,-0.158862,1.32927,0.0605669,0.31083,-0.0766218
-0.00619146,0.247434,0.194915,0.728261,0.249598,1.38176,0.0764222,0.349272,-0.0614805
-0.00631943,0.261967,0.224017,0.738006,0.426092,1.42273,0.0643618,0.338602,0.0398071
-0.00581951,0.276258,0.253072,0.704114,0.37934,1.36374,0.0261982,0.29824,0.147125
-0.00691336,0.289435,0.280443,0.629865,0.285606,1.26107,0.00128518,0.269222,0.208352
-0.00868363,0.301029,0.305695,0.5475,0.28987,1.15382,-0.00463114,0.243769,0.23855
-0.00917558,0.310456,0.328772,0.413292,0.371349,1.04565,-0.00923802,0.222699,0.26998
-0.00739673,0.317075,0.349618,0.268736,0.441801,0.940461,-0.0177523,0.194967,0.288382
-0.004469,0.321169,0.368289,0.161096,0.425631,0.83598,-0.0188766,0.156497,0.290074
-0.00165072,0.32361,0.384863,0.0882282,0.373908,0.738387,-0.019721,0.122129,0.290149
0.000176893,0.324826,0.399373,0.0409309,0.279664,0.641664,-0.0266721,0.0940772,0.272062
0.00138108,0.325552,0.411872,0.0276278,0.244581,0.546228,-0.0337487,0.0766066,0.23295
0.00281294,0.325547,0.422314,-0.0447206,0.224981,0.458176,-0.0404459,0.0654172,0.214547
0.00497038,0.323921,0.431179,-0.105936,0.277425,0.39017,-0.0402191,0.0397067,0.167359
0.0088075,0.322011,0.438875,-0.0821613,0.347707,0.346482,-0.0117574,0.0148847,0.126451
0.0136361,0.320346,0.445747,-0.109416,0.334617,0.296398,-0.000429798,-0.0133982,0.148867
0.0174079,0.316814,0.451114,-0.261993,0.197097,0.200826,0.00627122,-0.0609108,0.181259
0.0184913,0.309687,0.454143,-0.45712,-0.000975761,0.0764121,0.0436992,-0.0684694,0.154277
0.0173944,0.298718,0.454945,-0.647114,-0.0466131,-0.00932578,0.123819,-0.0700845,0.066303
0.0183232,0.283906,0.454796,-0.828536,0.167388,-0.0110688,0.198415,-0.0558452,-0.0550851
0.0258192,0.266113,0.455704,-0.943235,0.637942,0.0788983,0.279505,-0.0582753,-0.158141
0.0411352,0.246419,0.459967,-1.06192,0.914745,0.269055,0.315114,-0.0415436,-0.144569
0.0540786,0.22267,0.46736,-1.4016,0.420831,0.286595,0.195421,-0.0709592,-0.0633917
0.0518896,0.190343,0.473042,-1.83798,-0.490942,0.0869043,0.0600782,-0.126829,-0.191913
0.0371047,0.152998,0.474716,-1.8015,-0.799516,-0.070954,0.0103953,-0.097217,-0.602205
0.0266965,0.122739,0.474753,-1.16971,-0.17192,0.0444339,-0.00651877,0.0128885,-0.954669
0.0315822,0.10779,0.479178,-0.334078,0.698943,0.331265,-0.0310122,0.0982278,-0.97122
0.0504447,0.108901,0.489169,0.373718,1.23261,0.664523,-0.104461,0.104184,-0.733339
0.0745982,0.123353,0.503398,0.968319,1.27362,0.808389,-0.245868,0.110483,-0.411817
0.0939932,0.148417,0.517685,1.3773,0.81017,0.803504,-0.360905,0.127335,-0.113534
0.101838,0.178999,0.52943,1.50932,0.174938,0.611791,-0.486802,0.124349,0.11781
0.0990348,0.208199,0.534366,1.31029,-0.324519,0.136086,-0.594067,0.117617,0.267678
0.091856,0.230271,0.529654,0.928376,-0.433828,-0.364043,-0.56477,0.136246,0.317782
0.0881242,0.244305,0.517078,0.600821,-0.187819,-0.702565,-0.453362,0.201492,0.2905
0.0928013,0.252452,0.499945,0.371468,0.235685,-0.85811,-0.315469,0.249962,0.287852
0.105382,0.256064,0.481472,0.174348,0.518051,-0.867886,-0.189831,0.254252,0.341529
0.119866,0.256287,0.464308,0.0483389,0.45272,-0.771162,-0.0970883,0.23843,0.397744
0.129403,0.254702,0.449913,-0.0325546,0.0955821,-0.629998,-0.0166482,0.198521,0.437461
0.130116,0.251956,0.438848,-0.104005,-0.25954,-0.464757,0.0575295,0.129868,0.412755
0.125357,0.247499,0.431673,-0.264535,-0.354445,-0.290267,0.103344,0.0921782,0.382376
0.120554,0.240047,0.427874,-0.421857,-0.191314,-0.178267,0.0965193,0.0388041,0.320448
0.119075,0.230488,0.426259,-0.481682,-0.00513111,-0.112818,0.113306,-0.0177476,0.256136
0.119626,0.221342,0.425099,-0.417628,-0.00908891,-0.0876762,0.124049,-0.054768,0.216816
0.117432,0.213355,0.425474,-0.391849,-0.206811,0.0421684,0.181087,-0.0769867,0.204237
0.111239,0.205707,0.429189,-0.417678,-0.315129,0.236852,0.210422,-0.0992841,0.151364
0.103803,0.19778,0.436426,-0.443088,-0.254918,0.360098,0.173885,-0.134134,0.0629349
0.0989499,0.18992,0.444925,-0.414623,-0.0552934,0.380421,0.125766,-0.17386,-0.023883
0.0983499,0.183208,0.453203,-0.32773,0.13937,0.363863,0.106821,-0.197972,-0.0692168
0.100572,0.178592,0.461162,-0.210438,0.213096,0.381675,0.111491,-0.201323,-0.0775797
0.103464,0.176163,0.469825,-0.124059,0.225639,0.448823,0.112033,-0.196283,-0.078557
0.106246,0.17549,0.479725,-0.0393448,0.240972,0.514761,0.0934435,-0.194825,-0.100791
0.109415,0.17674,0.490402,0.0482895,0.263042,0.533678,0.0591609,-0.196936,-0.138042
0.113301,0.179838,0.500596,0.144309,0.307349,0.491835,0.024781,-0.205896,-0.181814
0.118161,0.184426,0.509434,0.212644,0.346685,0.430485,0.00249061,-0.201353,-0.224725
0.124688,0.190225,0.51733,0.262493,0.463793,0.43074,0.0176789,-0.160224,-0.265972
0.133906,0.197024,0.526064,0.290404,0.634133,0.509547,0.0418517,-0.131565,-0.280262
0.145182,0.204044,0.535891,0.249098,0.6254,0.532057,0.0511539,-0.184378,-0.240611
0.149477,0.208246,0.546182,-0.0208654,-0.0794965,0.527272,0.022708,-0.179731,-0.188994
0.138721,0.20733,0.556676,-0.183307,-0.67871,0.486233,-0.00265487,-0.146065,-0.350732
0.120539,0.205166,0.566885,-0.111028,-0.864114,0.490141,-0.0359379,-0.0409445,-0.540009
0.104287,0.207451,0.57707,0.261301,-0.473505,0.530709,-0.0460799,0.047427,-0.666284
0.100078,0.218675,0.58765,0.745858,0.314698,0.617355,-0.0385868,0.120348,-0.60632
0.110546,0.237865,0.59929,0.998455,0.906832,0.717463,-0.02735,0.145235,-0.280793
0.126365,0.25992,0.612798,1.01558,0.932461,0.84393,0.000686623,0.141083,0.0723675
0.137363,0.281338,0.628163,0.901727,0.538885,0.895474,0.00878678,0.118766,0.314139
0.13776,0.299425,0.643794,0.662494,-0.0803222,0.829203,-0.00113304,0.0732146,0.454663
0.125617,0.311438,0.658375,0.344781,-0.639686,0.702189,0.005389,0.0595862,0.464184
0.107145,0.316987,0.671057,0.0855558,-0.752401,0.571482,0.0154838,0.0971975,0.343457
0.0897597,0.318033,0.681953,-0.0657719,-0.651833,0.488685,0.056305,0.148514,0.232573
0.0740114,0.316768,0.692443,-0.134201,-0.599429,0.511746,0.122011,0.194035,0.156798
0.0593097,0.314255,0.703982,-0.199203,-0.491721,0.564947,0.159342,0.217174,0.0941605
0.0593097,0.314255,0.703982,-0.199203,-0.491721,0.564947,0.159342,0.217174,0.0941605
0.0469142,0.310242,0.716579,-0.255458,-0.363211,0.614465,0.161946,0.223594,0.0173588
0.0367885,0.306237,0.729684,-0.174013,-0.27292,0.611909,0.141292,0.219366,-0.0715387
0.0276193,0.305121,0.742266,0.0373603,-0.266688,0.591462,0.130856,0.220651,-0.134139
0.0192578,0.308587,0.754489,0.273819,-0.183382,0.58337,0.10647,0.238497,-0.139164
0.0135854,0.315394,0.766137,0.352918,-0.0218729,0.533931,0.056711,0.236949,-0.0623071
0.0119964,0.32185,0.776606,0.263453,0.188234,0.462743,0.00113209,0.223884,0.0426389
0.0150838,0.325929,0.784973,0.148763,0.386609,0.32948,-0.0682289,0.197874,0.109874
0.0220945,0.328142,0.790007,0.0653731,0.450165,0.152617,-0.116419,0.162357,0.183838
0.0306471,0.328637,0.791257,-0.0260473,0.436826,-0.0417287,-0.150264,0.130981,0.244836
0.0397815,0.32636,0.788001,-0.205326,0.354242,-0.27238,-0.170957,0.087046,0.311975
0.0476419,0.319911,0.780869,-0.406616,0.208835,-0.426035,-0.134609,0.0595387,0.328603
0.0537047,0.310055,0.77137,-0.517814,0.107478,-0.512973,-0.0921196,0.0407066,0.264665
0.0577078,0.29899,0.761468,-0.523734,0.010189,-0.478015,-0.0270102,0.0292511,0.184528
0.0595788,0.288337,0.753053,-0.502773,-0.0995028,-0.391205,0.011335,0.0077014,0.128877
0.0576404,0.278041,0.746199,-0.486759,-0.269308,-0.341876,0.0221034,-0.0530425,0.0780096
0.0532514,0.26799,0.739456,-0.491935,-0.344904,-0.368237,0.0123639,-0.0915753,0.0154742
0.0479968,0.257451,0.732059,-0.537142,-0.392363,-0.404529,0.0238239,-0.118811,-0.045058
0.0415307,0.24581,0.724045,-0.587402,-0.423175,-0.406648,0.0856448,-0.149816,-0.122616
0.0364387,0.233626,0.717008,-0.609099,-0.241382,-0.321649,0.146871,-0.173461,-0.20129
0.0337909,0.219251,0.710845,-0.878143,-0.236879,-0.367762,0.098784,-0.192215,-0.172782
0.0282326,0.196242,0.702256,-1.39658,-0.49506,-0.547731,0.0568772,-0.211494,-0.17054
0.0189263,0.164935,0.69073,-1.64803,-0.642184,-0.644132,0.103082,-0.145031,-0.341217
0.0082495,0.133769,0.678914,-1.39179,-0.539592,-0.535104,0.170917,-0.0323405,-0.571879
0.00323785,0.111671,0.671582,-0.780407,-0.00179477,-0.161808,0.265978,0.0644419,-0.697427
0.00888636,0.103454,0.673503,-0.0552802,0.535297,0.355802,0.320324,0.08679,-0.59085
0.0208902,0.108783,0.685359,0.533708,0.727476,0.816774,0.268419,0.068667,-0.334329
0.0313512,0.123406,0.704333,0.835414,0.49052,1.06622,0.121053,0.0611882,-0.0671593
0.0333496,0.141518,0.724998,0.875992,-0.0430124,0.999848,-0.0368247,0.00553313,0.123928
0.025552,0.15805,0.741197,0.702282,-0.430338,0.629073,-0.153328,-0.0358139,0.194581
0.0156592,0.169016,0.749368,0.370141,-0.373792,0.212892,-0.185846,-0.010468,0.177967
0.0109275,0.173304,0.750115,0.0851933,-0.0585937,-0.10755,-0.136847,0.0487963,0.107322
0.0140245,0.173607,0.746406,-0.0196619,0.275341,-0.223787,-0.0422861,0.112403,0.0577167
0.0217695,0.173816,0.742245,0.0759535,0.389909,-0.17038,0.0392902,0.156738,0.064563
0.029235,0.17702,0.739425,0.243554,0.28887,-0.104764,0.0682871,0.160548,0.130833
0.034106,0.182411,0.737634,0.268874,0.187352,-0.0565908,0.0852408,0.142659,0.234088
0.0378702,0.186396,0.736976,0.119835,0.195045,0.0139592,0.107326,0.132065,0.306284
0.042701,0.187308,0.738164,-0.0306196,0.308845,0.103892,0.124425,0.113613,0.321991
0.0486366,0.185484,0.741058,-0.151991,0.329013,0.177989,0.127159,0.0848584,0.327571
0.0538851,0.18199,0.746002,-0.223728,0.239037,0.291003,0.144937,0.0407889,0.323168
0.054882,0.177053,0.753204,-0.305702,0.000993439,0.385411,0.138218,-0.0011171,0.301519
0.0523678,0.170484,0.761737,-0.403975,-0.0988572,0.415579,0.125478,-0.0512118,0.240911
0.0487314,0.161778,0.770663,-0.503982,-0.098733,0.423034,0.127827,-0.074721,0.165245
0.0466829,0.151845,0.77985,-0.520993,0.0311239,0.445617,0.143507,-0.0917037,0.0629936
0.046657,0.142129,0.789821,-0.483239,0.114375,0.504429,0.175403,-0.103817,-0.0058201
0.0488505,0.134104,0.801503,-0.370448,0.252535,0.626218,0.209252,-0.0990394,-0.0650771
0.0526108,0.128242,0.815859,-0.304425,0.28832,0.770078,0.235855,-0.10241,-0.0619827
0.0558863,0.123162,0.833206,-0.300885,0.25755,0.923786,0.239305,-0.106672,-0.0734248
0.0585668,0.118537,0.853394,-0.267541,0.257848,1.05756,0.214674,-0.0988276,-0.122947
0.0615017,0.115772,0.876014,-0.134273,0.309452,1.17156,0.188277,-0.0887865,-0.191616
0.0657328,0.116102,0.900478,0.0030556,0.385384,1.26716,0.158588,-0.0757782,-0.220486
0.0716391,0.119115,0.926735,0.106286,0.505567,1.36472,0.141454,-0.0646836,-0.224766
0.0795535,0.123954,0.954714,0.148176,0.603372,1.44726,0.127378,-0.0665337,-0.186684
0.0870342,0.128833,0.984081,0.0861605,0.475494,1.50041,0.106957,-0.0751821,-0.127764
0.0895488,0.132243,1.01387,-0.018869,0.130706,1.46317,0.042913,-0.0566334,-0.133736
0.0895488,0.132243,1.01387,-0.018869,0.130706,1.46317,0.042913,-0.0566334,-0.133736
0.0856166,0.133376,1.04228,-0.0931845,-0.0969163,1.36972,0.0112406,-0.0346826,-0.246017
0.0802335,0.134498,1.06959,0.0105958,-0.0585805,1.36079,0.0460342,0.0259996,-0.385739
0.0769561,0.139536,1.09769,0.285115,0.138474,1.4716,0.101571,0.0918118,-0.440308
0.0782833,0.150183,1.12824,0.527247,0.416441,1.6389,0.110879,0.152762,-0.361025
0.0820693,0.164743,1.16165,0.642546,0.436188,1.75934,0.0964094,0.157605,-0.158476
0.083158,0.181156,1.19651,0.70995,0.268985,1.80473,0.0920031,0.136832,0.00175184
0.0799678,0.198758,1.23204,0.755367,0.0818612,1.81496,0.0882398,0.137942,0.112098
0.0722536,0.215916,1.26739,0.662431,-0.13569,1.77085,0.0805933,0.13247,0.204457
0.0600183,0.229029,1.30174,0.409383,-0.302884,1.65474,0.0604043,0.110989,0.246929
0.0461872,0.23571,1.33328,0.0964222,-0.33767,1.44488,0.0199711,0.114835,0.216749
0.0334415,0.236027,1.36046,-0.142327,-0.28268,1.20792,0.0114219,0.121369,0.125006
0.0236006,0.233191,1.38333,-0.169427,-0.172021,1.0231,0.0428515,0.13477,0.00916195
0.016914,0.231873,1.40306,0.0123136,-0.056341,0.90581,0.0760078,0.159289,-0.0789796
0.0120839,0.234055,1.42111,0.165109,-0.0291144,0.87067,0.116633,0.16512,-0.0852441
0.00709949,0.238411,1.4387,0.249557,-0.0601294,0.839968,0.109343,0.167647,-0.0843099
0.0017817,0.244021,1.45507,0.300785,-0.0723237,0.748484,0.076152,0.158859,-0.101435
-0.00197762,0.250454,1.46941,0.347969,0.0609423,0.63733,0.0440913,0.166072,-0.125364
-0.00175284,0.258036,1.48131,0.423996,0.265984,0.5176,0.0248119,0.17663,-0.111722
0.0031368,0.267462,1.49071,0.51285,0.444525,0.388784,0.0088309,0.169482,-0.0376046
0.0108337,0.2777,1.49721,0.484233,0.490414,0.250892,0.0154148,0.139882,0.0999836
0.0196946,0.285836,1.50098,0.306953,0.492863,0.11879,0.0235558,0.106652,0.214215
0.0286474,0.289694,1.50186,0.0833095,0.41388,-0.0268417,0.0348975,0.0590199,0.273139
0.0357837,0.289329,1.49994,-0.101641,0.243422,-0.15441,0.0575995,0.0246742,0.275388
0.040261,0.286204,1.4959,-0.168564,0.0939632,-0.229699,0.0767895,0.029917,0.21297
0.0418375,0.283279,1.49132,-0.105174,-0.0599607,-0.219997,0.113925,0.0427962,0.139251
0.0413634,0.281863,1.48728,-0.0209525,-0.0707539,-0.170837,0.132323,0.0356378,0.0895086
0.0423341,0.282032,1.48401,0.0422408,0.0628582,-0.140897,0.121765,0.020633,0.070166
0.0459204,0.283251,1.48131,0.0798605,0.194031,-0.111736,0.117104,0.00245538,0.0809659
0.0511976,0.284737,1.47845,0.0719537,0.205255,-0.159278,0.0871006,-0.0256135,0.119229
0.0555909,0.285615,1.47422,0.0362689,0.086969,-0.240307,0.067401,-0.0518555,0.130827
0.0579248,0.286288,1.46817,0.0826654,-0.0301759,-0.327863,0.0412658,-0.0598003,0.0817438
0.0573322,0.288848,1.46136,0.210993,-0.228109,-0.284438,0.0893755,-0.0404384,0.0520293
0.0533894,0.29401,1.45687,0.3267,-0.242196,-0.106088,0.125516,-0.0352348,0.0322943
0.051164,0.300553,1.45599,0.290145,-0.0258616,0.0522982,0.119349,-0.0813164,0.0688521
0.0500541,0.303714,1.45769,-0.0487921,-0.158692,0.0677273,0.0255448,-0.086432,0.148304
0.040397,0.296062,1.45602,-0.732025,-0.882599,-0.30433,-0.14956,-0.120537,0.130594
0.0206175,0.276095,1.44567,-1.17461,-1.34378,-0.728448,-0.148925,-0.15016,-0.156317
-0.00191743,0.252948,1.42858,-1.02943,-1.20791,-0.881404,-0.0683797,-0.0135955,-0.549142
-0.013252,0.237877,1.41261,-0.479872,-0.245434,-0.597784,0.0532228,0.124922,-0.790879
-0.00561005,0.233225,1.40521,-0.0462143,0.777945,-0.120617,0.114101,0.189888,-0.674154
0.0147468,0.233924,1.40653,0.0898313,1.17848,0.234092,0.0847308,0.128891,-0.349653
0.0353176,0.236579,1.41349,0.165579,0.97814,0.425586,0.0199183,0.0682403,-0.109454
0.0481207,0.24181,1.42323,0.319961,0.524205,0.547167,-0.0015518,0.0465896,0.041941
0.051465,0.250064,1.43585,0.439584,0.155053,0.727801,-0.0089181,0.0671683,0.148125
0.0486992,0.260319,1.45211,0.497368,0.0030083,0.884362,-0.0489166,0.0659063,0.228758
0.0429607,0.270859,1.47057,0.4578,-0.089718,0.936267,-0.0966032,0.0430261,0.302466
0.0357002,0.279082,1.48934,0.267978,-0.140632,0.891202,-0.1365,0.0184242,0.372607
0.0270522,0.282044,1.50627,-0.0301243,-0.265699,0.730551,-0.181284,-0.0185557,0.412942
0.0163697,0.278999,1.51919,-0.288512,-0.456285,0.498819,-0.194737,-0.0414705,0.38146
0.00373244,0.271742,1.52728,-0.426773,-0.585725,0.287975,-0.172922,-0.0388559,0.294047
-0.00871316,0.263287,1.53154,-0.399748,-0.504398,0.14128,-0.128626,-0.0113052,0.185306
-0.0171457,0.255979,1.5337,-0.339831,-0.292393,0.086884,-0.0737305,0.00166714,0.149113
-0.0216118,0.249207,1.53531,-0.356672,-0.154811,0.0848801,-0.0101395,-0.0284802,0.186961
-0.0252406,0.240836,1.53651,-0.493,-0.167751,0.0422531,0.0209543,-0.0799365,0.226796
-0.0252406,0.240836,1.53651,-0.493,-0.167751,0.0422531,0.0209543,-0.0799365,0.226796
-0.0278492,0.229044,1.53666,-0.684149,-0.103734,0.0135719,0.0472601,-0.121053,0.195293
-0.0297907,0.214597,1.53659,-0.727471,-0.0936843,0.0244109,0.0738572,-0.149061,0.0911916
-0.0317481,0.201555,1.53723,-0.552085,-0.0977311,0.0922889,0.107028,-0.157931,-0.0314488
-0.0343801,0.193221,1.54021,-0.265649,-0.109119,0.245004,0.13403,-0.155346,-0.118341
-0.0386298,0.190624,1.54684,0.0207219,-0.194918,0.405045,0.123645,-0.164624,-0.159014
-0.0447804,0.192819,1.55584,0.205419,-0.230772,0.456018,0.0803434,-0.203972,-0.185303
-0.0505789,0.197124,1.56513,0.250076,-0.144928,0.428039,0.038302,-0.234738,-0.210546
-0.0525586,0.201761,1.57301,0.255679,0.128185,0.306433,-0.0101767,-0.250975,-0.262376
-0.0473311,0.207026,1.57762,0.270576,0.435295,0.111129,-0.0213696,-0.276978,-0.280613
-0.0395628,0.210921,1.57771,0.0580757,0.223585,-0.111258,-0.00200396,-0.252629,-0.197808
-0.0421956,0.207994,1.574,-0.348416,-0.573171,-0.205662,0.082198,-0.213119,-0.214547
-0.0584912,0.19928,1.56955,-0.510021,-1.08872,-0.187105,0.0768018,-0.0812872,-0.464887
-0.0790108,0.190974,1.56561,-0.274175,-0.913133,-0.136494,0.0162907,0.0488394,-0.764651
-0.0891066,0.192119,1.56387,0.418593,-0.0407937,-0.0027573,0.0273693,0.118277,-0.909042
-0.0790086,0.207981,1.56822,1.16517,1.1202,0.305698,0.0480508,0.229983,-0.731741
-0.0522978,0.235061,1.5791,1.55921,1.68793,0.574934,0.0543308,0.248237,-0.290792
-0.0228984,0.266188,1.59448,1.55892,1.53665,0.782462,0.0364029,0.216302,0.113652
-0.00236366,0.294687,1.61172,1.28661,0.955856,0.81668,-0.0246547,0.163807,0.351986
0.00458575,0.316777,1.62806,0.929199,0.258968,0.730204,-0.0943843,0.117856,0.412911
0.00144912,0.332256,1.64155,0.629099,-0.0630567,0.54946,-0.174954,0.125706,0.330592
-0.00210831,0.342318,1.65091,0.380078,0.0663862,0.335372,-0.217267,0.162591,0.225836
0.000769118,0.347605,1.6562,0.158249,0.406799,0.177178,-0.21047,0.17898,0.162924
0.0100495,0.349634,1.65927,0.0707943,0.576398,0.136694,-0.154217,0.18519,0.137861
0.0201241,0.351642,1.66237,0.13215,0.538384,0.166486,-0.0947275,0.166827,0.127476
0.0296128,0.354682,1.66648,0.137865,0.555369,0.23487,-0.0880529,0.158876,0.145979
0.0384806,0.356701,1.67197,0.0507822,0.514307,0.274385,-0.115792,0.130725,0.168248
0.0458944,0.357817,1.67738,0.0602162,0.396115,0.224778,-0.146885,0.0919602,0.146035
0.0498665,0.360347,1.68131,0.184936,0.134256,0.158153,-0.152937,0.091109,0.133937
0.049763,0.365119,1.68382,0.255657,-0.0261923,0.106578,-0.139786,0.0968519,0.14078
0.0488358,0.369801,1.68571,0.190289,0.0290951,0.098742,-0.131835,0.0940498,0.156279
0.0502562,0.372757,1.68753,0.105403,0.162648,0.0897739,-0.117037,0.0686675,0.155661
0.0527192,0.374974,1.68979,0.128698,0.14488,0.144376,-0.0786964,0.0398934,0.144572
0.0531921,0.378837,1.69329,0.230489,0.0128687,0.206401,-0.069905,0.0187355,0.136567
0.0502731,0.384325,1.69783,0.273758,-0.142124,0.230929,-0.0851451,-0.0108236,0.155647
0.0451312,0.389673,1.70164,0.227913,-0.207897,0.13562,-0.123429,-0.0497408,0.155567
0.0398704,0.392858,1.70301,0.068181,-0.279824,0.0117314,-0.112232,-0.0806406,0.16251
0.0339775,0.392139,1.70227,-0.137926,-0.339896,-0.0803925,-0.0780842,-0.0959381,0.127265
0.0270057,0.387575,1.70032,-0.305885,-0.445534,-0.113925,-0.0594539,-0.106248,0.0494685
0.018162,0.380355,1.69759,-0.404782,-0.521799,-0.167537,-0.0642415,-0.126797,-0.0503799
0.0097671,0.371072,1.69276,-0.562933,-0.525564,-0.317348,-0.116127,-0.114115,-0.110952
0.000372325,0.355946,1.68352,-0.9769,-0.74563,-0.565453,-0.160642,-0.0952938,-0.127868
-0.010294,0.332999,1.66836,-1.29635,-0.792052,-0.832535,-0.153754,-0.0678661,-0.278052
-0.0189261,0.307483,1.64956,-1.21473,-0.663001,-0.862894,-0.0685561,0.00816557,-0.470122
-0.0255177,0.288483,1.63341,-0.672317,-0.459367,-0.605638,0.0272072,0.0716996,-0.589976
-0.0296772,0.281607,1.6242,-0.0906681,-0.223675,-0.283394,0.0437934,0.0839753,-0.523394
-0.0304902,0.282377,1.6199,0.0958469,0.0448443,-0.17048,-0.0572391,0.0256185,-0.315365
-0.0244807,0.284929,1.61615,0.157265,0.443751,-0.210918,-0.139122,-0.0102922,-0.156588
-0.0117724,0.289316,1.61108,0.286489,0.632489,-0.271902,-0.163644,0.0311161,-0.00889713
0.00216558,0.296956,1.60552,0.480542,0.564167,-0.256328,-0.164455,0.0681233,0.117332
0.0115745,0.307817,1.60043,0.58317,0.18167,-0.232454,-0.171873,0.0902407,0.25518
0.0122636,0.318772,1.59474,0.480526,-0.266636,-0.322371,-0.23212,0.0965425,0.340587
0.0061794,0.325104,1.58578,0.130493,-0.598792,-0.536722,-0.278057,0.0887551,0.380995
-0.0036851,0.323704,1.57223,-0.243997,-0.816624,-0.74471,-0.274781,0.118556,0.31671
-0.014454,0.316762,1.5544,-0.439937,-0.792093,-0.94743,-0.257689,0.160689,0.176346
-0.014454,0.316762,1.5544,-0.439937,-0.792093,-0.94743,-0.257689,0.160689,0.176346
-0.0214936,0.30767,1.53259,-0.491421,-0.550721,-1.10864,-0.225779,0.190122,0.066515
-0.0210139,0.299193,1.50849,-0.391543,-0.0976402,-1.1566,-0.184984,0.223521,-0.0137983
-0.0131927,0.293007,1.48496,-0.277003,0.12543,-1.07726,-0.113346,0.222151,0.0381528
-0.00440232,0.288955,1.46375,-0.141307,0.159211,-0.954151,-0.0596382,0.184105,0.0993868
0.00392415,0.287341,1.4451,-0.0435087,0.128697,-0.851621,-0.0576725,0.154466,0.174402
0.0106856,0.28629,1.4281,-0.0632812,0.0845158,-0.791536,-0.0474666,0.0847936,0.254211
0.0170082,0.284027,1.41189,-0.155408,0.0836244,-0.779664,-0.0678091,0.0349238,0.309161
0.0222254,0.279079,1.39584,-0.317022,-0.00984213,-0.782974,-0.0513472,-0.0206113,0.344465
0.0255616,0.270649,1.37945,-0.489595,-0.106257,-0.826,-0.036637,-0.0871658,0.32365
0.0267322,0.258883,1.36253,-0.64002,-0.236892,-0.83021,0.0102336,-0.128521,0.258842
0.0244918,0.245146,1.34653,-0.671182,-0.373103,-0.748103,0.0697487,-0.153328,0.117547
0.0199242,0.232075,1.33254,-0.593071,-0.395136,-0.64503,0.109472,-0.182082,-0.0266509
0.0163744,0.221577,1.32063,-0.432891,-0.198806,-0.533783,0.129779,-0.198277,-0.163251
0.0172872,0.214402,1.31108,-0.280176,0.0804163,-0.408253,0.142472,-0.202993,-0.252305
0.0219339,0.20962,1.30441,-0.189564,0.219406,-0.254209,0.149736,-0.209041,-0.284744
0.0278165,0.206962,1.30028,-0.0733813,0.276622,-0.177475,0.126269,-0.230853,-0.33721
0.0335563,0.205785,1.29662,-0.0641272,0.192986,-0.191389,0.0817973,-0.242961,-0.355604
0.035708,0.203055,1.29254,-0.211269,-0.0794867,-0.231781,0.0964418,-0.236051,-0.374517
0.0331206,0.197024,1.28762,-0.38257,-0.223557,-0.259313,0.103665,-0.187854,-0.446215
0.0310168,0.187866,1.28291,-0.500218,-0.0381562,-0.218543,0.095129,-0.101735,-0.520204
0.0342939,0.178282,1.28026,-0.406271,0.330837,-0.0583291,0.10885,-0.029662,-0.55897
0.044257,0.1743,1.28134,0.0695166,0.674378,0.157498,0.141502,-7.37756e-05,-0.541339
0.0590308,0.183252,1.28655,0.800691,0.875968,0.407399,0.165777,0.0309673,-0.404336
0.0751978,0.205365,1.29554,1.27117,0.896829,0.615089,0.152587,0.0702274,-0.0885231
0.089149,0.231618,1.30762,1.17217,0.724412,0.782033,0.146989,0.0551902,0.242274
0.0958382,0.252382,1.32296,0.737449,0.281165,0.872746,0.135718,0.00419749,0.426355
0.0909774,0.263833,1.33945,0.27337,-0.347509,0.812811,0.0859368,-0.0294239,0.422129
0.0760899,0.267464,1.35444,-0.0162297,-0.686693,0.645915,0.0222674,-0.00622123,0.247771
0.0585972,0.266123,1.3659,-0.158581,-0.709226,0.460751,0.00207651,0.0438772,0.0679849
0.0453202,0.264189,1.37406,-0.0406381,-0.364078,0.333237,0.0095357,0.0956298,-0.131878
0.0405752,0.266165,1.38083,0.219529,0.0609015,0.359872,0.060367,0.154437,-0.211865
0.0421463,0.273489,1.38936,0.466856,0.27799,0.50586,0.0962425,0.192792,-0.156063
0.044713,0.285144,1.40091,0.641185,0.282066,0.643611,0.107177,0.183075,-0.0401784
0.0462386,0.299534,1.41406,0.729336,0.261828,0.666321,0.0556285,0.16446,0.0681613
0.0476706,0.314876,1.42691,0.731959,0.268828,0.62602,0.0159087,0.149268,0.157183
0.0491575,0.329403,1.43862,0.663019,0.253404,0.554458,-0.0160697,0.139931,0.228723
0.0505353,0.342027,1.4488,0.550645,0.208685,0.471819,-0.0420489,0.135614,0.274981
0.0512183,0.352376,1.45722,0.450208,0.137641,0.374697,-0.0606386,0.122488,0.283195
0.0503519,0.361007,1.46377,0.383431,-0.00679093,0.281641,-0.0632453,0.100577,0.273254
0.0472956,0.368269,1.46838,0.319144,-0.112532,0.185985,-0.0618845,0.08046,0.247903
0.0440225,0.373803,1.47109,0.215133,-0.116686,0.100457,-0.0542291,0.0602577,0.224019
0.0410356,0.377379,1.47236,0.144241,-0.141677,0.0364788,-0.0360774,0.0352336,0.189395
0.0376739,0.379822,1.47233,0.0948299,-0.19579,-0.0267682,-0.0195539,0.0251589,0.16321
0.0340119,0.380566,1.47113,-0.0346576,-0.223387,-0.0946747,-0.0142079,0.00894278,0.154007
0.0303663,0.377531,1.46779,-0.274328,-0.270289,-0.231955,-0.0226845,-0.0396068,0.146129
0.026518,0.369293,1.46191,-0.527367,-0.341713,-0.325984,-0.00594369,-0.0434778,0.102238
0.020706,0.357005,1.45456,-0.672317,-0.490739,-0.393729,-0.00826006,-0.0396601,0.0125526
0.01453,0.342359,1.44581,-0.803614,-0.401609,-0.447854,0.00064183,-0.0626817,-0.0730571
0.011192,0.323773,1.43653,-1.07107,-0.243618,-0.452823,-0.0134178,-0.0264584,-0.0870518
0.0092569,0.298602,1.42665,-1.44515,-0.302323,-0.52761,-0.0467652,-0.0251368,-0.0868641
0.00425281,0.267,1.41449,-1.67639,-0.548056,-0.673112,-0.0493749,-0.0677649,-0.187679
-0.00560222,0.233286,1.39965,-1.65774,-0.804027,-0.729261,-0.0159118,-0.027522,-0.337757
-0.0204965,0.203592,1.38642,-1.28048,-0.945716,-0.496044,0.0675114,0.0295661,-0.491837
-0.0368289,0.18432,1.37885,-0.654644,-0.785449,-0.198641,0.0859559,0.0420883,-0.590268
-0.0368289,0.18432,1.37885,-0.654644,-0.785449,-0.198641,0.0859559,0.0420883,-0.590268
-0.0475479,0.177386,1.37711,-0.0750782,-0.278443,0.0396958,0.0723427,0.0234731,-0.540638
-0.0476897,0.179395,1.37909,0.240027,0.284697,0.125605,0.0209819,0.00521666,-0.341553
-0.0385326,0.184977,1.38228,0.304527,0.610956,0.171678,-0.0256564,0.0187633,-0.10832
-0.0278725,0.19088,1.3865,0.298709,0.467359,0.21775,-0.0405235,0.0177415,0.0596423
-0.0239158,0.196792,1.39099,0.307353,-0.00418654,0.202786,-0.069947,0.0137157,0.128627
-0.0289407,0.202602,1.39415,0.267329,-0.395232,0.0761892,-0.143362,0.039842,0.123637
-0.0374556,0.20684,1.39375,0.150471,-0.422618,-0.132697,-0.191302,0.0590063,0.0808426
-0.0427935,0.208631,1.38891,0.0205767,-0.174202,-0.33293,-0.158709,0.0716377,0.0477018
-0.0414287,0.208694,1.38143,-0.034131,0.150497,-0.375406,-0.0718627,0.108946,0.0451357
-0.0351218,0.208415,1.37444,-0.00692241,0.291595,-0.298516,-0.00998727,0.123184,0.0874522
-0.0290301,0.209376,1.36924,0.0950062,0.183052,-0.21959,0.00765545,0.0960336,0.143352
-0.0263677,0.212502,1.36513,0.199048,0.00636683,-0.198944,-0.0105595,0.0767972,0.186944
-0.0260688,0.217146,1.36123,0.237441,-0.0415892,-0.192211,-0.0232675,0.0668686,0.221683
-0.0257208,0.221455,1.35753,0.180074,0.0134184,-0.184672,-0.0258896,0.0469809,0.257483
-0.0236198,0.22431,1.35364,0.0980692,0.101954,-0.21096,-0.0371699,0.0200104,0.280508
-0.0201511,0.225718,1.34883,0.0411272,0.127031,-0.268691,-0.0584863,-0.00831032,0.293436
-0.0164932,0.226292,1.3427,0.00826612,0.0797103,-0.334666,-0.0625565,-0.0320428,0.300285
-0.0142045,0.225989,1.33512,-0.058454,-0.0162666,-0.406454,-0.0655485,-0.050298,0.310595
-0.0130013,0.223836,1.32582,-0.172901,-0.066044,-0.496155,-0.0399051,-0.088011,0.299495
-0.0123714,0.219784,1.31537,-0.221513,-0.0915121,-0.507164,0.023304,-0.104384,0.238016
-0.0118697,0.216138,1.30573,-0.140212,-0.0647211,-0.425742,0.0772824,-0.0921203,0.143901
-0.0114605,0.214557,1.29802,-0.0375702,-0.064141,-0.331016,0.124448,-0.128714,0.0937516
-0.0114934,0.214226,1.29192,-0.0198195,-0.0664346,-0.267072,0.143616,-0.174784,0.0586351
-0.0114235,0.213142,1.28701,-0.108709,-0.0138287,-0.231408,0.129069,-0.197236,-0.0140104
-0.0100998,0.209699,1.28194,-0.240577,0.0435572,-0.256218,0.111166,-0.228831,-0.109862
-0.0078284,0.203982,1.27667,-0.323391,0.0489046,-0.250973,0.106589,-0.206778,-0.229243
-0.00689108,0.197752,1.27162,-0.274317,-0.0622119,-0.237734,0.0900698,-0.182532,-0.369717
-0.00667387,0.194507,1.2672,-0.0342439,0.0521824,-0.18607,0.0940114,-0.173096,-0.521549
-0.00294503,0.196077,1.26429,0.148722,0.241708,-0.100285,0.0907946,-0.153428,-0.528352
0.00206941,0.198409,1.26279,0.0378343,0.172441,-0.054001,0.0689704,-0.157871,-0.398405
0.00356679,0.196423,1.26153,-0.233403,-0.0222119,-0.0943147,0.00658793,-0.165448,-0.356226
0.00368102,0.190316,1.25815,-0.33311,0.0127857,-0.249796,-0.068678,-0.134469,-0.460338
0.0073605,0.185546,1.2519,-0.0873557,0.258556,-0.344101,-0.0470747,-0.068462,-0.559168
0.0166263,0.188584,1.24566,0.427232,0.571835,-0.227025,0.0481987,0.041197,-0.534055
0.0320332,0.202775,1.24358,0.977007,0.905786,0.0704284,0.119797,0.136371,-0.340663
0.0505777,0.225938,1.24736,1.27812,1.00336,0.392858,0.139587,0.177878,-0.0284472
0.0679536,0.252268,1.25603,1.26905,0.914301,0.584979,0.104246,0.153806,0.240024
0.0807494,0.276797,1.26721,1.07433,0.627664,0.660561,0.0788113,0.113944,0.407578
0.0853632,0.296101,1.27926,0.748346,0.176414,0.653834,0.0622497,0.10115,0.475521
0.0815723,0.308469,1.2917,0.383002,-0.160352,0.631944,0.0541696,0.0915335,0.442826
0.0726354,0.313311,1.30398,0.0179178,-0.336192,0.577529,0.00669077,0.128675,0.335498
0.0614989,0.311854,1.31581,-0.200635,-0.375409,0.536853,-0.00783648,0.160431,0.177109
0.0520084,0.30793,1.32696,-0.238425,-0.230924,0.512774,-0.024973,0.2101,0.0388784
0.0456648,0.304153,1.33807,-0.173873,-0.0662318,0.542878,0.00065108,0.223252,-0.0395541
0.0416046,0.302716,1.35035,-0.0135183,0.00226798,0.632063,0.027651,0.225238,-0.0670628
0.0370745,0.304459,1.36467,0.116751,-0.0420857,0.74512,0.022256,0.226687,-0.0398256
0.0306726,0.307777,1.38091,0.148839,-0.0980709,0.802915,-0.0187133,0.198632,0.00611949
0.0240466,0.311328,1.39757,0.166512,-0.0499964,0.788685,-0.0654299,0.175601,0.0325089
0.0188629,0.315344,1.41343,0.204263,0.0246947,0.737588,-0.0956904,0.150201,0.0604296
0.0151972,0.31987,1.42841,0.219733,0.0720401,0.694991,-0.111365,0.124899,0.107995
0.0124282,0.32441,1.44214,0.213863,0.0711747,0.608746,-0.135162,0.0794614,0.152935
0.00920495,0.328214,1.45363,0.14759,-0.0402284,0.483354,-0.143571,0.0292771,0.193512
0.00424167,0.330672,1.46205,0.106924,-0.172502,0.309541,-0.141402,-0.0172099,0.170929
-0.0011374,0.333063,1.46662,0.131329,-0.213797,0.13712,-0.112771,-0.0382952,0.127448
-0.0011374,0.333063,1.46662,0.131329,-0.213797,0.13712,-0.112771,-0.0382952,0.127448
-0.00598622,0.335872,1.46875,0.144576,-0.202771,0.0811751,-0.0634248,-0.0265174,0.0982202
-0.0110179,0.338602,1.47041,0.122578,-0.245657,0.0642954,-0.0530844,-0.0293273,0.0787066
-0.0161227,0.340453,1.47113,0.0614308,-0.24169,-0.00065632,-0.0695048,-0.0506377,0.0593786
-0.0207313,0.340675,1.46997,-0.056231,-0.274726,-0.121103,-0.0994647,-0.0721422,0.0605521
-0.0266673,0.337716,1.4657,-0.258166,-0.47063,-0.281564,-0.114246,-0.0958825,0.0673544
-0.0342512,0.330959,1.45802,-0.428162,-0.491365,-0.426625,-0.0960928,-0.117112,-0.00150943
-0.0380154,0.321553,1.4472,-0.570242,-0.226295,-0.560238,-0.0655652,-0.14067,-0.0697925
-0.0371442,0.307915,1.43428,-0.868894,-0.141606,-0.611578,-0.0256765,-0.123899,-0.0118468
-0.0388889,0.286849,1.41987,-1.2972,-0.522162,-0.703476,-0.0543385,-0.108121,0.0004071
-0.0498118,0.258981,1.40306,-1.52124,-1.00601,-0.782045,-0.0480911,-0.0973436,-0.180528
-0.0674693,0.230221,1.38535,-1.40988,-1.09235,-0.745404,-0.0199624,-0.0372335,-0.418156
-0.0822007,0.206706,1.37034,-1.02627,-0.659677,-0.518308,0.0218124,0.0366426,-0.564357
-0.0874633,0.191348,1.36132,-0.589658,-0.043449,-0.242368,0.0517305,0.0655336,-0.519776
-0.0832198,0.183927,1.35835,-0.177916,0.367474,0.0174261,0.0775257,0.0552211,-0.35346
-0.0755317,0.184417,1.36181,0.252798,0.391222,0.319818,0.0676344,0.0808343,-0.160751
-0.0724811,0.192481,1.37124,0.59563,0.0522816,0.516539,-0.00167358,0.0898696,0.0290959
-0.0779611,0.205424,1.38286,0.743414,-0.358524,0.492544,-0.0954167,0.0719481,0.155994
-0.0898196,0.21865,1.39249,0.616298,-0.588828,0.322643,-0.162757,0.0617302,0.231991
-0.102989,0.227386,1.39746,0.283895,-0.59574,0.07017,-0.214308,0.0758037,0.241588
-0.113619,0.229641,1.39635,-0.0472737,-0.477989,-0.209277,-0.217879,0.0635045,0.198152
-0.11885,0.228229,1.38866,-0.1405,-0.199665,-0.517147,-0.189741,0.0529738,0.107441
-0.116302,0.227015,1.37544,-0.130458,0.15117,-0.727014,-0.122762,0.0858186,0.101214
-0.106994,0.22617,1.35952,-0.129394,0.393585,-0.797408,-0.0381877,0.0928225,0.169735
-0.095027,0.225285,1.34293,-0.126048,0.406949,-0.806019,0.0279113,0.0785938,0.256832
-0.083764,0.2242,1.32618,-0.128515,0.346488,-0.816167,0.0408922,0.0602634,0.299496
-0.0733644,0.222568,1.30948,-0.176222,0.328954,-0.80027,0.0574221,0.0400249,0.325799
-0.0633591,0.219281,1.29324,-0.258496,0.31999,-0.755554,0.0727107,0.0234818,0.342367
-0.053636,0.214436,1.2781,-0.314347,0.324351,-0.701711,0.0764151,-0.0106072,0.329604
-0.0448319,0.207929,1.26368,-0.415087,0.247785,-0.681504,0.0609567,-0.0443288,0.332794
-0.037743,0.199217,1.24987,-0.507395,0.18735,-0.62559,0.0827337,-0.0695544,0.27266
-0.0316538,0.189202,1.23801,-0.531443,0.202598,-0.499872,0.113069,-0.0734147,0.185291
-0.0258475,0.178949,1.22904,-0.504719,0.211659,-0.353419,0.128642,-0.100569,0.112746
-0.0207999,0.170325,1.22331,-0.35116,0.175848,-0.188157,0.148763,-0.12278,0.0187792
-0.0177938,0.165824,1.22152,-0.101638,0.105143,0.0291342,0.175355,-0.123021,-0.0676301
-0.016511,0.165518,1.22455,0.0417106,0.0551398,0.268347,0.176426,-0.116273,-0.0772625
-0.0175451,0.165953,1.23219,-0.00760478,-0.0155249,0.468238,0.151535,-0.148788,-0.0788165
-0.0197915,0.164537,1.2429,-0.114671,-0.0222084,0.581969,0.0783609,-0.170692,-0.149197
-0.0217001,0.161436,1.25499,-0.160813,0.0463527,0.608205,0.025521,-0.202698,-0.23139
-0.0215449,0.157322,1.26648,-0.246429,0.145669,0.526434,0.00405012,-0.250568,-0.259359
-0.0210583,0.15003,1.2757,-0.492772,-0.0277344,0.394203,-0.04081,-0.249504,-0.275964
-0.0260737,0.137327,1.28172,-0.745506,-0.363739,0.239249,-0.0373002,-0.268881,-0.386125
-0.0354916,0.121689,1.28513,-0.766782,-0.475525,0.168406,0.0165298,-0.202372,-0.565042
-0.0433707,0.109245,1.28888,-0.416714,-0.226301,0.283783,0.0686572,-0.0787163,-0.716018
-0.044668,0.105737,1.29685,0.106175,0.197902,0.542177,0.126817,0.00400772,-0.699448
-0.0378198,0.112016,1.31071,0.55799,0.612102,0.798275,0.138877,0.0189013,-0.508
-0.0251927,0.125914,1.32876,0.866347,0.839086,0.945507,0.105801,0.00554022,-0.24224
-0.0115719,0.144382,1.34918,0.992987,0.736687,1.04129,0.0795971,0.00595659,0.0187188
-0.0043392,0.163771,1.3709,0.940363,0.281602,1.0825,0.0738002,-0.00724816,0.200218
-0.00800864,0.180448,1.39274,0.720906,-0.259705,1.05654,0.0513967,-0.0160861,0.267042
-0.0202527,0.191865,1.41364,0.464529,-0.518447,0.973859,0.00425483,0.00842366,0.197163
-0.0344508,0.199172,1.43234,0.342889,-0.500212,0.841162,-0.0290726,0.0472996,0.0518078
-0.0456882,0.205191,1.44849,0.342956,-0.296772,0.735334,-0.0166566,0.0855442,-0.0378076
-0.0527315,0.212421,1.4636,0.469894,-0.107573,0.725956,0.0322811,0.137707,-0.0777752
-0.0576975,0.222844,1.47955,0.66132,-0.0564513,0.775885,0.0821338,0.168301,-0.0581495
-0.0576975,0.222844,1.47955,0.66132,-0.0564513,0.775885,0.0821338,0.168301,-0.0581495
-0.0626588,0.236457,1.49663,0.780741,-0.0658824,0.802797,0.0842062,0.181419,0.00700939
-0.0685037,0.251296,1.51387,0.799878,-0.100293,0.75491,0.0478218,0.17972,0.0746871
-0.0744005,0.265958,1.52913,0.767935,-0.0803006,0.607419,0.00978314,0.173097,0.107375
-0.077834,0.279676,1.5411,0.687035,0.0703288,0.441427,-0.0144533,0.18472,0.129042
-0.077045,0.291675,1.54973,0.58291,0.240132,0.298866,-0.0211917,0.187078,0.151684
-0.0730467,0.302235,1.55581,0.52721,0.321904,0.209258,-0.0164773,0.191026,0.169825
-0.0679289,0.312318,1.56006,0.512059,0.311179,0.122723,-0.0394718,0.188827,0.188534
-0.063041,0.322302,1.56249,0.504386,0.25739,0.0426389,-0.0420818,0.157922,0.215454
-0.0587657,0.332266,1.56321,0.489876,0.187186,-0.0327,-0.0368265,0.132506,0.234186
-0.0556495,0.341417,1.56247,0.409966,0.105261,-0.0859718,-0.0462681,0.132278,0.243267
-0.0537232,0.348573,1.56051,0.305883,0.0205599,-0.135762,-0.0432361,0.111988,0.220228
-0.0524094,0.353874,1.55714,0.200297,0.00371713,-0.21431,-0.0455718,0.095405,0.183377
-0.0502925,0.356238,1.55173,-0.01259,-0.00685685,-0.301101,-0.0408823,0.0802113,0.189052
-0.0496588,0.353414,1.54485,-0.297407,-0.173882,-0.320666,-0.00566018,0.0511196,0.159696
-0.0518194,0.345794,1.53769,-0.474693,-0.27543,-0.315226,-0.00514851,0.0224307,0.0436698
-0.0552018,0.335973,1.53046,-0.543664,-0.284517,-0.322773,-0.014073,-0.0419402,-0.0804956
-0.0570573,0.32425,1.52208,-0.707222,-0.184334,-0.426665,-0.0707316,-0.0672818,-0.132815
-0.0568016,0.306755,1.50964,-1.16304,-0.18541,-0.680817,-0.134096,-0.107351,-0.119935
-0.0554688,0.278829,1.49057,-1.70591,-0.211008,-0.973562,-0.126388,-0.150201,-0.211517
-0.0520048,0.244124,1.46683,-1.80117,-0.0371726,-1.10904,-0.077108,-0.0988699,-0.462481
-0.0439118,0.213644,1.44314,-1.29734,0.346268,-1.01001,0.0118939,-0.0195144,-0.690242
-0.0285938,0.195241,1.42447,-0.630241,0.805799,-0.736606,0.0728771,0.0542015,-0.684042
-0.0075948,0.188113,1.41296,-0.133344,1.02214,-0.371103,0.111297,0.0778289,-0.478958
0.0124812,0.189657,1.40931,0.285973,0.866659,0.00609372,0.0730396,0.114242,-0.271975
0.0250412,0.199554,1.41251,0.688736,0.434729,0.302647,-0.00179078,0.133077,-0.102717
0.028311,0.216051,1.4194,0.893486,0.0681374,0.379582,-0.126144,0.128574,0.0554312
0.0268826,0.23286,1.42541,0.722328,-0.0429358,0.22627,-0.25969,0.114581,0.207049
0.0261457,0.243396,1.42695,0.313848,0.0307644,-0.0554947,-0.317196,0.095111,0.295541
0.0296942,0.245838,1.42303,-0.0306954,0.237301,-0.312464,-0.272861,0.0752628,0.308541
0.0383576,0.243505,1.41476,-0.143152,0.420425,-0.479555,-0.205033,0.088365,0.281644
0.0498836,0.240379,1.40472,-0.121925,0.453877,-0.488644,-0.11334,0.10358,0.306511
0.0588251,0.237617,1.39565,-0.103446,0.226415,-0.402548,-0.0328472,0.0907188,0.349157
0.063117,0.235558,1.38887,-0.0603407,0.0304381,-0.264971,0.000220798,0.0725884,0.335499
0.0614504,0.234138,1.3848,-0.0621906,-0.303278,-0.155384,-0.00268343,0.0534,0.3471
0.053667,0.232653,1.38238,-0.0669289,-0.466401,-0.0859892,0.0204817,-0.00483719,0.291848
0.045424,0.23132,1.38159,-0.0657267,-0.364345,-0.0100179,0.0176756,-0.0113075,0.24386
0.0399793,0.22963,1.38132,-0.112283,-0.165116,-0.050111,-0.0157718,-0.0672745,0.2346
0.0398385,0.225983,1.37896,-0.266566,0.072566,-0.193753,-0.0330322,-0.126278,0.24733
0.0429599,0.218739,1.37434,-0.410274,0.126228,-0.273306,0.00171683,-0.146389,0.222265
0.0463537,0.210615,1.36885,-0.347136,0.0976895,-0.28655,0.0564173,-0.1463,0.127868
0.0488702,0.205177,1.36432,-0.172962,0.0507909,-0.166767,0.115825,-0.140177,0.0437739
0.0491898,0.203299,1.36283,-0.0125586,-0.0522898,0.00698713,0.14183,-0.149295,-0.01566
0.0473996,0.204339,1.3642,0.100551,-0.0757266,0.120509,0.129904,-0.175269,-0.0793843
0.0461163,0.206931,1.36715,0.119317,0.0179472,0.17479,0.0989418,-0.173861,-0.130788
0.0469138,0.208511,1.37087,0.01434,0.136675,0.192293,0.0743586,-0.188123,-0.182755
0.0497388,0.208199,1.37466,-0.0382479,0.225388,0.176398,0.0459752,-0.203764,-0.274072
0.054937,0.208628,1.37799,0.0807448,0.386861,0.159148,0.0547409,-0.204518,-0.377347
0.0636525,0.211544,1.3812,0.152318,0.519278,0.162725,0.0619693,-0.206443,-0.380687
0.0718706,0.213293,1.38388,-0.0341558,0.301217,0.103428,0.0558409,-0.229101,-0.313941
0.0744824,0.210238,1.38565,-0.262894,0.016467,0.0496654,0.0636233,-0.220156,-0.390178
0.0730742,0.204496,1.38641,-0.261574,-0.0671187,-0.0125986,0.047134,-0.147848,-0.5406
0.0747997,0.202046,1.38645,0.056312,0.304343,0.0248289,0.044344,-0.0252783,-0.643061
0.0864399,0.208215,1.38846,0.564694,0.914765,0.252282,0.0881246,0.0838805,-0.581068
0.107549,0.225157,1.39505,1.03323,1.26045,0.551673,0.113644,0.125298,-0.312855
0.107549,0.225157,1.39505,1.03323,1.26045,0.551673,0.113644,0.125298,-0.312855
0.129718,0.249972,1.40621,1.26118,1.16596,0.805916,0.086153,0.132081,0.0195101
0.145686,0.276702,1.42047,1.14903,0.785634,0.898777,0.0346517,0.0825409,0.278111
0.151435,0.29867,1.43552,0.787239,0.18259,0.840252,-0.0168741,0.0107562,0.412122
0.144541,0.312254,1.44925,0.366972,-0.416744,0.648762,-0.063388,-0.0284127,0.377328
0.129383,0.317282,1.46,0.00530832,-0.736095,0.437372,-0.0978482,0.0146831,0.20359
0.111905,0.3163,1.46715,-0.135237,-0.726842,0.23247,-0.118766,0.0634324,-0.0335484
0.0991374,0.315266,1.47066,0.0468161,-0.416802,0.11658,-0.0766409,0.0985676,-0.248382
0.0948482,0.320425,1.47294,0.465116,0.0816218,0.16705,-0.0118063,0.151945,-0.328877
0.0995926,0.333685,1.47628,0.774433,0.43271,0.275618,0.0255631,0.175931,-0.188502
0.106485,0.349977,1.48152,0.760468,0.365844,0.377317,0.0333989,0.141964,0.035363
0.107306,0.3648,1.48847,0.659763,-0.0660205,0.414017,0.00602665,0.12283,0.126393
0.0997149,0.378646,1.495,0.676166,-0.40405,0.319924,-0.0552972,0.0975833,0.0770315
0.0899374,0.392862,1.49849,0.70159,-0.428932,0.135726,-0.109463,0.0968384,0.037271
0.0818726,0.406786,1.49886,0.67789,-0.335439,0.0292784,-0.0953711,0.113617,0.042991
0.0766778,0.419364,1.49763,0.587089,-0.26076,-0.0330243,-0.108631,0.151824,0.0910079
0.0719655,0.429833,1.49604,0.474457,-0.28866,-0.0232412,-0.126352,0.143785,0.119802
0.0668611,0.438378,1.49475,0.402624,-0.281032,-0.0512488,-0.152748,0.107653,0.108054
0.0608652,0.446872,1.4918,0.491741,-0.451001,-0.137395,-0.154037,0.066989,0.0683462
0.0549548,0.458917,1.48704,0.758664,-0.312173,-0.243191,-0.152912,0.0449522,-0.0134054
0.0540777,0.475928,1.47983,0.930977,-0.101787,-0.294972,-0.106791,0.0391576,0.014079
0.0558676,0.492834,1.47239,0.743138,-0.110575,-0.267748,-0.0255423,0.0181838,0.143842
0.0547259,0.503781,1.46627,0.378495,-0.310057,-0.204514,0.0047704,-0.00696027,0.184725
0.0487314,0.508525,1.46178,0.156312,-0.473536,-0.178986,-0.0203772,-0.0367155,0.0651908
0.0414635,0.511695,1.45721,0.219191,-0.453593,-0.211804,-0.0398654,-0.066451,-0.0945927
0.035545,0.517407,1.45182,0.342373,-0.419047,-0.231809,-0.0218067,-0.0581211,-0.121053
0.0298531,0.522823,1.44657,0.174327,-0.41375,-0.191429,-0.00291197,-0.0141455,-0.0232095
0.0235719,0.523331,1.44299,-0.118718,-0.392118,-0.1357,0.00456358,-0.0172301,0.0205359
0.0169482,0.517908,1.43962,-0.411081,-0.437704,-0.178288,-0.0513001,-0.00814074,0.0105166
0.0106266,0.508237,1.43521,-0.510742,-0.404925,-0.218836,-0.0886136,0.0155226,-0.0756947
0.00547138,0.499178,1.42994,-0.366408,-0.3595,-0.242361,-0.100934,0.042272,-0.13992
0.00116917,0.494384,1.42489,-0.106056,-0.293589,-0.206207,-0.0914069,0.0716579,-0.158695
-0.000616944,0.494532,1.42031,0.0960142,-0.100591,-0.205428,-0.102103,0.0845743,-0.103421
0.000920651,0.49705,1.41551,0.141658,0.00718422,-0.219916,-0.101288,0.0922981,0.00547266
0.00378302,0.499627,1.41019,0.105636,0.000720419,-0.250964,-0.111124,0.115786,0.0844507
0.0058162,0.501127,1.40405,0.0466086,-0.0903052,-0.29669,-0.130803,0.131614,0.117658
0.00723575,0.501415,1.3964,-0.0107499,-0.121593,-0.382688,-0.160092,0.150467,0.11005
0.00955567,0.500501,1.38673,-0.0746129,-0.116646,-0.467386,-0.174643,0.161933,0.106352
0.0121318,0.497976,1.37492,-0.17624,-0.203424,-0.576075,-0.186439,0.176761,0.12725
0.0141148,0.492616,1.36079,-0.355021,-0.242022,-0.67216,-0.176895,0.184877,0.138854
0.0174813,0.483625,1.34538,-0.50344,-0.125383,-0.703183,-0.149478,0.197108,0.118441
0.0236985,0.473503,1.33002,-0.44286,0.0417029,-0.685358,-0.120698,0.20329,0.0893726
0.0317136,0.466191,1.31541,-0.247528,0.0931687,-0.647816,-0.0958904,0.20408,0.121125
0.0397265,0.462275,1.30171,-0.123435,0.08003,-0.598591,-0.0734502,0.197236,0.214815
0.0470953,0.459661,1.28887,-0.110671,0.113956,-0.572467,-0.0617378,0.186137,0.295203
0.0554122,0.455786,1.27644,-0.23642,0.161717,-0.566074,-0.0442367,0.174802,0.371116
0.0639497,0.44841,1.26426,-0.445727,0.129183,-0.575266,-0.0367904,0.159486,0.409748
0.0695611,0.436521,1.25291,-0.66804,-0.0570421,-0.521052,-0.00106721,0.150603,0.399444
0.0708055,0.421046,1.24356,-0.804015,-0.192896,-0.444465,-0.00194534,0.156106,0.32694
0.0698479,0.403849,1.23555,-0.854331,-0.195604,-0.417804,-0.0302565,0.116975,0.224945
0.0696451,0.385922,1.2282,-0.897,-0.115801,-0.387311,-0.0269798,0.0633487,0.146496
0.0705951,0.366924,1.22137,-0.959413,-0.0332773,-0.384943,-0.0409235,0.0067564,0.0652349
0.0726553,0.347123,1.21511,-0.966638,0.0141149,-0.337966,-0.0148711,-0.052613,-0.0376962
0.075487,0.327956,1.21008,-0.916728,0.102729,-0.277977,0.00883486,-0.11704,-0.139077
0.075487,0.327956,1.21008,-0.916728,0.102729,-0.277977,0.00883486,-0.11704,-0.139077
0.0792105,0.309366,1.20649,-0.918847,0.154832,-0.208404,0.0211864,-0.187275,-0.208022
0.0830854,0.290906,1.20434,-0.899049,0.15425,-0.170356,0.000758275,-0.230575,-0.302278
0.0861989,0.273597,1.20209,-0.802294,0.123357,-0.20729,-0.00500905,-0.263861,-0.396055
0.0921071,0.258527,1.19797,-0.69423,0.405377,-0.319277,-0.00492061,-0.300175,-0.456535
0.104199,0.243769,1.19176,-0.739023,0.609676,-0.411609,0.0185868,-0.290789,-0.419746
0.116979,0.227357,1.18486,-0.808924,0.433678,-0.434161,0.0651549,-0.26831,-0.381621
0.121695,0.21099,1.17831,-0.709337,-0.111239,-0.385072,0.124965,-0.241316,-0.418842
0.116811,0.198894,1.17337,-0.42117,-0.385406,-0.222785,0.159357,-0.162461,-0.508618
0.1109,0.19354,1.17185,-0.0950702,-0.174987,0.0282053,0.168356,-0.0974154,-0.515559
0.110355,0.194792,1.1748,0.163456,0.142088,0.252639,0.135497,-0.073314,-0.393609
0.114149,0.200476,1.1805,0.34058,0.365407,0.363185,0.0820295,-0.0841286,-0.213829
0.121493,0.209624,1.18783,0.47957,0.497594,0.449605,0.0590707,-0.0802684,-0.0436728
0.129591,0.221202,1.19596,0.554393,0.451242,0.479915,0.048816,-0.0825383,0.115921
0.134119,0.232962,1.20443,0.486443,0.164766,0.501191,0.0568611,-0.104299,0.240387
0.132078,0.242587,1.21402,0.351577,-0.128659,0.514796,0.0516202,-0.106831,0.26207
0.125152,0.249582,1.22243,0.219106,-0.359001,0.398456,0.0160207,-0.104579,0.22192
0.114051,0.252397,1.22983,-0.0357004,-0.553576,0.356799,0.0259106,-0.0679164,0.183995
0.100556,0.250959,1.23731,-0.149813,-0.587537,0.344094,0.0260031,-0.0297888,0.0393735
0.0871391,0.249144,1.24416,-0.0740676,-0.589935,0.30459,0.0269407,-0.000862122,-0.100044
0.0747988,0.250494,1.25068,0.180579,-0.451352,0.346656,0.0467897,0.0439644,-0.228652
0.06632,0.25796,1.25819,0.515067,-0.203519,0.434942,0.0402305,0.106534,-0.276058
0.0623931,0.271531,1.2672,0.763029,0.0355818,0.519168,0.0242673,0.134296,-0.215057
0.0620995,0.288681,1.27728,0.875297,0.204232,0.539846,-0.0174383,0.127843,-0.080993
0.0650072,0.307482,1.28669,0.943454,0.373232,0.475166,-0.0739538,0.11867,0.0320028
0.0710387,0.326832,1.29415,0.919702,0.438263,0.362206,-0.109031,0.113281,0.169422
0.0771757,0.344156,1.29891,0.763642,0.310888,0.206008,-0.120826,0.0874175,0.291021
0.080803,0.357161,1.29995,0.520429,0.0778151,-0.0096116,-0.129805,0.057196,0.353667
0.08077,0.365122,1.29707,0.317346,-0.145091,-0.176588,-0.0884556,0.0460281,0.32935
0.0794501,0.370268,1.29215,0.247844,-0.161048,-0.22188,-0.0414256,0.0666845,0.24211
0.0775363,0.374982,1.28729,0.277841,-0.202167,-0.191494,-0.00182486,0.0635057,0.163223
0.0746696,0.381028,1.28314,0.335326,-0.246629,-0.154823,-0.00507157,0.0666074,0.11811
0.0706251,0.386646,1.27894,0.2275,-0.293745,-0.224298,-0.0354498,0.0461823,0.133038
0.0679016,0.388787,1.27217,0.0173126,-0.210385,-0.400061,-0.06274,0.00641578,0.108082
0.0682048,0.386048,1.26193,-0.227993,-0.164582,-0.553833,-0.0535384,0.0219464,0.0866193
0.068565,0.379118,1.25017,-0.360033,-0.226385,-0.564046,0.0104962,0.0378716,0.0164998
0.068532,0.371786,1.23952,-0.28891,-0.155633,-0.46753,0.0424166,0.0548236,-0.0959739
0.0685075,0.365753,1.23108,-0.300241,-0.169769,-0.371769,0.0523155,0.0554065,-0.063392
0.0672159,0.357349,1.22373,-0.51241,-0.211405,-0.406662,-0.0162914,0.0361021,-0.00652659
0.0653628,0.34307,1.21413,-0.884871,-0.329046,-0.610863,-0.0823687,-0.00569198,0.00999755
0.0612606,0.319872,1.20026,-1.33598,-0.528116,-0.835581,-0.0950583,-0.0107353,-0.0571131
0.0547105,0.290262,1.18376,-1.47725,-0.602045,-0.893074,-0.0426759,0.0211119,-0.279684
0.0477511,0.262353,1.16782,-1.16016,-0.428801,-0.752802,0.0136386,0.0789947,-0.50886
0.0485374,0.245408,1.15546,-0.453577,0.232596,-0.522184,-0.017722,0.144274,-0.655204
0.0597552,0.241975,1.14706,0.0785462,0.597098,-0.326605,-0.0274927,0.140393,-0.451383
0.0726574,0.244912,1.14151,0.190915,0.519509,-0.212469,-0.0743944,0.108438,-0.148017
0.0812071,0.247156,1.13742,0.0490875,0.219924,-0.172368,-0.136773,0.0994451,0.0349134
0.0828218,0.246358,1.13391,-0.083024,-0.127229,-0.181827,-0.197005,0.0964588,0.076407
0.0794709,0.244666,1.12991,-0.0248597,-0.261457,-0.228116,-0.259671,0.0934137,0.0142752
0.0763316,0.245228,1.12414,0.116953,-0.171074,-0.340965,-0.300111,0.0920973,0.0125911
0.0769319,0.247215,1.11525,0.122349,0.0391028,-0.505205,-0.300288,0.0794821,0.106943
0.0831629,0.247739,1.10325,0.0168694,0.27026,-0.65074,-0.268443,0.0709419,0.205895
0.0925004,0.245939,1.08893,-0.0641194,0.28696,-0.740624,-0.20522,0.0643443,0.276538
0.100408,0.2425,1.07371,-0.128941,0.120348,-0.756226,-0.130769,0.0471826,0.324158
0.104497,0.238263,1.05904,-0.134896,-0.0612144,-0.698507,-0.0734208,0.0414507,0.318591
0.104497,0.238263,1.05904,-0.134896,-0.0612144,-0.698507,-0.0734208,0.0414507,0.318591
0.104381,0.234842,1.04603,-0.0553849,-0.216599,-0.601727,-0.0311716,0.0343101,0.269946
0.10284,0.2336,1.03469,0.0282041,-0.177947,-0.518568,-0.0216543,0.0206807,0.236269
0.102332,0.232696,1.02444,-0.0402569,-0.108777,-0.495714,-0.0143167,-0.02364,0.271547
0.103396,0.229197,1.01453,-0.218695,-0.0068863,-0.504192,0.00657302,-0.0708242,0.283025
0.105861,0.22172,1.00501,-0.424291,0.0245488,-0.500742,0.0278132,-0.0858021,0.252729
0.107681,0.210969,0.996235,-0.536359,-0.0546689,-0.459754,0.0512359,-0.0993538,0.161404
0.107396,0.199561,0.988778,-0.50044,-0.12633,-0.391414,0.0854127,-0.122607,0.0356485
0.105967,0.190657,0.982672,-0.304818,-0.114957,-0.300413,0.0998681,-0.124324,-0.0925363
0.105256,0.186208,0.978095,-0.102365,-0.0215309,-0.188696,0.133479,-0.141572,-0.163335
0.10711,0.185147,0.975928,-0.00444403,0.17037,-0.036213,0.133859,-0.141211,-0.17963
0.111368,0.185368,0.976445,0.0192091,0.247367,0.0799133,0.104084,-0.160998,-0.1777
0.115764,0.186284,0.97852,0.0460663,0.227731,0.118632,0.0636629,-0.189746,-0.203611
0.119836,0.187755,0.980691,0.071701,0.242444,0.103994,0.0255873,-0.215278,-0.250862
0.125661,0.189462,0.98231,0.0661533,0.400213,0.0773333,0.00687125,-0.223443,-0.289936
0.135242,0.191069,0.983834,0.0809567,0.567188,0.0979617,0.0146726,-0.23189,-0.313968
0.144609,0.192683,0.985844,0.0253308,0.32481,0.120262,0.00089556,-0.209828,-0.273685
0.145299,0.19186,0.988652,-0.140714,-0.172567,0.141601,0.00552778,-0.210331,-0.312201
0.138245,0.188848,0.992033,-0.168147,-0.427181,0.137142,-0.0164888,-0.158052,-0.473118
0.130569,0.18789,0.995004,0.0669033,-0.220175,0.155291,-0.0385668,-0.0492516,-0.616721
0.12975,0.19379,0.998928,0.497632,0.243657,0.325268,-0.00849512,0.069395,-0.624699
0.137815,0.209937,1.00602,0.996897,0.659044,0.587783,0.0491697,0.127832,-0.439524
0.149031,0.234872,1.01731,1.27776,0.652355,0.856581,0.0637725,0.154319,-0.101728
0.154909,0.263562,1.0328,1.30548,0.265865,1.05456,0.0548496,0.134193,0.164921
0.149187,0.291078,1.05127,1.12099,-0.346856,1.09409,0.0101759,0.0928324,0.304655
0.130708,0.312908,1.06982,0.782194,-0.899832,0.951997,-0.0553427,0.0664784,0.305402
0.106242,0.326992,1.08545,0.466435,-0.978334,0.681904,-0.128896,0.0953813,0.15702
0.0859635,0.335637,1.09627,0.340855,-0.66836,0.430456,-0.12959,0.156702,-0.0149133
0.0752461,0.344276,1.1025,0.514628,-0.199009,0.23942,-0.116754,0.223731,-0.140125
0.0730689,0.357453,1.10553,0.763343,0.023965,0.154533,-0.0768579,0.283148,-0.0998884
0.0725117,0.373746,1.10703,0.822644,-0.0568144,0.0972647,-0.0628233,0.299309,0.0493696
0.07024,0.389432,1.10675,0.74409,-0.154521,-0.0224281,-0.0851758,0.280817,0.132149
0.0690926,0.403521,1.10329,0.696364,-0.0735593,-0.203417,-0.119248,0.276448,0.128961
0.0720218,0.416596,1.09594,0.655528,0.0675881,-0.376843,-0.134408,0.278933,0.145988
0.0785665,0.427936,1.08499,0.551102,0.120003,-0.53261,-0.13873,0.269914,0.194783
0.0860245,0.436753,1.07091,0.442433,0.0234893,-0.675496,-0.130328,0.241954,0.230263
0.0928894,0.443245,1.05363,0.344178,-0.0576343,-0.827492,-0.121008,0.209177,0.23759
0.100369,0.447062,1.03354,0.206959,-0.0497237,-0.938444,-0.0966852,0.177817,0.253766
0.108935,0.447743,1.01191,0.0705395,-0.0298973,-0.999149,-0.0590775,0.134242,0.267207
0.116532,0.445354,0.989883,-0.0831269,-0.178417,-1.00309,-0.0153429,0.0820526,0.282599
0.119833,0.440278,0.969103,-0.180955,-0.367962,-0.917446,0.0453728,0.015287,0.235426
0.11854,0.434515,0.950807,-0.190127,-0.535016,-0.806768,0.0647548,-0.036183,0.163709
0.113877,0.429447,0.934622,-0.140548,-0.591219,-0.719882,0.054951,-0.0898571,0.0817434
0.107712,0.425429,0.920031,-0.129155,-0.636116,-0.658513,0.0328469,-0.118706,0.0507704
0.100291,0.421021,0.906283,-0.181967,-0.684401,-0.640309,0.0215356,-0.164184,0.0363211
0.0912576,0.41565,0.893111,-0.238025,-0.75753,-0.608136,0.0317713,-0.176416,0.0133271
0.0801582,0.409038,0.881216,-0.336977,-0.825818,-0.535239,0.0451704,-0.172586,-0.000282884
0.0672794,0.400799,0.871101,-0.407347,-0.859006,-0.474657,0.0226788,-0.185636,-0.0521131
0.0541236,0.391974,0.86108,-0.414017,-0.826868,-0.51736,-0.017493,-0.207525,-0.116824
0.0429494,0.383149,0.849607,-0.422345,-0.712753,-0.585755,-0.0327733,-0.192487,-0.15071
0.0350909,0.374544,0.837111,-0.39058,-0.52976,-0.61311,-0.0228553,-0.174435,-0.174772
0.029961,0.366834,0.824268,-0.350309,-0.463007,-0.612533,0.0180419,-0.191173,-0.136104
0.0245956,0.359409,0.81113,-0.402101,-0.591422,-0.674586,-0.0136376,-0.182855,-0.0730131
0.0147077,0.347371,0.79399,-0.850386,-0.997927,-0.986043,-0.155995,-0.149853,0.0114889
0.0022705,0.323479,0.768795,-1.48374,-0.991245,-1.4228,-0.195619,-0.129475,-0.0706049
0.0022705,0.323479,0.768795,-1.48374,-0.991245,-1.4228,-0.195619,-0.129475,-0.0706049
-0.00428838,0.29198,0.736508,-1.55583,-0.622787,-1.59545,-0.130003,-0.000938475,-0.304525
-0.00168537,0.26739,0.704562,-0.833998,0.0487974,-1.43984,-0.0193553,0.137781,-0.516907
0.012625,0.259224,0.677874,-0.0302836,0.611342,-1.13555,0.0335431,0.21739,-0.39036
0.0311912,0.2627,0.657662,0.362869,0.666269,-0.826104,0.0219316,0.214599,-0.0777766
0.0453621,0.270494,0.642253,0.434979,0.296526,-0.652703,-0.0479396,0.222621,0.17769
0.04899,0.27759,0.629595,0.312872,-0.279629,-0.529955,-0.075355,0.221884,0.304422
0.041658,0.281569,0.619689,0.119695,-0.669774,-0.418763,-0.116849,0.211381,0.298013
0.0292249,0.281624,0.611001,-0.0765096,-0.794645,-0.450926,-0.2156,0.182793,0.225454
0.0173615,0.278795,0.599512,-0.174277,-0.695396,-0.69064,-0.292325,0.118887,0.133911
0.0100733,0.27412,0.582528,-0.282581,-0.462349,-0.942464,-0.263741,0.0948731,0.101897
0.0101819,0.266849,0.561661,-0.43428,-0.0901396,-1.06296,-0.197367,0.107092,0.109195
0.0159184,0.25671,0.539766,-0.535027,0.080433,-1.06076,-0.13382,0.107827,0.13558
0.0225804,0.246007,0.518745,-0.488227,0.058055,-0.998833,-0.0771355,0.0980099,0.15919
0.027003,0.236643,0.499557,-0.405915,-0.081012,-0.887878,-0.0252706,0.0845843,0.209813
0.0294253,0.227956,0.482359,-0.460106,-0.0366992,-0.83632,-0.0204965,0.0448193,0.282287
0.0335571,0.215409,0.465653,-0.78751,0.0764626,-0.826185,0.0118565,-0.0350778,0.388784
0.0381254,0.194605,0.450286,-1.24855,0.0464909,-0.742377,0.0972163,-0.121975,0.429996
0.0406471,0.165304,0.437497,-1.60669,-0.0123267,-0.635236,0.162143,-0.20883,0.341251
0.0427924,0.131316,0.427259,-1.7173,0.104138,-0.516691,0.201547,-0.271435,0.150959
0.046637,0.0976846,0.420424,-1.57081,0.167692,-0.287164,0.269627,-0.295659,-0.0146538
0.049183,0.0706884,0.419513,-1.08919,0.0497735,0.089223,0.359987,-0.300693,-0.161113
0.0479127,0.0555546,0.427096,-0.45952,-0.117695,0.609818,0.421616,-0.286317,-0.253619
0.0426164,0.053052,0.444883,0.104891,-0.329989,1.14457,0.406523,-0.270398,-0.271418
0.0336794,0.0603205,0.471204,0.493122,-0.372583,1.4713,0.298206,-0.29813,-0.285512
0.0257864,0.0733291,0.501544,0.70319,-0.177969,1.57468,0.151074,-0.300806,-0.311048
0.0233747,0.0898786,0.531699,0.886657,0.191067,1.4361,-0.033822,-0.279215,-0.372411
0.0276966,0.110535,0.556694,1.10286,0.473612,1.09425,-0.130567,-0.270916,-0.378188
0.0360842,0.133809,0.57458,1.11689,0.536486,0.786739,-0.106539,-0.233609,-0.283403
0.0421388,0.153484,0.587408,0.746747,0.175749,0.558851,-0.087499,-0.172695,-0.193709
0.0387878,0.164149,0.59539,0.331136,-0.342551,0.269915,-0.0966217,-0.154626,-0.297387
0.0294417,0.169197,0.597301,0.209259,-0.494176,-0.0621504,-0.147181,-0.0146994,-0.529691
0.0244196,0.175033,0.593999,0.43971,0.0476272,-0.204427,-0.0945549,0.137505,-0.727563
0.035292,0.188469,0.591077,0.941862,1.00603,0.00486773,0.00421953,0.305031,-0.716256
0.0614315,0.212315,0.593477,1.39201,1.51272,0.351681,0.0480942,0.381408,-0.401785
0.0882673,0.242632,0.601171,1.53444,1.27064,0.602929,0.0262305,0.332666,-0.0384259
0.104911,0.273053,0.611177,1.36459,0.621676,0.622637,-0.0440918,0.241231,0.201585
0.108148,0.297771,0.619758,0.999222,-0.0078996,0.438117,-0.109321,0.148218,0.263625
0.10397,0.313902,0.624162,0.556939,-0.20452,0.153032,-0.161013,0.125285,0.184632
0.10178,0.321505,0.623678,0.243159,0.0328433,-0.115337,-0.187066,0.16243,0.0220981
0.107652,0.324946,0.619206,0.185365,0.40418,-0.241591,-0.146591,0.220472,-0.092074
0.11948,0.329193,0.61393,0.312642,0.561755,-0.180966,-0.0717188,0.265647,-0.105517
0.130707,0.336887,0.610707,0.485309,0.436149,-0.0156508,-0.0232312,0.259765,-0.0608291
0.137379,0.347764,0.610467,0.575655,0.227332,0.130036,-0.0469013,0.245338,-0.00641912
0.139943,0.359757,0.612484,0.58191,0.14093,0.209154,-0.108294,0.218212,0.00510967
0.142175,0.37175,0.614968,0.57239,0.169004,0.169121,-0.189208,0.180782,-0.00431269
0.145003,0.383364,0.615668,0.584227,0.122173,0.0572658,-0.239186,0.161,-0.0225679
0.147589,0.395849,0.613897,0.694666,0.0781122,-0.0325454,-0.242158,0.157259,-0.0674334
0.150482,0.411237,0.610357,0.89076,0.0739919,-0.0438226,-0.201487,0.154581,-0.0661136
0.153223,0.430785,0.606491,1.09127,0.0457188,-0.00496593,-0.144295,0.141232,0.00254613
0.155393,0.45339,0.602985,1.16919,0.0150074,0.040359,-0.105639,0.110135,0.115812
0.156313,0.475924,0.599954,1.0833,-0.0736793,0.0251458,-0.099955,0.0736538,0.213894
0.155313,0.495592,0.595929,0.904981,-0.209046,-0.079695,-0.101456,0.0324371,0.262486
0.153647,0.510843,0.589914,0.690092,-0.217089,-0.204876,-0.0840359,0.0203918,0.249843
0.153829,0.521591,0.58211,0.481732,-0.156381,-0.294798,-0.0463466,0.0218811,0.23597
0.153829,0.521591,0.58211,0.481732,-0.156381,-0.294798,-0.0463466,0.0218811,0.23597
0.154525,0.528323,0.573907,0.294335,-0.218726,-0.288168,0.0186709,0.0275846,0.231674
0.151095,0.532076,0.567644,0.167807,-0.459003,-0.185674,0.0684693,0.0362849,0.209039
0.140638,0.533753,0.564308,0.0374933,-0.728135,-0.087513,0.086339,0.0138798,0.158816
0.126686,0.533141,0.562848,-0.0685133,-0.688961,-0.0571221,0.0603771,-0.0456224,0.0695536
0.115456,0.530602,0.562038,-0.184093,-0.470491,-0.0815275,0.0353598,-0.0429279,0.0374244
0.108613,0.524811,0.559549,-0.405955,-0.353681,-0.19688,0.0185696,-0.0634343,0.0730114
0.103722,0.512315,0.554895,-0.838526,-0.394524,-0.363758,-0.00760183,-0.101387,0.107544
0.0982052,0.488852,0.545395,-1.40995,-0.625666,-0.727234,-0.070206,-0.119361,0.0631738
0.0912661,0.455643,0.530157,-1.71419,-0.722847,-0.914516,-0.0268638,-0.078774,-0.163956
0.0865404,0.422667,0.513467,-1.32421,-0.340586,-0.837874,0.0450599,0.0327068,-0.48503
0.091821,0.404211,0.500551,-0.3839,0.332122,-0.485303,0.114916,0.131727,-0.615664
0.104251,0.404249,0.494864,0.350957,0.581227,-0.0458632,0.146864,0.172183,-0.380042
0.114159,0.414578,0.496254,0.602459,0.448282,0.26183,0.104921,0.136248,-0.0651739
0.118068,0.42732,0.502425,0.573381,0.19681,0.431709,0.0408999,0.126378,0.13644
0.115857,0.438395,0.5117,0.41489,-0.0206487,0.522737,-0.00247844,0.113497,0.225994
0.108566,0.445551,0.522624,0.182528,-0.237621,0.525973,-0.0517237,0.0750743,0.236538
0.0977601,0.448157,0.532966,-0.00818343,-0.378667,0.416868,-0.118071,0.0720384,0.176531
0.0864374,0.44739,0.540113,-0.113707,-0.4153,0.212025,-0.165449,0.0780302,0.0901689
0.0778402,0.444767,0.542823,-0.172169,-0.322986,0.0225751,-0.142157,0.0863302,0.0291735
0.0728131,0.440536,0.542364,-0.248984,-0.197503,-0.0868617,-0.106071,0.105914,0.000331879
0.0707514,0.434734,0.540283,-0.315215,-0.0943982,-0.13699,-0.0646355,0.113903,-0.0178336
0.0715096,0.428249,0.537583,-0.298863,0.086148,-0.153087,-0.0456635,0.116695,-0.0572302
0.0767213,0.423043,0.534603,-0.196375,0.308261,-0.158441,-0.0421793,0.119262,-0.0667142
0.0854391,0.419842,0.531395,-0.109507,0.416564,-0.160895,-0.0333074,0.10154,-0.012907
0.0953666,0.417773,0.528312,-0.0745979,0.462664,-0.134836,-0.0212061,0.0775094,0.0439817
0.1063,0.416229,0.525968,-0.0544244,0.541568,-0.101285,-0.0223188,0.0707878,0.085254
0.118365,0.415072,0.524354,-0.0512225,0.611775,-0.0594141,-0.0180805,0.0541194,0.121712
0.131032,0.413468,0.523694,-0.109657,0.636567,-0.0354417,-0.0115688,0.0233083,0.158265
0.142985,0.410214,0.52365,-0.21621,0.557168,-0.0200874,0.00450212,-0.0232522,0.170754
0.152179,0.404872,0.524459,-0.313097,0.395307,0.0328049,0.0219488,-0.0434307,0.132254
0.157446,0.399162,0.527389,-0.271812,0.282634,0.137304,0.0174407,-0.0222421,0.0222949
0.161765,0.395204,0.531951,-0.184668,0.359546,0.213732,-0.0157874,-0.0150276,-0.068837
0.168832,0.393558,0.537729,-0.0742829,0.555061,0.285918,-0.0290861,-0.0244823,-0.1152
0.176543,0.393464,0.545231,-0.0752876,0.479626,0.398656,-0.0247257,-0.0307792,-0.0836433
0.180895,0.393039,0.555195,-0.126509,0.3554,0.487332,-0.0467761,-0.0659619,-0.0921015
0.182891,0.391841,0.566147,-0.182768,0.29308,0.466365,-0.0925574,-0.0709442,-0.121999
0.184597,0.388813,0.576357,-0.290713,0.294597,0.405012,-0.107473,-0.0791918,-0.145233
0.186722,0.383539,0.586268,-0.390111,0.281222,0.417408,-0.0624251,-0.0603657,-0.155728
0.186942,0.377432,0.59758,-0.390673,0.148277,0.510691,-0.0250377,-0.0156363,-0.170765
0.183422,0.372363,0.610715,-0.328425,-0.0044202,0.594203,-0.016591,-0.0114269,-0.170871
0.177536,0.368484,0.62471,-0.300286,-0.0651443,0.613396,-0.0305949,-0.0138984,-0.13791
0.171141,0.364755,0.63891,-0.296916,-0.0445733,0.628132,-0.0324244,-0.00462314,-0.0948785
0.165374,0.36118,0.65326,-0.277937,-0.0311949,0.636111,-0.0354697,0.0175016,-0.0467647
0.15946,0.358726,0.66756,-0.159845,-0.0402326,0.641614,-0.0235704,0.0231703,-0.0132174
0.154585,0.359368,0.681237,0.0123587,0.0204977,0.64019,-0.0062101,0.0308971,0.0385583
0.150069,0.362405,0.694681,0.0734102,-0.00956159,0.655085,0.0192471,0.0277873,0.141686
0.143947,0.365356,0.708406,0.01947,-0.12924,0.654663,0.0338799,0.00611588,0.223165
0.134836,0.366715,0.721702,-0.0608507,-0.300411,0.586504,0.0426015,-0.029373,0.238071
0.123979,0.365686,0.732926,-0.184385,-0.343102,0.439371,0.050348,-0.05957,0.202666
0.115633,0.361062,0.741075,-0.369047,-0.176542,0.26419,0.0565537,-0.0755039,0.133804
0.112028,0.352304,0.746169,-0.543685,-0.0283871,0.117622,0.0814895,-0.0809949,0.0642886
0.11006,0.341096,0.749299,-0.569145,-0.0633823,0.0604851,0.12351,-0.0714394,-0.0330095
0.10646,0.331436,0.751962,-0.390619,-0.226375,0.0955296,0.165622,-0.0556867,-0.140741
0.098817,0.327013,0.755226,-0.0696544,-0.394644,0.159542,0.163927,-0.0290494,-0.224545
0.098817,0.327013,0.755226,-0.0696544,-0.394644,0.159542,0.163927,-0.0290494,-0.224545
0.0909367,0.329039,0.758721,0.220208,-0.234378,0.182823,0.118055,-0.00702038,-0.2538
0.0887625,0.335299,0.762142,0.35261,0.142876,0.19352,0.0687869,0.0173295,-0.18642
0.0932072,0.342896,0.765201,0.370403,0.356145,0.154931,0.0241624,0.0192146,-0.0507674
0.0996576,0.350385,0.76679,0.366169,0.335847,0.0608162,-0.0223568,-0.0120718,0.0530496
0.106199,0.357623,0.76598,0.358389,0.292592,-0.0681772,-0.0713847,-0.0240204,0.115185
0.113039,0.363683,0.762014,0.274449,0.248671,-0.236372,-0.098844,-0.054651,0.179071
0.119784,0.366704,0.754683,0.100396,0.16108,-0.410912,-0.113537,-0.0779983,0.230933
0.125586,0.365844,0.744268,-0.0491512,0.0521848,-0.561052,-0.10772,-0.0895582,0.213318
0.130123,0.362964,0.731639,-0.068552,-0.0455726,-0.630874,-0.0756024,-0.0839185,0.132298
0.132953,0.360654,0.718696,0.00723437,-0.120197,-0.592243,-0.0303139,-0.0749545,0.0613503
0.134345,0.360689,0.706677,0.152424,-0.138532,-0.527581,-0.0059227,-0.075258,0.0044325
0.135656,0.363874,0.695729,0.288494,-0.118756,-0.450224,0.0123623,-0.0648029,-0.0194036
0.136544,0.368774,0.686175,0.296657,-0.152744,-0.366666,0.0243065,-0.0524608,0.00788915
0.13477,0.372959,0.67867,0.2069,-0.312741,-0.280937,0.0302702,-0.0551682,0.0378603
0.128327,0.375099,0.672666,0.0769161,-0.544045,-0.258932,0.00322175,-0.0539843,0.0150292
0.118416,0.374922,0.6669,-0.0117508,-0.622019,-0.282247,-0.0246975,-0.0561784,-0.0776284
0.109347,0.373844,0.660762,-0.0222161,-0.501091,-0.294844,-0.0148148,-0.0684578,-0.165999
0.1029,0.372852,0.65475,-0.0311623,-0.395851,-0.275981,0.000927001,-0.0727236,-0.162654
0.0961471,0.370216,0.649008,-0.21064,-0.518929,-0.298228,-0.0150626,-0.0757903,-0.0876813
0.08629,0.362057,0.642092,-0.56316,-0.708394,-0.445699,-0.0382373,-0.110981,-0.0551409
0.075709,0.346952,0.631888,-0.832713,-0.658169,-0.617856,-0.0416803,-0.0787599,-0.154291
0.0688301,0.329461,0.619716,-0.786883,-0.448409,-0.632922,0.0323354,-0.00837642,-0.286004
0.0647184,0.315711,0.608766,-0.496581,-0.307978,-0.463335,0.117219,0.0604619,-0.304313
0.0614931,0.308913,0.602365,-0.143495,-0.20727,-0.186441,0.151583,0.118797,-0.239169
0.0588991,0.30899,0.601093,0.139471,-0.0975516,0.0500599,0.142348,0.125706,-0.102294
0.0569231,0.313685,0.603311,0.297911,-0.0448833,0.167045,0.090644,0.113497,0.048814
0.0539836,0.320466,0.606918,0.343225,-0.157879,0.207973,0.0510389,0.10427,0.162458
0.0473788,0.327066,0.611151,0.285046,-0.376474,0.221024,0.033,0.102837,0.218952
0.0367601,0.331837,0.615149,0.17161,-0.53778,0.162893,-0.0118892,0.104269,0.193266
0.0248662,0.333883,0.616932,0.0228271,-0.579864,-0.00401591,-0.0796124,0.108567,0.13522
0.0148314,0.332876,0.614367,-0.105511,-0.480643,-0.243021,-0.125131,0.118648,0.047084
0.00904988,0.330325,0.607133,-0.125458,-0.330959,-0.434606,-0.118088,0.146814,-0.0238436
0.00795655,0.328533,0.596294,-0.0280277,-0.117385,-0.59227,-0.115548,0.168541,-0.0720832
0.0121645,0.328813,0.582439,0.0455983,0.0815128,-0.723901,-0.112724,0.176939,-0.0218749
0.0201736,0.32867,0.565893,-0.0556509,0.176809,-0.83929,-0.108341,0.167419,0.101935
0.0297148,0.325293,0.547431,-0.234332,0.164644,-0.914435,-0.0894927,0.149176,0.184749
0.0387704,0.318793,0.528256,-0.338372,0.1437,-0.921967,-0.0592687,0.12882,0.182925
0.0471286,0.310933,0.509465,-0.368033,0.106693,-0.905037,-0.0460117,0.100823,0.173938
0.0538832,0.302096,0.491265,-0.440557,0.0232463,-0.875734,-0.0337028,0.0659238,0.195593
0.0582069,0.291179,0.47431,-0.567861,-0.0969921,-0.807451,-0.00984204,0.0407895,0.206559
0.0593727,0.277927,0.459102,-0.656064,-0.180897,-0.733573,0.000419065,0.0176031,0.150148
0.0597472,0.264192,0.445599,-0.634992,-0.136983,-0.65149,0.0126421,0.00531563,0.0663036
0.0607463,0.251387,0.434265,-0.574782,-0.0344481,-0.512069,0.0398931,-0.0054183,0.0182193
0.063274,0.240311,0.426033,-0.487476,0.0642264,-0.361082,0.0503864,-0.0249343,0.0114803
0.065251,0.230778,0.420553,-0.430942,0.000979863,-0.227036,0.0550847,-0.0720924,0.0359618
0.0655421,0.222523,0.417677,-0.379247,-0.038332,-0.11062,0.0478293,-0.110348,0.032591
0.0640297,0.215054,0.416778,-0.365524,-0.126788,-0.0300783,0.0394472,-0.154291,0.0236079
0.0614214,0.208467,0.417285,-0.286866,-0.0926023,0.0404426,0.0273944,-0.179881,-0.0510834
0.0600112,0.204025,0.419029,-0.159937,-0.0160043,0.0986672,0.00561507,-0.176095,-0.094861
0.0603174,0.202564,0.421571,0.00727011,0.110929,0.137159,-0.00872482,-0.187811,-0.127589
0.0635193,0.204862,0.424151,0.201328,0.241879,0.11867,-0.0524599,-0.180815,-0.134641
0.0683566,0.210432,0.425628,0.328277,0.283814,0.0529396,-0.0704129,-0.197749,-0.0881706
0.074638,0.217326,0.425376,0.35011,0.356584,-0.0287159,-0.075546,-0.195819,-0.0366324
0.0826666,0.223996,0.423541,0.32655,0.415249,-0.0894847,-0.0550732,-0.180155,-0.0162424
0.0826666,0.223996,0.423541,0.32655,0.415249,-0.0894847,-0.0550732,-0.180155,-0.0162424
0.0927954,0.2307,0.421252,0.375305,0.565862,-0.0702465,-0.00928996,-0.171838,-0.0434077
0.105495,0.238425,0.419071,0.388414,0.630096,-0.0735048,0.0184989,-0.19414,-0.00775105
0.116524,0.244635,0.416772,0.224023,0.360887,-0.0870829,0.0480284,-0.232377,0.0631185
0.11792,0.245422,0.413418,-0.13182,-0.342773,-0.246156,0.0150592,-0.254685,-0.0112193
0.107591,0.239389,0.40793,-0.362012,-0.732044,-0.337243,0.0205417,-0.195066,-0.306412
0.0975692,0.233685,0.401412,-0.0578473,-0.284531,-0.333231,0.00261487,-0.0382881,-0.665215
0.100573,0.237789,0.395868,0.517974,0.463435,-0.140709,0.0242171,0.12,-0.713836
0.116384,0.252413,0.393951,0.898246,0.970383,0.109803,0.0270087,0.185761,-0.459213
0.134956,0.271999,0.395487,1.01493,0.882937,0.267141,-0.0215223,0.183864,-0.139181
0.149559,0.293616,0.39838,1.10198,0.668991,0.299132,-0.0948352,0.170122,0.0384218
0.160928,0.317395,0.400024,1.22032,0.51874,0.214276,-0.152734,0.159093,0.15204
0.169449,0.341661,0.398988,1.15261,0.281791,0.0883439,-0.176668,0.142349,0.282709
0.173005,0.361446,0.395443,0.825025,-0.0603223,-0.0947466,-0.213175,0.114583,0.371359
0.171339,0.372763,0.388255,0.425507,-0.325806,-0.387583,-0.250025,0.0891203,0.335656
0.168647,0.376406,0.375712,0.143645,-0.395544,-0.698249,-0.23172,0.107205,0.222569
0.166536,0.374257,0.3584,-0.0812775,-0.45378,-0.923057,-0.163021,0.143138,0.134363
0.164559,0.36777,0.337871,-0.231534,-0.489938,-1.06324,-0.0909429,0.161751,0.0386285
0.16172,0.35906,0.316112,-0.272534,-0.531442,-1.06181,-0.0215669,0.229492,-0.0668027
0.159317,0.351295,0.295579,-0.183686,-0.421463,-0.973428,-0.000120997,0.266813,-0.163356
0.158647,0.345279,0.276423,-0.140687,-0.297878,-0.903918,-0.00795734,0.243107,-0.170048
0.159593,0.339525,0.258841,-0.166463,-0.189089,-0.829421,-0.0136138,0.214753,-0.133721
0.162415,0.3339,0.242361,-0.127655,-0.0816631,-0.808058,-0.0596779,0.186357,-0.0945482
0.166974,0.329685,0.225788,-0.0358907,-0.0074929,-0.812287,-0.0831061,0.157928,-0.0243966
0.172555,0.326664,0.208644,0.00416181,0.0155007,-0.84606,-0.122001,0.112664,0.0706564
0.179145,0.323491,0.190505,-0.0265888,0.0635756,-0.909528,-0.155152,0.0643997,0.155843
0.186123,0.318283,0.1715,-0.182265,0.0179245,-0.969214,-0.178456,0.030099,0.266196
0.190501,0.308594,0.152056,-0.425356,-0.189148,-1.05029,-0.184663,-0.0327065,0.340296
0.19033,0.294053,0.131707,-0.623095,-0.431466,-1.13708,-0.170824,-0.0905831,0.329107
0.185424,0.276234,0.110573,-0.730661,-0.655668,-1.18568,-0.13677,-0.109696,0.270762
0.176466,0.25786,0.0894011,-0.692578,-0.790652,-1.15338,-0.0961692,-0.122369,0.169924
0.164217,0.241688,0.0690499,-0.556937,-0.938257,-1.06698,-0.0477207,-0.1446,0.0882595
0.148922,0.229535,0.0502045,-0.348162,-1.03666,-0.934703,-0.00162825,-0.16519,0.0282712
0.131612,0.2231,0.0332413,-0.0554131,-1.07168,-0.804017,0.0241962,-0.176665,-0.0328821
0.113869,0.222317,0.0174706,0.132514,-1.03125,-0.749496,0.0403422,-0.215057,-0.03314
0.0981785,0.223646,0.00204182,0.133802,-0.863362,-0.74417,0.0551619,-0.23793,-0.0136397
0.0860691,0.2241,-0.0134621,0.0502388,-0.728254,-0.757927,0.0905641,-0.248337,-0.00183547
0.0749175,0.223586,-0.0288817,0.0273879,-0.73821,-0.739702,0.161589,-0.259946,-0.0354086
0.0630415,0.223054,-0.0433246,0.0043945,-0.764707,-0.67557,0.204781,-0.268705,-0.0784534
0.0513822,0.221291,-0.0565053,-0.133323,-0.668719,-0.633799,0.216327,-0.289452,-0.107674
0.0425569,0.215484,-0.0695827,-0.431995,-0.533164,-0.693964,0.200231,-0.323609,-0.123423
0.0333839,0.201198,-0.0846907,-0.967784,-0.72495,-0.844018,0.132716,-0.27086,-0.144772
0.0206356,0.177176,-0.102077,-1.35451,-0.860381,-0.914554,0.160292,-0.223804,-0.325557
0.00569683,0.149383,-0.119819,-1.33688,-0.878768,-0.850469,0.188214,-0.128531,-0.558684
-0.00694338,0.126964,-0.134574,-0.863608,-0.567354,-0.584845,0.193655,-0.00226766,-0.759797
-0.0125555,0.117197,-0.142135,-0.0797957,-0.020201,-0.144771,0.199633,0.0751961,-0.810084
-0.00589576,0.125061,-0.140609,0.853908,0.670241,0.271395,0.163671,0.100626,-0.648025
0.00936259,0.148984,-0.132276,1.47411,0.884467,0.541248,0.0490451,0.103389,-0.239484
0.0217787,0.180585,-0.12054,1.59804,0.458928,0.6353,-0.0817256,0.0956358,0.148056
0.0212903,0.210117,-0.109897,1.27909,-0.298358,0.423622,-0.223946,0.0511796,0.360201
0.00862882,0.230266,-0.106415,0.733842,-0.832189,-0.0794136,-0.364663,0.00409988,0.375898
-0.00709005,0.240943,-0.113871,0.389651,-0.867459,-0.628841,-0.397259,0.0674154,0.197346
-0.0191961,0.247787,-0.130385,0.29926,-0.715518,-0.932485,-0.293525,0.187047,0.0655161
-0.024924,0.254159,-0.150176,0.30353,-0.32041,-0.979513,-0.193149,0.26637,0.00129634
-0.0209261,0.261169,-0.170131,0.360336,0.191724,-0.980702,-0.166522,0.288651,0.0194509
-0.0209261,0.261169,-0.170131,0.360336,0.191724,-0.980702,-0.166522,0.288651,0.0194509
-0.00949781,0.269467,-0.190459,0.437527,0.364228,-1.00064,-0.14534,0.26129,0.136172
0.00218856,0.278664,-0.211143,0.465676,0.225319,-0.985408,-0.108611,0.245637,0.277355
0.0104505,0.287665,-0.230737,0.444589,0.0644982,-0.895214,-0.076885,0.230339,0.370508
0.0158926,0.295583,-0.248845,0.357636,-0.0216103,-0.843477,-0.0846455,0.202339,0.428329
0.0205803,0.300594,-0.266287,0.15601,-0.0103974,-0.820124,-0.0947751,0.167883,0.475848
0.0254278,0.300793,-0.283495,-0.101068,-0.0266002,-0.84244,-0.120765,0.134519,0.513539
0.0289234,0.29628,-0.301651,-0.291412,-0.192123,-0.916025,-0.149318,0.0996731,0.519979
0.0272749,0.288665,-0.321379,-0.400055,-0.577143,-0.993523,-0.131826,0.0532274,0.479646
0.0177651,0.280368,-0.342007,-0.368576,-0.92371,-0.994825,-0.0545766,0.020148,0.371386
0.00200202,0.273726,-0.361088,-0.274283,-1.15538,-0.835482,0.0543316,0.0189471,0.278397
-0.0170163,0.268852,-0.376599,-0.247462,-1.11569,-0.668888,0.1391,-0.0461424,0.201837
-0.0329297,0.262959,-0.38904,-0.403194,-0.768767,-0.526997,0.19825,-0.125834,0.147444
-0.0417791,0.252619,-0.399427,-0.678359,-0.422073,-0.459157,0.216329,-0.202833,0.0996794
-0.0465657,0.237057,-0.409681,-0.907596,-0.334807,-0.468423,0.271398,-0.294484,-0.0182936
-0.050008,0.218488,-0.419802,-0.979151,-0.231577,-0.411043,0.390489,-0.327451,-0.213471
-0.0525554,0.199292,-0.427633,-0.979163,-0.193429,-0.232601,0.511666,-0.308692,-0.37869
-0.0553233,0.180196,-0.430663,-0.94335,-0.141024,0.0436673,0.612658,-0.330497,-0.556088
-0.0585468,0.162596,-0.42741,-0.769393,-0.139479,0.383174,0.683886,-0.342499,-0.755252
-0.0627917,0.1498,-0.41656,-0.44569,-0.0857248,0.758077,0.664068,-0.303732,-0.911112
-0.0642904,0.142607,-0.399553,-0.188963,0.200788,0.929761,0.474025,-0.227901,-0.978352
-0.0595129,0.140377,-0.380742,0.106163,0.524811,0.947111,0.34707,-0.172904,-0.97152
-0.0500412,0.146286,-0.360745,0.635888,0.743868,1.01112,0.317354,-0.0664083,-0.903048
-0.0349789,0.16427,-0.33819,1.2451,1.12038,1.16953,0.335618,0.0353589,-0.699612
-0.0148331,0.192675,-0.312044,1.60379,1.31867,1.35872,0.316072,0.121036,-0.347394
0.00472346,0.224374,-0.281941,1.54213,1.20742,1.55872,0.283008,0.179176,-0.0106882
0.017059,0.253078,-0.249859,1.27668,0.753233,1.57165,0.219829,0.157596,0.180713
0.0189012,0.275692,-0.218884,0.934159,0.280396,1.47173,0.180849,0.137829,0.219542
0.0136555,0.292508,-0.18911,0.747887,0.0743973,1.42125,0.15909,0.194635,0.0998294
0.00583722,0.307698,-0.160645,0.773092,0.0082593,1.32714,0.107428,0.261347,0.0139606
-0.00137928,0.323979,-0.133562,0.855943,0.14958,1.24292,0.104121,0.307385,-0.0182874
-0.00431133,0.3411,-0.107207,0.826102,0.454732,1.28463,0.119465,0.354681,0.0284381
-0.000880026,0.355763,-0.0794575,0.621281,0.809138,1.35004,0.105836,0.385628,0.123416
0.00559601,0.366142,-0.0492588,0.450139,0.85778,1.47256,0.0810786,0.377913,0.177017
0.00922607,0.376019,-0.0173594,0.551734,0.638966,1.50883,0.0271852,0.332111,0.172053
0.00666734,0.389657,0.0148094,0.794841,0.326092,1.5236,-0.0202209,0.310413,0.177201
-0.00121712,0.407826,0.0477513,0.994194,0.183853,1.49532,-0.0899472,0.316323,0.209977
-0.0114112,0.427922,0.0790555,1.00333,0.0739819,1.35631,-0.154688,0.293964,0.277935
-0.0231227,0.44608,0.107508,0.838009,-0.0608317,1.19059,-0.165269,0.252508,0.327319
-0.0373357,0.460695,0.132499,0.727693,-0.264631,1.02463,-0.157483,0.22222,0.294655
-0.0534719,0.474548,0.154155,0.753888,-0.339433,0.841727,-0.16149,0.197858,0.22476
-0.0669975,0.488816,0.171891,0.747683,-0.171958,0.656417,-0.160223,0.15995,0.200275
-0.0748531,0.501312,0.186041,0.547297,0.0802226,0.503091,-0.151139,0.109926,0.215317
-0.0742201,0.508148,0.195689,0.16043,0.444593,0.288494,-0.190115,0.0475037,0.226116
-0.066733,0.506317,0.200189,-0.312282,0.419373,0.131117,-0.156649,-0.0140024,0.229478
-0.0633318,0.496751,0.201224,-0.605185,-0.0598929,0.0306908,-0.091531,-0.0611481,0.146172
-0.0689183,0.48407,0.200801,-0.621002,-0.433045,0.0397107,-0.0613778,-0.0468064,-0.0270424
-0.0772181,0.475027,0.201526,-0.182412,-0.316242,0.0738907,-0.0723909,-0.0605516,-0.294018
-0.0795991,0.480787,0.202999,0.776411,0.210552,0.00109301,-0.0483502,-0.0899372,-0.528972
-0.0708681,0.502167,0.204542,1.21496,0.655867,0.00248199,0.0157412,-0.0470856,-0.398348
-0.0588295,0.520563,0.206844,0.406113,0.817613,0.0785614,0.0631535,-0.0170353,0.0828199
-0.0587146,0.509994,0.208615,-1.3723,-0.680322,0.118312,0.0842031,-0.0544301,0.330151
-0.0701947,0.473962,0.208121,-2.11011,-0.387665,0.0655865,-0.00996675,-0.112707,-0.063596
-0.0727422,0.42939,0.205029,-2.31229,0.00154787,0.00644166,-0.0981958,0.0192822,-0.22827
-0.0705576,0.384606,0.202931,-2.09202,0.0760191,0.150944,-0.0228622,0.0575979,-0.234799
-0.0705576,0.384606,0.202931,-2.09202,0.0760191,0.150944,-0.0228622,0.0575979,-0.234799
-0.0699473,0.351006,0.205162,-1.15539,0.108269,0.262619,-0.0527793,0.0635386,-0.389181
-0.069344,0.339422,0.209458,-0.0271968,0.051363,0.214049,-0.071658,0.0339918,-0.375618
-0.071967,0.344789,0.214129,0.469966,-0.150915,0.204399,-0.0366208,0.0479132,-0.132258
-0.0778911,0.353334,0.220012,0.374672,-0.194535,0.288584,-0.00452443,0.106709,0.0746465
-0.0824118,0.357964,0.227471,0.154088,0.0137612,0.366447,-0.0174734,0.153316,0.142052
-0.0834299,0.359295,0.235417,0.06049,0.144728,0.34713,-0.0577455,0.146582,0.163144
-0.0824599,0.36,0.241892,0.0685656,0.166519,0.244724,-0.0959482,0.139567,0.194908
-0.0808513,0.361412,0.246034,0.106791,0.134215,0.126947,-0.112839,0.154483,0.236878
-0.0791012,0.363648,0.247478,0.115282,0.0896818,-0.0175148,-0.117463,0.157978,0.301648
-0.0766539,0.365088,0.24509,-0.0262771,0.0825977,-0.232803,-0.124818,0.15589,0.381346
-0.0717276,0.362269,0.237075,-0.333318,0.142258,-0.489365,-0.10515,0.148312,0.43887
-0.0635214,0.353085,0.224424,-0.657811,0.238256,-0.601709,-0.0493546,0.177841,0.435808
-0.0541925,0.338461,0.210979,-0.848421,0.20459,-0.562827,0.00485887,0.201908,0.381137
-0.0470495,0.322094,0.19907,-0.82508,0.134074,-0.486488,0.0169188,0.180231,0.281036
-0.0412617,0.306794,0.188694,-0.759456,0.128991,-0.441728,0.00992022,0.128069,0.234524
-0.0356312,0.292126,0.178833,-0.760021,0.157831,-0.464974,-0.000263587,0.050913,0.217356
-0.0290597,0.276467,0.167767,-0.859444,0.173431,-0.540785,0.0129376,-0.035345,0.195293
-0.0233612,0.258095,0.156513,-1.00162,0.108558,-0.47318,0.071093,-0.0687206,0.124115
-0.0200097,0.237871,0.148314,-1.01798,0.0139269,-0.271224,0.123876,-0.0840066,-0.00195509
-0.0198503,0.218452,0.144712,-0.930012,-0.0738789,-0.0390996,0.176192,-0.136705,-0.106279
-0.0209711,0.200719,0.145668,-0.854351,0.0187112,0.155744,0.187342,-0.202115,-0.182401
-0.0192291,0.183398,0.149722,-0.896939,0.217836,0.271372,0.167068,-0.248995,-0.2229
-0.0148133,0.164021,0.155902,-1.03431,0.299925,0.351555,0.180538,-0.289396,-0.254328
-0.0113165,0.142935,0.163075,-1.03185,0.113305,0.402953,0.18126,-0.321189,-0.342949
-0.0134443,0.124638,0.172199,-0.756076,-0.170949,0.532005,0.23769,-0.333738,-0.462071
-0.0185614,0.112945,0.183995,-0.404704,-0.169676,0.646533,0.294947,-0.361461,-0.526242
-0.0223383,0.10716,0.198093,-0.181394,-0.0440694,0.772877,0.324378,-0.379373,-0.503177
-0.023485,0.104309,0.21431,-0.0847924,0.074491,0.844324,0.295755,-0.36698,-0.465777
-0.0244394,0.102708,0.230995,-0.0387126,-0.0429707,0.797077,0.277848,-0.360088,-0.436246
-0.0288224,0.101812,0.246245,-0.000151366,-0.204036,0.748679,0.275862,-0.277163,-0.433341
-0.0338523,0.10285,0.262136,0.190546,-0.094046,0.862584,0.321158,-0.148338,-0.459895
-0.0344439,0.110067,0.282346,0.637404,0.263112,1.14435,0.366077,-0.0343814,-0.43233
-0.0298512,0.127184,0.309164,1.16007,0.486857,1.46855,0.387699,0.0560868,-0.267232
-0.0238272,0.153479,0.342295,1.51989,0.540994,1.73591,0.37143,0.0875241,-0.0259056
-0.0208228,0.183868,0.380134,1.566,0.362437,1.922,0.340478,0.0876801,0.191152
-0.0250327,0.21274,0.420681,1.39188,-0.00549262,1.98026,0.328757,0.0547979,0.301643
-0.0380337,0.236318,0.461602,1.07593,-0.362675,1.9335,0.315013,0.0446564,0.299049
-0.0564524,0.252471,0.501143,0.73404,-0.483231,1.81636,0.255882,0.0860403,0.187352
-0.0749495,0.262662,0.536753,0.538237,-0.457331,1.5404,0.159958,0.128427,0.0176328
-0.090972,0.270338,0.566195,0.487938,-0.365207,1.25239,0.180397,0.145964,-0.131918
-0.103682,0.278639,0.591644,0.615881,-0.187103,1.14984,0.254595,0.21125,-0.263245
-0.111537,0.291129,0.617704,0.907747,0.139746,1.22939,0.294717,0.308076,-0.338132
-0.114219,0.308873,0.646773,1.16046,0.44311,1.32418,0.26556,0.361312,-0.302005
-0.113061,0.330185,0.676951,1.25918,0.59719,1.25888,0.185187,0.342636,-0.185042
-0.109867,0.352008,0.704749,1.19022,0.660243,1.10126,0.125674,0.319347,-0.0734014
-0.10409,0.372351,0.729037,1.08989,0.808232,0.948986,0.0869101,0.322639,-0.0102738
-0.0931514,0.391591,0.750199,1.02698,1.07666,0.819625,0.0752336,0.316169,0.0380479
-0.0767388,0.409969,0.768446,0.948307,1.26824,0.696671,0.0594007,0.301504,0.126592
-0.0567783,0.426721,0.783655,0.807977,1.31626,0.587505,0.0629659,0.271539,0.230119
-0.0372903,0.44052,0.796468,0.624053,1.1561,0.506139,0.074555,0.236988,0.313645
-0.021464,0.450222,0.806765,0.362452,0.855854,0.393527,0.064627,0.198959,0.379071
-0.0110928,0.454354,0.814659,0.0695221,0.554453,0.322508,0.0904573,0.157266,0.375922
-0.00374512,0.45333,0.821398,-0.158167,0.511808,0.292497,0.0813088,0.152088,0.297532
0.00483746,0.448916,0.827835,-0.279673,0.612565,0.296038,0.0750487,0.144805,0.221464
0.00483746,0.448916,0.827835,-0.279673,0.612565,0.296038,0.0750487,0.144805,0.221464
0.0145724,0.442817,0.834127,-0.345893,0.616629,0.263518,0.068575,0.115071,0.169001
0.0238594,0.435117,0.840085,-0.44527,0.564716,0.288323,0.0951719,0.109154,0.129249
0.0318098,0.425357,0.848434,-0.543911,0.614979,0.461668,0.133337,0.101428,0.0831145
0.040442,0.414112,0.860614,-0.649475,0.706067,0.580373,0.135716,0.0308412,0.0871954
0.0478278,0.398491,0.873513,-1.02022,0.514958,0.51068,0.0742226,-0.0260043,0.127442
0.0498681,0.371355,0.883189,-1.81608,-0.00652328,0.21642,-0.060564,-0.0414488,0.115187
0.0429751,0.327115,0.885357,-2.54376,-0.54456,-0.186844,-0.0724373,-0.0629497,-0.105781
0.0324242,0.275352,0.882555,-2.47748,-0.483342,-0.191528,0.0569833,0.0401198,-0.570906
0.0292658,0.234475,0.884445,-1.5433,0.298728,0.306285,0.200253,0.189639,-0.947977
0.0408877,0.214247,0.897828,-0.594806,1.03411,0.933702,0.245596,0.19688,-0.870268
0.0583972,0.209906,0.922756,-0.00455955,1.21255,1.45837,0.19075,0.11149,-0.584926
0.0753709,0.215616,0.95486,0.318071,1.12039,1.68939,-0.00286191,0.0797791,-0.342579
0.0874077,0.226595,0.989622,0.504945,0.85933,1.76006,-0.145184,0.0166681,-0.169404
0.0936473,0.241812,1.02328,0.709973,0.50869,1.62023,-0.279236,-0.00837064,-0.040978
0.0834969,0.271312,1.0358,1.22332,-0.990695,0.582369,-0.62109,-0.376002,0.0415152
0.0676888,0.295676,1.04694,1.32043,-0.267253,0.732707,-0.244267,0.0602158,0.190606
0.0534488,0.320392,1.06045,0.898426,-0.660525,0.686767,-0.0915066,-0.00358856,0.389392
0.043785,0.331808,1.07173,0.173236,0.0837938,0.356415,-0.136354,0.0400013,0.433593
0.0514249,0.329558,1.07741,-0.329318,0.883138,0.249171,-0.162879,0.0250564,0.344394
0.070656,0.320324,1.08318,-0.566632,1.16249,0.236345,-0.0931597,0.0908903,0.343006
0.0922535,0.311192,1.08858,-0.352109,1.11651,0.178565,-0.0359096,0.0302991,0.268157
0.109812,0.308365,1.09018,0.0592284,0.638768,-0.0487399,-0.0281586,0.0252875,0.27923
0.117867,0.311362,1.08825,0.193331,0.138479,-0.0412623,0.048354,0.0100294,0.341477
0.117384,0.314705,1.08899,0.120505,-0.129526,0.135378,0.0914265,0.0466579,0.354851
0.112979,0.317069,1.09249,0.0790791,-0.171273,0.215153,0.111433,-0.0119624,0.280567
0.108383,0.318542,1.09806,-0.00458904,-0.0934167,0.337607,0.134392,-0.0344592,0.22119
0.104727,0.318144,1.10639,-0.111764,-0.0460191,0.431851,0.089416,-0.057328,0.160678
0.100048,0.316489,1.11554,-0.136888,-0.13646,0.396852,0.0606733,-0.121904,0.0709479
0.0950387,0.314645,1.12294,-0.125654,-0.0998253,0.289857,0.0492895,-0.161301,-0.0246372
0.093524,0.311785,1.12743,-0.228762,0.0792613,0.101338,0.0509311,-0.193044,-0.0660591
0.0961036,0.304947,1.12865,-0.479179,0.215091,-0.0310215,0.100976,-0.20577,-0.0830398
0.1015,0.292908,1.12879,-0.714494,0.308036,-0.0604698,0.145605,-0.16866,-0.145481
0.107603,0.277715,1.12979,-0.773344,0.352589,0.00770779,0.196692,-0.145793,-0.246865
0.115499,0.26398,1.13267,-0.612334,0.496714,0.128247,0.235308,-0.160798,-0.351879
0.123699,0.254443,1.13812,-0.429726,0.408013,0.283868,0.259495,-0.151964,-0.359995
0.125782,0.247044,1.14636,-0.427611,-0.0406955,0.417689,0.252519,-0.139555,-0.334911
0.118979,0.239429,1.15679,-0.453897,-0.312363,0.480526,0.226897,-0.116688,-0.406656
0.11196,0.231749,1.16833,-0.423774,-0.0404365,0.571731,0.212184,-0.0412548,-0.475103
0.113212,0.226783,1.18302,-0.189034,0.508341,0.818264,0.212539,0.0529543,-0.484465
0.123419,0.229489,1.20263,0.235783,0.899943,1.10972,0.189448,0.0994126,-0.378457
0.13637,0.241039,1.22628,0.600975,0.902924,1.31482,0.131761,0.0956906,-0.144965
0.14597,0.25901,1.25193,0.794472,0.658378,1.38768,0.0725346,0.0884298,0.0882
0.148679,0.278534,1.27766,0.734226,0.278725,1.34943,0.0636627,0.0491168,0.283234
0.143199,0.294294,1.30257,0.453533,-0.106815,1.25028,0.0689613,0.0182749,0.377037
0.130943,0.302718,1.32678,0.0720158,-0.377276,1.17141,0.0734269,0.0352224,0.346672
0.114997,0.304443,1.35022,-0.151808,-0.522568,1.06362,0.0460967,0.0730771,0.195409
0.0969305,0.302916,1.37139,-0.17933,-0.614378,0.942523,0.0397992,0.111659,0.023904
0.080121,0.302183,1.39041,-0.0421562,-0.479786,0.874608,0.0567242,0.151136,-0.112888
0.0678393,0.304611,1.40839,0.159858,-0.188487,0.862203,0.0728915,0.18423,-0.175825
0.0627007,0.30999,1.42563,0.22489,0.197671,0.802018,0.0468028,0.186213,-0.135716
0.0640522,0.313879,1.44145,0.0540812,0.372593,0.73399,0.0240493,0.169163,-0.0421861
0.0663534,0.31535,1.45635,0.0533049,0.295517,0.688167,-0.0107431,0.162826,-0.0694095
0.0660863,0.319827,1.46933,0.340978,0.108271,0.560985,-0.0665345,0.170619,-0.121203
0.0660863,0.319827,1.46933,0.340978,0.108271,0.560985,-0.0665345,0.170619,-0.121203
0.0659736,0.330435,1.47886,0.628082,0.223608,0.422368,-0.0835079,0.173545,-0.0901224
0.0706477,0.343768,1.48587,0.611993,0.472088,0.336762,-0.0887672,0.183381,0.0581462
0.0799719,0.354551,1.49131,0.425107,0.619998,0.251502,-0.112256,0.159639,0.183066
0.0908639,0.361538,1.49478,0.25055,0.547441,0.134891,-0.13834,0.13507,0.250907
0.0986162,0.365385,1.49605,0.136637,0.270269,0.0198047,-0.131325,0.0826511,0.276693
0.101987,0.36747,1.49496,0.0862533,0.0449236,-0.0846839,-0.106443,0.0505397,0.268768
0.102333,0.368871,1.49283,0.0795667,-0.071264,-0.0887499,-0.0775672,0.0446755,0.230132
0.101424,0.37015,1.49116,0.0462874,-0.109324,-0.045418,-0.0546279,0.0290828,0.216179
0.0984569,0.371232,1.49072,0.0727324,-0.176102,0.00704735,-0.0227237,-0.0160816,0.172409
0.0960208,0.372989,1.49057,0.0736113,-0.064862,-0.0112299,-0.0213796,-0.0482424,0.145046
0.0961542,0.373013,1.49001,-0.0820716,0.0263405,-0.0355778,-0.00630469,-0.0978423,0.153617
0.0955295,0.369667,1.48942,-0.231604,-0.146864,-0.0594429,0.0290097,-0.156411,0.103764
0.0914719,0.364686,1.48813,-0.227956,-0.275282,-0.10646,0.0425621,-0.190035,-0.0177444
0.0863885,0.360726,1.48608,-0.158315,-0.300882,-0.116474,0.104071,-0.239027,-0.0958022
0.0826239,0.357393,1.48354,-0.197927,-0.135203,-0.163241,0.140657,-0.239965,-0.11596
0.0846216,0.350166,1.47919,-0.578137,0.160952,-0.301781,0.130875,-0.208979,-0.0570414
0.0910884,0.33105,1.47238,-1.30595,0.161201,-0.522487,0.0901547,-0.147803,0.00713456
0.0930385,0.298376,1.46281,-1.78468,-0.303452,-0.644144,0.0916054,-0.0662151,-0.165918
0.0844539,0.263579,1.45359,-1.45767,-0.729954,-0.497832,0.148815,0.0865264,-0.537718
0.0740561,0.244563,1.44881,-0.350935,-0.306856,-0.0960898,0.160681,0.237249,-0.83808
0.0746336,0.247875,1.45183,0.566508,0.422743,0.419954,0.124217,0.315352,-0.70819
0.0838838,0.26327,1.46279,0.774766,0.693612,0.699019,-0.0480005,0.316025,-0.305002
0.0925922,0.277549,1.47585,0.501057,0.463036,0.639152,-0.227914,0.263807,0.000838339
0.0950809,0.285022,1.48494,0.17629,0.0330027,0.268545,-0.35452,0.19164,0.115935
0.091735,0.28742,1.48628,0.0921119,-0.292069,-0.0833131,-0.313175,0.177476,0.112036
0.0858833,0.290007,1.4828,0.214225,-0.364443,-0.205133,-0.214306,0.222071,0.0907879
0.082109,0.29577,1.47759,0.395161,-0.0992411,-0.237084,-0.142115,0.22414,0.116411
0.0860152,0.303343,1.47159,0.366155,0.313838,-0.279694,-0.104356,0.190634,0.238962
0.0975613,0.308265,1.46476,0.173972,0.582794,-0.323234,-0.0964465,0.153626,0.363049
0.110494,0.309414,1.45733,0.035196,0.441804,-0.370305,-0.0637881,0.10963,0.420443
0.11931,0.308979,1.44918,0.0237473,0.199284,-0.396962,-0.0261564,0.0852291,0.41331
0.124884,0.308834,1.44115,0.0413361,0.142962,-0.354594,-0.00817726,0.0919725,0.398364
0.130086,0.308278,1.43447,-0.026789,0.167238,-0.284844,-0.010353,0.080075,0.403455
0.134803,0.306155,1.42914,-0.112292,0.141147,-0.263598,-0.0326862,0.0282168,0.382441
0.138673,0.302652,1.42363,-0.164439,0.0748276,-0.304048,-0.0431251,-0.0137759,0.340589
0.141606,0.298161,1.4178,-0.201492,0.0524135,-0.30083,-0.0187109,-0.034042,0.284598
0.143789,0.293211,1.41276,-0.214301,0.0261524,-0.243347,0.00483574,-0.0408062,0.215447
0.144506,0.288828,1.4092,-0.158039,-0.0791164,-0.161911,0.0195998,-0.0728371,0.145853
0.141991,0.286225,1.40671,-0.066581,-0.235244,-0.118926,0.0353859,-0.115983,0.0783396
0.138206,0.284592,1.40483,-0.110371,-0.165331,-0.0839992,0.038429,-0.139522,0.0273152
0.13697,0.27973,1.40406,-0.387863,0.0321815,-0.0576858,0.0435854,-0.171307,0.00142944
0.139013,0.26889,1.40426,-0.676493,0.130325,-0.0788044,0.0219159,-0.18339,-0.0650548
0.140406,0.253959,1.40444,-0.769082,-0.00878486,-0.11455,0.00673994,-0.187177,-0.192555
0.138891,0.238693,1.40401,-0.73819,-0.118261,-0.1255,0.01494,-0.169375,-0.307362
0.136049,0.223814,1.40446,-0.756052,-0.184569,-0.0210608,0.0582591,-0.183369,-0.36165
0.130787,0.208922,1.40696,-0.748901,-0.284134,0.0533287,0.030564,-0.186089,-0.432871
0.124378,0.194971,1.41018,-0.679914,-0.247956,0.0711069,0.0155304,-0.216556,-0.519567
0.121727,0.182694,1.41283,-0.566329,0.0521453,0.0387727,-0.00600211,-0.23545,-0.581673
0.125701,0.174146,1.41464,-0.281721,0.338193,0.045837,0.0101018,-0.216443,-0.585335
0.132278,0.172002,1.41657,0.0277562,0.305136,0.124931,0.0507945,-0.175464,-0.458238
0.135713,0.175077,1.41966,0.224149,0.0881405,0.222207,0.0636858,-0.141474,-0.299045
0.134942,0.182132,1.42435,0.42453,-0.0722749,0.336583,0.0705274,-0.103038,-0.197539
0.131627,0.194611,1.43075,0.744835,-0.111139,0.443374,0.0727837,-0.0645345,-0.120946
0.128902,0.212954,1.43797,0.945324,0.00432856,0.497003,0.0885008,-0.0331437,0.0123165
0.128902,0.212954,1.43797,0.945324,0.00432856,0.497003,0.0885008,-0.0331437,0.0123165
0.128645,0.232726,1.44625,0.887816,0.125222,0.56676,0.104539,-0.00671996,0.153874
0.127615,0.249968,1.45635,0.688016,-0.0319678,0.626869,0.124017,0.0109682,0.236081
0.121233,0.262561,1.46773,0.422156,-0.331022,0.61726,0.126921,0.0122398,0.229194
0.108141,0.269928,1.47917,0.206254,-0.676771,0.563136,0.119855,0.0155937,0.121628
0.0883739,0.274149,1.48967,0.146633,-1.01502,0.488822,0.0993481,0.0821898,-0.0674373
0.0647412,0.27955,1.49866,0.366603,-1.02415,0.417635,0.0751904,0.170713,-0.295762
0.0465794,0.29065,1.50616,0.694529,-0.529774,0.368874,0.0605998,0.238769,-0.419278
0.0405979,0.306789,1.513,0.858015,0.121268,0.359739,0.0470475,0.284696,-0.348884
0.0454778,0.324132,1.51969,0.836027,0.524275,0.349044,0.0256462,0.298466,-0.155149
0.0553073,0.340355,1.52592,0.757566,0.623054,0.308831,-0.00651477,0.285925,0.0161765
0.0652385,0.354967,1.53019,0.677304,0.499905,0.182292,-0.0532239,0.265406,0.161387
0.073044,0.367535,1.53197,0.565799,0.355887,0.0756093,-0.0531973,0.249926,0.266787
0.079322,0.377493,1.53189,0.431017,0.286461,-0.00811047,-0.0548761,0.243637,0.337969
0.085647,0.385,1.53048,0.342649,0.308675,-0.0541745,-0.0390888,0.224161,0.361252
0.0924166,0.391304,1.52861,0.301488,0.277717,-0.0525421,-0.015882,0.220139,0.381146
0.0968776,0.396772,1.5275,0.245101,0.105468,0.0100103,0.0233676,0.189543,0.413106
0.0958289,0.400654,1.52828,0.121215,-0.192081,0.0922924,0.0473017,0.149893,0.427537
0.0890922,0.401467,1.53034,-0.074295,-0.378356,0.0913209,0.0338839,0.0896829,0.405165
0.0802763,0.397688,1.53199,-0.317921,-0.42397,0.0295345,0.0284546,0.0305524,0.348464
0.0717081,0.389597,1.53263,-0.467088,-0.403704,-0.0337771,0.03617,0.00702816,0.235643
0.0644434,0.380585,1.53219,-0.412246,-0.352706,-0.054617,0.0718773,-0.00675553,0.104758
0.0568485,0.372713,1.53214,-0.398597,-0.429303,0.0178096,0.134614,-0.0250474,0.0613997
0.0472505,0.364172,1.53424,-0.478478,-0.442111,0.124721,0.138284,-0.0462295,0.0246086
0.0372312,0.353411,1.53755,-0.623426,-0.441818,0.12942,0.0881706,-0.0725555,-0.0221997
0.0280045,0.339483,1.54046,-0.77357,-0.362084,0.102327,0.0536145,-0.104546,-0.0910579
0.022462,0.323408,1.54285,-0.834164,-0.0958132,0.0755438,0.0345362,-0.143275,-0.173663
0.022119,0.305524,1.54391,-0.98296,0.0462987,-0.0195455,0.0116525,-0.177723,-0.15688
0.0223488,0.283679,1.54289,-1.2067,-0.092686,-0.137654,-0.0359496,-0.181064,-0.154709
0.0192194,0.258275,1.53882,-1.30407,-0.334132,-0.313196,-0.0678055,-0.19019,-0.233298
0.0129746,0.232399,1.53103,-1.28267,-0.45756,-0.472452,-0.0759951,-0.151187,-0.328693
0.00648815,0.206897,1.52116,-1.25541,-0.361297,-0.483816,-0.0442067,-0.0843555,-0.395569
0.00454942,0.183943,1.51266,-0.99513,0.0271576,-0.35417,-0.0279864,-0.0236962,-0.4874
0.0105309,0.169113,1.50731,-0.463373,0.447911,-0.184289,-0.0242964,0.0186494,-0.493416
0.0221145,0.164666,1.50482,-0.0242313,0.644545,-0.076589,-0.046075,0.0250829,-0.325383
0.0348504,0.166473,1.50432,0.174437,0.582901,0.024882,-0.0903765,0.0396833,-0.123692
0.0432862,0.170974,1.50518,0.26979,0.240896,0.069371,-0.139154,0.0488655,0.0149225
0.0434286,0.177027,1.50585,0.325155,-0.207846,-0.00129018,-0.196713,0.0443138,0.066497
0.0369451,0.183306,1.50406,0.296213,-0.412424,-0.152969,-0.221361,0.0546874,0.0623942
0.0304495,0.188128,1.49937,0.202677,-0.302239,-0.283203,-0.209931,0.0889981,0.0554938
0.0282861,0.191415,1.49278,0.159484,-0.0330148,-0.347758,-0.152323,0.0989398,0.0510912
0.0309987,0.194658,1.48565,0.189836,0.133642,-0.332961,-0.0906958,0.108165,0.0980743
0.0349275,0.198804,1.47926,0.247892,0.110256,-0.277306,-0.0471872,0.0970487,0.181122
0.0370396,0.204122,1.47403,0.30051,0.00209671,-0.224365,-0.0291211,0.0857792,0.246573
0.0375187,0.209722,1.46948,0.257658,-0.0483104,-0.21105,-0.0392362,0.0743379,0.311995
0.0374528,0.213632,1.46474,0.148817,-0.0367893,-0.237733,-0.0348838,0.045095,0.350895
0.0380658,0.215022,1.45951,-0.000367752,-0.0341749,-0.266695,-0.02302,0.0325825,0.387641
0.0386777,0.213367,1.45392,-0.137081,-0.0201558,-0.283925,-0.00384033,0.015386,0.376815
0.0388507,0.209223,1.44789,-0.264058,-0.123941,-0.324493,0.000855062,0.00352214,0.362769
0.0363395,0.202722,1.44128,-0.347237,-0.232719,-0.341977,0.0304221,-0.0321989,0.307977
0.0330329,0.195422,1.43459,-0.368183,-0.233437,-0.334824,0.0506555,-0.03313,0.233681
0.0288343,0.187369,1.42865,-0.412342,-0.302304,-0.261034,0.0828499,-0.043721,0.167316
0.024161,0.179717,1.42487,-0.314627,-0.199013,-0.122651,0.111805,-0.0613459,0.0270184
0.0226151,0.175499,1.42379,-0.106014,0.00968675,-0.00741339,0.0956236,-0.0799169,-0.0653101
0.0238189,0.174837,1.42415,0.0149812,0.105577,0.0317141,0.0813439,-0.140841,-0.0573488
0.0238189,0.174837,1.42415,0.0149812,0.105577,0.0317141,0.0813439,-0.140841,-0.0573488
0.026019,0.17499,1.42481,-0.0139309,0.117232,0.0276353,0.0522774,-0.162556,-0.045848
0.0279883,0.174318,1.42492,-0.0506243,0.0775436,-0.0330674,0.0155151,-0.185466,-0.0960612
0.0295597,0.172811,1.42317,-0.108737,0.0609797,-0.135854,0.00518662,-0.195617,-0.150243
0.0323789,0.169711,1.42015,-0.194564,0.212724,-0.16619,0.00835989,-0.16559,-0.218084
0.0404847,0.16536,1.41697,-0.215548,0.551529,-0.152332,0.0243028,-0.158818,-0.283324
0.0536977,0.161467,1.4146,-0.170706,0.664721,-0.103524,0.0576678,-0.183487,-0.267955
0.0652965,0.15724,1.41271,-0.298325,0.392567,-0.114574,0.0471425,-0.200509,-0.202399
0.067517,0.148715,1.41072,-0.525814,-0.217815,-0.137456,0.0609188,-0.239711,-0.248932
0.0591091,0.137833,1.40847,-0.505163,-0.599518,-0.147941,0.0483582,-0.185739,-0.468153
0.0480769,0.131027,1.40686,-0.119337,-0.438106,-0.0302241,0.0437996,-0.0752191,-0.665906
0.0436064,0.134118,1.4082,0.419249,0.0296045,0.186649,0.0562099,0.0275758,-0.659596
0.0493101,0.146896,1.41375,0.791278,0.623482,0.42056,0.0761492,0.0536105,-0.435037
0.0641835,0.164617,1.42322,0.896609,0.930916,0.606303,0.0525572,0.0613816,-0.108507
0.0791341,0.183299,1.43542,0.869148,0.712117,0.714559,0.0588237,0.0351946,0.152046
0.0859977,0.200764,1.44869,0.757787,0.201201,0.720806,0.0710155,-0.00585811,0.281408
0.0810868,0.215392,1.46203,0.578939,-0.418965,0.712763,0.0830747,0.00279267,0.294041
0.064713,0.225898,1.47605,0.365713,-0.881058,0.727337,0.066324,0.0703871,0.20142
0.0407698,0.231614,1.49006,0.141832,-1.1473,0.660903,0.0130643,0.130443,0.0459899
0.0159647,0.233701,1.50263,0.0691193,-0.979941,0.570182,-0.00361284,0.168683,-0.159419
-0.000719498,0.236677,1.5137,0.256294,-0.39048,0.524332,-0.00117731,0.23841,-0.33789
-0.00470556,0.244713,1.52487,0.555266,0.228432,0.568591,-0.00321655,0.304396,-0.350116
0.000312699,0.257197,1.53705,0.660373,0.514373,0.610667,-0.0119448,0.319861,-0.158015
0.00783659,0.269892,1.5498,0.598347,0.540072,0.608299,-0.0767971,0.312602,0.000940502
