attitude_roll,attitude_pitch,attitude_yaw,rotationRate_x,rotationRate_y,rotationRate_z,acceleration_x,acceleration_y,acceleration_z
0.0396569,0.350721,-0.00702732,-0.325199,-0.542829,-0.0589972,-0.217378,0.0382006,0.00102431
0.0259191,0.343096,-0.0127877,-0.163117,-0.476472,-0.237272,-0.199088,0.0779657,-0.025319
0.0179864,0.340788,-0.0167473,-0.0601671,-0.46946,-0.151232,-0.14157,0.0532697,-0.0110909
0.0103766,0.340419,-0.0198887,0.0218726,-0.36424,-0.159927,-0.140671,0.0323074,0.00257689
0.00658014,0.341439,-0.0235317,0.0848633,-0.132848,-0.180105,-0.125844,0.0114026,0.0320667
0.0078934,0.343892,-0.0274077,0.16853,0.139519,-0.183376,-0.107056,-0.00154606,0.0679616
0.0140049,0.347713,-0.0312387,0.203601,0.313266,-0.162468,-0.0943431,0.0142869,0.136061
0.0214654,0.35157,-0.0338998,0.189764,0.331914,-0.0732772,-0.056833,0.0119141,0.21123
0.0274926,0.355395,-0.0348466,0.195659,0.198056,-0.0319346,-0.0334007,0.000487149,0.264136
0.0291125,0.359176,-0.0370073,0.205043,-0.0799179,-0.182563,-0.0464312,-0.0520918,0.25505
0.0303201,0.363962,-0.0425917,0.287154,0.0457567,-0.304161,-0.0484101,-0.062325,0.211957
0.0347472,0.369735,-0.0489401,0.292781,0.136963,-0.244943,-0.021452,-0.019308,0.218466
0.0384311,0.374138,-0.052765,0.13502,0.0934973,-0.0918114,0.0294065,0.00304341,0.237799
0.039656,0.374811,-0.0530921,-0.0511575,0.00551229,0.0569867,0.0603204,-0.0215072,0.201772
0.0379062,0.373406,-0.0503437,-0.0715198,-0.0527972,0.19707,0.0648883,-0.0190154,0.0995956
0.0348943,0.373316,-0.044832,0.0558351,-0.0455127,0.28885,0.0566423,-0.0360672,-0.0158548
0.0326783,0.375791,-0.0391911,0.166502,0.071779,0.22618,0.00689994,-0.0646168,-0.0971345
0.0345599,0.379445,-0.0359201,0.159487,0.212115,0.0913232,-0.00939019,-0.0784325,-0.145323
0.0390618,0.381249,-0.0347979,0.00116396,0.275305,0.0389963,0.0349343,-0.0542355,-0.17381
0.0430234,0.379107,-0.0334518,-0.224773,0.131065,0.0806936,0.0346134,-0.0241811,-0.207759
0.0425747,0.372705,-0.0311933,-0.406958,-0.0713831,0.0836791,0.00345099,-0.0167081,-0.268503
0.0406489,0.364096,-0.030189,-0.441426,-0.0452227,-0.0398496,-0.014048,-0.041539,-0.32484
0.0419687,0.355568,-0.0318233,-0.397741,0.14054,-0.12664,0.00369781,-0.0221624,-0.315253
0.0473849,0.348146,-0.0335235,-0.341697,0.324759,-0.0464551,0.0658719,0.018722,-0.228712
0.0539612,0.341947,-0.0323287,-0.293672,0.347671,0.129604,0.10649,0.038706,-0.11629
0.0581462,0.336485,-0.0276323,-0.283012,0.218732,0.268851,0.10283,0.0292986,-0.0316275
0.0600127,0.33182,-0.0209837,-0.208946,0.220798,0.323496,0.0945096,0.0121965,-0.0102916
0.0628002,0.329421,-0.0132489,-0.0745867,0.317202,0.408803,0.112048,0.0392089,0.0317057
0.0667049,0.329405,-0.00341156,-0.00923157,0.374542,0.514266,0.128624,0.0589074,0.123773
0.0698911,0.329367,0.00826028,-0.0860676,0.295071,0.591927,0.13178,0.0635411,0.209913
0.0686493,0.327625,0.0218279,-0.171649,-0.00193198,0.685862,0.163035,0.0719478,0.229064
0.0607986,0.324227,0.0375593,-0.275105,-0.253271,0.787548,0.167472,0.103808,0.196894
0.0485686,0.318277,0.0553935,-0.404682,-0.393121,0.870404,0.146577,0.116031,0.125017
0.0342553,0.310381,0.07459,-0.451488,-0.434767,0.920286,0.116024,0.129213,0.0239092
0.0200705,0.30207,0.09397,-0.416483,-0.36915,0.894254,0.0702255,0.131985,-0.0892164
0.00947222,0.295162,0.112109,-0.295576,-0.147278,0.842135,0.0573896,0.125352,-0.166182
0.00363159,0.290662,0.129839,-0.178451,0.0644331,0.8673,0.0615995,0.139416,-0.144064
0.00124684,0.287995,0.148504,-0.0857953,0.236202,0.930644,0.062159,0.118747,-0.0679494
0.00164242,0.287522,0.168345,0.0319548,0.336901,0.96835,0.0443234,0.0924457,0.0191746
0.00257742,0.288812,0.188104,0.0665243,0.312089,0.914313,0.0170453,0.0561602,0.12252
0.00233034,0.289406,0.205862,-0.0260392,0.146183,0.784746,0.00351913,0.0186598,0.202765
-0.00125807,0.287772,0.220764,-0.130793,-0.0709396,0.65278,0.0162057,0.00291711,0.221344
-0.00795219,0.284516,0.233282,-0.164672,-0.234852,0.559954,0.018573,0.00929981,0.167607
-0.0153586,0.281936,0.244181,-0.0665075,-0.184541,0.495592,0.0118525,0.00799757,0.0831776
-0.0213464,0.281274,0.254063,0.00418292,-0.143945,0.458556,0.0349256,0.00681245,0.0451548
-0.0263566,0.28094,0.263341,-0.0268091,-0.0896729,0.434565,0.0457824,-0.00513569,0.0266237
-0.0301392,0.279761,0.271748,-0.0618823,-0.0713045,0.35893,0.0283832,-0.0189791,-0.00417399
-0.0338017,0.278304,0.277464,-0.0592563,-0.149117,0.191924,0.00705855,-0.0286348,-0.0684454
-0.0377254,0.277765,0.280075,0.0255947,-0.164811,0.0751427,0.0279853,-0.0304043,-0.144177
-0.0411351,0.279241,0.28118,0.128194,-0.127502,0.0376647,0.0373181,-0.00376245,-0.196851
-0.0428319,0.282626,0.282334,0.213743,-0.00481286,0.0653566,0.0318732,0.0200586,-0.229809
-0.0428319,0.282626,0.282334,0.213743,-0.00481286,0.0653566,0.0318732,0.0200586,-0.229809
-0.0421304,0.287378,0.284345,0.256367,0.119844,0.108186,0.00418153,0.0329198,-0.218161
-0.0397598,0.292113,0.287369,0.22128,0.205747,0.157581,-0.00328586,0.0179106,-0.193083
-0.0356766,0.295381,0.290316,0.105641,0.29428,0.0888148,-0.0584966,-0.00581598,-0.153232
-0.0295589,0.295749,0.290644,-0.0779944,0.304817,-0.0632937,-0.071872,-0.0398119,-0.105556
-0.0237015,0.292017,0.287554,-0.298503,0.182432,-0.215795,-0.061441,-0.0382568,-0.0949262
-0.0197699,0.284598,0.281887,-0.439573,0.0371782,-0.302589,-0.0611352,-0.0111294,-0.128853
-0.0195767,0.275664,0.275242,-0.437343,-0.196474,-0.305206,-0.0426107,0.0211937,-0.178488
-0.0235118,0.268721,0.269528,-0.244871,-0.328035,-0.217647,-0.0163508,0.0479994,-0.246253
-0.0287809,0.26662,0.266408,0.0376132,-0.236828,-0.0780567,-0.0429186,0.087661,-0.277935
-0.0306536,0.269941,0.266247,0.28643,0.0592082,0.0477251,-0.08272,0.114148,-0.232345
-0.0265142,0.277212,0.268305,0.429903,0.411328,0.120868,-0.133284,0.111657,-0.129977
-0.016893,0.286283,0.271226,0.478964,0.592413,0.125814,-0.198609,0.107249,-0.00648934
-0.00675343,0.296064,0.273528,0.506128,0.431309,0.0754001,-0.224528,0.11593,0.0899697
-0.00204956,0.306186,0.273856,0.51358,0.026675,-0.0531956,-0.234786,0.128603,0.135709
-0.0060508,0.31609,0.271379,0.473597,-0.473871,-0.202375,-0.235017,0.150421,0.138795
-0.0161975,0.324591,0.265418,0.371379,-0.671594,-0.375701,-0.246444,0.172269,0.118647
-0.0256448,0.330999,0.255895,0.25975,-0.533861,-0.545134,-0.2514,0.196494,0.0759765
-0.0288161,0.335394,0.242879,0.138006,-0.204755,-0.688443,-0.201111,0.205362,0.0853835
-0.0251493,0.336399,0.227507,-0.0903109,0.0533335,-0.759316,-0.147314,0.195889,0.159792
-0.0175813,0.332347,0.211303,-0.339086,0.132137,-0.753645,-0.125304,0.184493,0.217808
-0.0110587,0.324324,0.195997,-0.462053,0.00791479,-0.686805,-0.103913,0.156742,0.227548
-0.00854715,0.315136,0.181974,-0.458015,-0.207698,-0.653123,-0.102378,0.115717,0.199102
-0.010016,0.306694,0.16825,-0.398432,-0.323265,-0.652217,-0.100345,0.0721417,0.137234
-0.0121769,0.299129,0.154295,-0.392342,-0.299898,-0.681282,-0.0996159,0.0378674,0.0963918
-0.0129797,0.290959,0.139719,-0.449492,-0.19509,-0.705761,-0.066805,0.00607869,0.0850096
-0.0115594,0.281214,0.124829,-0.549749,-0.0860086,-0.713342,-0.0578799,-0.0136762,0.0711896
-0.00861974,0.269504,0.110106,-0.621314,-0.0185377,-0.696702,-0.0448379,-0.0451785,0.0363313
-0.00480098,0.257626,0.0957411,-0.554643,0.0189847,-0.690107,-0.0485649,-0.0836234,-0.0308316
-0.000658922,0.248431,0.081551,-0.353012,0.0435383,-0.678551,-0.044863,-0.100919,-0.0722198
0.00365063,0.244194,0.0681826,-0.058878,0.0605151,-0.605364,-0.0155815,-0.105852,-0.0838884
0.00768198,0.24583,0.056917,0.215283,0.0766329,-0.481287,0.0240737,-0.0932319,-0.0602749
0.0124959,0.251759,0.04809,0.359093,0.200937,-0.38401,0.0060716,-0.101051,-0.0176687
0.0193338,0.259033,0.0403304,0.366825,0.268482,-0.376071,-0.0331377,-0.111042,0.040951
0.0263079,0.265409,0.0318043,0.28787,0.193702,-0.443514,-0.0524986,-0.131968,0.07778
0.03194,0.270086,0.0211069,0.216093,0.0934395,-0.587236,-0.0871886,-0.146622,0.0447078
0.0369911,0.273617,0.00724023,0.197868,0.0539303,-0.73173,-0.0749441,-0.132922,-0.0204637
0.0437724,0.277357,-0.00924554,0.246088,0.209973,-0.828124,-0.056643,-0.109791,-0.089981
0.0552603,0.281804,-0.0269958,0.264543,0.448745,-0.839498,-0.0174853,-0.0722221,-0.0881979
0.070219,0.285395,-0.0439766,0.190995,0.545149,-0.762176,0.0277695,-0.0583832,-0.0321026
0.0848828,0.287343,-0.0592478,0.120437,0.47688,-0.695176,0.0393921,-0.0565298,-0.0127143
0.0969675,0.287753,-0.0735677,0.0471952,0.325499,-0.67404,0.0513759,-0.0681153,-0.0283933
0.10584,0.286475,-0.0876207,-0.0432029,0.153938,-0.693738,0.0473142,-0.0733537,-0.0669044
0.110938,0.282929,-0.102366,-0.158462,-0.0401023,-0.755292,0.0390612,-0.0437069,-0.129767
0.113394,0.276959,-0.117351,-0.25815,-0.096346,-0.732957,0.0647752,-0.00720763,-0.205633
0.116254,0.270688,-0.130483,-0.181529,0.060791,-0.578411,0.116212,0.0371548,-0.280802
0.123068,0.268966,-0.139181,0.130301,0.413637,-0.262572,0.141864,0.0762202,-0.298479
0.135196,0.274803,-0.141845,0.471288,0.716752,0.0684697,0.105777,0.101008,-0.190606
0.14958,0.286717,-0.139709,0.645455,0.756044,0.27376,0.0508474,0.083205,0.00179648
0.162013,0.300268,-0.135122,0.597749,0.633709,0.341581,-0.0177816,0.0602106,0.156813
0.170883,0.311615,-0.13002,0.433024,0.380854,0.326436,-0.0630928,0.0410019,0.233371
0.173017,0.318535,-0.125218,0.165861,-0.0241937,0.225028,-0.0898099,0.0381971,0.256103
0.173017,0.318535,-0.125218,0.165861,-0.0241937,0.225028,-0.0898099,0.0381971,0.256103
0.166917,0.31949,-0.122569,-0.118728,-0.503751,0.025173,-0.141027,0.040752,0.187635
0.153277,0.314198,-0.12385,-0.365958,-0.871616,-0.234192,-0.195252,0.0761895,0.0485981
0.136484,0.3055,-0.129596,-0.372246,-0.924871,-0.41416,-0.157974,0.114369,-0.12405
0.123357,0.298512,-0.138112,-0.217701,-0.594846,-0.455305,-0.0793183,0.180054,-0.215642
0.119207,0.294298,-0.145671,-0.135412,-0.0196357,-0.273594,0.00748065,0.234664,-0.188595
0.124249,0.291101,-0.147264,-0.177326,0.423999,0.0886837,0.0449348,0.25736,-0.0771968
0.132071,0.288265,-0.141483,-0.148361,0.473568,0.400488,0.00718424,0.207797,0.0183977
0.13633,0.288395,-0.131482,0.0515989,0.210643,0.523698,-0.0702058,0.13622,0.0629656
0.134376,0.292629,-0.12164,0.21164,-0.116604,0.4466,-0.170574,0.0827212,0.111989
0.127547,0.297296,-0.11508,0.14025,-0.357401,0.22659,-0.226236,0.0324076,0.154923
0.118144,0.298656,-0.113073,-0.0208082,-0.515171,-0.0150571,-0.222729,-0.00100625,0.144398
0.108708,0.29654,-0.115724,-0.167821,-0.462805,-0.257149,-0.199065,-0.00229731,0.0909364
0.104115,0.290856,-0.122541,-0.326096,-0.171108,-0.442555,-0.166609,0.00486609,0.0394964
0.106126,0.282554,-0.132134,-0.387345,0.055095,-0.557679,-0.119778,0.000565499,0.0165737
0.110353,0.273618,-0.14354,-0.372685,0.0377726,-0.62458,-0.0655046,-0.016389,0.0307499
0.113606,0.265691,-0.155783,-0.27167,-0.0427032,-0.62974,-0.027124,-0.0328642,0.0222135
0.114675,0.260585,-0.167636,-0.0976735,-0.162486,-0.564965,-0.0132404,-0.0270226,0.0160304
0.113098,0.259129,-0.178446,0.0528575,-0.262171,-0.493688,-0.0115088,-0.0322594,0.0241894
0.109638,0.259298,-0.188122,0.0466141,-0.318679,-0.447124,-0.0170457,-0.0522532,0.0524265
0.105687,0.258496,-0.197542,-0.0247676,-0.310786,-0.481442,-0.0462298,-0.0902134,0.0345623
0.10244,0.256698,-0.208318,-0.0372312,-0.292485,-0.586287,-0.0667298,-0.114871,-0.00800604
0.100116,0.254806,-0.22153,-0.0225258,-0.262039,-0.705344,-0.0728415,-0.125445,-0.0527127
0.0996127,0.252738,-0.237036,-0.0503321,-0.18524,-0.806436,-0.0544644,-0.123571,-0.0692527
0.10049,0.249058,-0.254136,-0.165568,-0.15262,-0.885381,-0.036541,-0.116866,-0.0999378
0.100949,0.242195,-0.272804,-0.330068,-0.300221,-0.996485,-0.0497868,-0.105289,-0.14094
0.0970806,0.232331,-0.293893,-0.430305,-0.578582,-1.14565,-0.0446566,-0.0866788,-0.231004
0.0887345,0.221837,-0.317116,-0.383041,-0.735044,-1.18583,-0.00516291,-0.0371955,-0.351738
0.0801169,0.214036,-0.339306,-0.205859,-0.570353,-1.0099,0.041607,0.0465271,-0.419233
0.0747704,0.210389,-0.356146,-0.0382941,-0.298067,-0.649113,0.0610865,0.115822,-0.381228
0.0726796,0.21018,-0.36556,0.0825425,-0.13505,-0.295277,0.0223509,0.121173,-0.285224
0.0711679,0.213103,-0.369534,0.253426,-0.0988602,-0.0986516,-0.0534623,0.074607,-0.188043
0.0698696,0.220364,-0.371309,0.489919,-0.0634973,-0.035449,-0.133325,0.0469384,-0.0844242
0.0696017,0.23208,-0.372889,0.678254,0.0105258,-0.0537757,-0.195229,0.0366579,0.0418482
0.0708902,0.246105,-0.376193,0.720528,0.021224,-0.182127,-0.234575,0.042609,0.182231
0.0715488,0.259189,-0.382501,0.614252,-0.138216,-0.342434,-0.240258,0.065089,0.283827
0.0682848,0.26904,-0.391952,0.433383,-0.450135,-0.507303,-0.231366,0.0902843,0.314319
0.0585237,0.275166,-0.404441,0.264537,-0.820271,-0.661596,-0.197129,0.114999,0.267388
0.0444607,0.278364,-0.420198,0.135743,-0.992399,-0.858226,-0.207347,0.144335,0.159744
0.0309598,0.279449,-0.440794,0.0424549,-0.892649,-1.13457,-0.205551,0.158227,0.0564348
0.0218497,0.277783,-0.467304,-0.164808,-0.758219,-1.41943,-0.155288,0.162026,0.0214339
0.0166644,0.271337,-0.498561,-0.4114,-0.603229,-1.57847,-0.0614336,0.171173,-0.0119707
0.0148825,0.261324,-0.530661,-0.514818,-0.412273,-1.51462,0.0299654,0.185957,-0.0772864
0.0161514,0.251172,-0.559361,-0.432039,-0.179195,-1.26719,0.08482,0.189869,-0.120143
0.0204164,0.243917,-0.582297,-0.257743,0.0328243,-0.987883,0.0828046,0.14391,-0.110522
0.026762,0.239981,-0.600414,-0.100626,0.152864,-0.806864,0.0240721,0.0765057,-0.0467055
0.0339697,0.23882,-0.616649,0.0166524,0.175708,-0.798307,-0.0468847,-0.00439505,0.0264161
0.0406835,0.238672,-0.633622,0.0057669,0.0756316,-0.859736,-0.0774832,-0.0490341,0.114404
0.0448874,0.236828,-0.651776,-0.114297,-0.0603841,-0.902575,-0.0734965,-0.0698992,0.164071
0.0472604,0.232811,-0.670022,-0.197473,-0.110178,-0.894611,-0.0716793,-0.0800469,0.153545
0.0494136,0.227826,-0.687943,-0.20241,-0.0716331,-0.88412,-0.089499,-0.0857245,0.121713
0.0494136,0.227826,-0.687943,-0.20241,-0.0716331,-0.88412,-0.089499,-0.0857245,0.121713
0.0526753,0.223489,-0.705923,-0.141989,-0.0060047,-0.901305,-0.0945544,-0.106614,0.101097
0.0568366,0.220023,-0.724505,-0.111174,0.00764422,-0.930018,-0.0914015,-0.119058,0.113782
0.0611823,0.217111,-0.7432,-0.0704891,0.0225468,-0.913185,-0.0569774,-0.125426,0.11346
0.0656087,0.21474,-0.761262,-0.0594897,0.0454803,-0.855683,-0.0390009,-0.110667,0.121948
0.0708694,0.212545,-0.777386,-0.0515848,0.154537,-0.732368,-0.00844092,-0.110386,0.114951
0.0781287,0.210537,-0.79096,-0.0620283,0.28593,-0.624923,-0.00668474,-0.115478,0.120138
0.0874758,0.207566,-0.803253,-0.142419,0.393537,-0.61261,-0.0270174,-0.148627,0.126604
0.0978226,0.203157,-0.815298,-0.171176,0.365245,-0.601843,-0.0154579,-0.172063,0.107793
0.105615,0.199419,-0.826711,-0.0699195,0.171356,-0.545996,0.0252867,-0.172887,0.0630076
0.108722,0.198176,-0.837018,0.0425687,-0.06221,-0.479217,0.0436095,-0.165149,0.0182786
0.107643,0.198036,-0.846272,0.00759781,-0.20452,-0.438905,0.0458486,-0.162738,-0.0225039
0.105368,0.195779,-0.855102,-0.14496,-0.164493,-0.459162,0.0274205,-0.168735,-0.0898666
0.105969,0.190913,-0.864511,-0.211863,0.0652803,-0.507635,0.0214408,-0.175128,-0.196482
0.111489,0.186573,-0.874216,-0.100965,0.284852,-0.467149,0.0488757,-0.153298,-0.25635
0.119026,0.185178,-0.881896,0.0461136,0.295541,-0.282524,0.0658869,-0.109214,-0.227817
0.124423,0.187371,-0.885674,0.226103,0.177218,-0.0686834,0.06528,-0.101489,-0.190946
0.126845,0.193863,-0.886147,0.418009,0.0686563,0.0930515,0.0512649,-0.107154,-0.149205
0.127165,0.203583,-0.884419,0.49825,0.00919095,0.183931,0.0240201,-0.107848,-0.0823772
0.126189,0.213306,-0.881564,0.40008,-0.042656,0.203603,-4.70206e-05,-0.103982,-0.0156641
0.123799,0.219467,-0.878493,0.164137,-0.11756,0.163922,-0.0218276,-0.0940888,0.00614154
0.121298,0.221207,-0.87592,-0.0142609,-0.0521799,0.10641,-0.0357315,-0.0786124,-0.070323
0.12029,0.220381,-0.87388,-0.0746006,-0.000196787,0.0837367,-0.0428947,-0.0466422,-0.149996
0.119845,0.220455,-0.871578,0.0664137,0.0112502,0.142546,-0.018841,-0.021256,-0.218457
0.117795,0.224941,-0.867728,0.318694,-0.120729,0.283312,0.0113537,0.0166892,-0.218792
0.112856,0.234018,-0.861459,0.48904,-0.214624,0.422859,-0.00120971,0.0397491,-0.177275
0.106366,0.245744,-0.853047,0.584359,-0.22135,0.50601,-0.0329689,0.0411605,-0.126895
0.100016,0.259021,-0.843996,0.643418,-0.172921,0.501424,-0.0596074,0.0491645,-0.0568206
0.0955712,0.272852,-0.835281,0.641124,-0.0266511,0.471815,-0.0607219,0.0675751,0.0204096
0.0947787,0.285582,-0.827062,0.531843,0.180704,0.438295,-0.0617969,0.0939106,0.121116
0.0970992,0.294888,-0.819192,0.309494,0.247978,0.399029,-0.0599861,0.115309,0.230785
0.0982999,0.299327,-0.811749,0.0694932,0.0599534,0.347256,-0.0327427,0.107896,0.299464
0.0934566,0.299945,-0.80492,-0.0596977,-0.334698,0.302974,0.0132629,0.0928312,0.280514
0.0817101,0.298491,-0.798452,-0.144326,-0.609093,0.313987,0.0467152,0.112621,0.208986
0.0665343,0.295089,-0.791082,-0.253914,-0.656382,0.371026,0.0926996,0.119347,0.126809
0.0523692,0.289546,-0.782606,-0.352183,-0.496649,0.400141,0.102849,0.109156,0.0471019
0.0423026,0.282087,-0.773971,-0.42408,-0.269258,0.397828,0.107071,0.0926916,0.00101447
0.0361792,0.274012,-0.765407,-0.407145,-0.119932,0.392639,0.133086,0.0602839,-0.0129583
0.0323687,0.266716,-0.757025,-0.347301,-0.0395693,0.40439,0.141785,0.047958,0.00673896
0.0297884,0.260834,-0.747665,-0.269029,0.0183256,0.495149,0.160905,0.0486582,0.0413538
0.027284,0.256426,-0.73622,-0.209049,0.0242543,0.593867,0.149728,0.0400627,0.0789575
0.0245,0.253236,-0.723391,-0.14726,0.0208387,0.622733,0.119106,0.00207958,0.122372
0.0212203,0.250609,-0.711025,-0.165748,-0.0554003,0.559652,0.0664193,-0.0204841,0.169288
0.0171516,0.246735,-0.700926,-0.247203,-0.0926125,0.407742,0.0284889,-0.0662005,0.196074
0.0132735,0.240961,-0.694272,-0.339128,-0.135071,0.243999,0.0131724,-0.072338,0.197342
0.00935356,0.233803,-0.68991,-0.374285,-0.156018,0.189763,0.0380355,-0.0514328,0.156344
0.00562331,0.226837,-0.685914,-0.311874,-0.125434,0.207445,0.0736376,-0.042788,0.0995198
0.00246236,0.222089,-0.68073,-0.158272,-0.062072,0.304302,0.0989012,-0.0403062,0.0442688
0.000540664,0.220155,-0.673535,-0.0575637,0.0211755,0.389411,0.0846317,-0.052585,0.0385009
-0.000354822,0.219242,-0.665416,-0.0475634,0.0488411,0.395829,0.0588943,-0.0936981,0.0512274
-0.00163786,0.217604,-0.657934,-0.129267,-0.017141,0.330473,0.0384797,-0.125342,0.0455539
-0.00380843,0.213664,-0.651988,-0.259642,-0.0798645,0.255406,0.0266558,-0.142786,-0.0102802
-0.00380843,0.213664,-0.651988,-0.259642,-0.0798645,0.255406,0.0266558,-0.142786,-0.0102802
-0.00702172,0.207509,-0.647799,-0.357139,-0.150771,0.146411,-0.0068619,-0.152238,-0.103203
-0.0110825,0.199803,-0.64627,-0.396213,-0.223534,0.0194375,-0.0129266,-0.16395,-0.197445
-0.0158613,0.192613,-0.646566,-0.319862,-0.231794,-0.0233363,0.0307498,-0.159116,-0.285599
-0.0192492,0.18675,-0.64683,-0.284274,-0.0953874,0.0195024,0.0511704,-0.147417,-0.311804
-0.0196705,0.180852,-0.646338,-0.31698,0.0522722,0.030051,0.037598,-0.150638,-0.302159
-0.0184867,0.174249,-0.646109,-0.335268,0.0518821,0.00942546,0.0335866,-0.161531,-0.286841
-0.0180193,0.168179,-0.645754,-0.26938,0.00857315,0.0435185,0.0594969,-0.160432,-0.297731
-0.0187269,0.1642,-0.644137,-0.12969,-0.0356955,0.124447,0.0506242,-0.127873,-0.31178
-0.0208741,0.163025,-0.64086,-0.0033122,-0.1492,0.196344,0.0387385,-0.0961338,-0.290909
-0.0265726,0.163128,-0.636516,0.0142735,-0.340901,0.22424,0.0329917,-0.070917,-0.271177
-0.0340259,0.164344,-0.631598,0.165716,-0.259615,0.266762,0.0203468,-0.038986,-0.334266
-0.0365221,0.171126,-0.624809,0.562961,0.15883,0.393566,0.0168461,0.0362895,-0.355901
-0.0307106,0.186082,-0.614301,0.949172,0.580705,0.595127,0.00676865,0.111066,-0.200573
-0.0206508,0.206865,-0.599776,1.1388,0.644704,0.765015,-0.0339139,0.14451,0.038972
-0.0141498,0.229495,-0.582948,1.13466,0.332196,0.832278,-0.0874637,0.158517,0.227575
-0.0162956,0.250675,-0.56589,0.997351,-0.152126,0.773725,-0.14077,0.165859,0.316914
-0.0276575,0.268326,-0.551223,0.805144,-0.592697,0.592292,-0.184334,0.155056,0.298152
-0.045255,0.282635,-0.541539,0.67596,-0.861103,0.273154,-0.198117,0.134157,0.206136
-0.063166,0.295161,-0.539049,0.576763,-0.805355,-0.0918849,-0.171387,0.147339,0.115492
-0.0745481,0.304957,-0.543005,0.354361,-0.41158,-0.328184,-0.103472,0.198934,0.089196
-0.0751767,0.309899,-0.550649,0.0876484,0.12529,-0.421714,-0.0271352,0.224381,0.100614
-0.0665699,0.310265,-0.559516,-0.104901,0.410573,-0.422774,0.0302025,0.225309,0.161645
-0.055956,0.307654,-0.568087,-0.19586,0.381747,-0.382121,0.0569934,0.199674,0.227525
-0.0472871,0.303801,-0.576053,-0.232913,0.247899,-0.362035,0.057907,0.165559,0.266174
-0.0412313,0.299024,-0.583448,-0.280404,0.154983,-0.329976,0.0511092,0.129137,0.281823
-0.0362202,0.292861,-0.590715,-0.369257,0.150693,-0.348649,0.0409417,0.0804561,0.279594
-0.0305588,0.284913,-0.59853,-0.447768,0.192712,-0.373247,0.051356,0.0317453,0.254145
-0.0240969,0.275971,-0.606291,-0.46826,0.23956,-0.331783,0.0810136,0.00948104,0.214018
-0.0169382,0.266875,-0.611879,-0.44329,0.340625,-0.174363,0.112041,-0.0119008,0.163207
-0.00863005,0.258577,-0.61375,-0.390939,0.431204,-0.00623804,0.110119,-0.0534077,0.125288
-0.000265399,0.25113,-0.613069,-0.361174,0.387868,0.0645609,0.0830818,-0.114904,0.109776
0.0053194,0.244632,-0.611438,-0.280492,0.207259,0.0948098,0.0797542,-0.166019,0.0492991
0.00590694,0.239859,-0.609126,-0.211201,-0.120847,0.129554,0.0778346,-0.179945,-0.0211992
-0.00058881,0.236319,-0.60598,-0.142504,-0.423141,0.169949,0.0835802,-0.190481,-0.142082
-0.0101739,0.234006,-0.602901,-0.0960075,-0.406449,0.11801,0.0442134,-0.189022,-0.30207
-0.0155264,0.232008,-0.601209,-0.101715,-0.0450841,0.054457,0.0250128,-0.177294,-0.419321
-0.0105174,0.230447,-0.600394,-0.0428887,0.596069,0.039344,0.0489202,-0.160793,-0.470047
0.00634932,0.230389,-0.598947,0.0291562,1.06136,0.115526,0.0850508,-0.131568,-0.372496
0.0269176,0.231834,-0.595104,0.105457,1.01537,0.264525,0.118489,-0.117894,-0.218253
0.042138,0.235371,-0.588071,0.217716,0.662171,0.43274,0.154196,-0.119244,-0.124566
0.0498825,0.241189,-0.578,0.307195,0.40677,0.566003,0.14137,-0.0943794,-0.089403
0.0550056,0.248377,-0.565758,0.335624,0.426001,0.651343,0.107461,-0.0686529,-0.0684997
0.0605528,0.255372,-0.552506,0.269838,0.453689,0.6678,0.0892739,-0.0481608,0.000189424
0.0658017,0.260255,-0.539038,0.129391,0.41233,0.668589,0.0956703,-0.0347717,0.0582882
0.0697591,0.262765,-0.525004,0.0453542,0.357318,0.718993,0.112255,0.0044108,0.0623717
0.0730873,0.26545,-0.50901,0.125568,0.419222,0.854709,0.126114,0.0571127,0.0428122
0.0772689,0.270188,-0.490011,0.187248,0.483639,1.01795,0.140895,0.102591,0.095855
0.0801244,0.275293,-0.467674,0.135265,0.388263,1.16433,0.155061,0.10653,0.17366
0.0787982,0.278742,-0.442787,-0.0130877,0.142761,1.24902,0.145513,0.108322,0.225616
0.0716827,0.278549,-0.41602,-0.205615,-0.102749,1.31936,0.143053,0.107374,0.196703
0.0716827,0.278549,-0.41602,-0.205615,-0.102749,1.31936,0.143053,0.107374,0.196703
0.059365,0.274497,-0.387912,-0.374264,-0.366255,1.34716,0.135549,0.102926,0.103795
0.0421129,0.26772,-0.359699,-0.416873,-0.580514,1.34504,0.137714,0.099342,-0.0387064
0.0230113,0.261467,-0.331236,-0.276286,-0.531102,1.39378,0.148091,0.117675,-0.200168
0.00832061,0.258637,-0.301728,-0.051283,-0.145568,1.47224,0.149137,0.143489,-0.281646
0.00180914,0.259871,-0.2701,0.146377,0.277789,1.59611,0.160529,0.150373,-0.228113
0.000814644,0.264199,-0.236059,0.262945,0.469353,1.69581,0.135322,0.140851,-0.0652922
0.000706143,0.270075,-0.200595,0.321348,0.435589,1.72597,0.0866608,0.122165,0.0891322
-0.00137795,0.277125,-0.165128,0.372676,0.296349,1.68737,0.0514505,0.0959024,0.19622
-0.0068374,0.284266,-0.131272,0.338248,0.0960661,1.56328,0.0163896,0.0756494,0.281241
-0.0154792,0.289543,-0.100674,0.21481,-0.0902952,1.36774,0.00580107,0.0453871,0.309975
-0.0262493,0.291939,-0.0743399,0.0840627,-0.218469,1.16402,0.0433547,0.0290056,0.277746
-0.0377696,0.292083,-0.0518597,0.0096641,-0.280841,0.997595,0.0727213,0.0326223,0.201073
-0.0491197,0.291454,-0.0322965,0.0278906,-0.281826,0.903322,0.108171,0.0509865,0.102561
-0.0591976,0.292141,-0.013592,0.144217,-0.180095,0.892615,0.139267,0.0552147,0.0138745
-0.0669068,0.294422,0.00461689,0.169416,-0.0684546,0.823546,0.118591,0.0413313,-0.0198873
-0.0725414,0.29561,0.0206086,0.0459766,-0.0395032,0.695022,0.108305,0.00477836,-0.0277332
-0.0764678,0.294184,0.0332349,-0.0953213,0.0182581,0.513896,0.0800084,-0.0246621,-0.0830042
-0.0776429,0.290891,0.0412539,-0.158432,0.118612,0.282723,0.0457113,-0.044615,-0.168707
-0.0745527,0.287295,0.0446583,-0.181038,0.276311,0.0868787,0.0304153,-0.0405546,-0.223643
-0.0683498,0.283008,0.0451087,-0.252136,0.343774,0.00679363,0.0422033,-0.0290895,-0.219344
-0.0610505,0.276822,0.0443886,-0.376393,0.367037,-0.0329192,0.0256087,-0.0351866,-0.221931
-0.0528313,0.268244,0.0424918,-0.479213,0.414859,-0.10395,-0.0173649,-0.0528479,-0.252806
-0.0430471,0.258762,0.0390029,-0.474029,0.450962,-0.185453,-0.0207616,-0.0810606,-0.280801
-0.0334291,0.250283,0.0344409,-0.383744,0.40207,-0.206801,-0.0082527,-0.0698574,-0.281577
-0.0248864,0.243882,0.0307528,-0.274161,0.353847,-0.119632,0.00299875,-0.036956,-0.2603
-0.0183575,0.23919,0.0294091,-0.202672,0.263949,-0.00302419,-0.0137519,-0.0148394,-0.232567
-0.0143728,0.236121,0.0305999,-0.0882009,0.172477,0.123364,-0.0158574,0.00183173,-0.225907
-0.0114746,0.236197,0.0342043,0.111458,0.229763,0.222798,-0.0489943,0.0330639,-0.228589
-0.00646843,0.240692,0.0400607,0.343904,0.418142,0.348774,-0.0737657,0.074175,-0.176781
0.000676458,0.249492,0.0488057,0.524359,0.471138,0.491864,-0.112609,0.110941,-0.058535
0.00585284,0.260958,0.0599767,0.60564,0.300243,0.578215,-0.162988,0.122005,0.063432
0.00557558,0.27323,0.0717169,0.603248,-0.0349959,0.540625,-0.235639,0.110709,0.141616
-0.00116876,0.284847,0.0811433,0.55889,-0.37139,0.354009,-0.306663,0.113912,0.153369
-0.0127342,0.296044,0.085969,0.577177,-0.626458,0.100154,-0.314389,0.116216,0.117996
-0.025684,0.30786,0.085375,0.584258,-0.645069,-0.182451,-0.278963,0.136287,0.0894039
-0.0344726,0.318118,0.079465,0.396188,-0.376353,-0.408295,-0.22529,0.175374,0.118314
-0.0346508,0.323148,0.0690701,0.0606069,0.0252555,-0.593227,-0.167329,0.193942,0.170892
-0.0274218,0.321723,0.055543,-0.208403,0.212477,-0.662322,-0.108693,0.199487,0.223329
-0.019728,0.317422,0.0418884,-0.203992,0.0941394,-0.626589,-0.0732388,0.195526,0.224852
-0.0163827,0.314818,0.0289661,-0.0809961,-0.167559,-0.600837,-0.0545526,0.178998,0.236095
-0.0180637,0.313677,0.0164261,-0.0792598,-0.356856,-0.600638,-0.0483857,0.152216,0.259034
-0.0217001,0.311216,0.0034499,-0.20336,-0.379653,-0.637308,-0.0313459,0.12479,0.25905
-0.0237777,0.30568,-0.010396,-0.381713,-0.22861,-0.674809,-0.0184034,0.100869,0.237186
-0.0221306,0.297105,-0.0251142,-0.494805,-0.0451464,-0.717448,-0.00615398,0.0591873,0.200339
-0.0171586,0.287223,-0.040888,-0.524883,0.0687401,-0.778648,0.00858138,0.0239824,0.18898
-0.0108673,0.276644,-0.0573662,-0.55584,0.088899,-0.781619,0.0284897,0.00941116,0.188697
-0.00612239,0.266124,-0.0728255,-0.483327,-0.0479785,-0.694957,0.0603807,-0.00472182,0.161358
-0.00591136,0.258456,-0.0856818,-0.281991,-0.256571,-0.536062,0.100228,-0.0138058,0.118884
-0.00962587,0.254765,-0.0947951,-0.11128,-0.311269,-0.349083,0.126274,-0.0330319,0.083843
-0.0136656,0.252905,-0.100498,-0.113188,-0.222878,-0.216316,0.105165,-0.0634724,0.0790763
-0.0159467,0.249412,-0.104637,-0.260838,-0.122561,-0.207759,0.0645707,-0.114982,0.0759292
-0.0169115,0.242667,-0.110306,-0.415877,-0.138965,-0.351215,0.0223661,-0.1729,0.0145376
-0.0187336,0.23373,-0.119913,-0.473411,-0.289559,-0.568603,0.00651963,-0.20165,-0.106234
-0.0232567,0.224805,-0.133568,-0.440878,-0.463755,-0.727186,0.0265605,-0.178893,-0.241139
-0.0287695,0.217384,-0.148663,-0.333249,-0.347732,-0.698801,0.102323,-0.13288,-0.388411
-0.0281242,0.212381,-0.161797,-0.219468,0.166451,-0.578298,0.108269,-0.0848659,-0.47125
-0.0173992,0.208402,-0.172919,-0.232742,0.626883,-0.517546,0.0924613,-0.0849731,-0.411724
-0.00163671,0.202722,-0.183358,-0.346019,0.675402,-0.501526,0.0963145,-0.115543,-0.296038
0.0118254,0.195304,-0.19315,-0.363903,0.469596,-0.456078,0.101269,-0.117794,-0.259299
0.0213042,0.189504,-0.201215,-0.188814,0.365851,-0.339582,0.118025,-0.0946172,-0.278623
0.0303147,0.187519,-0.206429,-0.0124042,0.462501,-0.17433,0.119284,-0.0570318,-0.240592
0.0413373,0.187975,-0.208042,0.0478585,0.599074,0.0158613,0.131293,-0.0355425,-0.143561
0.0538436,0.189362,-0.206009,0.0854216,0.693362,0.187898,0.128297,-0.02533,-0.0547754
0.0671817,0.192229,-0.200647,0.17577,0.730251,0.359979,0.125389,-0.0071492,0.0205042
0.0793248,0.197267,-0.191768,0.249702,0.63964,0.552162,0.12658,0.0191562,0.106825
0.087574,0.202959,-0.17903,0.182264,0.420525,0.744323,0.135799,0.0418393,0.194913
0.0890534,0.206007,-0.162132,-0.0364882,0.0580991,0.932827,0.138271,0.0520257,0.236375
0.0815551,0.20463,-0.141523,-0.25728,-0.405274,1.05272,0.104134,0.0483279,0.172827
0.0642842,0.200302,-0.119649,-0.298831,-0.874936,1.04283,0.0565208,0.031515,-0.00607216
0.0398297,0.197041,-0.098656,-0.10967,-1.11176,1.01074,0.0652604,0.0307295,-0.208101
0.0151586,0.198151,-0.0777893,0.160802,-0.878516,1.05658,0.0765234,0.0882903,-0.351956
-0.000979466,0.203502,-0.0553126,0.342607,-0.259638,1.16162,0.0674723,0.129667,-0.367285
-0.00548096,0.211148,-0.0305402,0.429521,0.273012,1.25606,0.0381961,0.142169,-0.253761
-0.00259382,0.220649,-0.0047731,0.54269,0.552634,1.25182,-0.0178396,0.129522,-0.0993208
0.00391097,0.232785,0.0203066,0.666114,0.624595,1.19511,-0.0680602,0.138525,0.0739114
0.0097039,0.246986,0.0441941,0.734309,0.505209,1.14262,-0.0819953,0.151602,0.237674
0.0097039,0.246986,0.0441941,0.734309,0.505209,1.14262,-0.0819953,0.151602,0.237674
0.0127076,0.261955,0.0667761,0.735655,0.371768,1.06403,-0.0804806,0.1564,0.361941
0.0121026,0.276368,0.0883038,0.654786,0.135829,1.03417,-0.0658728,0.165304,0.447029
0.00675689,0.287896,0.108992,0.479811,-0.11207,0.967785,-0.0512938,0.162414,0.489522
-0.00397011,0.295286,0.127911,0.260438,-0.408714,0.833773,-0.0502636,0.146376,0.464066
-0.0181067,0.298451,0.143045,0.0821108,-0.524835,0.597478,-0.0451642,0.112598,0.363992
-0.0311141,0.298707,0.152044,-0.0278218,-0.511343,0.266502,-0.0239032,0.0827977,0.243738
-0.0423004,0.296863,0.154802,-0.163775,-0.530868,0.0345291,0.0664391,0.0870926,0.158117
-0.0526462,0.291828,0.154618,-0.327805,-0.508923,0.00181769,0.129834,0.111067,0.0624872
-0.0634864,0.285061,0.154985,-0.30798,-0.585979,0.0708251,0.134721,0.116543,-0.0844794
-0.0760311,0.280797,0.156073,-0.110618,-0.609724,0.0331455,0.0806581,0.0814433,-0.229975
-0.0862479,0.279472,0.154945,-0.0755753,-0.408826,-0.144001,0.0202225,0.043121,-0.275038
-0.0898095,0.276928,0.149347,-0.239888,-0.0981353,-0.374111,-0.00380093,0.00126112,-0.265762
-0.085476,0.271247,0.138836,-0.412613,0.249966,-0.578465,0.0103054,-0.0310473,-0.259471
-0.0738879,0.262371,0.125043,-0.575366,0.517632,-0.655032,0.0159202,-0.027784,-0.223472
-0.0591347,0.251198,0.111229,-0.598144,0.578929,-0.598843,0.0168402,-0.0379958,-0.195889
-0.0451922,0.241046,0.0987441,-0.480687,0.49662,-0.575645,-0.0150892,-0.0621082,-0.171703
-0.0337287,0.232228,0.0861383,-0.476012,0.338531,-0.621148,-0.0634659,-0.0708634,-0.121529
-0.0260148,0.221811,0.0725712,-0.621215,0.113333,-0.671616,-0.0948494,-0.0654953,-0.0808902
-0.0230295,0.208062,0.058074,-0.763046,-0.121765,-0.710039,-0.0852268,-0.0713443,-0.0985476
-0.0239397,0.193285,0.0434832,-0.716101,-0.239774,-0.676697,-0.0394509,-0.0709477,-0.179089
-0.026142,0.181345,0.0306101,-0.484691,-0.187115,-0.533821,-0.0121009,-0.0275179,-0.248042
-0.0269101,0.175465,0.0223856,-0.113665,-0.0342209,-0.239469,0.00359031,0.0356954,-0.268122
-0.0257348,0.177185,0.0210501,0.270886,0.115058,0.0932659,-0.0524449,0.0871635,-0.206046
-0.023758,0.185243,0.0251272,0.521008,0.13845,0.241432,-0.173184,0.0898856,-0.0824493
-0.0227311,0.196594,0.0293489,0.594043,0.0214183,0.108798,-0.274874,0.0654627,0.0359957
-0.0245333,0.207273,0.028809,0.44691,-0.232826,-0.208241,-0.353512,0.0646487,0.129531
-0.0300917,0.214123,0.0206297,0.223882,-0.477,-0.618226,-0.389179,0.0862999,0.131506
-0.0374444,0.217107,0.00445352,0.0356789,-0.579233,-0.953249,-0.352344,0.133893,0.0777384
-0.0435513,0.217209,-0.0174272,-0.107253,-0.476678,-1.1752,-0.286373,0.187795,0.0194611
-0.0450519,0.215098,-0.042723,-0.196394,-0.215126,-1.26519,-0.218452,0.219349,-0.0120425
-0.0413106,0.21235,-0.0685427,-0.172214,0.0247731,-1.2387,-0.154972,0.235737,-0.000590622
-0.0346612,0.210671,-0.0930587,-0.0861604,0.0913456,-1.15577,-0.0953691,0.215708,0.071557
-0.0289427,0.210344,-0.115853,-0.0249434,-0.00568235,-1.08918,-0.063786,0.165583,0.165996
-0.0252855,0.210248,-0.1381,-0.0525947,-0.0711744,-1.10735,-0.0586938,0.112572,0.236151
-0.0222416,0.208697,-0.161332,-0.157141,-0.0925311,-1.17091,-0.0492419,0.0660265,0.289766
-0.0192849,0.204691,-0.185762,-0.29225,-0.111297,-1.21016,-0.0208833,0.0295582,0.321196
-0.0163492,0.198183,-0.210481,-0.393531,-0.0838187,-1.20524,-0.00298395,-0.00565729,0.308649
-0.0133595,0.190065,-0.235005,-0.447761,-0.0957579,-1.20011,0.00670981,-0.0499379,0.27382
-0.0110542,0.181091,-0.25971,-0.48527,-0.150065,-1.22953,0.0229124,-0.103543,0.244925
-0.0115008,0.171473,-0.28445,-0.492373,-0.325069,-1.18648,0.0707344,-0.133824,0.19491
-0.0155365,0.162667,-0.307298,-0.403225,-0.446772,-1.04659,0.125026,-0.154563,0.106049
-0.021078,0.156792,-0.326492,-0.210931,-0.374084,-0.847837,0.149221,-0.164178,0.000514448
-0.0237229,0.154935,-0.34208,-0.0188111,-0.11801,-0.69751,0.150207,-0.184124,-0.0628546
-0.0214211,0.15584,-0.354654,0.0589488,0.131634,-0.555779,0.152248,-0.198962,-0.0564736
-0.0165186,0.157059,-0.364767,0.0383568,0.164284,-0.455673,0.140796,-0.20853,-0.0330273
-0.013111,0.157993,-0.373187,0.0584304,0.0331609,-0.382011,0.131767,-0.217084,-0.0617951
-0.0127284,0.159897,-0.380295,0.121543,-0.0859985,-0.32509,0.12101,-0.199594,-0.122593
-0.0136607,0.162516,-0.386395,0.115968,-0.0918934,-0.28076,0.112128,-0.183688,-0.164407
-0.0139314,0.164205,-0.391598,0.0404422,0.0037836,-0.243483,0.115092,-0.168273,-0.198087
-0.0107721,0.164222,-0.396691,-0.0462162,0.233276,-0.26793,0.107917,-0.166272,-0.228737
-0.00397193,0.162294,-0.402296,-0.15831,0.31387,-0.282484,0.139692,-0.160637,-0.213115
0.00194246,0.15805,-0.407543,-0.255432,0.168983,-0.217795,0.163792,-0.137224,-0.206954
0.00387497,0.153229,-0.410397,-0.19525,0.00570561,-0.0580212,0.187378,-0.112018,-0.26415
0.0028943,0.151571,-0.409646,0.0488863,-0.0778674,0.137739,0.19207,-0.0841165,-0.316141
0.0028943,0.151571,-0.409646,0.0488863,-0.0778674,0.137739,0.19207,-0.0841165,-0.316141
0.00168211,0.155423,-0.404804,0.327353,0.0651119,0.348054,0.194337,-0.047366,-0.317033
0.00469384,0.164304,-0.395332,0.553508,0.418094,0.596469,0.170723,0.000907034,-0.267568
0.0147582,0.177054,-0.380961,0.691785,0.826144,0.834821,0.118423,0.057051,-0.149606
0.0301872,0.191674,-0.362222,0.722738,1.0053,1.03419,0.0500515,0.0817685,0.00486004
0.0442359,0.206701,-0.34056,0.689226,0.765065,1.13305,0.00396107,0.0775617,0.133213
0.0495814,0.220357,-0.317854,0.564412,0.228421,1.14788,-0.0350112,0.0634723,0.196666
0.0431913,0.231188,-0.295366,0.414025,-0.354878,1.08104,-0.0743167,0.0618063,0.165526
0.0271414,0.238574,-0.275151,0.263439,-0.741658,0.903656,-0.133623,0.0828905,0.0376632
0.00759777,0.243131,-0.258803,0.181374,-0.751616,0.70678,-0.130619,0.103886,-0.112523
-0.00661556,0.246587,-0.245908,0.174337,-0.318564,0.550824,-0.117745,0.15152,-0.219281
-0.00997426,0.249915,-0.235909,0.1578,0.231934,0.462894,-0.077494,0.185173,-0.198351
-0.00367678,0.252731,-0.225665,0.143926,0.611755,0.539545,-0.0367232,0.214588,-0.0834091
0.00660674,0.256222,-0.213586,0.221044,0.68085,0.629747,-0.0285163,0.205592,0.0444205
0.0154381,0.262171,-0.199861,0.361508,0.527298,0.711437,-0.0314811,0.181236,0.158082
0.0190933,0.270705,-0.184784,0.451193,0.229255,0.75796,-0.0476784,0.165909,0.256864
0.0164104,0.279869,-0.169385,0.427728,-0.065255,0.727563,-0.0735562,0.144683,0.320459
0.00914316,0.287446,-0.155546,0.302541,-0.256714,0.599705,-0.103525,0.131267,0.336083
0.000164631,0.291672,-0.14482,0.116304,-0.321887,0.426444,-0.108022,0.110827,0.321213
-0.00854167,0.29238,-0.138297,-0.0368811,-0.36197,0.200478,-0.0835873,0.0769286,0.27503
-0.0168013,0.290554,-0.136136,-0.136235,-0.402922,0.0320087,-0.0224321,0.0670464,0.209873
-0.0251869,0.287312,-0.136044,-0.182475,-0.450919,-0.00751898,0.0137149,0.0738416,0.137752
-0.0356411,0.283947,-0.136366,-0.137108,-0.626515,-0.0170212,0.0496638,0.0613663,0.0599793
-0.0494296,0.282108,-0.137286,-0.0552179,-0.7452,-0.0755612,0.0595108,0.0364681,-0.0269389
-0.0624843,0.281337,-0.139831,-0.0555134,-0.599425,-0.168721,0.0599429,0.0208957,-0.0941681
-0.0704724,0.27943,-0.144797,-0.167803,-0.329551,-0.295634,0.0435282,0.00542182,-0.133031
-0.0720132,0.275713,-0.152256,-0.235635,-0.0374334,-0.38358,0.0342603,-0.00460744,-0.169901
-0.0683016,0.271738,-0.16088,-0.212358,0.154194,-0.407456,0.00953082,-0.0162012,-0.174316
-0.0626006,0.268241,-0.169684,-0.201714,0.153492,-0.425078,-0.0146134,-0.0309393,-0.130149
-0.0580373,0.264416,-0.179401,-0.251691,0.0433923,-0.504777,-0.0370899,-0.0555488,-0.0798675
-0.0556833,0.258395,-0.191719,-0.440112,-0.134391,-0.663559,-0.0555223,-0.075037,-0.0443102
-0.0559704,0.2481,-0.207688,-0.671253,-0.290873,-0.814162,-0.0465713,-0.0799685,-0.0787223
-0.0587264,0.23415,-0.225587,-0.799253,-0.406521,-0.825255,-0.0405194,-0.0432068,-0.190265
-0.0634931,0.219428,-0.242583,-0.742464,-0.440519,-0.732328,-0.0294406,-0.0243488,-0.313756
-0.0691793,0.207286,-0.257331,-0.555673,-0.431591,-0.638858,-0.0292794,-0.014868,-0.389669
-0.0739066,0.199533,-0.270191,-0.317206,-0.269709,-0.566923,-0.0706768,0.00238054,-0.400004
-0.0747731,0.196079,-0.28172,-0.113978,-0.0375,-0.543703,-0.12523,0.0295269,-0.34458
-0.070899,0.196447,-0.292259,0.077246,0.213937,-0.486358,-0.144283,0.0541796,-0.251373
-0.062696,0.200302,-0.301249,0.241106,0.416036,-0.4217,-0.171508,0.0792445,-0.131752
-0.0524609,0.206759,-0.308774,0.354746,0.431779,-0.35208,-0.181239,0.0928008,0.00369173
-0.0438691,0.214948,-0.314894,0.428197,0.273642,-0.297722,-0.200944,0.105402,0.105808
-0.0396488,0.223904,-0.3209,0.427381,0.0111562,-0.342507,-0.243806,0.112907,0.1779
-0.0398662,0.231865,-0.328955,0.32722,-0.197206,-0.490722,-0.276152,0.107082,0.212884
-0.0421612,0.237321,-0.340833,0.171436,-0.294166,-0.691751,-0.280581,0.114616,0.208885
-0.0446269,0.24013,-0.356442,0.0435714,-0.319301,-0.824074,-0.234363,0.135732,0.178836
-0.0474217,0.240699,-0.373863,-0.0547389,-0.375632,-0.85666,-0.200255,0.171533,0.152941
-0.0505829,0.240095,-0.391184,-0.069856,-0.331906,-0.827057,-0.191047,0.175143,0.106013
-0.052079,0.240013,-0.40821,-0.0226617,-0.223315,-0.838187,-0.177968,0.156737,0.0920425
-0.0515854,0.240327,-0.425889,-0.0446765,-0.155806,-0.874332,-0.143843,0.137221,0.131452
-0.0505669,0.239556,-0.4434,-0.109941,-0.143047,-0.820561,-0.089753,0.124906,0.169603
-0.0490709,0.237557,-0.459697,-0.160494,-0.0692027,-0.758859,-0.0682168,0.10865,0.180615
-0.0462976,0.234441,-0.474851,-0.225465,-0.0187994,-0.708824,-0.0496963,0.076324,0.205184
-0.0437439,0.229511,-0.489428,-0.332011,-0.079059,-0.688265,-0.0435068,0.0359274,0.231498
-0.0437842,0.222557,-0.503498,-0.421675,-0.249807,-0.655804,-0.0297275,0.00818466,0.22756
-0.0437842,0.222557,-0.503498,-0.421675,-0.249807,-0.655804,-0.0297275,0.00818466,0.22756
-0.0476866,0.213906,-0.517062,-0.498827,-0.442083,-0.635439,-0.0376312,-0.0245534,0.1737
-0.0550486,0.204287,-0.530627,-0.516259,-0.538171,-0.649259,-0.0413687,-0.0584068,0.0910801
-0.0616515,0.195418,-0.544755,-0.439145,-0.367416,-0.685324,-0.0582889,-0.0731119,-0.00516522
-0.0638102,0.188724,-0.559125,-0.318914,-0.1079,-0.669346,-0.0252101,-0.0838791,-0.0480596
-0.0613431,0.184665,-0.572084,-0.159632,0.0891509,-0.57453,0.0133568,-0.0930701,-0.0561436
-0.0573754,0.183535,-0.582761,-0.0298806,0.0793665,-0.474482,0.0162807,-0.0863381,-0.0293996
-0.0559251,0.183972,-0.591518,0.0242899,-0.107761,-0.402624,0.000753425,-0.0961625,-0.0177713
-0.0584622,0.185649,-0.599405,0.103894,-0.294451,-0.383839,-0.0181366,-0.0995343,-0.0532709
-0.0646067,0.189355,-0.606774,0.236665,-0.430202,-0.370438,-0.017418,-0.091514,-0.110545
-0.0708252,0.196284,-0.61374,0.402548,-0.297426,-0.362549,-0.000737563,-0.0791437,-0.156152
-0.0732147,0.205204,-0.620255,0.405646,-0.054287,-0.348372,-0.0232036,-0.0533436,-0.131056
-0.0699576,0.211869,-0.627439,0.176666,0.239969,-0.422667,-0.0509709,-0.0608155,-0.0749379
-0.0608998,0.212421,-0.637932,-0.195336,0.423897,-0.613536,-0.0546263,-0.0813637,-0.0484434
-0.049884,0.206103,-0.652996,-0.499274,0.31515,-0.830011,-0.0606739,-0.0726972,-0.0802735
-0.0437828,0.194945,-0.671983,-0.679309,-0.0831309,-0.950883,-0.0133804,-0.025083,-0.162765
-0.0445768,0.182566,-0.691039,-0.592547,-0.260368,-0.838067,0.0945569,0.0274094,-0.321368
-0.0440397,0.175038,-0.705633,-0.200741,0.139531,-0.543447,0.1608,0.0691192,-0.447051
-0.0340049,0.175883,-0.712483,0.244757,0.748574,-0.123189,0.171932,0.110281,-0.408773
-0.015098,0.183925,-0.710463,0.535553,1.13707,0.299524,0.148769,0.123411,-0.238231
0.00737058,0.195966,-0.700726,0.648423,1.2729,0.63109,0.090732,0.114468,-0.0764328
0.0303417,0.20926,-0.685927,0.652277,1.33253,0.836827,0.0303528,0.090854,0.0252963
0.054008,0.22282,-0.668083,0.631307,1.42831,0.949094,-0.0147902,0.0585506,0.0708411
0.0785295,0.236418,-0.649388,0.608843,1.44978,0.953634,-0.0263094,0.0207821,0.0954382
0.101786,0.250311,-0.630907,0.640738,1.22992,0.971346,0.00549939,0.0253389,0.0814358
0.119213,0.265067,-0.612093,0.556168,0.96822,0.986845,0.0298919,0.0291553,0.110951
0.127929,0.274599,-0.593589,0.162473,0.423716,0.904409,-0.0184457,0.0264096,0.151248
0.129026,0.277239,-0.576113,-0.0727444,0.197899,0.783544,-0.0660764,-0.0314284,0.0583884
0.127943,0.277409,-0.562272,-0.0495244,0.0916954,0.530803,-0.130041,-0.0453954,-0.0171773
0.126779,0.278788,-0.554241,0.100973,0.0247872,0.26555,-0.123877,-0.033296,-0.0322881
0.127306,0.282519,-0.551391,0.203128,0.192808,0.0656273,-0.0887258,0.0112283,-0.0340335
0.13392,0.285999,-0.551771,0.128613,0.46178,-0.0123795,-0.0562579,0.0697134,0.0116728
0.14265,0.287752,-0.551656,0.0865119,0.2734,0.0509371,0.0410317,0.139312,0.118533
0.142984,0.294526,-0.550913,0.60572,-0.026201,0.131666,0.0588898,0.115863,-0.0387874
0.141347,0.311838,-0.548825,1.00055,-0.0556905,0.333603,0.0586663,0.112518,-0.0336118
0.138645,0.331924,-0.54253,0.83432,0.0290224,0.516141,0.108737,0.152477,0.153569
0.138757,0.343828,-0.533442,0.180153,0.291584,0.44894,0.0693529,0.134945,0.289722
0.144326,0.342236,-0.527195,-0.387353,0.468672,0.0744188,0.0147689,0.0247273,0.278068
0.158804,0.329653,-0.528876,-0.853742,0.973393,-0.380767,-0.114985,-0.143204,0.195953
0.183905,0.305939,-0.535103,-1.3435,1.52319,-0.478783,-0.138795,-0.147298,0.172424
0.212964,0.278868,-0.534743,-1.18824,1.39496,-0.0159922,-0.0389166,-0.0596932,0.0337958
0.234049,0.261658,-0.529926,-0.562544,0.757448,0.024859,-0.262995,0.0625463,-0.030467
0.245101,0.258312,-0.525928,0.0931429,0.819299,0.480392,0.0748599,0.0527357,-0.071564
0.26043,0.275054,-0.503134,0.8641,1.02872,1.71826,0.341691,-0.0974808,0.0479231
0.273039,0.299925,-0.477486,0.86117,1.05321,1.2926,-0.182609,0.0584035,-0.0228572
0.294324,0.329954,-0.456975,1.69798,1.67406,1.56876,-0.0158387,-0.246984,-0.110738
0.319726,0.384098,-0.436841,2.819,1.30098,1.80951,0.140327,-0.127764,-0.177344
0.343237,0.451486,-0.423019,2.98982,1.67449,1.49926,0.18075,0.220681,-0.0376495
0.369302,0.511594,-0.417482,2.46303,1.40578,1.10057,0.0783026,0.0341689,-0.0102634
0.397227,0.555202,-0.41499,1.46276,1.58165,0.722174,0.00289607,0.0902561,0.0899773
0.429606,0.578961,-0.411449,0.732213,1.76675,0.557073,-0.0286731,0.13387,0.0861812
0.461772,0.597132,-0.40603,0.834545,1.80894,0.681279,0.0900756,0.115618,-0.0501564
0.500036,0.624903,-0.40088,1.49083,2.36027,0.994058,0.0666412,0.0876582,-0.150169
0.549884,0.669524,-0.399356,2.34521,2.71443,1.39934,-0.0190231,0.188576,-0.167289
0.609044,0.73467,-0.401394,3.19294,3.01952,2.09929,0.0446308,0.30198,-0.213959
0.609044,0.73467,-0.401394,3.19294,3.01952,2.09929,0.0446308,0.30198,-0.213959
0.670713,0.820343,-0.404102,3.73208,2.94594,2.84247,0.0880266,0.25175,-0.235061
0.730042,0.915456,-0.406793,3.53856,2.77248,3.0654,0.0457351,0.119196,-0.193728
0.78487,1.00041,-0.40738,2.61503,2.75742,2.70241,-0.0430566,0.121526,-0.114362
0.831198,1.06473,-0.397528,1.5247,2.57919,2.37887,0.0117781,0.129771,0.0231507
0.850782,1.11628,-0.367141,0.976233,2.3073,2.46082,0.196631,-0.0421529,0.0172282
0.853612,1.16719,-0.317551,0.870079,2.49638,2.74916,0.176497,0.00155926,-0.138656
0.844328,1.22274,-0.251761,1.04057,2.72739,3.0279,0.242888,0.116154,-0.165294
0.820705,1.28411,-0.171276,1.18343,2.32374,3.21239,0.243201,0.0255154,-0.0737235
0.753222,1.34539,-0.0577555,1.06209,2.2359,3.10892,0.204352,-0.0931515,-0.0270392
0.622981,1.39494,0.124328,0.402218,2.47421,2.86816,0.17269,-0.112056,0.116968
0.371505,1.42037,0.424175,-0.490922,1.86149,2.60356,0.196253,-0.109468,0.178733
0.0680675,1.4157,0.758402,-0.948716,0.933992,2.22677,0.206718,-0.102137,0.0877878
-0.146607,1.39566,0.993091,-0.845089,0.788385,1.70624,0.225283,0.105675,-0.0968528
-0.271314,1.3757,1.13331,-0.543622,0.502432,1.30824,0.168669,0.118328,-0.147124
-0.370053,1.36078,1.24077,-0.213104,0.1309,1.24493,0.231435,0.045578,-0.148516
-0.460232,1.34824,1.333,-0.169008,-0.0787887,1.08201,0.109052,-0.0528003,-0.0460647
-0.525788,1.33478,1.39726,-0.342513,-0.267546,0.850265,0.058979,-0.0231606,0.00365509
-0.558976,1.32075,1.42342,-0.488482,-0.493155,0.392149,0.0315568,0.0916729,-0.054235
-0.558941,1.31219,1.41081,-0.33078,-0.696639,-0.186005,-0.0249852,0.152904,-0.12292
-0.537958,1.3145,1.37516,0.0702996,-0.663203,-0.63802,-0.0915636,0.0998285,-0.107351
-0.514053,1.32593,1.33639,0.415325,-0.718657,-0.740719,-0.0368023,0.0922096,-0.138865
-0.494484,1.34227,1.30068,0.603296,-0.770736,-0.786636,-0.0343663,0.143604,-0.0877224
-0.472908,1.36154,1.26394,0.720358,-0.648211,-0.792469,-0.0562167,0.14321,-0.036626
-0.456741,1.38057,1.23592,0.720399,-0.486392,-0.497081,-0.0517257,0.0746123,-0.0387484
-0.470009,1.39488,1.24111,0.596918,-0.31359,-0.0859282,-0.0302824,0.0429165,-0.0241291
-0.50399,1.40444,1.27133,0.530098,-0.133415,0.0492462,-0.0741317,0.0379832,-0.0232279
-0.543533,1.41485,1.30987,0.720573,0.00439038,-0.0573098,-0.0916113,-0.00912946,-0.0969391
-0.588034,1.43037,1.35643,0.915194,0.132989,-0.17268,-0.0848777,-0.0894948,-0.0915959
-0.632196,1.44548,1.40361,0.606473,0.134557,-0.195136,-0.0517211,-0.120223,-0.0307127
-0.627789,1.45458,1.40216,0.159596,0.15091,-0.361346,-0.0491895,-0.105317,0.0117657
-0.574645,1.46009,1.35109,0.0182501,0.0913677,-0.392308,-0.00957435,-0.155124,-0.0452018
-0.519524,1.4644,1.29817,0.073815,0.151123,-0.311406,0.020971,-0.0839328,-0.0737675
-0.479642,1.46804,1.26121,0.0492683,0.153306,-0.182535,0.0341965,-0.0490674,-0.0560943
-0.46329,1.46905,1.24747,0.00435274,0.113954,0.0180761,0.0683717,-0.0273123,-0.0371407
-0.475725,1.46869,1.26196,0.043257,0.076406,0.107351,0.0497626,-0.013936,-0.0614456
-0.493988,1.46847,1.28022,0.00706592,-0.0944131,0.0454168,0.0199625,0.0068841,-0.0370728
-0.479484,1.46747,1.26373,-0.176071,-0.0871584,-0.147765,-0.00209859,0.0402746,-0.0187901
-0.427132,1.4657,1.20948,-0.188143,-0.0572769,-0.254078,-0.0189948,0.0417689,-0.0237036
-0.369367,1.46536,1.15164,-0.063345,0.0917014,-0.268482,-0.0266244,0.0695194,-0.0560876
-0.326336,1.46657,1.11165,0.0421549,0.222089,-0.149269,-0.00403273,0.0996608,-0.0365254
-0.313038,1.46861,1.10322,0.124383,0.248094,-0.0115992,0.0253256,0.0795308,-0.0275209
-0.321268,1.47059,1.1161,0.0825087,0.224097,0.047575,0.0327177,0.0528299,0.00212963
-0.327342,1.47068,1.12673,-0.00953193,0.225909,0.0429742,0.0168323,-0.00220001,0.0331202
-0.329784,1.47008,1.13394,0.000367126,0.263779,0.0291385,0.00314209,-0.0447558,0.00626177
-0.324755,1.46999,1.13489,-0.0126705,0.311178,-0.00904595,-0.0141686,-0.0589709,0.0216777
-0.311417,1.46931,1.12756,-0.0771997,0.305395,-0.0387817,-0.01609,-0.0500066,0.0161368
-0.286783,1.4675,1.10927,-0.125895,0.327494,-0.0719163,-0.00714896,-0.0173236,0.0242545
-0.263293,1.46563,1.09215,-0.0833377,0.32529,-0.0438399,0.00800237,-0.00790513,0.00041692
-0.247228,1.46444,1.08184,-0.042765,0.242039,-0.00853123,-0.00734621,0.0244395,0.00803705
-0.246706,1.46434,1.0859,0.0578626,0.22654,0.0515628,0.0030162,0.0398247,-0.0239855
-0.255772,1.46615,1.09936,0.154557,0.210141,0.0368742,-0.0112935,0.0391006,-0.0248436
-0.261196,1.46916,1.10905,0.153818,0.215166,-0.0103921,-0.0199112,0.0247163,-0.00204765
-0.259637,1.47131,1.11213,0.0611515,0.241138,-0.00151033,-0.0171657,-0.00337261,0.0172691
-0.257244,1.47113,1.11411,-0.0654801,0.192033,0.0182205,-0.00756631,-0.0146068,0.0124779
-0.257244,1.47113,1.11411,-0.0654801,0.192033,0.0182205,-0.00756631,-0.0146068,0.0124779
-0.246818,1.46991,1.10727,-0.0379805,0.159157,-0.0579418,0.00411418,-0.00920463,-0.0142905
-0.232763,1.47023,1.0955,0.0507892,0.0829881,-0.0695073,0.00524533,-0.0356926,-0.0359888
-0.227663,1.47164,1.09187,0.0588979,0.0860983,-0.00888224,0.00652,-0.0113971,-0.0232339
-0.238484,1.4725,1.10462,0.030916,0.102556,0.103571,0.00247678,-0.0158745,-0.0186843
-0.260434,1.47138,1.12907,-0.0778504,0.135956,0.136984,-0.0118722,-0.00769955,-0.0054279
-0.262992,1.46815,1.13431,-0.151783,0.129752,-0.010896,-0.031285,0.0270396,-0.0151803
-0.236541,1.46623,1.11029,-0.0453546,0.122558,-0.147332,-0.0232841,0.044388,-0.0563784
-0.207184,1.46749,1.08314,0.106092,0.110244,-0.136821,0.00963256,0.0820857,-0.0678548
-0.191759,1.47064,1.07021,0.165139,0.150477,-0.0415077,0.0204448,0.0530637,-0.0267688
-0.203725,1.47384,1.08583,0.177042,0.201401,0.102699,0.02128,-0.000317693,-0.0131338
-0.233614,1.47553,1.11975,0.0435374,0.191497,0.140912,-0.00993025,-0.034137,-0.0064854
-0.244418,1.47315,1.13458,-0.172532,0.193029,0.0363688,0.000718983,-0.0535306,0.0354652
-0.22485,1.47013,1.11808,-0.11919,0.122708,-0.111121,-0.00728557,-0.0590487,-0.01331
-0.189263,1.46967,1.08471,-0.000109231,0.119163,-0.187906,0.00551995,-0.0298589,-0.0126168
-0.151843,1.47068,1.04963,0.0309293,0.130109,-0.1648,0.0182162,-0.0127134,0.0124974
-0.124661,1.47227,1.02461,0.0957585,0.0928227,-0.105735,0.0133288,0.0091278,0.00119342
-0.112917,1.47581,1.01425,0.250353,0.0537571,-0.0509871,-0.00681475,0.0184106,-0.0295063
-0.108937,1.48236,1.01024,0.432336,-0.0717082,-0.0802338,-0.0352737,0.0402815,-0.0379808
-0.0929861,1.494,0.99205,0.713011,-0.136262,-0.192892,-0.0453818,0.0317817,-0.0503044
-0.0428443,1.51108,0.937991,0.976433,-0.246819,-0.266574,-0.0369945,0.0350978,-0.0581082
0.0549265,1.5319,0.835313,1.04022,-0.198499,-0.218962,-0.0160971,-9.05991e-06,-0.0038873
0.264014,1.54924,0.623318,0.73443,-0.0783689,-0.120798,-0.0213265,0.0108913,0.0873832
0.557046,1.55823,0.329741,0.277058,0.0139161,0.0140647,-0.00313214,0.0029881,0.0897346
0.594011,1.55977,0.293924,-0.0747897,0.105332,0.0195885,-0.00157917,0.0140231,0.0711199
0.525645,1.5583,0.363963,-0.045412,0.0425183,-0.0299361,-0.0116917,-0.0212421,-0.00761539
0.602984,1.55771,0.28725,0.0229603,0.0287886,-0.0730095,-0.00944388,-0.0271091,-0.00602436
0.654168,1.55653,0.236666,-0.0990361,0.0339401,-0.0392615,0.00666505,-0.0378368,0.0319261
0.553512,1.55362,0.337857,-0.212828,0.0273816,-0.000223304,-0.000454277,-0.0412394,0.030558
0.441694,1.54948,0.450302,-0.248554,0.0275558,-0.00015081,-0.00793526,-0.0393049,0.0146585
0.355885,1.54395,0.536492,-0.369825,0.00748847,-0.0383866,-0.00641143,-0.0153599,0.0130556
0.30971,1.53501,0.582645,-0.542046,0.000420803,-0.11245,-0.0041616,0.000687182,0.0250625
0.291097,1.52334,0.601008,-0.614891,-0.0404805,-0.143641,-0.00479531,-0.0104946,0.0157795
0.273884,1.51062,0.61693,-0.617666,-0.0853351,-0.117759,0.00363153,0.0237638,-0.00216126
0.252087,1.49849,0.637146,-0.583017,-0.0850884,-0.0519663,0.014223,0.0330622,-0.00464219
0.212208,1.48727,0.674915,-0.586579,-0.134763,0.0867169,0.0184077,0.0348434,-0.0115475
0.158684,1.47597,0.726232,-0.601352,-0.0957499,0.1389,0.0139379,0.0144433,0.00891745
0.11778,1.46492,0.765925,-0.534995,-0.0458083,0.106772,0.00050643,-0.0167993,0.00512064
0.0911302,1.4556,0.791805,-0.428497,-0.0489748,0.0832301,0.0106425,-0.0232449,-0.0069921
0.0738109,1.44778,0.807844,-0.368544,-0.0852534,0.0470488,0.0126645,-0.0060004,-0.00177449
0.0665159,1.44105,0.813193,-0.294315,-0.116648,-0.0224235,0.0203614,-0.00623888,-0.00725304
0.0712039,1.43631,0.805703,-0.162207,-0.150931,-0.0982162,0.00521597,0.011142,-0.0283944
0.0804951,1.43414,0.793518,-0.0564772,-0.123074,-0.0584723,0.017992,0.00929314,-0.0145114
0.0781615,1.43323,0.793916,-0.0444821,-0.073488,0.0617907,0.0157665,-0.00129896,-0.00250821
0.0618144,1.43214,0.809127,-0.0716623,-0.0494214,0.122917,0.00347063,0.00483751,0.00437266
0.0460129,1.43084,0.824082,-0.0681116,-0.0515269,0.0606165,-0.00699648,-0.00378168,0.00126345
0.0448384,1.42884,0.824306,-0.106355,-0.0506866,-0.0461156,0.00147092,-0.0170778,0.0175276
0.0576773,1.42657,0.810117,-0.107983,-0.073972,-0.124249,-0.0055995,-0.0159517,0.0112071
0.072573,1.42461,0.79387,-0.0895293,-0.03464,-0.10192,-0.0123172,0.000990987,0.0034104
0.0792271,1.42315,0.787074,-0.0496151,0.024284,-0.0169834,-0.00500533,0.0187069,-0.0004002
0.0774182,1.4227,0.789173,-0.0502496,-0.00243765,0.0223686,-0.0122212,-0.00174594,-0.00112009
0.075714,1.42101,0.790784,-0.141008,0.00434942,-0.0417661,-0.0112876,0.00444365,0.0224694
0.0866856,1.41849,0.779931,-0.091078,0.0175037,-0.150859,-0.0231907,0.00893182,-0.011374
0.104833,1.41711,0.76156,-0.03845,-0.0301323,-0.132603,0.00415304,0.00867498,-0.00577492
0.111399,1.41753,0.753798,0.0992526,-0.0227574,0.00371178,0.0229296,0.0373191,-0.0192671
0.111399,1.41753,0.753798,0.0992526,-0.0227574,0.00371178,0.0229296,0.0373191,-0.0192671
0.102687,1.41974,0.76206,0.0488951,-0.0180656,0.124594,0.0168162,0.011409,0.035586
0.0800544,1.41997,0.784576,-0.0163678,-0.00675284,0.1593,-0.0121681,-0.00848371,0.0283268
0.0657942,1.42033,0.799331,0.0532492,0.0333102,0.0534835,-0.0427384,-0.00048095,-0.010485
0.0702389,1.4211,0.795631,0.0258081,0.0440503,-0.0701949,-0.0311268,0.00949264,0.00528818
0.0866818,1.42091,0.780071,-0.0191621,0.051367,-0.123576,-0.0110656,0.00149935,0.0133231
0.100415,1.42075,0.767276,-0.00938653,0.0694618,-0.0662457,0.0113366,-0.00548285,-0.00382918
0.103073,1.42046,0.766202,-0.0182137,0.089144,0.0145985,0.0205851,-0.0103644,0.00432687
0.0961001,1.42022,0.774419,-0.0147646,0.0255565,0.0577176,0.0206864,-0.00840068,-0.00856777
0.0894568,1.42029,0.781303,-0.00135017,0.0031729,0.0200383,0.00848609,0.0108055,-0.0196991
0.091947,1.42021,0.778986,-0.0118538,0.0157604,-0.0405763,0.00476512,-0.00930262,-0.00482051
0.0990108,1.41959,0.772106,-0.0442807,0.00583304,-0.0456195,0.0143919,-0.00999093,-0.00652446
0.106186,1.41846,0.764906,-0.0453308,-0.0147134,-0.037217,0.017517,0.016496,-0.00615434
0.108908,1.4178,0.761402,0.00754675,-0.0608924,-0.00918464,0.0238706,0.0163181,-0.0117374
0.108952,1.41819,0.759979,0.0374917,-0.0714294,-0.0104689,0.00497028,0.0169887,-0.0134847
0.111205,1.41884,0.756559,0.0259742,-0.0489324,-0.0141322,-0.00213542,0.00603902,-0.00103261
0.111415,1.41906,0.755581,0.00207927,-0.0257077,0.0179735,0.00693607,-0.00936961,0.00146455
0.110405,1.41871,0.756338,-0.00398731,-0.0125368,0.018938,-0.00350919,-0.00492084,-0.00554729
0.11062,1.41872,0.755746,0.0317263,-0.0324561,-0.0214599,-0.000992209,0.0142456,-0.0183167
0.115073,1.41949,0.750166,0.0619954,-0.0796533,-0.045604,0.00846529,0.0200536,-0.019058
0.120116,1.42071,0.743373,0.0642678,-0.0806195,-0.0295305,0.0100977,0.00357389,-0.00946318
0.117494,1.42167,0.744283,0.0277976,-0.0816239,0.0487412,0.00985133,-0.0121818,-0.00124072
0.106765,1.42201,0.753826,0.0237706,-0.0508136,0.0810294,-0.00548196,-0.0152908,-0.00404571
0.0985623,1.42237,0.761488,0.0283912,-0.0164782,0.0399677,-0.0190233,-0.0268495,0.000455454
0.0987274,1.4225,0.761259,0.00933868,0.00575259,-0.0224804,-0.0189432,-0.0205281,0.00363448
0.106406,1.42269,0.753576,0.031558,-0.00270267,-0.0653317,-0.0106064,0.00170171,-0.00913705
0.114967,1.4234,0.744741,0.0428078,-0.014514,-0.0434712,0.00814691,0.00325632,-1.32918e-05
0.114172,1.42411,0.745213,0.0307725,-0.00193933,0.0325794,0.0153006,-0.00779432,0.00705707
0.106843,1.42524,0.752685,0.0730312,0.00468336,0.0487427,0.00389537,-0.00624204,-0.0033914
0.104829,1.42745,0.754698,0.159403,-0.018593,-0.0255247,-0.0125217,0.000775814,-0.0193221
0.11991,1.43175,0.738422,0.333093,-0.0775011,-0.150714,-0.0242401,0.0130683,-0.0479379
0.155126,1.44039,0.701229,0.608729,-0.0870556,-0.184912,-0.00316954,0.0240712,-0.0548115
0.195985,1.45441,0.65787,0.886472,-0.122735,-0.0610512,0.0135956,0.0283755,-0.0549966
0.213182,1.47502,0.637273,1.18843,-0.212673,0.281577,0.0618292,0.0109504,-0.0684758
0.177108,1.50158,0.669249,1.3395,-0.189987,0.446944,0.0181332,0.0486153,-0.0381469
0.0799533,1.52942,0.763364,1.35777,-0.142362,0.418938,-0.00286141,0.0603928,-0.0157106
-0.2793,1.55638,1.11895,1.38848,-0.240493,0.282613,-0.0127043,-0.00259107,-0.0343931
-2.59131,1.55591,-2.85667,1.22531,-0.197041,0.0901589,0.00289837,-0.0241433,0.0297972
-2.91421,1.53643,-2.53687,0.8267,-0.125967,-0.0675834,-0.0065223,-0.0266218,0.0625675
-3.01577,1.52499,-2.43669,0.397784,-0.0308349,-0.108045,-0.0065369,-0.0163534,0.0737584
-3.0593,1.51954,-2.39443,0.194601,-0.100674,-0.0194783,0.00627121,-0.0125589,0.0326052
-3.04406,1.51795,-2.41146,-0.0780255,-0.090218,0.114349,0.0363636,0.0145798,0.0441372
-2.9837,1.52339,-2.4748,-0.521124,-0.201543,0.112317,0.0124559,0.01116,0.0525978
-2.86481,1.53739,-2.59866,-0.941384,-0.273016,0.0793011,0.0197937,-0.014886,0.0827974
-2.31104,1.557,3.12575,-1.3625,-0.218827,0.0259362,0.0127903,-0.0149269,0.101418
-0.40914,1.54625,1.21986,-1.85488,-0.134254,-0.0550529,-0.0342265,0.0183449,0.116681
-0.13777,1.50523,0.947096,-2.35813,0.0203706,0.00761718,-0.0253798,0.0138119,0.122669
-0.0973574,1.45765,0.909035,-2.32348,0.2604,0.222951,-0.0162773,-0.041169,0.03536
-0.106134,1.41552,0.925847,-1.81084,0.486562,0.420277,0.00571752,-0.0121536,-0.0349659
-0.129387,1.38422,0.958255,-1.27844,0.313014,0.470245,0.00957596,0.000390172,-0.0993447
-0.151535,1.36143,0.983644,-0.930155,-0.0144351,0.328082,-0.00521514,0.0412721,-0.0676385
-0.16366,1.34572,0.993925,-0.631489,-0.282785,0.14147,0.0104379,0.0592197,-0.0765105
-0.165881,1.33109,0.988976,-0.861989,-0.293326,0.00653719,0.013782,0.0680716,0.0339808
-0.156035,1.31289,0.974085,-0.940454,-0.242411,-0.0592701,-0.00424743,0.0108252,0.0492927
-0.146957,1.29593,0.961945,-0.759837,0.00995677,0.00294081,0.0231875,-0.0363788,0.0013265
-0.146957,1.29593,0.961945,-0.759837,0.00995677,0.00294081,0.0231875,-0.0363788,0.0013265
-0.138481,1.28443,0.955416,-0.360535,0.163455,-0.02202,-0.0145061,-0.0446439,-0.0196011
-0.130525,1.28257,0.952219,0.137674,0.313776,-0.0492033,0.0256593,-0.00446069,-0.0542586
-0.121012,1.28845,0.94897,0.404161,0.322003,-0.0888795,0.019259,0.0214399,-0.046244
-0.114075,1.29845,0.949412,0.604614,0.433767,-0.030803,0.0513709,0.0188062,-0.0408153
-0.108491,1.31404,0.952414,0.981793,0.338849,-0.054429,-0.0257717,0.0247748,-0.0679823
-0.111445,1.33728,0.960807,1.32176,0.203033,0.00196195,-0.00282937,0.00798458,-0.0919506
-0.123026,1.36413,0.975729,1.35057,0.105185,-0.00113677,-0.0164291,0.0311031,-0.0312125
-0.132423,1.3899,0.986354,1.28073,-0.04729,-0.143781,-0.0113401,0.0439088,-0.0181637
-0.132183,1.41726,0.982837,1.44065,-0.251431,-0.249304,0.0220794,0.0230718,-0.0568627
-0.131289,1.44642,0.976602,1.39141,-0.272953,-0.204707,0.0682883,0.00277323,0.0159032
-0.132029,1.47253,0.972032,1.23557,-0.247837,-0.205636,0.0407939,-0.00363445,0.0164936
-0.127973,1.49811,0.963797,1.33,-0.151893,-0.182306,-0.00775987,-0.00334275,-0.0438116
-0.150474,1.52564,0.98457,1.38075,-0.023572,-0.0782823,0.0105364,-0.00338459,-0.00756621
-0.304523,1.55174,1.1383,1.26714,-0.0358115,-0.0354405,0.0139565,-0.0120531,0.00128245
-2.38613,1.56389,-3.06537,1.03582,-0.173361,-0.0692894,0.017851,-0.0299617,0.0193927
-3.03264,1.54858,-2.42358,0.673665,-0.283423,-0.150048,0.00623021,-0.0155971,0.0426753
3.12242,1.5386,-2.30126,0.344187,-0.292876,-0.112658,0.0159538,-0.0169062,0.0503343
3.08357,1.53454,-2.2674,0.0667611,-0.199994,-0.0173123,0.00517657,-0.0264445,0.0426862
3.08556,1.53618,-2.27223,-0.230202,-0.0961786,0.03821,-0.00291494,-0.0116007,0.0702273
3.10035,1.54362,-2.28877,-0.515111,-0.0835085,0.0408645,-0.0107946,-0.0119202,0.0473859
3.05439,1.55769,-2.24403,-0.919699,-0.0624378,-0.0486896,-0.0185978,-0.00110823,0.0907311
0.269177,1.55889,0.539022,-1.57897,-0.162112,-0.146547,-0.0324352,-0.00707477,0.119412
0.129015,1.52072,0.675996,-2.19614,-0.145032,-0.175992,-0.0344098,0.00277466,0.115378
0.0963953,1.47478,0.706892,-2.32743,-0.0460086,-0.0962757,-0.0310931,-0.0236188,0.0503677
0.0686242,1.43085,0.734772,-2.04423,0.0457405,0.0680829,0.00535813,-0.0174823,-0.0161107
0.0432326,1.39501,0.762074,-1.5514,0.107828,0.130694,0.029017,0.0106967,-0.044059
0.0312317,1.36955,0.776941,-1.02304,0.14684,0.0449348,0.0209339,0.0164232,-0.0622569
0.033198,1.35344,0.778077,-0.626581,0.146127,-0.0670771,0.00413367,0.0201261,-0.0468894
0.0422278,1.34302,0.77119,-0.437121,0.0705127,-0.11061,-0.0180928,0.0322617,-0.00588296
0.0534323,1.33526,0.760837,-0.335959,0.0537373,-0.174636,-0.00666493,0.0264512,-0.00651601
0.0716495,1.32895,0.743403,-0.264994,0.0692495,-0.269336,-0.0265595,0.0285155,-0.00401163
0.0960439,1.32434,0.720571,-0.146919,0.156674,-0.295158,-0.0112951,0.0336573,-0.0154143
0.12064,1.32226,0.699223,0.00655319,0.234451,-0.242909,0.0259988,0.0130043,-0.0112613
0.14374,1.32397,0.68136,0.228847,0.341631,-0.169428,0.0424551,0.00973231,-0.0213927
0.164985,1.33057,0.667265,0.472921,0.411816,-0.0687613,0.0484031,0.00758517,-0.0218099
0.185375,1.34127,0.653591,0.622422,0.291952,-0.064669,-0.0128368,0.00717479,-0.0566509
0.207964,1.35373,0.636813,0.68091,0.334959,-0.0567984,0.000852078,0.0106364,-0.023327
0.234649,1.36846,0.615745,0.898824,0.267941,-0.0519952,-0.0160835,0.0184944,-0.0532362
0.273632,1.38891,0.580126,1.24504,0.135528,-0.102003,-0.0149591,0.0237272,-0.101148
0.336408,1.41332,0.518057,1.3707,0.0273022,-0.147949,-0.0232807,0.00759965,-0.049579
0.422569,1.43794,0.431247,1.38412,0.0319353,-0.096473,-0.000280112,-0.013177,-0.0132762
0.539376,1.4624,0.316265,1.47406,0.250588,-0.00220055,0.0495368,-0.0171001,0.00980604
0.762716,1.4899,0.0990457,2.01585,0.398435,0.00322351,0.0376445,-0.0514883,-0.0563842
1.34886,1.51175,-0.481315,2.41475,0.295629,-0.159279,-0.0348484,0.00194967,-0.100504
2.05033,1.50091,-1.18076,1.98414,0.0711419,-0.271187,-0.0329055,0.00640869,0.0183022
2.30957,1.47817,-1.4427,0.97585,-0.38312,-0.372603,-0.0471417,0.0264291,0.114107
2.30094,1.46703,-1.44311,-0.181297,-0.481305,-0.424477,-0.00439427,0.00546968,0.140598
2.16298,1.46766,-1.31473,-0.782275,-0.517197,-0.318962,-0.000526257,-0.0172313,0.0924044
1.99614,1.47093,-1.15543,-0.71186,-0.317314,-0.193156,-0.000651449,-0.00966674,-0.013658
1.88136,1.47207,-1.0456,-0.343571,-0.263463,-0.0725212,-0.00440107,-0.00410628,-0.071273
1.83011,1.47326,-0.999844,-0.167269,-0.341546,0.0476694,0.0156858,-0.0296558,-0.0321436
1.78715,1.47501,-0.964936,-0.226315,-0.470579,0.0173435,-0.00441011,-0.0374824,-0.00403738
1.71746,1.47518,-0.90588,-0.318304,-0.662303,-0.125942,-0.0127049,-0.0260522,-0.00653577
1.63519,1.46993,-0.840925,-0.21326,-1.16416,-0.520514,-0.0581715,-0.0269787,-0.0784398
1.63519,1.46993,-0.840925,-0.21326,-1.16416,-0.520514,-0.0581715,-0.0269787,-0.0784398
1.60366,1.45093,-0.842232,0.40512,-2.16479,-1.50733,-0.182306,0.0477713,-0.276345
1.6479,1.40412,-0.940253,1.22851,-3.06268,-3.16157,-0.301685,0.195859,-0.346397
1.68662,1.32307,-1.0454,1.6026,-3.13161,-4.6163,-0.221527,0.192464,-0.151582
1.67994,1.22075,-1.10319,1.15276,-3.20469,-5.26714,-0.109992,-0.0185602,0.190092
1.62812,1.11304,-1.11817,0.283246,-3.33131,-5.40168,-0.0785114,-0.0310248,0.206569
1.5511,1.00593,-1.10396,-0.773577,-3.20536,-5.32686,-0.00490808,-0.0429726,0.246871
1.45854,0.899384,-1.07342,-1.66549,-3.68262,-5.22684,-0.113782,-0.0987088,0.19499
1.35523,0.790284,-1.03981,-2.21903,-4.00857,-5.22706,-0.154063,-0.0689425,0.101272
1.26204,0.678943,-1.01805,-2.18139,-3.92965,-5.11273,-0.103436,-0.0346877,-0.0138507
1.17886,0.571188,-1.01297,-1.87124,-4.04808,-4.90822,-0.0936764,0.0251748,-0.0414523
1.10253,0.471204,-1.02421,-1.4092,-4.16093,-4.60873,-0.0232256,-0.0250899,-0.1065
1.02986,0.382967,-1.0483,-0.950691,-4.13049,-4.21096,0.0664748,-0.0610487,-0.116248
0.957366,0.306726,-1.08172,-0.595641,-4.32483,-3.96643,0.0364338,-0.0144062,-0.136007
0.879155,0.239375,-1.12293,-0.344477,-4.64111,-3.81153,0.0579287,0.103169,-0.118024
0.796133,0.182128,-1.16917,-0.129707,-4.55092,-3.45712,0.215086,0.135071,-0.1863
0.717048,0.138187,-1.21517,0.0563986,-4.1335,-2.85538,0.287838,0.124792,-0.113483
0.643354,0.109377,-1.2558,0.245961,-3.7109,-2.10961,0.250581,0.0720044,-0.0569112
0.577475,0.0949707,-1.28957,0.53592,-3.33284,-1.53432,0.15261,0.0542701,-0.0214312
0.51691,0.0943201,-1.32062,1.0463,-2.93413,-1.17972,0.059636,0.0262329,-0.0949325
0.467849,0.107296,-1.35143,1.53768,-2.35595,-0.946095,0.044134,0.0517623,-0.0785347
0.427921,0.130397,-1.38242,1.85717,-2.03296,-0.85864,0.00796115,0.0941386,-0.000908792
0.393728,0.159368,-1.41386,2.03154,-1.88833,-0.854835,0.024441,0.0901975,0.0248808
0.360396,0.191004,-1.44628,2.08409,-2.08749,-0.971329,0.00310293,0.0483043,0.0780261
0.323727,0.22256,-1.48105,2.02118,-2.22998,-1.19542,-0.0265959,0.0187161,0.0902614
0.289458,0.251303,-1.5174,1.75252,-2.02156,-1.25476,0.0256567,-0.00575843,0.0679125
0.258534,0.274592,-1.54816,1.3156,-1.9095,-0.92912,0.116098,0.0548759,0.105535
0.227602,0.291515,-1.56757,0.779948,-1.72968,-0.487707,0.109913,0.0912057,0.182116
0.198309,0.29983,-1.57718,0.232478,-1.50668,-0.284636,0.0150702,0.0542384,0.195405
0.171443,0.298501,-1.58373,-0.22507,-1.39613,-0.405237,-0.0423938,0.0504814,0.172388
0.147015,0.289104,-1.59416,-0.518312,-1.37317,-0.711683,-0.0713306,0.0644976,0.104547
0.125052,0.275516,-1.60792,-0.647863,-1.16456,-0.737243,0.0380736,0.0821325,0.0390907
0.106589,0.259938,-1.61936,-0.775026,-1.02403,-0.529354,0.0691683,0.0135818,0.0537253
0.0871293,0.242763,-1.62671,-0.861805,-1.1277,-0.377803,0.0427145,0.0120382,0.0984345
0.0659234,0.224436,-1.6333,-0.91911,-1.11687,-0.430841,0.00689767,0.016761,0.100228
0.0476527,0.205052,-1.64213,-0.975522,-0.868084,-0.519769,-0.0267698,0.0177961,0.0732608
0.0360441,0.185348,-1.65018,-0.926299,-0.461112,-0.312373,0.070248,0.0629657,-0.0243275
0.0297411,0.169691,-1.65347,-0.593901,-0.253304,-0.0714462,0.0909602,0.0260101,-0.137953
0.0253061,0.162897,-1.65293,-0.0719252,-0.208736,0.091081,0.0802104,0.0165633,-0.1666
0.0206877,0.166459,-1.65088,0.382216,-0.22416,0.0968751,0.02443,-0.0017588,-0.122615
0.0154345,0.17614,-1.64959,0.548798,-0.282768,0.0445332,-0.00486493,-0.0196243,-0.0338088
0.0102444,0.187159,-1.64968,0.52394,-0.201154,-0.045274,-0.0175116,-0.00872564,-0.0277686
0.00868369,0.195379,-1.65191,0.269784,0.00534379,-0.17557,-0.0647928,-0.0340572,-0.024266
0.0105221,0.197158,-1.65659,-0.0962344,0.0762018,-0.282329,-0.0560792,-0.0378053,-0.0035426
0.0129341,0.191038,-1.66324,-0.480332,-0.024296,-0.36982,-0.0433076,-0.0519436,0.0155849
0.0113818,0.179646,-1.67062,-0.619448,-0.233497,-0.352805,-0.0147842,-0.0753168,-0.017774
0.00800529,0.167431,-1.67705,-0.57776,-0.180807,-0.289926,-0.0232131,-0.0761323,-0.0719837
0.0066008,0.157583,-1.68221,-0.368319,-0.0644934,-0.240606,-0.0367467,-0.0814561,-0.0867376
0.00680521,0.153272,-1.68657,-0.0596872,0.0196104,-0.188917,-0.0480767,-0.0636814,-0.077481
0.00857114,0.154746,-1.69031,0.178642,0.0778444,-0.214032,-0.0581207,-0.0299378,-0.0486677
0.0113779,0.15859,-1.69659,0.168863,0.124633,-0.420816,-0.0838362,-0.0121484,0.0291046
0.016356,0.159799,-1.70678,-0.03899,0.188225,-0.552443,-0.0776246,-0.027831,0.0710506
0.0195898,0.158074,-1.71787,-0.0743347,-0.0788997,-0.535771,-0.0324669,-0.0501033,0.0555802
0.0172464,0.157073,-1.72789,-0.0244792,-0.259127,-0.454058,0.0215563,-0.0676624,0.0557187
0.0172464,0.157073,-1.72789,-0.0244792,-0.259127,-0.454058,0.0215563,-0.0676624,0.0557187
0.0130244,0.15599,-1.7362,-0.0916696,-0.27512,-0.374359,0.00877109,-0.0722421,0.0876127
0.0099036,0.153295,-1.74295,-0.158987,-0.121262,-0.296149,0.000756504,-0.0802455,0.077916
0.00924532,0.150311,-1.74781,-0.122546,-0.0407075,-0.177293,0.00996304,-0.062245,0.0285535
0.0094707,0.149034,-1.7506,0.0104137,0.0323734,-0.121083,-0.00117162,-0.0230255,-0.050665
0.0116983,0.150428,-1.75373,0.117554,0.128649,-0.208235,-0.0223997,-0.0326799,-0.0707478
0.0146814,0.152738,-1.7588,0.0944554,0.0764374,-0.256182,-5.99511e-05,-0.0331583,-0.0274801
0.0167814,0.153242,-1.7628,-0.0529421,0.0946914,-0.13634,0.0272087,-0.0630709,-0.0112779
0.0198243,0.150855,-1.76459,-0.161443,0.162523,-0.051798,0.0201971,-0.0586861,-0.0372165
0.0214239,0.147745,-1.76406,-0.147699,0.00862864,0.094904,0.0190943,-0.0649348,-0.0625588
0.0190882,0.145363,-1.76142,-0.104584,-0.158412,0.145703,0.0198563,-0.0315552,-0.0600432
0.0156738,0.143416,-1.75885,-0.0944251,-0.188076,0.0902262,0.00717755,-0.0153392,-0.0529295
0.010377,0.142358,-1.75783,-0.0210519,-0.324079,0.00905666,0.00425455,-0.0154858,-0.00849068
0.00265322,0.142539,-1.75848,0.0158431,-0.47881,-0.0629862,0.00146303,-0.0347012,0.0608237
-0.00850786,0.142365,-1.76022,-0.0489956,-0.631952,-0.104249,-0.0146344,-0.0566932,0.136667
-0.0197423,0.140395,-1.7626,-0.151888,-0.481116,-0.12285,-0.0121763,-0.0633736,0.157769
-0.0260162,0.136898,-1.76518,-0.193188,-0.153002,-0.12557,-0.0204795,-0.0481454,0.115629
-0.0254851,0.133624,-1.76806,-0.117117,0.120054,-0.15675,-0.0358563,-0.0379156,0.0596724
-0.0223999,0.133157,-1.77133,0.0589259,0.12798,-0.160348,-0.0253161,-0.0369601,0.0352869
-0.0187777,0.135486,-1.77428,0.140075,0.211708,-0.129015,-0.0193899,-0.0573571,0.03717
-0.0138331,0.137917,-1.77616,0.0807215,0.24827,-0.0662887,-0.00172537,-0.061693,0.0492477
-0.00886439,0.137884,-1.7774,-0.100343,0.214307,-0.0666233,-0.0149473,-0.0616954,0.0626596
-0.00539921,0.134075,-1.77875,-0.2537,0.113107,-0.0496972,-0.0338186,-0.0704275,0.0418837
-0.00291715,0.128334,-1.77954,-0.310192,0.115565,-0.0481412,-0.033377,-0.0488671,-0.0254397
-0.00207603,0.123256,-1.78103,-0.172222,-0.0498038,-0.10358,-0.0535275,-0.0438654,-0.0873461
-0.00450906,0.121604,-1.78415,-0.0234527,-0.247653,-0.209227,-0.0610455,-0.0272857,-0.0883273
-0.0108689,0.121632,-1.7891,-0.000780813,-0.422332,-0.279254,-0.0612331,-0.0577904,-0.0269627
-0.0185271,0.121405,-1.79513,-0.0220128,-0.39565,-0.320529,-0.0555544,-0.0828112,0.00350118
-0.0242349,0.121763,-1.80147,0.0622055,-0.226175,-0.303003,-0.0296426,-0.0952579,-0.004659
-0.0254965,0.124672,-1.8072,0.207942,0.0211918,-0.284286,-0.0193056,-0.102625,-0.0143248
-0.0225385,0.129403,-1.81259,0.231088,0.185567,-0.254009,0.0188539,-0.0969101,0.0114526
-0.0179394,0.133665,-1.81675,0.193128,0.186672,-0.144566,0.0739918,-0.0990171,0.0106503
-0.0137771,0.136877,-1.8188,0.102693,0.226964,-0.0898062,0.0705173,-0.115396,-0.0102406
-0.00900386,0.137893,-1.81986,0.0122022,0.206784,-0.0018402,0.106071,-0.0802098,-0.00426811
-0.00558064,0.138226,-1.8187,0.0232316,0.176133,0.112616,0.128147,-0.0741739,-0.0208601
-0.00228729,0.139134,-1.8152,0.0714762,0.20363,0.230809,0.130164,-0.0566116,-0.0323865
0.000845355,0.141581,-1.80965,0.177109,0.163418,0.314557,0.11278,-0.0372517,-0.0504115
0.00171679,0.146395,-1.80297,0.292759,0.0143663,0.342829,0.0832167,-0.0185099,-0.0467089
0.000240856,0.15281,-1.7962,0.33252,-0.0465179,0.324517,0.0374206,-0.0157677,-0.0208844
-0.00159519,0.159273,-1.78966,0.293106,-0.0114793,0.335119,0.0186343,-0.0288381,0.00226462
-0.001984,0.164042,-1.78215,0.169156,0.0801581,0.422764,0.0340466,-0.039879,0.0101329
-0.00170059,0.165771,-1.77226,-0.0102712,0.105709,0.564693,0.043288,-0.0453298,0.0141831
-0.0013126,0.163136,-1.75948,-0.269903,0.151198,0.691886,0.0336133,-0.0502331,0.0098238
0.000352864,0.155488,-1.74482,-0.473509,0.233809,0.745252,0.00601429,-0.0225063,-0.0327854
0.00278973,0.14603,-1.72996,-0.442046,0.237302,0.711329,-0.0142347,0.0274083,-0.101727
0.00553883,0.139717,-1.71654,-0.166343,0.222362,0.616494,-0.0399087,0.0549127,-0.168833
0.0078902,0.140053,-1.70525,0.188524,0.1722,0.51118,-0.0526127,0.0622635,-0.155101
0.0105936,0.146314,-1.6959,0.403953,0.272027,0.424446,-0.0671666,0.0381721,-0.0849895
0.0167187,0.155503,-1.6883,0.481142,0.432792,0.346313,-0.0775209,0.0218971,-0.0299045
0.0248832,0.164705,-1.68188,0.409507,0.476181,0.315914,-0.0448076,0.0138607,0.0149242
0.0332219,0.171251,-1.67531,0.214297,0.480029,0.373769,0.00857563,-0.00727385,0.014919
0.0416785,0.173864,-1.66684,0.0180644,0.513666,0.469676,0.0486071,-0.00894117,-0.0339217
0.0490737,0.172698,-1.65628,-0.177561,0.365725,0.565406,0.0762179,0.0282408,-0.0561767
0.0507146,0.168894,-1.64423,-0.244922,0.0221239,0.596958,0.0909586,0.071275,-0.0866173
0.0468941,0.164734,-1.63193,-0.205496,-0.224932,0.597208,0.0833354,0.0890995,-0.0893446
0.0468941,0.164734,-1.63193,-0.205496,-0.224932,0.597208,0.0833354,0.0890995,-0.0893446
0.0383569,0.16292,-1.61959,-0.0114097,-0.395075,0.609561,0.075762,0.110839,-0.0613006
0.0284297,0.165611,-1.6074,0.241885,-0.383607,0.616234,0.0545436,0.10971,0.00111699
0.0194667,0.173204,-1.59464,0.483774,-0.303724,0.672619,0.0499633,0.118614,0.0887786
0.00713303,0.184764,-1.57999,0.610479,-0.889659,0.770782,0.0368574,0.15602,0.2312
-0.0181789,0.194201,-1.56604,0.244006,-1.18072,0.56665,-0.0537428,0.116811,0.32244
-0.0379894,0.192771,-1.55724,-0.311987,-0.637834,0.310773,-0.110047,0.0341389,0.290492
-0.0488028,0.184482,-1.55297,-0.451917,-0.432259,0.168088,-0.101764,0.0268817,0.21059
-0.05711,0.175237,-1.55056,-0.470867,-0.339122,0.126367,-0.0688257,0.0608928,0.131624
-0.0623036,0.165122,-1.54881,-0.516687,-0.144452,0.109219,-0.0528872,0.0556992,0.0604581
-0.0638899,0.155153,-1.54743,-0.452279,-0.0214584,0.0926886,-0.0385745,0.0613612,-0.0238087
-0.065393,0.147306,-1.5465,-0.32961,-0.174523,0.0388311,-0.0326056,0.0954583,-0.0925034
-0.0739344,0.14134,-1.54739,-0.298389,-0.750262,-0.100253,-0.0432788,0.142579,-0.132931
-0.0937774,0.134377,-1.55127,-0.450527,-1.23219,-0.218085,-0.0901876,0.0875708,-0.107836
-0.118505,0.124258,-1.5573,-0.602055,-1.21184,-0.273603,-0.0867849,0.000922218,-0.0702115
-0.137551,0.113422,-1.56515,-0.543871,-0.734147,-0.358954,-0.0736172,0.00623033,-0.0483418
-0.14487,0.105935,-1.57339,-0.293022,-0.110593,-0.330367,-0.0401002,0.00629508,-0.0220496
-0.141033,0.104402,-1.5802,0.0390008,0.40265,-0.33624,-0.00975101,0.00225325,0.0173495
-0.129454,0.108069,-1.58725,0.180736,0.636438,-0.422129,-0.0137659,0.00571621,0.059334
-0.115417,0.111973,-1.59669,0.0560026,0.64206,-0.567406,-0.00550925,0.0088191,0.106419
-0.103095,0.111739,-1.60986,-0.234878,0.40818,-0.738624,0.00359165,0.00272634,0.11808
-0.096418,0.105599,-1.6269,-0.537664,0.0777116,-0.880017,0.0442798,0.00904322,0.0742836
-0.0954286,0.0945371,-1.64619,-0.726007,-0.147924,-0.906934,0.0985204,0.0041864,0.00730157
-0.0973476,0.0813039,-1.66472,-0.745037,-0.17133,-0.797219,0.126338,-0.0121694,-0.0635032
-0.098195,0.0691347,-1.68074,-0.602938,-0.0128045,-0.693719,0.110697,-0.00185844,-0.112831
-0.0951502,0.0610367,-1.69526,-0.332012,0.219253,-0.690539,0.0538751,0.0203189,-0.149276
-0.0882978,0.0588402,-1.71012,-0.0306311,0.352291,-0.782896,0.0254542,0.046294,-0.133809
-0.0802136,0.062067,-1.72711,0.196561,0.337853,-0.945004,0.0118123,0.0578767,-0.0855638
-0.0727748,0.068439,-1.74685,0.250842,0.268898,-1.04981,0.0260468,0.042995,-0.0207593
-0.0671885,0.0737788,-1.76769,0.12724,0.141935,-1.07381,0.0493314,0.030499,0.0436286
-0.0631503,0.0763068,-1.78939,-0.00989381,0.123763,-1.1028,0.0494054,0.0199126,0.072724
-0.0600511,0.0765799,-1.81127,-0.067038,-0.0440168,-1.0622,0.0303134,-0.0239741,0.0834983
-0.0614806,0.0773163,-1.83096,0.028916,-0.213759,-0.892645,0.0949192,-0.0169837,0.0146144
-0.0686432,0.0809549,-1.84774,0.219993,-0.522584,-0.80687,0.0526633,-0.0330251,0.0189901
-0.07509,0.0872515,-1.86235,0.290568,-0.208548,-0.692516,0.0882839,0.0354593,0.00204057
-0.0761352,0.0947662,-1.87458,0.378769,-0.0813919,-0.584742,0.0822207,0.0507859,0.0204154
-0.0772873,0.104307,-1.88475,0.481318,-0.0849141,-0.517178,0.0894555,0.0515058,0.0285985
-0.0746397,0.114873,-1.89456,0.486296,0.277613,-0.56102,0.0721868,0.0470699,0.0192384
-0.0637858,0.124536,-1.90607,0.390729,0.654026,-0.644055,0.061784,0.0477678,0.0161927
-0.0487318,0.131981,-1.91913,0.277139,0.685288,-0.691781,0.128367,0.0922002,-0.0532697
-0.0334668,0.136824,-1.93317,0.164249,0.650441,-0.729126,0.13294,0.0895069,-0.0552496
-0.0169462,0.139999,-1.94854,0.131103,0.794097,-0.816014,0.125193,0.101593,-0.126457
-6.14573e-05,0.143578,-1.96586,0.229095,0.61224,-0.904363,0.0904691,0.112369,-0.127096
0.0120074,0.148989,-1.98435,0.307923,0.305846,-0.902917,0.0961429,0.115906,-0.0906326
0.0176907,0.154346,-2.00227,0.238788,-0.0180907,-0.880774,0.0952067,0.0999468,-0.0155519
0.0170184,0.156996,-2.02073,0.0521438,-0.340055,-0.944549,0.0472328,0.0575514,0.0655613
0.0105623,0.155782,-2.03976,-0.134799,-0.580973,-0.927192,0.0361203,0.0515607,0.12547
0.00136993,0.151653,-2.05811,-0.249285,-0.592586,-0.899333,0.0101051,0.0366008,0.145184
-0.00650297,0.146185,-2.0761,-0.288791,-0.445612,-0.888299,-0.0179958,0.0187571,0.14419
-0.0109601,0.140963,-2.09393,-0.240462,-0.268394,-0.869902,-0.0345285,0.00685997,0.13498
-0.0125813,0.136769,-2.11115,-0.198964,-0.139055,-0.838661,-0.0514098,-0.00571635,0.127653
-0.0120333,0.133103,-2.12776,-0.195571,-0.0406675,-0.799778,-0.0524503,-0.0206706,0.119348
-0.0108504,0.128984,-2.14299,-0.245546,-0.0630153,-0.707904,-0.0539525,-0.0334673,0.0871853
-0.0110557,0.123434,-2.15624,-0.317022,-0.137243,-0.608986,-0.0530393,-0.0419645,0.0305086
-0.0135704,0.116804,-2.16758,-0.365983,-0.251007,-0.505778,-0.0645407,-0.0476004,-0.0164267
-0.0135704,0.116804,-2.16758,-0.365983,-0.251007,-0.505778,-0.0645407,-0.0476004,-0.0164267
-0.018625,0.108847,-2.17666,-0.446956,-0.355222,-0.39309,-0.0908003,-0.0395916,-0.045275
-0.0264824,0.0997902,-2.18447,-0.458537,-0.52421,-0.389164,-0.124669,-0.00868222,-0.0925431
-0.0373603,0.0916055,-2.1934,-0.379839,-0.635662,-0.475782,-0.155127,0.0164804,-0.116445
-0.0495455,0.0853826,-2.20385,-0.305181,-0.675899,-0.525353,-0.178042,0.00829832,-0.113569
-0.0619474,0.0799469,-2.2148,-0.307551,-0.638126,-0.546618,-0.186825,-0.00232208,-0.0891514
-0.0723245,0.0745201,-2.22665,-0.303851,-0.48159,-0.606097,-0.188117,0.0102116,-0.0766409
-0.0788549,0.0701008,-2.23981,-0.22202,-0.259199,-0.665483,-0.175235,0.0150812,-0.0836504
-0.080699,0.0683173,-2.25357,-0.0625041,-0.0299645,-0.688214,-0.162603,0.0155756,-0.0999704
-0.0785669,0.069604,-2.26736,0.0652433,0.140193,-0.695451,-0.142529,0.0234357,-0.0987298
-0.0741116,0.0722061,-2.28097,0.0734282,0.19121,-0.674702,-0.115068,0.0240934,-0.0878783
-0.0702777,0.0736176,-2.29353,-0.0401512,0.0831775,-0.582555,-0.0797354,0.0195045,-0.0728888
-0.0690809,0.0719176,-2.30467,-0.19833,-0.0399761,-0.531516,-0.0825502,0.0281087,-0.0648546
-0.0700527,0.0677986,-2.31564,-0.273982,-0.123245,-0.53875,-0.0826312,0.0514503,-0.0682821
-0.0724616,0.0631595,-2.32719,-0.251072,-0.197039,-0.585843,-0.0718349,0.0721354,-0.0720262
-0.0763574,0.0601333,-2.34005,-0.137921,-0.26084,-0.676307,-0.0537527,0.0860675,-0.0606394
-0.0804531,0.0598024,-2.35456,-0.00782844,-0.225463,-0.770734,-0.0482258,0.0911999,-0.0272485
-0.0832011,0.0622631,-2.3707,0.120367,-0.14358,-0.861851,-0.0233181,0.085813,0.0126914
-0.0835609,0.0671562,-2.38803,0.210744,0.0101656,-0.897885,0.0013664,0.0702948,0.0510425
-0.0805787,0.0727866,-2.4053,0.200178,0.159585,-0.866428,0.0248279,0.0464467,0.0841582
-0.0748391,0.0778089,-2.42168,0.175217,0.298398,-0.796031,0.0455818,0.0289939,0.08476
-0.0667848,0.0822399,-2.43619,0.166045,0.376645,-0.672812,0.054562,0.0203491,0.0566849
-0.0584461,0.0859764,-2.44802,0.132166,0.354916,-0.534096,0.0736237,0.0176332,0.0385963
-0.050799,0.0884248,-2.45691,0.0644601,0.340725,-0.356835,0.0783345,0.00415733,0.0128898
-0.0441638,0.0893454,-2.46177,0.021227,0.273647,-0.133463,0.0807775,-0.000449337,-0.0408027
-0.0398132,0.0899401,-2.46253,0.0555294,0.156606,0.0419359,0.069366,0.020666,-0.0868471
-0.0381392,0.0916724,-2.46046,0.129216,0.0377677,0.141529,0.0325072,0.0412205,-0.105845
-0.0384368,0.0945306,-2.45688,0.17031,-0.0220074,0.197036,-0.00373645,0.0426168,-0.0984464
-0.039436,0.0982921,-2.45247,0.224998,-0.0310574,0.220378,-0.0224558,0.0516098,-0.0807806
-0.0404565,0.103172,-2.44768,0.279288,-0.0133867,0.240956,-0.0238107,0.0555194,-0.0528997
-0.0409382,0.10877,-2.44199,0.297836,0.0287626,0.313729,-0.0228832,0.039861,-0.0268689
-0.0409277,0.114414,-2.4344,0.292871,0.0443653,0.420272,-0.019181,0.0346047,-0.00613403
-0.0414622,0.119504,-2.42487,0.2499,0.0066507,0.502632,-0.0276777,0.0411101,0.0198314
-0.0432506,0.123767,-2.41388,0.23537,-0.0663576,0.56689,-0.0423139,0.0554738,0.0210399
-0.0469409,0.127863,-2.40209,0.226186,-0.134111,0.579078,-0.0685259,0.0548675,0.0387331
-0.0509618,0.131548,-2.39022,0.199589,-0.111764,0.579331,-0.0801004,0.0659219,0.071967
-0.0542116,0.134663,-2.37855,0.177627,-0.0506772,0.556632,-0.0979779,0.0683689,0.0954937
-0.0558752,0.13746,-2.36754,0.162491,0.035452,0.518403,-0.111139,0.0715826,0.108528
-0.0559302,0.139673,-2.35732,0.109858,0.0975566,0.478848,-0.119845,0.0718976,0.122579
-0.0549705,0.140371,-2.34806,0.0166309,0.116593,0.430549,-0.129146,0.0720237,0.122336
-0.0543047,0.139545,-2.34002,-0.0400449,0.0722801,0.370565,-0.13526,0.0704284,0.0964856
-0.0541843,0.138496,-2.3332,-0.0162498,0.0331361,0.312955,-0.140285,0.0748824,0.070331
-0.0545274,0.138176,-2.3274,0.0141514,0.0198146,0.266774,-0.150395,0.0678977,0.0615675
-0.0547949,0.138113,-2.32248,0.00472115,0.0230005,0.223509,-0.158187,0.0622501,0.0634081
-0.0545344,0.137551,-2.31838,-0.040066,0.0668939,0.18414,-0.171502,0.0623952,0.0541152
-0.0535931,0.136312,-2.31543,-0.0588907,0.0502544,0.107341,-0.164062,0.0769609,0.0249002
-0.0534609,0.135085,-2.31418,-0.0579091,-0.00785141,0.0268865,-0.150863,0.0784763,0.00473303
-0.0538411,0.13361,-2.31424,-0.0862577,0.0205036,-0.0278387,-0.128504,0.0593757,-0.00171226
-0.0535214,0.130988,-2.31499,-0.168691,0.0806267,-0.028785,-0.0803395,0.0361159,-0.00583589
-0.0522287,0.125905,-2.31497,-0.320059,0.104689,0.0526509,-0.0161404,0.0152054,-0.0276704
-0.0513959,0.117663,-2.31359,-0.482415,0.0189039,0.11361,0.0141528,0.00281382,-0.0549176
-0.0522513,0.107049,-2.31197,-0.538489,-0.0844503,0.0823335,0.00577073,-0.00249946,-0.0924695
-0.0565527,0.0973691,-2.312,-0.410662,-0.368834,-0.0505544,0.0121722,-0.000151001,-0.111247
-0.067173,0.0909644,-2.31533,-0.264192,-0.718405,-0.24812,0.0234643,-0.0148281,-0.0571768
-0.0829827,0.0863178,-2.3226,-0.271128,-0.894082,-0.433174,0.0398085,-0.0725418,0.0353444
-0.0829827,0.0863178,-2.3226,-0.271128,-0.894082,-0.433174,0.0398085,-0.0725418,0.0353444
-0.0994254,0.0808381,-2.33279,-0.378349,-0.800748,-0.511261,0.0582118,-0.137908,0.103308
-0.111778,0.0727087,-2.34398,-0.553946,-0.49119,-0.517015,0.0689078,-0.179003,0.133925
-0.116425,0.0615032,-2.35604,-0.679819,-0.0587819,-0.559819,0.0717076,-0.195524,0.0953715
-0.113013,0.0490257,-2.3691,-0.701853,0.325115,-0.588159,0.0946471,-0.191701,0.00617516
-0.102701,0.0364361,-2.38188,-0.690773,0.634984,-0.53871,0.118352,-0.199213,-0.0986875
-0.0881784,0.0240956,-2.3929,-0.635195,0.755784,-0.447927,0.135509,-0.188782,-0.206063
-0.0734348,0.0136615,-2.40242,-0.461505,0.675904,-0.428093,0.114912,-0.150356,-0.30038
-0.0630787,0.0080317,-2.41169,-0.156784,0.31443,-0.476898,0.121766,-0.0966895,-0.341438
-0.0609319,0.00854615,-2.42237,0.139102,-0.0893573,-0.605776,0.107599,-0.0760182,-0.294464
-0.0649028,0.0145356,-2.43531,0.366771,-0.277622,-0.717441,0.105683,-0.0710973,-0.184523
-0.0703797,0.0245768,-2.44946,0.531101,-0.289467,-0.757344,0.12897,-0.0735702,-0.0745542
-0.0754437,0.0371403,-2.46352,0.604318,-0.244669,-0.733788,0.148349,-0.0802847,0.0230486
-0.0784061,0.050309,-2.47667,0.600482,-0.108439,-0.679005,0.144877,-0.0873771,0.0943909
-0.0789252,0.0629893,-2.48863,0.564788,-0.0203036,-0.617001,0.153196,-0.0769603,0.149604
-0.0776232,0.0742046,-2.49951,0.463028,0.0822859,-0.552257,0.152756,-0.0757659,0.187437
-0.0742326,0.0829472,-2.509,0.343616,0.185192,-0.451163,0.152553,-0.0892213,0.187848
-0.0688175,0.0889897,-2.51603,0.202954,0.301547,-0.288358,0.149088,-0.0899455,0.179766
-0.0615639,0.0913906,-2.52,0.0100686,0.371951,-0.129396,0.1218,-0.0867304,0.155729
-0.0542454,0.0900477,-2.5216,-0.145542,0.331783,-0.023965,0.104521,-0.0641572,0.109016
-0.0482659,0.0859851,-2.52131,-0.262542,0.275263,0.0713071,0.0727576,-0.0490696,0.0570197
-0.0432796,0.079692,-2.51973,-0.34971,0.232092,0.101763,0.037483,-0.0282568,0.00680286
-0.039671,0.0724921,-2.51811,-0.349788,0.135696,0.0853526,0.0199488,-0.0130969,-0.0506828
-0.0379427,0.066042,-2.51692,-0.281857,0.0467492,0.0592198,0.00333548,-0.00904869,-0.0902089
-0.037985,0.0616397,-2.51643,-0.153249,-0.0495355,0.00426889,-0.0162955,-0.0108176,-0.107706
-0.0393738,0.0598307,-2.51716,-0.0317321,-0.0912855,-0.0781538,-0.0303479,-0.00349849,-0.103088
-0.0414722,0.0606115,-2.51988,0.0925947,-0.133991,-0.188775,-0.0261207,-0.00619808,-0.0828032
-0.0437465,0.0633711,-2.52417,0.151718,-0.113426,-0.245049,-0.00846398,-0.0166884,-0.0427417
-0.045044,0.0666102,-2.52911,0.151076,-0.0517072,-0.260547,0.0143808,-0.0326517,-0.0178934
-0.0456609,0.0699143,-2.53425,0.159972,-0.0501006,-0.269257,0.033769,-0.0328191,-0.0151863
-0.0463202,0.0735061,-2.53979,0.171764,-0.0558143,-0.300331,0.0434778,-0.0278479,-0.0110027
-0.0472287,0.0773371,-2.54578,0.184956,-0.0890613,-0.316261,0.0593991,-0.0314741,-0.00860208
-0.0488594,0.0815993,-2.55208,0.213627,-0.111755,-0.332113,0.0823535,-0.0292548,0.00479108
-0.0502476,0.0864426,-2.5585,0.234474,-0.0824088,-0.326239,0.0920769,-0.0384056,0.0229629
-0.051136,0.0915269,-2.56456,0.240182,-0.0631773,-0.302136,0.104122,-0.0422831,0.044943
-0.0514507,0.0964475,-2.57011,0.216492,-0.00768667,-0.269119,0.112224,-0.046509,0.0681016
-0.0501403,0.100179,-2.5745,0.125773,0.0958725,-0.179033,0.120394,-0.0615944,0.0813671
-0.0468676,0.101555,-2.57678,-0.00442495,0.204769,-0.0557159,0.129449,-0.0646353,0.0709953
-0.0417578,0.100247,-2.57702,-0.128967,0.28381,0.0380809,0.128618,-0.0477781,0.037035
-0.0363193,0.0967782,-2.57569,-0.203112,0.250834,0.10032,0.125299,-0.0317145,-0.0162458
-0.0330096,0.092905,-2.57357,-0.165918,0.0837745,0.117742,0.122201,-0.0188467,-0.0576656
-0.0333433,0.0905532,-2.57144,-0.0580365,-0.111112,0.0944894,0.108091,-0.0164279,-0.0645415
-0.0371592,0.090801,-2.57015,0.0837663,-0.24709,0.036173,0.106227,-0.0155402,-0.0263982
-0.0422164,0.0936113,-2.56996,0.17407,-0.249714,-0.019671,0.114315,-0.0255592,0.0503376
-0.0458852,0.0970056,-2.57033,0.15086,-0.131749,-0.0198762,0.130172,-0.0535829,0.116459
-0.0469487,0.0993606,-2.57009,0.0785328,0.0156279,0.0398106,0.150002,-0.0752566,0.142775
-0.0450907,0.0996676,-2.56835,-0.0477161,0.1718,0.136547,0.150885,-0.0867461,0.143318
-0.0410822,0.0971949,-2.56481,-0.18573,0.235405,0.229478,0.1481,-0.0862619,0.110346
-0.037255,0.0920715,-2.55941,-0.310168,0.179459,0.332502,0.146601,-0.0899433,0.0588095
-0.0350171,0.0847311,-2.55217,-0.396382,0.0887617,0.406288,0.111865,-0.0899155,0.00102013
-0.0353395,0.0764546,-2.54429,-0.395371,-0.0591402,0.396306,0.0725671,-0.0743615,-0.041233
-0.0380691,0.0688636,-2.5374,-0.331705,-0.15825,0.316214,0.0320951,-0.06646,-0.0672562
-0.0420126,0.0631248,-2.53234,-0.218275,-0.192282,0.211121,-0.00787289,-0.0763367,-0.074665
-0.0459288,0.0599988,-2.52938,-0.0793669,-0.182052,0.104787,-0.0212019,-0.0818677,-0.070067
-0.0497332,0.0597023,-2.52812,0.0521218,-0.204237,0.0258983,-0.0130132,-0.0895946,-0.0594734
-0.0497332,0.0597023,-2.52812,0.0521218,-0.204237,0.0258983,-0.0130132,-0.0895946,-0.0594734
-0.0536812,0.0617781,-2.52812,0.14101,-0.189017,-0.0320886,-0.0108848,-0.0997908,-0.0298957
-0.0569489,0.0648596,-2.52888,0.140792,-0.16064,-0.0552807,-0.015986,-0.111028,-0.00838953
-0.0601924,0.0673499,-2.53007,0.09385,-0.197886,-0.078542,-0.0157402,-0.116905,-0.0108642
-0.0639356,0.0687755,-2.53154,0.0161429,-0.141233,-0.0665703,-0.00345869,-0.113392,-0.0122455
-0.0628423,0.0671449,-2.53201,-0.22228,0.298952,0.0468605,0.0261757,-0.0916275,-0.022747
-0.0515938,0.0599935,-2.53001,-0.462183,0.781232,0.184694,0.0447795,-0.0497532,-0.1371
-0.035354,0.0508945,-2.52611,-0.389434,0.775505,0.230733,0.0559307,0.0209958,-0.294888
-0.0237438,0.0463276,-2.52237,-0.0145663,0.346154,0.129759,0.0422403,0.0782629,-0.355938
-0.0245477,0.0515546,-2.52239,0.54782,-0.465735,-0.174001,0.0241769,0.122699,-0.297284
-0.0403585,0.0675483,-2.52912,0.994241,-1.06791,-0.529928,0.010745,0.117576,-0.104198
-0.0618558,0.0898002,-2.54066,1.13002,-1.09664,-0.713694,0.0465831,0.0860327,0.101854
-0.0791066,0.112593,-2.55362,1.02815,-0.716494,-0.703078,0.0945302,0.0227403,0.25823
-0.0865265,0.131623,-2.56415,0.773281,-0.151027,-0.467376,0.141442,-0.0459266,0.332963
-0.0838988,0.144214,-2.56894,0.434243,0.331741,-0.106928,0.150176,-0.0824205,0.339867
-0.0738604,0.148905,-2.567,0.0401732,0.65408,0.258297,0.124826,-0.08483,0.300722
-0.0614177,0.145369,-2.55915,-0.33635,0.65458,0.517327,0.0802782,-0.045481,0.225334
-0.0519935,0.134874,-2.54781,-0.638161,0.424241,0.650062,0.0227963,-0.00770028,0.143479
-0.0484257,0.119346,-2.5351,-0.837258,0.0929884,0.672226,-0.0436429,0.0199421,0.0804374
-0.0509847,0.101315,-2.52328,-0.881132,-0.200463,0.578125,-0.114704,0.039222,0.0373872
-0.0574335,0.0843132,-2.51419,-0.742632,-0.341112,0.417134,-0.18563,0.0429535,0.00481457
-0.0652979,0.0716226,-2.50847,-0.492896,-0.385771,0.222172,-0.236292,0.0282721,-0.000874758
-0.0728025,0.0635726,-2.50667,-0.323723,-0.33661,0.0196614,-0.254649,0.00972732,0.0295771
-0.0779829,0.0579444,-2.50843,-0.259399,-0.184768,-0.146506,-0.261308,-0.0137433,0.0495784
-0.0792916,0.0536735,-2.51297,-0.212331,0.0351437,-0.256115,-0.260261,-0.0342887,0.0314028
-0.076333,0.0499349,-2.51885,-0.212913,0.204804,-0.302201,-0.247002,-0.0357182,-0.00445998
-0.0714579,0.0460825,-2.52585,-0.229678,0.231172,-0.369527,-0.238463,-0.0248567,-0.0655006
-0.0669874,0.0415698,-2.5338,-0.278409,0.179705,-0.389916,-0.215011,-0.0140299,-0.125373
-0.0635066,0.0362277,-2.54191,-0.300217,0.152039,-0.386267,-0.198449,-0.000645503,-0.180512
-0.0598183,0.0315197,-2.55003,-0.197339,0.185646,-0.40028,-0.190934,0.0205587,-0.250942
-0.0561588,0.0304579,-2.55851,0.0509441,0.137671,-0.446538,-0.180179,0.053494,-0.296305
-0.0545317,0.035142,-2.56804,0.358684,-0.0306165,-0.536859,-0.170505,0.0825591,-0.288343
-0.0570489,0.045024,-2.57914,0.539025,-0.262356,-0.622637,-0.146775,0.0850631,-0.208907
-0.0633278,0.0568118,-2.59119,0.547016,-0.406521,-0.644202,-0.117465,0.0621523,-0.0982038
-0.0708755,0.0679518,-2.60297,0.487732,-0.400647,-0.602422,-0.0829727,0.0473764,-0.0174469
-0.0769552,0.0781558,-2.61373,0.458927,-0.269626,-0.542648,-0.0643924,0.0400209,0.0238278
-0.080175,0.0881548,-2.6231,0.474817,-0.148478,-0.476701,-0.0451914,0.0507787,0.0420351
-0.0822703,0.0985274,-2.63134,0.490914,-0.162745,-0.42987,-0.0323568,0.0566353,0.0510036
-0.0852569,0.108551,-2.63855,0.435308,-0.189092,-0.368435,-0.0166812,0.0556641,0.0786229
-0.0876807,0.116488,-2.64451,0.300377,-0.122935,-0.286117,-0.00665304,0.0630632,0.106259
-0.0894818,0.121575,-2.64899,0.183536,-0.13235,-0.212125,-0.0189479,0.0599502,0.0942232
-0.0930854,0.125268,-2.65277,0.161587,-0.294366,-0.209144,-0.045259,0.0737322,0.0712886
-0.100477,0.128968,-2.65722,0.153759,-0.496891,-0.278845,-0.0671206,0.0806982,0.0871269
-0.110329,0.1316,-2.66353,0.0189925,-0.535695,-0.3724,-0.0801773,0.0635177,0.145268
-0.118809,0.130923,-2.67161,-0.178431,-0.409739,-0.401859,-0.0728994,0.0268503,0.166322
-0.12466,0.126982,-2.67975,-0.303555,-0.291857,-0.344481,-0.0379794,0.01188,0.132002
-0.129058,0.121101,-2.68656,-0.365949,-0.243385,-0.251062,-0.01421,0.00232106,0.0809783
-0.133449,0.113666,-2.69167,-0.449706,-0.270728,-0.159018,-0.0100016,-0.00059247,0.0552546
-0.13932,0.104281,-2.69593,-0.5359,-0.368345,-0.144898,-0.0275034,0.00722959,0.0260076
-0.147322,0.0942017,-2.70103,-0.521763,-0.469181,-0.228845,-0.0601754,0.0191265,-0.0137836
-0.156604,0.0858615,-2.70846,-0.408782,-0.525961,-0.38672,-0.0726221,0.0249803,-0.040931
-0.16608,0.0809057,-2.71896,-0.256187,-0.473117,-0.566499,-0.0713679,0.00899433,-0.034457
-0.172141,0.0792437,-2.73212,-0.13219,-0.221494,-0.692852,-0.0655432,-0.0231647,-0.0179782
-0.172245,0.0804163,-2.74692,-0.0135002,0.0920201,-0.778137,-0.0518306,-0.0370715,-0.0111455
-0.172245,0.0804163,-2.74692,-0.0135002,0.0920201,-0.778137,-0.0518306,-0.0370715,-0.0111455
-0.167253,0.0840077,-2.76294,0.0960811,0.253137,-0.861041,-0.0372377,-0.0470573,-0.0217651
-0.160077,0.0897224,-2.78012,0.178372,0.313806,-0.920779,-0.0249474,-0.0554327,-0.0276507
-0.152334,0.0964826,-2.79788,0.199773,0.27855,-0.929353,-0.0149759,-0.0730396,-0.0314361
-0.146255,0.102665,-2.81556,0.134385,0.149811,-0.906758,-0.00749885,-0.079888,-0.0280925
-0.142786,0.106912,-2.83298,0.0407736,0.0344999,-0.87196,0.00480062,-0.0857657,-0.0304918
-0.140179,0.110024,-2.84973,0.0524681,0.0705073,-0.825746,0.00014247,-0.0861053,-0.0516696
-0.135877,0.114626,-2.86522,0.199236,0.186194,-0.768226,-0.014462,-0.0738416,-0.0715204
-0.129853,0.122044,-2.87954,0.329752,0.23642,-0.748671,-0.0279381,-0.0522853,-0.0552996
-0.123526,0.13064,-2.89361,0.329591,0.214538,-0.746031,-0.0308687,-0.046657,-0.0122612
-0.117709,0.138033,-2.90752,0.233389,0.193326,-0.715477,-0.0300114,-0.0494473,0.0293043
-0.112056,0.143275,-2.9212,0.143016,0.182047,-0.698531,-0.0250049,-0.054389,0.043788
-0.106281,0.147405,-2.93469,0.138332,0.208253,-0.666483,-0.00786239,-0.0582368,0.0392841
-0.100026,0.152131,-2.94703,0.207395,0.231143,-0.588913,0.00513864,-0.0631461,0.0379073
-0.0940178,0.15743,-2.95756,0.196,0.204199,-0.495182,0.0057891,-0.0640141,0.0737258
-0.0891085,0.161055,-2.96645,0.0659978,0.154242,-0.421901,-0.0117094,-0.0644486,0.113071
-0.0847212,0.161629,-2.97453,-0.0743129,0.166551,-0.380182,-0.0340673,-0.0612116,0.11691
-0.080034,0.160292,-2.98203,-0.10734,0.183128,-0.349174,-0.0427651,-0.0574803,0.083386
-0.0747311,0.159155,-2.98914,-0.0655032,0.251288,-0.347027,-0.064191,-0.051889,0.0595112
-0.0676913,0.158766,-2.99642,-0.0333234,0.341772,-0.366666,-0.0766437,-0.0533715,0.0493402
-0.0586296,0.158735,-3.00377,-0.0212313,0.450111,-0.353681,-0.0678883,-0.0612758,0.0283797
-0.0479371,0.159,-3.01036,0.003029,0.516339,-0.291288,-0.0466341,-0.0641271,-0.00340265
-0.0368526,0.159365,-3.01533,0.00780119,0.490939,-0.201812,-0.0437465,-0.0659793,-0.0361997
-0.0280222,0.159612,-3.01859,-0.00127997,0.333546,-0.13076,-0.0569018,-0.0573888,-0.0616521
-0.022955,0.159763,-3.02099,-0.00268761,0.152028,-0.108604,-0.0814348,-0.0449254,-0.0658058
-0.0203477,0.159517,-3.02323,-0.0392127,0.102458,-0.11159,-0.111122,-0.0432917,-0.0510625
-0.0173165,0.158401,-3.02549,-0.0815433,0.184224,-0.103174,-0.113043,-0.0383813,-0.0521571
-0.0123606,0.156574,-3.02715,-0.104611,0.273216,-0.0606311,-0.10243,-0.0357608,-0.0862218
-0.00716385,0.154663,-3.02839,-0.0870399,0.201498,-0.0665215,-0.0859088,-0.0217187,-0.131118
-0.00481555,0.153109,-3.02976,-0.0793564,0.00415789,-0.06549,-0.0555283,-0.0115202,-0.140021
-0.00669024,0.151196,-3.03128,-0.113464,-0.195027,-0.087278,-0.026162,-0.008681,-0.111574
-0.0113856,0.148394,-3.03305,-0.178036,-0.283703,-0.0733836,0.0245964,-0.015404,-0.0642006
-0.0173151,0.144083,-3.03381,-0.252995,-0.313913,0.00877201,0.0709221,-0.0337986,-0.0304383
-0.0238836,0.138497,-3.0328,-0.296205,-0.324517,0.0937051,0.0885788,-0.0391455,-0.012345
-0.0304127,0.133012,-3.03066,-0.22384,-0.297737,0.119564,0.0696139,-0.0264981,-0.0189044
-0.0366408,0.130049,-3.02866,-0.0647288,-0.302479,0.0819759,0.0456464,-0.00979821,-0.0306095
-0.0428736,0.129634,-3.02759,0.00382053,-0.298823,0.0245099,0.0592855,0.00753635,-0.0191896
-0.0472341,0.129868,-3.02788,0.0297047,-0.106053,-0.0521222,0.0912525,0.0332961,-0.0235344
-0.0454017,0.132312,-3.02921,0.239412,0.297418,-0.0736631,0.153617,0.0622245,-0.0902979
-0.0356071,0.140594,-3.02976,0.596524,0.624303,0.00286758,0.222184,0.0827124,-0.164074
-0.0233026,0.155575,-3.02793,0.872343,0.599186,0.134934,0.262429,0.0978192,-0.169816
-0.0137632,0.173439,-3.02356,0.891113,0.405516,0.272982,0.302039,0.121576,-0.0947165
-0.00890484,0.189431,-3.01621,0.697761,0.236198,0.443757,0.313112,0.113349,-0.00893992
-0.00759839,0.20039,-3.00468,0.40344,0.126484,0.691784,0.323608,0.106308,0.0502428
-0.00933092,0.205123,-2.98784,0.0852537,0.0580169,0.954996,0.305354,0.103728,0.0826309
-0.0119963,0.203599,-2.9662,-0.204348,0.135324,1.16042,0.234923,0.101029,0.0837365
-0.0131002,0.197312,-2.94136,-0.366754,0.237103,1.26763,0.157713,0.11736,0.0340102
-0.013458,0.189865,-2.91601,-0.309708,0.191255,1.21326,0.0939806,0.146246,-0.0372852
-0.0157375,0.185957,-2.89308,-0.0194294,-0.0105977,1.0355,0.0443351,0.157055,-0.0733159
-0.0218186,0.188865,-2.87404,0.330889,-0.230624,0.841467,0.0373896,0.142548,-0.00306219
-0.0305814,0.196928,-2.8579,0.485085,-0.321239,0.743253,0.0626699,0.0956971,0.147725
-0.0402421,0.205717,-2.8424,0.42162,-0.334941,0.7605,0.0776978,0.0498501,0.288227
-0.0501483,0.211505,-2.82581,0.211331,-0.29956,0.847119,0.0657033,0.00898851,0.376328
-0.0580789,0.212056,-2.80743,-0.071206,-0.0743562,0.952139,0.0180498,-0.00895065,0.410995
-0.0597801,0.206544,-2.7878,-0.355082,0.314914,0.982517,-0.0566834,-0.0229791,0.363518
-0.0597801,0.206544,-2.7878,-0.355082,0.314914,0.982517,-0.0566834,-0.0229791,0.363518
-0.0542454,0.196622,-2.76894,-0.508148,0.586535,0.919844,-0.0737637,-0.000351518,0.231639
-0.0455496,0.185162,-2.75118,-0.537695,0.594377,0.889902,-0.050322,0.00139669,0.088668
-0.0379038,0.173844,-2.73394,-0.519959,0.471212,0.842748,-0.0684962,-0.0018352,-0.0213192
-0.0333805,0.163641,-2.71856,-0.439561,0.224163,0.698957,-0.0810395,0.00740939,-0.0940787
-0.0328912,0.155566,-2.7069,-0.333258,0.0362786,0.472351,-0.098768,0.00377086,-0.121268
-0.0338866,0.149527,-2.69974,-0.249699,-0.0216078,0.275599,-0.0863404,-0.0335549,-0.121879
-0.0357118,0.145369,-2.69525,-0.157477,-0.0933666,0.209227,-0.0353053,-0.0871521,-0.11445
-0.0391695,0.142469,-2.69091,-0.130817,-0.195229,0.239868,0.00301139,-0.129436,-0.0821493
-0.0443638,0.139002,-2.68568,-0.212246,-0.237755,0.288858,-0.00788211,-0.157527,-0.0244135
-0.0496132,0.133154,-2.67976,-0.350326,-0.193602,0.315718,-0.0419869,-0.163977,0.0199425
-0.053165,0.124548,-2.67408,-0.47256,-0.0865535,0.284226,-0.0635131,-0.155544,0.0215069
-0.0545117,0.114735,-2.66957,-0.457693,-0.00843611,0.208502,-0.0761683,-0.138675,-0.0300841
-0.055627,0.107341,-2.66668,-0.250158,-0.10156,0.115071,-0.0769238,-0.120694,-0.0852658
-0.059599,0.104567,-2.66577,-0.0404661,-0.285983,-0.0151253,-0.092373,-0.114053,-0.0630751
-0.0658769,0.104822,-2.6676,0.0228498,-0.330604,-0.165487,-0.10891,-0.12941,0.0260608
-0.0706768,0.105297,-2.67197,-0.015837,-0.178597,-0.258165,-0.0914247,-0.153701,0.0945787
-0.071896,0.10518,-2.67739,-0.0323106,-0.0231039,-0.265822,-0.0520218,-0.174723,0.0878366
-0.0715646,0.105247,-2.68253,0.0105645,-0.00740317,-0.254089,-0.0159741,-0.168537,0.0565421
-0.0717916,0.106879,-2.68772,0.112322,-0.0869704,-0.274386,-0.0141591,-0.155989,0.0276824
-0.0740554,0.110271,-2.69328,0.175252,-0.197014,-0.313104,-0.0115141,-0.142515,0.0319735
-0.0781149,0.114409,-2.69975,0.177464,-0.268994,-0.361214,-0.00607756,-0.139427,0.0483706
-0.0823026,0.118243,-2.70712,0.144132,-0.221067,-0.401495,0.00660822,-0.13188,0.0476853
-0.0850352,0.122021,-2.71516,0.17662,-0.181215,-0.420421,0.0245631,-0.125916,0.00078851
-0.0882891,0.126703,-2.72303,0.206064,-0.235248,-0.399807,0.0302472,-0.125726,-0.0436029
-0.0916097,0.130909,-2.73068,0.128846,-0.171941,-0.39787,0.0390479,-0.0997812,-0.048999
-0.0923454,0.132711,-2.73797,-0.0309485,0.00775671,-0.316225,0.0657381,-0.0990017,-0.0686195
-0.0894835,0.130745,-2.74256,-0.205779,0.218148,-0.112128,0.0998624,-0.102156,-0.138158
-0.0836878,0.12604,-2.74351,-0.268517,0.32018,0.041404,0.089763,-0.0570024,-0.23931
-0.0772978,0.121213,-2.74271,-0.192363,0.296327,0.0565094,0.0355165,-0.0104919,-0.333132
-0.0734576,0.119095,-2.74248,-0.00633863,0.0572549,-0.0309635,0.00159792,0.0325098,-0.37234
-0.0756813,0.121481,-2.74457,0.226763,-0.298994,-0.204583,-0.00505676,0.0661591,-0.335452
-0.0832945,0.129024,-2.74985,0.484386,-0.48584,-0.37051,-0.0100989,0.0706062,-0.234055
-0.0918454,0.141774,-2.75716,0.717267,-0.460306,-0.459202,-0.0127042,0.0543092,-0.0961148
-0.0994368,0.158794,-2.76557,0.885344,-0.433084,-0.534892,-0.0179885,0.0485234,0.0456515
-0.106044,0.178088,-2.775,0.912339,-0.380234,-0.58593,-0.0270086,0.0332573,0.179217
-0.110432,0.196155,-2.785,0.751301,-0.227764,-0.583978,-0.0497735,0.00547728,0.291331
-0.111229,0.209368,-2.79484,0.443624,-0.0535321,-0.513988,-0.0705013,-0.0231611,0.349224
-0.108398,0.215361,-2.80345,0.052319,0.164742,-0.38191,-0.0959425,-0.0498502,0.354115
-0.101756,0.213206,-2.80972,-0.317926,0.35117,-0.204408,-0.122339,-0.0573413,0.287152
-0.0932835,0.204856,-2.81325,-0.533124,0.410146,-0.0749906,-0.161195,-0.0381967,0.168773
-0.0841978,0.193572,-2.81522,-0.610123,0.457174,-0.0273122,-0.222923,-0.0118124,0.0588559
-0.0745634,0.181412,-2.81721,-0.63327,0.475604,-0.0929041,-0.284089,0.02574,-0.0199975
-0.0638651,0.169536,-2.82168,-0.57716,0.508574,-0.273802,-0.334585,0.0627678,-0.10561
-0.0527742,0.160564,-2.8299,-0.360912,0.454577,-0.488218,-0.317436,0.0960781,-0.182572
-0.0430552,0.156692,-2.84206,-0.0849201,0.319766,-0.701141,-0.27911,0.121719,-0.206312
-0.0358243,0.158426,-2.8586,0.188472,0.145105,-0.937258,-0.237383,0.13251,-0.182392
-0.0310468,0.164811,-2.87887,0.366543,0.0218,-1.07593,-0.201099,0.11481,-0.11362
-0.0275454,0.173617,-2.90131,0.43882,-0.0503076,-1.16376,-0.166201,0.108354,-0.0414082
-0.0253358,0.183253,-2.92534,0.461168,-0.154171,-1.2351,-0.13189,0.113962,0.0138701
-0.0240145,0.193135,-2.95103,0.468394,-0.182387,-1.32011,-0.10354,0.123241,0.0660396
-0.0224973,0.203481,-2.9781,0.519041,-0.201217,-1.34657,-0.0537133,0.113243,0.0951338
-0.0211356,0.215013,-3.00485,0.577224,-0.213111,-1.29021,-0.0136086,0.0983391,0.131174
-0.0202107,0.227219,-3.02989,0.578754,-0.246828,-1.18465,0.0100158,0.0821722,0.176399
-0.0200091,0.238451,-3.05286,0.488799,-0.252987,-1.07835,0.00404552,0.0590736,0.212126
-0.0200091,0.238451,-3.05286,0.488799,-0.252987,-1.07835,0.00404552,0.0590736,0.212126
-0.0200412,0.247254,-3.07351,0.339338,-0.236938,-0.957023,0.00510238,0.0328283,0.222934
-0.0196217,0.252298,-3.09188,0.117444,-0.170464,-0.844062,0.00116177,0.0170555,0.222534
-0.0186737,0.25261,-3.1082,-0.111673,-0.15161,-0.735124,0.0313246,-0.00618652,0.177705
-0.0177859,0.248818,-3.12177,-0.285756,-0.0844571,-0.565587,0.0616251,-0.0231809,0.112804
-0.0165654,0.242144,-3.13117,-0.389446,-0.031193,-0.326606,0.115172,-0.0372995,0.0290425
-0.0158258,0.233825,-3.13512,-0.443346,0.0235913,-0.0475507,0.132094,-0.0505877,-0.0493682
-0.0146941,0.224653,-3.13406,-0.471263,0.120338,0.134042,0.102307,-0.0283459,-0.108791
-0.0127052,0.215424,-3.13104,-0.436984,0.117056,0.155417,0.0681515,-0.00131115,-0.176223
-0.0119887,0.207661,-3.1286,-0.330952,0.0107453,0.0895506,0.0693633,0.0101571,-0.224084
-0.0128201,0.202115,-3.12712,-0.233713,-0.0485141,0.077116,0.10727,0.00292711,-0.227925
-0.0146632,0.198209,-3.12489,-0.167658,-0.102742,0.161342,0.158007,-0.0321361,-0.216996
-0.018024,0.195174,-3.12036,-0.14226,-0.137377,0.28559,0.182811,-0.0465409,-0.187175
-0.0224305,0.192037,-3.1135,-0.172983,-0.172641,0.394889,0.19853,-0.0419755,-0.156874
-0.0272052,0.187697,-3.10483,-0.243803,-0.126224,0.468419,0.21546,-0.0307343,-0.121992
-0.0305299,0.181955,-3.09472,-0.291928,-0.001843,0.547631,0.227684,-0.0255442,-0.117385
-0.0307037,0.176493,-3.08304,-0.185532,0.182554,0.616305,0.231058,-0.00825973,-0.161827
-0.0281642,0.175396,-3.07045,0.129019,0.279747,0.620557,0.227786,0.0278918,-0.20131
-0.0247069,0.180996,-3.0582,0.462199,0.25915,0.569362,0.223062,0.0662096,-0.189792
-0.0220939,0.192452,-3.04668,0.683991,0.239056,0.552328,0.251237,0.0939763,-0.133692
-0.0187352,0.20682,-3.03418,0.762673,0.365798,0.664133,0.306955,0.120784,-0.0705856
-0.012489,0.221401,-3.01817,0.684144,0.615038,0.897279,0.354561,0.153312,-0.0205027
-0.00275964,0.232012,-2.99694,0.365355,0.819039,1.16409,0.350464,0.177125,0.0246853
0.00746612,0.235287,-2.97055,-0.0427181,0.771256,1.41171,0.320147,0.182906,0.0157859
0.0125604,0.231712,-2.93939,-0.31514,0.424611,1.60669,0.273863,0.203368,-0.0380782
0.00920783,0.224813,-2.90566,-0.383458,0.0233915,1.65506,0.19772,0.231896,-0.0567149
-0.000268316,0.218379,-2.87262,-0.247307,-0.224006,1.5604,0.138186,0.25333,-0.023506
-0.012607,0.215701,-2.84188,0.00191008,-0.332032,1.45907,0.114671,0.245709,0.0616642
-0.0256666,0.217472,-2.81269,0.220868,-0.343032,1.40688,0.101719,0.213855,0.180836
-0.0384624,0.222339,-2.78404,0.341109,-0.301999,1.38376,0.0805667,0.190788,0.29583
-0.0499742,0.228133,-2.7556,0.341933,-0.203602,1.37189,0.0493763,0.163934,0.392384
-0.0587002,0.232393,-2.72725,0.216685,-0.0245846,1.38237,0.0283571,0.13114,0.447592
-0.0638999,0.232917,-2.69839,-0.000730524,0.182803,1.42992,0.0183241,0.0944335,0.463184
-0.0645836,0.228729,-2.66885,-0.224291,0.410536,1.4756,0.0206978,0.0793394,0.418458
-0.0618769,0.220429,-2.63853,-0.413377,0.512892,1.54382,0.0297167,0.0609791,0.326185
-0.0583657,0.20853,-2.60655,-0.586056,0.513105,1.65884,0.0339671,0.0320797,0.213029
-0.0562349,0.193805,-2.57236,-0.689946,0.361258,1.77502,0.0211259,0.0170718,0.080939
-0.0579912,0.177216,-2.53686,-0.772618,0.104224,1.79779,-0.0134905,0.0202383,-0.0203224
-0.0644915,0.158973,-2.50263,-0.846545,-0.183539,1.68082,-0.0613201,0.00264964,-0.0986467
-0.074696,0.139884,-2.47175,-0.837607,-0.33658,1.51028,-0.0668647,-0.0107645,-0.164751
-0.0838897,0.122615,-2.44435,-0.637913,-0.172411,1.35169,-0.056593,-0.0366278,-0.22984
-0.0869606,0.111087,-2.41889,-0.284426,0.142434,1.28487,-0.021976,-0.0592005,-0.293824
-0.0859338,0.106318,-2.39372,-0.00631357,0.178231,1.25519,0.0217753,-0.0713269,-0.293388
-0.0871966,0.105344,-2.36902,0.096767,-0.0802887,1.2066,0.0477545,-0.0894462,-0.232695
-0.0947437,0.105603,-2.345,0.147567,-0.41456,1.18358,0.080281,-0.104646,-0.15415
-0.107574,0.106935,-2.32106,0.22607,-0.584859,1.17758,0.0816831,-0.118748,-0.0541079
-0.121837,0.109778,-2.29698,0.328057,-0.568738,1.18043,0.0757604,-0.13382,0.0474794
-0.135268,0.113699,-2.27213,0.350366,-0.491095,1.23694,0.0831731,-0.154063,0.132798
-0.145899,0.115768,-2.24581,0.200719,-0.243445,1.33567,0.0728603,-0.178268,0.188899
-0.150467,0.113899,-2.21791,0.039976,0.0984224,1.44151,0.0565519,-0.179667,0.158488
-0.149348,0.110207,-2.18885,0.0667778,0.280463,1.45836,-0.00426996,-0.149019,0.0135699
-0.148756,0.109208,-2.16046,0.256651,0.0590595,1.33947,-0.0756665,-0.109332,-0.15135
-0.153107,0.112604,-2.13477,0.460512,-0.223557,1.14211,-0.10546,-0.0699305,-0.242399
-0.161157,0.119412,-2.11198,0.52239,-0.225625,1.02639,-0.0577848,-0.0531737,-0.23834
-0.164297,0.12485,-2.08998,0.324349,0.193069,1.06371,-0.0206365,-0.0544753,-0.22044
-0.164297,0.12485,-2.08998,0.324349,0.193069,1.06371,-0.0206365,-0.0544753,-0.22044
-0.158938,0.124994,-2.06723,0.0612075,0.605676,1.17487,-0.0187003,-0.0505635,-0.283705
-0.148508,0.121653,-2.04319,0.0180704,0.665966,1.22036,-0.00339945,-0.00364649,-0.40415
-0.140238,0.120125,-2.01958,0.192725,0.403011,1.09849,-0.0161055,0.0764255,-0.453644
-0.13932,0.124148,-1.99952,0.488727,-0.0923377,0.811008,-0.018419,0.138463,-0.410133
-0.147851,0.134272,-1.98457,0.698337,-0.537881,0.529649,-0.00432758,0.157184,-0.24932
-0.162337,0.147248,-1.97381,0.733619,-0.730786,0.332064,0.0198312,0.141696,-0.0616382
-0.177962,0.160419,-1.9664,0.682083,-0.682907,0.177032,0.0603562,0.143482,0.0894438
-0.189717,0.172148,-1.96159,0.546905,-0.376421,0.0896063,0.0823084,0.127948,0.193509
-0.193129,0.180698,-1.95814,0.350357,0.115174,0.090097,0.105249,0.116529,0.249289
-0.185808,0.18489,-1.95491,0.116042,0.672012,0.153741,0.111661,0.110382,0.250507
-0.169723,0.184271,-1.95091,-0.0938849,0.944553,0.242829,0.112812,0.116793,0.177319
-0.152288,0.18025,-1.94609,-0.213204,0.851615,0.276449,0.0904656,0.143967,0.0837563
-0.138437,0.174809,-1.94169,-0.255372,0.593172,0.213838,0.0376709,0.157547,0.0378386
-0.129518,0.169449,-1.93979,-0.242965,0.35988,0.0254879,-0.00837503,0.175917,0.0334677
-0.12205,0.165509,-1.94211,-0.164222,0.380888,-0.196528,-0.0364567,0.166906,0.0420315
-0.112399,0.164359,-1.94802,-0.0206938,0.492966,-0.3645,-0.0357878,0.13971,0.0582861
-0.0998153,0.165904,-1.95649,0.0719888,0.626596,-0.478284,-0.0110936,0.114256,0.105384
-0.0846867,0.16842,-1.96627,0.066952,0.7158,-0.490385,0.0122064,0.0661081,0.150088
-0.0680943,0.169099,-1.97558,-0.0868246,0.786623,-0.432265,0.0129025,0.0304004,0.190713
-0.0504352,0.16608,-1.98386,-0.261402,0.828396,-0.363889,0.0146859,0.0112191,0.184587
-0.0326037,0.16018,-1.99057,-0.341453,0.839124,-0.271477,0.00573712,-0.00281192,0.134608
-0.0156178,0.15353,-1.99504,-0.332607,0.792253,-0.15858,-0.0174797,-0.0152545,0.0923649
-2.20004e-05,0.146852,-1.99747,-0.342144,0.723249,-0.0788724,-0.0554897,-0.0169447,0.072748
0.0133769,0.139662,-1.99822,-0.387306,0.611266,0.00401616,-0.0723435,-0.0247319,0.0616009
0.0246416,0.130913,-1.99669,-0.515353,0.548631,0.142351,-0.0910329,-0.0504296,0.0567244
0.0345728,0.118762,-1.99196,-0.710032,0.493267,0.281137,-0.107595,-0.0731371,0.0198591
0.0426978,0.103814,-1.98479,-0.789451,0.399715,0.366436,-0.119161,-0.0749,-0.0852851
0.0487739,0.0892277,-1.97614,-0.683974,0.291602,0.430466,-0.111259,-0.0767842,-0.204214
0.0523166,0.0785029,-1.96652,-0.421982,0.11357,0.468428,-0.0937425,-0.0675433,-0.287067
0.051001,0.0736846,-1.95676,-0.125024,-0.192341,0.482459,-0.0627882,-0.0585995,-0.295209
0.0437402,0.0736188,-1.94667,0.0358767,-0.433435,0.530916,-0.0454999,-0.071925,-0.205887
0.0334247,0.0750542,-1.93565,0.0478001,-0.500508,0.568792,-0.037307,-0.0887736,-0.08284
0.0228419,0.0762206,-1.92406,0.0359101,-0.456804,0.602995,-0.000450013,-0.0986274,-0.00226319
0.0136836,0.0772082,-1.91131,0.0471997,-0.36173,0.678377,0.0300588,-0.120821,0.0427498
0.00681904,0.0788989,-1.89711,0.118225,-0.210897,0.744724,0.0571976,-0.127741,0.0646455
0.00246642,0.0826069,-1.8816,0.255204,-0.110334,0.806376,0.0852648,-0.124549,0.0744068
-0.000740121,0.0892562,-1.86465,0.402172,-0.0761405,0.900685,0.114125,-0.127644,0.0911424
-0.00400356,0.0983072,-1.84528,0.488305,-0.061912,1.03376,0.139223,-0.124248,0.128907
-0.00639868,0.108045,-1.82316,0.487098,0.0813121,1.15892,0.140242,-0.113433,0.153191
-0.00483077,0.11777,-1.79891,0.503142,0.337605,1.25178,0.14794,-0.0749613,0.113408
-0.000125943,0.12865,-1.77258,0.588302,0.392906,1.37558,0.16817,-0.0302125,0.00380564
-0.000253199,0.141036,-1.7438,0.622432,-0.118884,1.47393,0.197181,0.0521895,-0.10699
-0.0166441,0.153047,-1.71377,0.596405,-1.15085,1.50021,0.249023,0.126144,-0.203812
-0.0548321,0.162948,-1.68172,0.454472,-2.12006,1.70795,0.346956,0.15266,-0.235738
-0.108867,0.164577,-1.64161,0.00311093,-2.52143,2.28145,0.368018,0.0699476,-0.173726
-0.168122,0.154197,-1.58994,-0.250799,-2.55885,2.91126,0.334703,0.012183,-0.203333
-0.223546,0.138112,-1.5298,-0.118702,-2.01657,3.18356,0.249089,0.0923085,-0.270465
-0.263269,0.123771,-1.46795,0.239775,-1.16801,3.08993,0.162072,0.203107,-0.300921
-0.286554,0.116624,-1.4089,0.668022,-0.50163,2.72167,0.0916261,0.275555,-0.295675
-0.298386,0.118627,-1.35685,1.00487,-0.132007,2.17457,0.0835228,0.322893,-0.228991
-0.304039,0.128433,-1.3137,1.17648,0.109517,1.65819,0.125829,0.315443,-0.127927
-0.30295,0.141921,-1.27841,1.14051,0.502161,1.31042,0.229954,0.287136,-0.0266014
-0.292432,0.155894,-1.24878,1.08379,1.00157,1.10942,0.326656,0.240422,0.00287956
-0.2719,0.171302,-1.22192,1.15991,1.48021,1.03591,0.39955,0.229853,-0.00696743
-0.2719,0.171302,-1.22192,1.15991,1.48021,1.03591,0.39955,0.229853,-0.00696743
-0.24393,0.189295,-1.19479,1.2661,1.76648,1.11584,0.434928,0.212016,0.00890929
-0.214055,0.209201,-1.16481,1.32379,1.79098,1.30757,0.441649,0.210456,0.0429542
-0.186947,0.228461,-1.13142,1.18356,1.64256,1.50717,0.395035,0.216759,0.110915
-0.164721,0.243113,-1.09557,0.853442,1.38607,1.68222,0.350394,0.206499,0.153394
-0.150529,0.250479,-1.05727,0.458617,0.962315,1.88338,0.338,0.20049,0.15547
-0.145559,0.24964,-1.01618,0.0365856,0.551062,2.08173,0.324296,0.199402,0.139754
-0.147782,0.240266,-0.973059,-0.334499,0.301272,2.19992,0.292215,0.194351,0.113963
-0.152197,0.224842,-0.929156,-0.519535,0.297504,2.27077,0.259518,0.204917,0.0430132
-0.154801,0.207684,-0.884543,-0.478827,0.395877,2.30172,0.227057,0.218203,-0.0484791
-0.155006,0.193239,-0.839987,-0.258055,0.453474,2.23442,0.192956,0.231375,-0.113204
-0.154103,0.184154,-0.796839,0.00284726,0.437411,2.10278,0.164601,0.233713,-0.114404
-0.1532,0.179562,-0.755815,0.131434,0.388823,1.98008,0.150697,0.217295,-0.0544879
-0.152461,0.175867,-0.716252,0.0682168,0.385565,1.95361,0.140709,0.172016,0.0246683
-0.151262,0.169868,-0.676983,-0.0803583,0.427035,1.97375,0.131382,0.138367,0.0842317
-0.148288,0.161348,-0.637715,-0.172198,0.504651,1.99726,0.111951,0.128758,0.0907121
-0.143929,0.151488,-0.598328,-0.235326,0.537977,2.00366,0.0769549,0.115814,0.0806059
-0.138981,0.140712,-0.559598,-0.289072,0.530527,1.94207,0.0276833,0.101796,0.0759978
-0.133024,0.129603,-0.522817,-0.31493,0.562734,1.82944,-0.013561,0.0762312,0.0608405
-0.126397,0.118931,-0.488024,-0.288787,0.498521,1.74841,-0.0205508,0.0464005,0.0200186
-0.122306,0.109417,-0.454405,-0.249882,0.282169,1.6976,-0.0190485,0.0153875,-0.00281578
-0.122117,0.100716,-0.421711,-0.221188,0.0886959,1.64336,-0.0360148,-0.0144287,-0.00397778
-0.123924,0.0924624,-0.390144,-0.226129,0.0598206,1.58858,-0.0606215,-0.0466616,0.0142765
-0.124556,0.0832738,-0.359798,-0.323138,0.162448,1.53073,-0.0911012,-0.0764141,0.0198357
-0.121691,0.0729028,-0.331331,-0.331205,0.367891,1.41235,-0.119044,-0.088081,-0.0388709
-0.112966,0.0646267,-0.305352,-0.161921,0.6748,1.27111,-0.147229,-0.0795528,-0.126414
-0.0996796,0.061421,-0.281285,0.0893169,0.757285,1.17258,-0.137734,-0.0718726,-0.208378
-0.0874964,0.0626798,-0.257994,0.226241,0.574594,1.15066,-0.106161,-0.0884996,-0.227599
-0.0803085,0.0655619,-0.234263,0.240711,0.29537,1.19937,-0.0938088,-0.105643,-0.204354
-0.078502,0.0682171,-0.209346,0.1976,0.0351616,1.26689,-0.0901723,-0.100232,-0.173916
-0.0818305,0.0695901,-0.183396,0.139289,-0.195807,1.30244,-0.0857712,-0.0843967,-0.157843
-0.0886981,0.0706226,-0.157067,0.203765,-0.283682,1.31491,-0.0606868,-0.0507129,-0.183004
-0.0955906,0.0739417,-0.130223,0.373859,-0.204094,1.33148,-0.0501557,-0.0213405,-0.204505
-0.100984,0.0801538,-0.103229,0.494875,-0.138605,1.2849,-0.0663664,0.0210928,-0.185138
-0.105839,0.0879137,-0.077768,0.533151,-0.134767,1.15822,-0.0641848,0.0722213,-0.1397
-0.10972,0.096435,-0.0549492,0.562538,-0.0273487,1.01803,-0.0572532,0.104708,-0.0885429
-0.110631,0.105732,-0.0343996,0.582291,0.147629,0.927078,-0.0417007,0.116049,-0.0392057
-0.10783,0.115096,-0.0153078,0.548318,0.346022,0.87305,-0.0353024,0.11591,0.00664181
-0.101641,0.123226,0.00270019,0.43766,0.469021,0.824941,-0.0451009,0.116064,0.0348113
-0.0944505,0.129141,0.0192235,0.31484,0.435236,0.757174,-0.0411646,0.124022,0.0240418
-0.0891556,0.133048,0.0343923,0.214796,0.289881,0.715487,-0.0235658,0.120373,0.0053224
-0.0860772,0.135223,0.0489303,0.13695,0.229485,0.70814,-0.00789247,0.114517,0.00133234
-0.0832598,0.136436,0.0634136,0.109287,0.276362,0.717747,-0.00788024,0.109173,-0.00253195
-0.0787279,0.137282,0.0778725,0.0980164,0.363328,0.698085,-0.0271349,0.112117,-0.00510669
-0.073245,0.138337,0.0915886,0.115138,0.374423,0.653,-0.0286243,0.115679,-0.00323671
-0.0676524,0.140157,0.104533,0.162478,0.354046,0.622863,-0.0337396,0.102558,0.00628537
-0.0628856,0.142837,0.117221,0.173585,0.303709,0.624987,-0.024542,0.0878018,0.0516719
-0.0592265,0.145047,0.130457,0.113935,0.249599,0.678442,-0.0163198,0.0635603,0.109575
-0.0567015,0.145442,0.145088,0.00717156,0.229234,0.774084,-0.0140261,0.0438251,0.15991
-0.0540311,0.143771,0.161542,-0.0863819,0.27945,0.867551,-0.0258065,0.0374567,0.183353
-0.0506897,0.140242,0.179889,-0.176637,0.300861,0.966618,-0.0346226,0.0339932,0.194416
-0.0474349,0.134754,0.20013,-0.290272,0.306514,1.07217,-0.0528815,0.0303122,0.204465
-0.0438334,0.126583,0.222229,-0.434086,0.334855,1.15214,-0.0880467,0.023096,0.192905
-0.0399005,0.116113,0.245258,-0.515318,0.335925,1.17338,-0.113531,0.030067,0.142851
-0.0355764,0.104602,0.267955,-0.556157,0.332908,1.1228,-0.15594,0.0302227,0.0960625
-0.0355764,0.104602,0.267955,-0.556157,0.332908,1.1228,-0.15594,0.0302227,0.0960625
-0.0310201,0.092337,0.288689,-0.609488,0.335718,0.97121,-0.209473,0.020276,0.0649631
-0.0254063,0.079613,0.305364,-0.599874,0.372747,0.727498,-0.242316,0.00886549,0.0187582
-0.0186361,0.068848,0.317114,-0.427832,0.371136,0.484033,-0.205607,-0.00406707,-0.0570467
-0.012686,0.0627352,0.325214,-0.179808,0.271074,0.355959,-0.152119,-0.0385327,-0.084506
-0.00864443,0.0607118,0.331721,-0.0469596,0.191345,0.305561,-0.13311,-0.0844823,-0.0371733
-0.00533219,0.0595149,0.337317,-0.0845077,0.182744,0.247774,-0.136126,-0.111754,0.0315101
-0.00167671,0.0574419,0.341429,-0.112764,0.203564,0.171496,-0.109715,-0.127068,0.0431491
0.00210652,0.0556322,0.344757,-0.0692878,0.197082,0.170443,-0.0855841,-0.153488,0.0333629
0.00571569,0.0546574,0.348393,-0.0381673,0.18511,0.191996,-0.0834659,-0.175289,0.041566
0.00912035,0.0536081,0.352414,-0.0854369,0.180354,0.213424,-0.0947089,-0.194098,0.0583822
0.0119354,0.0507272,0.357103,-0.226533,0.115313,0.255478,-0.108386,-0.215194,0.0529638
0.0136215,0.0445491,0.362328,-0.388947,0.109954,0.245879,-0.124951,-0.220816,0.0169816
0.0172214,0.0364139,0.367066,-0.398593,0.294226,0.217065,-0.143674,-0.218935,-0.0685449
0.0250424,0.0302958,0.370864,-0.203853,0.482565,0.139401,-0.152821,-0.189954,-0.188898
0.034343,0.0287425,0.372228,0.0190334,0.418165,-0.013795,-0.167882,-0.159006,-0.270793
0.0407175,0.0296801,0.370409,0.0216244,0.2256,-0.154196,-0.152856,-0.154742,-0.282214
0.0443324,0.0276598,0.367267,-0.250703,0.162806,-0.131257,-0.0988053,-0.196373,-0.26821
0.0479415,0.0187981,0.367376,-0.637226,0.207676,0.124469,-0.0653096,-0.252947,-0.309309
0.052674,0.00356893,0.373562,-0.878514,0.24671,0.382752,-0.0556553,-0.217104,-0.415959
0.0575,-0.013569,0.382284,-0.839949,0.239737,0.350303,-0.116469,-0.109028,-0.524633
0.0615212,-0.0270014,0.387449,-0.501638,0.136546,0.0506608,-0.160627,-0.00449135,-0.577497
0.0621446,-0.0323454,0.384479,-0.00385022,-0.0778461,-0.390629,-0.14241,0.0701078,-0.523159
0.0581874,-0.0275433,0.372235,0.562323,-0.274355,-0.787092,-0.0844234,0.0922875,-0.384349
0.0517562,-0.0120316,0.352966,1.07809,-0.299334,-1.02622,-0.00279436,0.0872271,-0.188362
0.0467387,0.0120559,0.330331,1.40439,-0.187194,-1.09687,0.0876048,0.0852673,0.0210674
0.0453837,0.0397336,0.307833,1.42206,0.00449408,-1.01178,0.163164,0.0816391,0.210294
0.048869,0.0654054,0.288053,1.21573,0.249047,-0.83017,0.203071,0.0676781,0.328091
0.0572452,0.0863385,0.272957,0.967969,0.449916,-0.558288,0.234076,0.0582314,0.334731
0.0676666,0.103427,0.263662,0.814581,0.485168,-0.262876,0.244422,0.0727553,0.28895
0.0772256,0.11865,0.259856,0.750562,0.422297,-0.0196372,0.208092,0.0941406,0.242573
0.0845275,0.133562,0.26006,0.740429,0.304932,0.152533,0.155018,0.122957,0.212043
0.0882827,0.148505,0.262893,0.723669,0.100157,0.245272,0.106391,0.159144,0.198841
0.0872816,0.162772,0.266965,0.660792,-0.136073,0.287825,0.0808668,0.177603,0.209542
0.0822306,0.175511,0.272402,0.56095,-0.247302,0.363868,0.0455735,0.164952,0.237414
0.0758004,0.186304,0.27979,0.458926,-0.263872,0.444171,0.0222776,0.169878,0.265732
0.0686667,0.194569,0.288707,0.289025,-0.279216,0.485442,0.00227727,0.167938,0.297178
0.0610098,0.198625,0.29859,0.0362044,-0.293701,0.513166,-0.0141493,0.148173,0.32524
0.0530615,0.197046,0.30956,-0.280533,-0.280367,0.558768,-0.0186545,0.11719,0.335791
0.0455764,0.188837,0.321735,-0.590414,-0.230461,0.587093,-0.0463986,0.0703771,0.305651
0.0389381,0.175841,0.333791,-0.739409,-0.221628,0.529954,-0.0546396,0.0580998,0.228325
0.0332701,0.161202,0.343706,-0.743021,-0.174793,0.382902,-0.0807758,0.0297368,0.160622
0.0294571,0.147508,0.350167,-0.645649,-0.102174,0.215079,-0.0867807,-0.00921547,0.109439
0.0278141,0.135808,0.353393,-0.538554,-0.0133704,0.0713009,-0.100369,-0.0583193,0.0877448
0.0276241,0.126506,0.353712,-0.392516,-0.0296139,-0.0624169,-0.0853528,-0.0875152,0.0469892
0.02674,0.119969,0.351388,-0.258046,-0.0877169,-0.181976,-0.087473,-0.117745,0.0252791
0.0250882,0.115952,0.34695,-0.142606,-0.116166,-0.262519,-0.0901942,-0.151291,0.00105965
