attitude_roll,attitude_pitch,attitude_yaw,rotationRate_x,rotationRate_y,rotationRate_z,acceleration_x,acceleration_y,acceleration_z
0.075562,0.352876,-0.0134783,-0.0979542,-0.157419,0.358449,0.074013,0.0935992,0.230245
0.0536233,0.353163,-0.00140373,0.0393884,-0.907738,0.345933,0.0341371,0.0321925,0.213943
0.0332856,0.354736,0.00373193,0.0984504,-0.875578,0.116102,-0.0578951,-0.0158468,0.116021
0.0194936,0.357084,0.00326255,0.134979,-0.504701,-0.133399,-0.0677318,-0.0185285,0.0381061
0.0147354,0.360441,-0.000684955,0.217051,-0.125789,-0.191509,0.0301878,-0.0155995,-0.00204319
0.0145831,0.365837,-0.00357873,0.322833,-0.0560616,-0.0645419,0.112557,-0.00597745,0.0488224
0.0118842,0.372255,-0.00414257,0.292176,-0.252948,0.00241718,0.106423,-0.0228952,0.0885941
0.00483257,0.376245,-0.00376353,0.0744597,-0.444759,0.0272463,0.0583106,-0.0278478,0.0862441
-0.00587304,0.374335,-0.00364768,-0.265251,-0.603431,-0.0316922,-0.0211603,-0.0218894,0.013926
-0.016739,0.366866,-0.00581645,-0.443618,-0.521048,-0.161463,-0.051789,-0.0321314,-0.175531
-0.0222619,0.35873,-0.0101004,-0.342003,-0.130716,-0.199345,-0.0452275,0.000667244,-0.331192
-0.0202239,0.354486,-0.0136431,-0.0917868,0.147217,-0.120306,-0.00529627,0.00799754,-0.322483
-0.0158784,0.3549,-0.0152714,0.114956,0.208388,-0.0359013,0.0297198,0.00766864,-0.22386
-0.0117898,0.358063,-0.015702,0.165111,0.191192,-0.0318893,0.0246679,-0.000461042,-0.11491
-0.00739124,0.359106,-0.0174172,-0.109642,0.191043,-0.137751,0.0112379,-0.0159788,-0.0319234
-0.00309,0.352482,-0.0217408,-0.569406,0.0383219,-0.27659,-0.0122367,-0.00560179,-0.00498241
-0.00233693,0.337215,-0.0295307,-0.9106,-0.205637,-0.451758,-0.0517345,0.000873744,-0.0969265
-0.00271294,0.318963,-0.0404183,-0.865012,-0.115558,-0.558447,-0.0660427,0.0276626,-0.275403
0.000967065,0.30419,-0.0517664,-0.608754,0.124693,-0.487261,-0.0412059,0.0654355,-0.309567
0.00668147,0.294816,-0.0593156,-0.32346,0.200585,-0.228329,0.00495937,0.0683649,-0.246825
0.0113297,0.291563,-0.0617416,-0.00810259,0.195561,-0.0331421,-0.0310997,0.0363363,-0.187758
0.01537,0.292658,-0.0622587,0.0691017,0.192419,-0.0462046,-0.112708,0.00297567,-0.0587611
0.0203661,0.292528,-0.064199,-0.0998626,0.262726,-0.132145,-0.140715,-0.0266435,0.0441722
0.0268736,0.288423,-0.066783,-0.297262,0.300891,-0.103715,-0.115925,0.00555587,0.114002
0.0319068,0.281694,-0.0673053,-0.339975,0.183949,0.0459212,-0.0567213,0.0169053,0.123076
0.0336005,0.276523,-0.0642194,-0.167257,0.0619339,0.222422,-0.0746001,0.0179009,0.116695
0.0310649,0.275535,-0.0586844,0.0545716,-0.174878,0.288282,-0.143612,0.0157452,0.138436
0.0244661,0.279421,-0.0536005,0.329812,-0.313692,0.189154,-0.167054,-0.0497016,0.128179
0.0174747,0.28827,-0.05156,0.524627,-0.305966,0.0297186,-0.16461,-0.0460435,0.156238
0.0126427,0.298973,-0.051968,0.537182,-0.177682,-0.0389548,-0.123974,-0.00488406,0.196042
0.0113955,0.309473,-0.0527909,0.513136,0.023686,-0.0213212,-0.0621387,0.022986,0.230127
0.0125625,0.319148,-0.0527315,0.445992,0.0614524,0.0350071,-0.00292517,-0.004403,0.284465
0.0132951,0.327177,-0.0518428,0.357735,0.0635777,0.0471823,0.0123434,-0.0597935,0.287797
0.0146402,0.333388,-0.0512195,0.266313,0.0787666,0.0138236,-0.00510556,-0.0753418,0.275175
0.0157118,0.3383,-0.0519181,0.240206,0.0233312,-0.0746402,-0.0274397,-0.0771737,0.2328
0.0168317,0.343392,-0.0535826,0.273151,-0.00409208,-0.0474323,0.0217035,-0.0993669,0.174685
0.0155798,0.349074,-0.0534319,0.300298,-0.109052,0.0656744,0.0475857,-0.122374,0.113084
0.01261,0.355294,-0.0515422,0.309446,-0.111483,0.107639,0.00752605,-0.15192,0.0302125
0.00932272,0.360354,-0.0499225,0.173638,-0.167245,0.0334859,-0.028133,-0.190775,-0.0220017
0.00648956,0.362118,-0.0509814,0.00862506,-0.123698,-0.141333,-0.0523791,-0.225594,-0.119742
0.00746718,0.360744,-0.0560765,-0.148014,0.0550116,-0.326775,-0.0450877,-0.199077,-0.204178
0.0136921,0.356396,-0.0638793,-0.263651,0.291745,-0.397012,0.00171033,-0.173928,-0.270356
0.0239836,0.350246,-0.0723513,-0.355673,0.412963,-0.406411,0.0357479,-0.135677,-0.298164
0.0339814,0.340901,-0.0802109,-0.57588,0.25595,-0.36184,0.0255974,-0.0975333,-0.298874
0.0367777,0.32767,-0.0870183,-0.686108,-0.186695,-0.343296,-0.0486681,-0.0298467,-0.380536
0.032628,0.315797,-0.0938195,-0.421927,-0.355176,-0.342453,-0.0714296,0.0329559,-0.505844
0.0309035,0.31199,-0.100188,0.0570655,0.0665142,-0.249013,-0.0274233,0.1148,-0.475533
0.0397048,0.316256,-0.102986,0.322176,0.720905,0.0136447,0.0517975,0.160726,-0.244053
0.0576928,0.322642,-0.100146,0.258425,1.1142,0.278753,0.0900287,0.152401,0.0570526
0.0773519,0.325768,-0.0923691,-0.022808,1.0231,0.462928,0.0779125,0.127577,0.294487
0.0893439,0.322861,-0.0813955,-0.346303,0.485785,0.536648,0.0574749,0.0971425,0.376586
0.0894238,0.31494,-0.0694359,-0.516692,-0.079371,0.519463,0.0406371,0.0763454,0.309336
0.080761,0.305606,-0.0578439,-0.494163,-0.377534,0.506026,0.00848348,0.114592,0.186808
0.080761,0.305606,-0.0578439,-0.494163,-0.377534,0.506026,0.00848348,0.114592,0.186808
0.06882,0.297115,-0.0462919,-0.433548,-0.4468,0.543779,-0.0141322,0.167687,0.115497
0.0566792,0.289728,-0.0334648,-0.382279,-0.387414,0.638676,0.00197126,0.193513,0.101238
0.045192,0.283171,-0.0186857,-0.344929,-0.328747,0.749228,0.0244326,0.202039,0.105846
0.0348705,0.277145,-0.00170913,-0.324833,-0.225903,0.855548,0.046072,0.186376,0.1378
0.0272258,0.2709,0.0165732,-0.370914,-0.0524775,0.8786,0.0370028,0.156332,0.182625
0.0216893,0.263102,0.0349295,-0.452578,-0.0214525,0.875673,0.0144896,0.126486,0.196303
0.0164279,0.254072,0.0529777,-0.471272,-0.0735604,0.858614,0.0154265,0.0961351,0.190316
0.00861244,0.245892,0.0704292,-0.351612,-0.291931,0.824618,0.0228204,0.0722179,0.147131
-0.00328723,0.240626,0.0865683,-0.186911,-0.492629,0.732699,0.0112949,0.0709978,0.118309
-0.017052,0.237573,0.10018,-0.129848,-0.546147,0.584215,-0.00576666,0.0641557,0.0985561
-0.0291633,0.234283,0.110091,-0.187055,-0.397397,0.384013,-0.0169103,0.0527027,0.0729296
-0.0354809,0.229309,0.115893,-0.297388,-0.128704,0.215642,0.0131368,0.0361276,0.0639853
-0.0379247,0.222071,0.119166,-0.41308,-0.0587124,0.154594,0.0436221,-0.007396,0.0332748
-0.0392604,0.212763,0.121523,-0.506707,-0.0326125,0.0690465,0.00615399,-0.0227251,-0.00277895
-0.0391126,0.202524,0.120387,-0.505733,0.0259338,-0.182612,-0.0811576,-0.0542437,-0.0714649
-0.0380649,0.19285,0.114307,-0.49105,-0.0590509,-0.345467,-0.0531954,-0.180169,-0.157997
-0.0386743,0.183379,0.105411,-0.487765,-0.153411,-0.533097,-0.0358972,-0.206776,-0.224503
-0.0387041,0.174369,0.0908402,-0.478998,-0.0717702,-0.847754,-0.0540859,-0.146124,-0.270021
-0.0341115,0.164192,0.072399,-0.633744,0.247611,-0.889589,-0.0051722,-0.105588,-0.255402
-0.0227097,0.149957,0.0552059,-0.824285,0.606939,-0.765876,0.0445781,-0.0777468,-0.238864
-0.00674287,0.133271,0.0409636,-0.838467,0.755899,-0.628488,0.0714261,-0.0814021,-0.248514
0.00853209,0.117762,0.0290505,-0.695797,0.583536,-0.576851,0.0924182,-0.130908,-0.250019
0.0181707,0.105488,0.0171497,-0.532067,0.248389,-0.644423,0.0478188,-0.141793,-0.260331
0.0215216,0.0951792,0.00356041,-0.493628,-0.031331,-0.710736,0.0199287,-0.118648,-0.256481
0.0209582,0.0848991,-0.00992002,-0.501079,-0.0822241,-0.633928,-0.0129009,-0.0607106,-0.291205
0.0228896,0.0756629,-0.0206146,-0.374345,0.192199,-0.4321,-0.0226543,0.00970331,-0.354319
0.0291144,0.0707682,-0.0253873,-0.0794933,0.366169,-0.011814,0.0244446,0.0684509,-0.354198
0.0354599,0.0733485,-0.0197218,0.341007,0.265915,0.597112,-0.00215403,0.118754,-0.29575
0.0367674,0.0858903,-0.00315748,0.870283,0.00298069,1.04762,-0.13634,0.101272,-0.253688
0.0328373,0.108916,0.0178984,1.33072,-0.183875,1.06149,-0.299895,0.0418829,-0.162589
0.0265841,0.138312,0.0354775,1.51848,-0.199705,0.75357,-0.360998,0.00901107,-0.0251586
0.0215237,0.168756,0.0466842,1.48414,-0.121458,0.440327,-0.314139,0.0208007,0.107835
0.0195885,0.196821,0.0525362,1.29259,0.0278101,0.204269,-0.252257,0.0578724,0.235083
0.0208271,0.219434,0.0543792,0.957727,0.122191,0.0317748,-0.198289,0.0809585,0.331781
0.0239463,0.234977,0.0531689,0.61397,0.161894,-0.122827,-0.157609,0.0796831,0.369595
0.0292722,0.244719,0.0488755,0.426382,0.255167,-0.230256,-0.129379,0.111913,0.335772
0.0349449,0.253441,0.0433466,0.481416,0.183467,-0.302946,-0.11155,0.098545,0.303127
0.0411353,0.264034,0.0352442,0.615695,0.23608,-0.42857,-0.0489149,0.093634,0.325078
0.0488086,0.276072,0.0250536,0.606904,0.270522,-0.492538,-0.000906002,0.0885727,0.366414
0.0582191,0.286442,0.0137584,0.474863,0.371073,-0.55588,0.0135968,0.0738465,0.390308
0.0707928,0.293308,0.000953567,0.291055,0.53216,-0.610251,0.0147609,0.0642822,0.388245
0.0853579,0.296661,-0.010813,0.146253,0.535127,-0.45639,0.0781377,0.00787446,0.366166
0.0959081,0.298786,-0.0177057,0.154292,0.317651,-0.181501,0.106022,-0.0561647,0.283944
0.101666,0.303411,-0.0194049,0.344188,0.264521,0.0454612,0.0744554,-0.104589,0.148874
0.109017,0.312837,-0.0181097,0.566705,0.555922,0.155453,0.0008801,-0.121059,0.0402526
0.122301,0.325103,-0.0158658,0.595363,0.781321,0.192475,-0.0450185,-0.137747,-0.0103424
0.135775,0.335887,-0.0133733,0.424071,0.604438,0.182429,-0.0529192,-0.149855,-0.0369523
0.14203,0.342625,-0.0109567,0.220495,0.0158986,0.107264,-0.0785162,-0.190742,-0.129528
0.137525,0.345014,-0.012496,0.053117,-0.442866,-0.238373,-0.0839841,-0.244005,-0.275776
0.129451,0.343676,-0.0207308,-0.0794652,-0.607155,-0.517575,-0.0567366,-0.222391,-0.40298
0.129451,0.343676,-0.0207308,-0.0794652,-0.607155,-0.517575,-0.0567366,-0.222391,-0.40298
0.122548,0.33993,-0.0323432,-0.149154,-0.434235,-0.590638,-0.0473301,-0.123839,-0.472557
0.120027,0.335228,-0.0437521,-0.198555,-0.188282,-0.524334,-0.0304324,-0.0441992,-0.470143
0.121428,0.329526,-0.0529969,-0.266307,0.0115377,-0.420155,-0.0157204,-0.0146315,-0.412395
0.125037,0.322934,-0.0601207,-0.304621,0.0970264,-0.335729,-0.021143,0.0355512,-0.299528
0.127687,0.316409,-0.0650859,-0.258776,-0.000829113,-0.201734,0.0358106,0.0572188,-0.191121
0.127281,0.312215,-0.0665217,-0.136015,-0.0661084,0.0259482,0.0789213,0.0971458,-0.0696995
0.125228,0.310907,-0.06275,-0.0523441,-0.00955893,0.311585,0.0636438,0.14421,0.0728817
0.122927,0.311035,-0.0537935,-0.0527754,0.0308557,0.519987,0.0196645,0.150512,0.1914
0.118386,0.310999,-0.0413109,-0.0894381,-0.127304,0.625665,-0.00399907,0.104198,0.223166
0.109061,0.310648,-0.029721,-0.0708733,-0.471736,0.46358,-0.0377327,0.0581781,0.171699
0.0935798,0.309987,-0.0214331,-0.0817401,-0.81382,0.318086,-0.000595368,-0.0202556,0.113652
0.0733423,0.308118,-0.0165277,-0.152251,-1.02424,0.118833,-0.0126358,-0.0147728,0.057354
0.0524765,0.304416,-0.0164261,-0.208031,-1.03972,-0.137906,-0.0345379,0.0480575,0.0160634
0.0351064,0.300084,-0.0212816,-0.196817,-0.823,-0.323016,-0.0186533,0.108665,-0.000629663
0.0235923,0.296166,-0.0282721,-0.179146,-0.524975,-0.327738,0.0281724,0.159928,0.0269817
0.0175585,0.292406,-0.0333797,-0.193466,-0.225706,-0.139476,0.0782042,0.186588,0.0739521
0.0152411,0.288111,-0.0325847,-0.234982,-0.00416728,0.220659,0.119573,0.18206,0.122123
0.0138711,0.283609,-0.0240292,-0.208272,0.127862,0.58008,0.125523,0.152335,0.149458
0.0140344,0.280794,-0.00910552,-0.0917745,0.303446,0.836888,0.0801741,0.134449,0.181856
0.0167013,0.28007,0.0094114,-0.0132624,0.480775,0.897364,0.055285,0.095393,0.219401
0.0218066,0.280646,0.0264093,0.0302716,0.460826,0.717561,0.0305466,0.0380395,0.237183
0.0255588,0.281449,0.0387874,0.0118078,0.247694,0.482055,0.0578774,-0.0389028,0.237943
0.0261478,0.281339,0.0470132,-0.035447,0.0537891,0.323714,0.0767507,-0.08483,0.201735
0.0250782,0.28076,0.0526969,-0.0225701,0.0306926,0.219545,0.0597075,-0.107496,0.137423
0.0260181,0.280522,0.0560027,-0.0253287,0.169816,0.0832803,0.0234026,-0.107756,0.11505
0.0303727,0.279443,0.056124,-0.0878244,0.234185,-0.0701002,0.0169373,-0.133481,0.0879021
0.0343544,0.276856,0.0532055,-0.164966,0.0312748,-0.233566,0.0119584,-0.166334,0.0307795
0.0328296,0.272146,0.0455742,-0.292408,-0.372095,-0.537251,0.0144201,-0.189132,-0.0734555
0.0275368,0.263803,0.0308737,-0.514289,-0.495494,-0.906696,0.0493621,-0.224323,-0.19826
0.0250473,0.250864,0.0092128,-0.702584,-0.234618,-1.20966,0.0948188,-0.206135,-0.345036
0.0328327,0.235398,-0.0172228,-0.777486,0.432719,-1.38902,0.10646,-0.123673,-0.46281
0.0565475,0.216972,-0.045674,-0.991385,1.31342,-1.46113,0.0867908,-0.055921,-0.473142
0.0967889,0.191215,-0.0743345,-1.38623,2.11232,-1.56377,0.0343501,-0.0534019,-0.414041
0.148752,0.156134,-0.10317,-1.7289,2.48377,-1.6733,0.00388294,-0.0483721,-0.354158
0.198109,0.115859,-0.129323,-1.73516,1.99768,-1.53282,0.0584558,-0.00422741,-0.366648
0.232327,0.0797604,-0.148308,-1.34584,1.26457,-1.04834,0.0820123,0.107493,-0.41024
0.251283,0.0559141,-0.156439,-0.796841,0.583317,-0.280065,0.0885793,0.223701,-0.375968
0.258541,0.0471365,-0.150002,-0.196343,0.239227,0.697704,0.104904,0.259232,-0.290245
0.26076,0.0562462,-0.128737,0.550818,0.110923,1.54501,0.0198904,0.243808,-0.248835
0.260138,0.0823799,-0.0984051,1.15199,0.0385232,2.00163,-0.117304,0.162151,-0.142025
0.257207,0.118388,-0.0650777,1.44934,0.00444135,2.07555,-0.260657,0.0988399,-0.00225067
0.253691,0.157508,-0.0346023,1.56301,0.0783858,1.80914,-0.379723,0.0764594,0.110475
0.251689,0.195856,-0.0109665,1.56214,0.116277,1.41,-0.405504,0.0555224,0.2037
0.249877,0.230842,0.00532789,1.41958,0.0290535,1.01385,-0.373477,0.0389168,0.29578
0.246269,0.259902,0.0154523,1.15232,-0.149391,0.663472,-0.334309,0.0352146,0.362092
0.240524,0.281709,0.0207701,0.843628,-0.275565,0.372794,-0.290955,0.0256171,0.387108
0.233097,0.296676,0.0223826,0.610757,-0.431332,0.137402,-0.268263,0.0259098,0.356781
0.223516,0.308412,0.0201647,0.620406,-0.569407,-0.0788304,-0.250127,0.0522643,0.290794
0.214562,0.320633,0.0133795,0.705372,-0.503641,-0.281332,-0.226544,0.0768102,0.279188
0.209057,0.332598,0.00328092,0.649606,-0.37216,-0.393459,-0.170285,0.0780715,0.320766
0.209057,0.332598,0.00328092,0.649606,-0.37216,-0.393459,-0.170285,0.0780715,0.320766
0.206063,0.341955,-0.00793439,0.481953,-0.315405,-0.451496,-0.0962342,0.0473351,0.35555
0.203193,0.347752,-0.0194337,0.324741,-0.371127,-0.486808,-0.0391902,0.0158034,0.340325
0.200389,0.351943,-0.0307895,0.32354,-0.244353,-0.472655,0.0124298,-0.0116772,0.269698
0.202286,0.357222,-0.0416145,0.39242,0.0492664,-0.414187,0.0700137,-0.0363134,0.235609
0.208291,0.362894,-0.0506659,0.299206,0.214143,-0.292472,0.116966,-0.0516652,0.247934
0.214679,0.36529,-0.0557489,0.0146336,0.207193,-0.124034,0.174221,-0.0901826,0.220426
0.215954,0.36183,-0.0558258,-0.354722,-0.162146,0.0382623,0.190296,-0.135241,0.0940537
0.205238,0.352998,-0.0517782,-0.539086,-0.716884,0.128383,0.11678,-0.152288,-0.202325
0.187699,0.343569,-0.0470266,-0.441455,-0.792962,0.115385,0.0796012,-0.161747,-0.491742
0.174869,0.337606,-0.043658,-0.188739,-0.301622,0.11046,0.053737,-0.133599,-0.657281
0.174091,0.336819,-0.0398374,0.011692,0.346453,0.248633,-0.0234202,-0.0467106,-0.647314
0.183796,0.337946,-0.0324188,-0.0676191,0.806635,0.458939,-0.0813461,-0.0158922,-0.483494
0.196036,0.3371,-0.0206172,-0.216848,0.748054,0.585988,-0.108976,-0.0561803,-0.353136
0.203648,0.334268,-0.0084485,-0.273512,0.411575,0.448501,-0.176508,-0.0823685,-0.296901
0.205939,0.330419,-0.000318416,-0.257354,0.0895873,0.2378,-0.17632,-0.0706108,-0.243927
0.203824,0.326347,0.00488301,-0.245223,-0.0909293,0.1949,-0.114401,-0.00219944,-0.167481
0.200876,0.322837,0.0111576,-0.217907,0.0487417,0.333934,-0.0645408,0.0579959,-0.090139
0.201373,0.320858,0.0207698,-0.156329,0.292637,0.523883,-0.0639985,0.0951205,-0.00287372
0.204493,0.320576,0.0338,-0.133429,0.382862,0.676282,-0.0764837,0.0891002,0.113728
0.204994,0.320343,0.0492874,-0.194491,0.112225,0.75276,-0.0608203,0.0392268,0.203181
0.197583,0.319113,0.065862,-0.232884,-0.341341,0.759742,-0.047123,0.00642782,0.233454
0.181552,0.317548,0.0818231,-0.196044,-0.732955,0.700452,-0.0611472,0.0211918,0.203708
0.161016,0.316619,0.0964063,-0.139607,-0.812632,0.650527,-0.0559165,0.0586243,0.169813
0.142029,0.315678,0.10988,-0.166068,-0.651722,0.605605,-0.0456447,0.0943352,0.175786
0.127136,0.312974,0.122388,-0.265056,-0.443444,0.53305,-0.0236954,0.101438,0.204806
0.117142,0.307781,0.133006,-0.370434,-0.22595,0.39817,-0.0020228,0.0806544,0.231465
0.111854,0.300447,0.14078,-0.435281,-0.0764362,0.258553,0.0281444,0.0580632,0.241548
0.109326,0.292138,0.146183,-0.443493,-0.0283928,0.175661,0.0546792,0.0566314,0.244455
0.107341,0.284088,0.150966,-0.406154,-0.0419174,0.208956,0.106006,0.0503013,0.240312
0.104374,0.276787,0.156771,-0.400878,-0.0925681,0.261058,0.135499,0.0393949,0.250939
0.100244,0.268638,0.163159,-0.483408,-0.151327,0.262246,0.112696,0.0272593,0.242679
0.0950133,0.258655,0.169113,-0.556804,-0.233396,0.202124,0.0699066,-0.0196404,0.181735
0.0878696,0.248207,0.173133,-0.513048,-0.394968,0.086077,0.0370641,-0.0580295,0.0909809
0.0772151,0.238537,0.174678,-0.462362,-0.629092,-0.00833274,0.044339,-0.0974131,0.0202421
0.0642763,0.230503,0.174463,-0.322041,-0.61645,-0.0786269,0.0268222,-0.142245,-0.0914165
0.0555313,0.225965,0.171922,-0.117675,-0.29995,-0.211205,-0.0413507,-0.158308,-0.171928
0.0541887,0.224458,0.165632,-0.0310786,-0.0044277,-0.417463,-0.0965505,-0.172518,-0.165951
0.0567893,0.222618,0.154792,-0.1072,-0.0176186,-0.661982,-0.127685,-0.206813,-0.132329
0.0584989,0.21852,0.138386,-0.204878,-0.173953,-0.976527,-0.126945,-0.219006,-0.154433
0.0590002,0.212617,0.115591,-0.237953,-0.216853,-1.27755,-0.103674,-0.198344,-0.245868
0.0625588,0.206063,0.0876842,-0.263096,0.017772,-1.47222,-0.082222,-0.122632,-0.311675
0.0719647,0.198312,0.0579267,-0.321566,0.341017,-1.46891,-0.0299355,-0.0478282,-0.351834
0.0860607,0.189229,0.0300187,-0.373972,0.486982,-1.3296,0.0534277,-0.0241175,-0.372712
0.0990212,0.179425,0.00584264,-0.35882,0.335649,-1.11533,0.100756,-0.0209832,-0.39714
0.105337,0.172179,-0.0125829,-0.154193,-0.0542476,-0.757437,0.0734295,0.032276,-0.462126
0.103028,0.170606,-0.0242956,0.125722,-0.307011,-0.415667,-0.00832029,0.0998337,-0.503493
0.0985973,0.175608,-0.0300371,0.429915,-0.195529,-0.10546,-0.0496672,0.12304,-0.475423
0.0975482,0.186614,-0.030805,0.650576,0.0723697,0.113883,-0.0926814,0.119111,-0.342102
0.0998839,0.200167,-0.0291341,0.654122,0.155139,0.153949,-0.134882,0.11581,-0.245127
0.102442,0.212161,-0.028386,0.538223,0.103558,0.0188957,-0.222468,0.0864279,-0.0605365
0.103685,0.22218,-0.0315991,0.520671,-0.0596985,-0.240211,-0.292881,0.0500379,0.0599484
0.103685,0.22218,-0.0315991,0.520671,-0.0596985,-0.240211,-0.292881,0.0500379,0.0599484
0.102895,0.232481,-0.0404191,0.603107,-0.219787,-0.501122,-0.308111,0.0524903,0.120432
0.100519,0.244136,-0.0538109,0.687947,-0.312343,-0.663949,-0.279656,0.0891913,0.184702
0.0985384,0.256937,-0.0700314,0.734037,-0.283588,-0.777063,-0.257885,0.128921,0.245242
0.0984576,0.269507,-0.0883268,0.681341,-0.192532,-0.852407,-0.231789,0.162665,0.305593
0.100669,0.280252,-0.107483,0.56694,-0.121463,-0.880348,-0.173803,0.170854,0.367986
0.10351,0.288279,-0.126954,0.423858,-0.140532,-0.903112,-0.121019,0.168016,0.418004
0.106208,0.293565,-0.146519,0.310177,-0.140069,-0.903814,-0.0813774,0.162093,0.437359
0.10961,0.297797,-0.165421,0.330342,-0.0428825,-0.852769,-0.0362625,0.135929,0.400749
0.114895,0.303053,-0.183322,0.373385,0.042509,-0.806779,0.00149755,0.109013,0.374361
0.120971,0.308399,-0.200808,0.350558,0.0398126,-0.802051,0.0200122,0.0892238,0.380779
0.127408,0.31255,-0.218527,0.254887,0.0832399,-0.829715,0.0470148,0.0520537,0.371742
0.135811,0.313752,-0.235912,0.0705063,0.220868,-0.780088,0.057419,0.0301724,0.35316
0.144969,0.311456,-0.249844,-0.0973948,0.236934,-0.535145,0.122529,-0.0151336,0.300485
0.150555,0.308395,-0.256964,-0.0622896,0.11169,-0.195313,0.201434,-0.0816176,0.17973
0.153182,0.308629,-0.259576,0.128792,0.0796556,-0.0891388,0.15826,-0.149845,0.00879443
0.155904,0.312125,-0.262633,0.229365,0.0989855,-0.163926,0.0892894,-0.199983,-0.114699
0.159187,0.314217,-0.26841,0.00715331,0.048976,-0.351724,0.0876488,-0.254313,-0.175121
0.161572,0.309594,-0.276287,-0.329172,-0.0551835,-0.439729,0.0829846,-0.231842,-0.248867
0.162256,0.30013,-0.283954,-0.443713,-0.0857604,-0.426751,0.0971255,-0.197519,-0.414458
0.162543,0.291623,-0.28971,-0.286171,-0.0570352,-0.224752,0.131061,-0.155792,-0.568609
0.161043,0.287803,-0.29043,-0.0906813,-0.107048,0.0941077,0.158884,-0.10159,-0.62797
0.157482,0.288477,-0.285654,0.0751911,-0.0873979,0.346682,0.103555,-0.0492321,-0.612954
0.154635,0.292408,-0.27765,0.191619,0.0348948,0.45033,0.0237372,-0.0184424,-0.540308
0.154161,0.298712,-0.268525,0.299139,0.194932,0.520898,-7.25687e-06,0.00902602,-0.410156
0.157339,0.307506,-0.257523,0.407061,0.468147,0.667566,0.0193153,0.0450987,-0.260525
0.164772,0.318623,-0.243352,0.463764,0.686196,0.840218,0.000996903,0.102993,-0.0815361
0.173008,0.33012,-0.226144,0.369707,0.643032,0.96226,-0.0306487,0.131804,0.113766
0.175712,0.338812,-0.206185,0.153136,0.219372,1.03798,-0.0462646,0.13469,0.278344
0.166787,0.343404,-0.184882,-0.0286288,-0.395565,1.00381,-0.0396535,0.0981078,0.349446
0.146933,0.344866,-0.165123,-0.104033,-0.890328,0.852706,-0.0258004,0.0617034,0.319667
0.120907,0.344744,-0.148427,-0.113209,-1.11684,0.725009,-0.0104425,0.075215,0.249736
0.0935014,0.344446,-0.133326,-0.0686152,-1.05219,0.703504,0.0152224,0.147612,0.180925
0.0708075,0.344229,-0.118184,-0.0896357,-0.695278,0.714531,0.0277928,0.214165,0.147595
0.056387,0.342156,-0.103307,-0.216559,-0.235744,0.654957,0.0210369,0.223275,0.172256
0.0514756,0.337182,-0.0906363,-0.337624,0.1311,0.509509,0.00781034,0.168522,0.216199
0.051903,0.330412,-0.0808152,-0.376172,0.198246,0.387638,0.0479419,0.101578,0.257135
0.0512522,0.323824,-0.0730854,-0.305756,-0.0340746,0.316293,0.0923325,0.0649133,0.276752
0.0462287,0.31895,-0.0662717,-0.222706,-0.227965,0.322062,0.0914639,0.0991232,0.266208
0.0385106,0.31484,-0.0586034,-0.237022,-0.292564,0.390844,0.0857058,0.114154,0.263251
0.0297777,0.309448,-0.0498484,-0.335324,-0.326982,0.412533,0.0901864,0.0744153,0.253364
0.0191973,0.302154,-0.0412625,-0.401041,-0.477362,0.386858,0.088134,0.00823987,0.21473
0.00614088,0.294714,-0.0338837,-0.329912,-0.606579,0.306205,0.0738663,-0.062836,0.122303
-0.00735697,0.289984,-0.0291386,-0.134944,-0.558975,0.122988,0.0400697,-0.115674,-0.00701809
-0.0159528,0.28885,-0.0293853,-0.00530112,-0.306629,-0.143953,-0.0135479,-0.15181,-0.103607
-0.0183536,0.288491,-0.0343206,-0.0735646,-0.101773,-0.312282,-0.0173028,-0.147806,-0.127455
-0.018287,0.285048,-0.0418479,-0.284718,-0.124883,-0.405452,0.0025029,-0.148621,-0.111588
-0.0180788,0.278367,-0.0514201,-0.377463,-0.107014,-0.517058,-0.00144745,-0.170924,-0.17209
-0.0156068,0.27136,-0.0637127,-0.324011,0.0382213,-0.658454,-0.0166422,-0.186563,-0.274152
-0.00839947,0.266955,-0.0787097,-0.13013,0.313401,-0.787384,-0.00833188,-0.200392,-0.368677
0.00489354,0.265514,-0.096028,-0.0511047,0.553517,-0.87557,-0.00923867,-0.163498,-0.367695
0.0221925,0.263869,-0.114406,-0.11104,0.689344,-0.914871,0.013108,-0.110948,-0.32173
0.0221925,0.263869,-0.114406,-0.11104,0.689344,-0.914871,0.013108,-0.110948,-0.32173
0.0407886,0.259605,-0.133992,-0.259129,0.617676,-1.00042,0.0263392,-0.103194,-0.290355
0.0561816,0.252822,-0.154731,-0.274363,0.402771,-1.02574,0.0783539,-0.116974,-0.295738
0.0674541,0.248458,-0.174836,-0.0182721,0.269247,-0.941989,0.0753223,-0.0865026,-0.375502
0.0785324,0.249776,-0.192866,0.264897,0.420519,-0.783145,-0.00443828,0.0174961,-0.414023
0.0926631,0.255533,-0.207333,0.400338,0.629698,-0.559956,-0.0690029,0.10707,-0.349595
0.109117,0.262526,-0.217115,0.377535,0.744877,-0.312571,-0.0883852,0.158141,-0.21121
0.125048,0.269125,-0.222047,0.337691,0.718019,-0.0946931,-0.0952545,0.155705,-0.0784966
0.13894,0.275716,-0.223139,0.325778,0.631338,0.0679657,-0.115303,0.143131,0.0146339
0.149337,0.282311,-0.221769,0.307568,0.437564,0.150665,-0.15449,0.118115,0.105471
0.155044,0.289046,-0.219107,0.326137,0.218155,0.198389,-0.160606,0.0980417,0.181546
0.156769,0.29618,-0.216011,0.325362,0.0506642,0.199834,-0.153739,0.0878896,0.237408
0.155483,0.302833,-0.213124,0.288344,-0.0784872,0.176537,-0.147018,0.0911634,0.289798
0.152359,0.308466,-0.210349,0.2275,-0.141034,0.179045,-0.123473,0.0876699,0.323508
0.148291,0.313214,-0.207165,0.211772,-0.164671,0.188002,-0.100688,0.086927,0.329075
0.144796,0.318658,-0.204437,0.29922,-0.0681328,0.146423,-0.0993676,0.0789173,0.291739
0.14447,0.325627,-0.202707,0.353061,0.0810179,0.122315,-0.0950209,0.0861688,0.281696
0.146885,0.332645,-0.201144,0.304525,0.218864,0.122029,-0.0775431,0.0732479,0.315864
0.151586,0.337625,-0.199633,0.163254,0.294604,0.082049,-0.0417272,0.0219817,0.348954
0.157105,0.339833,-0.199035,0.0614333,0.264311,-8.32337e-05,-0.0298516,-0.0232075,0.343736
0.162294,0.340902,-0.20056,0.0863428,0.22353,-0.123623,-0.022966,-0.0649242,0.2836
0.167966,0.34297,-0.203561,0.161212,0.241343,-0.0786619,-0.00303717,-0.0591918,0.214945
0.173126,0.347013,-0.203478,0.238846,0.292959,0.169742,0.0796282,-0.072492,0.159367
0.178118,0.35321,-0.198112,0.267649,0.37929,0.420797,0.100102,-0.0852557,0.0996922
0.181761,0.359477,-0.188405,0.176785,0.307829,0.560567,0.0675015,-0.111838,0.0487277
0.182602,0.364026,-0.176961,0.0871037,0.15859,0.543397,0.0075255,-0.164881,-0.0377149
0.179534,0.367242,-0.167703,0.087318,-0.134512,0.341153,-0.0775833,-0.192349,-0.173706
0.174203,0.369729,-0.164272,0.0985263,-0.19736,0.00694421,-0.128897,-0.214275,-0.334327
0.17451,0.371084,-0.16737,0.0735332,0.145465,-0.236437,-0.114842,-0.201308,-0.449346
0.182836,0.370436,-0.173116,-0.0649659,0.451226,-0.272366,-0.0762243,-0.134575,-0.470819
0.193108,0.366171,-0.176904,-0.296596,0.401632,-0.156928,-0.0605354,-0.0642285,-0.40645
0.199245,0.358521,-0.178186,-0.398462,0.170357,-0.135485,-0.0635336,-0.0548724,-0.376375
0.201139,0.351179,-0.179733,-0.266851,-0.0273979,-0.142285,-0.0768896,-0.0461014,-0.381171
0.200334,0.347545,-0.181017,-0.0704711,-0.0692634,-0.0276589,-0.0209156,0.000899464,-0.345804
0.19915,0.347791,-0.179246,0.0464304,0.0417407,0.212798,0.024443,0.073259,-0.243096
0.199464,0.350267,-0.172209,0.0491818,0.205553,0.482268,0.0287612,0.12449,-0.103985
0.198911,0.352585,-0.160203,-0.0633751,0.101269,0.654846,0.00136708,0.123157,0.0615188
0.192404,0.352241,-0.145446,-0.240167,-0.267367,0.680894,-0.015386,0.0783851,0.189822
0.178523,0.348911,-0.131481,-0.313888,-0.614197,0.517272,-0.0383055,0.00592187,0.200582
0.161291,0.344011,-0.122584,-0.315171,-0.782174,0.232846,-0.0702358,-0.0209193,0.143958
0.144295,0.338054,-0.118361,-0.339012,-0.74369,0.103153,-0.0525419,0.0220513,0.112568
0.130192,0.331238,-0.114902,-0.386047,-0.535267,0.146208,0.00270609,0.101521,0.104797
0.120866,0.323767,-0.109681,-0.406301,-0.229691,0.255548,0.0358693,0.161265,0.117107
0.116492,0.317018,-0.102739,-0.337601,-0.00576369,0.306565,0.0557617,0.163632,0.138935
0.115487,0.311668,-0.0957063,-0.285179,0.11194,0.292343,0.0750746,0.140418,0.185427
0.116052,0.306512,-0.0888371,-0.303962,0.140934,0.308345,0.0781274,0.137825,0.234485
0.115251,0.301596,-0.080768,-0.254407,0.00902032,0.406797,0.10185,0.142198,0.261304
0.11006,0.299096,-0.0706909,-0.0860865,-0.23841,0.526922,0.119908,0.147409,0.259407
0.0997876,0.300483,-0.0590803,0.0830556,-0.41362,0.568838,0.125224,0.13465,0.251086
0.0882099,0.302836,-0.0482974,0.0159473,-0.400562,0.465453,0.104436,0.0921735,0.265618
0.0786754,0.301638,-0.0399564,-0.200988,-0.305678,0.320379,0.103696,0.0319331,0.272958
0.0714082,0.296146,-0.0339533,-0.383419,-0.256197,0.220317,0.119975,-0.0207405,0.225393
0.0650211,0.287293,-0.0293493,-0.519248,-0.268515,0.166412,0.122456,-0.0569899,0.141924
0.0587551,0.276958,-0.025976,-0.513383,-0.252222,0.0743946,0.0971419,-0.0952209,0.0135154
0.0533204,0.267722,-0.0258827,-0.407327,-0.305553,-0.128502,0.0152233,-0.120474,-0.108894
0.0477923,0.260286,-0.0309692,-0.323034,-0.369627,-0.418287,-0.0504985,-0.139784,-0.197201
0.0439991,0.253478,-0.042581,-0.322306,-0.268943,-0.730354,-0.0547865,-0.165594,-0.271325
0.045941,0.245619,-0.0595513,-0.390759,0.078703,-0.929806,-0.00646062,-0.158698,-0.322113
0.0564115,0.236517,-0.0787715,-0.412858,0.490558,-0.961203,0.048841,-0.132152,-0.34915
0.0726781,0.227399,-0.0968468,-0.38649,0.696109,-0.836391,0.0896403,-0.0762219,-0.333553
0.089665,0.218984,-0.111048,-0.333533,0.637449,-0.613762,0.106487,-0.0436564,-0.299821
0.100939,0.212589,-0.120566,-0.20852,0.272308,-0.374069,0.135418,-0.0492316,-0.269233
0.103974,0.209449,-0.125116,-0.0554233,-0.0244141,-0.086692,0.157652,-0.0562848,-0.276877
0.102874,0.210255,-0.123194,0.123414,0.00361613,0.28574,0.138018,-0.0168611,-0.322313
0.103037,0.215656,-0.114515,0.321009,0.19263,0.592073,0.0346749,0.0517875,-0.347452
0.104813,0.224735,-0.101693,0.433366,0.237314,0.719669,-0.0868383,0.0747467,-0.288157
0.105435,0.234213,-0.0884513,0.348572,0.109284,0.631404,-0.179591,0.0523903,-0.173787
0.103669,0.240194,-0.0789886,0.145707,-0.0475397,0.3146,-0.252337,0.00456904,-0.0681178
0.101803,0.241584,-0.0771242,-0.00726609,-0.0845075,-0.124405,-0.290968,-0.034166,-0.0288179
0.101934,0.240671,-0.0835092,0.00482999,-0.0283505,-0.47846,-0.285882,0.00791655,-0.0364417
0.105868,0.240918,-0.0953952,0.141914,0.160973,-0.641305,-0.229892,0.0823286,-0.0310675
0.114939,0.243504,-0.109077,0.259767,0.41066,-0.625882,-0.156011,0.144776,0.038009
0.127363,0.248293,-0.121226,0.356571,0.508304,-0.476601,-0.0811159,0.175697,0.148784
0.139243,0.255019,-0.130147,0.42303,0.440001,-0.282314,-0.0359926,0.178228,0.263179
0.147829,0.263356,-0.135072,0.472784,0.279633,-0.0814811,-0.00154249,0.138068,0.349553
0.152381,0.272954,-0.137369,0.514393,0.135776,-0.01979,-0.0217067,0.103302,0.397484
0.155531,0.282934,-0.139937,0.493091,0.140104,-0.085968,-0.0722836,0.0893395,0.41772
0.155531,0.282934,-0.139937,0.493091,0.140104,-0.085968,-0.0722836,0.0893395,0.41772
0.160655,0.290765,-0.144052,0.316547,0.263913,-0.180493,-0.0933443,0.0746948,0.443613
0.167732,0.293686,-0.14908,0.0544962,0.302132,-0.242697,-0.0621273,0.0294273,0.470575
0.174824,0.292089,-0.154673,-0.100083,0.239208,-0.323124,-0.012881,-0.022746,0.44352
0.18161,0.288254,-0.161499,-0.149474,0.267945,-0.366511,-0.00984673,-0.0401384,0.370877
0.189059,0.284139,-0.167529,-0.141425,0.303749,-0.253787,0.0323388,-0.0760685,0.296971
0.196128,0.280846,-0.170254,-0.144652,0.323011,-0.0565353,0.074984,-0.111365,0.220492
0.201205,0.277519,-0.168455,-0.215794,0.2206,0.156998,0.101635,-0.152467,0.143325
0.202556,0.274143,-0.163013,-0.206623,0.05484,0.271952,0.103885,-0.217254,0.00710928
0.199255,0.272017,-0.156321,-0.126915,-0.222622,0.317316,0.0566384,-0.222948,-0.152354
0.190524,0.271587,-0.149535,-0.04284,-0.418752,0.305826,0.000718892,-0.187489,-0.297692
0.181931,0.272371,-0.143801,0.0105205,-0.248499,0.257989,-0.0403478,-0.144925,-0.423136
0.177965,0.273566,-0.138815,0.0126317,-0.0269223,0.225945,-0.0468019,-0.112875,-0.472193
0.177439,0.273444,-0.134997,-0.115679,0.0455077,0.121977,-0.0758047,-0.0830848,-0.470515
0.17683,0.269484,-0.13307,-0.30089,-0.0600916,-0.0164683,-0.0889492,-0.0721909,-0.420172
0.174815,0.262774,-0.133797,-0.322141,-0.143944,-0.168253,-0.0849787,-0.0528463,-0.422916
0.172964,0.256589,-0.137229,-0.219526,-0.0961556,-0.248426,-0.0709022,6.01113e-05,-0.40885
0.174546,0.252825,-0.141224,-0.0938674,0.184334,-0.177362,-0.0243569,0.0544007,-0.335397
0.182173,0.25151,-0.14273,-0.0237056,0.533833,0.0205894,0.00907291,0.106472,-0.191914
0.19388,0.251224,-0.140136,-0.0741794,0.638458,0.211179,0.0173748,0.126657,0.000448823
0.20265,0.249132,-0.134294,-0.260805,0.337823,0.288384,0.00755417,0.0956998,0.179382
0.201871,0.243139,-0.126839,-0.461407,-0.276281,0.28699,0.00851917,0.0304535,0.282451
0.188039,0.234635,-0.119728,-0.475065,-0.887524,0.212372,0.00820655,-0.00931795,0.25883
0.165899,0.227226,-0.114821,-0.330743,-1.19225,0.144265,0.00853962,-0.00568107,0.13966
0.14058,0.223307,-0.11052,-0.120062,-1.19759,0.244711,0.0392342,0.063634,0.0614212
0.117524,0.223748,-0.10337,0.061611,-0.916403,0.461224,0.104098,0.12368,0.0427485
0.101782,0.226745,-0.0924911,0.0830544,-0.394323,0.599131,0.114374,0.175918,0.0902253
0.0965024,0.228011,-0.080578,-0.0842983,0.121998,0.558698,0.086088,0.169247,0.195431
0.0998384,0.225757,-0.0696053,-0.227415,0.400806,0.491303,0.0739228,0.130338,0.284606
0.104991,0.22187,-0.0593036,-0.246412,0.301933,0.47561,0.0753371,0.113746,0.323968
0.105449,0.218303,-0.0487357,-0.219264,-0.0473997,0.519764,0.0916876,0.11527,0.342029
0.0982078,0.215282,-0.0369192,-0.200374,-0.411418,0.597452,0.101601,0.11026,0.348719
0.084543,0.212407,-0.0242138,-0.201795,-0.662851,0.599031,0.0884148,0.0850049,0.322347
0.0677898,0.208771,-0.0126764,-0.261732,-0.764497,0.477502,0.0938128,0.027509,0.272548
0.0505427,0.202655,-0.00484309,-0.398818,-0.796975,0.241034,0.0818603,-0.0344163,0.211012
0.0347865,0.193731,-0.00232454,-0.49123,-0.716326,-0.0228791,0.0674336,-0.086928,0.107622
0.0217079,0.184192,-0.00426913,-0.437561,-0.62997,-0.171438,0.0974659,-0.119201,-0.0150108
0.0111316,0.176916,-0.00794605,-0.280789,-0.485367,-0.202062,0.16139,-0.1418,-0.133346
0.00401117,0.17254,-0.0127176,-0.164348,-0.30577,-0.284906,0.139664,-0.137763,-0.217889
0.00135917,0.169604,-0.0203415,-0.142864,-0.0774982,-0.489752,0.0794098,-0.162705,-0.285956
0.00439717,0.166523,-0.0329351,-0.155569,0.158616,-0.749388,0.0224123,-0.171388,-0.330508
0.0118538,0.163757,-0.0498988,-0.0976383,0.301322,-0.910577,0.0467309,-0.170699,-0.371876
0.0225027,0.162076,-0.0686187,-0.0564432,0.456128,-0.920756,0.0872301,-0.132319,-0.384068
0.0350034,0.16004,-0.0862983,-0.113645,0.491306,-0.824701,0.0950439,-0.0782676,-0.351839
0.0460129,0.156131,-0.101566,-0.216448,0.331924,-0.708106,0.108814,-0.0617115,-0.309794
0.051925,0.150428,-0.114351,-0.285607,0.0767574,-0.577467,0.110733,-0.066554,-0.293158
0.0535092,0.144216,-0.123369,-0.27344,-0.00453478,-0.334418,0.092915,-0.0303255,-0.322222
0.0558447,0.139531,-0.12734,-0.158426,0.226908,-0.0825306,0.0297487,0.0389045,-0.401689
0.0642361,0.138458,-0.126253,0.0613804,0.625328,0.199323,-0.0276432,0.0923161,-0.415452
0.077664,0.142892,-0.118966,0.314773,0.764048,0.569813,-0.0240456,0.125378,-0.318839
0.088521,0.151977,-0.103848,0.446829,0.490644,0.998353,-0.0312647,0.149363,-0.13765
0.090079,0.163796,-0.08143,0.540573,0.00953306,1.2845,-0.106057,0.135172,-0.0041554
0.081163,0.178476,-0.0559172,0.730607,-0.443651,1.30994,-0.226789,0.0927826,0.0360516
0.0658206,0.197314,-0.0328777,0.979341,-0.619234,1.06413,-0.312178,0.0509101,0.0269199
0.0658206,0.197314,-0.0328777,0.979341,-0.619234,1.06413,-0.312178,0.0509101,0.0269199
0.0501954,0.219503,-0.0157372,1.11622,-0.567434,0.747022,-0.339391,0.0369741,0.0621025
0.0380638,0.241921,-0.00443485,1.05895,-0.374161,0.460404,-0.311986,0.0588888,0.147926
0.0318266,0.261632,0.00162165,0.891879,-0.0861611,0.194619,-0.26876,0.0839139,0.24081
0.0334237,0.277369,0.00197467,0.679547,0.243856,-0.118038,-0.236089,0.0833507,0.310195
0.0419523,0.288135,-0.0043421,0.414727,0.4065,-0.443733,-0.212483,0.0765996,0.372025
0.054091,0.293098,-0.0165065,0.153188,0.454911,-0.679368,-0.1718,0.0888921,0.408498
0.067438,0.293968,-0.0317681,0.0573777,0.442767,-0.748531,-0.104856,0.105121,0.385926
0.0800724,0.29488,-0.046462,0.152926,0.371875,-0.628089,-0.0328638,0.110602,0.330801
0.0894025,0.298286,-0.0579085,0.267111,0.249411,-0.441592,0.0317245,0.108595,0.313474
0.0961864,0.303401,-0.0664483,0.304959,0.200643,-0.346535,0.0630266,0.090241,0.31785
0.103171,0.308323,-0.0740996,0.239999,0.279007,-0.334984,0.0324224,0.0788668,0.319085
0.111677,0.310957,-0.0808711,0.0930793,0.372483,-0.270256,0.0218292,0.0513164,0.316487
0.122076,0.311342,-0.0859698,0.0170583,0.514638,-0.215354,0.0215177,-0.00216585,0.252517
0.134271,0.311148,-0.0904198,0.0258101,0.545197,-0.212113,-0.009367,-0.0438393,0.169046
0.145429,0.311441,-0.0952081,0.065922,0.394847,-0.243057,-0.0200403,-0.105603,0.0968436
0.151529,0.311707,-0.100901,0.0144914,0.0157938,-0.301402,0.00714234,-0.160525,0.0324882
0.149528,0.308741,-0.107661,-0.235717,-0.416147,-0.375608,0.0150242,-0.175068,-0.0494606
0.140794,0.300514,-0.114605,-0.452392,-0.591186,-0.397083,0.0323105,-0.176934,-0.203819
0.133371,0.290981,-0.121501,-0.355415,-0.306634,-0.372906,0.0459686,-0.177143,-0.433143
0.133244,0.286057,-0.1269,-0.0682793,0.148659,-0.174489,0.03919,-0.119592,-0.606269
0.138806,0.286053,-0.127322,0.0242325,0.334581,0.140247,0.02197,-0.055082,-0.606121
0.142474,0.286542,-0.121831,-0.0523094,0.157833,0.356607,-0.0146664,-0.0376298,-0.485978
0.141069,0.286596,-0.114248,-0.0268405,-0.0641858,0.33472,-0.0783783,-0.0593975,-0.419671
0.137444,0.287708,-0.108325,0.0579288,-0.0812791,0.251596,-0.114946,-0.04112,-0.373434
0.136848,0.290168,-0.103739,0.117494,0.18206,0.223802,-0.112362,-0.00191161,-0.290081
0.142633,0.293164,-0.099427,0.10676,0.510848,0.22778,-0.0962292,0.0312161,-0.152897
0.153172,0.294813,-0.0951646,-0.0327292,0.623458,0.18606,-0.0971022,0.0385923,0.021612
0.163188,0.291779,-0.0915801,-0.337883,0.43341,0.107371,-0.106587,0.0237103,0.183535
0.165958,0.282509,-0.0886059,-0.598909,-0.111206,0.0195155,-0.0726653,-0.0152711,0.26911
0.15718,0.27011,-0.087148,-0.608166,-0.701425,-0.072807,-0.0228673,-0.0341114,0.226702
0.139038,0.259438,-0.0868321,-0.444256,-1.05703,-0.0293766,0.0169574,0.02674,0.117623
0.117428,0.252542,-0.0850155,-0.274291,-1.00721,0.125816,0.0594552,0.111179,0.0404086
0.0996326,0.248984,-0.0802645,-0.134332,-0.610523,0.280099,0.0875288,0.173574,0.0201737
0.0911253,0.248094,-0.0737689,-0.0223142,-0.0976929,0.321669,0.0995158,0.186795,0.0513434
0.0912339,0.248727,-0.0670506,0.0123257,0.248299,0.34128,0.118132,0.176667,0.15651
0.0955995,0.249217,-0.0591425,-0.0524778,0.345701,0.427816,0.148416,0.168429,0.268361
0.0991681,0.247819,-0.0492502,-0.18519,0.240325,0.507932,0.157208,0.160299,0.363216
0.0991924,0.24358,-0.0379083,-0.346995,0.0278742,0.532392,0.160027,0.125349,0.407239
0.094279,0.236761,-0.0265878,-0.414749,-0.251696,0.489345,0.14367,0.0768864,0.396466
0.0843452,0.229627,-0.0166843,-0.378281,-0.504694,0.406277,0.115461,0.0574788,0.323424
0.0709094,0.223264,-0.00849861,-0.326227,-0.619586,0.352054,0.10373,0.0519953,0.239361
0.0571786,0.217399,-0.00128541,-0.310534,-0.586955,0.315167,0.128463,0.0106582,0.166654
0.0452605,0.211594,0.00524739,-0.306614,-0.45054,0.299048,0.138869,-0.0207246,0.0838586
0.0371453,0.206084,0.0113422,-0.267542,-0.231449,0.259909,0.113963,-0.0578232,-0.0170594
0.0332151,0.201168,0.0149534,-0.250719,-0.12272,0.0417026,0.0307541,-0.102158,-0.109787
0.0313425,0.195707,0.0120661,-0.294256,-0.110962,-0.365729,-0.0716175,-0.154035,-0.184321
0.0323308,0.189006,8.33423e-05,-0.338929,0.000172671,-0.824925,-0.0843465,-0.218383,-0.260464
0.0387997,0.181696,-0.0195731,-0.301298,0.337476,-1.09498,-0.0319106,-0.209149,-0.33199
0.0553075,0.175899,-0.0418539,-0.17239,0.92719,-1.10037,0.0431078,-0.150583,-0.394042
0.0822366,0.17221,-0.062524,-0.0648253,1.37986,-0.945813,0.0737189,-0.067486,-0.355478
0.114898,0.170073,-0.0797236,0.0101717,1.56424,-0.778847,0.0790408,-0.0228386,-0.252142
0.148111,0.16814,-0.0943683,-0.0515069,1.48457,-0.69101,0.0758397,-0.0241643,-0.14129
0.177235,0.161918,-0.106903,-0.410551,1.19418,-0.623894,0.0727318,-0.0148446,-0.0399691
0.197958,0.146701,-0.115343,-0.927966,0.754838,-0.453155,0.0808811,0.00391741,-0.000184536
0.197958,0.146701,-0.115343,-0.927966,0.754838,-0.453155,0.0808811,0.00391741,-0.000184536
0.208974,0.123848,-0.116937,-1.22633,0.334838,-0.152633,0.0569652,0.0573844,-0.097028
0.211084,0.101098,-0.111667,-1.03353,-0.051544,0.191484,-0.00517285,0.111622,-0.287381
0.206129,0.0877891,-0.101031,-0.460326,-0.326632,0.580141,-0.0336723,0.137634,-0.449973
0.196409,0.0879189,-0.0851408,0.130373,-0.489845,0.961852,-0.0430126,0.154441,-0.481633
0.184133,0.0979935,-0.0652024,0.433253,-0.531003,1.13969,-0.0973155,0.14932,-0.392501
0.172679,0.111436,-0.04466,0.522098,-0.371069,1.09391,-0.187053,0.111801,-0.253938
0.165686,0.126355,-0.0262391,0.661508,-0.132764,0.960244,-0.239542,0.0616424,-0.151898
0.161653,0.14378,-0.0108515,0.803336,-0.0954216,0.843963,-0.263751,0.0624745,-0.0296301
0.156411,0.16284,0.00252822,0.862312,-0.247534,0.775776,-0.270123,0.073681,0.127557
0.146864,0.182523,0.0144898,0.91717,-0.506336,0.675708,-0.289505,0.0771715,0.240793
0.133043,0.2032,0.0229494,1.0129,-0.685677,0.409713,-0.330453,0.0834424,0.276587
0.119494,0.2238,0.0244692,0.987714,-0.59008,-0.0203601,-0.366176,0.0712411,0.309172
0.112458,0.241136,0.0171083,0.806204,-0.2716,-0.490922,-0.36697,0.0466372,0.352537
0.114249,0.253288,0.000934343,0.57788,0.0375652,-0.928697,-0.309734,0.0250937,0.388632
0.123158,0.259633,-0.0229901,0.340102,0.230805,-1.27813,-0.21985,0.000347376,0.416378
0.135692,0.2615,-0.051769,0.229565,0.248972,-1.43691,-0.101426,-0.0257256,0.4003
0.147252,0.261849,-0.0821306,0.232827,0.132363,-1.46294,-0.0326795,-0.0127396,0.353455
0.158066,0.262269,-0.112587,0.2478,0.209322,-1.43324,-0.0123013,0.00878423,0.277433
0.171496,0.262262,-0.14114,0.201204,0.373638,-1.28036,0.0326887,-0.0117609,0.214883
0.185609,0.261694,-0.165345,0.168402,0.39517,-1.0229,0.121085,-0.0605884,0.155569
0.19769,0.261916,-0.183424,0.19385,0.34604,-0.692821,0.210379,-0.112513,0.0859379
0.207276,0.263797,-0.195691,0.224587,0.29549,-0.466872,0.214395,-0.139459,0.00814271
0.215017,0.265863,-0.205562,0.159925,0.217477,-0.457855,0.120686,-0.157958,-0.0652561
0.220543,0.265027,-0.216445,-0.024468,0.0299864,-0.607502,0.0448903,-0.189374,-0.133104
0.222768,0.260008,-0.229736,-0.148945,-0.123284,-0.735202,0.013013,-0.175056,-0.223874
0.224337,0.254749,-0.243337,-0.049155,-0.0335653,-0.631443,0.0644588,-0.114346,-0.372517
0.227733,0.25321,-0.253072,0.0913478,0.136249,-0.302342,0.107998,-0.019293,-0.440412
0.232092,0.255047,-0.255522,0.1308,0.224514,0.104835,0.107123,0.0467547,-0.414388
0.234574,0.259289,-0.251181,0.206949,0.103564,0.362662,0.0501974,0.0361942,-0.368477
0.232854,0.266452,-0.244885,0.343289,-0.105936,0.364511,-0.0445881,0.0194294,-0.327545
0.228201,0.274754,-0.240318,0.344064,-0.209975,0.254997,-0.118253,0.0355161,-0.242987
0.223317,0.281623,-0.237478,0.259242,-0.192698,0.173391,-0.131137,0.0695412,-0.14354
0.219578,0.286539,-0.235007,0.173339,-0.101765,0.185362,-0.115142,0.119029,-0.0562966
0.217614,0.29028,-0.231098,0.107859,0.0155532,0.261669,-0.0988362,0.154446,0.0285069
0.216558,0.292522,-0.225672,-0.0116769,0.001033,0.279314,-0.114799,0.164146,0.122365
0.212967,0.291963,-0.220237,-0.153336,-0.235651,0.201691,-0.124139,0.12316,0.192972
0.20311,0.288259,-0.216449,-0.277833,-0.650017,0.0755421,-0.0918917,0.0723236,0.218192
0.186001,0.28195,-0.214756,-0.37233,-0.990863,-0.0251386,-0.0453039,0.0655828,0.195519
0.16431,0.273973,-0.213857,-0.422752,-1.12291,-0.0100102,-0.00253306,0.107121,0.135849
0.141339,0.26597,-0.211656,-0.388326,-1.09963,0.109566,0.0456794,0.153607,0.0617081
0.119806,0.260034,-0.20713,-0.239519,-0.90107,0.240649,0.0822676,0.169284,0.00343001
0.104341,0.257935,-0.201535,-0.029316,-0.476811,0.243967,0.0799124,0.148853,-0.0245611
0.0984549,0.258908,-0.197577,0.0622926,-0.0231966,0.145067,0.0521207,0.130659,0.0330489
0.101194,0.259438,-0.195241,-0.0640131,0.328183,0.0929798,0.0593421,0.121634,0.157558
0.108636,0.255888,-0.192992,-0.304099,0.454223,0.0936245,0.0468874,0.122612,0.274449
0.11638,0.248342,-0.190094,-0.450734,0.35799,0.0947343,0.0264376,0.0826352,0.314037
0.119999,0.239301,-0.187385,-0.458435,0.0596157,0.0553891,0.00514521,0.0366609,0.303705
0.117738,0.23094,-0.185798,-0.377872,-0.229092,0.0003025,0.00634942,-0.0221907,0.262992
0.111967,0.224704,-0.185591,-0.246711,-0.315718,-0.0548671,-0.00795718,-0.0557923,0.179419
0.106482,0.220553,-0.187163,-0.169791,-0.265275,-0.151716,-0.0172804,-0.0825616,0.113942
0.102708,0.216477,-0.191628,-0.202297,-0.209807,-0.334412,-0.0229552,-0.121849,0.0913255
0.101038,0.21084,-0.200222,-0.272495,-0.139094,-0.573963,-0.01979,-0.165566,0.054274
0.101109,0.203305,-0.214315,-0.348551,-0.168393,-0.894606,-0.0422024,-0.183591,-0.0107657
0.100621,0.193188,-0.235138,-0.462497,-0.289964,-1.24448,-0.0584367,-0.178846,-0.0802988
0.100621,0.193188,-0.235138,-0.462497,-0.289964,-1.24448,-0.0584367,-0.178846,-0.0802988
0.0995838,0.180368,-0.262141,-0.532553,-0.280762,-1.50694,-0.028791,-0.164557,-0.173531
0.101982,0.16751,-0.292294,-0.431588,0.0530846,-1.55277,0.0597304,-0.122823,-0.287324
0.112119,0.157321,-0.321356,-0.282332,0.476523,-1.3945,0.118242,-0.0503431,-0.359127
0.129486,0.149683,-0.346514,-0.196431,0.874034,-1.18624,0.130849,0.0073249,-0.362599
0.152433,0.142573,-0.3684,-0.228031,1.07,-1.08711,0.10809,-0.00816271,-0.299822
0.175477,0.133345,-0.388708,-0.356034,0.89673,-1.05929,0.073951,-0.031082,-0.21999
0.191705,0.121674,-0.407436,-0.444099,0.466903,-0.966175,0.0636989,-0.0487615,-0.1982
0.197782,0.109714,-0.422383,-0.422998,-0.0183759,-0.700168,0.0490556,0.00632893,-0.246963
0.195032,0.10112,-0.431214,-0.219683,-0.302963,-0.3329,0.0121331,0.0839497,-0.349226
0.189514,0.0995983,-0.433914,0.140399,-0.235438,0.0393394,-0.0336394,0.133919,-0.441381
0.186078,0.106878,-0.431085,0.501747,-0.0903115,0.360999,-0.062857,0.139588,-0.432599
0.183931,0.120158,-0.424409,0.639876,-0.0746562,0.498155,-0.147382,0.129207,-0.309281
0.180586,0.133976,-0.417359,0.585936,-0.168689,0.414804,-0.27457,0.110718,-0.157371
0.176353,0.14643,-0.413387,0.601863,-0.187914,0.17558,-0.366617,0.062457,-0.0660847
0.17348,0.159731,-0.415396,0.759451,-0.112988,-0.138818,-0.413669,0.0346324,-0.035407
0.173757,0.175214,-0.423494,0.88842,-0.00261479,-0.356349,-0.40127,0.0637535,0.0327588
0.176472,0.191353,-0.434847,0.886509,0.0708445,-0.450605,-0.343984,0.0898459,0.153833
0.180674,0.20631,-0.447613,0.801262,0.0758637,-0.521144,-0.297693,0.111527,0.251115
0.184179,0.218748,-0.461357,0.665425,-0.0331113,-0.575827,-0.250644,0.114988,0.326267
0.184898,0.228518,-0.475883,0.57229,-0.207533,-0.64255,-0.213307,0.0907612,0.360417
0.183474,0.236895,-0.491827,0.542086,-0.285844,-0.734232,-0.194181,0.0898491,0.344657
0.182204,0.244639,-0.509302,0.529964,-0.236138,-0.792897,-0.179541,0.114917,0.322069
0.182707,0.25151,-0.527523,0.445517,-0.167615,-0.821893,-0.136974,0.106593,0.327493
0.18359,0.255583,-0.545309,0.271173,-0.169152,-0.805208,-0.083597,0.0674762,0.359673
0.184556,0.256606,-0.562611,0.158508,-0.1736,-0.842714,-0.040386,-0.00329584,0.332926
0.185772,0.256172,-0.581487,0.147305,-0.177708,-0.979343,-0.0349095,-0.043663,0.259423
0.188761,0.255471,-0.603218,0.179373,-0.0240598,-1.08142,-0.0484653,-0.0473167,0.174739
0.196643,0.255164,-0.62521,0.189674,0.255507,-0.999327,-0.011623,-0.0483004,0.110168
0.208842,0.254743,-0.644962,0.15,0.44935,-0.902613,0.0146196,-0.0556814,0.0870971
0.223751,0.25275,-0.66347,0.0182208,0.564983,-0.913455,0.015279,-0.0951774,0.0750433
0.239342,0.24648,-0.682274,-0.205966,0.505141,-1.0135,-0.0058392,-0.125866,0.0519046
0.251065,0.235887,-0.702104,-0.336055,0.134232,-1.11598,-0.0136356,-0.16194,-0.0226077
0.252234,0.223331,-0.722711,-0.370463,-0.490034,-1.12208,0.0098955,-0.147844,-0.134885
0.241964,0.211031,-0.741839,-0.360515,-0.897844,-0.97465,0.0688982,-0.11327,-0.282862
0.227136,0.200701,-0.757135,-0.284951,-0.818011,-0.711537,0.130971,-0.0776666,-0.434982
0.216793,0.193684,-0.767199,-0.198057,-0.395339,-0.419382,0.154126,-0.0508871,-0.549542
0.213425,0.188911,-0.772424,-0.173494,-0.0640931,-0.205261,0.107908,-0.0281228,-0.55628
0.214108,0.185371,-0.774271,-0.122934,0.0723382,-0.0579758,0.0395466,-0.010406,-0.502465
0.215334,0.184389,-0.774076,0.0459458,0.0701899,0.0584729,0.0149847,0.00428446,-0.419416
0.217437,0.188347,-0.772295,0.298037,0.189748,0.201815,0.0255295,0.00153552,-0.320692
0.222498,0.197162,-0.768193,0.455207,0.410749,0.38868,0.00606628,0.0330759,-0.154127
0.231484,0.208589,-0.761082,0.478766,0.609662,0.534792,-0.0220106,0.0488918,0.0312241
0.241678,0.219386,-0.752302,0.343724,0.549205,0.537619,-0.0869438,0.0533548,0.203342
0.24773,0.226165,-0.743731,0.108607,0.201334,0.423511,-0.11837,0.0175925,0.325337
0.244177,0.227887,-0.737462,-0.0748875,-0.436913,0.199371,-0.102664,-0.0267507,0.367476
0.228736,0.226028,-0.735282,-0.143024,-1.0251,-0.0227294,-0.062257,-0.033765,0.323891
0.20543,0.222473,-0.736182,-0.188304,-1.27352,-0.114496,-0.0170913,0.0266731,0.218228
0.180492,0.217993,-0.737363,-0.232418,-1.20754,-0.0708819,0.0273867,0.11956,0.111764
0.158988,0.212777,-0.737105,-0.28478,-0.913443,0.00340562,0.0781007,0.1643,0.0363793
0.144692,0.207126,-0.735779,-0.286558,-0.477341,0.0214292,0.100105,0.171621,-0.0121759
0.138881,0.201906,-0.735085,-0.237612,-0.117362,-0.0277607,0.0884216,0.15711,-0.0241621
0.137944,0.197526,-0.735047,-0.209838,-0.0141771,-0.0150843,0.10505,0.149369,0.0325657
0.136807,0.193454,-0.733647,-0.2163,-0.0829743,0.111174,0.132688,0.13979,0.104013
0.132841,0.19013,-0.729092,-0.159948,-0.224233,0.281352,0.167467,0.117362,0.138047
0.132841,0.19013,-0.729092,-0.159948,-0.224233,0.281352,0.167467,0.117362,0.138047
0.126323,0.188958,-0.722334,-0.0526828,-0.258902,0.3341,0.144047,0.112259,0.125879
0.120896,0.188799,-0.716055,-0.0702966,-0.135052,0.262719,0.0854747,0.0937314,0.125589
0.118804,0.186923,-0.711422,-0.170779,0.0166881,0.174209,0.0570021,0.0429834,0.147286
0.119519,0.183541,-0.70813,-0.188191,0.109853,0.107843,0.0507364,-0.0058265,0.132073
0.121564,0.180633,-0.705906,-0.122205,0.118863,0.0804001,0.0349742,-0.028188,0.107605
0.122999,0.179259,-0.704475,-0.0438935,0.035811,0.0339853,0.0142256,-0.0578903,0.0887097
0.121705,0.178431,-0.70447,-0.0509085,-0.177664,-0.0398745,0.00601109,-0.0869946,0.0889655
0.116379,0.176776,-0.705823,-0.106181,-0.375185,-0.120499,0.0130128,-0.110582,0.0569805
0.108174,0.172992,-0.709601,-0.242113,-0.505473,-0.30725,-0.0350937,-0.109425,-0.0144886
0.0993587,0.166049,-0.717362,-0.347191,-0.478951,-0.521105,-0.0553353,-0.121456,-0.098239
0.0943891,0.15875,-0.728941,-0.24479,-0.153243,-0.680028,-0.0133368,-0.134945,-0.235766
0.0988807,0.154376,-0.743291,-0.070496,0.381431,-0.76103,0.022602,-0.11293,-0.328166
0.112117,0.151528,-0.758114,-0.106875,0.683529,-0.716848,0.049159,-0.044348,-0.263667
0.127808,0.14582,-0.771226,-0.313764,0.640188,-0.656577,0.103019,-0.0600033,-0.135504
0.140155,0.136284,-0.783276,-0.451719,0.433211,-0.660697,0.139919,-0.109178,-0.104696
0.148827,0.125471,-0.794593,-0.445229,0.314626,-0.588549,0.174711,-0.146144,-0.155013
0.155996,0.115319,-0.803154,-0.438802,0.317617,-0.386295,0.190669,-0.110751,-0.213498
0.163496,0.106559,-0.80636,-0.351049,0.400268,-0.0650011,0.165486,-0.0482903,-0.250515
0.17116,0.102116,-0.803934,-0.114952,0.362247,0.227463,0.108058,-0.0203608,-0.284867
0.176033,0.103865,-0.796625,0.166163,0.192801,0.524198,0.0679597,-0.00400246,-0.255562
0.176618,0.112172,-0.784694,0.43929,0.00548611,0.777413,0.032755,0.0178667,-0.209793
0.173869,0.126039,-0.769824,0.655867,-0.0773019,0.902415,-0.0522522,0.0462532,-0.172167
0.170485,0.142922,-0.754221,0.722739,-0.046474,0.901169,-0.142342,0.0565744,-0.11239
0.167881,0.159681,-0.739272,0.677646,0.0144292,0.837074,-0.190191,0.0580511,-0.0389922
0.166136,0.175109,-0.725554,0.635916,0.027578,0.759404,-0.215945,0.0613916,0.0176581
0.164072,0.190313,-0.713138,0.68225,-0.0153024,0.702558,-0.240344,0.0765566,0.0597002
0.160417,0.207134,-0.701775,0.806225,-0.131153,0.668442,-0.253941,0.098127,0.106517
0.154205,0.226202,-0.691879,0.919253,-0.277657,0.574214,-0.261406,0.116902,0.157999
0.146222,0.24577,-0.685054,0.893032,-0.338981,0.366495,-0.273739,0.128054,0.221791
0.139598,0.26247,-0.682629,0.708035,-0.23252,0.0968228,-0.272364,0.130667,0.286619
0.138077,0.273828,-0.685309,0.451429,0.0343092,-0.19324,-0.257327,0.133624,0.333142
0.144171,0.279266,-0.692723,0.193117,0.373646,-0.428377,-0.228866,0.148896,0.36193
0.156334,0.279612,-0.703089,0.00993439,0.521397,-0.531193,-0.182625,0.139065,0.389047
0.168963,0.277523,-0.713454,-0.0408676,0.433209,-0.471686,-0.0910323,0.0901361,0.386259
0.176817,0.275796,-0.721259,0.0153766,0.119562,-0.292163,-0.00274591,0.0419821,0.355959
0.177689,0.276537,-0.725552,0.134949,-0.103245,-0.105143,0.0427745,-0.00906301,0.283362
0.175414,0.280185,-0.726912,0.23704,-0.150943,0.0225836,0.0471945,-0.0557415,0.195525
0.173554,0.285028,-0.727005,0.215752,-0.00159311,0.0381291,0.00980456,-0.0841875,0.129945
0.175468,0.287782,-0.727262,0.0307484,0.157765,-0.0345218,-0.00561592,-0.149264,0.0909114
0.179128,0.284671,-0.729836,-0.309436,0.104063,-0.296993,-0.029827,-0.221737,0.0664372
0.181505,0.273397,-0.737756,-0.647713,-0.0908793,-0.653294,-0.0605097,-0.263154,0.0107937
0.181596,0.255938,-0.751102,-0.804727,-0.224163,-0.901378,-0.0450173,-0.248007,-0.151905
0.182576,0.237155,-0.766691,-0.75758,-0.0196041,-0.88657,0.0168016,-0.186143,-0.343324
0.188108,0.221044,-0.779204,-0.60196,0.291026,-0.575712,0.0965412,-0.108877,-0.465309
0.197398,0.209224,-0.784121,-0.491066,0.501915,-0.128019,0.128303,-0.0354174,-0.500292
0.206726,0.200245,-0.78123,-0.458812,0.467822,0.187524,0.108796,-0.0242961,-0.465531
0.212035,0.193169,-0.774001,-0.36655,0.166561,0.344728,0.0534287,-0.0450292,-0.421529
0.21011,0.189532,-0.764978,-0.168992,-0.148693,0.445026,0.0316634,-0.0375073,-0.397751
0.204667,0.190267,-0.754724,0.0313472,-0.139825,0.561037,0.0152703,0.0212441,-0.371488
0.202246,0.195197,-0.742907,0.201435,0.153653,0.675352,0.00719908,0.0795338,-0.29042
0.206269,0.202967,-0.729387,0.282764,0.526793,0.779289,-0.0271738,0.11393,-0.142898
0.216591,0.212125,-0.714854,0.303477,0.765803,0.789572,-0.0662095,0.112607,0.0239896
0.228579,0.220775,-0.700949,0.219217,0.686505,0.727314,-0.106516,0.0967017,0.181763
0.235756,0.226463,-0.687826,0.0298046,0.274866,0.646694,-0.105376,0.0601033,0.314744
0.235756,0.226463,-0.687826,0.0298046,0.274866,0.646694,-0.105376,0.0601033,0.314744
0.232056,0.227894,-0.675978,-0.148784,-0.392802,0.502312,-0.0713534,0.0279435,0.376286
0.216491,0.225597,-0.666841,-0.271352,-0.891914,0.318371,-0.0508531,0.0245607,0.344304
0.196102,0.220236,-0.660928,-0.371903,-0.973965,0.139311,-0.0562755,0.0731657,0.239781
0.177141,0.212623,-0.658057,-0.416201,-0.844765,0.00678594,-0.0559298,0.136607,0.154491
0.162921,0.204129,-0.657441,-0.438879,-0.543953,-0.0857674,-0.00224806,0.154481,0.0899278
0.154987,0.19462,-0.658133,-0.490654,-0.277752,-0.117509,0.0464539,0.161412,0.0842292
0.151185,0.185034,-0.658219,-0.430963,-0.111105,-0.0205427,0.106661,0.153844,0.082451
0.148879,0.178494,-0.65604,-0.236331,-0.0689967,0.133642,0.135963,0.155438,0.0585835
0.147118,0.176458,-0.651675,-0.0382437,-0.0106109,0.242106,0.116339,0.147467,0.055487
0.146394,0.177319,-0.646888,0.0334856,0.0316817,0.21301,0.0680703,0.114211,0.0998596
0.145894,0.177986,-0.643679,-0.0284149,-0.0391731,0.107048,0.0357676,0.0692295,0.171226
0.143521,0.176621,-0.642156,-0.129028,-0.175452,0.0295247,0.0243423,0.0283038,0.208391
0.138513,0.173567,-0.641442,-0.163258,-0.288276,0.00772063,0.0185908,-0.000582218,0.18213
0.132902,0.17108,-0.64078,-0.0868886,-0.248349,0.0211525,0.0163043,-0.0321461,0.101117
0.128138,0.170427,-0.640375,0.0209766,-0.232923,0.00529196,-0.0153253,-0.0712105,0.0400548
0.123108,0.171797,-0.640842,0.110318,-0.313158,-0.0406821,-0.0430482,-0.133032,0.00895023
0.115824,0.17392,-0.642727,0.101953,-0.441253,-0.119045,-0.0496284,-0.174856,-0.00357288
0.107197,0.174591,-0.646241,-0.0101175,-0.47884,-0.226411,-0.0702094,-0.20163,-0.0349697
0.0979762,0.172204,-0.65218,-0.166172,-0.558908,-0.386818,-0.099806,-0.206957,-0.0838006
0.0878407,0.167024,-0.661246,-0.246247,-0.573744,-0.547102,-0.103475,-0.215404,-0.173846
0.0805931,0.161868,-0.672899,-0.145644,-0.303023,-0.63421,-0.0730144,-0.223634,-0.301172
0.0791729,0.159529,-0.685552,-0.00555692,-0.0587178,-0.619515,-0.0239784,-0.191336,-0.36749
0.0806054,0.158647,-0.697029,-0.0168239,-0.00580305,-0.510558,0.0153874,-0.13842,-0.321993
0.0805126,0.156812,-0.706034,-0.0904361,-0.174923,-0.408664,0.0387252,-0.122639,-0.274777
0.0759321,0.154053,-0.713816,-0.116226,-0.380718,-0.397779,0.0286158,-0.13809,-0.324291
0.0692877,0.151273,-0.72191,-0.0892706,-0.367829,-0.422473,0.000177115,-0.121062,-0.36241
0.0651985,0.150153,-0.730578,0.065106,-0.137314,-0.431,-0.0115018,-0.0736614,-0.388749
0.0670233,0.15344,-0.739159,0.309602,0.184052,-0.390733,-0.0175261,-0.00669175,-0.341467
0.0741817,0.160167,-0.746965,0.385207,0.383719,-0.335143,-0.043441,0.0559067,-0.196743
0.0830489,0.16675,-0.753907,0.318186,0.353426,-0.315411,-0.0717474,0.075326,-0.0702326
0.0894695,0.171911,-0.761636,0.27204,0.154968,-0.425908,-0.119451,0.0671985,-0.012013
0.0925966,0.176621,-0.772626,0.316893,-0.00572367,-0.60458,-0.11306,0.0690906,0.00105399
0.094993,0.183173,-0.786377,0.480645,0.030958,-0.656917,-0.0512408,0.115607,0.00354165
0.0998044,0.193336,-0.799672,0.64623,0.213087,-0.523474,-0.0139049,0.196284,0.0631397
0.107874,0.206309,-0.809447,0.745956,0.401433,-0.299131,-0.0202222,0.229705,0.161596
0.118252,0.221429,-0.81571,0.826901,0.481816,-0.165946,-0.0552516,0.210621,0.262412
0.128976,0.237712,-0.821041,0.842458,0.463032,-0.157241,-0.0910661,0.183905,0.365495
0.138226,0.253059,-0.826632,0.745242,0.311373,-0.182409,-0.10465,0.141724,0.444116
0.144268,0.265622,-0.833144,0.584403,0.148441,-0.276413,-0.114006,0.121274,0.480113
0.148903,0.273823,-0.841243,0.333225,0.123123,-0.372311,-0.10265,0.116163,0.501056
0.154422,0.276315,-0.84967,0.0378201,0.223753,-0.379849,-0.0459849,0.0812691,0.500317
0.161554,0.273681,-0.856648,-0.181529,0.281079,-0.32963,0.00384125,0.0258158,0.471288
0.167798,0.26797,-0.862172,-0.26732,0.179452,-0.291639,0.0235341,-0.0239368,0.398627
0.170843,0.262151,-0.867003,-0.212993,-0.00509611,-0.282281,0.0129189,-0.0602535,0.309898
0.170556,0.257857,-0.872758,-0.128666,-0.134114,-0.336453,-0.00933343,-0.0614885,0.228406
0.169685,0.254287,-0.878769,-0.138162,-0.101022,-0.273535,0.0535685,-0.0686345,0.173272
0.168808,0.2504,-0.882408,-0.194071,-0.0772101,-0.139663,0.0916114,-0.0816913,0.100825
0.167748,0.245219,-0.882986,-0.314081,-0.0395953,-0.0018386,0.0908706,-0.104918,0.0217293
0.167165,0.238411,-0.880601,-0.378975,0.0275223,0.0984662,0.0451211,-0.140916,-0.103125
0.165813,0.23158,-0.877595,-0.331071,-0.140394,0.0446486,-0.0410043,-0.174003,-0.225866
0.160677,0.22564,-0.877644,-0.26891,-0.336815,-0.155975,-0.0808118,-0.196421,-0.334717
0.155681,0.219266,-0.881522,-0.316228,-0.195839,-0.295832,-0.042744,-0.193742,-0.414729
0.155647,0.211306,-0.886714,-0.395213,0.0809466,-0.319717,-0.0183619,-0.147136,-0.474003
0.155647,0.211306,-0.886714,-0.395213,0.0809466,-0.319717,-0.0183619,-0.147136,-0.474003
0.160208,0.201809,-0.891329,-0.487419,0.255754,-0.280205,-0.0376035,-0.0978217,-0.495609
0.166146,0.190213,-0.894965,-0.597053,0.234359,-0.276388,-0.0406809,-0.0896186,-0.50011
0.169422,0.177436,-0.89887,-0.574741,0.0116246,-0.314929,-0.0353499,-0.0722422,-0.520974
0.167965,0.166971,-0.903305,-0.352024,-0.204707,-0.269617,0.0195966,-0.0229826,-0.524473
0.165969,0.163577,-0.906302,0.0790905,0.0401866,-0.0576759,0.104332,0.0389774,-0.464391
0.171734,0.169058,-0.90491,0.402438,0.581864,0.305905,0.114931,0.116786,-0.268976
0.185997,0.179742,-0.896799,0.473017,0.928645,0.649801,0.0514055,0.126209,-0.00495797
0.201738,0.19064,-0.883735,0.319975,0.811639,0.799494,-0.0136675,0.0882912,0.210521
0.209874,0.197536,-0.868094,0.0408988,0.258362,0.834359,-0.0139623,0.0319171,0.316611
0.204307,0.199784,-0.851983,-0.113852,-0.504864,0.740534,-0.0266732,0.0140859,0.293694
0.18515,0.200011,-0.838651,-0.108073,-1.08458,0.540687,-0.0303238,0.0316722,0.202907
0.160332,0.199256,-0.829611,-0.137443,-1.16626,0.333457,-0.01838,0.0894049,0.120917
0.137723,0.196406,-0.823688,-0.228514,-0.943388,0.214628,0.0460304,0.130708,0.0927796
0.121854,0.191776,-0.819318,-0.27575,-0.550132,0.159197,0.0964042,0.157613,0.0816575
0.11414,0.187147,-0.815548,-0.213742,-0.172562,0.162948,0.14301,0.165198,0.10818
0.111908,0.184209,-0.811275,-0.131393,-0.00629584,0.225486,0.17618,0.154162,0.185001
0.11099,0.182966,-0.805669,-0.0589263,0.0208397,0.306459,0.183185,0.130693,0.236581
0.110005,0.182926,-0.798869,-0.0243517,-0.00712483,0.349393,0.161381,0.119438,0.285493
0.107798,0.183188,-0.791693,-0.0323358,-0.0836219,0.345372,0.142044,0.0983028,0.317694
0.10441,0.182964,-0.785296,-0.062466,-0.105783,0.266817,0.115735,0.0743099,0.300372
0.102025,0.181522,-0.780934,-0.140087,-0.0498234,0.144258,0.10942,0.0578768,0.28679
0.100789,0.177636,-0.778509,-0.271671,-0.0418206,0.0656814,0.129069,0.0512608,0.271063
0.0995068,0.171467,-0.776686,-0.348252,-0.0528162,0.0639393,0.144363,0.0376625,0.218102
0.0977257,0.164608,-0.774164,-0.354192,-0.0778949,0.125647,0.160234,0.00935534,0.156245
0.096136,0.158264,-0.770069,-0.310597,-0.010825,0.221169,0.147048,-0.0271642,0.0800495
0.0957026,0.15323,-0.7645,-0.252496,0.0522619,0.261922,0.104034,-0.0662717,0.0172387
0.0957251,0.148467,-0.759081,-0.292377,0.0161527,0.216802,0.0626532,-0.110471,-0.010356
0.0947438,0.142247,-0.754859,-0.362847,-0.0556302,0.132329,0.0467189,-0.156618,-0.0781077
0.0928571,0.134795,-0.752699,-0.398608,-0.0818454,0.00831092,0.0310727,-0.174313,-0.179066
0.0926398,0.126551,-0.752747,-0.415832,0.0798433,-0.0775517,0.0509783,-0.202965,-0.267317
0.0961566,0.118714,-0.753635,-0.345648,0.252932,-0.0729821,0.0521281,-0.183918,-0.314421
0.101561,0.112528,-0.753863,-0.284668,0.260772,-0.00428181,0.0485922,-0.16719,-0.304871
0.105485,0.10698,-0.752704,-0.301277,0.12594,0.0512499,0.0315729,-0.183477,-0.293852
0.105894,0.100525,-0.751012,-0.362079,-0.0654536,0.0342641,0.00827141,-0.200776,-0.300096
0.102625,0.0933203,-0.749952,-0.344272,-0.246824,0.00732741,-0.0291382,-0.182908,-0.337837
0.0953836,0.0885587,-0.748762,-0.101582,-0.468893,0.0831935,-0.0377064,-0.102948,-0.39724
0.083871,0.0903698,-0.745985,0.246914,-0.642132,0.212105,-0.06451,0.0142581,-0.415693
0.0708015,0.0978029,-0.740562,0.426798,-0.579641,0.392629,-0.0689243,0.100378,-0.368494
0.0599909,0.107492,-0.731378,0.480388,-0.396781,0.575421,-0.103692,0.132584,-0.31295
0.0529419,0.118148,-0.719806,0.526391,-0.180687,0.605471,-0.174039,0.123703,-0.239427
0.0500947,0.129412,-0.709633,0.547234,0.0196244,0.440243,-0.226001,0.103157,-0.13987
0.0512696,0.140673,-0.703667,0.548634,0.160474,0.220268,-0.203253,0.0803493,-0.0218756
0.0548484,0.151801,-0.701296,0.558819,0.224428,0.100048,-0.158912,0.0865973,0.0899802
0.0591022,0.163664,-0.700308,0.635749,0.218419,0.0647402,-0.137197,0.10077,0.165227
0.0638837,0.177366,-0.700457,0.729902,0.275682,-0.00442369,-0.143848,0.107437,0.232533
0.0706986,0.192045,-0.702588,0.735928,0.363354,-0.104806,-0.140737,0.101908,0.321663
0.0792219,0.20574,-0.707006,0.658353,0.393321,-0.22836,-0.134446,0.0786664,0.398554
0.0887635,0.217171,-0.714326,0.540431,0.420146,-0.388875,-0.141649,0.0746601,0.443949
0.0999023,0.225616,-0.724488,0.394343,0.466651,-0.502079,-0.105128,0.0725379,0.472101
0.111183,0.231309,-0.735325,0.294489,0.396384,-0.473923,-0.0549592,0.0640754,0.466579
0.120039,0.235701,-0.744943,0.250993,0.278317,-0.416812,-0.0227964,0.0427436,0.416556
0.126775,0.239265,-0.753801,0.212494,0.210466,-0.407844,-0.00650121,0.00218654,0.345475
0.133917,0.242318,-0.763084,0.206272,0.301986,-0.443936,-0.0161978,-0.0133269,0.263591
0.143456,0.24498,-0.772071,0.170406,0.433585,-0.356126,0.0175235,-0.0180527,0.210055
0.143456,0.24498,-0.772071,0.170406,0.433585,-0.356126,0.0175235,-0.0180527,0.210055
0.154273,0.247132,-0.777679,0.122441,0.499938,-0.146254,0.0564057,-0.0440874,0.163501
0.16379,0.249049,-0.778959,0.103286,0.389297,0.0449117,0.0523906,-0.0836263,0.0942076
0.16863,0.25191,-0.777557,0.151157,0.126656,0.114295,0.012422,-0.114989,0.0048418
0.167535,0.25533,-0.775925,0.149815,-0.193938,0.0905795,0.0138556,-0.142973,-0.0798112
0.160999,0.257608,-0.775156,0.0475831,-0.411324,0.0123756,0.0278775,-0.133553,-0.194505
0.153221,0.257044,-0.775263,-0.0990123,-0.312663,-0.0083281,0.058447,-0.100513,-0.347011
0.150156,0.255003,-0.77399,-0.0947193,0.0489245,0.11519,0.067556,-0.0490521,-0.482465
0.152717,0.254451,-0.77009,-0.0376016,0.272331,0.240157,0.0223445,-0.00454161,-0.512121
0.156729,0.254225,-0.764374,-0.0866625,0.240386,0.28082,-0.0360658,-0.015015,-0.473951
0.158721,0.252327,-0.759244,-0.182798,0.104763,0.156177,-0.0968369,-0.00455332,-0.447585
0.160142,0.248249,-0.756866,-0.248354,0.109275,0.0288255,-0.101424,0.0572608,-0.42459
0.163257,0.243521,-0.75542,-0.222199,0.271015,0.0600283,-0.0378334,0.107271,-0.360311
0.170589,0.240768,-0.751983,-0.0941071,0.552456,0.240678,0.00372826,0.140273,-0.239673
0.182209,0.241523,-0.744802,0.0327296,0.744888,0.454236,-0.0141997,0.151047,-0.0551696
0.193397,0.244139,-0.734453,0.00649748,0.571376,0.566601,-0.0588853,0.131613,0.140702
0.197734,0.244591,-0.722651,-0.205463,0.109689,0.553914,-0.0805397,0.0805994,0.257437
0.190821,0.240326,-0.71086,-0.41921,-0.519895,0.486033,-0.0609387,0.0440499,0.261538
0.172999,0.232946,-0.700032,-0.468341,-0.952235,0.428187,-0.0537797,0.0745952,0.152589
0.14984,0.226348,-0.689615,-0.314462,-1.0917,0.473413,-0.0284985,0.129755,0.0550191
0.128156,0.2236,-0.679785,-0.117191,-0.785441,0.406011,-0.0367336,0.138993,0.0316382
0.117319,0.221992,-0.673516,-0.158558,-0.13828,0.168715,-0.0453609,0.136342,0.114217
0.119856,0.217094,-0.672111,-0.350644,0.361259,-0.0802665,-0.0183285,0.121124,0.24418
0.129321,0.208062,-0.674355,-0.508716,0.495596,-0.234142,0.00875349,0.117117,0.315539
0.139188,0.196609,-0.678375,-0.55394,0.383016,-0.301784,0.0360226,0.106783,0.336271
0.145346,0.185207,-0.683184,-0.495632,0.136874,-0.312332,0.0671146,0.102714,0.333878
0.146386,0.175515,-0.68767,-0.413761,-0.0874161,-0.263905,0.0973589,0.100549,0.327453
0.144582,0.166686,-0.691228,-0.432648,-0.125677,-0.211158,0.112069,0.0899572,0.316869
0.14363,0.156708,-0.693844,-0.527111,0.00664499,-0.199613,0.107472,0.0502024,0.292761
0.145586,0.144991,-0.696474,-0.591972,0.136476,-0.230311,0.118688,-0.00491533,0.252172
0.148892,0.132319,-0.699627,-0.611708,0.148626,-0.264183,0.14458,-0.0547729,0.196218
0.153214,0.119319,-0.703227,-0.630416,0.250036,-0.282225,0.149587,-0.102735,0.114651
0.159818,0.105477,-0.706501,-0.711788,0.37444,-0.241809,0.143412,-0.138936,0.0389594
0.167235,0.0892837,-0.707862,-0.867356,0.315437,-0.156034,0.121575,-0.19326,-0.0502274
0.172121,0.0712193,-0.707823,-0.887993,0.185282,-0.175795,0.0700975,-0.266762,-0.205033
0.17447,0.0538937,-0.709957,-0.777986,0.00485457,-0.351143,0.0208037,-0.319851,-0.326822
0.172928,0.0381468,-0.716186,-0.675967,-0.164207,-0.52729,0.006891,-0.331323,-0.411292
0.168506,0.023369,-0.725412,-0.632061,-0.303375,-0.620407,0.00570634,-0.296442,-0.47592
0.161364,0.00988953,-0.735412,-0.521157,-0.434152,-0.573968,0.00812073,-0.241911,-0.548546
0.151523,-0.000228885,-0.744762,-0.348464,-0.534874,-0.532402,-0.0231971,-0.193954,-0.616881
0.14141,-0.00884131,-0.755314,-0.406633,-0.452258,-0.676331,-0.0855139,-0.166373,-0.587367
0.13355,-0.0223271,-0.769919,-0.75195,-0.306566,-0.962444,-0.0939053,-0.129167,-0.528896
0.129502,-0.0424313,-0.788788,-0.930937,0.000942191,-1.15629,-0.0499989,-0.0568076,-0.57703
0.132574,-0.061375,-0.81,-0.596334,0.414527,-1.16902,0.0195062,0.0399819,-0.618201
0.142509,-0.0696133,-0.830853,0.101134,0.711682,-0.978868,0.0991004,0.111397,-0.522224
0.157829,-0.0627951,-0.848818,0.813119,0.910219,-0.696923,0.102381,0.211187,-0.292208
0.174901,-0.0444058,-0.863656,1.17273,0.831061,-0.479653,0.0336656,0.295956,-0.00110543
0.187884,-0.0238088,-0.876116,1.01171,0.476141,-0.397328,-0.0349329,0.294263,0.230903
0.193256,-0.00961881,-0.887014,0.582646,0.104249,-0.413351,-0.0479883,0.245127,0.298065
0.192877,-0.00315122,-0.896854,0.29495,-0.0965294,-0.42287,-0.0101788,0.197593,0.208518
0.191904,0.00134506,-0.906247,0.378794,0.058995,-0.416055,0.00411171,0.206347,0.0677779
0.197623,0.00940513,-0.916449,0.596871,0.545113,-0.44353,0.00473437,0.229284,0.0591059
0.214123,0.0191228,-0.928231,0.536847,1.05835,-0.508735,-0.00340664,0.253222,0.229609
0.237481,0.02406,-0.939521,0.1802,1.17478,-0.452275,-0.0168028,0.268595,0.398334
0.257674,0.0227941,-0.946343,-0.106293,0.768206,-0.236002,0.0274604,0.23608,0.425154
0.257674,0.0227941,-0.946343,-0.106293,0.768206,-0.236002,0.0274604,0.23608,0.425154
0.266989,0.019386,-0.948088,-0.13845,0.167058,-0.032666,0.0720516,0.159308,0.348254
0.265815,0.0182091,-0.946591,0.00878934,-0.218728,0.150953,0.0958224,0.105702,0.240857
0.260763,0.022019,-0.941879,0.24069,-0.248309,0.414409,0.102703,0.104995,0.161745
0.257577,0.031582,-0.932937,0.431257,-0.0208964,0.681375,0.0803187,0.104605,0.156622
0.258502,0.0434957,-0.92047,0.367873,0.123938,0.802041,0.0145677,0.0504705,0.241647
0.26036,0.0526802,-0.90671,0.167334,0.111574,0.73779,-0.0658023,-0.038195,0.269187
0.260992,0.0578403,-0.894836,0.050214,0.0246927,0.535795,-0.124169,-0.0980452,0.212459
0.260463,0.0611714,-0.886529,0.0718757,-0.0132888,0.37621,-0.117138,-0.120172,0.12787
0.259997,0.0645672,-0.880298,0.0778118,0.00918064,0.320725,-0.107097,-0.103721,0.0891024
0.260325,0.0667696,-0.874703,-0.0206979,0.060099,0.272587,-0.0995942,-0.121314,0.0577812
0.261666,0.06646,-0.869698,-0.120257,0.107355,0.199584,-0.0846577,-0.162654,0.00356162
0.263664,0.0655689,-0.865352,-0.0438757,0.130884,0.219203,-0.0286446,-0.171966,-0.0967526
0.266927,0.0686317,-0.860186,0.22666,0.232339,0.380493,-0.0147192,-0.13769,-0.176799
0.272254,0.0790943,-0.852417,0.56578,0.369424,0.671186,-0.0246851,-0.0844708,-0.174198
0.27912,0.0965101,-0.839369,0.722353,0.397834,1.0722,-0.0454829,-0.0722187,-0.0852435
0.283823,0.117575,-0.819207,0.742547,0.280531,1.41824,-0.0970797,-0.139547,-0.0462544
0.284354,0.140522,-0.794695,0.796129,0.080655,1.52721,-0.209169,-0.198715,-0.082516
0.280131,0.164851,-0.771305,0.899312,-0.143751,1.32077,-0.332792,-0.240466,-0.146965
0.272505,0.187743,-0.755398,0.840626,-0.345476,0.785922,-0.440746,-0.229236,-0.144675
0.261279,0.203348,-0.749886,0.475862,-0.713389,0.158367,-0.40253,-0.1707,-0.0732231
0.242253,0.206786,-0.752974,-0.0549793,-1.23973,-0.340135,-0.261849,-0.0941532,-0.043855
0.217866,0.200344,-0.762486,-0.301876,-1.2863,-0.710002,-0.129777,-0.0150442,-0.149629
0.20028,0.191748,-0.778659,-0.152778,-0.729367,-1.00133,-0.0217748,0.10534,-0.240816
0.197795,0.188521,-0.799208,0.237504,0.109502,-0.985261,0.110898,0.218198,-0.211827
0.209196,0.192205,-0.817153,0.415944,0.590413,-0.625617,0.17643,0.339263,0.00857067
0.222346,0.197028,-0.825743,0.191288,0.480645,-0.0912836,0.21548,0.346558,0.231216
0.226178,0.198184,-0.823184,-0.118942,-0.092633,0.311602,0.160552,0.2571,0.289439
0.21633,0.196369,-0.814965,-0.179801,-0.719509,0.390404,0.062016,0.176219,0.1946
0.196281,0.195626,-0.808444,-0.0206241,-1.08509,0.180339,-0.0169411,0.138777,0.0722595
0.17509,0.195793,-0.808333,-0.00720949,-0.988416,-0.167737,-0.0350504,0.145106,0.049179
0.159356,0.192505,-0.814088,-0.257813,-0.669375,-0.420237,0.0325883,0.161151,0.0902315
0.151156,0.182731,-0.822072,-0.578857,-0.313662,-0.473696,0.123608,0.167098,0.130311
0.148392,0.168041,-0.828503,-0.748713,-0.111788,-0.353189,0.177797,0.153518,0.131024
0.147002,0.153501,-0.831693,-0.581567,-0.076546,-0.172353,0.177377,0.105643,0.0716231
0.146326,0.145835,-0.832583,-0.158933,-0.00167084,-0.0454903,0.149246,0.0668277,0.0597902
0.146688,0.145828,-0.832831,0.11951,0.0342725,0.0134575,0.129986,0.0334035,0.150575
0.147912,0.148773,-0.832725,0.143852,0.0887534,0.0333034,0.119193,-0.0118394,0.241217
0.149999,0.15109,-0.832865,0.0825072,0.120432,-0.0143215,0.130342,-0.0458798,0.276426
0.152812,0.151737,-0.833443,-0.0198325,0.147147,-0.0169527,0.171964,-0.0626049,0.293595
0.155365,0.14963,-0.83287,-0.212357,0.115863,0.048862,0.21645,-0.0731571,0.303759
0.156258,0.143668,-0.829619,-0.412796,0.000494026,0.18637,0.24184,-0.0903153,0.257181
0.153633,0.13599,-0.823015,-0.411408,-0.163293,0.342544,0.253001,-0.107302,0.110873
0.148064,0.130744,-0.813534,-0.2408,-0.254518,0.516792,0.274802,-0.114272,0.0345874
0.141655,0.129489,-0.800982,-0.0713916,-0.195987,0.683607,0.287887,-0.119042,-0.0850768
0.137638,0.130988,-0.786854,0.00407875,-0.00891013,0.700904,0.23122,-0.141679,-0.177428
0.137625,0.132059,-0.77439,-0.0970232,0.167061,0.51449,0.15151,-0.186532,-0.229369
0.141378,0.129088,-0.76624,-0.328448,0.289193,0.237755,0.0778706,-0.241707,-0.277416
0.146502,0.120527,-0.763128,-0.548411,0.273209,-0.0543392,0.0375452,-0.283802,-0.31185
0.153296,0.10883,-0.765255,-0.548216,0.408398,-0.323017,-0.0126178,-0.289929,-0.410915
0.165485,0.0978335,-0.772279,-0.439402,0.755211,-0.534777,-0.0560785,-0.262323,-0.505881
0.184778,0.0876744,-0.782821,-0.405041,1.04219,-0.67105,-0.0957885,-0.236794,-0.504197
0.205949,0.075638,-0.795274,-0.563872,0.910895,-0.786754,-0.158394,-0.193019,-0.415594
0.220209,0.0594332,-0.8088,-0.693524,0.382179,-0.864277,-0.205673,-0.155125,-0.342689
0.223247,0.0446553,-0.822559,-0.365683,-0.0922659,-0.766696,-0.168992,-0.093894,-0.410753
0.223247,0.0446553,-0.822559,-0.365683,-0.0922659,-0.766696,-0.168992,-0.093894,-0.410753
0.220259,0.041474,-0.83418,0.348369,-0.213098,-0.403107,-0.143755,0.0507242,-0.534016
0.216971,0.0547496,-0.840136,1.04219,-0.133438,0.122,-0.159805,0.207814,-0.502555
0.214694,0.0804619,-0.838282,1.37674,-0.110726,0.576372,-0.227374,0.276664,-0.306988
0.209945,0.110946,-0.831414,1.45171,-0.337547,0.669488,-0.325305,0.23581,-0.0737625
0.199069,0.142326,-0.825683,1.51952,-0.696016,0.52356,-0.403002,0.192795,0.0820798
0.181515,0.174761,-0.82229,1.6071,-0.991567,0.441282,-0.344213,0.179122,0.154716
0.159714,0.207939,-0.81987,1.61006,-1.08457,0.341939,-0.287995,0.210655,0.207827
0.140036,0.239044,-0.819831,1.45028,-0.860265,0.109077,-0.3057,0.236408,0.270236
0.127843,0.264457,-0.824482,1.10553,-0.467044,-0.232049,-0.318742,0.240068,0.333136
0.125008,0.280535,-0.835358,0.615012,-0.147854,-0.601974,-0.317136,0.240035,0.419367
0.128298,0.286251,-0.852023,0.186901,-0.0126185,-0.90708,-0.240706,0.158945,0.438973
0.134106,0.28511,-0.873519,0.0149328,-0.0363445,-1.14835,-0.130672,0.0831883,0.386684
0.139344,0.281936,-0.898943,0.0150206,-0.168634,-1.31158,-0.0402704,0.0642115,0.347357
0.142411,0.278482,-0.926985,0.0152484,-0.247513,-1.40557,0.00869498,0.0875182,0.311222
0.146486,0.274336,-0.95601,-0.0268658,-0.104285,-1.40963,0.0323169,0.127917,0.2727
0.154366,0.269237,-0.984053,-0.0814649,0.157694,-1.34188,0.0882967,0.117589,0.236554
0.166894,0.262394,-1.01028,-0.21061,0.397428,-1.27856,0.15968,0.0765781,0.232458
0.182655,0.252124,-1.03461,-0.384807,0.551627,-1.21226,0.216115,0.0348927,0.202092
0.200028,0.239471,-1.05573,-0.448745,0.676633,-1.02541,0.24812,0.0233525,0.12374
0.218684,0.227656,-1.072,-0.368591,0.810354,-0.762879,0.23308,0.0424979,0.041069
0.237728,0.218395,-1.08228,-0.341828,0.837352,-0.413244,0.214373,0.0342596,0.010176
0.253281,0.209392,-1.08461,-0.487396,0.645233,-0.0415324,0.169702,-0.0286311,-0.0319014
0.262461,0.199692,-1.07999,-0.541087,0.361921,0.203202,0.0794224,-0.079327,-0.174379
0.265421,0.191784,-1.07231,-0.391405,0.115292,0.295551,-0.0189042,-0.122027,-0.354575
0.265832,0.188,-1.06506,-0.17758,0.0906188,0.286618,-0.091289,-0.140055,-0.468966
0.266561,0.186913,-1.0587,-0.127261,0.0859914,0.300089,-0.145699,-0.131724,-0.480938
0.265651,0.185691,-1.05125,-0.192034,-0.0487371,0.372108,-0.174985,-0.143331,-0.493195
0.261254,0.183627,-1.04216,-0.230264,-0.234225,0.42554,-0.186948,-0.15305,-0.522785
0.252922,0.181873,-1.03299,-0.147987,-0.405585,0.385501,-0.21353,-0.130041,-0.553719
0.243943,0.18227,-1.0264,0.0351842,-0.324816,0.246918,-0.252788,-0.0603143,-0.543728
0.239885,0.186098,-1.02353,0.282045,-0.00197259,0.138797,-0.223464,-0.0130786,-0.453274
0.243444,0.194874,-1.02294,0.546866,0.359798,0.145965,-0.145404,0.0138789,-0.262074
0.253355,0.208191,-1.02214,0.711446,0.626429,0.273573,-0.12578,0.0636845,-0.0387738
0.266163,0.224559,-1.0191,0.789003,0.692559,0.42584,-0.170398,0.10259,0.142315
0.277087,0.242393,-1.01418,0.78309,0.472848,0.496399,-0.235941,0.0968834,0.273505
0.280806,0.259188,-1.00901,0.685891,-0.00160511,0.421924,-0.251776,0.0564972,0.352155
0.274141,0.27275,-1.00647,0.545902,-0.605614,0.165301,-0.254655,0.037005,0.376825
0.257202,0.281495,-1.00925,0.35734,-1.13663,-0.199083,-0.255488,0.0600947,0.360941
0.233912,0.284221,-1.01818,0.1151,-1.40399,-0.56935,-0.23245,0.103149,0.299722
0.210783,0.281056,-1.03362,-0.0954389,-1.27818,-0.957854,-0.167142,0.114849,0.212723
0.195838,0.27255,-1.05625,-0.306607,-0.80875,-1.34607,-0.100431,0.120705,0.166144
0.191818,0.258299,-1.08451,-0.580648,-0.359779,-1.57565,-0.00534914,0.14066,0.187176
0.193131,0.238619,-1.11377,-0.78829,-0.264227,-1.57129,0.116149,0.130328,0.187578
0.193022,0.217502,-1.14108,-0.735638,-0.366524,-1.44418,0.186137,0.129594,0.118966
0.190022,0.199979,-1.16551,-0.525997,-0.428561,-1.24331,0.209766,0.143259,0.0688139
0.185864,0.187379,-1.18649,-0.341758,-0.361759,-1.02158,0.202762,0.1518,0.0520153
0.183507,0.178149,-1.2038,-0.275385,-0.18067,-0.840572,0.198705,0.126869,0.062467
0.184461,0.169407,-1.21829,-0.348461,0.00887939,-0.734221,0.196131,0.0808901,0.106445
0.187554,0.158806,-1.23026,-0.469746,0.102087,-0.623816,0.17412,0.0409365,0.118203
0.192021,0.147297,-1.2395,-0.466716,0.211859,-0.49433,0.152426,-8.55327e-05,0.0670909
0.198706,0.137296,-1.24625,-0.387768,0.360646,-0.356544,0.128019,-0.0478269,0.0401742
0.207068,0.128836,-1.25054,-0.372705,0.395048,-0.241409,0.0972445,-0.0910785,0.0517648
0.214752,0.120386,-1.2531,-0.40698,0.336476,-0.202405,0.0642396,-0.149924,0.0353876
0.214752,0.120386,-1.2531,-0.40698,0.336476,-0.202405,0.0642396,-0.149924,0.0353876
0.220227,0.110845,-1.25571,-0.474639,0.166279,-0.266998,0.0133885,-0.174935,-0.00485712
0.221216,0.0994362,-1.25909,-0.575902,-0.123391,-0.301736,0.0198264,-0.182618,-0.0574473
0.214925,0.0863343,-1.26195,-0.629472,-0.526186,-0.243546,0.0774217,-0.18924,-0.164128
0.202379,0.0740795,-1.26271,-0.534167,-0.666214,-0.0688645,0.11643,-0.177499,-0.337289
0.190145,0.0658697,-1.26018,-0.308553,-0.508189,0.160267,0.119834,-0.141408,-0.467037
0.181977,0.0630583,-1.25452,-0.0995279,-0.29697,0.319314,0.0472139,-0.109576,-0.495899
0.176362,0.062621,-1.24821,-0.0844129,-0.248321,0.258222,-0.0499065,-0.125362,-0.452652
0.170504,0.0608413,-1.24545,-0.13461,-0.341877,-0.0377537,-0.133751,-0.13991,-0.450467
0.16184,0.0579658,-1.24833,-0.0593637,-0.534635,-0.244181,-0.086462,-0.111424,-0.502045
0.151239,0.0590534,-1.25322,0.269923,-0.526364,-0.211611,-0.0682471,0.0110149,-0.575943
0.143046,0.0675555,-1.25819,0.636301,-0.307502,-0.146284,-0.104057,0.133636,-0.525274
0.139885,0.0822945,-1.26207,0.850364,-0.0551697,-0.0310848,-0.141353,0.183352,-0.381649
0.14053,0.0996171,-1.26449,0.896041,0.0810654,0.0171342,-0.181915,0.186946,-0.207379
0.142327,0.117721,-1.26707,0.947166,0.0452109,-0.0312603,-0.228878,0.172457,-0.0665841
0.142621,0.13727,-1.27138,1.06485,-0.0730942,-0.115836,-0.242104,0.175994,0.051962
0.140986,0.159554,-1.27758,1.23609,-0.157939,-0.177743,-0.214464,0.182056,0.140466
0.14001,0.184352,-1.28552,1.30165,-0.0527069,-0.264453,-0.20155,0.185782,0.249315
0.142789,0.207616,-1.29589,1.1167,0.128637,-0.430737,-0.205884,0.177593,0.373886
0.149413,0.225152,-1.30933,0.808176,0.223732,-0.612809,-0.198476,0.170948,0.467532
0.15719,0.236151,-1.32534,0.536153,0.173503,-0.757857,-0.167519,0.155471,0.488259
0.164076,0.242516,-1.34321,0.395964,0.0916455,-0.847323,-0.110831,0.1198,0.46095
0.169176,0.247061,-1.36188,0.375147,-0.0274417,-0.855758,-0.0544471,0.0856656,0.431653
0.172366,0.252248,-1.38021,0.448232,-0.086216,-0.815771,-0.0208684,0.0582969,0.38978
0.175822,0.259247,-1.39839,0.53757,-0.00157802,-0.81674,-0.0169426,0.0458116,0.354651
0.182338,0.266356,-1.41809,0.459862,0.163404,-0.95897,-0.0379872,0.0444369,0.371809
0.192946,0.269152,-1.44063,0.207496,0.288979,-1.11897,-0.000903249,0.0198663,0.401003
0.204764,0.266345,-1.46429,-0.00835201,0.241102,-1.15896,0.0699012,0.00588274,0.366841
0.214361,0.261129,-1.48664,-0.0204503,0.141751,-1.03947,0.144983,0.00507382,0.251132
0.222199,0.258403,-1.50556,0.171163,0.205298,-0.803589,0.172974,0.0114424,0.117393
0.232011,0.260346,-1.52052,0.302927,0.383072,-0.583291,0.147778,0.000746965,0.086467
0.243857,0.262117,-1.53208,0.0713807,0.499968,-0.482315,0.120086,-0.0438678,0.125073
0.255402,0.257122,-1.54082,-0.345842,0.388903,-0.478885,0.109644,-0.111272,0.0579616
0.261639,0.245101,-1.54837,-0.590064,0.0250317,-0.544212,0.0725074,-0.145179,-0.150641
0.259838,0.230186,-1.55606,-0.64189,-0.367201,-0.55549,0.0619554,-0.137183,-0.380333
0.252921,0.216371,-1.56326,-0.486417,-0.391106,-0.465331,0.0769214,-0.127385,-0.584159
0.249576,0.207198,-1.56916,-0.284179,-0.0410365,-0.30595,0.054203,-0.0850373,-0.662351
0.252825,0.202014,-1.57156,-0.186071,0.289359,-0.0482665,0.0330225,-0.0769913,-0.629559
0.258372,0.198658,-1.56967,-0.194564,0.233482,0.117188,-0.0270927,-0.0823247,-0.522407
0.259532,0.19621,-1.56623,-0.100739,-0.0464124,0.126918,-0.0627855,-0.101372,-0.452425
0.256696,0.197082,-1.56374,0.134933,-0.164821,0.15676,-0.0543457,-0.0508042,-0.376822
0.252078,0.203457,-1.56002,0.386691,-0.220599,0.388156,-0.00440469,0.0214838,-0.231571
0.246097,0.215743,-1.55158,0.595247,-0.174791,0.717353,0.00369567,0.072334,-0.0786295
0.240639,0.232758,-1.5376,0.713553,-0.0582599,1.00153,-0.0384457,0.10966,0.0638016
0.23558,0.25148,-1.51944,0.666864,-0.0466832,1.13213,-0.0962129,0.11192,0.205175
0.227348,0.26813,-1.49949,0.503106,-0.306704,1.1169,-0.124858,0.080664,0.298815
0.211374,0.280825,-1.47973,0.333183,-0.769299,1.01481,-0.115724,0.0581387,0.318395
0.186852,0.289825,-1.46168,0.212273,-1.14393,0.858815,-0.113276,0.0858184,0.266
0.158243,0.295124,-1.44684,0.0501308,-1.23674,0.617478,-0.115172,0.119334,0.201282
0.132792,0.295229,-1.43758,-0.167248,-1.00506,0.235059,-0.0983842,0.11797,0.142938
0.117289,0.290041,-1.43698,-0.34985,-0.492063,-0.243722,-0.0540118,0.104275,0.106174
0.115491,0.280333,-1.44502,-0.529254,0.0580279,-0.59817,0.0259677,0.132007,0.143466
0.12371,0.266673,-1.45706,-0.688688,0.418791,-0.680752,0.121049,0.151417,0.218206
0.136763,0.250217,-1.46846,-0.79392,0.559976,-0.62471,0.160221,0.149424,0.27512
0.14908,0.233141,-1.47771,-0.740087,0.444065,-0.504804,0.161306,0.129152,0.276866
0.14908,0.233141,-1.47771,-0.740087,0.444065,-0.504804,0.161306,0.129152,0.276866
0.156799,0.219459,-1.48433,-0.505349,0.166225,-0.334586,0.168313,0.114476,0.257407
0.157573,0.210917,-1.48779,-0.310776,-0.155215,-0.137663,0.183821,0.119513,0.268093
0.152783,0.204848,-1.48831,-0.315544,-0.305166,-0.0305924,0.154688,0.0889928,0.265721
0.146995,0.197415,-1.4881,-0.432261,-0.2262,-0.0753534,0.126398,0.0463089,0.218446
0.144802,0.187451,-1.48926,-0.527538,-0.0229928,-0.178486,0.141999,0.0160217,0.154115
0.146561,0.176277,-1.49183,-0.540978,0.1416,-0.223425,0.1625,0.00327693,0.103404
0.150669,0.164694,-1.49442,-0.587398,0.214228,-0.201862,0.179919,-0.00604749,0.0785032
0.155318,0.150975,-1.4965,-0.75565,0.225963,-0.227789,0.180195,-0.0477637,0.0471435
0.159764,0.1337,-1.49898,-0.898077,0.169913,-0.281244,0.148563,-0.0674881,-0.0382087
0.162198,0.11446,-1.5018,-0.950944,0.0156187,-0.303453,0.119751,-0.0583056,-0.13526
0.161292,0.0948391,-1.50464,-0.936664,-0.0991826,-0.292082,0.122187,-0.0702811,-0.231694
0.160984,0.0762245,-1.50778,-0.84556,0.0827453,-0.331236,0.101971,-0.11521,-0.350314
0.164688,0.0589504,-1.51249,-0.809821,0.198308,-0.401757,0.0635286,-0.116514,-0.370743
0.167538,0.0415573,-1.51739,-0.822839,0.0360095,-0.353399,0.0759273,-0.139165,-0.38381
0.165808,0.0249224,-1.52104,-0.760595,-0.207063,-0.286168,0.0799819,-0.163465,-0.447172
0.160284,0.00941492,-1.52365,-0.746323,-0.317764,-0.220815,0.0685273,-0.184799,-0.504118
0.154987,-0.0060147,-1.52483,-0.756984,-0.177148,-0.133443,0.0607234,-0.2,-0.563655
0.153754,-0.0198472,-1.52427,-0.586302,0.0637471,-0.0111599,0.0586735,-0.180811,-0.62219
0.157661,-0.0274406,-1.52102,-0.187444,0.324459,0.235988,0.0661334,-0.117403,-0.615909
0.167086,-0.0249602,-1.5134,0.312648,0.589228,0.567275,0.0325943,-0.0306034,-0.516614
0.180739,-0.0116939,-1.50097,0.767594,0.729174,0.873345,-0.0548817,0.0359138,-0.340911
0.194582,0.0101009,-1.48584,1.07341,0.613377,0.990152,-0.136324,0.0621332,-0.130433
0.204501,0.0363459,-1.47173,1.19464,0.426846,0.887369,-0.187853,0.0860357,0.0327303
0.211398,0.0628076,-1.46141,1.17802,0.336275,0.667925,-0.219698,0.137519,0.137249
0.217868,0.087542,-1.45542,1.11027,0.36225,0.45312,-0.217152,0.179273,0.20486
0.225437,0.109452,-1.4531,0.979387,0.419849,0.26194,-0.189281,0.187847,0.262748
0.234427,0.1274,-1.45373,0.78941,0.463041,0.0930476,-0.171107,0.188182,0.310956
0.244066,0.141355,-1.45659,0.657847,0.456506,-0.0366054,-0.161435,0.182068,0.309394
0.254394,0.153048,-1.4619,0.611303,0.51431,-0.19454,-0.17279,0.170198,0.293615
0.26651,0.162769,-1.47045,0.540488,0.5493,-0.364043,-0.156308,0.160373,0.30633
0.279431,0.170002,-1.48091,0.43626,0.576854,-0.408477,-0.088804,0.156061,0.319869
0.292973,0.175168,-1.49011,0.314947,0.621065,-0.293652,-0.0349145,0.167239,0.336614
0.306741,0.178903,-1.49513,0.190037,0.671052,-0.0649288,-0.00491348,0.142397,0.352704
0.319802,0.181733,-1.49523,0.0948834,0.634879,0.125685,-0.0128912,0.0774628,0.344385
0.331493,0.184398,-1.49258,0.0802437,0.592058,0.185605,-0.0406716,6.63698e-05,0.304313
0.342056,0.187142,-1.4898,0.0860838,0.513001,0.144922,-0.0581602,-0.0554033,0.27297
0.350645,0.189095,-1.4884,0.0360042,0.373186,0.0543426,-0.0345857,-0.0829038,0.251512
0.356853,0.188895,-1.48756,-0.0913459,0.288213,0.0289795,0.0322835,-0.0898901,0.201309
0.361917,0.186051,-1.48508,-0.268408,0.26638,0.127851,0.0800669,-0.0594207,0.13072
0.36488,0.18121,-1.47762,-0.435193,0.155815,0.410938,0.110141,-0.0421156,0.0265825
0.363235,0.177003,-1.46322,-0.428398,-0.0887365,0.759506,0.0793893,-0.0399385,-0.129642
0.35508,0.176914,-1.44373,-0.249678,-0.399411,1.01401,-0.00897148,-0.0278798,-0.274114
0.341468,0.181382,-1.42204,-0.0706036,-0.521682,1.12848,-0.101381,-0.0599977,-0.388974
0.328188,0.18846,-1.40079,0.0343392,-0.37117,1.04895,-0.194856,-0.097642,-0.457188
0.320435,0.194815,-1.38289,-0.020197,-0.0744043,0.804235,-0.270661,-0.129382,-0.451836
0.318155,0.196855,-1.37019,-0.194728,0.055756,0.44313,-0.302333,-0.147813,-0.413562
0.31631,0.193086,-1.36337,-0.355073,-0.142149,0.0824496,-0.282271,-0.133795,-0.396785
0.310788,0.185708,-1.36233,-0.355136,-0.38163,-0.19604,-0.228773,-0.0684398,-0.408729
0.303191,0.179242,-1.36559,-0.135005,-0.366506,-0.274301,-0.126532,0.0144806,-0.425861
0.300505,0.17819,-1.36991,0.143906,0.0537526,-0.135592,-0.073634,0.0853755,-0.359544
0.30544,0.182028,-1.3715,0.251091,0.36885,0.0960159,-0.0385123,0.0833379,-0.16185
0.313863,0.188511,-1.37008,0.32586,0.455857,0.210703,-0.0493753,0.0446657,0.0244771
0.320912,0.196259,-1.36812,0.336459,0.255236,0.20099,-0.0840198,0.0329073,0.170065
0.322668,0.202696,-1.36709,0.222582,-0.0632924,0.0808836,-0.102309,0.0147107,0.251746
0.322668,0.202696,-1.36709,0.222582,-0.0632924,0.0808836,-0.102309,0.0147107,0.251746
0.304121,0.203063,-1.37049,-0.104783,-0.943428,-0.215096,0.000276893,-0.015172,0.243024
0.282866,0.19918,-1.37565,-0.1007,-1.23649,-0.393588,0.049758,-0.0129802,0.133916
0.261597,0.195668,-1.3857,0.0393964,-1.01235,-0.675048,0.0619392,0.00258788,0.000890136
0.249551,0.193467,-1.40282,0.14452,-0.519211,-1.01036,0.0751586,0.0668654,0.00100899
0.248384,0.190535,-1.42599,0.116663,-0.0483398,-1.24707,0.114721,0.163123,0.0870844
0.255648,0.185913,-1.45144,0.0603882,0.263807,-1.26616,0.173421,0.235167,0.176093
0.266638,0.180482,-1.47534,0.0208023,0.374659,-1.13669,0.218741,0.248733,0.254398
0.277318,0.174972,-1.49646,0.0121985,0.317124,-1.02819,0.203654,0.222085,0.287135
0.286728,0.16967,-1.51625,0.0117684,0.283865,-1.01039,0.151498,0.202488,0.292066
0.295081,0.163856,-1.5354,-0.0384536,0.261801,-0.95761,0.157704,0.19471,0.303857
0.303063,0.157046,-1.55226,-0.124458,0.281987,-0.828417,0.184918,0.192519,0.306268
0.311649,0.149383,-1.5652,-0.227249,0.397562,-0.615043,0.196618,0.178277,0.290167
0.321575,0.140547,-1.57267,-0.390735,0.453798,-0.377423,0.204053,0.12919,0.291419
0.329674,0.130034,-1.57554,-0.496807,0.304811,-0.246045,0.199735,0.0374745,0.236759
0.333667,0.119243,-1.57595,-0.50856,0.0403275,-0.134319,0.211345,-0.0319333,0.15283
0.330232,0.109718,-1.57327,-0.485182,-0.335111,0.0955305,0.242675,-0.0320579,0.0746938
0.31968,0.101578,-1.56539,-0.559454,-0.62842,0.383968,0.231592,-0.00731508,-0.0095675
0.304141,0.0931799,-1.55221,-0.630439,-0.757745,0.591287,0.178006,-0.0397216,-0.153443
0.288077,0.0852461,-1.53626,-0.583942,-0.705975,0.683087,0.117267,-0.0580455,-0.28294
0.273668,0.0791491,-1.51978,-0.448506,-0.584346,0.729725,0.0837311,-0.0976913,-0.383612
0.262999,0.0758636,-1.5036,-0.306714,-0.347421,0.742085,0.0484483,-0.116165,-0.429924
0.257018,0.0747212,-1.48784,-0.219339,-0.154714,0.747245,0.0194764,-0.117975,-0.410028
0.253606,0.0740582,-1.4727,-0.247882,-0.0925464,0.700344,0.00235495,-0.126403,-0.340532
0.250407,0.0716201,-1.45789,-0.355233,-0.129974,0.679568,-0.0019698,-0.1386,-0.298397
0.245175,0.067982,-1.44242,-0.345108,-0.299163,0.753265,0.0414036,-0.142642,-0.314601
0.236068,0.0670703,-1.42458,-0.150206,-0.517158,0.976432,0.0857821,-0.123471,-0.328322
0.222129,0.0719363,-1.40281,0.137948,-0.697536,1.26269,0.123586,-0.10084,-0.324059
0.205819,0.08379,-1.37689,0.483606,-0.718132,1.51319,0.133278,-0.0729853,-0.314656
0.189818,0.102957,-1.34769,0.805505,-0.599138,1.71599,0.0971238,-0.000236578,-0.276793
0.175318,0.126963,-1.31533,0.949135,-0.496051,1.88899,0.0394921,0.0784049,-0.15622
0.160901,0.151959,-1.27956,0.906624,-0.444033,2.02179,0.0146121,0.157891,-0.0237727
0.146937,0.175116,-1.24124,0.815142,-0.331277,2.07584,-0.0337418,0.213056,0.0620012
0.134046,0.196719,-1.20176,0.794495,-0.237661,2.06897,-0.0621134,0.241748,0.110999
0.121514,0.217454,-1.16257,0.763213,-0.215333,2.00961,-0.0738204,0.264328,0.155575
0.109186,0.235839,-1.12436,0.638369,-0.13455,1.91151,-0.0265914,0.250749,0.207526
0.0989743,0.251448,-1.08716,0.550112,0.00213461,1.86195,0.0498176,0.249524,0.226279
0.090765,0.265231,-1.04999,0.465318,0.146339,1.86884,0.132484,0.270738,0.233398
0.0856301,0.275267,-1.01118,0.168286,0.384034,1.97398,0.186585,0.285232,0.278986
0.0835912,0.27794,-0.96834,-0.237624,0.564504,2.16562,0.221056,0.267174,0.339613
0.0828388,0.274386,-0.921453,-0.448634,0.61917,2.28952,0.224383,0.188665,0.315645
0.0816779,0.268868,-0.873659,-0.462841,0.542735,2.25098,0.177509,0.10315,0.279462
0.0795307,0.263654,-0.827649,-0.402205,0.445052,2.14018,0.157292,0.018194,0.248769
0.0765816,0.259531,-0.784495,-0.349502,0.38669,1.99204,0.14215,-0.0234779,0.21621
0.0746341,0.254804,-0.744415,-0.43024,0.447305,1.86564,0.144609,-0.0249977,0.197547
0.0756526,0.247585,-0.706081,-0.565618,0.634075,1.79058,0.144833,0.0114207,0.15721
0.0817314,0.237839,-0.669647,-0.671083,0.800588,1.66925,0.0849033,0.0372389,0.084099
0.0887,0.227544,-0.635002,-0.624152,0.668116,1.63873,0.0466494,0.0695802,-0.000965953
0.0914525,0.219735,-0.599431,-0.461168,0.378903,1.78029,0.0539982,0.129332,-0.0916759
0.0873125,0.216027,-0.560261,-0.24821,0.092821,2.00523,0.0213925,0.259105,-0.217638
0.0799192,0.216303,-0.517774,-0.0898992,0.117573,2.12746,-0.0641952,0.302633,-0.263099
0.0756246,0.218104,-0.474026,-0.0731077,0.431662,2.1481,-0.143053,0.277109,-0.266029
0.0796371,0.219226,-0.431356,-0.133352,0.873516,2.01348,-0.234891,0.247503,-0.237019
0.0908232,0.219441,-0.391851,-0.152151,1.06212,1.84437,-0.231147,0.171771,-0.18671
0.0908232,0.219441,-0.391851,-0.152151,1.06212,1.84437,-0.231147,0.171771,-0.18671
0.104323,0.220323,-0.355748,-0.101683,1.06972,1.68883,-0.219064,0.139291,-0.148268
0.118067,0.221542,-0.32218,-0.179187,1.04368,1.60994,-0.258163,0.164361,-0.0809604
0.129228,0.219204,-0.288383,-0.478637,0.740106,1.65982,-0.245063,0.120712,-0.0108126
0.130304,0.211629,-0.252723,-0.674372,0.140327,1.67963,-0.227257,0.0102236,-0.03983
0.121715,0.203485,-0.219232,-0.509014,-0.256944,1.43123,-0.231138,-0.0865213,-0.1212
0.111064,0.198775,-0.193924,-0.256278,-0.243896,0.970049,-0.186855,-0.148905,-0.123067
0.106924,0.196459,-0.178854,-0.169866,0.179649,0.485072,-0.125877,-0.151177,-0.052425
0.114557,0.19202,-0.172441,-0.385998,0.676223,0.123024,-0.0352858,-0.110092,0.0671058
0.12979,0.181338,-0.170055,-0.684841,0.833285,0.0264041,0.0935218,-0.0970288,0.11768
0.14334,0.167498,-0.166168,-0.672416,0.519973,0.190566,0.187214,-0.0946971,0.0607012
0.147199,0.158418,-0.158738,-0.297943,-0.022685,0.396705,0.221365,-0.100102,-0.00926942
0.141408,0.158548,-0.149714,0.1625,-0.360681,0.46173,0.193151,-0.102308,-0.0361469
0.132506,0.164926,-0.142118,0.309364,-0.380573,0.34828,0.17073,-0.114293,0.00923169
0.125334,0.170752,-0.137611,0.198388,-0.247385,0.16573,0.2131,-0.118284,0.0401509
0.123359,0.173888,-0.136408,0.107521,0.0965026,0.00274763,0.244211,-0.0679839,0.0141476
0.128979,0.175331,-0.137365,0.0458927,0.443333,-0.071626,0.286604,-0.0244332,0.0101202
0.141202,0.175138,-0.138838,-0.0445106,0.744372,-0.0520737,0.312592,0.0148811,0.0266144
0.157178,0.174105,-0.138222,-0.0327589,0.84021,0.107537,0.353068,0.0299772,0.0126278
0.17378,0.175636,-0.134513,0.131988,0.893691,0.269007,0.356059,0.0610716,-0.002886
0.190847,0.18051,-0.128827,0.225616,0.916453,0.367937,0.367163,0.086636,0.0265448
0.208116,0.186604,-0.120933,0.197453,0.963827,0.530382,0.391879,0.131141,0.0565292
0.225613,0.192175,-0.108576,0.0761831,1.01798,0.799376,0.397755,0.187836,0.0770152
0.242015,0.196355,-0.089182,-0.12381,0.97525,1.16787,0.380348,0.229428,0.0904154
0.254258,0.198797,-0.0609342,-0.306605,0.76648,1.58676,0.355416,0.234859,0.081326
0.258289,0.20127,-0.0242233,-0.345143,0.364477,1.95575,0.314671,0.24128,0.00540173
0.254004,0.205885,0.0188388,-0.26731,0.117862,2.23713,0.248441,0.258206,-0.0992197
0.245954,0.213474,0.065788,-0.138704,0.0967137,2.39508,0.201438,0.269428,-0.176027
0.239866,0.222971,0.114635,-0.116454,0.395874,2.47102,0.157941,0.290571,-0.168598
0.240096,0.231551,0.165194,-0.23592,0.74715,2.53306,0.126552,0.31634,-0.102948
0.244436,0.237366,0.217334,-0.434694,0.85397,2.53373,0.0817173,0.302237,-0.0238813
0.247279,0.239208,0.270118,-0.609731,0.647975,2.51519,0.0481521,0.274424,-0.0201689
0.244459,0.240134,0.323926,-0.536298,0.352662,2.61405,0.0750938,0.268473,-0.0929118
0.23634,0.244708,0.380108,-0.326378,0.218511,2.82141,0.0816066,0.304987,-0.131012
0.226382,0.253141,0.439943,-0.200041,0.274632,3.03037,0.0574802,0.30376,-0.100868
0.217243,0.26341,0.502849,-0.147374,0.442683,3.11872,0.00152183,0.268721,-0.0534936
0.211426,0.273089,0.565923,-0.219816,0.652031,3.04289,-0.0576683,0.232415,0.00667053
0.209897,0.279954,0.62784,-0.356607,0.88172,2.94913,-0.0856078,0.209203,0.0334505
0.211541,0.284268,0.688769,-0.430946,0.941779,2.89456,-0.100421,0.198943,0.0351956
0.211885,0.288221,0.749405,-0.388625,0.793538,2.90418,-0.0993787,0.181494,0.00371617
0.208401,0.293787,0.810327,-0.285827,0.587064,2.93618,-0.128405,0.178389,-0.028308
0.199796,0.301233,0.87104,-0.168473,0.317017,2.89213,-0.174334,0.156851,-0.0497741
0.186009,0.309395,0.929174,-0.106179,0.067104,2.69994,-0.190301,0.0929198,-0.0633789
0.169988,0.316506,0.982017,-0.0906101,-0.0170652,2.37888,-0.191346,0.0558317,-0.0919636
0.156496,0.32167,1.02808,-0.122999,0.14328,2.04395,-0.189185,0.0750624,-0.128482
0.14987,0.324108,1.06795,-0.215379,0.494054,1.75108,-0.184809,0.105847,-0.158684
0.152959,0.323877,1.1025,-0.291251,0.897593,1.5128,-0.172564,0.13076,-0.174662
0.163167,0.322648,1.13351,-0.274239,1.06774,1.40377,-0.128228,0.141405,-0.154255
0.174942,0.323217,1.16354,-0.143931,1.05112,1.45177,-0.0867914,0.175712,-0.126359
0.184743,0.327542,1.19578,0.023668,0.955272,1.66373,-0.0634847,0.224137,-0.0886546
0.190525,0.336346,1.23232,0.18976,0.81545,1.89259,-0.0761018,0.239738,-0.0514466
0.192549,0.348471,1.27179,0.272197,0.719343,1.96929,-0.116978,0.218811,-0.00862586
0.192737,0.360773,1.31126,0.21134,0.698982,1.90041,-0.125977,0.184739,0.0210679
0.19401,0.370907,1.34926,0.101676,0.807152,1.78833,-0.111584,0.17786,0.00808072
0.197965,0.378916,1.38579,0.0394234,0.932547,1.72977,-0.0773618,0.185236,-0.029906
0.197965,0.378916,1.38579,0.0394234,0.932547,1.72977,-0.0773618,0.185236,-0.029906
0.203709,0.387079,1.42264,0.0945448,1.01365,1.81765,-0.0122716,0.199979,-0.0648417
0.209367,0.397584,1.46237,0.166108,1.08488,2.00332,0.00438502,0.220093,-0.0488338
0.214666,0.408632,1.50552,0.0481306,1.10101,2.1086,-0.021974,0.19249,0.026623
0.217037,0.416105,1.55106,-0.230231,0.950939,2.12429,-0.042467,0.116207,0.0802998
0.214526,0.417673,1.59675,-0.500005,0.637129,1.97297,-0.0910988,0.0531873,0.0535446
0.208176,0.414185,1.63817,-0.610275,0.437169,1.65871,-0.0821137,-0.00838402,-0.0374713
0.203486,0.408339,1.67255,-0.603281,0.53324,1.32477,-0.0454544,-0.00899625,-0.112415
0.206088,0.401172,1.701,-0.646195,0.848909,1.13656,0.0182038,0.0382176,-0.113754
0.21478,0.392898,1.72877,-0.687907,1.07561,1.24582,0.128883,0.0867555,-0.0761824
0.225407,0.385484,1.76067,-0.690045,1.19087,1.4842,0.181662,0.0985264,-0.0455236
0.235156,0.378617,1.7969,-0.766727,1.10164,1.63069,0.159056,0.0766825,-0.000631988
0.240601,0.370594,1.83568,-0.862874,0.839927,1.68085,0.127546,0.0321367,0.00856489
0.239998,0.361219,1.87464,-0.911291,0.528904,1.63179,0.0799919,0.0132662,-0.0372376
0.237246,0.351402,1.91214,-0.865398,0.562716,1.55061,0.0543599,0.005485,-0.124655
0.239507,0.342438,1.94691,-0.792632,0.873671,1.43335,0.037658,0.0349877,-0.14989
0.249932,0.3341,1.98015,-0.789354,1.25214,1.43838,0.0522425,0.0688098,-0.0989597
0.265779,0.325642,2.01471,-0.875907,1.44512,1.52103,0.0574936,0.0801867,-0.0198727
0.283704,0.316594,2.05185,-0.958321,1.47678,1.63877,0.024785,0.0877901,0.0160427
0.298231,0.307873,2.09241,-0.971335,1.2004,1.84306,0.00283852,0.0960773,0.0322669
0.304283,0.302286,2.13772,-0.82664,0.748355,2.14276,-0.0350323,0.112309,0.00130337
0.299252,0.302895,2.1879,-0.533907,0.245784,2.46422,-0.0637188,0.121298,-0.0343995
0.284179,0.310136,2.24191,-0.283265,-0.0799556,2.66089,-0.116725,0.109388,-0.0352737
0.264459,0.31982,2.29723,-0.247584,-0.155827,2.65605,-0.174936,0.0824927,-0.00355655
0.243972,0.326938,2.35173,-0.372232,-0.164086,2.52728,-0.209293,0.051354,0.0213867
0.22333,0.330315,2.4033,-0.408405,-0.229139,2.30505,-0.206407,0.0153352,-0.0203619
0.203212,0.332156,2.45006,-0.34143,-0.267455,2.08808,-0.17313,0.00914124,-0.0602857
0.183411,0.334092,2.49309,-0.25518,-0.302562,1.9677,-0.106275,0.0224768,-0.0679174
0.163888,0.336811,2.53419,-0.151612,-0.294291,1.91902,-0.0480618,0.0377237,-0.0668039
0.145017,0.340573,2.57421,-0.0634422,-0.26464,1.87622,-0.00690573,0.0439429,-0.0430688
0.126845,0.345018,2.61309,0.00404357,-0.250108,1.82022,0.0346972,0.0432156,-0.00452536
0.109048,0.349806,2.65061,0.0531583,-0.246907,1.7511,0.0551835,0.055515,0.0435696
0.0920808,0.354683,2.68654,0.0879853,-0.212046,1.65999,0.0673981,0.0701939,0.0979989
0.076429,0.359218,2.7206,0.0862552,-0.166351,1.57251,0.0893619,0.0891373,0.163343
0.061774,0.362542,2.75296,0.0226342,-0.16972,1.47806,0.0989249,0.0988842,0.221453
0.046607,0.363664,2.78344,-0.0608443,-0.272048,1.39132,0.138601,0.0947297,0.234687
0.0305979,0.363243,2.81219,-0.0906344,-0.301328,1.28694,0.130949,0.105704,0.199845
0.0163761,0.361329,2.83775,-0.174358,-0.184197,1.09987,0.129244,0.0923634,0.177292
0.00776293,0.356779,2.85879,-0.31511,0.0612584,0.868842,0.178624,0.047363,0.158998
0.00591846,0.349063,2.87523,-0.476567,0.339386,0.683472,0.232201,0.0367047,0.123744
0.01198,0.33737,2.88783,-0.716091,0.683497,0.49064,0.216082,0.0193912,0.0858796
0.024187,0.321079,2.89674,-0.898388,0.756717,0.350265,0.221589,-0.00539356,0.0385228
0.0342119,0.304448,2.90458,-0.741554,0.451733,0.366926,0.284796,-0.0403059,-0.0846622
0.0373192,0.293287,2.91385,-0.420146,0.160178,0.493506,0.323475,-0.038918,-0.204943
0.0362932,0.286936,2.9261,-0.299097,0.117223,0.659768,0.320057,-0.00690192,-0.26077
0.0355533,0.281542,2.94169,-0.299638,0.241419,0.823732,0.282641,0.036321,-0.326997
0.0383743,0.276501,2.96028,-0.273316,0.555811,0.944695,0.210804,0.0760613,-0.393794
0.0474707,0.272246,2.98088,-0.236136,0.927766,1.02376,0.11674,0.116155,-0.409757
0.0634815,0.269378,3.00314,-0.164063,1.25598,1.12128,0.0453553,0.151294,-0.356288
0.083377,0.2689,3.02894,-0.0673058,1.38316,1.39198,0.000706047,0.207444,-0.254953
0.101631,0.271385,3.06157,0.0193364,1.30467,1.78062,-0.0845131,0.261779,-0.158316
0.114421,0.276978,3.10239,0.114383,1.04789,2.19818,-0.174365,0.276502,-0.0786899
0.117519,0.286351,-3.13204,0.283421,0.603711,2.56877,-0.259874,0.26982,-0.0175505
0.108812,0.300408,-3.07685,0.524672,0.134515,2.83287,-0.317205,0.256191,0.0310026
0.0906783,0.31908,-3.0178,0.755477,-0.114111,2.94792,-0.368958,0.258761,0.0749264
0.0906783,0.31908,-3.0178,0.755477,-0.114111,2.94792,-0.368958,0.258761,0.0749264
0.0681518,0.339324,-2.95741,0.763361,-0.153942,2.90011,-0.401664,0.245371,0.163523
0.0460414,0.355061,-2.89895,0.455126,-0.0579123,2.6669,-0.419894,0.20243,0.251954
0.0277679,0.361256,-2.84631,-0.0241771,0.0780713,2.28372,-0.417284,0.124171,0.295323
0.0150374,0.357171,-2.80257,-0.456767,0.199219,1.80111,-0.394016,0.0236207,0.266954
0.00881333,0.345431,-2.76969,-0.729088,0.29047,1.279,-0.35276,-0.0542659,0.210989
0.00754709,0.329837,-2.74785,-0.833943,0.314584,0.786271,-0.26274,-0.118464,0.154793
0.0104917,0.312887,-2.73559,-0.877773,0.363848,0.387066,-0.159793,-0.144647,0.12109
0.0161221,0.295199,-2.72991,-0.889341,0.366488,0.159505,-0.0300725,-0.157251,0.0828713
0.0224563,0.278049,-2.72712,-0.828873,0.346233,0.104581,0.100371,-0.147852,0.0367897
0.0277874,0.262388,-2.72317,-0.748874,0.27419,0.270031,0.18296,-0.104306,0.00778949
0.0302878,0.249033,-2.71395,-0.59705,0.226011,0.608138,0.26037,-0.0985194,-0.0473301
0.0307533,0.240286,-2.69692,-0.318115,0.238267,1.0103,0.277188,-0.104259,-0.106673
0.0308241,0.237851,-2.67319,-0.00666787,0.363355,1.26574,0.214906,-0.127773,-0.151067
0.0340892,0.240923,-2.6462,0.200274,0.584221,1.3469,0.146955,-0.16344,-0.127926
0.0409198,0.246812,-2.61954,0.265937,0.741284,1.24162,0.0880016,-0.193949,-0.067584
0.0506183,0.253065,-2.59647,0.244939,0.796239,1.02095,0.0679429,-0.201882,-0.0271396
0.0620752,0.258324,-2.57752,0.174661,0.818406,0.862026,0.110342,-0.179263,-0.0162742
0.0740125,0.262489,-2.56029,0.131537,0.821204,0.852411,0.15071,-0.115836,-0.0466166
0.0856815,0.266331,-2.54184,0.118212,0.812267,0.975484,0.180822,-0.0593013,-0.0817494
0.0961369,0.27105,-2.52023,0.172813,0.823622,1.15446,0.182921,-0.0157495,-0.121922
0.105754,0.277712,-2.49519,0.230108,0.823106,1.31443,0.165974,0.0299089,-0.130129
0.11391,0.284415,-2.46725,0.101969,0.77057,1.42168,0.157718,0.0449087,-0.0824814
0.120076,0.286257,-2.43765,-0.291103,0.642905,1.41139,0.130967,0.0463103,-0.0305102
0.121246,0.278298,-2.40825,-0.834399,0.284696,1.29561,0.113181,0.0331116,-0.062548
0.117059,0.262005,-2.38044,-1.02285,0.0998624,1.18228,0.145586,0.0368188,-0.259167
0.114451,0.246442,-2.35482,-0.773216,0.369896,1.1392,0.192456,0.103589,-0.384199
0.120965,0.237431,-2.32839,-0.43879,0.923158,1.36499,0.266,0.209083,-0.325532
0.135207,0.234638,-2.295,-0.28743,1.20398,1.86338,0.303773,0.311806,-0.125969
0.146844,0.235695,-2.25001,-0.226076,0.915169,2.48605,0.271287,0.336699,0.0443767
0.145665,0.240518,-2.19473,-0.0650626,0.258131,2.86585,0.171573,0.322709,0.110801
0.130478,0.249722,-2.13517,0.165566,-0.286444,2.96442,0.0937915,0.278354,0.1052
0.107465,0.260781,-2.07619,0.221896,-0.485771,2.81592,0.0639552,0.202919,0.124098
0.0829713,0.268647,-2.02198,0.0324673,-0.53527,2.46226,0.0397101,0.158906,0.145155
0.0600604,0.269631,-1.97534,-0.250767,-0.515161,2.03573,0.0469417,0.12575,0.110737
0.04028,0.265088,-1.93745,-0.342729,-0.44396,1.60733,0.054628,0.129136,0.000907779
0.0258083,0.260486,-1.90746,-0.187433,-0.193366,1.31481,0.104261,0.155987,-0.091262
0.0187502,0.259745,-1.88138,0.0619021,0.170356,1.23729,0.173835,0.189635,-0.0908281
0.0195934,0.263323,-1.85615,0.221678,0.541497,1.2069,0.190266,0.191107,0.0040108
0.0263367,0.268104,-1.83218,0.18265,0.730775,1.11953,0.165006,0.158687,0.13635
0.0346154,0.271171,-1.81007,0.0594641,0.643034,1.03301,0.154446,0.121635,0.217977
0.0380431,0.272806,-1.78965,0.0547387,0.207469,0.948874,0.148599,0.107493,0.222118
0.0325163,0.275234,-1.7706,0.118699,-0.204187,0.904505,0.163934,0.104978,0.173798
0.0221566,0.278121,-1.75213,0.109892,-0.289677,0.897733,0.149885,0.153928,0.103015
0.0116909,0.280275,-1.73348,0.0800624,-0.243759,0.896322,0.159664,0.145455,0.046424
0.00335092,0.282285,-1.71603,0.129019,-0.106057,0.774322,0.160692,0.0861532,-0.0153531
0.0002723,0.28603,-1.70206,0.239546,0.166909,0.571602,0.151777,0.0677593,-0.0524692
0.00269661,0.290989,-1.69182,0.243071,0.334129,0.445032,0.176906,0.0819594,-0.035848
0.00770312,0.295526,-1.68252,0.213935,0.41218,0.472593,0.201539,0.118147,-0.0485978
0.0133315,0.299771,-1.67192,0.204094,0.444993,0.552376,0.195897,0.148146,-0.0613281
0.0192678,0.303549,-1.65994,0.152513,0.487214,0.591066,0.164292,0.140446,-0.0576599
0.0258199,0.305788,-1.64837,0.0227256,0.497792,0.501823,0.0961386,0.138126,-0.0352942
0.0324041,0.304013,-1.63987,-0.24405,0.370927,0.295043,0.032869,0.120656,-1.71661e-05
0.036978,0.295427,-1.63664,-0.635958,0.18783,-0.0218096,0.018114,0.0736498,-0.00370818
0.036978,0.295427,-1.63664,-0.635958,0.18783,-0.0218096,0.018114,0.0736498,-0.00370818
0.0419321,0.279113,-1.63952,-0.9601,0.261791,-0.298085,0.0650338,0.031622,-0.0752351
0.0525636,0.257699,-1.64613,-1.13233,0.660448,-0.401131,0.114845,0.0405313,-0.156183
0.0715401,0.233926,-1.65161,-1.19232,1.07471,-0.242281,0.147142,0.0535761,-0.174836
0.0951137,0.210768,-1.65169,-1.09788,1.23895,0.0576137,0.174129,0.0443091,-0.134017
0.118148,0.191261,-1.64429,-0.919906,1.19211,0.490408,0.193922,0.0555751,-0.0896999
0.136686,0.177143,-1.62607,-0.712632,0.968772,1.14657,0.163143,0.114435,-0.0473365
0.1459,0.169608,-1.59395,-0.483091,0.460457,1.89218,0.0776814,0.151844,-0.0166423
0.140836,0.168918,-1.5485,-0.227945,-0.204245,2.50215,-0.044333,0.134287,-0.041693
0.12205,0.173922,-1.49483,0.0246806,-0.69987,2.77198,-0.207801,0.0747041,-0.110761
0.0961877,0.18281,-1.4397,0.274073,-0.894068,2.67703,-0.356616,0.0209356,-0.183105
0.0683189,0.19493,-1.38968,0.519801,-0.924069,2.30554,-0.425204,-0.0139128,-0.196337
0.0436771,0.209012,-1.34809,0.633209,-0.673883,1.85515,-0.388248,-0.0473741,-0.13671
0.0271072,0.222165,-1.3152,0.529957,-0.262146,1.41152,-0.309214,-0.0430091,-0.0172148
0.0219949,0.230709,-1.29114,0.262118,0.31647,0.962799,-0.250643,-0.0336306,0.0797449
0.0305599,0.233686,-1.27547,0.00726265,0.883425,0.594234,-0.215531,-0.0124996,0.157958
0.0497579,0.232006,-1.26589,-0.205279,1.2046,0.351858,-0.181996,-0.000248879,0.235888
0.0729509,0.22638,-1.26018,-0.377097,1.22385,0.178183,-0.169202,-0.0258388,0.282013
0.0946965,0.218159,-1.25749,-0.445388,0.964824,0.0180823,-0.145888,-0.0528848,0.301483
0.1092,0.209966,-1.25666,-0.35918,0.487331,0.0140601,-0.0473554,-0.0893024,0.288435
0.11367,0.20486,-1.25463,-0.173025,0.0200741,0.138541,0.0313565,-0.106873,0.255989
0.110756,0.203666,-1.25049,-0.00803389,-0.167012,0.234747,0.039902,-0.113947,0.206958
0.107275,0.204288,-1.24625,-0.00729835,-0.0892271,0.156768,0.00515772,-0.123257,0.184285
0.106814,0.203425,-1.24486,-0.0944814,0.0928099,-0.0318102,0.00686981,-0.143084,0.154676
0.110933,0.200848,-1.24716,-0.120915,0.244223,-0.219192,0.040629,-0.147668,0.106534
0.117799,0.19836,-1.25236,-0.0608198,0.33069,-0.279773,0.101758,-0.119375,0.0586339
0.126226,0.19724,-1.25609,-0.0118663,0.438349,-0.0574738,0.170801,-0.0755355,0.0230871
0.134737,0.197653,-1.25371,0.0292081,0.445287,0.308192,0.181763,-0.0456356,-0.012518
0.141483,0.200855,-1.24377,0.16575,0.439689,0.692804,0.13488,-0.059114,-0.0690488
0.146699,0.207599,-1.22799,0.247323,0.371323,0.898058,0.0310988,-0.0919995,-0.0681298
0.148547,0.214242,-1.21085,0.142517,0.170161,0.820368,-0.0725656,-0.16752,-0.0588308
0.147328,0.217533,-1.19744,-0.0107914,0.000467997,0.499896,-0.122264,-0.239043,-0.120433
0.145914,0.21706,-1.19085,-0.125897,0.0381773,0.153991,-0.0851307,-0.242328,-0.225767
0.147467,0.213686,-1.1887,-0.259888,0.126673,0.0504083,-0.029303,-0.16788,-0.278865
0.148607,0.207283,-1.18531,-0.429845,0.00404768,0.211539,0.0162719,-0.100015,-0.315472
0.143274,0.198577,-1.17741,-0.524218,-0.419663,0.405896,0.0417538,-0.0877905,-0.382602
0.128802,0.189528,-1.16724,-0.49507,-0.797677,0.431453,0.0408613,-0.0805559,-0.456569
0.110265,0.181727,-1.15799,-0.382139,-0.817403,0.381538,0.0540781,-0.0283012,-0.491465
0.0960643,0.176932,-1.1494,-0.154071,-0.380357,0.444263,0.121691,0.0294347,-0.459802
0.0934638,0.1781,-1.13852,0.164523,0.316626,0.650639,0.109778,0.131368,-0.32564
0.10293,0.184977,-1.12321,0.338556,0.835867,0.925674,0.0481591,0.222605,-0.0493309
0.115866,0.194103,-1.1028,0.334196,0.74273,1.15011,0.0208567,0.221131,0.211169
0.120296,0.2032,-1.07929,0.297724,0.105974,1.23366,0.00378523,0.186805,0.34486
0.109854,0.211697,-1.05529,0.272081,-0.657825,1.17926,0.0255653,0.157126,0.381923
0.0851912,0.218415,-1.03351,0.173913,-1.28333,1.01181,0.0468465,0.177437,0.369232
0.054482,0.221149,-1.01479,-0.0457277,-1.29091,0.835238,0.0848257,0.198568,0.283387
0.029824,0.218227,-0.999395,-0.310974,-0.794828,0.661324,0.135942,0.179085,0.206424
0.0171113,0.209842,-0.987297,-0.551777,-0.265975,0.510284,0.178531,0.14518,0.179184
0.0120374,0.197125,-0.977793,-0.718381,-0.0946344,0.430305,0.215796,0.129475,0.161974
0.00923007,0.183197,-0.968518,-0.649403,-0.0182385,0.484113,0.234653,0.112671,0.0808195
0.007443,0.172877,-0.957432,-0.375772,0.0188428,0.612126,0.222328,0.120611,0.0297139
0.00604708,0.168646,-0.943589,-0.0738585,0.065981,0.741797,0.199651,0.106889,0.0400247
0.0051194,0.169165,-0.928341,0.0816527,0.0885622,0.730692,0.144597,0.0733577,0.0973461
0.00528596,0.170767,-0.915357,0.0460129,0.148818,0.531998,0.0807284,0.0335397,0.142668
0.00808177,0.170687,-0.907459,-0.0636329,0.263033,0.245888,0.0449074,0.0120984,0.153237
0.00808177,0.170687,-0.907459,-0.0636329,0.263033,0.245888,0.0449074,0.0120984,0.153237
0.0138513,0.16836,-0.904943,-0.170063,0.351636,0.026055,0.0637223,-0.00624721,0.138797
0.0216256,0.164492,-0.905157,-0.200075,0.42586,-0.0285847,0.0900723,-0.0307068,0.0910684
0.030709,0.161249,-0.905589,-0.114552,0.455361,-0.0324051,0.0642681,-0.0524766,0.03626
0.0392093,0.159853,-0.9068,-0.0266488,0.360408,-0.100573,0.0393949,-0.0963806,0.00788468
0.0450414,0.159353,-0.909837,-0.0351668,0.148472,-0.211834,0.0109947,-0.123227,-0.0181268
0.0461735,0.157398,-0.915859,-0.143325,-0.0973994,-0.410731,-0.0210504,-0.140721,-0.0914324
0.0454419,0.153161,-0.926533,-0.22445,-0.104795,-0.657943,-0.0316499,-0.136881,-0.207566
0.0470865,0.147969,-0.940965,-0.221593,0.0797812,-0.76513,-3.07672e-05,-0.0993503,-0.30275
0.0540741,0.14342,-0.955767,-0.157937,0.386067,-0.692883,0.0308729,-0.0518652,-0.335703
0.0649027,0.140377,-0.967296,-0.0832631,0.481737,-0.44905,0.052953,-0.026328,-0.294011
0.0740616,0.138925,-0.973706,-0.0192759,0.329854,-0.216569,0.0411599,-0.0508673,-0.242254
0.0791745,0.13873,-0.97705,0.00867932,0.147275,-0.132429,0.0109777,-0.0880936,-0.213913
0.0804515,0.137361,-0.979259,-0.159351,-0.04851,-0.082463,-0.0200681,-0.0815153,-0.165333
0.0779403,0.131692,-0.978947,-0.394186,-0.198405,0.0799295,-0.0374839,-0.0799156,-0.188106
0.0721645,0.123616,-0.975241,-0.388309,-0.323467,0.200258,-0.114994,-0.103628,-0.304891
0.0646956,0.118886,-0.971244,-0.0788901,-0.367975,0.142453,-0.168503,-0.146683,-0.380397
0.0574617,0.121801,-0.97001,0.366947,-0.316259,-0.000671387,-0.174726,-0.152167,-0.368193
0.0524296,0.132903,-0.971623,0.725756,-0.213379,-0.0808756,-0.161151,-0.0921893,-0.251559
0.0502592,0.149233,-0.974168,0.887505,-0.0266406,-0.0813203,-0.164105,-0.0293141,-0.114704
0.0515,0.16669,-0.976981,0.861094,0.0952997,-0.112837,-0.197096,0.00622113,0.00993258
0.0541148,0.183157,-0.980782,0.816137,0.0794376,-0.174913,-0.212363,0.00327116,0.0810774
0.0556246,0.199751,-0.986275,0.891526,-0.0177149,-0.289509,-0.230531,-0.00230414,0.097695
0.0563832,0.218272,-0.995082,0.996326,-0.0610415,-0.476173,-0.250741,0.0339713,0.125891
0.0587521,0.237452,-1.00781,0.964059,0.0385052,-0.654555,-0.226153,0.0643134,0.18851
0.0646515,0.253431,-1.02404,0.700431,0.143125,-0.823771,-0.183957,0.07577,0.285097
0.0730764,0.262492,-1.04355,0.33528,0.195906,-1.00644,-0.151382,0.0553258,0.327518
0.0822978,0.264721,-1.06636,0.104164,0.109778,-1.1711,-0.109554,0.0424016,0.290177
0.0898372,0.264517,-1.09157,0.114902,-0.0185963,-1.23165,-0.0416741,0.0675191,0.215843
0.0948428,0.26573,-1.11594,0.239869,-0.11281,-1.06438,0.0232472,0.111933,0.15548
0.0968322,0.270822,-1.13516,0.463276,-0.183662,-0.728612,0.0621773,0.120078,0.10775
0.0971687,0.281209,-1.14851,0.676537,-0.131431,-0.482525,0.047313,0.0845093,0.0946926
0.098871,0.294395,-1.15931,0.71279,-0.00182961,-0.460601,-0.0159416,0.0316318,0.1207
0.103471,0.30693,-1.17152,0.650463,0.0744037,-0.568542,-0.0510354,0.000314415,0.15352
0.107547,0.31802,-1.1842,0.592449,-0.101231,-0.480775,0.0123006,-0.0232813,0.151171
0.105625,0.329472,-1.19301,0.671549,-0.364166,-0.219972,0.0430797,-0.0237161,0.0795356
0.0987478,0.344866,-1.19655,0.914042,-0.3965,0.0135233,-0.00158098,-0.040134,-0.0193202
0.0928541,0.365535,-1.198,1.13283,-0.220071,0.0219789,-0.0923171,-0.0343509,-0.0384133
0.091151,0.388292,-1.20017,1.12667,-0.0726345,-0.00112235,-0.0973713,-0.0502856,0.00769788
0.0897143,0.409653,-1.20169,1.0104,-0.14557,0.0661725,-0.0788698,-0.0389034,0.021053
0.0851728,0.428459,-1.20147,0.863484,-0.299983,0.0984564,-0.10477,-0.0241818,-0.0135664
0.0797436,0.443577,-1.20157,0.634231,-0.20031,0.00193878,-0.150609,-0.0542257,-0.068993
0.0797683,0.453029,-1.20464,0.328546,0.0669119,-0.21179,-0.153677,-0.105858,-0.0969434
0.0857601,0.45642,-1.21187,0.0850325,0.180445,-0.401618,-0.118452,-0.135236,-0.125499
0.0930955,0.45591,-1.22252,-0.0409811,0.0476942,-0.555271,-0.0956427,-0.136381,-0.163583
0.097102,0.452412,-1.23606,-0.21055,-0.267924,-0.692532,-0.0791851,-0.107389,-0.180235
0.0944159,0.444584,-1.25214,-0.420703,-0.702372,-0.829668,-0.0708442,-0.0440236,-0.2179
0.0852102,0.433997,-1.27041,-0.44699,-0.946638,-0.908637,-0.0140915,0.0161272,-0.280997
0.0755216,0.42507,-1.28994,-0.286201,-0.789436,-0.932101,0.0386557,0.0996096,-0.30019
0.0715358,0.420598,-1.30889,-0.0227391,-0.358503,-0.803273,0.106355,0.178158,-0.264264
0.075592,0.421994,-1.32338,0.246848,0.168607,-0.490743,0.136427,0.248189,-0.158859
0.0852873,0.42766,-1.33046,0.340168,0.455168,-0.104903,0.144122,0.268533,0.00746119
0.0934217,0.434119,-1.32928,0.274123,0.346955,0.259653,0.135582,0.225665,0.130625
0.0934009,0.439261,-1.32146,0.189857,-0.0525737,0.464321,0.0892033,0.179741,0.161711
0.0835042,0.444345,-1.31152,0.256664,-0.466641,0.440052,0.00779156,0.134411,0.123623
0.0835042,0.444345,-1.31152,0.256664,-0.466641,0.440052,0.00779156,0.134411,0.123623
0.0704609,0.450764,-1.30495,0.31194,-0.509368,0.169904,-0.0772407,0.122268,0.119637
0.0623934,0.455511,-1.30552,0.132756,-0.285417,-0.186279,-0.0978654,0.118617,0.178546
0.063249,0.454526,-1.31261,-0.203295,0.0323622,-0.432629,-0.0423547,0.106837,0.242864
0.0694001,0.44668,-1.32311,-0.490398,0.0917005,-0.546829,0.0099842,0.0950142,0.261684
0.0747368,0.435312,-1.33449,-0.52982,-0.0875001,-0.542326,0.0581812,0.0880904,0.233965
0.0746944,0.425895,-1.34465,-0.304335,-0.29849,-0.440604,0.0801126,0.0727739,0.154941
0.0727144,0.423232,-1.3522,0.0977372,-0.177138,-0.251777,0.0671979,0.087605,0.0787598
0.0718635,0.42779,-1.35523,0.304765,-0.0621636,0.0276661,0.0587074,0.140417,0.147526
0.0716631,0.430257,-1.35253,-0.179402,-0.0888021,0.216126,0.0839567,0.104238,0.437379
0.0570634,0.423321,-1.34705,-0.467981,-0.849349,0.211132,0.0743598,-0.0372384,0.205015
0.0422515,0.413283,-1.34442,-0.565433,-0.600727,-0.0589156,-0.0885485,-0.116998,0.109616
0.0311713,0.400186,-1.34864,-0.723947,-0.703994,-0.341387,-0.10486,-0.0924503,0.111001
0.0182174,0.386224,-1.35651,-0.591888,-0.86735,-0.40242,-0.0499709,-0.0765386,0.0113284
0.00611776,0.378287,-1.36513,-0.196911,-0.587764,-0.410645,-0.0433745,-0.0756625,-0.0989324
0.00156493,0.377391,-1.37343,0.0645625,-0.232162,-0.336882,-0.00642926,-0.0841095,-0.0800919
-0.000693456,0.378801,-1.37956,0.0281569,-0.267552,-0.253317,0.00160554,-0.0888723,-0.00718617
-0.00578849,0.37739,-1.38532,-0.171228,-0.467433,-0.299175,-0.0379234,-0.101643,-0.0168275
-0.01345,0.372811,-1.39257,-0.259135,-0.542237,-0.367606,-0.0449695,-0.11866,-0.120718
-0.0208282,0.36839,-1.40068,-0.177265,-0.488461,-0.373109,-0.0447339,-0.124322,-0.214938
-0.0261324,0.366313,-1.40876,-0.0585654,-0.329,-0.380411,-0.0868713,-0.0914854,-0.242308
-0.0280989,0.365841,-1.417,-0.0261637,-0.175917,-0.390212,-0.0899903,-0.0778581,-0.215807
-0.0285281,0.365218,-1.42582,-0.0738617,-0.23529,-0.441231,-0.0543966,-0.091349,-0.176106
-0.0320343,0.362539,-1.43624,-0.245992,-0.495979,-0.533534,-0.0671906,-0.0859791,-0.170781
-0.039466,0.356154,-1.44902,-0.427124,-0.667569,-0.645033,-0.110909,-0.0546632,-0.214105
-0.0466653,0.347424,-1.46389,-0.485248,-0.531919,-0.695676,-0.109505,-0.0321429,-0.260981
-0.0495543,0.339217,-1.47888,-0.388244,-0.238759,-0.673953,-0.113689,0.0371246,-0.253699
-0.0464749,0.333453,-1.49211,-0.256251,0.0829542,-0.51857,-0.086884,0.103812,-0.171108
-0.0411603,0.329082,-1.50041,-0.240716,0.148083,-0.247697,-0.0929106,0.135384,-0.0504184
-0.0374478,0.324121,-1.5038,-0.257028,0.112564,-0.0843647,-0.155306,0.116281,0.0123911
-0.0355681,0.319879,-1.50567,-0.151739,-0.00975279,-0.095211,-0.182384,0.0683118,0.0315284
-0.0363396,0.319397,-1.5083,0.106821,-0.117689,-0.149389,-0.158835,0.0407705,0.039069
-0.0373549,0.324301,-1.51157,0.357742,-0.0722417,-0.169617,-0.148973,0.0643893,0.0872728
-0.0363748,0.332688,-1.51472,0.442001,0.0667449,-0.15599,-0.137808,0.0995954,0.194237
-0.033666,0.340965,-1.51751,0.361345,0.0936509,-0.139113,-0.117631,0.101075,0.289463
-0.0314837,0.347022,-1.52024,0.239455,0.0287011,-0.149335,-0.110962,0.0647387,0.323774
-0.0300176,0.351107,-1.52406,0.163364,0.017844,-0.23354,-0.140809,0.0421186,0.311159
-0.0271663,0.354102,-1.52997,0.125526,0.0561838,-0.327894,-0.137669,0.0429308,0.29659
-0.0223931,0.356597,-1.53738,0.0971586,0.201997,-0.374292,-0.128554,0.0311398,0.286709
-0.0141321,0.357761,-1.54543,0.000447762,0.306239,-0.378266,-0.0888598,0.00130057,0.308447
-0.00577368,0.356838,-1.55319,-0.0941564,0.254134,-0.357503,-0.0353921,-0.0464387,0.303506
0.000881132,0.354838,-1.56073,-0.0912043,0.14527,-0.353781,-0.00699085,-0.0823554,0.246464
0.00545725,0.354003,-1.56845,0.0256693,0.057734,-0.384353,-0.0135417,-0.102456,0.150396
0.0109628,0.355976,-1.57776,0.1726,0.200363,-0.487411,-0.0567537,-0.0771692,0.0750374
0.0199751,0.359928,-1.58816,0.223644,0.31853,-0.446061,-0.0206471,-0.0553251,0.0517786
0.02942,0.363976,-1.59578,0.187977,0.367661,-0.253248,0.0351333,-0.0636088,0.0193505
0.0398619,0.366819,-1.59964,0.109302,0.562721,-0.106962,0.0111091,-0.0565287,-0.0692217
0.0538616,0.368242,-1.60115,0.0353891,0.779056,-0.0480345,-0.0224251,-0.0631201,-0.146226
0.0712516,0.367829,-1.60264,-0.0857578,0.867523,-0.104091,-0.0486987,-0.0779855,-0.155073
0.0853699,0.363207,-1.60554,-0.400672,0.325506,-0.226025,-0.072349,-0.092083,-0.145516
0.0843015,0.349472,-1.61136,-0.931279,-0.620064,-0.442869,-0.0955001,-0.0847985,-0.187791
0.0684484,0.326356,-1.62089,-1.23791,-1.21146,-0.62801,-0.107738,-0.0544215,-0.401544
0.0474811,0.302125,-1.63396,-1.06355,-1.16119,-0.734851,-0.102488,0.0382263,-0.602262
0.0345826,0.283551,-1.64757,-0.751161,-0.461768,-0.59616,-0.0475079,0.134061,-0.596887
0.0359866,0.271168,-1.6553,-0.462644,0.367483,-0.15903,0.0492591,0.164341,-0.434916
0.0359866,0.271168,-1.6553,-0.462644,0.367483,-0.15903,0.0492591,0.164341,-0.434916
0.0476316,0.265036,-1.65329,-0.166709,0.765318,0.309489,0.111901,0.142849,-0.199815
0.0594482,0.26444,-1.64313,0.0344621,0.619827,0.648802,0.100489,0.100999,0.0280786
0.0636528,0.266975,-1.62782,0.0976126,0.173376,0.811191,0.0516044,0.0646415,0.190907
0.0570201,0.268997,-1.61118,-0.0148364,-0.398138,0.784383,0.0379862,0.0139951,0.292152
0.0402126,0.267729,-1.59627,-0.182709,-0.845722,0.638626,0.0358306,-0.0271601,0.303804
0.0184618,0.262958,-1.58494,-0.322527,-1.00011,0.441645,0.021633,-0.0283467,0.261451
-0.00297993,0.255655,-1.57758,-0.411553,-0.922494,0.279523,0.0433341,-0.00615436,0.205546
-0.0204739,0.246873,-1.57278,-0.457949,-0.688005,0.208171,0.100418,0.0169408,0.154964
-0.031814,0.237516,-1.5691,-0.474273,-0.360148,0.176771,0.135881,0.0419597,0.141508
-0.0381064,0.228502,-1.56548,-0.395375,-0.210659,0.215608,0.168027,0.0549027,0.123645
-0.0431974,0.222134,-1.56059,-0.23032,-0.204622,0.28401,0.190026,0.0470027,0.130129
-0.049291,0.218073,-1.55461,-0.173848,-0.279427,0.313612,0.190865,0.0328613,0.164614
-0.0563856,0.213707,-1.54856,-0.240274,-0.303859,0.295634,0.180318,0.0158404,0.172781
-0.0638076,0.207997,-1.54356,-0.297906,-0.295003,0.222182,0.150845,0.0189548,0.131546
-0.0692324,0.201357,-1.5405,-0.351882,-0.213605,0.117498,0.112991,0.00581592,0.0998854
-0.0734132,0.194149,-1.54008,-0.354259,-0.1884,-0.0305925,0.103158,-0.0155645,0.0512011
