attitude_roll,attitude_pitch,attitude_yaw,rotationRate_x,rotationRate_y,rotationRate_z,acceleration_x,acceleration_y,acceleration_z
0.0081564,0.335871,-0.00138278,0.0109923,-0.425797,-0.369472,0.0603231,0.0280781,-0.122985
0.00173715,0.337394,-0.00809585,0.136891,-0.433307,-0.269997,0.0350887,0.0650074,-0.0638577
-0.00496415,0.341064,-0.0131558,0.232878,-0.406518,-0.208534,0.0165343,0.0864583,-0.00573236
-0.0117614,0.347014,-0.0167273,0.363768,-0.391775,-0.125854,0.0354283,0.098316,0.0270888
-0.0185003,0.355276,-0.0180695,0.44355,-0.344287,-0.0136285,0.0223946,0.114344,0.0477111
-0.0259213,0.364034,-0.0175661,0.423369,-0.386508,0.0208827,-0.0218311,0.121199,0.0877491
-0.0331404,0.371738,-0.0177643,0.33607,-0.33482,-0.0712266,-0.0603611,0.0935968,0.0832856
-0.0373083,0.37697,-0.0207689,0.161239,-0.199477,-0.233839,-0.092181,0.0846732,0.0819539
-0.0370286,0.378352,-0.0280691,-0.0485569,-0.0485106,-0.449334,-0.108191,0.0732318,0.0975219
-0.0332748,0.375812,-0.0394703,-0.235566,-0.0432278,-0.577779,-0.0654582,0.0656968,0.0996934
-0.0305298,0.370658,-0.0519709,-0.296088,-0.127558,-0.552558,0.000497952,0.0852355,0.0716087
-0.0290402,0.365509,-0.0629323,-0.236117,-0.0986333,-0.452406,0.0454133,0.103747,0.0164644
-0.0266583,0.361982,-0.0712949,-0.136194,0.0402939,-0.31757,0.0586802,0.0965908,-0.0189014
-0.0222562,0.360546,-0.0767966,-0.0224722,0.201241,-0.204454,0.0558272,0.0761279,-0.0143717
-0.0160598,0.360991,-0.0805899,0.0506759,0.27506,-0.156512,0.0355777,0.0496123,0.0374013
-0.00942171,0.362126,-0.083443,0.0506895,0.269117,-0.115148,0.0423036,0.0168459,0.104934
-0.00312528,0.362708,-0.0857743,-0.00425319,0.282563,-0.0997957,0.0235671,-0.0070852,0.149687
0.00237494,0.361741,-0.0875513,-0.100442,0.193208,-0.0610743,0.0223607,-0.0194793,0.185051
0.00570484,0.358713,-0.0886457,-0.203897,0.107423,-0.0548646,0.0184163,-0.0396774,0.189859
0.00844565,0.353815,-0.0903565,-0.284217,0.124035,-0.111005,-0.0187867,-0.0702692,0.158209
0.0118501,0.347639,-0.0929675,-0.320704,0.1115,-0.128134,-0.0274984,-0.073216,0.135228
0.0145495,0.341518,-0.0950907,-0.285509,0.0831859,-0.0720317,0.00570045,-0.0645269,0.110147
0.0161989,0.336623,-0.0956106,-0.187202,0.0762644,0.0276721,0.038254,-0.0653896,0.0785021
0.0174667,0.334734,-0.0936984,4.36166e-05,0.107553,0.145197,0.0457594,-0.0711254,0.0313289
0.0180089,0.33634,-0.0896881,0.141022,0.0749985,0.229425,0.0435175,-0.0774056,0.0347734
0.0173303,0.33992,-0.0843541,0.201195,0.0423668,0.269196,0.047215,-0.104623,0.0515724
0.0160772,0.344148,-0.0788157,0.209397,0.018238,0.258018,0.0402861,-0.119514,0.0439332
0.0143064,0.348073,-0.0736733,0.162112,-0.0290206,0.233086,0.048289,-0.12098,0.028467
0.0121618,0.350471,-0.068945,0.0716148,-0.00523472,0.211716,0.0318823,-0.119245,-0.00989407
0.0112043,0.350988,-0.0651334,-0.0250805,0.0376921,0.134,0.00817102,-0.12256,-0.0568139
0.0124011,0.349981,-0.0632231,-0.0804155,0.175709,0.0518036,0.0169917,-0.14351,-0.108514
0.0181617,0.348681,-0.0626692,-0.0563175,0.412404,0.00577869,0.0227728,-0.134523,-0.157422
0.0278608,0.34785,-0.0625915,-0.0266678,0.542646,0.0114525,0.0587264,-0.132008,-0.145569
0.0385668,0.347698,-0.0618346,0.0060346,0.542024,0.0601825,0.0912678,-0.116221,-0.116005
0.0478317,0.347828,-0.0600344,-0.0126528,0.442215,0.1118,0.124834,-0.109476,-0.0811778
0.0544373,0.347026,-0.0570374,-0.0889892,0.322394,0.16705,0.148021,-0.102799,-0.0631867
0.0576327,0.344555,-0.0529302,-0.179825,0.119379,0.197592,0.135497,-0.0910557,-0.0710178
0.0565394,0.340173,-0.0482914,-0.278402,-0.0602037,0.217832,0.103833,-0.067732,-0.113924
0.0535825,0.33465,-0.0431696,-0.278798,-0.0412141,0.235297,0.0815553,-0.0464395,-0.202063
0.0536481,0.330812,-0.0379491,-0.116085,0.24225,0.255232,0.062246,-0.0196105,-0.281641
0.0598947,0.331146,-0.031384,0.118695,0.581624,0.389772,0.0745883,0.0246199,-0.264216
0.0706922,0.336122,-0.0217463,0.299624,0.796369,0.554742,0.0948335,0.0713141,-0.145613
0.0830032,0.343808,-0.00897361,0.35866,0.836304,0.7075,0.09771,0.0848161,0.0175061
0.0935071,0.351977,0.00674209,0.313251,0.73831,0.831234,0.0913085,0.0887727,0.144996
0.100414,0.358919,0.0246604,0.21128,0.575491,0.907637,0.0716697,0.0909168,0.211071
0.102704,0.363896,0.0440326,0.105902,0.332388,0.946204,0.0626833,0.091773,0.222867
0.0997943,0.366981,0.0639417,0.00397959,0.0802755,0.942148,0.0528486,0.0902138,0.199721
0.0918589,0.367685,0.0842647,-0.119323,-0.133024,0.97248,0.0735809,0.086446,0.159147
0.0800839,0.365787,0.106169,-0.252598,-0.259083,1.05536,0.0809185,0.109805,0.107852
0.0652312,0.361013,0.129752,-0.384003,-0.39364,1.10619,0.0567384,0.136135,0.046755
0.0481419,0.353852,0.153522,-0.430561,-0.464924,1.06435,0.0229429,0.114855,-0.0442278
0.0321773,0.347485,0.175271,-0.254707,-0.330405,0.947068,-0.0108092,0.0971713,-0.159345
0.0321773,0.347485,0.175271,-0.254707,-0.330405,0.947068,-0.0108092,0.0971713,-0.159345
0.0232634,0.345574,0.19459,0.00133531,0.100148,0.890763,-0.0115407,0.103324,-0.215867
0.0225746,0.347364,0.213877,0.107055,0.465922,0.936376,0.019196,0.132595,-0.116698
0.0269479,0.34981,0.233928,0.0788617,0.617122,0.952061,0.0185714,0.128928,0.0389656
0.0325272,0.351234,0.253882,0.00819948,0.606501,0.925952,-0.0100893,0.109788,0.143286
0.0369341,0.351294,0.272559,-0.0628619,0.461433,0.819031,-0.0425594,0.0845608,0.209513
0.0385949,0.349736,0.288313,-0.158179,0.23857,0.659313,-0.050135,0.0486132,0.249646
0.0362572,0.345796,0.300793,-0.283562,-0.0535023,0.509775,-0.041733,0.0305347,0.260256
0.0300385,0.339521,0.310421,-0.368518,-0.213631,0.383567,-0.0325614,0.0169802,0.206832
0.0233713,0.332254,0.317571,-0.360329,-0.173668,0.285605,-0.0463831,0.0233791,0.11096
0.0197442,0.32591,0.323172,-0.279007,-0.00900066,0.23862,-0.0410578,0.0171314,0.0284129
0.0196138,0.321441,0.32769,-0.174767,0.128549,0.175964,-0.0334701,-0.00334048,-0.00824958
0.0219132,0.318652,0.330677,-0.123012,0.183739,0.105084,-0.0237534,-0.0211858,-0.00586122
0.0246002,0.315821,0.332593,-0.181034,0.13488,0.0781347,-0.00796977,-0.0219231,0.0281962
0.0262748,0.311203,0.334073,-0.292497,0.0773063,0.0451201,0.000212923,-0.028055,0.0302506
0.0265937,0.304181,0.334491,-0.419213,-0.0434847,-0.0234232,-0.0097907,-0.0331296,0.00886989
0.0244246,0.294495,0.333809,-0.544965,-0.197934,-0.0500991,0.000310838,-0.0373343,-0.0266587
0.0198988,0.283329,0.333495,-0.54575,-0.216975,-0.00193606,0.0123595,-0.0264765,-0.114431
0.0173404,0.273551,0.334375,-0.42615,0.00498747,0.0705992,-0.000657842,-0.0268299,-0.212788
0.0183704,0.266067,0.33673,-0.347246,0.115614,0.134694,0.00986484,-0.0608222,-0.207897
0.0186509,0.25931,0.339945,-0.348921,-0.0288134,0.160364,-0.00433916,-0.0722917,-0.143937
0.0150918,0.252014,0.343317,-0.390918,-0.23489,0.145158,-0.0305295,-0.0802957,-0.125036
0.00864317,0.244002,0.346157,-0.40491,-0.310116,0.129488,-0.0374551,-0.102819,-0.165033
0.00247031,0.236486,0.349054,-0.339783,-0.242136,0.149039,-0.0475066,-0.0998948,-0.226444
-0.00263779,0.230818,0.352239,-0.23372,-0.213669,0.155336,-0.0685076,-0.0945296,-0.249668
-0.00815544,0.226976,0.355017,-0.162792,-0.285841,0.112676,-0.0734442,-0.102818,-0.222123
-0.014484,0.224272,0.356079,-0.10557,-0.31711,-0.00745657,-0.108682,-0.0868988,-0.198196
-0.0198377,0.223159,0.354705,0.00268802,-0.222091,-0.114421,-0.119114,-0.0519581,-0.193553
-0.0216303,0.224783,0.351951,0.154565,-0.00886103,-0.142473,-0.0898164,-0.00974074,-0.177989
-0.0187578,0.229496,0.3496,0.315995,0.237649,-0.0910415,-0.0683592,0.0355919,-0.122749
-0.0125491,0.237479,0.348399,0.477612,0.324089,-0.0406055,-0.0734663,0.06495,-0.0368247
-0.00680523,0.247829,0.347955,0.542354,0.20901,-0.0201176,-0.0983069,0.0861657,0.0650823
-0.00481809,0.258485,0.347162,0.517227,-0.0393892,-0.0768657,-0.121151,0.0916447,0.133409
-0.00739184,0.268137,0.344203,0.445252,-0.272529,-0.227062,-0.150511,0.0905429,0.15177
-0.0121346,0.276037,0.337463,0.332771,-0.367315,-0.43938,-0.180525,0.094292,0.141867
-0.0163003,0.281326,0.326021,0.179711,-0.356112,-0.672117,-0.18327,0.104397,0.135594
-0.0181432,0.283577,0.309853,0.0177998,-0.272912,-0.881517,-0.14547,0.113837,0.13399
-0.0167688,0.282744,0.290076,-0.134879,-0.137344,-1.00631,-0.0895954,0.129577,0.136794
-0.0120538,0.279483,0.268735,-0.216792,0.00233569,-1.03033,-0.0347399,0.144282,0.138374
-0.00534403,0.275208,0.247693,-0.223241,0.0850487,-0.987268,-0.00309686,0.154742,0.144011
0.00155348,0.271006,0.228061,-0.193217,0.0597935,-0.901448,0.0130753,0.150468,0.172134
0.00656899,0.268075,0.210337,-0.0867511,-0.0315092,-0.815952,0.0244121,0.12123,0.185865
0.00931473,0.267275,0.19455,0.00890244,-0.0992121,-0.704783,0.0249669,0.0924122,0.201772
0.0114926,0.267418,0.18107,-0.00743616,-0.000681204,-0.602912,0.016916,0.0594383,0.228644
0.0164188,0.265503,0.169164,-0.183667,0.170284,-0.564667,-0.0155681,0.0110976,0.26166
0.0243258,0.259665,0.157438,-0.363764,0.292663,-0.585557,-0.0459537,-0.040271,0.260242
0.0334328,0.251147,0.14554,-0.437834,0.321685,-0.58854,-0.0526721,-0.0961655,0.204644
0.043738,0.242076,0.134263,-0.41638,0.440742,-0.532471,-0.0524437,-0.138532,0.123112
0.0555701,0.234492,0.124207,-0.268493,0.527976,-0.495761,-0.0690361,-0.15849,0.0231636
0.0707842,0.230457,0.114289,-0.0872616,0.748741,-0.506273,-0.119011,-0.183854,-0.0602174
0.0888518,0.229254,0.103399,0.0380578,0.803643,-0.560271,-0.108294,-0.20822,-0.0841892
0.107138,0.2293,0.0917411,0.0657012,0.739778,-0.56471,-0.0557335,-0.223021,-0.0926558
0.107138,0.2293,0.0917411,0.0657012,0.739778,-0.56471,-0.0557335,-0.223021,-0.0926558
0.122209,0.229185,0.0803379,0.0484972,0.474906,-0.552856,-0.00778612,-0.227834,-0.111872
0.13027,0.228729,0.0683098,0.0451483,0.0647917,-0.63424,-0.0193566,-0.218573,-0.165828
0.129839,0.226353,0.0544005,-0.145726,-0.444815,-0.74786,-0.0213132,-0.241258,-0.201024
0.12058,0.21881,0.038286,-0.392942,-0.781251,-0.917616,-0.0138582,-0.259433,-0.269747
0.108982,0.207816,0.0195284,-0.451805,-0.709488,-1.01107,0.0200688,-0.226279,-0.394905
0.102209,0.198118,0.000735402,-0.300506,-0.321701,-0.890396,0.0956127,-0.181517,-0.484212
0.103255,0.193059,-0.0136543,-0.048065,0.133656,-0.544,0.143686,-0.111727,-0.474672
0.110681,0.194872,-0.0201449,0.311799,0.474976,-0.0652532,0.177173,-0.0554891,-0.424375
0.122405,0.205534,-0.0180508,0.716558,0.715862,0.376011,0.169822,-0.00478798,-0.35224
0.136336,0.223773,-0.00861237,0.935272,0.872994,0.761803,0.15788,0.0149096,-0.20494
0.151529,0.244865,0.00658975,0.922811,1.00431,0.969527,0.122978,0.022744,-0.035316
0.167801,0.265129,0.0243081,0.794586,1.05506,1.03624,0.0770563,0.0182589,0.0941126
0.183764,0.282869,0.0423733,0.659394,1.02826,0.977051,0.0402741,0.0076426,0.195494
0.198748,0.298151,0.0590261,0.536436,0.943676,0.895866,0.0144089,0.016425,0.274863
0.211469,0.310502,0.0750741,0.351163,0.771544,0.850774,0.0294496,0.0412238,0.359726
0.216566,0.320365,0.0870331,0.492128,0.155799,0.432297,-0.111277,0.0755937,0.361811
0.216695,0.333429,0.091293,0.573772,-0.0859532,0.331329,0.0594267,0.0722496,0.315894
0.206949,0.342216,0.0988299,0.0858588,-0.563639,0.583333,0.190763,0.0942578,0.399544
0.187451,0.340215,0.115118,-0.573525,-0.882495,0.869886,0.240403,0.159388,0.366081
0.159249,0.328008,0.137878,-0.944588,-1.13355,1.02719,0.24888,0.217574,0.170593
0.12818,0.311295,0.163251,-1.02415,-1.19551,1.11897,0.263538,0.210893,-0.0587707
0.097567,0.295215,0.189135,-0.809624,-1.03634,1.14528,0.263003,0.192633,-0.251836
0.0747648,0.28494,0.213317,-0.414392,-0.527981,1.07834,0.202517,0.176622,-0.391193
0.0636428,0.281297,0.235424,-0.127275,0.0182863,1.03764,0.168423,0.184874,-0.357487
0.062383,0.281586,0.257646,-0.000331929,0.426899,1.12013,0.187793,0.180299,-0.220131
0.0660531,0.283769,0.282737,0.0663944,0.618277,1.32477,0.207814,0.164971,-0.0665922
0.0707428,0.288111,0.312569,0.18323,0.675103,1.56871,0.201517,0.131935,0.044809
0.0742527,0.295664,0.346537,0.330602,0.640645,1.72361,0.141879,0.0966116,0.123773
0.0752334,0.306228,0.382316,0.458827,0.499143,1.75808,0.0662432,0.0617941,0.197759
0.0721568,0.318777,0.417457,0.530703,0.247444,1.66811,0.0162089,-0.00106344,0.254766
0.063542,0.331699,0.449865,0.544979,-0.0694132,1.47946,-0.0151924,-0.0636634,0.282267
0.05093,0.343958,0.477352,0.526284,-0.253566,1.17532,-0.0520766,-0.116215,0.258841
0.0384769,0.354883,0.497997,0.482504,-0.262667,0.807594,-0.0809618,-0.145135,0.215924
0.0303899,0.364742,0.510477,0.469961,-0.0703774,0.396952,-0.105901,-0.149731,0.156975
0.0306317,0.373888,0.514328,0.414407,0.219392,-0.00581627,-0.123222,-0.141842,0.103253
0.0376325,0.379753,0.509725,0.15436,0.257013,-0.393085,-0.121644,-0.125128,0.108473
0.0447924,0.379081,0.497822,-0.159779,-0.0292134,-0.694111,-0.0649444,-0.130406,0.0875277
0.046476,0.373484,0.481116,-0.300658,-0.40288,-0.875234,0.000948243,-0.119758,-0.0231601
0.0443694,0.366286,0.46165,-0.329357,-0.462128,-0.947874,0.0110014,-0.0684555,-0.161524
0.043781,0.359147,0.442839,-0.305759,-0.212223,-0.81633,0.0331983,-0.00145999,-0.261874
0.0496587,0.352826,0.427895,-0.268193,0.286686,-0.626029,-0.00365762,0.0149236,-0.331983
0.0637645,0.346767,0.416274,-0.301405,0.703199,-0.521477,-0.0679088,0.0108485,-0.32854
0.0836581,0.339077,0.406185,-0.400971,0.902231,-0.487043,-0.105811,-0.0353189,-0.280954
0.104803,0.330186,0.396756,-0.380951,0.880407,-0.483684,-0.14994,-0.064606,-0.258869
0.123718,0.323329,0.38828,-0.178908,0.745013,-0.367536,-0.175404,-0.044412,-0.240339
0.139245,0.321992,0.382516,0.110737,0.609269,-0.202489,-0.200647,-0.0225932,-0.205121
0.150274,0.325214,0.378593,0.226519,0.355614,-0.139222,-0.238571,-0.0159068,-0.100496
0.155568,0.328627,0.374611,0.141396,0.0336875,-0.207341,-0.25868,-0.0434677,-0.00602931
0.15461,0.328598,0.368235,-0.0552915,-0.336827,-0.400371,-0.272922,-0.0582496,0.0471593
0.147421,0.324747,0.358213,-0.149452,-0.702684,-0.583192,-0.252507,-0.0407032,0.0437292
0.147421,0.324747,0.358213,-0.149452,-0.702684,-0.583192,-0.252507,-0.0407032,0.0437292
0.13503,0.321117,0.345593,-0.0166017,-0.916583,-0.636587,-0.200233,0.01953,-0.0318762
0.119907,0.321676,0.332916,0.232259,-0.982156,-0.53071,-0.154164,0.114802,-0.0724331
0.103133,0.327981,0.323206,0.499915,-1.00661,-0.305806,-0.102971,0.185841,-0.0600445
0.084958,0.340167,0.317887,0.748576,-0.991669,-0.0931569,-0.0746835,0.231456,-0.0287033
0.0660603,0.356529,0.315674,0.874445,-0.974358,-0.0219855,-0.0784321,0.233133,0.0369529
0.0479306,0.373301,0.313579,0.779385,-0.915788,-0.0985451,-0.0830341,0.207174,0.118673
0.0318982,0.386212,0.309209,0.511405,-0.855295,-0.269197,-0.0847195,0.190037,0.177428
0.0186661,0.392908,0.300779,0.158621,-0.797722,-0.507031,-0.0851444,0.169924,0.19845
0.00860868,0.391838,0.286565,-0.263235,-0.764034,-0.820044,-0.0775515,0.13941,0.204723
0.00150926,0.382626,0.265282,-0.631251,-0.762519,-1.1501,-0.0636713,0.112188,0.170637
-0.00311701,0.368362,0.23798,-0.757925,-0.695915,-1.36581,-0.027274,0.111995,0.0868599
-0.00531538,0.354448,0.208217,-0.614387,-0.573971,-1.38932,0.0269576,0.145153,0.00406349
-0.00527956,0.344968,0.180184,-0.352491,-0.371287,-1.22424,0.0720156,0.178819,-0.00915265
-0.001995,0.34006,0.156789,-0.169585,-0.0838346,-0.98582,0.101185,0.175738,0.046523
0.00538929,0.337125,0.137744,-0.151285,0.177034,-0.834219,0.089427,0.139384,0.145951
0.016341,0.332936,0.120693,-0.263295,0.338849,-0.798658,0.059554,0.0793825,0.245696
0.0296575,0.325755,0.103683,-0.42349,0.436129,-0.841082,0.0371834,0.0120251,0.297655
0.04406,0.315387,0.0857205,-0.547739,0.417797,-0.90711,0.0274321,-0.0487177,0.313539
0.0570753,0.302878,0.0667149,-0.602733,0.306971,-0.965759,0.0391344,-0.108318,0.301866
0.0670568,0.289373,0.0471625,-0.629241,0.0953032,-0.977949,0.0637701,-0.161838,0.281388
0.0713207,0.275263,0.0285551,-0.66103,-0.179878,-0.892553,0.105128,-0.187826,0.248085
0.0702096,0.260417,0.0124908,-0.708094,-0.333382,-0.758472,0.127846,-0.213692,0.162541
0.066527,0.245348,-0.00063459,-0.707368,-0.368397,-0.609999,0.146176,-0.247478,0.0289574
0.060601,0.231027,-0.0103397,-0.655062,-0.474997,-0.411013,0.172552,-0.259578,-0.109501
0.0505693,0.219309,-0.0154693,-0.459474,-0.631701,-0.168569,0.179606,-0.264913,-0.262138
0.0383644,0.21318,-0.0176737,-0.143267,-0.610952,-0.112359,0.109745,-0.28515,-0.430934
0.0288644,0.212994,-0.0205242,0.116028,-0.359504,-0.173074,0.0766349,-0.306634,-0.511362
0.026766,0.216696,-0.0248688,0.243321,0.0663753,-0.242452,0.102312,-0.307167,-0.507791
0.0337244,0.221642,-0.030246,0.250353,0.502728,-0.255789,0.119847,-0.254488,-0.441994
0.0470107,0.225763,-0.0348064,0.177428,0.666977,-0.163158,0.136633,-0.201809,-0.346476
0.0605791,0.228815,-0.0372935,0.151465,0.623617,-0.0683103,0.144878,-0.173628,-0.287616
0.0721517,0.231892,-0.0384091,0.16335,0.500153,-0.0300323,0.137925,-0.15075,-0.259401
0.0804085,0.235009,-0.0394317,0.152857,0.296513,-0.0523879,0.112712,-0.112272,-0.218328
0.0854519,0.238134,-0.0409103,0.182291,0.210117,-0.0553001,0.111442,-0.0620991,-0.191556
0.0906467,0.243184,-0.0413757,0.356645,0.327064,0.0832705,0.1344,0.0187782,-0.187995
0.0986727,0.253621,-0.0378259,0.650018,0.578735,0.380025,0.174704,0.104975,-0.155106
0.109813,0.269562,-0.0278455,0.800537,0.769066,0.751531,0.172899,0.19145,-0.0205101
0.120218,0.287092,-0.01069,0.724459,0.701087,1.0775,0.155366,0.222144,0.155778
0.124523,0.302305,0.0122609,0.505854,0.361275,1.26602,0.119193,0.202171,0.280666
0.11872,0.313233,0.0380002,0.29397,-0.176728,1.2865,0.0683827,0.170349,0.308339
0.102014,0.320056,0.0634872,0.114985,-0.685658,1.19275,0.0227041,0.159529,0.262978
0.0770601,0.32249,0.0870624,-0.0584454,-1.0196,1.05883,-0.00638019,0.174854,0.193621
0.0500486,0.322073,0.107833,-0.0879713,-0.985452,0.911564,0.0106501,0.165502,0.072302
0.027385,0.321281,0.125851,-0.0612859,-0.678889,0.815551,0.035253,0.188662,-0.0116072
0.013048,0.320369,0.143321,-0.0665669,-0.20233,0.872853,0.0835329,0.224264,-0.0241671
0.00694124,0.319083,0.163276,-0.075085,0.182538,1.04034,0.122468,0.244573,0.00159425
0.00466947,0.317923,0.187147,-0.0458343,0.29624,1.23052,0.124913,0.24399,0.0624712
0.00127263,0.317736,0.214265,0.0266776,0.187134,1.33463,0.0830043,0.21119,0.119103
-0.00519265,0.319163,0.242032,0.10877,0.0257674,1.29288,0.0329608,0.158133,0.159782
-0.0141785,0.321118,0.267841,0.0876871,-0.0925931,1.14977,-0.00540663,0.115829,0.2048
-0.0232592,0.321239,0.289948,-0.0489989,-0.110196,0.94957,-0.0259368,0.0823892,0.240733
-0.0232592,0.321239,0.289948,-0.0489989,-0.110196,0.94957,-0.0259368,0.0823892,0.240733
-0.0307848,0.318117,0.307356,-0.220039,-0.0949883,0.712722,-0.0395968,0.0486339,0.245992
-0.0363513,0.312171,0.319726,-0.319391,-0.0826823,0.497265,-0.0304614,0.00341418,0.218603
-0.0404757,0.305387,0.328166,-0.310204,-0.0627045,0.346848,-0.0202913,-0.0150882,0.167732
-0.0425426,0.300064,0.333977,-0.196856,0.0215269,0.226132,-0.0124712,-0.0406614,0.0988166
-0.0434079,0.296536,0.336915,-0.172071,-0.0382866,0.0647108,-0.00915891,-0.069165,0.0738466
-0.0445578,0.292199,0.336171,-0.275574,-0.0909721,-0.121815,6.76923e-05,-0.10806,0.0355352
-0.0458582,0.285129,0.331361,-0.465193,-0.189439,-0.297315,0.0215608,-0.121322,-0.0276964
-0.0486166,0.274137,0.323572,-0.665181,-0.296205,-0.386126,0.0215752,-0.0978596,-0.103862
-0.0513752,0.260607,0.314066,-0.695853,-0.167891,-0.467729,0.0100984,-0.107918,-0.24697
-0.048412,0.248836,0.302663,-0.524092,0.200369,-0.585519,-0.00659474,-0.157654,-0.400344
-0.0370779,0.241003,0.288994,-0.330198,0.577329,-0.695842,-0.0388769,-0.147584,-0.427579
-0.0203495,0.236268,0.274539,-0.191449,0.714295,-0.682909,-0.00484492,-0.134378,-0.333571
-0.00355758,0.233857,0.261098,-0.0735861,0.621738,-0.625058,0.0252503,-0.128605,-0.228947
0.00962137,0.233187,0.249332,-0.00782437,0.413647,-0.513445,0.0408406,-0.125869,-0.152095
0.0173018,0.232934,0.240325,-0.016628,0.166241,-0.370198,0.0506559,-0.112063,-0.0989753
0.0203149,0.231563,0.233466,-0.132317,-0.0235809,-0.326002,0.0216563,-0.109551,-0.0808928
0.0206101,0.226835,0.226046,-0.320838,-0.0829163,-0.428648,-0.0535738,-0.099706,-0.102377
0.0223282,0.219107,0.215328,-0.411181,0.0385969,-0.647997,-0.123279,-0.0868867,-0.161145
0.0285094,0.210896,0.200141,-0.355984,0.26781,-0.845208,-0.139904,-0.0493619,-0.204515
0.0396975,0.204629,0.182595,-0.197582,0.480117,-0.85574,-0.10554,0.0280631,-0.177213
0.053736,0.202474,0.167329,0.0691647,0.60657,-0.60894,-0.0400702,0.113081,-0.0973271
0.0678241,0.206872,0.15926,0.419905,0.615552,-0.125246,0.00812048,0.195832,0.00168145
0.0775024,0.218732,0.161499,0.745896,0.362106,0.424844,0.0145688,0.256695,0.127647
0.0779502,0.236929,0.172914,0.957807,-0.074168,0.780682,-0.0332459,0.251519,0.242992
0.0681981,0.257128,0.188406,0.907936,-0.507521,0.827629,-0.126711,0.212648,0.343462
0.0509151,0.273298,0.20291,0.602045,-0.839419,0.63423,-0.211648,0.168712,0.404311
0.0291488,0.281847,0.21214,0.222598,-1.06652,0.268685,-0.263133,0.122857,0.397879
0.00722358,0.283042,0.212735,-0.0983245,-1.09276,-0.215875,-0.285043,0.0766407,0.318965
-0.0107278,0.278036,0.203178,-0.407872,-0.947962,-0.69042,-0.25502,0.0642015,0.235558
-0.0217516,0.267304,0.184764,-0.686565,-0.640843,-1.04949,-0.189258,0.0633872,0.150538
-0.025189,0.252312,0.160438,-0.85547,-0.344367,-1.24493,-0.118479,0.0792028,0.0733011
-0.0232748,0.235675,0.134258,-0.844092,-0.0922973,-1.23092,-0.0424647,0.0909977,-0.00465202
-0.0174588,0.221067,0.110483,-0.650623,0.120104,-1.04515,0.0197033,0.0938585,-0.0567417
-0.00967795,0.210975,0.0912387,-0.379331,0.240691,-0.828618,0.0507382,0.0704817,-0.056978
-0.000908187,0.206216,0.0759863,-0.12614,0.322267,-0.681025,0.0401498,0.016388,-0.0257196
0.00866521,0.204652,0.0626638,-0.0577367,0.35676,-0.639348,-0.01059,-0.0213678,0.0610195
0.0182491,0.202611,0.0494779,-0.139087,0.325521,-0.666,-0.0423804,-0.0654044,0.143856
0.026725,0.198616,0.0356535,-0.209623,0.243294,-0.70058,-0.0573396,-0.0987685,0.167063
0.0335285,0.1942,0.021443,-0.168752,0.172953,-0.701877,-0.0639895,-0.110271,0.137069
0.0398766,0.191702,0.0077946,-0.0170903,0.23002,-0.645271,-0.081723,-0.100028,0.0858968
0.0477023,0.192524,-0.0048479,0.144429,0.293928,-0.595159,-0.0833785,-0.119652,0.0614778
0.0553744,0.195703,-0.0165299,0.221703,0.238828,-0.523789,-0.0522449,-0.150286,0.0832743
0.0599451,0.199955,-0.0264678,0.260095,-0.0100029,-0.430654,-0.018295,-0.167006,0.0617349
0.0580795,0.204895,-0.0347705,0.277441,-0.363677,-0.362208,0.0040957,-0.19035,-0.0178077
0.0485105,0.210088,-0.0419535,0.278495,-0.70248,-0.315479,0.0304709,-0.200984,-0.125662
0.0350498,0.215219,-0.0485063,0.254609,-0.74859,-0.321196,0.0112522,-0.192277,-0.258518
0.0236342,0.219925,-0.0564606,0.244666,-0.553013,-0.474848,-0.0309363,-0.213713,-0.376837
0.0175988,0.224392,-0.0691808,0.215205,-0.339771,-0.76565,-0.0296231,-0.252355,-0.456191
0.0156274,0.227012,-0.0870422,0.0581569,-0.309463,-0.938692,0.0238519,-0.223435,-0.448826
0.0122057,0.22677,-0.105835,-0.0270936,-0.466919,-0.856364,0.140054,-0.157539,-0.453104
0.0122057,0.22677,-0.105835,-0.0270936,-0.466919,-0.856364,0.140054,-0.157539,-0.453104
0.00542581,0.227389,-0.121021,0.145712,-0.526646,-0.61211,0.205911,-0.0743097,-0.521392
-0.00159842,0.233885,-0.130569,0.519657,-0.361952,-0.319727,0.216246,-0.0156018,-0.54885
-0.00460271,0.247685,-0.134382,0.845648,-0.0109402,-0.0570649,0.212974,0.0302246,-0.474131
-0.00151862,0.266542,-0.132791,1.02722,0.356815,0.200969,0.210114,0.0692288,-0.29781
0.00735055,0.288112,-0.126358,1.12736,0.713171,0.42364,0.189287,0.106622,-0.0942223
0.0216484,0.311414,-0.115957,1.18451,1.01454,0.603125,0.152322,0.144326,0.0884276
0.0393038,0.335051,-0.102597,1.12386,1.14223,0.733941,0.113068,0.164633,0.258896
0.0552253,0.35634,-0.0866494,0.919529,0.941189,0.873042,0.100431,0.171448,0.405569
0.0622786,0.373118,-0.0675424,0.648582,0.420897,1.00898,0.111157,0.158939,0.478981
0.0559305,0.384275,-0.0455221,0.337897,-0.258692,1.10044,0.103876,0.15841,0.475914
0.0349091,0.388344,-0.0215021,-0.0429016,-0.927786,1.1514,0.0800779,0.165521,0.409639
0.00140259,0.384122,0.00341573,-0.394748,-1.44304,1.13692,0.0297665,0.192006,0.257739
-0.0370048,0.374863,0.0260077,-0.461013,-1.49258,0.961042,-0.0271114,0.15768,0.0135541
-0.0693354,0.365963,0.0430323,-0.33142,-1.08398,0.67777,-0.0509542,0.126113,-0.198804
-0.0884632,0.360287,0.0550265,-0.151036,-0.380549,0.520434,-0.012997,0.136326,-0.29319
-0.0925789,0.357789,0.0661881,-0.00969038,0.324712,0.575423,0.0327441,0.182632,-0.265427
-0.0865356,0.357567,0.0799562,0.10766,0.7184,0.713368,0.0535716,0.219671,-0.143994
-0.0767074,0.35984,0.0962671,0.246836,0.794292,0.780572,0.041588,0.187955,-0.0184592
-0.0675615,0.364897,0.113411,0.372331,0.722897,0.775106,0.00471564,0.165142,0.0923228
-0.0596662,0.372159,0.129743,0.437356,0.653699,0.694025,-0.0318841,0.145671,0.185944
-0.0523791,0.379841,0.143559,0.383162,0.571704,0.542702,-0.0618044,0.124343,0.27503
-0.0459022,0.385364,0.1536,0.196136,0.445254,0.372879,-0.0838524,0.109081,0.348736
-0.0412211,0.386486,0.160271,-0.0578563,0.264969,0.253048,-0.0785752,0.0780314,0.38343
-0.0395208,0.383229,0.164463,-0.237486,0.0740961,0.143652,-0.0721507,0.0297702,0.358104
-0.0393986,0.377461,0.165661,-0.334003,-0.00476424,-0.0169839,-0.0981043,-0.0146629,0.286273
-0.039175,0.370075,0.162995,-0.416269,-0.0773533,-0.212627,-0.10785,-0.0671326,0.217169
-0.0395146,0.361244,0.155327,-0.506797,-0.250061,-0.471017,-0.0958884,-0.113878,0.157689
-0.0425561,0.35012,0.142242,-0.677827,-0.516349,-0.703244,-0.0735632,-0.130043,0.101964
-0.0497892,0.335018,0.124752,-0.918246,-0.776221,-0.872202,-0.0677138,-0.119685,0.00529176
-0.0588183,0.316032,0.104042,-1.05928,-0.738015,-0.9722,-0.0408523,-0.115381,-0.153798
-0.0634819,0.296699,0.082385,-0.964984,-0.324651,-0.945793,0.0030044,-0.102029,-0.316494
-0.0589722,0.280984,0.0638522,-0.711868,0.214867,-0.708355,0.0699934,-0.0858888,-0.398599
-0.0490415,0.269754,0.0518826,-0.492718,0.39473,-0.393693,0.10688,-0.0590674,-0.345077
-0.040547,0.261249,0.0458802,-0.409428,0.262966,-0.169965,0.0938479,-0.0767956,-0.238339
-0.0369953,0.25299,0.0429074,-0.4385,0.0111616,-0.115851,0.058774,-0.124456,-0.169518
-0.0381198,0.244013,0.039589,-0.47151,-0.206966,-0.174531,0.0404148,-0.163583,-0.153101
-0.0426121,0.234609,0.0352385,-0.491246,-0.334795,-0.201421,0.0547684,-0.164067,-0.1711
-0.0492376,0.224428,0.0310355,-0.5472,-0.428979,-0.155117,0.0516455,-0.122773,-0.191757
-0.0577922,0.213961,0.0277551,-0.487213,-0.493065,-0.112523,0.0427864,-0.102472,-0.240559
-0.0665662,0.206602,0.0252604,-0.250548,-0.409053,-0.0814214,0.0320977,-0.0785253,-0.305676
-0.0721243,0.204531,0.0240918,0.0382474,-0.145314,-0.00572077,0.0202668,-0.0261254,-0.312818
-0.0720046,0.208013,0.0254629,0.311865,0.181411,0.118908,0.016055,0.0308259,-0.246153
-0.0672736,0.216156,0.0297513,0.520528,0.354422,0.238642,0.00195308,0.070556,-0.119947
-0.061707,0.227612,0.0363135,0.654644,0.317041,0.319727,-0.0217098,0.0915725,0.0213346
-0.0590945,0.241023,0.0439717,0.724479,0.102606,0.333813,-0.0543109,0.10625,0.13482
-0.0615304,0.255076,0.0511918,0.71087,-0.172661,0.268604,-0.0895764,0.116516,0.206734
-0.0687403,0.268125,0.0561859,0.615693,-0.408643,0.117443,-0.114691,0.118836,0.248705
-0.0784917,0.27902,0.0571059,0.468092,-0.524303,-0.126076,-0.134552,0.117485,0.256507
-0.0874785,0.287135,0.0519356,0.2971,-0.497583,-0.443749,-0.138561,0.109973,0.247323
-0.0922974,0.292135,0.0397788,0.0834706,-0.317376,-0.759295,-0.106807,0.11011,0.23334
-0.09085,0.292667,0.021304,-0.195831,-0.0660155,-0.992711,-0.0583507,0.135384,0.2351
-0.0833796,0.288339,-0.00114851,-0.404396,0.147094,-1.09753,0.00765556,0.149731,0.211323
-0.0729964,0.281504,-0.0246782,-0.432111,0.218947,-1.09297,0.064995,0.157897,0.169674
-0.0621025,0.274876,-0.0470099,-0.373111,0.259821,-1.00439,0.105891,0.155797,0.138551
-0.0507879,0.268641,-0.0669945,-0.371259,0.34818,-0.886796,0.123332,0.137538,0.146239
-0.0378824,0.261349,-0.0848168,-0.446546,0.474275,-0.815717,0.128216,0.100424,0.17708
-0.0231715,0.25168,-0.101626,-0.574363,0.56477,-0.776717,0.136011,0.0555953,0.216572
-0.00765764,0.239299,-0.116923,-0.686373,0.596535,-0.680251,0.16079,0.0241305,0.242289
0.00692708,0.224675,-0.129141,-0.77955,0.598085,-0.500669,0.186851,0.0133474,0.244466
0.0204913,0.208474,-0.136469,-0.82285,0.588081,-0.230475,0.207279,0.000332847,0.226571
0.0310679,0.192773,-0.137588,-0.721342,0.426454,0.0906892,0.222381,-0.0276269,0.188263
0.0347713,0.180884,-0.131591,-0.480244,0.0391621,0.46333,0.231581,-0.0455189,0.149884
0.0298247,0.174041,-0.118634,-0.271211,-0.296036,0.774006,0.215732,-0.0684589,0.1086
0.0180715,0.169076,-0.101192,-0.306055,-0.588965,0.90922,0.14094,-0.0998103,0.0678552
0.000650004,0.161311,-0.0828116,-0.49828,-0.837674,0.87839,0.0635064,-0.158892,-0.0155613
-0.0188741,0.149536,-0.066844,-0.647999,-0.816795,0.688959,-0.0200339,-0.198082,-0.184294
-0.033706,0.135992,-0.0562392,-0.663574,-0.477032,0.39361,-0.0837684,-0.218598,-0.357772
-0.0375881,0.123612,-0.0514266,-0.545241,0.189908,0.149294,-0.10817,-0.202905,-0.466003
-0.0269702,0.114092,-0.0499136,-0.40773,0.850621,0.0575725,-0.0578489,-0.178712,-0.458248
-0.00689725,0.106979,-0.0485379,-0.314207,1.10137,0.107556,0.0292729,-0.166662,-0.335086
0.0128865,0.100946,-0.0451929,-0.310891,0.863896,0.231501,0.102658,-0.179239,-0.20163
0.0253684,0.0945687,-0.0391398,-0.333866,0.426695,0.350513,0.12938,-0.203821,-0.15701
0.0295382,0.0886736,-0.0312435,-0.272694,0.0886116,0.406416,0.105943,-0.223348,-0.227081
0.0290359,0.0845876,-0.0230393,-0.152296,-0.0372552,0.396051,0.0680874,-0.21309,-0.334623
0.0279721,0.0831808,-0.0146832,-0.0142231,0.0184845,0.45263,0.0864318,-0.166229,-0.388628
0.0291718,0.0844835,-0.00409908,0.115893,0.205106,0.628446,0.108281,-0.0878888,-0.385872
0.0291718,0.0844835,-0.00409908,0.115893,0.205106,0.628446,0.108281,-0.0878888,-0.385872
0.0340153,0.0890646,0.0109438,0.320571,0.414104,0.901712,0.119446,-0.0132871,-0.337044
0.0424699,0.0996966,0.0317361,0.691117,0.62001,1.20877,0.124105,0.0238325,-0.266208
0.0535329,0.118901,0.0578569,1.09684,0.754375,1.4784,0.102739,0.0658257,-0.141463
0.0644313,0.145334,0.0885291,1.32659,0.711568,1.72062,0.0798315,0.115038,0.0513236
0.0705903,0.174109,0.123462,1.27795,0.423999,1.92006,0.0609821,0.155118,0.239783
0.0666136,0.200143,0.16212,1.04443,-0.130009,2.047,0.0503192,0.153582,0.350454
0.0493275,0.220576,0.202773,0.762479,-0.737704,2.02436,0.0314007,0.127697,0.356909
0.0215936,0.234373,0.24185,0.486502,-1.12654,1.8169,-0.0110224,0.0975129,0.27497
-0.011604,0.241744,0.276004,0.244305,-1.35447,1.50539,-0.0534768,0.0921337,0.158585
-0.0451269,0.244044,0.303416,0.0758188,-1.29867,1.16023,-0.0385464,0.0797334,0.0291953
-0.0729345,0.243625,0.324337,0.0217109,-0.937307,0.894521,0.0162898,0.0889856,-0.0933742
-0.0902759,0.24311,0.341697,0.085338,-0.373438,0.835137,0.0897606,0.128676,-0.166628
-0.0974035,0.244654,0.360457,0.25201,0.0629504,0.992361,0.168267,0.175585,-0.154769
-0.0999951,0.249522,0.383593,0.451413,0.210421,1.18825,0.204525,0.191917,-0.0676398
-0.102659,0.257342,0.410052,0.570863,0.165106,1.26136,0.178877,0.167139,0.0447116
-0.107253,0.266241,0.436468,0.567818,0.0607396,1.17335,0.127156,0.130843,0.145518
-0.112966,0.274302,0.45981,0.470209,0.00297284,0.96873,0.094763,0.0980841,0.208631
-0.117864,0.280206,0.478227,0.317107,0.0121384,0.7349,0.0924358,0.0786927,0.247849
-0.121043,0.28354,0.491927,0.165062,0.0519945,0.547725,0.109121,0.0818185,0.26338
-0.122505,0.2844,0.501911,0.0437698,0.0760259,0.407875,0.116283,0.100344,0.259766
-0.12285,0.284238,0.509572,0.042533,0.10171,0.335125,0.140177,0.0953829,0.217305
-0.122517,0.284536,0.516374,0.0565654,0.123259,0.316555,0.149371,0.106396,0.19834
-0.122,0.284017,0.522806,-0.0415092,0.102411,0.30368,0.143785,0.0993972,0.203001
-0.121502,0.281573,0.528339,-0.129192,0.106677,0.240992,0.125463,0.0534402,0.149491
-0.120358,0.27758,0.531381,-0.254438,0.0757674,0.091364,0.0766376,0.0174376,0.090674
-0.119516,0.270183,0.53039,-0.516649,-0.0359243,-0.105676,0.025947,-0.016005,0.0637504
-0.120967,0.257369,0.524466,-0.815417,-0.262541,-0.300875,0.00860392,-0.0572763,-0.000178337
-0.124967,0.24067,0.514862,-0.93117,-0.323193,-0.412689,-0.0010052,-0.0823714,-0.147021
-0.127271,0.223554,0.503272,-0.900341,-0.142584,-0.495013,-0.0220742,-0.0848375,-0.290126
-0.122954,0.20754,0.49078,-0.858997,0.336067,-0.513129,-0.0380681,-0.0938889,-0.372093
-0.109272,0.191243,0.477565,-0.927914,0.719375,-0.601719,-0.0587051,-0.131485,-0.362679
-0.0916152,0.173024,0.462284,-1.04494,0.714468,-0.705786,-0.0388767,-0.194721,-0.296162
-0.0764692,0.152973,0.445916,-1.08193,0.514455,-0.723624,0.000764966,-0.221464,-0.280694
-0.0663896,0.1336,0.430621,-0.934345,0.286402,-0.635451,0.038116,-0.203085,-0.331941
-0.0604651,0.118591,0.418838,-0.624627,0.175808,-0.422108,0.0722413,-0.159763,-0.398868
-0.0564159,0.11018,0.412851,-0.246975,0.177481,-0.112443,0.0942063,-0.093824,-0.416733
-0.0526109,0.109013,0.4144,0.151159,0.203715,0.287222,0.0995157,-0.0244729,-0.377734
-0.0500823,0.116465,0.425042,0.664102,0.162823,0.740595,0.101984,0.0296696,-0.318063
-0.0502673,0.13401,0.444901,1.17604,0.0570149,1.11475,0.00899361,0.0922123,-0.20878
-0.0543635,0.159847,0.470475,1.50951,-0.108035,1.24611,-0.127753,0.11629,-0.0512551
-0.0635036,0.189863,0.496678,1.61034,-0.369157,1.13207,-0.225155,0.114918,0.10946
-0.0777632,0.219627,0.519185,1.49029,-0.570566,0.843528,-0.258334,0.0899659,0.227607
-0.0933829,0.244892,0.534983,1.13799,-0.608339,0.467619,-0.271458,0.0921832,0.294702
-0.1063,0.262415,0.54225,0.676448,-0.484286,0.0572211,-0.253916,0.0918265,0.310367
-0.1134,0.271777,0.540433,0.25893,-0.26891,-0.326109,-0.198781,0.0873063,0.273057
-0.113948,0.275375,0.531289,0.0397638,-0.0510412,-0.564589,-0.123935,0.106976,0.190397
-0.110474,0.277426,0.51911,0.0596746,0.0502404,-0.599468,-0.0581664,0.156632,0.123656
-0.106238,0.280872,0.507651,0.162873,0.0435817,-0.528583,-0.00292928,0.194094,0.110777
-0.103062,0.285852,0.497985,0.227945,0.0168614,-0.45613,0.0328331,0.195015,0.132813
-0.099848,0.291206,0.489312,0.199189,0.0749119,-0.44038,0.040691,0.174422,0.167467
-0.0942612,0.294764,0.480206,0.0561539,0.223823,-0.462143,0.0338794,0.149462,0.215196
-0.0856101,0.294921,0.470361,-0.131993,0.342306,-0.477017,0.043438,0.122925,0.257337
-0.0753103,0.291388,0.459945,-0.298761,0.359977,-0.486122,0.0298006,0.0955859,0.27816
-0.0658942,0.284924,0.449468,-0.405597,0.287794,-0.472855,0.0236257,0.0664391,0.265706
-0.0658942,0.284924,0.449468,-0.405597,0.287794,-0.472855,0.0236257,0.0664391,0.265706
-0.0577904,0.276897,0.439087,-0.449625,0.242787,-0.480394,0.0120552,0.0304221,0.224737
-0.0500563,0.268449,0.428449,-0.445767,0.256413,-0.490888,0.00847889,-0.00719386,0.180047
-0.0420759,0.260257,0.418583,-0.416154,0.280424,-0.406049,0.0217718,-0.0306352,0.152343
-0.0353475,0.252802,0.411513,-0.359991,0.187293,-0.242233,0.0473241,-0.0571336,0.131429
-0.0330758,0.246303,0.408346,-0.30007,-0.0394166,-0.0430406,0.0662056,-0.091644,0.103689
-0.0356375,0.241308,0.408786,-0.188961,-0.180792,0.0838369,0.0411894,-0.138316,0.0151181
-0.0398633,0.239064,0.410628,-0.0383555,-0.19381,0.0880356,-0.0140762,-0.181801,-0.0931765
-0.0432775,0.239074,0.411893,0.0306896,-0.0962061,0.028674,-0.0496109,-0.207335,-0.159921
-0.0435305,0.239816,0.411155,0.0260397,0.0590677,-0.117773,-0.0774033,-0.229212,-0.196393
-0.0396488,0.239888,0.406943,-0.0433806,0.224474,-0.297785,-0.0891823,-0.248658,-0.207728
-0.032019,0.238217,0.398903,-0.155166,0.331937,-0.480956,-0.0830568,-0.251197,-0.208746
-0.0224545,0.234388,0.387471,-0.254098,0.352007,-0.616336,-0.061398,-0.229865,-0.212464
-0.0123748,0.228716,0.373799,-0.348648,0.332012,-0.698966,-0.0172905,-0.210284,-0.230416
-0.0029771,0.221003,0.359273,-0.429208,0.285951,-0.701535,0.0316064,-0.177993,-0.25301
0.00549807,0.212769,0.34564,-0.370515,0.272246,-0.616481,0.0848206,-0.143371,-0.306332
0.0132355,0.207128,0.334955,-0.17422,0.289018,-0.418097,0.132952,-0.08532,-0.340979
0.0209019,0.205985,0.329511,0.0720117,0.381249,-0.110655,0.173328,-0.0256472,-0.312446
0.0301355,0.210035,0.330466,0.328567,0.575384,0.209709,0.181637,0.0189339,-0.240667
0.0418874,0.218946,0.337375,0.534882,0.745876,0.497058,0.152118,0.0588599,-0.112666
0.055109,0.231715,0.349605,0.675335,0.834304,0.748666,0.125819,0.0780811,0.040812
0.0671785,0.246877,0.366032,0.721023,0.740242,0.937433,0.0938581,0.0882794,0.187174
0.0740252,0.261839,0.386069,0.622923,0.402416,1.09779,0.0674944,0.0998602,0.303389
0.0703035,0.274309,0.409059,0.455386,-0.183788,1.20452,0.0554275,0.100898,0.358459
0.0541152,0.282818,0.434025,0.238599,-0.720458,1.24472,0.0361032,0.099177,0.332982
0.0291392,0.286467,0.45931,0.0311502,-1.03873,1.18331,-0.0218595,0.103763,0.217218
0.00124065,0.286133,0.481952,-0.0865968,-1.08302,0.97747,-0.0826264,0.0890834,0.0614079
-0.0243498,0.283904,0.499328,-0.116759,-0.960659,0.696655,-0.0918922,0.0680999,-0.0795457
-0.0437383,0.280976,0.511214,-0.146278,-0.629261,0.482531,-0.0421731,0.0790208,-0.155582
-0.0546526,0.277195,0.52016,-0.18454,-0.226507,0.430332,0.045933,0.105262,-0.172483
-0.0589401,0.27319,0.529805,-0.147781,0.0245932,0.542101,0.118138,0.14099,-0.148178
-0.0610029,0.270997,0.542835,0.0190643,0.0974508,0.73102,0.160837,0.156394,-0.101016
-0.0637488,0.272446,0.559602,0.216721,0.0648706,0.864945,0.158447,0.144256,-0.0327983
-0.0679625,0.276785,0.578478,0.313752,0.040672,0.908403,0.131961,0.123988,0.0623337
-0.0721638,0.281565,0.597335,0.268353,0.0623397,0.857538,0.0943779,0.103787,0.160484
-0.0753923,0.284573,0.614363,0.149788,0.0889769,0.746528,0.061763,0.0821544,0.234063
-0.0775351,0.285527,0.628548,0.0501282,0.0836859,0.609051,0.0416523,0.0631268,0.26057
-0.0795883,0.284884,0.639741,-0.0281814,0.00501461,0.470857,0.033041,0.0451606,0.264045
-0.0827705,0.28335,0.648137,-0.052877,-0.0795278,0.350351,0.0433074,0.0169695,0.233876
-0.0860625,0.281736,0.654121,-0.0647539,-0.0703343,0.240243,0.031542,-0.00546917,0.175906
-0.0878782,0.27969,0.657873,-0.113813,0.00697253,0.137608,0.0276377,-0.0242357,0.131917
-0.0874196,0.276477,0.659257,-0.197516,0.057466,0.0203909,0.0185629,-0.054226,0.0795957
-0.0862845,0.27195,0.658025,-0.266907,0.0177628,-0.0996184,0.0200526,-0.0944421,0.00452632
-0.08592,0.266281,0.654388,-0.327951,-0.0835762,-0.196865,0.0113482,-0.115044,-0.0886073
-0.0869356,0.259863,0.649225,-0.341923,-0.137194,-0.242542,-0.000210792,-0.115809,-0.196328
-0.0878662,0.254341,0.643417,-0.238087,-0.0778409,-0.257591,-0.00691257,-0.111537,-0.303955
-0.0862707,0.251841,0.638374,-0.050922,0.139989,-0.200009,-0.00371249,-0.109822,-0.369268
-0.0797429,0.252848,0.635008,0.0974833,0.406318,-0.135599,-0.0278397,-0.0933128,-0.367484
-0.0701975,0.255085,0.632755,0.0823673,0.448471,-0.112317,-0.0583963,-0.0917427,-0.268811
-0.0621664,0.255493,0.63004,-0.0765345,0.268789,-0.168966,-0.0903573,-0.104684,-0.169508
-0.0576988,0.252417,0.625139,-0.248127,0.0616082,-0.290721,-0.125588,-0.105876,-0.140447
-0.0558525,0.24743,0.617817,-0.264844,-0.0402248,-0.376801,-0.13475,-0.075476,-0.181533
-0.0544075,0.243514,0.61012,-0.155606,0.0187962,-0.331052,-0.107716,-0.011892,-0.223292
-0.0511052,0.242289,0.604347,0.00903169,0.185572,-0.223682,-0.0836489,0.0327872,-0.211369
-0.0449744,0.244265,0.601003,0.171319,0.329549,-0.109854,-0.0730899,0.0570748,-0.141765
-0.0449744,0.244265,0.601003,0.171319,0.329549,-0.109854,-0.0730899,0.0570748,-0.141765
-0.0373991,0.249269,0.600016,0.326341,0.387575,-0.00502861,-0.0630542,0.0715249,-0.0488119
-0.0302684,0.257133,0.601178,0.459929,0.349327,0.0895972,-0.0812049,0.0962586,0.0499015
-0.0252823,0.267123,0.60396,0.536167,0.199931,0.146473,-0.116791,0.124035,0.144402
-0.0250802,0.277891,0.607266,0.54009,-0.118334,0.130316,-0.14515,0.131491,0.222198
-0.0323004,0.287992,0.609423,0.459303,-0.553182,0.0313661,-0.168468,0.130768,0.265323
-0.0466812,0.295162,0.608723,0.236536,-0.867895,-0.135937,-0.180146,0.139833,0.268823
-0.0634428,0.297438,0.603803,-0.0295223,-0.938161,-0.366091,-0.200553,0.149166,0.209965
-0.078492,0.295593,0.592796,-0.211209,-0.886679,-0.676196,-0.193742,0.133058,0.12617
-0.0895552,0.291611,0.575334,-0.325783,-0.70931,-0.948876,-0.124881,0.123906,0.0532024
-0.0942769,0.285886,0.553264,-0.441137,-0.375975,-1.08587,-0.0484775,0.149684,0.0132571
-0.0920313,0.278286,0.530039,-0.513873,-0.0713581,-1.04075,0.0348837,0.185657,0.00929284
-0.0865232,0.270197,0.509419,-0.443816,0.0342056,-0.854629,0.11807,0.190627,0.0263212
-0.0815479,0.264511,0.493429,-0.249073,0.0352171,-0.641532,0.154003,0.16816,0.0462566
-0.0776039,0.261991,0.481455,-0.114683,0.0505103,-0.512739,0.130346,0.132646,0.108096
-0.0732967,0.260676,0.470953,-0.115645,0.109955,-0.508907,0.088625,0.0806401,0.196211
-0.0672908,0.258052,0.45958,-0.247466,0.183576,-0.574034,0.0626484,0.0318236,0.270716
-0.0602068,0.251679,0.446525,-0.475082,0.176958,-0.64696,0.0532699,0.00168535,0.325963
-0.0542627,0.240989,0.432056,-0.651759,0.0565165,-0.693563,0.06483,-0.0416106,0.325935
-0.0512264,0.228346,0.416721,-0.665139,-0.0967157,-0.727511,0.0670104,-0.0792974,0.247331
-0.050206,0.216274,0.401347,-0.623944,-0.126919,-0.709141,0.0754135,-0.095543,0.15751
-0.0490612,0.204726,0.38666,-0.60034,-0.03139,-0.672513,0.0706766,-0.101312,0.0995358
-0.0451099,0.19391,0.372884,-0.539702,0.155062,-0.629459,0.0708302,-0.129721,0.0347797
-0.0383302,0.184467,0.360392,-0.457838,0.266368,-0.553227,0.0939298,-0.157749,-0.0022307
-0.031033,0.17658,0.349983,-0.365676,0.259148,-0.442654,0.105375,-0.182216,-0.0262624
-0.0255462,0.170296,0.341666,-0.295159,0.120492,-0.360152,0.0888641,-0.197149,-0.0664226
-0.0245882,0.165101,0.335162,-0.24072,-0.14435,-0.267383,0.110372,-0.223023,-0.117595
-0.0290813,0.16098,0.330561,-0.185608,-0.355389,-0.180613,0.0949702,-0.210411,-0.205394
-0.0358738,0.157656,0.327491,-0.161054,-0.336678,-0.126946,0.0348262,-0.18078,-0.313483
-0.0399543,0.154819,0.324683,-0.127182,-0.0852333,-0.150562,-0.00847727,-0.188145,-0.399804
-0.0376295,0.153199,0.320984,-0.0473267,0.260815,-0.206707,-0.0199032,-0.190479,-0.441992
-0.0290535,0.153084,0.316786,0.0115536,0.493181,-0.195854,0.0165789,-0.185755,-0.404796
-0.0184913,0.153841,0.313675,0.0633523,0.488107,-0.104854,0.07801,-0.176233,-0.322892
-0.00966797,0.156307,0.312966,0.183747,0.37037,0.0332904,0.109571,-0.160048,-0.275604
-0.00422067,0.161215,0.315136,0.30405,0.211998,0.181342,0.119995,-0.132878,-0.235007
-0.00228208,0.168004,0.320195,0.371867,0.0697028,0.313496,0.130927,-0.113944,-0.197584
-0.00289947,0.175896,0.327625,0.42189,0.00804584,0.415053,0.126665,-0.0933968,-0.182106
-0.00398178,0.185359,0.337025,0.555014,0.0836166,0.51183,0.104164,-0.0557523,-0.188555
-0.00299794,0.199122,0.348735,0.846959,0.251416,0.634217,0.0925535,-0.00620125,-0.177814
0.00113747,0.218926,0.362928,1.12026,0.464939,0.76525,0.0850865,0.0511504,-0.0819748
0.00858949,0.242431,0.380105,1.19726,0.663195,0.91082,0.0678794,0.108289,0.0744201
0.0176476,0.26569,0.399381,1.08359,0.70615,0.98205,0.035951,0.138139,0.227197
0.0250079,0.2854,0.419729,0.840694,0.560414,1.02057,0.0227744,0.136568,0.338308
0.0275902,0.300082,0.440564,0.580741,0.291488,1.00766,0.0104045,0.12557,0.374016
0.0244987,0.309768,0.460757,0.334479,-0.0210018,0.942975,-0.00407379,0.113141,0.361497
0.0134739,0.313613,0.479099,-0.0159694,-0.553047,0.81639,-0.0239706,0.117992,0.338361
-0.00827715,0.309057,0.495099,-0.425912,-1.1004,0.718165,-0.0199167,0.123313,0.247937
-0.0370272,0.29847,0.508482,-0.551409,-1.3041,0.578932,-0.0109894,0.104452,0.0151759
-0.0634203,0.288501,0.518363,-0.382658,-0.998483,0.437237,-0.0032369,0.107224,-0.235181
-0.0801828,0.282431,0.526804,-0.172899,-0.406933,0.453131,0.0482064,0.141865,-0.341411
-0.0845603,0.279666,0.537785,-0.0173731,0.242828,0.64722,0.0825818,0.189914,-0.326893
-0.0806954,0.279561,0.553279,0.13523,0.506188,0.827107,0.0953616,0.201792,-0.206792
-0.0750171,0.282737,0.571644,0.32108,0.55371,0.897017,0.068202,0.156137,-0.0663312
-0.0695012,0.28916,0.590632,0.433775,0.533911,0.870285,0.0196719,0.138739,0.0743337
-0.0695012,0.28916,0.590632,0.433775,0.533911,0.870285,0.0196719,0.138739,0.0743337
-0.0644487,0.296881,0.608591,0.439417,0.489075,0.797937,-0.0121592,0.128568,0.216063
-0.0602617,0.303915,0.624824,0.356602,0.402025,0.706163,-0.0285486,0.121401,0.32976
-0.0574423,0.30888,0.638663,0.212192,0.283922,0.586972,-0.032312,0.103888,0.398629
-0.0570389,0.31063,0.649595,0.0184862,0.0777587,0.449406,-0.0378835,0.0812936,0.434952
-0.0598018,0.308857,0.657713,-0.13617,-0.0951514,0.341374,-0.0152971,0.034851,0.4092
-0.0647625,0.304871,0.663809,-0.21724,-0.206485,0.276383,0.0198016,-0.0027172,0.326947
-0.0714759,0.299008,0.668953,-0.346739,-0.325752,0.257435,0.0298093,-0.0213308,0.250934
-0.080071,0.290043,0.672995,-0.529915,-0.422199,0.172908,0.00639304,-0.0643787,0.164405
-0.0901612,0.27737,0.672922,-0.746879,-0.612676,-0.0986564,-0.060436,-0.137611,0.0233938
-0.102784,0.260479,0.66552,-1.01029,-0.847718,-0.456522,-0.0971164,-0.202753,-0.134353
-0.116575,0.240219,0.650586,-1.12861,-0.841779,-0.737586,-0.0650379,-0.234405,-0.330457
-0.125699,0.221247,0.631796,-0.939711,-0.423958,-0.804415,-0.0092949,-0.20136,-0.545882
-0.123917,0.208191,0.615414,-0.545645,0.234039,-0.587358,0.0335436,-0.131979,-0.650159
-0.113038,0.202753,0.606355,-0.108116,0.590347,-0.227485,0.0480628,-0.0654026,-0.584124
-0.101494,0.204254,0.60465,0.207791,0.480603,0.0110392,0.0387128,-0.0775133,-0.413293
-0.0951484,0.209632,0.606059,0.310457,0.187337,0.0436929,-0.0351268,-0.106628,-0.249507
-0.0939199,0.215389,0.606578,0.249664,-0.0454266,-0.0557894,-0.10913,-0.104739,-0.14405
-0.0963023,0.219227,0.604677,0.108049,-0.219324,-0.160477,-0.143193,-0.0690083,-0.0822288
-0.100039,0.220143,0.600649,-0.044203,-0.213476,-0.237296,-0.151684,-0.0172422,-0.0759946
-0.101468,0.219357,0.595206,-0.0507764,-0.027108,-0.278383,-0.159572,0.0271726,-0.111807
-0.0985921,0.220812,0.589751,0.16879,0.17818,-0.252687,-0.137646,0.0637329,-0.125759
-0.0934838,0.227758,0.586447,0.501276,0.23963,-0.11775,-0.086126,0.105998,-0.068836
-0.0897143,0.240887,0.587317,0.80175,0.143625,0.0877579,-0.0614152,0.168847,0.0294313
-0.0898624,0.258184,0.592481,0.938733,-0.0498294,0.239425,-0.0875952,0.221695,0.14136
-0.0955538,0.275567,0.599324,0.822596,-0.334662,0.234741,-0.103199,0.227369,0.236583
-0.104912,0.288496,0.6041,0.492211,-0.42507,0.0682725,-0.140468,0.218791,0.270357
-0.111569,0.294291,0.602943,0.0650377,-0.251683,-0.260755,-0.186311,0.188636,0.240426
-0.111397,0.292203,0.593175,-0.363412,-0.0219149,-0.636801,-0.177023,0.141242,0.211427
-0.105635,0.283823,0.575886,-0.611603,0.0878837,-0.899698,-0.108741,0.112761,0.164556
-0.0983223,0.273286,0.555246,-0.606605,0.0600096,-0.933579,-0.012138,0.123977,0.0979329
-0.0930107,0.264325,0.536534,-0.449948,-0.0352835,-0.760324,0.0614679,0.157086,0.0511693
-0.0912263,0.258708,0.522831,-0.228495,-0.139539,-0.516253,0.102106,0.154941,0.0339906
-0.0919914,0.256956,0.513615,-0.0554514,-0.15209,-0.387722,0.0897154,0.109072,0.0463613
-0.0915466,0.256717,0.505284,-0.0754511,0.0115554,-0.436153,0.0323468,0.0519715,0.0968761
-0.0863644,0.254828,0.49488,-0.209533,0.241302,-0.557672,-0.00345782,0.00346702,0.155293
-0.0764966,0.250354,0.481868,-0.338039,0.388039,-0.654277,-0.00480267,-0.0207624,0.203251
-0.0656412,0.243685,0.467563,-0.41758,0.334626,-0.676178,0.0147974,-0.0332556,0.238003
-0.057278,0.236037,0.45325,-0.425425,0.152051,-0.673627,0.0262709,-0.0572555,0.234258
-0.0526543,0.228687,0.439138,-0.381662,-0.000596086,-0.660935,0.0282037,-0.070191,0.20255
-0.0500854,0.222411,0.425685,-0.310774,-0.0209965,-0.608457,0.0242341,-0.0692128,0.149972
-0.0471563,0.217653,0.414001,-0.219352,0.0688209,-0.506443,0.0384582,-0.0692028,0.0982922
-0.0423406,0.214621,0.404873,-0.122598,0.235998,-0.372451,0.0496881,-0.0768023,0.0652623
-0.0343114,0.213377,0.398504,-0.035525,0.41468,-0.249615,0.0538208,-0.100845,0.0532842
-0.0245618,0.213305,0.394512,0.0103555,0.460675,-0.145086,0.0504309,-0.122705,0.060248
-0.0159101,0.213542,0.392204,-0.000329142,0.335413,-0.093883,0.036422,-0.151786,0.0468191
-0.0108726,0.213087,0.39023,-0.050986,0.102522,-0.107595,-0.00522742,-0.173807,-0.0260167
-0.0116361,0.211508,0.387263,-0.106119,-0.241281,-0.206418,-0.0498876,-0.199444,-0.116848
-0.0178659,0.208894,0.380847,-0.174467,-0.489019,-0.438628,-0.0912881,-0.230656,-0.223845
-0.0255764,0.204394,0.369094,-0.309559,-0.472869,-0.693267,-0.0829757,-0.233153,-0.314822
-0.0286487,0.197417,0.353157,-0.420039,-0.116208,-0.832056,-0.0435669,-0.193084,-0.408391
-0.0229231,0.18941,0.335987,-0.40458,0.350781,-0.806631,0.0223585,-0.155242,-0.481231
-0.00998862,0.183182,0.321346,-0.221574,0.62633,-0.601407,0.0981239,-0.104584,-0.484569
0.00436929,0.1815,0.312096,0.0493887,0.619903,-0.31088,0.161306,-0.0690826,-0.412111
0.016567,0.18466,0.308393,0.254014,0.521574,-0.0595279,0.16235,-0.0489015,-0.305985
0.016567,0.18466,0.308393,0.254014,0.521574,-0.0595279,0.16235,-0.0489015,-0.305985
0.0262575,0.191302,0.309104,0.409695,0.485633,0.134426,0.147839,-0.0383627,-0.202434
0.0353504,0.200677,0.313066,0.507504,0.513965,0.287685,0.127888,-0.017861,-0.101979
0.0449066,0.211578,0.319934,0.554098,0.591893,0.434889,0.116662,0.0105251,0.0055542
0.0552435,0.223508,0.329742,0.593946,0.64289,0.587422,0.105078,0.035998,0.0947168
0.0642194,0.236493,0.342749,0.624988,0.534489,0.759892,0.101185,0.0625718,0.181862
0.0689149,0.250181,0.359313,0.626519,0.327916,0.936,0.0927682,0.0882321,0.248321
0.0679029,0.263215,0.379072,0.529609,0.0714314,1.05533,0.0710523,0.11683,0.300705
0.06056,0.272912,0.401126,0.275326,-0.234346,1.1265,0.0570276,0.120688,0.332654
0.0462804,0.276689,0.42444,-0.0194673,-0.56268,1.14075,0.0483607,0.116799,0.311414
0.0256256,0.274446,0.44825,-0.280529,-0.840521,1.14913,0.0564518,0.11748,0.240366
0.000679783,0.267049,0.471647,-0.479123,-1.03225,1.09052,0.0233616,0.127122,0.114364
-0.0266644,0.255835,0.492689,-0.603835,-1.12321,0.956904,0.0325226,0.0881666,-0.00150412
-0.0521631,0.242986,0.510243,-0.595969,-0.956564,0.804624,0.0587864,0.0579998,-0.131969
-0.0703096,0.231506,0.525327,-0.449228,-0.47505,0.761162,0.0897551,0.0717437,-0.22145
-0.0778258,0.223751,0.540982,-0.208693,0.0542716,0.83479,0.0997502,0.107707,-0.226717
-0.0773781,0.220373,0.558619,-0.0128155,0.340254,0.914032,0.106834,0.102764,-0.10825
-0.0745021,0.219821,0.577795,0.0901683,0.325791,0.947815,0.0875956,0.0799935,0.0388725
-0.0735588,0.220919,0.597233,0.150006,0.178764,0.932475,0.0474753,0.0674995,0.150121
-0.0761735,0.222662,0.615674,0.148419,-0.0388983,0.843175,0.00866933,0.0535139,0.22575
-0.0823838,0.2241,0.63155,0.108966,-0.215728,0.6846,-0.00501797,0.0251925,0.271462
-0.0902675,0.224432,0.643648,0.0123993,-0.296511,0.499796,-0.0141208,0.0174132,0.285847
-0.0980134,0.222598,0.65206,-0.118818,-0.28678,0.343698,0.00532363,0.0090791,0.282032
-0.104806,0.218644,0.65742,-0.21316,-0.286685,0.22221,0.0375481,-0.00808448,0.250835
-0.111651,0.213622,0.660383,-0.262073,-0.349835,0.130116,0.0693663,-0.0208325,0.202111
-0.119717,0.207687,0.662122,-0.30347,-0.41445,0.115364,0.100263,-0.0227611,0.138957
-0.128429,0.20137,0.663321,-0.315223,-0.446681,0.0577819,0.0971225,-0.0349429,0.0443712
-0.138158,0.194446,0.661836,-0.416418,-0.556925,-0.131018,0.0292731,-0.0471793,-0.0418202
-0.148579,0.185078,0.655221,-0.614817,-0.594814,-0.378366,0.00400971,-0.0859811,-0.147246
-0.156872,0.172887,0.643372,-0.752444,-0.407769,-0.572574,-0.00228857,-0.085419,-0.286266
-0.15862,0.159988,0.628622,-0.733748,0.0229412,-0.644907,0.0117274,-0.0563161,-0.413546
-0.150987,0.149007,0.613899,-0.567789,0.504069,-0.615726,-0.0102493,-0.023129,-0.478188
-0.136739,0.141578,0.601029,-0.370264,0.655588,-0.544979,-0.0128932,-0.00643188,-0.430349
-0.123938,0.136649,0.589342,-0.310554,0.444836,-0.551975,-0.0148759,-0.0190651,-0.302031
-0.115007,0.130745,0.576894,-0.436516,0.308617,-0.605176,-0.0655476,-0.00930637,-0.234201
-0.107453,0.122749,0.563314,-0.484847,0.295149,-0.647115,-0.109366,0.0173685,-0.257602
-0.0993887,0.115349,0.549392,-0.37352,0.353569,-0.634245,-0.123679,0.0553091,-0.29794
-0.0899021,0.110638,0.537426,-0.20262,0.447994,-0.487314,-0.0932936,0.0912011,-0.280758
-0.0791604,0.109808,0.53005,0.0839988,0.542782,-0.232272,-0.066647,0.1192,-0.229396
-0.0681432,0.115189,0.528573,0.444413,0.532573,0.0445071,-0.0956299,0.140432,-0.137854
-0.058749,0.127196,0.532201,0.766297,0.434217,0.216167,-0.164309,0.150764,-0.00847757
-0.0529994,0.144374,0.537545,0.950208,0.212518,0.198111,-0.243124,0.142713,0.130815
-0.0521975,0.163004,0.541122,0.897566,-0.0972363,0.0303237,-0.306459,0.141561,0.257983
-0.0575444,0.178677,0.53998,0.64133,-0.46302,-0.243489,-0.354963,0.148279,0.339491
-0.0683896,0.188418,0.532366,0.281563,-0.748894,-0.567019,-0.366909,0.157245,0.354929
-0.0824898,0.191843,0.517961,-0.0325836,-0.916338,-0.863839,-0.34659,0.175486,0.308105
-0.0968611,0.190622,0.497632,-0.25579,-0.876363,-1.10584,-0.299848,0.18448,0.225941
-0.107611,0.186342,0.472749,-0.416298,-0.654554,-1.28199,-0.251145,0.191278,0.145492
-0.112812,0.179985,0.444691,-0.512361,-0.388866,-1.38646,-0.198755,0.18611,0.104057
-0.1132,0.172729,0.415019,-0.528571,-0.19168,-1.43301,-0.144826,0.16708,0.0915004
-0.11098,0.165971,0.385243,-0.468159,-0.106787,-1.40501,-0.0974805,0.147891,0.0975311
-0.1087,0.160469,0.356977,-0.394487,-0.139383,-1.30671,-0.0524841,0.133918,0.125323
-0.107895,0.155799,0.33079,-0.357942,-0.194577,-1.22766,-0.031466,0.100787,0.153622
-0.108434,0.151332,0.305683,-0.368606,-0.243838,-1.20666,-0.0221961,0.0542888,0.170036
-0.110051,0.145731,0.280421,-0.478168,-0.291922,-1.23205,-0.0225,0.0194219,0.184007
-0.110051,0.145731,0.280421,-0.478168,-0.291922,-1.23205,-0.0225,0.0194219,0.184007
-0.111901,0.137545,0.253813,-0.626607,-0.25617,-1.31591,-0.028059,-0.0193516,0.155442
-0.112173,0.127312,0.225049,-0.703841,-0.131543,-1.40083,-0.0191565,-0.0532079,0.0828562
-0.1093,0.116608,0.195278,-0.678074,0.0608155,-1.41097,0.00267477,-0.0628096,0.0134663
-0.103102,0.106915,0.166433,-0.579371,0.221266,-1.33216,0.0515961,-0.0798882,-0.0264013
-0.0954464,0.0995854,0.140369,-0.396281,0.252582,-1.16867,0.0850027,-0.0928857,-0.0514757
-0.0891597,0.0964329,0.118916,-0.0922034,0.148511,-0.91981,0.125844,-0.106079,-0.0815672
-0.0865376,0.0999354,0.103577,0.308304,-0.0298084,-0.643914,0.129257,-0.101815,-0.112198
-0.0873861,0.109841,0.093055,0.54032,-0.15844,-0.51885,0.0834378,-0.103346,-0.091408
-0.0898931,0.120948,0.0832082,0.439642,-0.189722,-0.583544,0.0141194,-0.129729,-0.0369176
-0.0917638,0.128476,0.0703343,0.196634,-0.145294,-0.777888,-0.0625473,-0.134206,-0.0393004
-0.090812,0.132182,0.0524461,0.0243296,0.0261537,-1.03311,-0.117227,-0.134377,-0.104498
-0.0845791,0.134056,0.0293672,-0.0267776,0.30939,-1.25136,-0.107884,-0.131101,-0.164019
-0.0721398,0.135151,0.0034225,-0.0842833,0.556578,-1.28838,-0.0457828,-0.0858409,-0.156121
-0.0569008,0.134203,-0.020934,-0.164563,0.61549,-1.10309,0.029015,-0.0248455,-0.0951292
-0.042524,0.13206,-0.0408951,-0.1256,0.561056,-0.866782,0.0982476,-0.0297918,-0.0715693
-0.0298307,0.130933,-0.0561481,-0.0583516,0.506046,-0.651235,0.121734,-0.0448097,-0.0587137
-0.0192532,0.129712,-0.0673831,-0.110328,0.371323,-0.47084,0.126924,-0.0624235,-0.00509036
-0.0138667,0.126214,-0.0754247,-0.267495,0.0266809,-0.328264,0.126854,-0.0792756,0.0424874
-0.016909,0.118865,-0.0807264,-0.458621,-0.394739,-0.20068,0.119511,-0.0986084,0.016331
-0.0262583,0.109869,-0.0843,-0.404915,-0.52125,-0.139251,0.0968673,-0.106066,-0.150613
-0.0342593,0.104557,-0.0861933,-0.106529,-0.23486,-0.0114665,0.112847,-0.0960883,-0.313509
-0.0336979,0.106134,-0.083948,0.273012,0.317369,0.252113,0.136056,-0.0399852,-0.369778
-0.0246342,0.114534,-0.0749583,0.577481,0.627052,0.623498,0.142726,0.0089063,-0.270388
-0.0139844,0.127704,-0.0588592,0.765013,0.593872,0.921574,0.0964354,0.0132674,-0.106705
-0.0067334,0.144343,-0.0390668,0.920649,0.401244,0.990882,-0.0127153,-0.00152862,0.00306702
-0.00385845,0.163624,-0.0197577,1.01054,0.185141,0.898101,-0.0941393,-0.0114364,0.0766934
-0.00512529,0.18366,-0.00287637,0.99228,-0.0289913,0.755747,-0.120892,0.0253872,0.138503
-0.0106255,0.20223,0.011313,0.852098,-0.251954,0.634315,-0.132169,0.0737641,0.174787
-0.0207629,0.216237,0.0230987,0.552385,-0.52189,0.491333,-0.133241,0.0997636,0.189163
-0.0353709,0.22391,0.0313253,0.260851,-0.74672,0.280077,-0.150669,0.103895,0.126176
-0.0517547,0.227231,0.034637,0.0997054,-0.801619,0.030363,-0.153456,0.110183,-0.0088526
-0.0666273,0.228465,0.0328242,0.0258544,-0.692187,-0.20603,-0.133638,0.119778,-0.112405
-0.0765852,0.229273,0.0266027,0.0182037,-0.442616,-0.393855,-0.112122,0.144491,-0.201142
-0.0803713,0.230809,0.0177175,0.0770505,-0.133384,-0.464308,-0.0635373,0.17655,-0.234251
-0.0774779,0.234362,0.0088577,0.213993,0.219372,-0.414714,-0.0064721,0.20581,-0.207791
-0.0686576,0.240154,0.00184558,0.301333,0.476617,-0.309912,0.0145566,0.230116,-0.0989801
-0.0566379,0.246898,-0.00320621,0.343284,0.585284,-0.238218,0.00436917,0.205716,0.0451162
-0.0439286,0.25433,-0.00783961,0.367746,0.549343,-0.259415,-0.0220123,0.166392,0.164317
-0.0326929,0.26125,-0.0134805,0.286329,0.427091,-0.314599,-0.0496446,0.142367,0.269278
-0.0240093,0.265571,-0.0207674,0.113642,0.246377,-0.410985,-0.0633062,0.118936,0.345432
-0.0181486,0.265842,-0.0306502,-0.119927,0.0790796,-0.556383,-0.0819772,0.0872152,0.36962
-0.0153067,0.261302,-0.044384,-0.349287,-0.152807,-0.767045,-0.0814048,0.0525586,0.356047
-0.0155846,0.252811,-0.0622538,-0.51109,-0.323166,-0.947498,-0.0692619,0.0361067,0.293108
-0.0176918,0.242022,-0.0830784,-0.59495,-0.378919,-1.046,-0.050467,0.0466116,0.192933
-0.019904,0.230699,-0.10487,-0.558582,-0.345675,-1.04615,-0.0113405,0.0563403,0.0907152
-0.0212361,0.221344,-0.126118,-0.417118,-0.269123,-1.00249,0.0206402,0.0563181,0.00747246
-0.0221633,0.214718,-0.146123,-0.3058,-0.27785,-0.937549,0.0510868,0.0486124,-0.0179849
-0.0248401,0.209203,-0.164466,-0.306459,-0.379464,-0.844445,0.0782816,0.0346914,-0.0183972
-0.0304514,0.202806,-0.181075,-0.378191,-0.539611,-0.779246,0.0655283,0.0301229,-0.043959
-0.039846,0.195293,-0.197381,-0.421058,-0.711842,-0.814335,0.0179906,0.00100014,-0.127332
-0.0510317,0.187509,-0.21554,-0.438667,-0.711939,-0.946745,-0.00405324,-0.0470324,-0.226907
-0.0585896,0.180001,-0.236704,-0.431718,-0.383523,-1.08413,-0.00908616,-0.0690162,-0.311408
-0.0573254,0.173136,-0.259564,-0.37173,0.103391,-1.10629,0.0114698,-0.0571288,-0.341642
-0.0486382,0.168258,-0.281371,-0.226666,0.336307,-1.01057,0.0521286,-0.0480193,-0.293288
-0.0486382,0.168258,-0.281371,-0.226666,0.336307,-1.01057,0.0521286,-0.0480193,-0.293288
-0.0389893,0.165906,-0.300825,-0.105011,0.287307,-0.91501,0.0740735,-0.0706631,-0.179321
-0.0318718,0.164687,-0.318941,-0.0945884,0.100195,-0.886109,0.0522483,-0.102079,-0.0888755
-0.0299537,0.162673,-0.337304,-0.173654,-0.223565,-0.936503,0.0171637,-0.120957,-0.0432926
-0.0345122,0.158518,-0.357275,-0.304717,-0.534768,-1.02859,-0.0239259,-0.111051,-0.0638612
-0.0428879,0.15254,-0.379036,-0.349841,-0.594048,-1.09872,-0.0639158,-0.0686623,-0.170708
-0.0494052,0.147556,-0.401722,-0.23025,-0.366134,-1.10893,-0.0726267,-0.0187806,-0.292439
-0.0498506,0.146388,-0.423428,0.0121091,-0.00843132,-1.02568,-0.0611004,0.0300818,-0.324867
-0.0449868,0.150122,-0.442541,0.267862,0.1683,-0.879164,-0.0465986,0.0681072,-0.23733
-0.039689,0.158271,-0.458359,0.479679,0.0865675,-0.722865,-0.0563831,0.100437,-0.0879682
-0.0377629,0.170145,-0.471614,0.64904,-0.123959,-0.649573,-0.0958325,0.126433,0.036295
-0.0407108,0.184624,-0.484017,0.752408,-0.384921,-0.640603,-0.119889,0.136565,0.137907
-0.0481621,0.200985,-0.496983,0.814651,-0.598163,-0.727222,-0.141455,0.162235,0.189336
-0.0571785,0.217406,-0.512612,0.71841,-0.585847,-0.896016,-0.174392,0.215453,0.217067
-0.0627885,0.230343,-0.532444,0.437307,-0.422776,-1.1316,-0.216147,0.275324,0.236898
-0.0636909,0.237143,-0.558072,0.0881792,-0.281103,-1.3963,-0.243157,0.303163,0.257899
-0.0618508,0.237562,-0.589253,-0.233713,-0.292533,-1.63173,-0.234618,0.322538,0.253748
-0.0606796,0.232345,-0.624865,-0.498093,-0.437034,-1.78953,-0.20826,0.33344,0.235727
-0.0626279,0.222438,-0.663064,-0.710006,-0.619057,-1.86907,-0.188024,0.342907,0.187989
-0.0678994,0.209392,-0.70274,-0.834639,-0.750442,-1.92557,-0.161479,0.325663,0.110395
-0.075075,0.194753,-0.743505,-0.911094,-0.770779,-1.95898,-0.151252,0.301205,0.034759
-0.0817862,0.179358,-0.785239,-0.945576,-0.664595,-2.03444,-0.143874,0.26313,-0.0333838
-0.0851968,0.164063,-0.8287,-0.939268,-0.419422,-2.12195,-0.126529,0.210203,-0.0746542
-0.0840895,0.149436,-0.873435,-0.888532,-0.17872,-2.15577,-0.0859519,0.175476,-0.0759792
-0.0801109,0.136073,-0.917531,-0.801641,-0.0679326,-2.08762,-0.0287466,0.148395,-0.0406957
-0.0755873,0.124359,-0.959667,-0.695107,-0.0391836,-2.00737,-0.00218569,0.108963,0.00462663
-0.0720832,0.114042,-1.00034,-0.648222,-0.0979613,-1.96302,0.00949551,0.0611827,0.0622438
-0.0707562,0.103794,-1.04026,-0.669563,-0.210202,-1.93929,0.0210919,0.0134891,0.113681
-0.0722834,0.0923908,-1.0801,-0.755624,-0.323732,-1.95578,0.0231759,-0.0196944,0.125322
-0.0757662,0.0792849,-1.12064,-0.845971,-0.357126,-1.98666,0.0295728,-0.0509862,0.085582
-0.0791518,0.065305,-1.16159,-0.858247,-0.258177,-1.98262,0.0497717,-0.0690951,0.0100488
-0.0806554,0.0514813,-1.20187,-0.851832,-0.14647,-1.91307,0.0717027,-0.0753725,-0.0374236
-0.0812571,0.0375335,-1.23994,-0.841263,-0.0906647,-1.76911,0.107966,-0.103329,-0.0666846
-0.0817031,0.0243829,-1.27486,-0.734526,-0.0797875,-1.61397,0.0916283,-0.126651,-0.123749
-0.083184,0.0142812,-1.30642,-0.524644,-0.144961,-1.45642,0.0651812,-0.154253,-0.168049
-0.0863747,0.00871156,-1.33422,-0.262187,-0.177915,-1.27945,0.0461335,-0.170305,-0.184231
-0.0892545,0.0079891,-1.35832,-0.0327021,-0.116933,-1.12812,0.0163488,-0.164893,-0.173598
-0.0905668,0.0104753,-1.37953,0.0621996,-0.0333948,-1.02441,-0.00160284,-0.152199,-0.108462
-0.0903577,0.0129859,-1.39918,0.00122991,0.0259381,-0.965487,-0.011503,-0.141479,-0.0256936
-0.0894838,0.0141527,-1.41768,-0.0380608,0.028667,-0.888626,0.00291458,-0.128273,0.00104147
-0.0888662,0.0153556,-1.43443,0.0210167,0.0261354,-0.803781,0.00647874,-0.0979568,-0.0291031
-0.0876283,0.0180141,-1.44984,0.107587,0.0688982,-0.757164,-0.0044169,-0.0873641,-0.0796363
-0.0859346,0.0218505,-1.46396,0.147256,0.0733845,-0.681045,0.0322959,-0.0768146,-0.0789554
-0.0838164,0.0262001,-1.47651,0.184605,0.103192,-0.614497,0.0286817,-0.06502,-0.0991284
-0.081427,0.0312357,-1.48798,0.232316,0.111527,-0.585627,0.017714,-0.0615428,-0.123215
-0.0781089,0.0375926,-1.4993,0.317381,0.194533,-0.602127,0.0172445,-0.0687853,-0.151123
-0.0717091,0.045869,-1.51068,0.43242,0.414652,-0.589292,0.0218288,-0.057678,-0.168261
-0.0608927,0.0563902,-1.52123,0.546322,0.590961,-0.531802,0.0233286,-0.0266017,-0.139381
-0.0483308,0.0685042,-1.53035,0.596487,0.578373,-0.446611,0.023388,-0.000183418,-0.0583658
-0.0377171,0.0804793,-1.53821,0.561837,0.423956,-0.395333,0.0131417,0.00966792,0.016196
-0.0302862,0.0912598,-1.54559,0.492674,0.269807,-0.385878,-0.00828124,0.0116196,0.0310876
-0.0244687,0.100771,-1.55325,0.446555,0.270416,-0.409494,-0.0362809,0.0157922,-0.00488263
-0.0172434,0.109443,-1.56165,0.403762,0.366831,-0.444638,-0.0546378,0.0271173,-0.0382504
-0.00814095,0.117127,-1.57034,0.360995,0.433413,-0.421001,-0.0534077,0.0428547,-0.0381345
0.000969204,0.124184,-1.57814,0.348167,0.368764,-0.353938,-0.0473331,0.0592592,-0.0228686
0.000969204,0.124184,-1.57814,0.348167,0.368764,-0.353938,-0.0473331,0.0592592,-0.0228686
0.00790955,0.130981,-1.58474,0.338699,0.243422,-0.303936,-0.0591417,0.0619418,-0.0133575
0.0128744,0.137574,-1.59077,0.332275,0.187202,-0.297129,-0.0708273,0.0482887,-0.0194029
0.0175054,0.144166,-1.59681,0.340889,0.203298,-0.285492,-0.0667003,0.0440726,-0.029126
0.0227585,0.151108,-1.60209,0.376333,0.244102,-0.211832,-0.045721,0.0568751,-0.0200434
0.0280591,0.159323,-1.60531,0.457281,0.225252,-0.0847312,-0.0246482,0.0749554,0.00400561
0.0318528,0.169126,-1.60621,0.519173,0.135608,0.0180224,-0.0274103,0.0877543,0.0546445
0.0337459,0.17987,-1.60564,0.550843,0.0891379,0.0626981,-0.0411602,0.077721,0.0900725
0.0340446,0.190646,-1.60492,0.51911,-0.0344229,0.0455025,-0.0642897,0.0793249,0.124273
0.0322534,0.200053,-1.60451,0.413148,-0.155437,0.0180734,-0.0704687,0.0791995,0.152901
0.0277589,0.206795,-1.60493,0.257884,-0.30838,-0.0466586,-0.0857424,0.0897694,0.168228
0.0205132,0.210205,-1.60694,0.0915369,-0.460575,-0.149869,-0.0964609,0.0942954,0.139602
0.0110898,0.210636,-1.61129,-0.0383391,-0.568168,-0.279867,-0.103648,0.0957095,0.0831388
0.000636242,0.208553,-1.61854,-0.16693,-0.615911,-0.442661,-0.121518,0.103757,0.0109395
-0.00907763,0.204257,-1.62944,-0.265886,-0.566272,-0.626803,-0.120536,0.10494,-0.073105
-0.0164344,0.198764,-1.64364,-0.286898,-0.415833,-0.742384,-0.0701782,0.107385,-0.130859
-0.0186267,0.194195,-1.65865,-0.177898,-0.0887615,-0.701656,-0.0080916,0.132582,-0.177139
-0.015052,0.192429,-1.67152,-0.0277603,0.157425,-0.554069,0.0339387,0.160451,-0.133971
-0.00990733,0.192746,-1.68117,0.0312161,0.138768,-0.4049,0.05785,0.142879,0.00183475
-0.00712302,0.193463,-1.6887,0.0295494,-0.00462912,-0.357217,0.0366075,0.0969217,0.116375
-0.00722541,0.193474,-1.69674,-0.0420313,-0.147801,-0.444106,-0.00507062,0.0526517,0.174783
-0.00907147,0.191355,-1.70729,-0.19104,-0.240585,-0.598933,-0.026525,0.013248,0.198626
-0.0119076,0.185969,-1.72121,-0.362245,-0.292235,-0.768429,-0.0371565,0.00061807,0.195365
-0.0147894,0.177681,-1.73833,-0.48092,-0.299929,-0.896215,-0.0167702,-0.00773096,0.153246
-0.0172069,0.167906,-1.75697,-0.509313,-0.248921,-0.913785,0.026272,-0.0028494,0.0946624
-0.0183559,0.15853,-1.77506,-0.453689,-0.157693,-0.857546,0.0529454,0.00814769,0.0356186
-0.0182556,0.150772,-1.79209,-0.355769,-0.103321,-0.828062,0.0532648,-0.0032718,0.00905961
-0.0174871,0.144697,-1.80922,-0.290557,-0.0650586,-0.864784,0.043274,-0.0328552,0.0124086
-0.0154193,0.139366,-1.82714,-0.281309,0.017743,-0.897239,0.0460768,-0.0471653,0.0277079
-0.0119444,0.1337,-1.84532,-0.31251,0.0752883,-0.892763,0.0528075,-0.0433638,0.0482709
-0.00836751,0.127704,-1.86295,-0.296994,0.0450903,-0.85358,0.0712114,-0.0603874,0.0523233
-0.00621395,0.122395,-1.87967,-0.25122,-0.0408142,-0.810175,0.0679046,-0.069668,0.0443494
-0.00629883,0.117486,-1.89566,-0.263219,-0.164593,-0.783478,0.0608819,-0.0783101,0.0448141
-0.00873268,0.11171,-1.91144,-0.328206,-0.245334,-0.790183,0.0447348,-0.0922422,0.0231175
-0.0121548,0.104706,-1.92756,-0.387745,-0.279465,-0.807716,0.0376618,-0.106331,-0.029659
-0.0165922,0.096753,-1.94395,-0.421513,-0.327204,-0.815978,0.0251657,-0.108537,-0.0922925
-0.0222978,0.0886782,-1.96027,-0.401564,-0.376991,-0.792493,0.0329354,-0.121551,-0.159466
-0.0279428,0.0823353,-1.9758,-0.26712,-0.297095,-0.742108,0.0373813,-0.129168,-0.25483
-0.0313657,0.079141,-1.98995,-0.102178,-0.177168,-0.661124,0.0359469,-0.132901,-0.310002
-0.0334719,0.0784976,-2.00249,-0.0196955,-0.15368,-0.593607,0.0302956,-0.137785,-0.28533
-0.0362197,0.0783682,-2.01422,-0.040247,-0.217261,-0.59079,-0.000459373,-0.149983,-0.243057
-0.0403991,0.0776351,-2.02666,-0.0836914,-0.305057,-0.659015,-0.0391554,-0.165683,-0.238597
-0.0463687,0.0761426,-2.04084,-0.124649,-0.390196,-0.746347,-0.064332,-0.155773,-0.254885
-0.0528245,0.0743075,-2.05651,-0.127282,-0.343606,-0.803737,-0.0620155,-0.125819,-0.285355
-0.0566276,0.0732813,-2.07278,-0.0519361,-0.142678,-0.805478,-0.0381132,-0.0975759,-0.318812
-0.0563452,0.0746227,-2.08801,0.12341,0.0522932,-0.698765,-0.00110747,-0.0626383,-0.303529
-0.0529389,0.080691,-2.0995,0.440356,0.185031,-0.471253,0.0493852,-0.0296565,-0.249294
-0.0484193,0.0930346,-2.10573,0.753204,0.201178,-0.216543,0.0315438,0.0271199,-0.141295
-0.0446306,0.110825,-2.10721,1.01982,0.157886,-0.0354075,-0.0140074,0.0507685,-0.0212389
-0.0423547,0.13338,-2.10607,1.23174,0.0664062,0.0309748,-0.0830034,0.0808452,0.0815989
-0.042298,0.159135,-2.10441,1.33153,-0.0550997,0.00757586,-0.152234,0.114915,0.176881
-0.0455583,0.185314,-2.10454,1.26434,-0.28318,-0.154946,-0.229941,0.147268,0.262193
-0.052674,0.208603,-2.10964,1.01915,-0.549084,-0.489064,-0.32607,0.173783,0.301244
-0.0633262,0.226311,-2.12372,0.664592,-0.806547,-1.01912,-0.406088,0.195957,0.285551
-0.0750679,0.237352,-2.15042,0.257978,-0.994335,-1.65624,-0.4427,0.200965,0.227131
-0.0750679,0.237352,-2.15042,0.257978,-0.994335,-1.65624,-0.4427,0.200965,0.227131
-0.0869981,0.242197,-2.18953,-0.058661,-1.08147,-2.14617,-0.379591,0.253569,0.134622
-0.0949851,0.243126,-2.23685,-0.254957,-0.788504,-2.40623,-0.275516,0.337967,0.0198191
-0.0928935,0.241806,-2.28655,-0.307288,-0.190934,-2.36126,-0.157055,0.417618,-0.0557705
-0.0803915,0.240097,-2.33301,-0.24302,0.288109,-2.10841,-0.0500198,0.439594,-0.0390548
-0.0627507,0.239524,-2.37326,-0.0944097,0.479815,-1.80923,0.0143648,0.40112,0.0514024
-0.0445681,0.240865,-2.40841,0.037219,0.481212,-1.64361,-0.0207587,0.336718,0.16397
-0.0281061,0.243301,-2.44147,0.0591054,0.345196,-1.59931,-0.0376666,0.2558,0.276638
-0.0155534,0.243881,-2.47451,-0.101135,0.113565,-1.62171,-0.0233138,0.18773,0.385131
-0.00787417,0.239182,-2.5081,-0.422864,-0.146588,-1.64604,0.00209578,0.122254,0.446386
-0.00493922,0.227215,-2.54227,-0.790242,-0.337137,-1.68264,0.00259978,0.0593566,0.431927
-0.00497678,0.20877,-2.57725,-1.05176,-0.416787,-1.74736,-0.0217121,0.0102045,0.323764
-0.00642887,0.187027,-2.61388,-1.1293,-0.452702,-1.84445,-0.0476383,-0.045293,0.168271
-0.00883571,0.165383,-2.65204,-1.04282,-0.423449,-1.89624,-0.0256019,-0.0981872,0.0369913
-0.00895745,0.147298,-2.68999,-0.784411,-0.150077,-1.82915,0.0221813,-0.117028,-0.0874676
-0.00292756,0.134982,-2.72512,-0.476394,0.26099,-1.63997,0.0762194,-0.119593,-0.143027
0.00943398,0.127708,-2.75573,-0.269394,0.534048,-1.40593,0.116482,-0.137195,-0.0974517
0.0234325,0.122391,-2.78211,-0.240962,0.490654,-1.24319,0.13005,-0.198776,0.00149393
0.0331295,0.116908,-2.80575,-0.226332,0.156171,-1.12705,0.123994,-0.258434,0.0262136
0.0340334,0.112856,-2.82706,-0.0896517,-0.301277,-1.01078,0.12778,-0.284723,-0.049814
0.0267835,0.111674,-2.8466,-0.0062801,-0.628891,-0.955222,0.0982187,-0.271812,-0.162683
0.0146515,0.109992,-2.86614,-0.140835,-0.774366,-1.00325,0.0476781,-0.262574,-0.246064
0.0017476,0.105446,-2.88696,-0.282183,-0.716377,-1.07165,0.0216233,-0.240498,-0.364855
-0.00821345,0.0997701,-2.90824,-0.279924,-0.469234,-1.02739,0.0543304,-0.199498,-0.477709
-0.0119661,0.0954097,-2.92752,-0.166708,-0.077447,-0.876559,0.0705509,-0.160335,-0.535747
-0.00737193,0.0939397,-2.94309,0.0148081,0.404624,-0.675668,0.0595092,-0.122431,-0.53709
0.00583138,0.0966649,-2.9547,0.260355,0.768531,-0.484303,0.0675296,-0.0961582,-0.469529
0.0229688,0.103708,-2.96249,0.43113,0.829621,-0.277364,0.114867,-0.0850911,-0.287435
0.0389341,0.113027,-2.96577,0.504593,0.709239,-0.0188162,0.139943,-0.0550907,-0.108467
0.0506552,0.123866,-2.96411,0.579625,0.479338,0.229508,0.154878,-0.0427869,0.00655329
0.0568056,0.136546,-2.95803,0.657307,0.218218,0.439176,0.140409,-0.0100725,0.080006
0.058304,0.151121,-2.9479,0.746288,0.0908151,0.639913,0.119365,0.0307341,0.11116
0.0578691,0.167511,-2.93438,0.81447,0.0954721,0.78353,0.10406,0.0606806,0.134834
0.057295,0.184814,-2.9181,0.814883,0.12615,0.929773,0.105302,0.0786152,0.167179
0.0550429,0.201643,-2.89851,0.752446,-0.0147514,1.09693,0.105279,0.100395,0.20613
0.0462516,0.216378,-2.87511,0.591584,-0.413024,1.25495,0.0877929,0.124896,0.233602
0.0281859,0.227247,-2.84916,0.3969,-0.801535,1.3041,0.049523,0.121124,0.20663
0.00426524,0.23371,-2.8236,0.223347,-0.982106,1.17923,-0.0339954,0.118918,0.0917777
-0.0204212,0.237018,-2.80196,0.130422,-0.9441,0.915477,-0.078082,0.0928527,-0.0447923
-0.0405605,0.238517,-2.78598,0.0744868,-0.663428,0.654767,-0.0611845,0.0805003,-0.14146
-0.0527492,0.239502,-2.77397,0.0887518,-0.261799,0.53379,0.00150667,0.109259,-0.187534
-0.0569516,0.241271,-2.76274,0.153491,0.0745809,0.571503,0.0652666,0.149063,-0.168189
-0.0572336,0.2443,-2.74973,0.220992,0.165781,0.674812,0.104881,0.165813,-0.0832534
-0.0580897,0.248331,-2.73511,0.256577,0.102698,0.711421,0.104723,0.146086,0.0167918
-0.0604411,0.252857,-2.72039,0.272558,0.0554626,0.678017,0.088818,0.116321,0.0830414
-0.0627238,0.257074,-2.70685,0.221486,0.0651009,0.60337,0.0708157,0.0993906,0.133205
-0.0639582,0.259811,-2.69517,0.121904,0.106031,0.51375,0.0599385,0.0832373,0.175019
-0.0641564,0.260875,-2.68535,0.0486953,0.113725,0.429366,0.0466233,0.0729592,0.197774
-0.0642721,0.261058,-2.67732,0.0320363,0.0836243,0.351428,0.0304355,0.0718384,0.200665
-0.0650874,0.261409,-2.67061,0.0468865,0.00367267,0.293789,0.0217246,0.0725439,0.192314
-0.0669895,0.262325,-2.66495,0.0834178,-0.0286003,0.257862,0.0312937,0.0673711,0.176087
-0.0686822,0.264026,-2.65943,0.119456,0.0209119,0.273464,0.0434992,0.0669993,0.152326
-0.0690212,0.266493,-2.65314,0.166046,0.109843,0.315911,0.0514105,0.0598283,0.138307
-0.0682537,0.269531,-2.64641,0.162947,0.133606,0.302084,0.0514257,0.0313403,0.151425
-0.0682537,0.269531,-2.64641,0.162947,0.133606,0.302084,0.0514257,0.0313403,0.151425
-0.0673392,0.271188,-2.64066,0.0204413,0.109023,0.236633,0.0384315,-0.00221995,0.180554
-0.0666535,0.269032,-2.63724,-0.229202,0.0390301,0.0981995,0.000182472,-0.0247289,0.179768
-0.0671723,0.261476,-2.63777,-0.530219,-0.114416,-0.104296,-0.0256901,-0.0549089,0.135233
-0.0697024,0.24861,-2.64339,-0.79016,-0.285526,-0.355425,-0.0506592,-0.106986,0.0175763
-0.074171,0.231333,-2.65438,-1.01142,-0.412065,-0.573495,-0.0616295,-0.121265,-0.127902
-0.0791524,0.21117,-2.66897,-1.08128,-0.383586,-0.665873,-0.0519744,-0.0942901,-0.28292
-0.0818994,0.192138,-2.68382,-0.90634,-0.164888,-0.608637,-0.00864097,-0.0652066,-0.429498
-0.0804434,0.177843,-2.69543,-0.621608,0.0809342,-0.40325,0.0391876,-0.0264469,-0.470921
-0.077137,0.167779,-2.70183,-0.468102,0.0993012,-0.151083,0.0640613,-0.005813,-0.362768
-0.0760949,0.158739,-2.70337,-0.456003,-0.0217726,0.0505309,0.0524675,-0.0122153,-0.228092
-0.0781731,0.14937,-2.70206,-0.467887,-0.17433,0.136144,0.0174248,-0.0383186,-0.178813
-0.0835089,0.1399,-2.6996,-0.454224,-0.30803,0.182754,0.00479245,-0.0584624,-0.159705
-0.0907127,0.131043,-2.69587,-0.388834,-0.342579,0.275289,0.00019677,-0.0448385,-0.177384
-0.0976528,0.124055,-2.68949,-0.233608,-0.248637,0.427133,-0.0059737,-0.017422,-0.213325
-0.10205,0.121169,-2.67972,0.0691553,-0.0623165,0.563227,-0.0316255,-0.00849158,-0.243743
-0.102799,0.125377,-2.66704,0.47933,0.137736,0.639106,-0.0743042,0.00143759,-0.228892
-0.100173,0.137003,-2.65268,0.804064,0.304464,0.651959,-0.127632,0.0366144,-0.121056
-0.0952566,0.153638,-2.63831,0.976528,0.373869,0.588303,-0.173311,0.0635723,0.0281133
-0.0899125,0.172732,-2.62599,1.0279,0.344111,0.44241,-0.225311,0.0885771,0.155029
-0.0871376,0.192043,-2.61706,0.970801,0.0630118,0.275294,-0.259436,0.127373,0.264818
-0.0921862,0.210102,-2.61147,0.877579,-0.477321,0.101768,-0.263667,0.150287,0.329921
-0.107139,0.226375,-2.60999,0.739227,-0.965691,-0.128838,-0.266064,0.161092,0.3307
-0.128339,0.239088,-2.61389,0.459069,-1.19034,-0.404494,-0.264722,0.182434,0.306689
-0.148147,0.246396,-2.62456,0.122408,-0.991625,-0.729166,-0.252467,0.181197,0.229805
-0.15876,0.248276,-2.64261,-0.203302,-0.47585,-1.0192,-0.216215,0.187918,0.154932
-0.155604,0.244873,-2.66627,-0.486645,0.191731,-1.18932,-0.171866,0.187288,0.113934
-0.140229,0.237169,-2.6927,-0.62629,0.666759,-1.21218,-0.127784,0.168347,0.1178
-0.119946,0.228605,-2.71854,-0.526218,0.727934,-1.18466,-0.102784,0.137416,0.135015
-0.10152,0.222367,-2.74334,-0.376866,0.538265,-1.14531,-0.0763206,0.0923503,0.184086
-0.0889984,0.21795,-2.76618,-0.285091,0.206335,-1.03594,-0.0524124,0.0656394,0.23908
-0.0834581,0.214436,-2.78671,-0.257258,-0.0692566,-0.945652,-0.0420679,0.0433478,0.266191
-0.0817865,0.210009,-2.80631,-0.363955,-0.140282,-0.948865,-0.056269,0.0101347,0.271818
-0.0794684,0.202645,-2.82708,-0.533395,-0.0344144,-1.03364,-0.0777114,-0.0357237,0.243384
-0.074055,0.192653,-2.85005,-0.622447,0.128626,-1.13809,-0.0731639,-0.0721325,0.187672
-0.0655707,0.182017,-2.87423,-0.586482,0.262537,-1.14351,-0.0364192,-0.0884568,0.136992
-0.0557594,0.172803,-2.89684,-0.459113,0.29613,-1.01298,0.00887996,-0.0831213,0.10856
-0.0474896,0.166562,-2.91563,-0.253518,0.196239,-0.805605,0.0560616,-0.0965669,0.090365
-0.0430621,0.164212,-2.92978,-0.0520127,0.00451648,-0.570207,0.0820205,-0.112098,0.0562658
-0.0433329,0.165084,-2.93859,0.0897782,-0.168053,-0.305947,0.0943051,-0.1149,0.0134937
-0.0477544,0.167819,-2.94271,0.157223,-0.349057,-0.136645,0.0393294,-0.114645,-0.0693566
-0.056264,0.171098,-2.94515,0.143472,-0.542915,-0.151385,-0.0367346,-0.157205,-0.178194
-0.0677382,0.17314,-2.94968,0.0171202,-0.650866,-0.32307,-0.0979069,-0.187693,-0.284224
-0.0792241,0.171749,-2.95866,-0.229387,-0.643705,-0.560192,-0.13354,-0.19027,-0.373974
-0.088891,0.165977,-2.97259,-0.453963,-0.555342,-0.748496,-0.133515,-0.166525,-0.463636
-0.0959971,0.157186,-2.98969,-0.553253,-0.413277,-0.84057,-0.123533,-0.105942,-0.563323
-0.0993648,0.148697,-3.00812,-0.440514,-0.182473,-0.883496,-0.0959241,-0.0676403,-0.64337
-0.0965355,0.144015,-3.02579,-0.171088,0.220282,-0.804284,-0.0578562,-0.0292571,-0.662818
-0.0857813,0.14605,-3.04071,0.255323,0.633558,-0.679,-0.0142351,0.0103688,-0.598482
-0.0686473,0.156461,-3.05192,0.680676,0.899834,-0.501817,0.0368718,0.0436259,-0.406601
-0.0479669,0.173427,-3.05879,0.952181,1.04606,-0.274433,0.0539889,0.0937018,-0.14594
-0.0264226,0.193697,-3.0615,1.04071,1.03465,-0.0803629,0.0356911,0.136977,0.103927
-0.00771377,0.213787,-3.06135,0.951871,0.806244,0.0456669,0.00549341,0.142613,0.303469
0.00377778,0.230603,-3.05982,0.718615,0.333181,0.0908226,-0.00949137,0.124988,0.433376
0.00361485,0.242391,-3.05834,0.459595,-0.303967,0.0513571,-0.0111386,0.102848,0.478817
0.00361485,0.242391,-3.05834,0.459595,-0.303967,0.0513571,-0.0111386,0.102848,0.478817
-0.00745354,0.248778,-3.0577,0.180088,-0.736469,0.0171939,-0.00771434,0.101506,0.438364
-0.0240864,0.24949,-3.05766,-0.105494,-0.90495,-0.0181361,-0.0125197,0.135643,0.33834
-0.0423459,0.245061,-3.0588,-0.324886,-0.920693,-0.0711552,0.019935,0.130417,0.225952
-0.0586695,0.237609,-3.06114,-0.4189,-0.765611,-0.114869,0.0719115,0.102277,0.0954297
-0.0710834,0.229178,-3.06402,-0.434108,-0.53739,-0.0868429,0.128661,0.0982859,0.00262892
-0.0799701,0.220878,-3.06468,-0.385951,-0.374689,0.109248,0.218417,0.10167,-0.0479664
-0.0867699,0.214013,-3.0602,-0.259912,-0.205375,0.397925,0.264494,0.115108,-0.0888829
-0.0917263,0.209424,-3.04926,-0.0908497,-0.0761485,0.70609,0.272366,0.108318,-0.101019
-0.0962508,0.208724,-3.0325,0.184817,-0.0483952,0.912149,0.221107,0.0760019,-0.0953544
-0.101991,0.213075,-3.01258,0.420291,-0.113298,0.97146,0.166971,0.0234935,-0.0348806
-0.108924,0.22025,-2.99216,0.473895,-0.125219,0.933837,0.134571,-0.0149708,0.0580114
-0.115117,0.226868,-2.97292,0.386764,-0.0640171,0.855953,0.101147,-0.0317262,0.124253
-0.119589,0.231514,-2.95589,0.273825,-0.00801464,0.736206,0.0655226,-0.0518286,0.14952
-0.122818,0.234859,-2.94169,0.240349,0.0103652,0.596,0.0427153,-0.0820528,0.138027
-0.124918,0.238779,-2.93051,0.285855,0.0493469,0.436607,0.0244701,-0.100367,0.106055
-0.125231,0.244009,-2.92237,0.32073,0.10687,0.289486,0.0150029,-0.10658,0.0835513
-0.124652,0.249408,-2.91697,0.254778,0.0678547,0.169684,0.0247183,-0.0996818,0.101738
-0.124534,0.252228,-2.91408,0.0441358,0.0281443,0.0727161,0.0176366,-0.0812331,0.104307
-0.124748,0.250499,-2.91385,-0.209455,-0.0749284,-0.0290449,-0.00427567,-0.0811226,0.0618006
-0.127868,0.244675,-2.91631,-0.381782,-0.287911,-0.134029,-0.0350611,-0.0818098,-0.0370638
-0.133581,0.237094,-2.92111,-0.420805,-0.388653,-0.236124,-0.0555242,-0.10263,-0.193053
-0.138942,0.230252,-2.9281,-0.345854,-0.264334,-0.338307,-0.0829025,-0.101794,-0.329277
-0.138597,0.225661,-2.93618,-0.210603,0.13174,-0.366275,-0.0887073,-0.0833326,-0.420488
-0.130768,0.223799,-2.94357,-0.0892901,0.453977,-0.311242,-0.0748059,-0.0578955,-0.412307
-0.119519,0.223104,-2.94899,-0.0593801,0.520328,-0.209433,-0.0657424,-0.0446115,-0.30849
-0.108981,0.222495,-2.95289,-0.0394158,0.439741,-0.181622,-0.111354,-0.0462275,-0.228923
-0.100549,0.22268,-2.9573,0.0148735,0.307647,-0.268801,-0.17012,-0.0550341,-0.205032
-0.0943634,0.224368,-2.96389,0.0852602,0.165793,-0.393257,-0.199337,-0.0418985,-0.188445
-0.0894348,0.227334,-2.97271,0.136822,0.13828,-0.472454,-0.191669,0.0118192,-0.158972
-0.0843624,0.232019,-2.98198,0.272585,0.172728,-0.452554,-0.154965,0.0798571,-0.131377
-0.0791361,0.240381,-2.9895,0.510935,0.177796,-0.330409,-0.113725,0.140767,-0.0924307
-0.0751396,0.253207,-2.99343,0.732971,0.115085,-0.145705,-0.101717,0.199225,-0.0123551
-0.0737125,0.269199,-2.99401,0.844337,0.00456214,-0.0530195,-0.139624,0.231398,0.0871906
-0.0750116,0.285828,-2.99478,0.785712,-0.142179,-0.171761,-0.20558,0.232407,0.187169
-0.0773594,0.299843,-2.99985,0.553588,-0.226119,-0.438394,-0.258136,0.23403,0.256649
-0.0778751,0.308439,-3.01171,0.21128,-0.169614,-0.761028,-0.256304,0.232054,0.302063
-0.0751145,0.310319,-3.03093,-0.157578,-0.157449,-1.06815,-0.208112,0.223331,0.325726
-0.071173,0.305968,-3.05532,-0.419135,-0.224464,-1.19735,-0.116028,0.226799,0.298157
-0.0690449,0.298364,-3.08077,-0.488861,-0.307989,-1.15859,-0.0306003,0.242627,0.221333
-0.0690817,0.29026,-3.10406,-0.466393,-0.368791,-1.0062,0.0187303,0.251915,0.142377
-0.0710776,0.283341,-3.12377,-0.341384,-0.358597,-0.85374,0.0495246,0.213586,0.0786132
-0.0719621,0.279155,-3.14148,-0.217145,-0.212748,-0.837115,0.0409641,0.151276,0.0430751
-0.0690372,0.276036,3.12383,-0.239861,0.0343815,-0.861747,0.0377912,0.102943,0.0760013
-0.0608608,0.271648,3.10567,-0.31325,0.286365,-0.851363,0.0504599,0.0658502,0.123793
-0.0489129,0.26592,3.08814,-0.341148,0.416138,-0.802259,0.0602821,0.0418807,0.165205
-0.0364755,0.260047,3.0721,-0.311734,0.395208,-0.719834,0.0723964,0.0023959,0.194388
-0.0263556,0.254676,3.05821,-0.264106,0.2595,-0.606074,0.0823415,-0.0344607,0.211672
-0.019634,0.250308,3.04666,-0.202222,0.132762,-0.509156,0.0723656,-0.0673301,0.189871
-0.0155291,0.246837,3.03691,-0.173168,0.0519686,-0.436544,0.0589879,-0.0989995,0.159316
-0.0125969,0.243202,3.0285,-0.211751,0.0489865,-0.378802,0.0645024,-0.129351,0.123159
-0.00867555,0.23849,3.02112,-0.264538,0.178798,-0.333997,0.0637735,-0.156922,0.0616708
-0.00179929,0.232933,3.01436,-0.295272,0.330876,-0.324061,0.0613515,-0.18999,-0.00282288
0.00592658,0.226069,3.00787,-0.407136,0.253831,-0.297862,0.07711,-0.202441,-0.0251417
0.00980443,0.217007,3.00264,-0.472846,-0.0134282,-0.227636,0.0892263,-0.201868,-0.0867941
0.00980443,0.217007,3.00264,-0.472846,-0.0134282,-0.227636,0.0892263,-0.201868,-0.0867941
0.00727636,0.208704,2.99812,-0.339539,-0.33584,-0.237641,0.0299299,-0.195502,-0.238278
-0.000379862,0.20325,2.99258,-0.229908,-0.494767,-0.31039,0.0142423,-0.197911,-0.355378
-0.00729223,0.198739,2.98575,-0.243111,-0.260669,-0.352545,0.0434187,-0.180191,-0.424541
-0.00561146,0.193795,2.97875,-0.245411,0.314651,-0.31653,0.0628947,-0.135373,-0.477841
0.00656152,0.189822,2.97384,-0.136467,0.746385,-0.152071,0.100002,-0.0966554,-0.470635
0.0219468,0.188847,2.973,0.0399394,0.710168,0.0709317,0.13674,-0.0790271,-0.367854
0.0328574,0.191216,2.97638,0.178433,0.435618,0.259496,0.123295,-0.0697125,-0.253879
0.0382809,0.19608,2.98251,0.289308,0.275158,0.346247,0.0871261,-0.0702042,-0.186476
0.0430403,0.203291,2.98961,0.409467,0.35942,0.387844,0.0616646,-0.0675609,-0.146149
0.0498155,0.213253,2.99796,0.545321,0.49621,0.489376,0.060052,-0.024672,-0.0674288
0.0585165,0.225552,3.00876,0.621461,0.607946,0.638438,0.0683644,0.0239981,0.0497239
0.0685293,0.239001,3.02239,0.626611,0.705415,0.763606,0.0527792,0.0580216,0.15832
0.0786417,0.251953,3.03781,0.54908,0.658457,0.821349,0.0259705,0.0739111,0.25352
0.0855239,0.262991,3.05437,0.415482,0.427011,0.86613,0.032126,0.0777802,0.317922
0.0856409,0.271349,3.07231,0.27216,0.0349693,0.937076,0.0444855,0.0848495,0.333354
0.0765388,0.277039,3.09205,0.139737,-0.403219,1.01249,0.0600574,0.0923259,0.294075
0.0585091,0.279762,3.1139,-0.00702912,-0.768778,1.10357,0.0722767,0.109089,0.215366
0.0352715,0.279432,3.13722,-0.126241,-0.899207,1.11774,0.0499812,0.115684,0.077329
0.0108041,0.27656,-3.12377,-0.203092,-0.903177,1.00428,0.0273111,0.0927959,-0.045853
-0.0103875,0.272156,-3.1048,-0.22701,-0.666164,0.833007,0.0224409,0.068766,-0.165398
-0.0238398,0.268088,-3.08853,-0.129968,-0.228426,0.774005,0.065024,0.0777085,-0.243606
-0.0284416,0.267099,-3.0715,0.0856634,0.196434,0.901567,0.120661,0.118655,-0.23992
-0.0277528,0.270474,-3.05064,0.299826,0.375267,1.10135,0.142021,0.140342,-0.126204
-0.0271291,0.277194,-3.02633,0.427384,0.33494,1.20181,0.0969369,0.121711,0.0343186
-0.0281687,0.285767,-3.00161,0.477,0.24235,1.12434,0.0287317,0.0732298,0.148289
-0.0310906,0.294051,-2.97989,0.395624,0.0959595,0.928757,-0.0214571,0.0333464,0.25198
-0.0358045,0.300027,-2.96264,0.251996,-0.0555411,0.701772,-0.0394564,0.0100693,0.303212
-0.0417307,0.303197,-2.94962,0.122978,-0.143308,0.543371,-0.0217383,0.00168243,0.296238
-0.0477681,0.304824,-2.93931,0.104863,-0.124964,0.444981,-0.0124043,0.00799599,0.223258
-0.0524647,0.307196,-2.93057,0.173678,-0.0985803,0.383705,0.00359891,-0.005795,0.149368
-0.0571839,0.310396,-2.92274,0.168801,-0.140463,0.344675,0.0314266,-0.0181569,0.131198
-0.0623357,0.312409,-2.91623,0.0642845,-0.170852,0.254863,0.0137935,-0.0336823,0.110972
-0.067508,0.312001,-2.9126,-0.0769156,-0.244576,0.0949246,-0.0119261,-0.0559662,0.0647418
-0.0738896,0.308901,-2.91247,-0.244604,-0.414384,-0.0495039,-0.0213619,-0.0568126,0.00773174
-0.0832216,0.302441,-2.91506,-0.404016,-0.581077,-0.141707,-0.0351035,-0.0469672,-0.0812536
-0.0937713,0.294142,-2.91982,-0.453247,-0.577173,-0.241998,-0.0667291,-0.0482924,-0.223499
-0.101564,0.285476,-2.92709,-0.479687,-0.376805,-0.360654,-0.094792,-0.0322285,-0.328574
-0.103181,0.276362,-2.93574,-0.500353,-0.00658111,-0.370057,-0.0775616,-0.0194247,-0.371416
-0.0967134,0.267582,-2.94351,-0.452134,0.384184,-0.274126,-0.0709972,0.0163843,-0.383005
-0.0876687,0.25926,-2.94879,-0.43649,0.321405,-0.168327,-0.0382945,0.0202511,-0.286766
-0.0828938,0.250611,-2.9529,-0.466241,0.0569499,-0.172652,-0.0743896,0.0127661,-0.206898
-0.082223,0.241939,-2.95789,-0.412219,-0.0645903,-0.239594,-0.099766,0.00641629,-0.216563
-0.0807625,0.236495,-2.96374,-0.155885,0.103328,-0.266565,-0.077714,0.0168744,-0.270399
-0.0745099,0.236623,-2.96845,0.111608,0.433396,-0.174306,-0.0506192,0.0851288,-0.234404
-0.0626085,0.240664,-2.96958,0.274757,0.682039,0.0412758,-0.030712,0.146017,-0.101188
-0.0494436,0.247605,-2.96666,0.43466,0.659744,0.175763,-0.0740016,0.158489,0.0268349
-0.0401788,0.257859,-2.9627,0.601472,0.336327,0.134088,-0.156625,0.1379,0.109865
-0.0381082,0.270248,-2.96115,0.607603,-0.0818577,-0.0398661,-0.232571,0.148166,0.169761
-0.0419351,0.280703,-2.96379,0.409108,-0.338331,-0.266862,-0.297822,0.189476,0.190073
-0.0471396,0.286948,-2.9724,0.186605,-0.409425,-0.600374,-0.352311,0.199866,0.142968
-0.0506967,0.289995,-2.98856,0.0600217,-0.396985,-0.962006,-0.344812,0.177,0.0851574
-0.050754,0.291603,-3.01156,-0.0229698,-0.250052,-1.22769,-0.25979,0.167752,0.0625386
-0.0458193,0.290661,-3.03837,-0.212834,-0.0178095,-1.31167,-0.156481,0.192714,0.102267
-0.0371833,0.285335,-3.06548,-0.407813,0.0675897,-1.25589,-0.0726047,0.186249,0.15292
-0.0371833,0.285335,-3.06548,-0.407813,0.0675897,-1.25589,-0.0726047,0.186249,0.15292
-0.0304979,0.277908,-3.09044,-0.380423,-0.120094,-1.11918,-0.00340695,0.138481,0.147784
-0.029288,0.272659,-3.11222,-0.200628,-0.341093,-0.977099,0.0258369,0.0878513,0.109587
-0.0312051,0.270635,-3.13164,-0.0803416,-0.329755,-0.910368,0.0123642,0.0485935,0.0854314
-0.0310061,0.269254,3.13268,-0.133419,-0.146515,-0.914472,-0.0157549,0.0147761,0.106237
-0.0275441,0.266259,3.11362,-0.208627,-0.0307053,-0.917061,-0.00481719,-0.0182026,0.142634
-0.0230077,0.262475,3.0949,-0.204755,-0.00535396,-0.870984,0.0197764,-0.0307198,0.153666
-0.0189732,0.259274,3.07779,-0.146325,-0.0438558,-0.781135,0.0206115,-0.0356744,0.14992
-0.0166853,0.257222,3.0622,-0.0960201,-0.122811,-0.737768,0.00633945,-0.0570061,0.149766
-0.0159802,0.255556,3.04726,-0.10148,-0.190607,-0.711373,-0.00802275,-0.0739374,0.15464
-0.0164703,0.253689,3.03288,-0.0985713,-0.202042,-0.680607,-0.0165283,-0.0738831,0.13374
-0.0162411,0.252381,3.01928,-0.0421857,-0.0894364,-0.629109,-0.00977155,-0.0726472,0.100349
-0.0137889,0.252701,3.00741,0.0608635,0.0302984,-0.514998,0.0134878,-0.0713146,0.0694669
-0.0101607,0.255104,2.99826,0.155054,0.076725,-0.378202,0.0286457,-0.0756572,0.0569579
-0.00793673,0.258424,2.9914,0.156861,-0.0407002,-0.299901,0.0121439,-0.0870181,0.0565768
-0.00882015,0.261139,2.98565,0.0989619,-0.193497,-0.262716,0.00554552,-0.112516,0.0226539
-0.0124287,0.262104,2.98044,-0.0125908,-0.268925,-0.254131,0.00184157,-0.112545,-0.0316948
-0.0151753,0.260586,2.97419,-0.163548,-0.18378,-0.377513,-0.035005,-0.145704,-0.11424
-0.016864,0.255602,2.96407,-0.35923,-0.263611,-0.602094,-0.0732995,-0.171366,-0.175586
-0.0201492,0.247015,2.94938,-0.509148,-0.424654,-0.792448,-0.0531872,-0.174053,-0.246569
-0.0254459,0.237359,2.93217,-0.466707,-0.47686,-0.847096,-0.00761891,-0.134416,-0.357866
-0.0287625,0.230399,2.91509,-0.271183,-0.219854,-0.781458,0.0364062,-0.0797393,-0.448046
-0.0268728,0.22724,2.90083,-0.089012,0.0662835,-0.577796,0.0783943,-0.0263892,-0.415434
-0.021821,0.22731,2.891,0.0443076,0.24808,-0.370795,0.0987727,0.00193849,-0.30835
-0.0139756,0.228597,2.88543,0.0767736,0.399849,-0.189261,0.0878303,0.0208921,-0.181841
-0.00430747,0.23126,2.88262,0.193964,0.493803,-0.0962707,0.0801357,0.0067461,-0.0798532
0.00677631,0.236133,2.88158,0.285039,0.590044,0.00105647,0.0856054,0.0158962,0.0300127
0.0184449,0.241938,2.88271,0.274241,0.579287,0.115309,0.0999522,0.0403965,0.146431
0.0275387,0.246556,2.88619,0.170033,0.394956,0.233378,0.101517,0.0531938,0.233856
0.0302751,0.248543,2.89213,0.000588357,-0.00236561,0.347664,0.103991,0.0526938,0.270296
0.0235741,0.246672,2.90059,-0.208082,-0.448604,0.469685,0.106872,0.0597753,0.247903
0.00866419,0.241715,2.91131,-0.274054,-0.754413,0.553897,0.0765792,0.0675542,0.110281
-0.0108542,0.236919,2.92265,-0.200573,-0.932594,0.540127,0.00603419,0.0853554,-0.0671149
-0.0320653,0.233602,2.93326,-0.115701,-0.907052,0.493769,-0.0282135,0.093437,-0.176175
-0.0500204,0.231361,2.94266,-0.0686881,-0.658769,0.443492,-0.033074,0.104745,-0.225967
-0.0614705,0.23038,2.95189,0.043958,-0.254984,0.482142,0.0226078,0.118149,-0.234024
-0.0646717,0.232465,2.96362,0.248482,0.195022,0.665609,0.0729895,0.152008,-0.197756
-0.0617736,0.238349,2.97988,0.426201,0.433464,0.872842,0.0787268,0.187072,-0.0715978
-0.0570823,0.246656,2.9996,0.51141,0.50799,0.973989,0.0521202,0.160148,0.0828246
-0.0526207,0.255832,3.02003,0.497134,0.427832,0.937104,0.0163234,0.129409,0.202763
-0.0505331,0.263879,3.03883,0.385121,0.25114,0.833149,0.0156211,0.096978,0.307735
-0.0522909,0.269131,3.05497,0.215503,-0.0121402,0.697712,0.033723,0.0703682,0.372398
-0.0583318,0.270785,3.06813,0.0162903,-0.226735,0.564884,0.0580054,0.0536823,0.394295
-0.0669952,0.268356,3.07845,-0.193348,-0.348608,0.447403,0.0783124,0.0517221,0.374872
-0.0764084,0.262664,3.08628,-0.295365,-0.371442,0.356277,0.114808,0.0421097,0.309884
-0.0850145,0.256342,3.09261,-0.280771,-0.327086,0.320024,0.151184,0.0485424,0.22442
-0.0927955,0.250085,3.09883,-0.297586,-0.291234,0.348613,0.171506,0.078511,0.181871
-0.0992633,0.243104,3.10604,-0.339571,-0.173856,0.412692,0.197337,0.0855039,0.130674
-0.103092,0.234416,3.11372,-0.484522,-0.0386094,0.408818,0.184003,0.0608427,0.0808589
-0.105716,0.221095,3.12052,-0.780556,-0.101839,0.386772,0.126831,0.0526115,0.0395927
-0.110457,0.202997,3.12582,-0.936996,-0.26495,0.307057,0.0709207,0.0112529,-0.0868051
-0.116941,0.184637,3.12881,-0.828529,-0.27799,0.196623,0.0168217,-0.0226632,-0.282897
-0.120496,0.169546,3.13046,-0.676436,-0.0265431,0.160801,0.00173656,-0.0416535,-0.41948
-0.117698,0.156027,3.1326,-0.665685,0.363456,0.218152,-0.00933568,-0.0310674,-0.43576
-0.106798,0.14148,3.13554,-0.76256,0.75291,0.217903,-0.0323331,-0.0570196,-0.404167
-0.106798,0.14148,3.13554,-0.76256,0.75291,0.217903,-0.0323331,-0.0570196,-0.404167
-0.0904349,0.124543,3.13725,-0.906668,0.858817,0.106796,-0.0755643,-0.113449,-0.35111
-0.0742929,0.106275,3.13668,-0.893384,0.725124,-0.00593991,-0.11107,-0.140492,-0.340828
-0.0622765,0.0902371,3.13488,-0.702921,0.458755,-0.0425707,-0.104216,-0.133091,-0.359194
-0.055052,0.0794105,3.13453,-0.346893,0.307522,0.0963967,-0.0515792,-0.10976,-0.381248
-0.0486811,0.07745,3.1387,0.180173,0.388636,0.341529,-0.0217049,-0.0778092,-0.397825
-0.0403985,0.0854752,-3.13462,0.645757,0.54567,0.608243,-0.0303776,-0.0335558,-0.30259
-0.0295744,0.100831,-3.11978,0.917062,0.655008,0.797199,-0.0864859,-0.0120564,-0.151083
-0.0184414,0.120092,-3.10264,1.03366,0.624056,0.84093,-0.176837,-0.004906,-0.00669986
-0.0102144,0.140748,-3.08663,1.05121,0.366421,0.689668,-0.259342,-0.0146234,0.098748
-0.00900477,0.160871,-3.07552,0.952118,-0.101603,0.375192,-0.322197,-0.00742444,0.161761
-0.0160669,0.177722,-3.07173,0.727097,-0.512328,-0.029388,-0.36172,0.00906311,0.184577
-0.027985,0.189665,-3.07647,0.467821,-0.748135,-0.454272,-0.390749,0.047981,0.145791
-0.0408626,0.197533,-3.08935,0.290404,-0.751262,-0.820863,-0.338117,0.0869067,0.0784137
-0.0502851,0.202848,-3.10854,0.169032,-0.546424,-1.05909,-0.240363,0.1266,0.0380884
-0.0529167,0.206782,-3.1309,0.11484,-0.165304,-1.13285,-0.144524,0.176106,0.0281233
-0.0482175,0.209852,3.12985,0.0819325,0.13783,-1.05617,-0.0639273,0.220018,0.0747949
-0.0406081,0.2125,3.11018,0.112386,0.173806,-0.880923,0.00489375,0.230588,0.148988
-0.0346427,0.216306,3.09374,0.211423,0.0632852,-0.757667,0.0283507,0.203118,0.213538
-0.0318773,0.221803,3.07913,0.276476,-0.117226,-0.7007,0.0266051,0.178409,0.274613
-0.0321615,0.227575,3.06519,0.243437,-0.208439,-0.686627,0.0310216,0.151336,0.331867
-0.0337888,0.231574,3.05117,0.0907944,-0.266195,-0.69635,0.0531747,0.135912,0.382373
-0.0361881,0.23132,3.03678,-0.173766,-0.296519,-0.708205,0.0695335,0.104217,0.414378
-0.0388847,0.225761,3.02176,-0.426838,-0.306835,-0.749537,0.073243,0.063478,0.39062
-0.0409458,0.21664,3.00525,-0.52461,-0.254774,-0.834864,0.0666804,0.00274587,0.292014
-0.0415021,0.206471,2.98711,-0.575332,-0.186585,-0.880086,0.0912529,-0.0293221,0.203336
-0.0412356,0.194972,2.96949,-0.649972,-0.148884,-0.783243,0.130195,-0.0356154,0.14506
-0.0411033,0.182374,2.95463,-0.65429,-0.118676,-0.616595,0.170095,-0.0581986,0.0611681
-0.0406746,0.170509,2.94321,-0.573421,-0.0346158,-0.465242,0.180409,-0.0912562,-0.0501524
-0.0394247,0.160441,2.93482,-0.466292,-0.0145733,-0.311237,0.184447,-0.131537,-0.143173
-0.0398796,0.152392,2.93009,-0.360844,-0.117577,-0.126444,0.174432,-0.13468,-0.208481
-0.0436824,0.145897,2.92856,-0.311369,-0.307694,-0.0290366,0.116966,-0.142142,-0.277208
-0.051378,0.139809,2.92732,-0.307881,-0.44409,-0.0819016,0.0534635,-0.174459,-0.351518
-0.0584504,0.133851,2.92402,-0.299829,-0.259078,-0.212754,0.0252255,-0.19774,-0.448778
-0.058273,0.1292,2.91872,-0.177155,0.243887,-0.260884,0.0314332,-0.178945,-0.521996
-0.0480944,0.127895,2.9144,0.0171288,0.667224,-0.128769,0.103118,-0.126115,-0.503394
-0.0335073,0.129376,2.91463,0.111498,0.736975,0.152177,0.172107,-0.0718816,-0.370029
-0.0210685,0.131929,2.92041,0.169111,0.559229,0.396194,0.177637,-0.0679462,-0.257705
-0.0131648,0.136046,2.92998,0.269865,0.368329,0.535496,0.144131,-0.0728386,-0.207126
-0.00836553,0.142382,2.94155,0.375617,0.302924,0.608183,0.113856,-0.0592553,-0.162147
-0.00340959,0.150741,2.95478,0.466186,0.394415,0.707749,0.102584,-0.0179201,-0.108773
0.00450882,0.161115,2.97069,0.572131,0.65545,0.875354,0.113637,0.0282322,-0.0396639
0.0164249,0.173657,2.99045,0.65663,0.847462,1.09451,0.123761,0.0758927,0.0572753
0.029329,0.187639,3.01461,0.679515,0.853027,1.32009,0.115355,0.110566,0.160858
0.0387529,0.201691,3.04328,0.628206,0.596572,1.53692,0.100149,0.122933,0.246633
0.0397418,0.214672,3.07541,0.541564,0.14242,1.65036,0.0748433,0.114135,0.284273
0.0298524,0.225096,3.10966,0.368143,-0.38058,1.73178,0.0636022,0.118983,0.28635
0.0108883,0.230994,-3.1377,0.141973,-0.663361,1.77262,0.027075,0.149524,0.237267
-0.0116695,0.231195,-3.10197,-0.113612,-0.758527,1.69589,-0.0323882,0.161071,0.138717
-0.0342137,0.226409,-3.06935,-0.280723,-0.740116,1.49241,-0.0691592,0.136482,0.0151682
-0.0540447,0.219198,-3.04093,-0.289157,-0.596585,1.3359,-0.0417871,0.116922,-0.0963522
-0.0691448,0.213405,-3.01404,-0.0928246,-0.325084,1.36681,0.0388817,0.14343,-0.173122
-0.0787585,0.212715,-2.98411,0.257812,-0.0054626,1.58594,0.115219,0.187341,-0.181666
-0.0840011,0.218517,-2.94835,0.581339,0.202876,1.85375,0.154142,0.209016,-0.100983
-0.0888504,0.228369,-2.90764,0.71955,0.223449,2.00303,0.151173,0.166804,0.0540417
-0.0888504,0.228369,-2.90764,0.71955,0.223449,2.00303,0.151173,0.166804,0.0540417
-0.0942944,0.239093,-2.86566,0.69899,0.201606,1.95019,0.0923461,0.114431,0.156568
-0.100649,0.247981,-2.82636,0.541177,0.112235,1.74743,0.0364165,0.0693456,0.229351
-0.107123,0.253329,-2.79279,0.324243,0.0802938,1.42034,-0.019816,0.0285367,0.243876
-0.112312,0.254795,-2.76737,0.0979626,0.0405288,1.01262,-0.0588851,-0.00979388,0.228357
-0.11635,0.253307,-2.75062,-0.0380947,-0.03328,0.643501,-0.0521219,-0.0284609,0.18098
-0.120094,0.251413,-2.73995,-0.0002437,-0.0433934,0.437228,-0.0131874,-0.0120459,0.091499
-0.121262,0.251817,-2.73149,0.14504,0.152613,0.386889,0.0101098,0.0254699,-0.00608802
-0.118082,0.254809,-2.72322,0.233554,0.37267,0.371127,-0.0159095,0.0511333,-0.0269577
-0.111364,0.258379,-2.71595,0.177095,0.460431,0.263741,-0.0833513,0.0398615,0.0069133
-0.10355,0.259769,-2.71274,-0.0285669,0.384804,0.0107859,-0.144396,-0.00121471,0.0482172
-0.095782,0.256781,-2.71644,-0.308396,0.324896,-0.353382,-0.216368,-0.0393206,0.0214492
-0.0860066,0.248766,-2.72852,-0.594316,0.378531,-0.737336,-0.265621,-0.0569689,-0.0341976
-0.0720423,0.236048,-2.74787,-0.815298,0.548061,-1.02532,-0.248681,-0.0828032,-0.0983523
-0.054636,0.219622,-2.77157,-0.956329,0.645629,-1.14955,-0.211916,-0.0653732,-0.136026
-0.0368172,0.201143,-2.79558,-0.986199,0.628197,-1.10619,-0.149236,-0.0520268,-0.166363
-0.0213064,0.182867,-2.8175,-0.890437,0.470335,-0.99466,-0.119752,-0.0520219,-0.198309
-0.0118221,0.167336,-2.83651,-0.68276,0.130967,-0.859117,-0.107347,-0.0466392,-0.214553
-0.0101219,0.155942,-2.85276,-0.501709,-0.207488,-0.744476,-0.0835375,-0.0364463,-0.211282
-0.0141973,0.146359,-2.86714,-0.496777,-0.377422,-0.679952,-0.0799186,-0.019416,-0.200305
-0.0194733,0.136599,-2.88053,-0.481494,-0.322162,-0.622682,-0.0461695,-0.0236149,-0.235013
-0.0232138,0.128892,-2.89148,-0.278051,-0.16935,-0.406018,0.0248197,0.0121717,-0.270144
-0.0234567,0.127658,-2.89552,0.173734,0.0979467,0.0265112,0.0757387,0.0748369,-0.289538
-0.0204718,0.136396,-2.89002,0.709618,0.228592,0.48034,0.0434431,0.131732,-0.212178
-0.019033,0.154307,-2.87752,1.06907,0.069592,0.672534,-0.0317466,0.100656,-0.0503603
-0.0225378,0.176242,-2.86427,1.09806,-0.225048,0.544379,-0.160232,0.069557,0.0995702
-0.0312964,0.195737,-2.85634,0.850423,-0.483415,0.152618,-0.277991,0.0434579,0.194475
-0.0423631,0.209455,-2.85833,0.5218,-0.650731,-0.404513,-0.333392,0.0234631,0.210085
-0.0528117,0.217931,-2.87184,0.27374,-0.656584,-0.940821,-0.303076,0.030495,0.170603
-0.0592957,0.222546,-2.89463,0.0670535,-0.465583,-1.2689,-0.193879,0.0848036,0.125709
-0.0600062,0.223811,-2.92165,-0.0772368,-0.214011,-1.34778,-0.0837527,0.157173,0.0889807
-0.057252,0.223605,-2.94842,-0.067986,-0.146833,-1.24241,0.0221658,0.193335,0.0620992
-0.0560657,0.22465,-2.97162,0.0530661,-0.250919,-1.02339,0.0827807,0.218767,0.0431646
-0.0569909,0.228038,-2.99034,0.1696,-0.241228,-0.844069,0.0737961,0.221444,0.029003
-0.056444,0.232586,-3.00733,0.178347,-0.0648785,-0.866453,0.0113922,0.176875,0.0315673
-0.0514093,0.236625,-3.02591,0.119695,0.12176,-0.963604,-0.0172907,0.124057,0.0796912
-0.0420938,0.238816,-3.04624,-0.00287435,0.339727,-1.01327,-0.00542336,0.107432,0.15307
-0.0287059,0.238151,-3.06693,-0.126353,0.491174,-0.990998,0.0108478,0.0989433,0.215699
-0.0142124,0.235565,-3.08673,-0.161969,0.485605,-0.934231,0.0233867,0.0744419,0.255304
-0.00103561,0.232786,-3.10507,-0.126989,0.371169,-0.855093,0.0303503,0.0480111,0.258137
0.00821105,0.230567,-3.12189,-0.0813038,0.188431,-0.784328,0.0333882,0.0153487,0.263574
0.0143581,0.229679,-3.13688,0.0172795,0.10492,-0.670764,0.0470241,-0.012798,0.22367
0.0196499,0.231059,3.13441,0.134209,0.17177,-0.48549,0.059792,-0.00985235,0.174668
0.0260913,0.233919,3.1262,0.149826,0.277608,-0.325276,0.0462317,-0.0177352,0.168586
0.0332588,0.235717,3.12022,0.0235635,0.289063,-0.273388,0.0388185,-0.0681264,0.182228
0.0395516,0.233777,3.11426,-0.194007,0.157703,-0.320019,0.017,-0.128561,0.146629
0.0401474,0.22807,3.10761,-0.327343,-0.282839,-0.336029,0.0279651,-0.162772,0.0529399
0.0305104,0.220778,3.101,-0.383626,-0.821561,-0.354494,0.0210313,-0.160695,-0.103493
0.0126288,0.211677,3.0926,-0.526742,-1.08668,-0.509975,-0.0696281,-0.150435,-0.296324
-0.00454983,0.199589,3.07994,-0.665286,-0.818853,-0.73544,-0.10342,-0.17301,-0.500697
-0.0118085,0.186007,3.06352,-0.692506,-0.180811,-0.828803,-0.059242,-0.150513,-0.633071
-0.0055521,0.173574,3.04811,-0.538921,0.4909,-0.64457,0.019049,-0.081065,-0.658657
0.00866412,0.165531,3.03797,-0.26298,0.671975,-0.365044,0.0689385,-0.0289796,-0.555469
0.0212808,0.162847,3.03309,-0.00308203,0.491558,-0.134766,0.09384,-0.0457572,-0.386516
0.0212808,0.162847,3.03309,-0.00308203,0.491558,-0.134766,0.09384,-0.0457572,-0.386516
0.0304163,0.164992,3.03163,0.215041,0.425597,-0.0170694,0.0587465,-0.0545211,-0.269225
0.040204,0.171122,3.03178,0.381793,0.564887,0.0507979,0.0282497,-0.0475314,-0.153219
0.0527202,0.179403,3.03314,0.425326,0.69604,0.130662,0.0269006,-0.0260255,-0.00241727
0.0662751,0.18822,3.03631,0.437177,0.704651,0.23489,0.0357274,-0.0115128,0.132785
0.0781861,0.197432,3.04125,0.448966,0.558173,0.32172,0.0342812,0.00247248,0.22297
0.0851566,0.207012,3.04816,0.449417,0.259851,0.433836,0.0368184,0.0180517,0.284536
0.0848036,0.216597,3.05703,0.427719,-0.0974223,0.518016,0.025996,0.0345795,0.305797
0.0772048,0.225032,3.06752,0.311095,-0.422523,0.5704,0.027203,0.043633,0.302969
0.0637951,0.229661,3.07875,0.0455586,-0.648346,0.536956,-0.0116019,0.0635397,0.282584
0.0472261,0.227764,3.0887,-0.276961,-0.776024,0.41295,-0.0387719,0.0585176,0.222294
0.0295443,0.220933,3.09551,-0.408391,-0.827833,0.221301,-0.0447827,0.0452359,0.0832998
0.0126196,0.212384,3.09846,-0.44076,-0.776877,0.0729304,-0.0131597,0.0530156,-0.0279026
-0.00139888,0.203655,3.0996,-0.426367,-0.587087,0.0497763,0.0391202,0.0827437,-0.103751
-0.0108296,0.196176,3.10158,-0.302465,-0.323873,0.169817,0.105989,0.105335,-0.151685
-0.0155902,0.192255,3.10698,-0.0749565,-0.0462266,0.37919,0.153288,0.124987,-0.157063
-0.0163407,0.192936,3.11697,0.150981,0.135357,0.595958,0.14209,0.138519,-0.104318
-0.0161117,0.19752,3.1305,0.3124,0.123794,0.705948,0.105489,0.106364,0.00241685
-0.01711,0.204095,-3.13848,0.345785,0.0750083,0.660566,0.049118,0.0641615,0.110999
-0.0182419,0.209971,-3.12609,0.251392,0.059757,0.542622,0.00378691,0.045346,0.189651
-0.0193808,0.213323,-3.11642,0.114434,0.0523397,0.400002,-0.0147969,0.0289852,0.242744
-0.0202073,0.214626,-3.10972,0.0331811,-0.00908901,0.261224,-0.0217769,0.0199738,0.243962
-0.0227984,0.214733,-3.10505,-0.00411031,-0.150632,0.212207,0.0118663,0.00977853,0.235904
-0.0274977,0.214894,-3.10049,0.0408489,-0.203882,0.237692,0.037192,0.0087003,0.18511
-0.0327236,0.216284,-3.09574,0.109477,-0.21332,0.209749,0.0223883,-0.00607102,0.130766
-0.0379435,0.218466,-3.09233,0.103909,-0.248336,0.11034,0.00299035,-0.0368842,0.0997808
-0.0438704,0.2196,-3.09146,0.00143212,-0.327075,-0.0369197,-0.0127846,-0.0496476,0.0809569
-0.0502954,0.218104,-3.0939,-0.162636,-0.367695,-0.195755,-0.0186354,-0.0457669,0.0324631
-0.0564137,0.213633,-3.0997,-0.315254,-0.370366,-0.345501,-0.0340856,-0.0338378,-0.0485643
-0.0618641,0.206354,-3.10827,-0.458369,-0.349403,-0.448194,-0.0268741,-0.036471,-0.132142
-0.066308,0.196846,-3.1192,-0.550861,-0.295542,-0.561687,-0.0308453,-0.0375767,-0.209257
-0.0682474,0.186554,-3.13195,-0.546917,-0.141283,-0.611387,-0.0191094,-0.0370303,-0.289581
-0.0665981,0.177615,3.13866,-0.427958,0.0563475,-0.558335,0.0039022,-0.0284717,-0.341568
-0.0629067,0.170508,3.12768,-0.361644,0.106098,-0.479809,0.0105468,-0.0142005,-0.30742
-0.0597228,0.164088,3.11789,-0.342967,0.0326793,-0.459718,0.00247379,-0.0353624,-0.258218
-0.0585217,0.157995,3.10773,-0.326943,-0.0681919,-0.512444,-0.0286049,-0.0568185,-0.242311
-0.0584587,0.152411,3.09652,-0.296382,-0.0707835,-0.557762,-0.0371768,-0.0563692,-0.26116
-0.0564117,0.147513,3.08507,-0.259903,0.129811,-0.537747,-0.0514388,-0.0161985,-0.289015
-0.049034,0.144263,3.07494,-0.0733519,0.471583,-0.432182,-0.0509058,0.0172067,-0.301235
-0.0363214,0.147116,3.068,0.346154,0.664091,-0.25571,-0.0487499,0.0460917,-0.273143
-0.0230133,0.158647,3.06541,0.791485,0.580548,-0.0412076,-0.0938702,0.0966879,-0.149157
-0.0145076,0.177481,3.06603,1.05059,0.242184,0.0281311,-0.170688,0.13317,0.00451261
-0.0141164,0.198219,3.06567,0.972957,-0.195329,-0.128818,-0.255951,0.145471,0.148534
-0.0199569,0.214675,3.06006,0.65153,-0.475641,-0.46906,-0.320438,0.137255,0.224059
-0.0268823,0.224887,3.04654,0.35966,-0.467904,-0.879889,-0.319913,0.121373,0.200068
-0.0290859,0.230488,3.0254,0.151245,-0.187415,-1.16445,-0.244347,0.149351,0.152724
-0.0229838,0.232339,3.00097,-0.0169996,0.217398,-1.18452,-0.146322,0.207122,0.146793
-0.0116561,0.23161,2.97827,-0.0693514,0.355163,-1.0144,-0.0702746,0.239082,0.179195
-0.00190299,0.231184,2.95953,0.025195,0.161783,-0.826335,-0.0396973,0.220906,0.20899
0.00221741,0.232919,2.94373,0.142219,-0.11364,-0.743605,-0.0492004,0.173324,0.236865
0.00202861,0.235829,2.92828,0.120351,-0.237894,-0.777102,-0.0636638,0.131385,0.269987
0.00164376,0.236235,2.91147,-0.0949365,-0.170008,-0.862728,-0.0637472,0.101918,0.3092
0.00394177,0.23173,2.89307,-0.338945,-0.0344192,-0.925491,-0.0336826,0.0692915,0.317715
0.0079333,0.223443,2.8743,-0.452702,-0.00734809,-0.897389,0.00892657,0.0453034,0.292569
0.0106235,0.214339,2.85699,-0.431617,-0.0968828,-0.802175,0.0484424,0.0232481,0.247707
0.0106235,0.214339,2.85699,-0.431617,-0.0968828,-0.802175,0.0484424,0.0232481,0.247707
0.0114271,0.205717,2.84157,-0.428057,-0.130862,-0.725895,0.0561511,0.000823721,0.207061
0.0121075,0.19648,2.82726,-0.483145,-0.0735874,-0.698574,0.0491609,-0.0370359,0.172323
0.0142805,0.186283,2.81368,-0.51125,0.0392597,-0.638512,0.0739034,-0.0741001,0.129267
0.0190126,0.176343,2.8018,-0.461897,0.226144,-0.548995,0.0902921,-0.0973358,0.0806426
0.0266178,0.167313,2.79195,-0.428162,0.34558,-0.442092,0.0829946,-0.120607,0.0714715
0.0345212,0.158707,2.78429,-0.411294,0.304867,-0.349994,0.0876083,-0.159021,0.0884982
0.0403125,0.150438,2.77795,-0.395381,0.176562,-0.316897,0.0830937,-0.19928,0.0798975
0.0432855,0.142141,2.77187,-0.421787,0.0246071,-0.321918,0.0776172,-0.226791,0.0473221
0.0430505,0.132946,2.76593,-0.455417,-0.125008,-0.309684,0.0905976,-0.236524,-0.0132065
0.04055,0.123865,2.76012,-0.431646,-0.174669,-0.304725,0.0821776,-0.223604,-0.119882
0.0381972,0.115422,2.75489,-0.386719,-0.0781252,-0.243418,0.0804744,-0.194694,-0.206918
0.0394673,0.108775,2.75146,-0.247196,0.193633,-0.113974,0.100501,-0.170294,-0.279664
0.0473435,0.105788,2.7507,-0.0542168,0.587898,0.019912,0.106732,-0.153701,-0.291296
0.0601481,0.105388,2.7522,-0.0343457,0.601767,0.129378,0.117926,-0.152925,-0.169715
0.0671705,0.103554,2.75616,-0.1651,0.11622,0.256332,0.127194,-0.145883,-0.0464946
0.0632531,0.0996725,2.76215,-0.266809,-0.402272,0.307235,0.114944,-0.143733,-0.0991314
0.0511172,0.0939447,2.76844,-0.317788,-0.721552,0.276845,0.0850556,-0.126622,-0.258075
0.0355667,0.0893516,2.77428,-0.146789,-0.740332,0.302211,0.0807936,-0.0804754,-0.453456
0.0236752,0.088659,2.78153,0.0481922,-0.325069,0.448199,0.119792,-0.0119667,-0.547176
0.0219292,0.0906634,2.79297,0.0978355,0.237675,0.699791,0.142851,0.0734953,-0.523573
0.0279962,0.0922144,2.80954,0.0227164,0.441251,0.959415,0.154881,0.0956086,-0.381882
0.0336069,0.0940226,2.83094,0.137916,0.295697,1.16339,0.160502,0.0534637,-0.283177
0.0357377,0.100631,2.85522,0.452672,0.156734,1.27874,0.116047,0.0474981,-0.248401
0.0356834,0.113139,2.8816,0.682468,0.113112,1.39477,0.089125,0.0723092,-0.156043
0.0345084,0.128424,2.91006,0.72025,0.10506,1.48227,0.0889515,0.0890398,-0.0189574
0.0319933,0.142718,2.93988,0.593027,0.0367565,1.51637,0.0860284,0.0963508,0.105354
0.0268931,0.153633,2.97018,0.411232,-0.118148,1.51208,0.0671921,0.0968466,0.174144
0.0177008,0.161054,3.00007,0.289367,-0.331233,1.46518,0.0527348,0.0957841,0.182507
0.00465286,0.167038,3.02878,0.293372,-0.489587,1.38093,0.0428057,0.100131,0.131304
-0.00975029,0.173486,3.05605,0.360864,-0.458096,1.32646,0.0608275,0.117564,0.0789821
-0.0221641,0.180969,3.08303,0.434247,-0.298623,1.33428,0.0946916,0.147833,0.0608817
-0.0315084,0.189752,3.11085,0.51971,-0.143626,1.38565,0.108544,0.178605,0.0774804
-0.0397118,0.199811,3.13996,0.584584,-0.140279,1.43568,0.107881,0.197005,0.130836
-0.0496404,0.210335,-3.11358,0.590466,-0.257965,1.41418,0.0927463,0.194292,0.186458
-0.0622348,0.220192,-3.08492,0.546591,-0.382284,1.32548,0.0699093,0.189014,0.2124
-0.0764953,0.22866,-3.05864,0.465406,-0.450659,1.16559,0.0582267,0.181721,0.199257
-0.090618,0.234808,-3.03629,0.323392,-0.436181,0.952243,0.0465374,0.176397,0.17325
-0.102691,0.238127,-3.01859,0.178109,-0.357001,0.7354,0.0597775,0.162885,0.131198
-0.111745,0.239185,-3.00548,0.0667188,-0.230512,0.539095,0.0857094,0.1646,0.0839564
-0.117273,0.238683,-2.99558,0.00455424,-0.093728,0.437443,0.11886,0.179417,0.0444136
-0.120195,0.237863,-2.98726,0.0316056,-0.0434771,0.380802,0.143278,0.174042,0.0132483
-0.122662,0.238935,-2.97939,0.164239,-0.0116363,0.380151,0.173536,0.163975,-0.0225411
-0.124099,0.241735,-2.97079,0.195916,0.0984059,0.410316,0.153385,0.181145,-0.0200328
-0.121913,0.244012,-2.96272,0.111757,0.310327,0.315339,0.102216,0.140844,-0.00061661
-0.115126,0.244177,-2.95818,-0.0507091,0.472927,0.115574,0.0582876,0.0844395,0.0399173
-0.104381,0.241141,-2.95804,-0.244222,0.596023,-0.0594615,0.0324971,0.0662191,0.0812898
-0.0917916,0.235116,-2.9608,-0.362833,0.567353,-0.135865,0.0335531,0.0568542,0.0975894
-0.0813503,0.227703,-2.96406,-0.395477,0.389765,-0.102713,0.0597081,0.0456407,0.0861849
-0.074678,0.220146,-2.96564,-0.364558,0.273491,0.0183818,0.0816886,0.0273172,0.0399334
-0.0696847,0.213287,-2.9645,-0.324476,0.250144,0.128724,0.0775263,-0.00295617,-0.0217968
-0.0656357,0.206277,-2.96193,-0.368537,0.211197,0.159237,0.027516,-0.0230726,-0.0440441
-0.0625007,0.198052,-2.95958,-0.439188,0.122226,0.111168,-0.0151922,-0.0541557,-0.0800259
-0.0615225,0.188335,-2.95883,-0.532608,-0.0154404,0.0220279,-0.0432717,-0.0764783,-0.120524
-0.0634392,0.176725,-2.95992,-0.629276,-0.182638,-0.0514149,-0.0634148,-0.0743612,-0.188637
-0.0634392,0.176725,-2.95992,-0.629276,-0.182638,-0.0514149,-0.0634148,-0.0743612,-0.188637
-0.0677932,0.163953,-2.96221,-0.651443,-0.266964,-0.0835303,-0.0638434,-0.0699809,-0.285543
-0.0720874,0.151813,-2.96461,-0.562474,-0.167125,-0.0543875,-0.0500345,-0.0712733,-0.377823
-0.0736617,0.142573,-2.96569,-0.349482,0.0171118,0.0209235,-0.0487336,-0.0692281,-0.432661
-0.0710118,0.138453,-2.9647,-0.051639,0.247811,0.103089,-0.0656521,-0.0633745,-0.435756
-0.0648073,0.140199,-2.96167,0.236253,0.405974,0.186958,-0.071631,-0.0542295,-0.335499
-0.0562267,0.14693,-2.95686,0.451556,0.517967,0.244713,-0.080349,-0.0344756,-0.177164
-0.0458868,0.156819,-2.95135,0.550404,0.596872,0.253057,-0.0987351,-0.01347,-0.0181934
-0.0351774,0.16772,-2.946,0.554869,0.549128,0.234007,-0.119208,0.0157505,0.128333
-0.027005,0.178281,-2.9415,0.508629,0.325889,0.167213,-0.136848,0.036652,0.235454
-0.0239137,0.187391,-2.93888,0.413797,0.0342646,0.0700861,-0.142263,0.0504469,0.303288
-0.0256215,0.194664,-2.9382,0.311634,-0.185855,-0.0253912,-0.14053,0.0812851,0.306505
-0.0304823,0.199951,-2.93948,0.210694,-0.306273,-0.122398,-0.127036,0.109907,0.282142
-0.0359599,0.202912,-2.94338,0.0661047,-0.300942,-0.276458,-0.0941495,0.104354,0.248229
-0.039383,0.202668,-2.95066,-0.123867,-0.185172,-0.429198,-0.0514751,0.0974628,0.211729
-0.0402211,0.198693,-2.96038,-0.302619,-0.108668,-0.481873,0.013174,0.104524,0.181071
-0.0401191,0.192093,-2.96971,-0.370905,-0.0597005,-0.389486,0.076007,0.115444,0.122159
-0.0398521,0.185468,-2.97644,-0.29783,-0.0259372,-0.242828,0.110859,0.110478,0.0536181
-0.0390547,0.180989,-2.98023,-0.171588,0.0357849,-0.128576,0.115449,0.089014,0.00588059
-0.0370085,0.178028,-2.98243,-0.149965,0.128809,-0.0866385,0.108025,0.0476644,0.0175022
-0.0329998,0.174618,-2.98409,-0.200362,0.237695,-0.0647839,0.101782,0.0122631,0.0463907
-0.0273597,0.170283,-2.98527,-0.226482,0.303379,-0.0349966,0.0973495,-0.0112028,0.0648494
-0.0212788,0.166045,-2.98557,-0.19029,0.290952,0.0219826,0.0909919,-0.0317531,0.0710295
-0.015963,0.16304,-2.98436,-0.10315,0.260555,0.105794,0.0817754,-0.049489,0.0715737
-0.0110724,0.161898,-2.98161,-0.00604258,0.284997,0.160115,0.0593435,-0.0617393,0.0666203
-0.00534438,0.162666,-2.97796,0.0867184,0.350177,0.195351,0.0369816,-0.0802379,0.0718679
0.00122698,0.165132,-2.97361,0.157777,0.365181,0.238585,0.0317182,-0.0897376,0.0948707
0.00694625,0.168701,-2.96802,0.192829,0.290442,0.318082,0.0427587,-0.0867364,0.121919
0.0103644,0.172606,-2.96072,0.189553,0.175678,0.400182,0.0503519,-0.0919673,0.120342
0.0110296,0.17629,-2.95214,0.166715,0.0394106,0.442103,0.0381681,-0.0993562,0.0778556
0.0089612,0.179149,-2.94348,0.108556,-0.0831098,0.403574,0.0039387,-0.106017,0.00663066
0.00560382,0.180875,-2.93645,0.0563005,-0.122018,0.272375,-0.0346109,-0.122554,-0.095827
0.00408019,0.180886,-2.93323,-0.0726659,0.059248,0.0461466,-0.0766149,-0.134079,-0.170727
0.0070569,0.177409,-2.93469,-0.268173,0.260384,-0.179722,-0.0629,-0.134845,-0.204365
0.0153961,0.170508,-2.93973,-0.414806,0.480572,-0.306747,-0.0245717,-0.113123,-0.249832
0.028268,0.161153,-2.94598,-0.508184,0.678769,-0.321767,0.026408,-0.0928545,-0.278183
0.0432269,0.150113,-2.95176,-0.564776,0.712635,-0.277573,0.0598269,-0.0720226,-0.289071
0.0573626,0.1389,-2.9558,-0.516106,0.63403,-0.169176,0.0870504,-0.0584455,-0.300719
0.0693274,0.130438,-2.95696,-0.303027,0.561189,0.00951934,0.114529,-0.0306065,-0.316053
0.0801959,0.127328,-2.95435,-0.0294585,0.591147,0.230026,0.137015,-0.00207455,-0.272651
0.0925658,0.129472,-2.94754,0.159002,0.736769,0.463548,0.155731,0.0176453,-0.156612
0.106925,0.134488,-2.9364,0.229905,0.849376,0.689846,0.150865,0.0382727,0.00977057
0.122582,0.141329,-2.92128,0.277253,0.896652,0.88306,0.130531,0.0443781,0.135097
0.13612,0.149278,-2.90264,0.260225,0.697292,1.05498,0.10966,0.0606355,0.253551
0.142762,0.156778,-2.88035,0.161217,0.283583,1.23062,0.108826,0.0663543,0.338512
0.139611,0.161437,-2.85487,-0.0786526,-0.183103,1.32025,0.08575,0.0626073,0.369514
0.12692,0.160716,-2.82727,-0.352308,-0.67316,1.3717,0.0646728,0.0544493,0.32155
0.102836,0.155039,-2.79906,-0.4976,-1.28211,1.32753,-0.00581207,0.0757749,0.150709
0.0687701,0.147603,-2.77282,-0.439858,-1.65976,1.18973,-0.0523285,0.0871918,-0.10893
0.0351546,0.141934,-2.75041,-0.227943,-1.27356,1.01251,-0.0428963,0.0781496,-0.378816
0.0154306,0.140398,-2.73077,0.0298664,-0.396946,0.964052,-0.0139506,0.12239,-0.518609
0.0126658,0.143953,-2.71024,0.295705,0.351001,1.09437,0.0472343,0.176126,-0.464067
0.0199852,0.152311,-2.68638,0.488753,0.679584,1.27604,0.0707779,0.194188,-0.246516
0.0301362,0.164126,-2.65987,0.618438,0.719788,1.35215,0.00617722,0.182418,-0.034089
0.0386685,0.178138,-2.63341,0.683669,0.575564,1.29605,-0.0501168,0.149961,0.151469
0.0386685,0.178138,-2.63341,0.683669,0.575564,1.29605,-0.0501168,0.149961,0.151469
0.0439585,0.192593,-2.60931,0.649928,0.408003,1.12355,-0.0884046,0.119047,0.292651
0.0468117,0.204973,-2.58934,0.477443,0.278816,0.890904,-0.106865,0.107044,0.401288
0.0480804,0.212326,-2.57409,0.184193,0.163267,0.637173,-0.103226,0.0909987,0.474949
0.0469883,0.213573,-2.56338,-0.101669,-0.0892248,0.425804,-0.0693718,0.071832,0.497685
0.0399706,0.209899,-2.55607,-0.269342,-0.436889,0.291332,-0.00771077,0.0575895,0.457984
0.0287673,0.204352,-2.55051,-0.295409,-0.52875,0.244446,0.0285369,0.061057,0.322095
0.0172309,0.19857,-2.54578,-0.295795,-0.502706,0.205378,0.0484314,0.0552697,0.208231
0.00821796,0.192447,-2.54233,-0.333795,-0.339922,0.114016,0.064993,0.0127332,0.110138
0.00310228,0.185009,-2.54146,-0.411498,-0.172634,-0.0387025,0.0608698,-0.0325977,0.0320327
0.000535876,0.175567,-2.5439,-0.553946,-0.187436,-0.203186,0.0463779,-0.0426953,-0.0309975
-0.00466856,0.162818,-2.54938,-0.729753,-0.412551,-0.325885,0.0349413,-0.0303752,-0.0894692
-0.0143772,0.146958,-2.55687,-0.840404,-0.627463,-0.395293,0.0538183,-0.0474029,-0.196855
-0.0243496,0.130821,-2.56536,-0.759602,-0.412445,-0.395765,0.0599058,-0.0551293,-0.369434
-0.0260286,0.118304,-2.57261,-0.503165,0.163153,-0.273085,0.0899307,-0.0650769,-0.507341
-0.0184726,0.111179,-2.57652,-0.235035,0.474105,-0.100079,0.088136,-0.0418667,-0.491283
-0.00990031,0.108115,-2.57703,-0.10265,0.327467,0.042067,0.0656133,-0.0545095,-0.34593
-0.00617182,0.106369,-2.57568,-0.086839,0.07529,0.0733129,0.0282927,-0.0917837,-0.240702
-0.00623951,0.104408,-2.57468,-0.104465,-0.0431228,0.0215792,-0.0151568,-0.10504,-0.208865
-0.00701511,0.102238,-2.57507,-0.11471,-0.0297833,-0.0564008,-0.042521,-0.086066,-0.204312
-0.00685645,0.0997256,-2.57651,-0.137358,0.0401423,-0.069521,-0.0285628,-0.0498994,-0.179201
-0.00490719,0.0972425,-2.57749,-0.0897163,0.168671,-0.0192697,-0.0196063,-0.0170158,-0.163885
-0.000680325,0.0970752,-2.57692,0.0801264,0.272366,0.0802806,-0.000192579,0.0118093,-0.146249
0.00421945,0.100463,-2.57358,0.257062,0.235409,0.264857,0.000684708,0.0549147,-0.0754246
0.00701815,0.107633,-2.56618,0.466237,0.118768,0.467892,-0.00770985,0.0896034,-0.0210854
0.00708353,0.119052,-2.55578,0.658254,-0.0127937,0.546342,-0.069457,0.11044,0.0263135
0.00373866,0.133168,-2.54556,0.708825,-0.212898,0.456119,-0.134214,0.105889,0.0926865
-0.00413136,0.145997,-2.53807,0.557103,-0.446682,0.276936,-0.172304,0.108217,0.156452
-0.0147391,0.155143,-2.53483,0.37943,-0.536503,0.0250259,-0.208461,0.11697,0.141233
-0.0241594,0.161935,-2.53735,0.300435,-0.422,-0.291852,-0.227395,0.113712,0.0668142
-0.0286092,0.166993,-2.54606,0.168855,-0.13626,-0.564994,-0.185873,0.116642,0.0410903
-0.0255855,0.168989,-2.55886,0.00437311,0.211992,-0.676612,-0.112431,0.134953,0.0618944
-0.0174169,0.168693,-2.57213,-0.0320992,0.33325,-0.61059,-0.0430881,0.154924,0.0898883
-0.00969838,0.169354,-2.58306,0.103325,0.232325,-0.472681,0.00315084,0.138852,0.109274
-0.00509739,0.17313,-2.59159,0.252127,0.0998768,-0.384989,0.00146592,0.112391,0.141501
-0.0019714,0.178276,-2.59932,0.230864,0.103636,-0.395792,-0.023664,0.0742601,0.197024
0.00250354,0.181485,-2.60827,0.0758084,0.183542,-0.495872,-0.0447445,0.0306799,0.247505
0.00895116,0.181262,-2.61947,-0.0822062,0.258754,-0.599061,-0.0349274,-0.00947221,0.271877
0.0165241,0.178535,-2.63193,-0.155499,0.26107,-0.622286,-0.0106301,-0.0287717,0.260811
0.02293,0.175128,-2.64404,-0.145852,0.149727,-0.575099,0.0181637,-0.0440423,0.23736
0.0264594,0.172442,-2.65501,-0.104065,0.0064234,-0.51992,0.0213299,-0.0579342,0.204337
0.0274651,0.169907,-2.66496,-0.12375,-0.0546941,-0.474334,0.011447,-0.0713267,0.169357
0.0289593,0.167106,-2.67418,-0.117541,0.0715371,-0.450795,-0.00375633,-0.0903389,0.093567
0.0337457,0.16522,-2.68303,-0.0293624,0.262292,-0.423487,-0.0103306,-0.100713,0.0185812
0.041382,0.165668,-2.69078,0.103943,0.352264,-0.336223,0.0123884,-0.109991,-0.0117589
0.0487875,0.168477,-2.69653,0.184242,0.260409,-0.216656,0.0306425,-0.106412,0.0133242
0.0522748,0.171964,-2.69986,0.171568,0.0383296,-0.103679,0.0324126,-0.0996184,0.035693
0.0511572,0.174623,-2.70156,0.096878,-0.176169,-0.0691566,0.00777882,-0.10115,0.00324863
0.0472082,0.175451,-2.70382,0.00379324,-0.223426,-0.170105,-0.0607637,-0.104547,-0.0994873
0.0435474,0.174394,-2.70925,-0.0950056,-0.205089,-0.382544,-0.0990408,-0.109753,-0.190022
0.0420033,0.171144,-2.71893,-0.188254,-0.0826851,-0.575716,-0.08369,-0.0982599,-0.254508
0.0449786,0.166017,-2.73111,-0.267624,0.183402,-0.622127,-0.0273774,-0.0510679,-0.295753
0.0525704,0.159583,-2.74262,-0.316134,0.360352,-0.533391,0.0585494,-0.0137769,-0.291948
0.0610189,0.152663,-2.7513,-0.314512,0.310344,-0.356391,0.116883,-0.000578135,-0.263973
0.0662195,0.146979,-2.75611,-0.210833,0.136407,-0.158864,0.135836,0.000927821,-0.260371
0.0662195,0.146979,-2.75611,-0.210833,0.136407,-0.158864,0.135836,0.000927821,-0.260371
0.0684693,0.144565,-2.75757,-0.020581,0.104062,-0.0131673,0.123063,-0.0030171,-0.283349
0.0718931,0.14579,-2.7569,0.130967,0.273356,0.0869272,0.106268,-0.00597112,-0.261165
