attitude_roll,attitude_pitch,attitude_yaw,rotationRate_x,rotationRate_y,rotationRate_z,acceleration_x,acceleration_y,acceleration_z
-0.04614,0.240398,0.00557381,-0.345381,-0.954268,0.446545,0.0688451,-0.0305116,-0.0322775
-0.0635633,0.231752,0.0143838,-0.429306,-0.488162,0.428566,-0.0154177,0.0197219,-0.00871092
-0.0680757,0.223638,0.0215406,-0.314001,0.173192,0.312649,-0.065049,0.0583107,0.00765914
-0.0622426,0.21859,0.026591,-0.157773,0.441603,0.212692,-0.0547715,0.0332905,-0.0218257
-0.0544194,0.216185,0.0299897,-0.0697471,0.386876,0.128367,-0.0355881,0.0019349,-0.0535622
-0.0481881,0.215124,0.0316216,-0.0391535,0.260258,0.0363194,-0.0381612,0.000471458,-0.0317221
-0.043894,0.214137,0.0313284,-0.0559607,0.175256,-0.0548768,-0.0346216,-0.0102283,-0.0179369
-0.040112,0.212866,0.0294228,-0.0800464,0.162217,-0.118121,-0.0233801,-0.0193282,0.00302559
-0.0364842,0.210848,0.0268222,-0.121697,0.151589,-0.116743,-0.0177222,-0.0229194,-6.12736e-05
-0.0327307,0.208432,0.0246303,-0.121499,0.16137,-0.0845321,-0.0136377,-0.0184464,0.00188047
-0.0301324,0.206008,0.0233324,-0.127009,0.0575891,-0.0328566,-0.00549758,-0.0137231,-0.0134714
-0.0294745,0.204227,0.0230745,-0.0329416,0.0325668,0.00343428,-0.0136074,-0.00783691,-0.0310187
-0.0287885,0.205183,0.0231155,0.10268,0.0392561,-0.00381005,-0.00880655,0.0137134,-0.0237166
-0.0284298,0.207975,0.0232127,0.152533,-0.000381335,0.00635975,-0.00296357,0.0048795,-0.0186484
-0.0289718,0.211106,0.0237056,0.15288,-0.0155875,0.0330386,0.000202755,0.00342573,-0.0135621
-0.0289248,0.214022,0.0246682,0.140612,0.0418165,0.0446082,-0.00706314,0.0067946,0.0060575
-0.0278555,0.216712,0.0256867,0.154291,0.0875449,0.0382125,-0.0126861,0.00347215,0.00789279
-0.0266142,0.219779,0.0261786,0.172801,0.043801,-0.00428719,-0.0117792,0.00315526,0.00506467
-0.0261739,0.223341,0.0257786,0.192353,-0.00279388,-0.0364948,-0.00667517,0.00333419,0.00406468
-0.0261395,0.227032,0.024878,0.178214,0.00851501,-0.0631935,-0.0112011,0.00517681,0.00424886
-0.0249836,0.230203,0.023572,0.142304,0.0936074,-0.0724254,-0.0101018,0.00245208,0.0142555
-0.0221085,0.232387,0.0220151,0.0814781,0.168703,-0.0825409,-0.0145441,0.00115995,0.00992996
-0.0178631,0.233632,0.0202501,0.0537264,0.214802,-0.0920939,-0.0194731,0.0016543,0.00676483
-0.0129854,0.234779,0.0182948,0.0758889,0.235443,-0.104429,-0.0264795,0.00411274,-0.00221723
-0.00829869,0.236768,0.0159316,0.128389,0.187584,-0.131375,-0.0251208,0.0102272,-0.0106441
-0.00416398,0.240137,0.0131896,0.202572,0.193913,-0.142008,-0.028472,0.0112124,-0.00740182
0.000131834,0.244339,0.0102346,0.204956,0.184333,-0.151378,-0.032858,0.0137807,0.000525117
0.00387421,0.248125,0.00717291,0.17283,0.140614,-0.153354,-0.0292835,0.00761041,0.00292152
0.00694197,0.25099,0.00395588,0.131852,0.115012,-0.155656,-0.0263625,0.0110582,0.0074926
0.00977529,0.25344,0.000648063,0.121075,0.08713,-0.158257,-0.0295892,0.0154448,0.0102457
0.0120929,0.256252,-0.00280211,0.17347,0.0633329,-0.17699,-0.0359745,0.0229269,0.00591129
0.0144616,0.260535,-0.00716907,0.251722,0.0539886,-0.239907,-0.037853,0.0279834,0.0179701
0.0164881,0.265534,-0.0128342,0.239246,-0.00526654,-0.289614,-0.0327705,0.0278662,0.0216604
0.0167454,0.269936,-0.0193113,0.208529,-0.1497,-0.32212,-0.0256445,0.0207749,0.0254661
0.0141933,0.273587,-0.026334,0.160604,-0.285308,-0.344884,-0.0152214,0.0252375,0.0253788
0.0101151,0.276241,-0.0337803,0.111834,-0.287418,-0.366024,-0.0214196,0.0271819,0.0254994
0.00806381,0.278175,-0.0417303,0.0938759,-0.118466,-0.395809,-0.0374626,0.0386545,0.0171758
0.0103996,0.28033,-0.0501629,0.13263,0.10293,-0.403247,-0.030608,0.0543831,0.00943512
0.0154963,0.283479,-0.0592019,0.185789,0.11788,-0.472043,-0.0230559,0.0477183,-0.0159335
0.0195086,0.287773,-0.0704385,0.270161,-0.0352044,-0.543309,-0.00462131,0.031819,-0.0294176
0.0199293,0.298048,-0.080243,0.781388,-0.194845,-0.420664,-0.00630826,-0.00570744,-0.0274631
0.0166933,0.317309,-0.0899288,1.16038,-0.427293,-0.44771,0.0502571,0.114257,-0.0306448
0.00722158,0.343841,-0.0990434,1.43788,-0.851071,-0.376809,0.0663518,0.0869379,-0.0171301
-0.00990602,0.371354,-0.106527,1.17318,-0.984547,-0.32544,0.0662222,0.0232015,0.00599468
-0.0237397,0.388507,-0.113222,0.532992,-0.567914,-0.289329,0.12437,0.0150988,0.0617809
-0.0289092,0.394738,-0.11671,0.109891,-0.111223,-0.0201496,0.0856728,-0.0140545,0.124006
-0.0275318,0.392514,-0.11406,-0.355289,0.379772,0.246676,0.0451949,-0.0103554,0.0810556
-0.0176057,0.382696,-0.106774,-0.534242,0.831374,0.436574,0.0306288,-0.0127317,0.0885589
-0.00389238,0.372234,-0.0962586,-0.468391,0.854491,0.539871,0.0605869,-0.0210069,0.00415707
0.00670154,0.364655,-0.0843455,-0.284529,0.595322,0.547137,0.0571242,-0.00744793,-0.0431452
0.0120492,0.360051,-0.0728464,-0.224881,0.341453,0.51939,0.0433196,-0.00418419,-0.0281784
0.0129708,0.354474,-0.0609218,-0.354292,0.200872,0.608141,0.0350925,-0.0435427,-0.0344331
0.0133111,0.34664,-0.0474475,-0.427001,0.335631,0.593604,0.0254296,-0.0384037,-0.00624955
0.0133111,0.34664,-0.0474475,-0.427001,0.335631,0.593604,0.0254296,-0.0384037,-0.00624955
0.0174765,0.338733,-0.0374293,-0.344052,0.332894,0.303213,0.0161254,-0.00979391,-0.00134951
0.0203142,0.334551,-0.0348763,-0.0526298,0.0292513,-0.0531146,0.0247434,-0.024377,-0.0699345
0.0199671,0.336156,-0.0388244,0.199978,-0.176115,-0.298306,0.00902956,-0.0144994,-0.0743166
0.0183076,0.34108,-0.0464367,0.261695,-0.20019,-0.371739,-0.0106602,0.0134451,-0.0534458
0.0190019,0.345328,-0.0533007,0.171032,0.0704783,-0.241484,-0.0151172,-0.00663343,-0.00987363
0.0237363,0.34812,-0.0566152,0.132864,0.246656,-0.0685374,0.0109538,-0.0337773,-0.00460029
0.0294682,0.351134,-0.0575724,0.183007,0.265112,-0.0480689,0.0120678,-0.0509501,-0.0276108
0.035244,0.356067,-0.0605615,0.315588,0.197497,-0.25741,-0.0269687,-0.0394557,-0.04904
0.0422208,0.363371,-0.0696999,0.437464,0.175572,-0.549657,-0.0460746,0.00127119,-0.032926
0.050729,0.37209,-0.0842871,0.441866,0.146028,-0.747356,-0.0388908,0.0115578,-0.0127592
0.0583241,0.376129,-0.101574,-0.0919899,-0.159417,-0.746931,-0.0432909,0.110776,0.0408168
0.0626408,0.367893,-0.108363,-0.578911,0.40972,0.0624302,0.110443,-0.208771,0.185301
0.0642709,0.354497,-0.105579,-0.674013,-0.198214,0.0664305,0.0271692,0.0313075,-0.0528235
0.0504462,0.34229,-0.102959,-0.552936,-1.03307,0.0310945,-0.0577382,-0.117327,-0.128424
0.0303592,0.334439,-0.105811,-0.209434,-1.01519,-0.324894,-0.014421,0.0190661,0.108954
0.00991071,0.333049,-0.11825,0.0990994,-1.40183,-0.822282,0.0304747,0.07511,0.0191613
-0.0124056,0.337945,-0.137543,0.340634,-1.35594,-0.929665,0.0549165,0.0805729,0.0650388
-0.0270262,0.34397,-0.155956,0.0976048,-0.537337,-0.773456,0.120411,0.0823596,0.129281
-0.0286168,0.341287,-0.169343,-0.425666,-0.163152,-0.476287,0.0831149,0.0198197,0.0563645
-0.0283892,0.327384,-0.179946,-0.958074,-0.205125,-0.534217,0.0225595,0.027881,-0.0280278
-0.0342233,0.306406,-0.192025,-1.12279,-0.834649,-0.434057,-0.0517429,0.0101149,-0.0910798
-0.0551955,0.28509,-0.194811,-0.949313,-1.19654,0.269182,-0.024223,-0.0730959,-0.125138
-0.0745622,0.269535,-0.186621,-0.53392,-0.36935,0.48462,0.121501,0.031817,0.0959975
-0.0785621,0.260217,-0.181877,-0.439634,-0.177362,-0.0363334,0.118457,0.0807313,0.0614064
-0.0900494,0.251853,-0.187315,-0.363597,-1.21769,-0.261362,-0.0299137,0.0566486,-0.111628
-0.115363,0.245387,-0.196209,-0.410746,-1.44143,-0.557031,0.0283308,0.0041014,-0.0155152
-0.140037,0.237381,-0.210172,-0.551916,-1.24196,-0.624484,0.0500638,0.0311176,0.030924
-0.155899,0.226711,-0.223915,-0.698758,-0.657466,-0.536176,0.0409739,-0.0200229,0.105477
-0.162171,0.212951,-0.237233,-0.852996,-0.271352,-0.534045,0.00519559,0.0169944,0.0587488
-0.162588,0.196047,-0.251254,-1.04645,-0.146265,-0.541274,-0.00461884,-0.00125094,0.0811592
-0.166432,0.174638,-0.265343,-1.26438,-0.545671,-0.437988,0.0562567,-0.00549297,0.00577348
-0.178898,0.150239,-0.276219,-1.26943,-0.787923,-0.20326,0.0787578,-0.0322867,-0.0486357
-0.192674,0.127468,-0.28395,-1.0852,-0.718404,-0.166773,0.0345658,-0.012754,-0.0340509
-0.20825,0.10893,-0.292363,-0.907957,-0.979405,-0.286782,0.0364244,-0.00430702,-0.0489348
-0.228668,0.0933217,-0.302398,-0.820629,-1.03928,-0.319355,0.048494,-0.0462637,-0.0229599
-0.243551,0.0800572,-0.310907,-0.653262,-0.442406,-0.165497,0.0228487,-0.0517573,0.0423
-0.246408,0.0690549,-0.314641,-0.511401,0.0299931,0.059655,-0.0127929,-0.0656892,0.0285491
-0.245487,0.0596465,-0.315692,-0.428921,0.0172577,0.0144767,-0.0343201,-0.0245257,-0.0530071
-0.245672,0.0523602,-0.318974,-0.343305,-0.0290948,-0.122401,-0.0518788,0.0115801,-0.0633683
-0.24478,0.0476903,-0.321916,-0.162928,0.126117,-0.0358736,-0.0406629,-0.0119133,-0.061201
-0.24138,0.046167,-0.322242,-0.00978114,0.163392,0.0220324,-0.0476037,0.00321246,-0.0379145
-0.23879,0.0459486,-0.322388,-0.0434368,0.0983333,-0.0426365,-0.0656785,0.00517625,-0.0523193
-0.23756,0.0444622,-0.324318,-0.130175,0.0139275,-0.0896461,-0.0551691,0.0213306,-0.0644457
-0.236841,0.0426438,-0.326285,-0.0715782,0.0708109,-0.0596086,-0.0553751,0.0234659,-0.0481631
-0.233354,0.0428255,-0.327264,0.0674292,0.287218,-0.0249009,-0.0475497,0.0235559,-0.00614518
-0.226516,0.0444067,-0.327023,0.0546603,0.349076,-0.00780568,-0.0466034,0.0180708,0.0147692
-0.220778,0.0440385,-0.327404,-0.101289,0.205143,-0.0117425,-0.0235634,0.0311306,-0.0314595
-0.218439,0.0416578,-0.328033,-0.0980625,0.0486126,0.00291685,-0.00825936,0.0352218,-0.0641608
-0.218251,0.0413426,-0.327582,0.0934825,-0.0153509,0.0648617,0.0181411,0.0261331,-0.049108
-0.219946,0.0445533,-0.324217,0.281522,-0.139175,0.191218,0.0357859,0.0255414,-0.0549054
-0.224636,0.0500796,-0.317964,0.373344,-0.23573,0.265924,0.0429831,0.0234169,-0.041621
-0.228171,0.0557594,-0.311979,0.285323,-0.0856054,0.175197,-0.0131229,0.0235497,0.0563691
-0.228171,0.0557594,-0.311979,0.285323,-0.0856054,0.175197,-0.0131229,0.0235497,0.0563691
-0.228595,0.0590881,-0.307951,0.144975,0.0774277,0.154787,-0.00649837,0.0259728,-0.0279276
-0.226327,0.0607519,-0.304136,0.11239,0.17363,0.178727,0.0195028,0.0158843,-0.0199153
-0.221079,0.0619909,-0.300077,0.0933896,0.372817,0.178716,-0.0171467,0.0143133,-0.0016917
-0.213366,0.0629634,-0.296653,0.0762558,0.369249,0.125682,-0.0268588,0.028849,-0.042313
-0.207858,0.0642621,-0.294608,0.0926962,0.188243,0.0441627,-0.040262,0.0301451,-0.0671236
-0.205144,0.0665618,-0.294067,0.152957,0.125285,-0.0163266,-0.0288136,0.021423,-0.053654
-0.20124,0.0703514,-0.293355,0.225266,0.284423,0.015643,-0.0244568,0.00556566,-0.0245573
-0.193875,0.0743729,-0.291791,0.182289,0.449085,0.054974,-0.0350118,0.00574668,-0.00805044
-0.184286,0.0771439,-0.290099,0.144291,0.512149,0.0383609,-0.0455412,0.00867757,-0.0371599
-0.173454,0.0821549,-0.288969,0.408917,0.574433,0.00339585,-0.0597015,0.0391701,0.0261365
-0.162823,0.0906738,-0.287038,0.323138,0.414215,0.0546289,0.00441033,-0.00147612,0.208016
-0.156608,0.0915757,-0.284987,-0.18058,0.361871,0.120898,-0.0039407,-0.0407543,-0.00987661
-0.144488,0.0857201,-0.282765,-0.298026,0.833969,0.192909,-0.0356501,-0.00555604,0.0475612
-0.127802,0.0802022,-0.279451,-0.182628,0.749452,0.182203,-0.00755316,0.0302506,-0.0570744
-0.117832,0.0784352,-0.277036,0.0541147,0.238056,0.0813434,0.0187329,0.0674906,-0.131081
-0.118884,0.0824581,-0.275239,0.37416,-0.343843,0.0577484,0.042121,0.0495583,-0.139598
-0.129065,0.0925236,-0.273378,0.609324,-0.528894,0.0019155,0.0289434,0.0409238,-0.122804
-0.13796,0.104842,-0.271784,0.586893,-0.330106,0.00297342,-0.00519998,0.0222226,-0.00845522
-0.142266,0.11492,-0.269894,0.417343,-0.0612194,0.0392827,-0.009524,0.0126468,0.046524
-0.141495,0.120787,-0.267917,0.185252,0.157062,0.0742895,-0.0160562,0.0311227,0.0809378
-0.137233,0.121915,-0.26598,-0.0381666,0.25176,0.0910019,-0.0159769,0.0336309,0.0989074
-0.132925,0.119698,-0.26494,-0.141203,0.167844,0.041721,-0.02088,0.0476807,0.0599988
-0.130964,0.117352,-0.26497,-0.0767082,0.0247981,-0.0193272,-0.0244376,0.0596945,0.0234512
-0.131346,0.116646,-0.266034,-0.0154579,-0.0510987,-0.0564164,-0.0260035,0.0519896,0.0297698
-0.132598,0.117345,-0.266628,0.0858623,-0.0747004,-0.00823993,-0.016343,0.0310928,0.0297389
-0.134386,0.119442,-0.266138,0.108184,-0.111437,0.0269961,-0.00337094,0.0289944,0.0405639
-0.137771,0.121285,-0.264927,0.106826,-0.204416,0.0620048,0.00204957,0.0256658,0.0313134
-0.143674,0.123037,-0.263368,0.102126,-0.416252,0.0696049,0.0176476,0.0382698,0.0219183
-0.154836,0.125334,-0.261033,0.158254,-0.620539,0.122298,0.0460288,0.0376647,0.00611985
-0.167843,0.128,-0.2582,0.133654,-0.613414,0.0878205,0.0488373,0.0502122,0.0466377
-0.177762,0.129073,-0.256602,-0.02693,-0.274365,0.0656079,0.0131246,0.0574563,0.0967212
-0.176565,0.125503,-0.255867,-0.323882,0.384519,0.0739144,-0.012866,0.0412959,0.162593
-0.165567,0.115623,-0.255488,-0.614578,0.633958,0.128362,0.00215152,0.0318847,0.111362
-0.154916,0.102172,-0.255413,-0.647383,0.339198,0.0746524,0.0408671,0.0417219,0.0372238
-0.153881,0.0915187,-0.256187,-0.374673,-0.228933,0.0371387,0.0776052,0.0272125,-0.0541445
-0.160606,0.0873641,-0.255291,-0.0320846,-0.346567,0.112055,0.0635879,-0.0101437,-0.0367147
-0.166701,0.0879727,-0.252423,0.0970834,-0.239579,0.144424,0.023336,-0.0273598,-0.0115572
-0.17105,0.0890776,-0.249313,0.0528286,-0.155314,0.140556,-0.00662015,-0.0431202,-0.0316687
-0.172381,0.0884979,-0.246592,-0.0799894,0.0969314,0.130597,-0.0284068,-0.0557215,-0.00457716
-0.166865,0.0841393,-0.245186,-0.338185,0.413799,0.0713886,-0.0346762,-0.0577446,0.0354478
-0.158573,0.0751073,-0.245782,-0.516765,0.353266,0.0203145,-0.0182411,-0.0444548,-0.0416058
-0.154243,0.065867,-0.247639,-0.37056,0.0251319,-0.0660165,-0.00800118,-0.0232614,-0.140968
-0.1591,0.0632433,-0.250514,0.103903,-0.492106,-0.187842,0.00610438,0.00497365,-0.211259
-0.169765,0.0702324,-0.254034,0.461421,-0.511259,-0.235682,-0.00741456,0.00793417,-0.142202
-0.17645,0.0798987,-0.256244,0.409379,-0.154445,-0.129267,-0.0270204,-0.00986216,-0.0516112
-0.177347,0.0867267,-0.256116,0.276015,0.0266389,-0.00218322,-0.0143539,-0.0187896,-0.0275324
-0.176729,0.091819,-0.255099,0.256438,0.0208488,0.00645842,-0.00623521,0.00320442,-0.0231712
-0.177386,0.0969269,-0.254109,0.260047,-0.0853156,0.00126787,-0.00840724,0.0092966,-0.0196862
-0.178837,0.101771,-0.253132,0.214687,0.0244097,0.0119184,-0.0204836,0.0047934,-0.00121927
-0.175604,0.104858,-0.252044,0.0911681,0.289985,0.0373236,-0.0317772,-0.00837118,0.0532488
-0.168165,0.104826,-0.251139,-0.0638611,0.415031,0.0531043,-0.0147284,-0.00504578,0.0539681
-0.161843,0.103207,-0.250457,-0.0462641,0.18482,0.027208,0.0165417,-0.00748042,-0.0115141
-0.161843,0.103207,-0.250457,-0.0462641,0.18482,0.027208,0.0165417,-0.00748042,-0.0115141
-0.161194,0.104111,-0.250557,0.146073,-0.117713,-0.0535113,0.0229093,0.0211139,-0.0414557
-0.165672,0.10904,-0.251456,0.306927,-0.293109,-0.106635,0.0245468,0.030455,-0.0444828
-0.169274,0.115372,-0.252581,0.257165,-0.0317333,-0.0846617,0.00183478,0.0262949,0.0312174
-0.167555,0.11913,-0.25262,0.107833,0.174195,0.00945926,0.0154127,0.0100841,0.0596804
-0.163589,0.119881,-0.251899,-0.00788142,0.168769,0.0392612,0.0357908,0.0234183,0.0654749
-0.162263,0.119325,-0.251337,-0.0178191,0.000166377,0.0242435,0.0600764,0.0278865,0.0128669
-0.163198,0.119131,-0.250742,0.0043612,-0.0899069,0.0369307,0.062095,0.0328205,0.0328198
-0.16541,0.11892,-0.249952,-0.0083484,-0.142106,0.0447402,0.0573234,0.0369598,0.0278771
-0.171066,0.11944,-0.248983,0.10894,-0.401094,0.0369185,0.0492082,0.0192265,-0.0434214
-0.179263,0.123215,-0.246966,0.278597,-0.335468,0.0468378,-0.0104401,0.0223631,-0.00418216
-0.183081,0.127387,-0.245557,0.113398,-0.0118844,0.0504081,-0.0340756,0.0174089,0.0410091
-0.179232,0.126387,-0.243568,-0.156896,0.415836,0.152957,-0.0381747,0.0015845,0.0730258
-0.167476,0.120628,-0.240954,-0.34397,0.712539,0.190612,-0.0329733,-0.00150619,0.0865097
-0.155463,0.112819,-0.238844,-0.347825,0.424952,0.119015,-0.00178601,0.0122534,-0.00917023
-0.152365,0.107843,-0.238312,-0.108657,-0.0834663,0.0163647,0.02507,0.0335836,-0.0855187
-0.15559,0.10782,-0.238464,0.0707647,-0.176974,-0.0197287,0.0127515,0.0381987,-0.0567111
-0.158275,0.109472,-0.238329,0.0900355,-0.0795902,0.0132151,0.00391595,0.0321659,-0.0329065
-0.159281,0.111538,-0.237509,0.129383,-0.0517203,0.0312265,0.0142512,0.0360968,-0.0148112
-0.161762,0.11429,-0.236476,0.154675,-0.169991,0.0206191,0.0303226,0.0360383,-0.0326469
-0.16472,0.117404,-0.235604,0.15509,-0.0786321,0.0202519,0.0186827,0.0292131,0.00546086
-0.1653,0.119679,-0.234783,0.0698727,0.00239403,0.0189568,0.0153608,0.019479,0.0319412
-0.165218,0.120029,-0.234248,-0.00697612,0.00719931,0.0361022,0.032211,0.0137689,0.0240397
-0.164537,0.119207,-0.233257,-0.0459062,0.0761993,0.0672021,0.031133,0.0156381,0.0232556
-0.162921,0.117779,-0.231953,-0.0528981,0.0634901,0.0870027,0.0259611,0.021499,0.0160695
-0.16278,0.116882,-0.229866,0.014346,-0.0116225,0.14623,0.0234293,0.0198445,-0.0134367
-0.163259,0.117273,-0.226707,0.0738079,-0.0302653,0.112154,-0.00404769,0.0184019,-0.00417483
-0.163498,0.118012,-0.225089,0.0118652,0.0188497,0.0541131,-0.0237707,0.0109269,0.0215799
-0.162597,0.117308,-0.224099,-0.0532568,0.0853057,0.0608531,-0.0276315,-0.00434449,0.0298024
-0.160825,0.115845,-0.2228,-0.0613196,0.07746,0.0759958,-0.0280283,-0.0101615,0.0177872
-0.16013,0.114468,-0.221907,-0.0442893,-0.00449415,0.0315784,-0.0271747,-0.0087067,0.0116756
-0.161303,0.113554,-0.221651,-0.0314666,-0.0939032,0.00443852,-0.0219183,-0.0174117,0.00478631
-0.164068,0.113024,-0.221978,-0.0364899,-0.152167,-0.0270649,-0.0196855,-0.00837145,-0.00371724
-0.167264,0.112697,-0.222673,-0.0239995,-0.125984,-0.0274378,-0.0152045,0.00189324,-0.0173729
-0.169088,0.112401,-0.223108,-0.0304906,-0.0536143,-0.0170495,-0.016006,0.00149301,-0.00961751
-0.169839,0.111884,-0.223861,-0.0307623,-0.0243805,-0.0397829,-0.0208301,0.0183432,-0.0245025
-0.170883,0.111913,-0.224704,0.00529525,-0.0690494,-0.0566198,-0.00790609,0.00825553,-0.0394064
-0.171664,0.112637,-0.226039,0.0496068,-0.0227885,-0.0707597,-0.014663,0.00981455,-0.0159369
-0.171985,0.114161,-0.226984,0.0758856,-0.028673,-0.0521769,-0.00368194,0.000112936,-0.0231956
-0.173004,0.115651,-0.227915,0.0559947,-0.0783089,-0.0627534,0.0116752,0.000723816,-0.00808054
-0.174447,0.11633,-0.228991,-0.0110676,-0.0490682,-0.0572577,0.0142332,-0.0037289,0.00470155
-0.173737,0.115415,-0.230117,-0.0854706,0.110485,-0.034966,0.0034095,-0.0119624,0.0231318
-0.170904,0.113743,-0.23098,-0.0708674,0.135049,-0.0287757,0.00912283,-0.007367,-0.00549424
-0.168922,0.113384,-0.231742,0.0262769,0.0432706,-0.0356298,0.0156578,0.00407167,-0.030695
-0.168864,0.114624,-0.232374,0.0726835,-0.0423034,-0.0559361,0.0124038,0.00620382,-0.0374314
-0.169875,0.116464,-0.233649,0.0813773,-0.0423994,-0.0942607,-0.000909388,0.00623065,-0.0255874
-0.169507,0.118438,-0.235232,0.0761559,0.0584259,-0.097764,-0.00495569,-0.00531236,-0.0055511
-0.167347,0.119591,-0.237069,0.0190146,0.115893,-0.0953437,-0.00152379,-0.00271791,-0.00436521
-0.164846,0.120175,-0.238859,0.036776,0.067648,-0.0946953,0.0110007,-0.00448821,0.000386119
-0.164548,0.121614,-0.240693,0.0741691,-0.0390072,-0.11196,0.0161427,0.0019904,-0.0127827
-0.164738,0.123172,-0.242817,0.0369018,0.0116963,-0.108811,0.00973612,0.00309453,0.0195
-0.163738,0.123995,-0.2446,0.0214556,0.0662378,-0.0809178,0.0174234,-0.0013229,0.0237125
-0.163738,0.123995,-0.2446,0.0214556,0.0662378,-0.0809178,0.0174234,-0.0013229,0.0237125
-0.162589,0.124767,-0.245899,0.0369389,0.0193468,-0.0569893,0.0281382,0.00772897,0.0196376
-0.162668,0.125711,-0.246642,0.043199,-0.035619,-0.0285861,0.0328813,0.00967249,0.015648
-0.162968,0.126369,-0.24671,0.0288415,0.0175007,0.0134843,0.0170634,0.00831127,0.01828
-0.161962,0.126882,-0.245814,0.039126,0.0880374,0.0646113,0.0156407,0.00853044,0.00760484
-0.159642,0.12745,-0.244007,0.0473708,0.143796,0.0955918,0.0139226,0.00830083,0.000913501
-0.156804,0.128061,-0.24213,0.0420129,0.14324,0.0735504,-0.000207052,0.00474103,-0.0106826
-0.154467,0.128679,-0.240898,0.0431307,0.0812397,0.0385497,-0.00610954,-0.00325198,-0.0177411
-0.15361,0.129419,-0.240366,0.0427301,0.0253758,0.00641139,0.00238957,-0.0101783,-0.0208634
-0.152458,0.130023,-0.240365,0.024395,0.0986014,-0.0123792,-0.00480953,-0.0107699,-0.00703341
-0.14964,0.130364,-0.240675,0.0123609,0.165219,-0.018676,-0.00971447,-0.00637232,-0.00644326
-0.145947,0.130537,-0.240993,-0.0035708,0.224773,-0.0209564,-0.0028414,-0.000707835,-0.0104734
-0.140634,0.130274,-0.241484,-0.0252903,0.271998,-0.0183577,-0.00615869,0.00290741,0.00465602
-0.135805,0.129974,-0.242011,-0.00859888,0.215238,-0.0296113,0.00361538,0.00734004,-0.0168778
-0.132109,0.130543,-0.242582,0.0480386,0.156775,-0.0386336,0.00574172,0.0115352,-0.0164005
-0.12955,0.132026,-0.243373,0.0880709,0.112892,-0.0566134,0.00468093,0.0221919,-0.0143242
-0.127112,0.134148,-0.244291,0.1091,0.138016,-0.0603872,-0.00106314,0.0227536,0.0024448
-0.124214,0.136368,-0.245266,0.109039,0.14456,-0.0583562,0.00107106,0.0286916,0.00603241
-0.12124,0.138458,-0.246186,0.0914257,0.130925,-0.0644362,-0.000789531,0.0330511,0.0196435
-0.118745,0.139495,-0.247586,0.0109553,0.107677,-0.0847687,-0.0041595,0.0308892,0.029379
-0.116444,0.139163,-0.249354,-0.0334917,0.0886605,-0.0841159,-0.00919454,0.0232052,0.0346819
-0.114706,0.13856,-0.251023,-0.019414,0.0688952,-0.0757178,-0.00357039,0.020533,0.0209252
-0.113447,0.138412,-0.252296,-0.000381761,0.0365936,-0.0455177,0.00584342,0.0125435,0.0177
-0.113024,0.138441,-0.252729,0.00110517,0.00453298,0.00385555,0.0135748,0.00779574,0.0225804
-0.113257,0.138267,-0.252474,-0.0149711,-0.0100109,0.0145949,0.00375121,0.0028629,0.0244093
-0.113191,0.137481,-0.252373,-0.0600216,0.0190097,0.00705261,-0.00991159,0.00461745,0.0272705
-0.11287,0.136085,-0.252284,-0.0678374,0.0104073,0.0167274,-0.00355317,0.0047141,0.00544655
-0.113071,0.134849,-0.252335,-0.0591705,-0.046077,-0.00916209,-0.00213175,0.0144302,-0.0133004
-0.113969,0.133781,-0.252831,-0.053172,-0.0265201,-0.0180887,-0.00211626,0.019857,-0.0269768
-0.113526,0.132525,-0.253137,-0.0731556,0.0586287,-0.00410897,-0.0115057,0.0185818,-0.0195133
-0.112177,0.131128,-0.253409,-0.06196,0.0794532,-0.00856422,-0.0132254,0.0241701,-0.0385132
-0.110149,0.130504,-0.253782,-0.00309901,0.1005,-0.0207364,-0.015902,0.0230168,-0.0334789
-0.108778,0.130682,-0.254349,0.0204349,0.0325798,-0.0389396,-0.00838979,0.0189513,-0.0343453
-0.108281,0.13117,-0.255186,0.0254393,0.00990627,-0.0451809,-0.00997043,0.0126455,-0.00106055
-0.107861,0.131592,-0.256175,0.0155571,0.027786,-0.0560315,-0.0142194,0.00757092,0.00416303
-0.106931,0.131789,-0.257373,0.00036728,0.0510222,-0.063765,-0.0163147,0.00257814,0.0158482
-0.105923,0.131613,-0.258726,-0.0243726,0.026642,-0.070321,-0.0157487,0.000983998,0.0125746
-0.105553,0.130984,-0.260301,-0.032666,0.00712938,-0.0755015,-0.0189733,-0.000432521,0.000106573
-0.105422,0.130902,-0.261882,0.0166354,-0.00963862,-0.0839747,-0.0261514,0.00223301,-0.00412625
-0.106095,0.131984,-0.263735,0.0718666,-0.0731985,-0.110467,-0.0293332,0.0109956,-0.0128673
-0.107367,0.133865,-0.265895,0.0764481,-0.0515775,-0.115791,-0.0234514,0.00764118,0.0120801
-0.107726,0.134906,-0.267981,-0.000407229,0.00210756,-0.102465,-0.0244402,0.00273721,0.0331282
-0.107494,0.134285,-0.270034,-0.0725636,-0.011098,-0.0976561,-0.0158105,7.73519e-05,0.0293753
-0.108158,0.132744,-0.27209,-0.0814393,-0.0617408,-0.0928407,-0.00315577,0.00335683,-0.00110072
-0.109209,0.131513,-0.274035,-0.0544678,-0.0425163,-0.0844493,-0.00404012,0.00663736,-0.0176083
-0.10979,0.130863,-0.275827,-0.0334518,-0.0261774,-0.0897118,-0.00579268,0.0110437,-0.025033
-0.110073,0.130741,-0.277626,0.00483588,-0.016133,-0.0847277,-0.00522266,0.0163859,-0.0273215
-0.110519,0.131515,-0.279325,0.0545975,-0.0511573,-0.0926986,-0.00200204,0.0146965,-0.0346119
-0.111516,0.133077,-0.281235,0.0725908,-0.0694459,-0.111997,0.00147554,0.0104312,-0.0131519
-0.112601,0.134349,-0.283226,0.036159,-0.0598645,-0.0893248,0.0114054,0.000461042,0.0142388
-0.113716,0.134701,-0.284723,-0.000910561,-0.079813,-0.0671335,0.019197,-0.00369158,0.0237717
-0.115491,0.134767,-0.285896,0.00859668,-0.11854,-0.0482,0.0275499,-0.00373229,0.0142996
-0.115491,0.134767,-0.285896,0.00859668,-0.11854,-0.0482,0.0275499,-0.00373229,0.0142996
-0.118002,0.135003,-0.286914,0.0104734,-0.141661,-0.0598266,0.0195963,0.00280364,0.00744742
-0.120331,0.135031,-0.28833,-0.025258,-0.115646,-0.0756565,0.00523935,0.00167155,0.0150277
-0.121816,0.134472,-0.289983,-0.0510278,-0.0661648,-0.0840352,0.00458854,-0.000560969,0.00987387
-0.122268,0.133587,-0.291986,-0.0598582,-0.0337786,-0.0991874,0.00559668,0.00523026,7.95126e-05
-0.122526,0.132773,-0.2943,-0.0437238,-0.0347976,-0.113182,0.0177044,0.00819179,-0.0073517
-0.122862,0.132425,-0.29658,-0.0174449,-0.0428143,-0.105394,0.0248922,0.0152628,-0.0114819
-0.123544,0.132627,-0.298732,0.0110924,-0.0456717,-0.108804,0.0234995,0.0273498,-0.0165506
-0.123856,0.133174,-0.300796,0.0145932,-0.0175831,-0.0953916,0.0199223,0.0359178,-0.00755119
-0.123703,0.133522,-0.30258,0.00990961,-0.00138477,-0.0865585,0.0137231,0.0401695,-0.00103241
-0.123352,0.134212,-0.304383,0.051897,-0.00747152,-0.0924551,0.0108342,0.0352839,-0.00134039
-0.123331,0.135551,-0.306007,0.0617671,-0.0345928,-0.0811244,0.0240351,0.02271,0.00966829
-0.123514,0.136229,-0.307293,0.0013681,0.00520746,-0.049675,0.0267984,0.0135237,0.0206937
-0.122555,0.13511,-0.30819,-0.0955142,0.0627437,-0.0310654,0.0190222,0.00196365,0.0294444
-0.120934,0.132644,-0.308986,-0.12445,0.077194,-0.0180904,0.0182155,0.00411215,0.00805461
-0.119498,0.130353,-0.309641,-0.0947458,0.0436917,-0.0155036,0.0235674,0.00390074,-0.0145019
-0.118468,0.128876,-0.310182,-0.0447284,0.0389334,-0.0190201,0.0187458,0.000147179,-0.0179143
-0.117887,0.128431,-0.310815,-0.0179347,0.0100939,-0.0414559,0.0111768,-0.00081268,-0.0230997
-0.117119,0.128205,-0.311748,-0.017561,0.0438829,-0.0445271,0.00512901,-0.00550729,-0.0105612
-0.11592,0.127924,-0.312831,-0.0214923,0.0381132,-0.0624043,-0.00105277,-0.0121342,-0.0117147
-0.114969,0.127641,-0.3143,-0.0182202,0.0314775,-0.0739263,-0.00586189,-0.0108581,-0.00900674
-0.114285,0.12761,-0.315825,-0.00338299,0.0144036,-0.0698451,-0.0022931,-0.00872239,-0.00298953
-0.114154,0.127937,-0.317001,0.0174942,-0.0250675,-0.0545036,-0.00579912,-0.00620121,-0.00664765
-0.115194,0.128784,-0.318056,0.0502863,-0.0824791,-0.0561254,-0.0128585,0.00358064,-0.00154817
-0.116628,0.130143,-0.319058,0.0569687,-0.0669934,-0.0560872,-0.027961,-0.000976354,0.0242819
-0.117726,0.131158,-0.320091,0.0262228,-0.0594738,-0.0623102,-0.0421085,-0.00946143,0.030844
-0.118714,0.131408,-0.321551,-0.0216292,-0.0491437,-0.0741467,-0.0499287,-0.0155609,0.0386763
-0.119263,0.130313,-0.32329,-0.106538,-0.035287,-0.0847192,-0.0692232,-0.0261226,0.0497705
-0.119846,0.127861,-0.325574,-0.149426,-0.0467741,-0.110062,-0.0827561,-0.0199938,0.0302089
-0.121163,0.125759,-0.32821,-0.0785754,-0.126709,-0.128683,-0.0734319,-0.0215295,0.00834316
-0.124703,0.125595,-0.331436,0.000778733,-0.235256,-0.191346,-0.0630473,-0.0175263,-0.00154275
-0.128888,0.126429,-0.335773,-0.00646853,-0.181027,-0.236885,-0.0613673,-0.0244358,0.0248821
-0.132052,0.126497,-0.340458,-0.0588769,-0.184351,-0.225838,-0.0291733,-0.0207365,0.0242821
-0.135387,0.125603,-0.345363,-0.100279,-0.155638,-0.242269,-0.0164493,-0.0092794,0.0219382
-0.137519,0.124383,-0.350467,-0.0892503,-0.120907,-0.242656,-0.00311813,-0.00170081,0.0234644
-0.140081,0.123651,-0.355205,-0.0528347,-0.178728,-0.198686,0.0448681,0.00634739,-0.00108975
-0.144003,0.123347,-0.35871,-0.0333034,-0.261274,-0.143513,0.0680898,0.00461149,-0.0106521
-0.149123,0.123076,-0.361167,-0.0353974,-0.23858,-0.0901949,0.0540171,-0.00206687,-0.012597
-0.152247,0.122191,-0.362472,-0.0682338,-0.104917,-0.034853,-0.00123507,-0.0121613,0.0116416
-0.153864,0.121056,-0.36379,-0.051666,-0.0891807,-0.0828572,-0.0290163,0.00230674,-0.00290185
-0.155497,0.120783,-0.365965,-0.00930876,-0.111582,-0.119417,-0.0235953,-0.00226703,-0.0129762
-0.157606,0.121188,-0.368468,0.000388647,-0.130816,-0.120684,-0.00314751,-0.00166649,-0.0041194
-0.160174,0.121375,-0.370655,-0.0257312,-0.169787,-0.097031,0.010291,0.00292873,0.0026114
-0.163573,0.121054,-0.372627,-0.0279323,-0.176906,-0.08978,0.00564699,0.01973,-0.00764447
-0.167069,0.121029,-0.37412,0.00103562,-0.190428,-0.0483809,0.00778872,0.0278538,-0.0231052
-0.170893,0.121294,-0.374575,0.014946,-0.20149,-0.00192444,0.00235468,0.0315959,-0.0340901
-0.175653,0.121761,-0.374021,0.0348472,-0.301757,0.0473549,-0.00064525,0.0307008,-0.0351588
-0.183377,0.122515,-0.372884,0.0650313,-0.433283,0.0455696,-0.00502095,0.0219733,-0.0392119
-0.191891,0.123872,-0.371695,0.0894622,-0.393222,0.0440052,-0.0167396,0.00676489,-0.010587
-0.198904,0.125166,-0.370585,0.0562494,-0.298356,0.0289669,-0.0163377,-0.00949921,0.00597066
-0.204393,0.126156,-0.370223,0.0563137,-0.25405,-0.0149543,-0.00683099,-0.0149403,0.00399536
-0.209749,0.127475,-0.370749,0.060866,-0.285072,-0.0679086,0.0264254,-0.0214597,-0.00894839
-0.214956,0.128875,-0.372217,0.0427538,-0.247113,-0.0932985,0.03371,-0.0249698,-0.0017584
-0.214956,0.128875,-0.372217,0.0427538,-0.247113,-0.0932985,0.03371,-0.0249698,-0.0017584
-0.218511,0.129861,-0.373923,0.0231303,-0.120162,-0.0921646,0.0259406,-0.0457664,-0.000412881
-0.220274,0.131138,-0.375789,0.0700848,-0.102627,-0.122042,0.0139534,-0.0457669,-0.012903
-0.222474,0.133734,-0.378313,0.113217,-0.143103,-0.180046,0.0150601,-0.0411024,-0.00674319
-0.22499,0.136185,-0.381931,0.0254581,-0.158477,-0.223548,0.0161966,-0.0354849,0.0273859
-0.227217,0.136335,-0.386801,-0.134877,-0.139204,-0.231678,0.0344714,-0.0298887,0.0301214
-0.228535,0.134088,-0.391942,-0.196899,-0.0707508,-0.20671,0.0518485,-0.02087,0.00434953
-0.228768,0.131847,-0.396834,-0.138565,-0.0462885,-0.215249,0.0642104,-0.00407852,-0.0277926
-0.229059,0.131337,-0.401428,-0.0336701,-0.0410931,-0.20277,0.0716328,0.00899667,-0.0489112
-0.229315,0.132143,-0.405076,0.00139604,-0.039269,-0.166408,0.0686516,-0.0118873,-0.0320126
-0.229463,0.13297,-0.408373,-0.00241636,-0.0270968,-0.167953,0.0551741,-0.0223741,-0.00274879
-0.229493,0.133148,-0.412246,-0.0757624,-0.0561985,-0.200059,0.0414343,-0.0385702,0.0169358
-0.229713,0.132142,-0.416978,-0.110802,-0.0443945,-0.230743,0.0332692,-0.0400254,0.0193351
-0.229431,0.131212,-0.422224,-0.0930228,-0.0215712,-0.245985,0.0328876,-0.030434,0.0107285
-0.228968,0.130739,-0.427526,-0.0910522,-0.0420468,-0.255783,0.0381001,-0.0268749,0.0133802
-0.229575,0.130182,-0.43322,-0.0979004,-0.101242,-0.267637,0.0439824,-0.0290907,0.01072
-0.231144,0.129781,-0.438973,-0.100734,-0.148222,-0.262504,0.0727763,-0.0439992,0.0261167
-0.233804,0.128619,-0.444642,-0.156891,-0.196476,-0.244193,0.087264,-0.0474249,0.0257767
-0.23668,0.125813,-0.450058,-0.241252,-0.147025,-0.214541,0.086688,-0.0636209,0.0226657
-0.238347,0.121481,-0.455292,-0.283346,-0.0971172,-0.182985,0.0661897,-0.0576048,-0.0160989
-0.239604,0.117002,-0.460011,-0.241416,-0.0821227,-0.169011,0.0562976,-0.059488,-0.0809707
-0.240837,0.114245,-0.464407,-0.12353,-0.0930308,-0.189343,0.0421214,-0.0662099,-0.12145
-0.2421,0.114169,-0.468661,0.0227603,-0.0743069,-0.210408,0.0284947,-0.0921941,-0.128181
-0.243242,0.11685,-0.472333,0.13562,-0.102083,-0.208548,0.0167651,-0.111702,-0.102478
-0.245634,0.120728,-0.476092,0.127913,-0.167224,-0.248719,9.93013e-05,-0.12073,-0.0719587
-0.248409,0.123691,-0.481021,0.0443182,-0.157924,-0.294857,-0.0213511,-0.124458,-0.0460505
-0.250112,0.125538,-0.487072,-0.00520974,-0.100121,-0.326002,-0.0163063,-0.120412,-0.0409984
-0.251546,0.127329,-0.493597,0.0351242,-0.124637,-0.339439,0.00231875,-0.111753,-0.0741172
-0.253161,0.130854,-0.499851,0.160965,-0.117784,-0.344628,0.0126825,-0.0996372,-0.0763602
-0.255344,0.136977,-0.505537,0.270105,-0.185759,-0.356353,0.0366049,-0.0971089,-0.0828837
-0.258849,0.144253,-0.511229,0.273591,-0.223404,-0.362075,0.0519693,-0.0985567,-0.0624895
-0.261685,0.150764,-0.51658,0.211027,-0.12436,-0.307595,0.0410213,-0.0977467,-0.0160557
-0.263036,0.155387,-0.521118,0.11966,-0.106371,-0.250896,0.0313402,-0.0879741,-0.0124595
-0.264868,0.15891,-0.525251,0.147501,-0.121109,-0.234161,0.0211025,-0.0731877,-0.0537318
-0.266625,0.164549,-0.528946,0.289765,-0.147998,-0.262439,0.00354019,-0.0417282,-0.0394384
-0.2699,0.172255,-0.532865,0.328255,-0.234277,-0.316238,-0.00258511,-0.0311557,-0.0399526
-0.273415,0.179912,-0.537957,0.261865,-0.172494,-0.360297,-0.0195088,-0.01257,-0.00779521
-0.274339,0.185368,-0.544131,0.0933829,-0.0355599,-0.365161,-0.0253108,0.00730596,0.0279771
-0.272277,0.187916,-0.551129,-0.0124954,0.115959,-0.356274,-0.0205377,0.0373369,0.0228196
-0.268107,0.189557,-0.557905,0.0129619,0.138839,-0.323025,-0.00268665,0.0633478,0.0149645
-0.26462,0.192616,-0.563705,0.146405,0.0999929,-0.314732,-0.00142705,0.0832579,0.00697374
-0.261703,0.198153,-0.569145,0.22071,0.0875987,-0.344644,-0.0157461,0.0972647,0.0447968
-0.258623,0.204679,-0.575068,0.263031,0.119527,-0.360682,-0.0263065,0.134557,0.0611265
-0.254559,0.211485,-0.580531,0.252946,0.143448,-0.322042,-0.0141215,0.133572,0.100479
-0.250913,0.217115,-0.585079,0.162379,0.11617,-0.250348,0.0110445,0.123021,0.137412
-0.248715,0.219837,-0.588966,-0.00150124,0.0192695,-0.170003,0.0182646,0.116524,0.158153
-0.247618,0.217997,-0.591687,-0.247564,0.0528974,-0.0484823,0.00586557,0.0580257,0.184118
-0.245106,0.211866,-0.5939,-0.364581,0.150702,-0.0134585,-0.029963,0.0459017,0.178309
-0.241566,0.204985,-0.59594,-0.329417,0.142751,-0.010927,-0.0421365,0.024536,0.134902
-0.238378,0.199696,-0.597673,-0.218666,0.146122,-0.0291061,-0.0477865,-0.00188503,0.123798
-0.234765,0.196054,-0.599778,-0.204219,0.154831,-0.0855776,-0.0553199,0.00282927,0.152653
-0.234765,0.196054,-0.599778,-0.204219,0.154831,-0.0855776,-0.0553199,0.00282927,0.152653
-0.231018,0.192072,-0.602816,-0.242955,0.168418,-0.0954418,-0.0439489,-0.0154363,0.162824
-0.226842,0.187453,-0.605297,-0.26138,0.183177,-0.0277321,-0.0181277,-0.0209644,0.181815
-0.222822,0.181664,-0.606809,-0.349356,0.19217,0.0111016,-0.0108643,-0.0250681,0.187836
-0.218146,0.173177,-0.60808,-0.497879,0.267284,0.0496468,-0.0345135,-0.0289354,0.187009
-0.211533,0.162182,-0.608712,-0.561753,0.360196,0.132957,-0.0443068,-0.0349846,0.171789
-0.205689,0.150447,-0.607236,-0.533334,0.218144,0.24258,-0.0358579,-0.0555796,0.117246
-0.203588,0.139577,-0.603946,-0.466754,0.0609569,0.28436,-0.0580216,-0.0751242,0.0936941
-0.202928,0.129352,-0.600304,-0.463943,0.0722691,0.270398,-0.110159,-0.102224,0.0897823
-0.199682,0.11883,-0.597122,-0.505738,0.312913,0.256084,-0.145708,-0.138117,0.0860109
-0.191609,0.107174,-0.594674,-0.583099,0.46938,0.193277,-0.148163,-0.166286,0.0485611
-0.183238,0.0951979,-0.594359,-0.560832,0.331471,0.0519685,-0.124183,-0.173989,-0.0296009
-0.178671,0.0853429,-0.596745,-0.43117,0.107659,-0.109157,-0.0971401,-0.156124,-0.0985109
-0.17814,0.0792963,-0.601206,-0.241756,-0.0802367,-0.211723,-0.0642481,-0.138392,-0.1423
-0.179478,0.0769822,-0.606763,-0.0838781,-0.0526963,-0.287425,-0.0389472,-0.119932,-0.170695
-0.178469,0.0775883,-0.612748,0.0212242,0.116995,-0.291447,-0.0292639,-0.100483,-0.170669
-0.173465,0.0790227,-0.618273,0.0068454,0.327099,-0.269438,-0.00939988,-0.087487,-0.171356
-0.166045,0.0794832,-0.623486,-0.0490409,0.327855,-0.244249,0.0216495,-0.066627,-0.192557
-0.160722,0.0796787,-0.62846,0.00913681,0.164009,-0.250706,0.0617604,-0.0508682,-0.22154
-0.157922,0.0822224,-0.633115,0.159365,0.0984212,-0.238146,0.0771758,-0.0222403,-0.200732
-0.155586,0.0866753,-0.637088,0.179382,0.111105,-0.216883,0.0872997,-0.00382619,-0.159495
-0.152827,0.0891942,-0.640658,-0.0140582,0.125916,-0.16308,0.110169,0.0201215,-0.124715
-0.149961,0.0874727,-0.642991,-0.151641,0.142225,-0.0324168,0.14004,0.0377702,-0.125553
-0.147529,0.0852014,-0.642236,-0.0247069,0.0749179,0.139824,0.167106,0.0574342,-0.12938
-0.148538,0.0867736,-0.637575,0.25336,-0.154043,0.288248,0.179678,0.0675608,-0.124321
-0.154312,0.093103,-0.629803,0.467867,-0.317757,0.362246,0.161595,0.0697142,-0.0686827
-0.161592,0.102227,-0.620556,0.554664,-0.291473,0.398083,0.135529,0.0640398,0.0152975
-0.166369,0.112038,-0.610782,0.55731,-0.0584068,0.392458,0.0962658,0.064151,0.095198
-0.166999,0.121448,-0.60173,0.512155,0.0660038,0.31971,0.0629182,0.0679115,0.139454
-0.166601,0.130032,-0.595445,0.413058,0.0452403,0.141225,0.030307,0.100461,0.169052
-0.165967,0.135833,-0.593511,0.169621,0.0652496,-0.0576326,-0.0112119,0.135126,0.182253
-0.161674,0.137167,-0.596806,-0.0880322,0.348385,-0.279719,-0.0763204,0.179371,0.190488
-0.151247,0.134285,-0.604622,-0.301769,0.557388,-0.422219,-0.0751421,0.194231,0.145425
-0.138015,0.12846,-0.614889,-0.387532,0.589072,-0.47216,-0.0397038,0.22619,0.0830225
-0.12619,0.123123,-0.624417,-0.238548,0.457373,-0.364182,0.0149177,0.217798,0.0238758
-0.117784,0.120075,-0.630261,-0.127278,0.30676,-0.218778,0.0319185,0.17954,0.0298053
-0.112049,0.119285,-0.635643,-0.053236,0.243512,-0.303383,0.0167056,0.14865,0.0727577
-0.10534,0.116835,-0.642134,-0.262121,0.359493,-0.291438,-0.0209835,0.119606,0.0980592
-0.0973539,0.110611,-0.647834,-0.405575,0.29439,-0.206431,0.00944795,0.121326,0.0986798
-0.0949557,0.101729,-0.65239,-0.499998,-0.1127,-0.167916,0.0332114,0.0916963,0.0234905
-0.0991104,0.0918446,-0.657276,-0.513923,-0.268871,-0.236344,-0.019343,0.0954997,0.00756115
-0.101854,0.082905,-0.663986,-0.436371,-0.0447767,-0.330097,-0.0938011,0.11876,-0.0107815
-0.100937,0.0756546,-0.672008,-0.362507,0.000116748,-0.382838,-0.0954916,0.106909,-0.0717937
-0.102628,0.070023,-0.68118,-0.263636,-0.199653,-0.456792,-0.0900485,0.107869,-0.156824
-0.105404,0.0673331,-0.69088,-0.116323,-0.107054,-0.468701,-0.0904637,0.124228,-0.149969
-0.104426,0.0669041,-0.700825,-0.0300628,0.167545,-0.512574,-0.0950785,0.138143,-0.147779
-0.0973131,0.0680281,-0.711529,0.00771048,0.417352,-0.570635,-0.0936169,0.143919,-0.123076
-0.087103,0.0695555,-0.723982,0.0500761,0.514397,-0.649069,-0.0863895,0.163188,-0.165349
-0.087103,0.0695555,-0.723982,0.0500761,0.514397,-0.649069,-0.0863895,0.163188,-0.165349
-0.075947,0.0725957,-0.736954,0.136894,0.47534,-0.650631,-0.0423068,0.157981,-0.137452
-0.0676608,0.0762958,-0.748668,0.143199,0.199576,-0.52667,0.0371544,0.138127,-0.0979487
-0.0695371,0.0787795,-0.75887,-0.216454,-0.820712,-0.669621,0.0768492,0.129373,-0.0504936
-0.0830911,0.0658975,-0.77453,-0.0261122,0.0911446,-0.947706,-0.333536,1.60134,0.299685
-0.084492,0.0717378,-0.792224,0.495935,-0.0106802,-0.874724,0.0216439,0.0439511,-0.0264701
-0.0872407,0.0819608,-0.803087,0.188266,-0.501444,-0.0469579,0.121658,-0.0290165,0.332666
-0.103185,0.0700222,-0.796456,-1.43968,-0.753303,0.487964,0.163755,-0.117794,0.277812
-0.104061,0.0342932,-0.800642,-1.78906,0.657847,-0.489044,-0.255914,0.204102,0.378375
-0.0850574,0.0085761,-0.818436,-0.844315,0.865958,-0.937691,-0.142267,-0.0613703,-0.120763
-0.0790632,0.00444764,-0.837653,0.244069,-0.321598,-0.901885,0.123307,-0.167839,-0.466436
-0.0923933,0.0166391,-0.8539,0.689928,-0.839581,-0.815661,0.148371,-0.168451,-0.373147
-0.106017,0.030098,-0.870318,0.289483,-0.498818,-1.04083,-0.0645329,0.169513,-0.160331
-0.110357,0.033769,-0.889336,-0.133069,0.17504,-0.986849,0.110558,-0.418355,-0.012387
-0.098555,0.0291807,-0.903483,-0.448737,0.832521,-0.0171575,0.0695603,-0.124128,0.126422
-0.0826494,0.0172754,-0.897692,-0.479799,0.666675,0.48169,0.358269,0.476625,-0.148277
-0.070645,0.0174121,-0.886244,0.5856,0.547317,0.686702,0.202503,0.482286,-0.173834
-0.0647792,0.0343305,-0.867132,1.09596,0.0303954,1.06766,0.225355,0.454749,-0.0695952
-0.068302,0.0544364,-0.840449,1.01862,-0.151216,1.47006,0.210558,0.413357,0.156972
-0.0696661,0.068855,-0.80444,0.650158,0.27845,2.06532,0.222811,0.342238,0.314562
-0.065774,0.0740033,-0.754892,0.202241,0.340697,2.76818,0.320933,0.25962,0.266026
-0.067153,0.0706902,-0.695352,-0.0908846,-0.090946,3.10671,0.391825,0.203841,0.109848
-0.0783692,0.062049,-0.631097,-0.387763,-0.565642,3.29631,0.430006,-0.0043055,0.0617084
-0.0941362,0.0426806,-0.564816,-0.952489,-0.554434,3.41003,0.432321,-0.257396,-0.0543759
-0.103469,0.013651,-0.496721,-1.17792,-0.233978,3.66835,0.453449,-0.460425,-0.245126
-0.110529,-0.0157802,-0.424701,-0.869367,-0.547665,3.69551,0.45935,-0.571825,-0.576233
-0.122772,-0.0344098,-0.353076,-0.121137,-0.834258,3.5874,0.360367,-0.660883,-0.670651
-0.137131,-0.0389691,-0.281972,0.557377,-0.772584,3.5026,0.200303,-0.614231,-0.589211
-0.145442,-0.0331168,-0.21108,0.970494,-0.256863,3.33751,0.00538483,-0.558456,-0.374946
-0.142319,-0.0207143,-0.145599,1.15897,0.364863,2.89168,-0.177344,-0.465155,-0.164269
-0.129829,-0.00381879,-0.091194,1.24029,0.777086,2.23166,-0.29267,-0.367283,-0.00242651
-0.112957,0.0161714,-0.0488568,1.23073,0.85057,1.76831,-0.321532,-0.284611,0.130887
-0.0998763,0.037428,-0.0119959,1.30495,0.49698,1.69855,-0.338683,-0.221858,0.171459
-0.0985841,0.0632297,0.0243276,1.62481,-0.231904,1.56796,-0.445794,-0.19934,0.157417
-0.111349,0.0958378,0.0531196,1.82971,-0.694214,0.84622,-0.595399,-0.183178,0.222279
-0.123981,0.128353,0.0643563,1.40008,-0.319553,-0.111865,-0.659626,-0.192998,0.400757
-0.120707,0.149144,0.0577636,0.563809,0.593597,-0.714898,-0.606646,-0.198057,0.454131
-0.0981715,0.155209,0.0405036,-0.0790357,1.2997,-1.00847,-0.460598,-0.145172,0.301597
-0.0669009,0.154079,0.0180988,-0.112109,1.36296,-1.1609,-0.279583,-0.0608551,0.0382957
-0.0394659,0.156942,-0.00635922,0.292536,0.955195,-1.23853,-0.152939,0.0276362,-0.143598
-0.0209371,0.167342,-0.0307007,0.632067,0.505611,-1.14693,-0.0596792,0.0807008,-0.168375
-0.010739,0.181785,-0.0519099,0.733643,0.164301,-0.941094,0.0243863,0.0619499,-0.134363
-0.00624043,0.195972,-0.0687861,0.645652,0.00145599,-0.731187,0.0663474,0.0547355,-0.0839337
-0.00338522,0.207918,-0.0822941,0.534319,0.0168487,-0.582786,0.0639812,0.0547661,-0.040067
-0.00108278,0.217705,-0.0928092,0.438515,-0.00330715,-0.471838,0.0554395,0.0165422,-0.0464626
0.00169644,0.224982,-0.103142,0.282566,0.0829968,-0.534772,0.0855656,0.0264797,-0.0235859
0.00803536,0.229087,-0.113813,0.13488,0.300675,-0.467392,0.181643,0.0809091,-0.010929
0.0173572,0.230748,-0.120502,0.0590017,0.443421,-0.122391,0.293422,0.116096,-0.048639
0.0252698,0.231522,-0.116956,0.0272835,0.356714,0.532534,0.372365,0.141996,-0.0842434
0.0252698,0.231522,-0.116956,0.0272835,0.356714,0.532534,0.372365,0.141996,-0.0842434
0.0243904,0.233152,-0.100453,0.0605908,-0.0910856,0.920561,0.304137,0.11726,-0.157962
0.0131495,0.233785,-0.0829052,-0.0275217,-0.550078,0.751986,0.191035,0.18506,-0.263265
-4.97516e-05,0.232436,-0.0682691,-0.117186,-0.342914,0.710871,0.118441,0.247607,-0.238562
-0.00489034,0.229317,-0.0516966,-0.177582,0.269982,0.924189,0.0703904,0.32831,-0.206167
0.00100534,0.226304,-0.029762,-0.0799171,0.735735,1.19019,0.0507171,0.342908,-0.164994
0.0100358,0.227684,-0.00412494,0.223552,0.64991,1.25677,0.0128064,0.339645,-0.134241
0.0127779,0.235986,0.0207228,0.559332,0.158939,1.15191,-0.000567302,0.31063,-0.0461057
0.00592396,0.24955,0.0433052,0.737423,-0.251352,1.05182,0.00327753,0.266484,0.0874606
-0.0063936,0.263787,0.0646946,0.627685,-0.392397,1.01069,0.0111315,0.227688,0.228299
-0.0198926,0.272926,0.0854524,0.289961,-0.395831,0.966447,0.0311942,0.200931,0.264004
-0.0318137,0.274444,0.104915,-0.0857042,-0.249845,0.892338,0.0442288,0.192033,0.244422
-0.0397341,0.269478,0.122931,-0.319515,-0.0625584,0.861464,0.0607968,0.184289,0.175109
-0.0442193,0.261453,0.140792,-0.374806,0.0765167,0.891615,0.0694513,0.187272,0.100127
-0.0469496,0.25423,0.159285,-0.246569,0.091298,0.908707,0.0637954,0.174657,0.0374847
-0.0504252,0.250218,0.177863,-0.0729496,0.0327806,0.909935,0.0630554,0.154735,0.0137086
-0.0545531,0.248368,0.197095,-0.0339576,0.0352258,0.965548,0.0639613,0.110278,0.0426258
-0.0582345,0.246723,0.217815,-0.00583143,0.106524,1.03466,0.0540741,0.0708723,0.0685228
-0.0609779,0.245568,0.23927,-0.0108843,0.115033,1.02356,0.0364984,0.0440409,0.0994681
-0.0639755,0.243074,0.259259,-0.111115,0.0657986,0.923369,0.0140941,0.0332895,0.102177
-0.0673669,0.239425,0.277589,-0.128774,0.0182478,0.878628,0.0107693,0.0239944,0.110415
-0.0721563,0.235468,0.295227,-0.155093,-0.0975855,0.839749,0.00981684,0.0269074,0.101757
-0.079374,0.230879,0.31147,-0.170718,-0.23944,0.756381,-0.00897964,0.033796,0.0643642
-0.0882866,0.226187,0.325613,-0.191954,-0.320769,0.638151,-0.0236472,0.0285391,0.0557702
-0.0973369,0.221135,0.336969,-0.193655,-0.31461,0.505922,-0.0496077,0.023643,0.0236738
-0.104847,0.216835,0.345851,-0.142566,-0.230887,0.392193,-0.0565325,0.00679605,0.00718546
-0.109157,0.213225,0.352234,-0.15264,-0.0538922,0.271197,-0.0625028,0.00136229,-0.00174522
-0.109413,0.209483,0.356545,-0.163048,0.102647,0.187483,-0.0489538,-0.0272755,-0.0200351
-0.107392,0.206195,0.359403,-0.120004,0.135691,0.132271,-0.0302774,-0.0377707,-0.0475129
-0.105921,0.204467,0.361436,-0.0303632,0.0337333,0.0742333,-0.0217235,-0.0664706,-0.0817077
-0.106739,0.204666,0.361829,0.0440041,-0.0862536,-0.0444886,-0.0310024,-0.0904307,-0.107758
-0.107948,0.206127,0.359641,0.0742284,-0.0566528,-0.197681,-0.0493881,-0.105189,-0.111873
-0.106504,0.208853,0.354221,0.149198,0.0972155,-0.336542,-0.0698807,-0.0884079,-0.146704
-0.101395,0.213642,0.347136,0.245375,0.253037,-0.390934,-0.068804,-0.0798802,-0.154677
-0.0939168,0.220271,0.339426,0.330282,0.299105,-0.410314,-0.0487305,-0.0776182,-0.147282
-0.0867017,0.228538,0.331446,0.419361,0.231484,-0.441781,-0.0398649,-0.0689939,-0.137021
-0.0809076,0.238523,0.322172,0.462054,0.114252,-0.555678,-0.0426846,-0.0556019,-0.0813107
-0.0777206,0.246325,0.30948,0.159088,-0.0984407,-0.721446,-0.0344425,-0.0192505,-0.0256968
-0.0770466,0.245423,0.293819,-0.376283,-0.185629,-0.740193,-0.000973806,0.0148329,0.0238737
-0.0767033,0.234724,0.279436,-0.733722,-0.115817,-0.54702,-0.0043916,0.0733951,0.0134506
-0.0764329,0.220801,0.269048,-0.63469,-0.0980084,-0.362328,-0.0405465,0.166552,-0.0701714
-0.0762164,0.213621,0.261528,-0.0700738,-0.0782941,-0.330539,-0.0878043,0.234126,-0.103494
-0.0771209,0.219146,0.25436,0.543643,-0.184596,-0.424479,-0.123925,0.240269,-0.0522694
-0.0802067,0.233867,0.245033,0.751134,-0.320967,-0.605855,-0.10216,0.191107,0.088043
-0.0833875,0.24711,0.23119,0.395102,-0.278757,-0.826602,-0.0667306,0.150074,0.212165
-0.0819624,0.250926,0.212768,-0.177236,-0.0106974,-0.959262,-0.0311211,0.104182,0.296379
-0.0734865,0.243294,0.191519,-0.711956,0.324289,-1.01705,0.0075222,0.078319,0.290013
-0.0595357,0.227119,0.169136,-0.990277,0.523251,-1.02588,0.0408369,0.0784129,0.202634
-0.0439093,0.207757,0.147745,-1.01207,0.535614,-0.937955,0.0825937,0.0701111,0.112624
-0.0439093,0.207757,0.147745,-1.01207,0.535614,-0.937955,0.0825937,0.0701111,0.112624
-0.0308728,0.189017,0.129275,-0.902641,0.382029,-0.788089,0.117598,0.0543796,0.032945
-0.0233909,0.173312,0.114531,-0.679831,0.0905074,-0.613156,0.137708,0.0206661,-0.0257789
-0.022604,0.162571,0.103536,-0.406589,-0.204525,-0.442793,0.134395,-0.00570133,-0.0566047
-0.0274703,0.157019,0.0956091,-0.171771,-0.362701,-0.333805,0.110823,-0.025373,-0.070353
-0.0331791,0.155541,0.0895249,-0.00520207,-0.25345,-0.257305,0.0719419,-0.037621,-0.0430571
-0.0343993,0.156471,0.0850136,0.0710632,0.0851259,-0.187675,0.0421358,-0.0537614,-0.00607187
-0.0285397,0.15815,0.0818124,0.0849529,0.423772,-0.132867,0.0350766,-0.0641117,0.0129361
-0.0177047,0.160067,0.0797117,0.099209,0.591981,-0.0801908,0.059317,-0.0903413,0.00665426
-0.00481849,0.161674,0.078729,0.07011,0.630531,-0.0131866,0.0899607,-0.104792,0.012964
0.00652573,0.163397,0.0793552,0.108943,0.500163,0.0742451,0.107712,-0.113787,-0.00752705
0.0137908,0.16697,0.0816655,0.215524,0.276313,0.155324,0.124875,-0.117725,-0.0212794
0.0166017,0.172285,0.0854602,0.290467,0.103778,0.222117,0.121752,-0.112776,-0.0274982
0.0183215,0.178361,0.090304,0.326372,0.140466,0.260993,0.0995392,-0.103756,-0.0118181
0.0206808,0.185665,0.0959401,0.368506,0.230691,0.308554,0.0849617,-0.106095,-0.0269027
0.0255621,0.192903,0.102575,0.337099,0.359446,0.358649,0.0724642,-0.0939355,-0.0176328
0.0309016,0.199916,0.11001,0.324058,0.290161,0.369394,0.0740277,-0.0959688,-0.0356892
0.0345335,0.205677,0.117008,0.236715,0.19039,0.332468,0.0759728,-0.0845123,-0.0323724
0.0362777,0.209917,0.123707,0.157787,0.149286,0.353035,0.083957,-0.0772501,-0.0313692
0.0384605,0.212619,0.132219,0.0805184,0.262446,0.503243,0.0902682,-0.0828332,-0.0105154
0.0430008,0.214231,0.144377,0.0172948,0.408387,0.668909,0.0845668,-0.118062,0.00301611
0.0477217,0.213295,0.158314,-0.203456,0.318695,0.641754,0.0573203,-0.117954,-0.0279548
0.0496704,0.206921,0.170318,-0.474083,0.137664,0.495748,0.035775,-0.10249,-0.100069
0.0497891,0.197165,0.180383,-0.491398,0.10503,0.464353,0.0103998,-0.0387444,-0.183706
0.0506853,0.190233,0.191278,-0.22465,0.196575,0.570574,-0.00833731,0.031632,-0.239165
0.053249,0.189846,0.204167,0.124923,0.294501,0.684406,-0.0299439,0.0930347,-0.254756
0.057021,0.197258,0.218849,0.540682,0.377174,0.778013,-0.0735699,0.118375,-0.209859
0.0630705,0.212949,0.234033,0.908925,0.527081,0.760768,-0.116155,0.113427,-0.108714
0.0724511,0.234192,0.247038,1.06739,0.693605,0.624262,-0.147911,0.0990312,-0.000598609
0.0850234,0.255144,0.256189,0.899427,0.733209,0.410941,-0.136707,0.0767103,0.0879719
0.0971122,0.270329,0.261055,0.551681,0.560891,0.189455,-0.105981,0.063588,0.108846
0.105197,0.277316,0.262039,0.126207,0.259221,-0.0167151,-0.0615928,0.0635393,0.0777844
0.108231,0.275938,0.260693,-0.218097,0.0252026,-0.10387,-0.0432797,0.0965766,0.0339481
0.107968,0.269944,0.259045,-0.311021,-0.0803622,-0.11596,-0.0489852,0.153351,-0.0287647
0.106843,0.26498,0.257043,-0.125137,-0.0730097,-0.127569,-0.0780151,0.204074,-0.0705415
0.105771,0.26459,0.254269,0.104552,-0.104893,-0.147119,-0.100664,0.219201,-0.0800349
0.104737,0.267608,0.250472,0.210672,-0.0809196,-0.184095,-0.105493,0.199011,-0.034058
0.105285,0.271618,0.245959,0.228435,0.0268995,-0.193343,-0.101314,0.168421,0.0325277
0.108425,0.27578,0.241542,0.228699,0.163759,-0.183947,-0.0851422,0.127996,0.102406
0.113715,0.279671,0.23698,0.198067,0.214644,-0.213652,-0.0739818,0.0918661,0.141065
0.119081,0.282711,0.231775,0.157028,0.156791,-0.237786,-0.0524379,0.0519551,0.166667
0.122515,0.284224,0.226215,0.0533203,0.032269,-0.277617,-0.0375477,0.0157337,0.174334
0.124093,0.283476,0.219432,-0.0301143,-0.0620897,-0.373,-0.0409536,0.00830185,0.161477
0.124798,0.281624,0.210909,-0.0552186,-0.111846,-0.457245,-0.0419342,-0.00460073,0.138132
0.125061,0.279117,0.200623,-0.0602954,-0.135567,-0.544576,-0.0373426,-0.00493431,0.0873668
0.125829,0.277044,0.189102,-0.0120008,-0.0976098,-0.578502,-0.0318144,-0.0115357,0.0461825
0.127525,0.27537,0.176442,0.00513642,-0.0772032,-0.644144,-0.0243355,-0.00833949,0.00379604
0.130652,0.274723,0.162433,0.122913,0.0169605,-0.691344,-0.0210555,-0.00325596,-0.0333737
0.130652,0.274723,0.162433,0.122913,0.0169605,-0.691344,-0.0210555,-0.00325596,-0.0333737
0.136421,0.276595,0.1468,0.252307,0.138799,-0.775831,-0.0225226,-0.000401348,-0.059978
0.145392,0.279999,0.128847,0.325394,0.260243,-0.863026,-0.0104695,0.0140564,-0.0700499
0.157328,0.284696,0.109357,0.428321,0.381055,-0.892182,0.00903538,0.00729057,-0.0844702
0.171138,0.291467,0.0894686,0.516246,0.377522,-0.875915,0.0226853,-0.0281023,-0.0757307
0.181679,0.296866,0.0693275,0.302982,0.0520122,-0.933385,0.0248996,-0.0237591,-0.0722064
0.184343,0.295157,0.0484712,-0.125405,-0.372014,-1.04578,0.0258738,-0.0211215,-0.0772458
0.18018,0.284552,0.0279401,-0.531092,-0.582939,-1.03577,0.0124326,0.0167809,-0.0742589
0.173535,0.268881,0.0104415,-0.650941,-0.528125,-0.87708,-0.00851718,0.0773897,-0.0892445
0.167766,0.255314,-0.00360113,-0.398618,-0.432483,-0.693451,-0.0303723,0.122956,-0.129466
0.161098,0.249133,-0.0163852,-0.00448898,-0.589719,-0.646795,-0.0438772,0.15466,-0.176417
0.150457,0.250537,-0.030474,0.331925,-0.790655,-0.677739,-0.0420767,0.157775,-0.16393
0.138117,0.256986,-0.0458602,0.487874,-0.778814,-0.693533,-0.0431454,0.149384,-0.09248
0.127988,0.265029,-0.0615734,0.485859,-0.622147,-0.698814,-0.0406782,0.155325,-0.0248036
0.121611,0.271971,-0.0777311,0.374906,-0.444445,-0.771356,-0.04155,0.154098,0.0133497
0.119114,0.276088,-0.0955552,0.242115,-0.287195,-0.856646,-0.0261367,0.158412,0.0198718
0.119651,0.277456,-0.114255,0.103337,-0.173155,-0.898976,0.0127931,0.148116,0.0294948
0.121644,0.275927,-0.133061,-0.0311879,-0.159547,-0.896903,0.0572872,0.144617,0.0328369
0.12318,0.27204,-0.150788,-0.131949,-0.160102,-0.821315,0.103177,0.124089,0.0385222
0.124368,0.267126,-0.166034,-0.152346,-0.111624,-0.678909,0.134273,0.0958389,0.0436622
0.126594,0.262856,-0.178193,-0.122139,0.0198662,-0.540402,0.136991,0.0724465,0.0504231
0.131473,0.259481,-0.188134,-0.0860848,0.210634,-0.453706,0.127643,0.0485409,0.0486208
0.139271,0.256618,-0.196082,-0.0988733,0.353035,-0.323805,0.13698,0.0198025,0.0519587
0.148024,0.253234,-0.200318,-0.177667,0.381487,-0.123744,0.154537,-0.0118391,0.0652476
0.154543,0.249063,-0.200094,-0.212722,0.255706,0.0795495,0.164481,-0.0345405,0.0534188
0.156604,0.245705,-0.196323,-0.171604,0.0216105,0.212413,0.157649,-0.039276,0.0445983
0.153708,0.243387,-0.191012,-0.12823,-0.149065,0.252806,0.136107,-0.0315761,0.0326017
0.14933,0.242151,-0.185018,-0.0924968,-0.127132,0.307979,0.117666,-0.0324557,0.0537701
0.14587,0.241239,-0.176856,-0.112311,-0.0098265,0.474147,0.118271,-0.0281227,0.048224
0.144112,0.240324,-0.164889,-0.14494,0.0984736,0.650874,0.123453,-0.0235029,0.0424914
0.142739,0.239215,-0.150049,-0.157081,0.113163,0.738211,0.109171,-0.0116714,0.0115706
0.141233,0.23892,-0.133888,-0.0923517,0.107196,0.808674,0.0869434,-0.00315365,-0.00583804
0.138943,0.239853,-0.116331,-0.0567832,0.0859933,0.884931,0.0742547,0.000331685,-0.014627
0.136773,0.241736,-0.0974444,0.00136244,0.147474,0.945923,0.0521877,-0.000189304,-0.0185055
0.135724,0.244767,-0.0778129,0.0240965,0.213588,0.965772,0.0246093,-0.00333582,-0.0263383
0.136088,0.247578,-0.058128,-0.00123156,0.315429,0.962438,0.0131068,-0.00326538,-0.0321611
0.139042,0.2502,-0.0379976,-0.00491064,0.45458,0.995156,-0.00186346,0.00248072,-0.0291959
0.143606,0.252817,-0.0175445,-0.0053076,0.489182,0.986659,-0.0100997,0.0123391,-0.0469579
0.148782,0.25588,0.0024156,0.0288114,0.522454,0.968676,-0.0224053,0.0280602,-0.0487249
0.154375,0.25938,0.0224857,0.0169546,0.547682,0.992672,-0.0208726,0.0208859,-0.0427938
0.160857,0.262442,0.0430689,-0.0188103,0.626733,1.01642,-0.0251327,0.0233251,-0.0243236
0.168565,0.265254,0.064373,-0.0420213,0.679048,1.03387,-0.034993,0.0145955,-0.0214453
0.176739,0.267695,0.0853987,-0.0628505,0.677854,0.99186,-0.0400413,0.0119456,-0.0185504
0.183977,0.269112,0.105611,-0.154701,0.554406,0.947257,-0.0310161,0.000143528,-0.00884992
0.188099,0.268253,0.125545,-0.267901,0.392727,0.927436,-0.0215826,-0.00262263,-0.0232465
0.189696,0.266248,0.145844,-0.271771,0.304729,0.948291,-0.0348983,0.0073458,-0.0432032
0.189534,0.265107,0.166395,-0.192984,0.215247,0.964895,-0.0447493,0.024967,-0.0766317
0.188069,0.266286,0.186601,-0.060546,0.15483,0.954413,-0.0665273,0.0374272,-0.085414
0.185547,0.269525,0.20562,0.0316735,0.0921227,0.899906,-0.0813271,0.0432363,-0.0825241
0.185547,0.269525,0.20562,0.0316735,0.0921227,0.899906,-0.0813271,0.0432363,-0.0825241
0.182529,0.274093,0.223139,0.110792,0.0896535,0.82445,-0.0885595,0.0522449,-0.0678475
0.180806,0.279861,0.238824,0.166764,0.169321,0.764014,-0.0914357,0.0511092,-0.0340803
0.180721,0.285694,0.253719,0.139275,0.230002,0.737279,-0.0844098,0.0395596,-0.00661385
0.181677,0.290264,0.268027,0.0578918,0.252629,0.686318,-0.0693158,0.0321005,0.0170907
0.181886,0.292765,0.281467,-0.0385099,0.146738,0.614689,-0.0604104,0.0294146,0.00380492
0.180369,0.293698,0.293609,-0.0745996,0.0508005,0.539465,-0.0636028,0.0451704,-0.00547636
0.178095,0.294294,0.304518,-0.0374118,0.0517333,0.501745,-0.0703262,0.0672404,-0.0193269
0.176272,0.296028,0.314763,0.0352836,0.0571324,0.486335,-0.0793235,0.0876979,-0.0257567
0.1745,0.299012,0.324244,0.098008,0.0350831,0.449098,-0.0796541,0.101629,-0.0239878
0.172379,0.302569,0.33248,0.116086,-0.00364274,0.382434,-0.0778584,0.1147,-0.0137814
0.16977,0.306269,0.339365,0.137395,-0.0620301,0.322135,-0.0742098,0.124395,0.00442445
0.166124,0.31035,0.345076,0.177869,-0.125349,0.279332,-0.0708216,0.132937,0.0139009
0.161874,0.315,0.349462,0.204902,-0.158578,0.2,-0.0708102,0.140871,0.0341154
0.157396,0.319238,0.351733,0.172741,-0.223533,0.0758365,-0.0674981,0.146668,0.0490052
0.152403,0.321766,0.351404,0.0703342,-0.283717,-0.0677702,-0.0647071,0.146443,0.0520166
0.147273,0.321058,0.348547,-0.102227,-0.309584,-0.206298,-0.0636662,0.143238,0.0466471
0.142978,0.316743,0.343652,-0.233221,-0.249444,-0.303326,-0.0643427,0.145091,0.0298073
0.141036,0.311086,0.337441,-0.228759,-0.143746,-0.354741,-0.0776234,0.144197,0.012938
0.14067,0.30565,0.329878,-0.205086,-0.142405,-0.435758,-0.0842546,0.13389,-0.0100073
0.1401,0.300633,0.320464,-0.153975,-0.185442,-0.512578,-0.0824301,0.115354,-0.0167184
0.13975,0.296478,0.309583,-0.126426,-0.169613,-0.564796,-0.0825742,0.0880518,0.015224
0.139728,0.292015,0.297884,-0.164262,-0.168296,-0.597889,-0.0706338,0.0535839,0.0391067
0.13942,0.286272,0.285744,-0.243124,-0.224244,-0.637962,-0.0559055,0.0236347,0.0585764
0.137421,0.278922,0.272699,-0.300504,-0.346254,-0.693909,-0.0375478,0.0080615,0.0440257
0.132886,0.270567,0.258727,-0.338864,-0.477997,-0.74314,-0.0281418,0.000630319,0.0198975
0.126337,0.261807,0.243898,-0.330656,-0.543697,-0.77915,-0.0239441,0.00231123,-0.0116842
0.119216,0.253906,0.228368,-0.268985,-0.566444,-0.795763,-0.028176,0.00227052,-0.0307835
0.111212,0.247105,0.212266,-0.219481,-0.623144,-0.821864,-0.0182108,-0.00349462,-0.0617256
0.102995,0.241598,0.19557,-0.147444,-0.587018,-0.837929,-0.0194587,-0.0119359,-0.0599147
0.0958538,0.237274,0.178234,-0.123704,-0.539023,-0.877792,-0.0169758,-0.0254437,-0.059213
0.0897346,0.233368,0.160008,-0.100016,-0.487722,-0.907686,0.000949755,-0.0403969,-0.0592195
0.0844618,0.230084,0.141411,-0.0687529,-0.470486,-0.920607,0.0119169,-0.0541217,-0.06234
0.0793905,0.227803,0.122271,0.00903875,-0.459336,-0.949005,0.0174531,-0.0516278,-0.0777774
0.0750739,0.228003,0.102312,0.159726,-0.421193,-0.980691,0.0133788,-0.0503804,-0.0767808
0.071496,0.230597,0.0813453,0.232357,-0.410015,-1.02952,0.0184074,-0.0538207,-0.0637317
0.0685282,0.233694,0.059249,0.217814,-0.387161,-1.07853,0.0305089,-0.0627849,-0.0417489
0.0665035,0.236197,0.0361384,0.1872,-0.345759,-1.13557,0.0326959,-0.061235,-0.0330119
0.0659867,0.238269,0.0120315,0.189959,-0.270959,-1.17043,0.0369678,-0.0487842,-0.0259113
0.066746,0.241083,-0.0125796,0.262998,-0.239144,-1.18094,0.0453246,-0.0402675,-0.0309603
0.0682391,0.24583,-0.037376,0.35898,-0.213375,-1.17846,0.0559647,-0.0390784,-0.0237464
0.0697738,0.250935,-0.0628201,0.290114,-0.268937,-1.24829,0.0626695,-0.0374265,-0.0174257
0.0706855,0.25277,-0.0899762,0.0739803,-0.287853,-1.33488,0.0662001,-0.0161182,-0.0138391
0.0731193,0.250475,-0.117447,-0.0910243,-0.12934,-1.30261,0.0709797,-0.00779657,-0.00582457
0.0781589,0.245806,-0.143183,-0.166522,-0.0188751,-1.20932,0.0774506,0.00594197,-0.0299067
0.084009,0.240384,-0.167283,-0.163367,0.00985668,-1.16173,0.080856,0.0232622,-0.059797
0.0893923,0.235944,-0.190721,-0.0638301,-0.0365813,-1.13317,0.0762097,0.0468256,-0.0840936
0.092567,0.23426,-0.213624,0.109807,-0.192706,-1.079,0.0779061,0.0672065,-0.109038
0.0920238,0.23657,-0.235105,0.314763,-0.340782,-0.961903,0.0654201,0.0891975,-0.115553
0.0920238,0.23657,-0.235105,0.314763,-0.340782,-0.961903,0.0654201,0.0891975,-0.115553
0.0892257,0.243361,-0.254567,0.5217,-0.393869,-0.861694,0.0235647,0.112732,-0.091387
0.0851316,0.253964,-0.273362,0.664148,-0.47556,-0.869577,-0.0234941,0.128837,-0.0655191
0.0804641,0.265647,-0.293216,0.619008,-0.46953,-0.942602,-0.068128,0.131155,-0.0198122
0.0780797,0.274577,-0.314643,0.418156,-0.325239,-1.03234,-0.107946,0.129111,0.0318731
0.0796227,0.279127,-0.337157,0.214038,-0.125457,-1.06768,-0.127501,0.122959,0.0523517
0.0848243,0.27992,-0.359882,0.0539038,-0.00814567,-1.08756,-0.129521,0.115101,0.0563921
0.090762,0.278359,-0.382723,-0.000674864,-0.0419137,-1.10117,-0.121405,0.106672,0.0277559
0.0955673,0.276421,-0.405737,0.0183901,-0.0930266,-1.11054,-0.107974,0.0775716,0.00453866
0.100422,0.27466,-0.429191,0.0294459,-0.0367265,-1.1414,-0.114836,0.0554608,0.0115927
0.107761,0.272823,-0.453093,0.0281559,0.128571,-1.14558,-0.11392,0.0333365,0.0356751
0.117623,0.270809,-0.476599,0.0383262,0.202154,-1.1132,-0.0960009,0.0188543,0.0519591
0.126969,0.269204,-0.499417,0.0738788,0.101682,-1.0923,-0.080136,0.00969267,0.0524451
0.133167,0.268293,-0.522416,0.124584,-0.105846,-1.11935,-0.0720242,0.00509143,0.0524896
0.135308,0.268302,-0.546131,0.181336,-0.285897,-1.13041,-0.0624579,0.00200227,0.0542405
0.134907,0.268958,-0.569895,0.178121,-0.366923,-1.11098,-0.0496764,-0.000584096,0.0736053
0.134022,0.269012,-0.592546,0.107156,-0.302832,-1.03735,-0.0380862,-0.0100389,0.0934048
0.134083,0.267086,-0.613185,-0.0373419,-0.245941,-0.947548,-0.0259908,-0.0282534,0.0868834
0.134036,0.262863,-0.631718,-0.1251,-0.25373,-0.877659,-0.0281381,-0.0448105,0.052646
0.132676,0.258088,-0.649108,-0.104649,-0.333767,-0.848155,-0.0362461,-0.0457629,-0.00440145
0.129359,0.25484,-0.666263,0.00755029,-0.4262,-0.826637,-0.0347753,-0.0386962,-0.047767
0.124516,0.254213,-0.682856,0.119877,-0.450023,-0.763938,-0.024256,-0.0489921,-0.0600023
0.119923,0.255007,-0.698381,0.13299,-0.380633,-0.712745,-0.0119612,-0.063116,-0.0516481
0.116929,0.255809,-0.713017,0.109994,-0.280549,-0.684027,0.00107059,-0.0847862,-0.0492181
0.116247,0.25618,-0.727171,0.0856468,-0.137115,-0.660333,0.0169044,-0.0960847,-0.0444282
0.118078,0.256225,-0.740359,0.0819222,-0.0219445,-0.588076,0.0434819,-0.1048,-0.0438073
0.120739,0.257225,-0.751627,0.154755,-0.0235813,-0.48442,0.0710019,-0.116528,-0.0480281
0.121465,0.260276,-0.761307,0.262112,-0.173995,-0.411734,0.0922807,-0.12226,-0.0554034
0.118106,0.264957,-0.770622,0.293122,-0.386685,-0.435519,0.0893897,-0.108478,-0.0562986
0.112443,0.269081,-0.780818,0.210196,-0.399961,-0.484468,0.0697796,-0.0794916,-0.0359228
0.108758,0.270525,-0.791155,0.0489789,-0.219899,-0.468946,0.0601984,-0.0403951,-0.0253544
0.108787,0.269539,-0.799902,-0.0350063,-0.0207247,-0.362701,0.0625683,0.00295064,-0.038722
0.111026,0.269158,-0.805747,0.0921586,0.0800804,-0.192903,0.0648372,0.0365649,-0.0643706
0.113125,0.273292,-0.808656,0.344922,0.022021,-0.0547431,0.0533842,0.0604151,-0.0554436
0.112621,0.281836,-0.810156,0.498693,-0.100192,-0.00356441,0.0369482,0.0714086,-0.0145175
0.110521,0.292294,-0.811049,0.527155,-0.112586,0.0322098,0.0243866,0.063922,0.0682284
0.108785,0.302395,-0.811277,0.452728,-0.0675789,0.0455039,0.018365,0.0606402,0.140679
0.107429,0.309562,-0.811863,0.238862,-0.0929143,-0.0421713,0.0168166,0.069748,0.167984
0.105799,0.311101,-0.814485,-0.0579719,-0.132715,-0.182828,0.0185622,0.0940707,0.155185
0.105065,0.30706,-0.818832,-0.283163,-0.0508716,-0.260009,0.0226987,0.112011,0.123843
0.106831,0.299329,-0.824,-0.416824,0.0657683,-0.305725,0.0208855,0.145374,0.0689377
0.110702,0.289823,-0.82952,-0.453181,0.156915,-0.314146,0.0215266,0.166642,0.00113451
0.116128,0.280283,-0.834713,-0.422068,0.238733,-0.26887,0.0262428,0.178453,-0.0413755
0.122504,0.272049,-0.838265,-0.353348,0.291552,-0.163448,0.0325499,0.16603,-0.0548911
0.12858,0.265485,-0.839642,-0.275874,0.256911,-0.0531218,0.0351557,0.147738,-0.0620894
0.132346,0.260867,-0.839188,-0.171631,0.115869,0.027166,0.0292885,0.129027,-0.0809175
0.132774,0.259203,-0.838143,-0.00270819,-0.0496603,0.0362431,0.00601035,0.0979701,-0.0792055
0.13019,0.260381,-0.838185,0.11146,-0.200879,-0.0267421,-0.0209998,0.0731228,-0.0725099
0.126293,0.263001,-0.840129,0.158153,-0.230909,-0.125425,-0.0351246,0.0524299,-0.0317311
0.126293,0.263001,-0.840129,0.158153,-0.230909,-0.125425,-0.0351246,0.0524299,-0.0317311
0.122723,0.265893,-0.843888,0.1739,-0.202522,-0.193901,-0.0435438,0.0351254,-0.00863087
0.120726,0.268796,-0.848954,0.163408,-0.136366,-0.261127,-0.0340314,0.016181,0.0283328
0.119867,0.270892,-0.855284,0.113633,-0.123748,-0.313984,-0.0124818,0.00150836,0.0450587
0.118984,0.271648,-0.862576,0.0508213,-0.166268,-0.367564,0.0092915,-0.00949705,0.053046
0.117227,0.271491,-0.870601,0.0289169,-0.221705,-0.396025,0.0254631,-0.0155691,0.0494269
0.11474,0.271007,-0.879174,0.0127416,-0.258377,-0.424447,0.0436823,-0.0200939,0.0470101
0.111885,0.270189,-0.888162,0.00749848,-0.251917,-0.437127,0.0508615,-0.0185325,0.0331952
0.109498,0.269326,-0.8972,0.00232133,-0.213003,-0.432013,0.0612096,-0.0238506,0.0218982
0.108289,0.268276,-0.906114,-0.00576547,-0.139882,-0.43103,0.0625215,-0.0203763,0.0165189
0.108389,0.267276,-0.915456,-0.00158956,-0.10867,-0.480331,0.0668673,-0.0183041,0.00198561
0.108798,0.26642,-0.926087,0.0344817,-0.130636,-0.551521,0.0780474,-0.00158226,-0.0255732
0.109313,0.266759,-0.938099,0.120439,-0.125945,-0.593012,0.0915559,0.00821972,-0.0366564
0.110635,0.268372,-0.950896,0.15267,-0.0827456,-0.608372,0.107059,0.0186866,-0.0204203
0.11235,0.268852,-0.964099,0.00651721,-0.0993635,-0.646325,0.118217,0.0362393,-0.00238973
0.11394,0.265418,-0.977295,-0.187474,-0.0685644,-0.629697,0.133314,0.0478201,0.00317466
0.116213,0.259247,-0.988747,-0.278529,-0.00338315,-0.521395,0.139388,0.0595906,-0.00937307
0.118421,0.252818,-0.99752,-0.233666,-0.0022528,-0.38958,0.138235,0.0746729,-0.0474656
0.119442,0.249053,-1.00356,-0.0615211,-0.054721,-0.236475,0.134915,0.0646321,-0.0647209
0.118411,0.248835,-1.00725,0.0730072,-0.126486,-0.117266,0.125006,0.0539841,-0.0547376
0.116254,0.250678,-1.00874,0.105613,-0.114359,-0.00284774,0.108885,0.020888,-0.0110611
0.114304,0.252772,-1.00766,0.0919944,-0.0425156,0.132334,0.0909698,-0.00123844,0.0284024
0.113169,0.254836,-1.00399,0.0670256,0.0097805,0.2299,0.0698423,-0.0138126,0.0588502
0.112155,0.256635,-0.998769,0.0575038,0.0139509,0.280624,0.0463326,-0.0202664,0.0713258
0.110809,0.25811,-0.993239,0.0220937,-0.000930039,0.259578,0.0253749,-0.0201368,0.0835944
0.109791,0.258215,-0.988045,-0.0725374,0.042586,0.246121,0.0178561,-0.028535,0.103024
0.110108,0.255662,-0.982671,-0.240688,0.115914,0.246757,0.017618,-0.0245337,0.12071
0.111459,0.249474,-0.976533,-0.43519,0.160642,0.274548,0.0194885,-0.018868,0.114259
0.11312,0.239856,-0.969261,-0.574968,0.177425,0.313998,0.016268,-0.00166407,0.0897366
0.114899,0.229122,-0.960765,-0.556542,0.201007,0.387405,0.0124952,0.0164441,0.0436016
0.116585,0.21973,-0.950625,-0.474327,0.185631,0.48599,0.0171975,0.0235846,0.0100874
0.117503,0.212646,-0.938552,-0.368939,0.148816,0.596691,0.0238353,0.0172603,0.0026418
0.116773,0.207607,-0.924563,-0.29135,0.0753262,0.696288,0.03167,0.00361997,-0.00337207
0.114802,0.203837,-0.908933,-0.268436,0.0573758,0.766845,0.0258829,-0.00817384,0.0158502
0.112781,0.200097,-0.89204,-0.293052,0.0833307,0.832591,0.0256137,-0.0250824,0.0335746
0.110825,0.195863,-0.873544,-0.321596,0.0729738,0.912814,0.03057,-0.0379923,0.0348908
0.108283,0.191419,-0.853685,-0.327327,0.0554071,0.961972,0.0266232,-0.0399725,0.0204647
0.105291,0.187005,-0.833154,-0.325066,0.0345008,0.983397,0.024452,-0.0400963,-0.00462645
0.102072,0.182619,-0.812248,-0.318714,0.0328255,1.00985,0.0190771,-0.035649,-0.0253021
0.0990717,0.178653,-0.790698,-0.281938,0.0579209,1.04766,0.0170292,-0.0362388,-0.0450337
0.096662,0.175647,-0.768532,-0.221748,0.0895543,1.07795,0.0118459,-0.0307451,-0.0585873
0.09477,0.17402,-0.746135,-0.147497,0.107525,1.0857,0.00631879,-0.0303935,-0.06652
0.0933259,0.173897,-0.723978,-0.0665367,0.130478,1.07457,0.00367397,-0.0294618,-0.0665178
0.0925503,0.175314,-0.702117,0.00301605,0.169984,1.06847,0.00264151,-0.0346586,-0.0549427
0.0925585,0.177709,-0.680588,0.0360263,0.204842,1.05191,0.000566661,-0.0370311,-0.0458407
0.0931797,0.180379,-0.659703,0.0341476,0.228581,1.01081,-0.00256134,-0.0352584,-0.0418847
0.0949673,0.18306,-0.639179,0.0470114,0.321778,1.02433,-0.00319815,-0.0251748,-0.0440277
0.0983589,0.186209,-0.618216,0.0714258,0.388031,1.04299,-0.00200512,-0.0190282,-0.058795
0.0983589,0.186209,-0.618216,0.0714258,0.388031,1.04299,-0.00200512,-0.0190282,-0.058795
0.102555,0.190292,-0.597196,0.132306,0.417994,1.04288,-0.00331337,-0.00856233,-0.0657365
0.107039,0.195553,-0.576064,0.163365,0.415992,1.06269,0.00816213,-0.0162472,-0.0551456
0.1102,0.200536,-0.554933,0.0935423,0.306998,1.02608,0.0157158,-0.0206385,-0.0452411
0.11126,0.203105,-0.53473,-0.0590345,0.216508,0.959792,0.0199749,-0.0107828,-0.0444179
0.111502,0.202627,-0.5153,-0.174915,0.218383,0.936333,0.0348952,0.0156506,-0.0656957
0.113002,0.201451,-0.495041,-0.138891,0.330249,1.02625,0.0517046,0.0417198,-0.0866522
0.115382,0.202273,-0.472982,-0.0248954,0.318912,1.10768,0.077162,0.0620878,-0.118195
0.1162,0.205746,-0.450037,0.102665,0.210897,1.14158,0.0958723,0.0658698,-0.119428
0.11473,0.211491,-0.426905,0.203222,0.138201,1.16917,0.108607,0.0806152,-0.105857
0.112544,0.219294,-0.402839,0.3148,0.16411,1.25545,0.116427,0.0954249,-0.0665311
0.110257,0.230057,-0.376668,0.462251,0.173698,1.37997,0.121533,0.113913,-0.0275744
0.106555,0.243174,-0.348676,0.523627,0.0985146,1.43721,0.11609,0.129898,0.0177625
0.100564,0.255991,-0.320091,0.431333,0.0161998,1.42407,0.105757,0.138504,0.0674903
0.0930427,0.265303,-0.291669,0.218067,-0.0199545,1.3819,0.0974148,0.148082,0.0932395
0.0855561,0.269963,-0.263604,0.0132451,0.0300412,1.33698,0.0841014,0.160525,0.0813645
0.0797779,0.270716,-0.236419,-0.145995,0.115715,1.26855,0.073432,0.182186,0.0479783
0.0760033,0.268765,-0.210166,-0.219801,0.195389,1.2395,0.0752485,0.202477,0.00617707
0.0733769,0.266563,-0.18364,-0.155921,0.229311,1.29606,0.0892818,0.203405,-0.0257984
0.0702643,0.266873,-0.156001,0.00367875,0.166698,1.3544,0.0854313,0.205261,-0.0346673
0.0651291,0.270519,-0.127718,0.167843,0.0564316,1.37281,0.0672582,0.190724,-0.00850356
0.057763,0.276584,-0.0995613,0.249752,-0.0158253,1.35198,0.0438133,0.16452,0.0398419
0.0501007,0.282675,-0.0720213,0.192264,0.0210715,1.30788,0.0214726,0.130778,0.108644
0.0441274,0.285791,-0.0455021,-0.00817978,0.129967,1.2343,0.00749614,0.101603,0.144342
0.0408142,0.284607,-0.0205897,-0.201558,0.226152,1.13216,-0.00585148,0.0847203,0.14249
0.039498,0.280018,0.00191891,-0.327755,0.252089,0.997388,-0.01674,0.0789548,0.109044
0.0389545,0.273553,0.0220101,-0.374808,0.242977,0.90897,-0.0126247,0.0739414,0.0644426
0.0390831,0.266808,0.0406164,-0.361738,0.267902,0.847885,-0.0129561,0.0610785,0.0350171
0.0404492,0.26042,0.0579028,-0.341179,0.313875,0.783469,-0.0157439,0.0496011,0.0197059
0.0430226,0.254268,0.0736962,-0.329248,0.330565,0.713517,-0.0131231,0.0322375,0.00694549
0.0458885,0.248657,0.0883247,-0.291182,0.311221,0.673816,-0.00533797,0.00924003,-0.00469208
0.0481508,0.243671,0.102236,-0.273061,0.243499,0.643067,-0.00159007,-0.00917548,-0.0143696
0.0491639,0.239032,0.115289,-0.247433,0.176607,0.588068,-0.0138265,-0.0198753,-0.0318493
0.0495772,0.23501,0.126813,-0.201825,0.14212,0.503316,-0.0360029,-0.0158198,-0.0606958
0.0503148,0.232111,0.136508,-0.135421,0.157195,0.418261,-0.0533393,-0.0149625,-0.0781127
0.0516813,0.230345,0.144376,-0.0720692,0.16538,0.338385,-0.0603036,-0.00914334,-0.105425
0.0539938,0.230303,0.15081,0.0401866,0.204927,0.282328,-0.0605536,-0.00846751,-0.109273
0.0570003,0.232624,0.155867,0.164483,0.203884,0.213253,-0.0592344,-0.0124497,-0.114468
0.0600709,0.23708,0.159056,0.253789,0.172529,0.119534,-0.052847,-0.0210248,-0.101594
0.0630388,0.242618,0.160125,0.283637,0.150504,0.0119466,-0.0454202,-0.0385489,-0.0796318
0.0660754,0.24725,0.158068,0.152398,0.099874,-0.198465,-0.0541316,-0.0302251,-0.0509897
0.0701982,0.247205,0.151526,-0.101845,0.186822,-0.399489,-0.0548247,0.00180562,-0.0427061
0.0782873,0.243598,0.143866,-0.164344,0.421947,-0.334194,-0.0363476,0.0180207,-0.0496621
0.0886764,0.240874,0.138107,-0.0306146,0.420747,-0.262439,-0.0271656,0.0587728,-0.0951554
0.0967938,0.241902,0.132131,0.189744,0.233575,-0.313214,-0.0376308,0.0733048,-0.111999
0.101844,0.246495,0.124494,0.317536,0.102443,-0.366825,-0.0411458,0.0611148,-0.0698431
0.105664,0.251732,0.11606,0.261407,0.0857641,-0.384646,-0.0373848,0.0389986,-0.00725585
0.109959,0.254707,0.107336,0.128603,0.125569,-0.417621,-0.0452841,0.0392237,0.0248657
0.115309,0.255755,0.0982572,0.103483,0.17962,-0.435981,-0.0588367,0.0655214,0.0225866
0.115309,0.255755,0.0982572,0.103483,0.17962,-0.435981,-0.0588367,0.0655214,0.0225866
0.121087,0.257712,0.0889478,0.211536,0.141504,-0.430662,-0.0625725,0.0915538,0.00199443
0.125376,0.261733,0.0790342,0.288206,0.0238524,-0.470905,-0.0669559,0.110913,0.00883704
0.127931,0.265567,0.0680405,0.200611,-0.0315619,-0.525893,-0.0706043,0.105398,0.047024
0.130974,0.266305,0.056559,0.00950666,0.0422244,-0.54904,-0.071827,0.0913548,0.0875905
0.135518,0.263133,0.0455326,-0.169395,0.109419,-0.543022,-0.0698455,0.0814725,0.0844581
0.140279,0.257262,0.0349429,-0.244562,0.074714,-0.543323,-0.06692,0.0884178,0.0454964
0.143543,0.251262,0.0244922,-0.187504,-0.0158191,-0.535241,-0.0685824,0.0885006,-0.000712872
0.145192,0.246966,0.0141048,-0.100062,-0.0635198,-0.515966,-0.0759464,0.0860617,-0.0153061
0.146508,0.243742,0.0039099,-0.0888885,-0.0474054,-0.500664,-0.0786808,0.0671414,0.000160635
0.148081,0.240297,-0.00571986,-0.112368,-0.0377467,-0.464253,-0.0710358,0.0365295,0.0203149
0.148744,0.236869,-0.0142872,-0.0893447,-0.110738,-0.409502,-0.0659638,0.0146283,0.0225621
0.147281,0.234487,-0.0222881,-0.0290233,-0.220429,-0.397213,-0.0768307,0.00440785,0.0230321
0.143811,0.233175,-0.0305394,0.00704673,-0.299407,-0.410206,-0.0895564,-0.00280376,0.0332828
0.139394,0.232219,-0.0389216,0.00683357,-0.331157,-0.399753,-0.0861255,-0.0141099,0.0546308
0.133394,0.231175,-0.04629,-0.0103846,-0.46243,-0.305421,-0.0566151,-0.0221299,0.0572798
0.122856,0.230268,-0.0512667,-0.0188088,-0.701728,-0.19403,-0.0506477,-0.0194575,0.0463451
0.107866,0.229407,-0.0550081,-0.0290463,-0.848129,-0.189286,-0.0916224,-0.00441097,0.0393239
0.0911212,0.227927,-0.0591755,-0.0800176,-0.895958,-0.221356,-0.128467,0.0107487,0.0393705
0.0744226,0.225151,-0.0638147,-0.157942,-0.857349,-0.262839,-0.144285,0.00187883,0.032899
0.0591768,0.220776,-0.0701569,-0.233299,-0.802831,-0.391037,-0.170881,-0.00418776,0.0127008
0.0451406,0.214554,-0.079579,-0.338764,-0.80161,-0.543936,-0.189034,-0.00711994,-0.0168285
0.0318297,0.206476,-0.0920924,-0.413443,-0.797091,-0.702394,-0.194829,-0.0262348,-0.0364916
0.019478,0.197679,-0.107772,-0.403802,-0.724685,-0.852244,-0.216531,-0.0291304,-0.0838395
0.010098,0.190725,-0.126015,-0.242726,-0.528788,-0.924443,-0.229779,-0.0302931,-0.122889
0.00549563,0.187659,-0.145527,-0.0596424,-0.31571,-0.990987,-0.225644,-0.0345099,-0.138741
0.00434627,0.187409,-0.166544,0.0272186,-0.195927,-1.06385,-0.193967,-0.0475418,-0.14789
0.00567433,0.188052,-0.189009,0.0473414,-0.0872579,-1.12524,-0.153813,-0.0687457,-0.141242
0.0088516,0.189562,-0.212158,0.137458,-0.041658,-1.12807,-0.113506,-0.0677966,-0.153679
0.0120826,0.19376,-0.23493,0.311076,-0.0729139,-1.09502,-0.0729677,-0.0520788,-0.16536
0.0140059,0.200933,-0.257752,0.409338,-0.183327,-1.14016,-0.043875,-0.0283677,-0.168576
0.0144003,0.20909,-0.281978,0.434469,-0.257546,-1.19157,-0.00789116,0.00343826,-0.162003
0.0146696,0.217825,-0.306377,0.468884,-0.218639,-1.16342,0.0231379,0.0199089,-0.140862
0.0161535,0.226632,-0.330461,0.431698,-0.163056,-1.1678,0.0482709,0.0552019,-0.124667
0.0192473,0.234717,-0.354584,0.42333,-0.0778694,-1.14181,0.0743602,0.0875631,-0.106671
0.0239789,0.243446,-0.377521,0.514904,0.00990485,-1.04331,0.105392,0.111104,-0.0852926
0.0300045,0.255192,-0.398332,0.71463,0.0715979,-0.934301,0.13508,0.111669,-0.0398703
0.0364532,0.270522,-0.417695,0.835949,0.0489647,-0.896954,0.149741,0.112998,0.0332277
0.0415089,0.285304,-0.437446,0.669351,-0.083976,-0.926258,0.163748,0.123856,0.0842685
0.045582,0.294873,-0.457283,0.355157,-0.0441314,-0.906313,0.168269,0.129791,0.136173
0.052116,0.298547,-0.475494,0.111767,0.182235,-0.806453,0.152727,0.143726,0.153655
0.0623379,0.298362,-0.491417,-0.0238805,0.340774,-0.708018,0.145045,0.161326,0.136137
0.0734277,0.296752,-0.505181,-0.0202429,0.339398,-0.615846,0.138692,0.166409,0.0919133
0.0828325,0.296137,-0.517487,0.0609341,0.238198,-0.564233,0.120372,0.158588,0.0665337
0.0902974,0.296975,-0.528962,0.108826,0.178977,-0.510919,0.10611,0.142665,0.0801991
0.096753,0.298464,-0.538994,0.131316,0.163364,-0.42163,0.0885769,0.126145,0.0919593
0.101914,0.300497,-0.54756,0.149068,0.100028,-0.379067,0.0581248,0.103734,0.0892714
0.106019,0.302238,-0.555926,0.0908171,0.0686745,-0.396208,0.0206039,0.0831341,0.107851
0.110147,0.301892,-0.564604,-0.0421817,0.0914398,-0.43053,-0.012348,0.0530947,0.120148
0.110147,0.301892,-0.564604,-0.0421817,0.0914398,-0.43053,-0.012348,0.0530947,0.120148
0.114909,0.298371,-0.573943,-0.203675,0.108526,-0.492657,-0.0403611,0.0266606,0.112095
0.120471,0.291917,-0.58407,-0.31022,0.160771,-0.533797,-0.0569137,0.000205934,0.0928426
0.127128,0.28392,-0.594591,-0.347878,0.18644,-0.560219,-0.057013,-0.0334468,0.0634543
0.133209,0.275569,-0.60555,-0.33101,0.106325,-0.582715,-0.0551422,-0.0515897,0.0106912
0.137197,0.26788,-0.616842,-0.282685,-0.00932448,-0.587939,-0.0525433,-0.0667332,-0.0262337
0.138878,0.261167,-0.628053,-0.225372,-0.112184,-0.563666,-0.0536901,-0.0706036,-0.0603021
0.138794,0.255768,-0.638928,-0.159017,-0.169769,-0.545107,-0.062101,-0.0683154,-0.0853219
0.137799,0.252069,-0.649762,-0.046404,-0.187884,-0.536727,-0.0738188,-0.0580713,-0.108469
0.136604,0.251135,-0.660851,0.097861,-0.223227,-0.536044,-0.0743974,-0.0619819,-0.106387
0.134157,0.252808,-0.672431,0.211601,-0.311667,-0.553091,-0.0627915,-0.0717601,-0.0947464
0.130042,0.25607,-0.684854,0.257817,-0.394958,-0.594075,-0.0511369,-0.0849452,-0.0757181
0.125522,0.259553,-0.6986,0.253023,-0.389202,-0.679829,-0.0531286,-0.0925487,-0.0550458
0.122501,0.262567,-0.714654,0.23545,-0.321027,-0.820293,-0.056239,-0.0876377,-0.0412203
0.121728,0.264132,-0.733955,0.112068,-0.258003,-1.00422,-0.0567307,-0.0466832,-0.0240776
0.123304,0.260858,-0.756213,-0.177368,-0.138744,-1.12772,-0.032497,0.00148597,-0.0138533
0.128013,0.252425,-0.778055,-0.353928,0.0500531,-1.0373,0.00875159,0.0205049,-0.0229205
0.134271,0.242994,-0.796966,-0.30352,0.0615053,-0.908276,0.0223168,0.0645083,-0.0653973
0.137349,0.236267,-0.814453,-0.104687,-0.190472,-0.875028,0.00326937,0.101568,-0.133678
0.134725,0.234331,-0.833114,0.169314,-0.478568,-0.942976,-0.0411846,0.140945,-0.161022
0.128988,0.236965,-0.853846,0.332178,-0.526812,-0.999779,-0.0841117,0.156415,-0.115015
0.124619,0.241873,-0.875299,0.423418,-0.410622,-0.973233,-0.103955,0.160237,-0.0502948
0.122397,0.249164,-0.895601,0.541647,-0.315111,-0.885804,-0.107228,0.145474,0.00506634
0.120619,0.258639,-0.915189,0.611018,-0.362395,-0.890505,-0.120735,0.135052,0.0653364
0.117685,0.26772,-0.936046,0.493197,-0.469803,-1.00464,-0.128093,0.116142,0.138981
0.11371,0.27242,-0.958734,0.205343,-0.497849,-1.09105,-0.116255,0.0788777,0.195718
0.110767,0.270136,-0.981809,-0.185601,-0.400532,-1.12208,-0.0944159,0.0459303,0.226307
0.109794,0.260553,-1.00435,-0.496015,-0.294627,-1.12933,-0.0786079,0.042375,0.187892
0.109811,0.246912,-1.02622,-0.590024,-0.248105,-1.10809,-0.0633595,0.0614886,0.104578
0.110195,0.233053,-1.04737,-0.537908,-0.222988,-1.07538,-0.0560191,0.101158,0.0423972
0.110112,0.221696,-1.06792,-0.343393,-0.258497,-1.02124,-0.0387802,0.142187,-0.00464058
0.108196,0.21553,-1.08742,-0.0581098,-0.357859,-0.937146,-0.0325345,0.173979,-0.0151162
0.104637,0.214711,-1.1062,0.149455,-0.370954,-0.901132,-0.048154,0.185187,0.036132
0.101677,0.216616,-1.12538,0.198602,-0.331347,-0.940442,-0.0684138,0.171591,0.124953
0.100084,0.21786,-1.14537,0.104786,-0.238354,-0.970071,-0.0735376,0.132477,0.204707
0.100846,0.215695,-1.16547,-0.148574,-0.121585,-0.996368,-0.0650324,0.070136,0.26874
0.104196,0.207544,-1.18573,-0.446889,0.0434388,-1.043,-0.0594938,0.00863874,0.275281
0.110396,0.193821,-1.20588,-0.686501,0.155847,-1.04526,-0.0260471,-0.0603652,0.243384
0.117262,0.175963,-1.225,-0.850706,0.159143,-1.0064,-5.89043e-05,-0.105996,0.175749
0.123248,0.155119,-1.24262,-1.0249,0.180581,-0.961201,0.00945974,-0.156003,0.111022
0.131576,0.128528,-1.2587,-1.42264,0.445789,-0.955525,-0.00129974,-0.192122,0.0793554
0.145192,0.0936408,-1.27357,-1.76718,0.724025,-0.974237,0.00304613,-0.203264,-0.00321436
0.161522,0.0550806,-1.28721,-1.75032,0.748869,-0.939197,0.0274573,-0.205644,-0.135149
0.174564,0.0211788,-1.30001,-1.29694,0.464407,-0.873051,0.046544,-0.187578,-0.296333
0.179341,-0.00072288,-1.3131,-0.62157,-0.0178375,-0.809285,0.0465489,-0.176962,-0.399355
0.174253,-0.0105115,-1.328,-0.11522,-0.441417,-0.824832,0.035087,-0.157774,-0.407502
0.164227,-0.0130773,-1.34416,0.0843145,-0.454307,-0.795482,0.0207127,-0.161057,-0.320149
0.158159,-0.0135231,-1.35945,0.112608,-0.0947298,-0.700014,0.00843829,-0.154758,-0.227903
0.159294,-0.0126679,-1.37265,0.19111,0.16647,-0.595711,0.019904,-0.147494,-0.180861
0.159294,-0.0126679,-1.37265,0.19111,0.16647,-0.595711,0.019904,-0.147494,-0.180861
0.161363,-0.00991271,-1.38537,0.272429,0.00222626,-0.633937,0.0502209,-0.138727,-0.183358
0.157896,-0.00672815,-1.39978,0.249,-0.321684,-0.729414,0.0703784,-0.114104,-0.181575
0.149632,-0.00461379,-1.41522,0.196425,-0.445044,-0.743712,0.0848754,-0.0766963,-0.172943
0.141779,-0.00276374,-1.42993,0.219647,-0.285012,-0.661156,0.0831068,-0.0223407,-0.176023
0.138896,0.00148078,-1.442,0.38258,0.00569875,-0.456097,0.0827269,0.031388,-0.181659
0.141107,0.0109412,-1.45007,0.675848,0.171232,-0.206863,0.0945982,0.0747685,-0.15836
0.143683,0.0271955,-1.45472,0.9679,0.0231619,-0.0440362,0.12667,0.069108,-0.101354
0.139951,0.047549,-1.45819,1.03907,-0.417807,-0.0256564,0.149893,0.0710907,-0.0405136
0.128448,0.0668421,-1.46142,0.874211,-0.680402,-0.0302722,0.152892,0.0837601,0.0185237
0.116158,0.0819382,-1.46336,0.634539,-0.501483,0.0258029,0.123948,0.122893,0.0573116
0.109893,0.0922513,-1.46308,0.388037,-0.115432,0.121051,0.0962081,0.171924,0.0384474
0.110333,0.0989291,-1.45989,0.275901,0.156164,0.278274,0.0853601,0.204237,-0.0207364
0.113074,0.106325,-1.45314,0.41001,0.133499,0.454066,0.0584884,0.207229,-0.0830268
0.112224,0.11814,-1.4444,0.671439,-0.13966,0.522408,0.0207654,0.191718,-0.113635
0.105939,0.134856,-1.43575,0.861849,-0.343506,0.493795,-0.0301193,0.158542,-0.0680099
0.0980722,0.153533,-1.4282,0.886355,-0.290939,0.437934,-0.0645826,0.117362,0.0322401
0.0928268,0.171267,-1.42127,0.781725,-0.116959,0.405122,-0.0640547,0.0739955,0.126742
0.0910452,0.185487,-1.41459,0.55928,0.0421624,0.378788,-0.0386855,0.0553361,0.189942
0.0917189,0.194727,-1.40781,0.298071,0.129957,0.369309,-0.00141942,0.0514551,0.216677
0.0925828,0.199287,-1.4007,0.113033,0.086684,0.369503,0.0438701,0.0623203,0.203229
0.0915813,0.201346,-1.39282,0.0362569,-0.0271433,0.423491,0.0920806,0.0613015,0.180877
0.0873833,0.202573,-1.38275,-0.00453699,-0.193554,0.567474,0.134285,0.0628699,0.170517
0.0796358,0.202867,-1.36971,-0.073303,-0.298971,0.687707,0.155768,0.0279712,0.156763
0.0704914,0.201729,-1.35493,-0.1483,-0.288738,0.726037,0.15269,0.00968979,0.149087
0.062685,0.19851,-1.33978,-0.282847,-0.185349,0.737899,0.158053,-0.00228447,0.142437
0.0564869,0.192078,-1.32329,-0.451374,-0.128859,0.854822,0.191087,-0.0450319,0.106249
0.0503595,0.183239,-1.30377,-0.500411,-0.0964645,0.990469,0.178089,-0.0704699,0.011553
0.0448466,0.175497,-1.28225,-0.353365,-0.0974733,1.0625,0.146516,-0.0683228,-0.06234
0.0378523,0.171785,-1.26062,-0.0793154,-0.240483,1.04602,0.122687,-0.0721004,-0.154112
0.0282218,0.174393,-1.2391,0.260154,-0.318121,1.06692,0.101192,-0.111448,-0.194912
0.018891,0.181972,-1.21806,0.385862,-0.236057,0.999089,0.0477672,-0.106613,-0.157129
0.011809,0.188707,-1.19878,0.244682,-0.0762947,0.905602,0.0251593,-0.0838346,-0.135573
0.009801,0.191676,-1.18049,0.0130269,0.209064,0.88753,0.0233071,-0.0632494,-0.0947158
0.0121072,0.189514,-1.16205,-0.222369,0.357769,0.919757,0.0360224,0.0141259,-0.125962
0.0165004,0.185184,-1.14222,-0.182485,0.439999,1.01821,0.0464503,0.0943143,-0.158207
0.02141,0.185126,-1.12003,0.177336,0.444162,1.16698,0.0566094,0.169681,-0.173745
0.024229,0.193728,-1.09407,0.594316,0.308851,1.37983,0.0640866,0.197386,-0.124738
0.0227079,0.208616,-1.06477,0.769051,0.137212,1.48944,0.0450623,0.190032,-0.0365059
0.0185813,0.223836,-1.03474,0.643795,0.124394,1.4379,-0.00555877,0.174395,0.0695351
0.0159425,0.234466,-1.00628,0.358692,0.274997,1.33796,-0.047778,0.179269,0.125881
0.017382,0.239534,-0.979729,0.128297,0.480218,1.24437,-0.064767,0.187857,0.134708
0.0224899,0.241561,-0.95434,0.0421911,0.615088,1.21389,-0.0531156,0.19065,0.113191
0.0292603,0.242151,-0.929592,-0.0471317,0.642561,1.17883,-0.0285247,0.190124,0.0918535
0.0366508,0.240835,-0.90541,-0.157518,0.671775,1.15843,-0.00909579,0.180942,0.0854467
0.0448372,0.237605,-0.881175,-0.254851,0.715686,1.17575,0.019639,0.168253,0.0750383
0.0538328,0.23293,-0.856369,-0.323265,0.756844,1.19679,0.0344383,0.161936,0.0655941
0.0636314,0.227427,-0.830863,-0.367047,0.785106,1.2437,0.0427547,0.159737,0.0631899
0.0636314,0.227427,-0.830863,-0.367047,0.785106,1.2437,0.0427547,0.159737,0.0631899
0.0731993,0.221744,-0.804262,-0.360484,0.741799,1.29561,0.0415869,0.166403,0.038821
0.0808795,0.216936,-0.776398,-0.321048,0.620746,1.35463,0.0323999,0.168715,0.00684685
0.0859378,0.213468,-0.747662,-0.25505,0.492849,1.39557,0.0162137,0.16377,-0.0247176
0.088899,0.211449,-0.718755,-0.193388,0.427017,1.37181,-0.0214817,0.151023,-0.0527139
0.0921545,0.210372,-0.691288,-0.149749,0.480721,1.28549,-0.0680379,0.156745,-0.0880249
0.096878,0.210601,-0.666069,-0.0383784,0.491121,1.18092,-0.0991976,0.152957,-0.159035
0.100852,0.214114,-0.64234,0.160798,0.381713,1.13747,-0.134011,0.116488,-0.221846
0.101509,0.221576,-0.621251,0.395011,0.135286,0.946379,-0.191112,0.108836,-0.298131
0.0988422,0.235053,-0.606198,0.820548,-0.0276526,0.636634,-0.26087,0.0913082,-0.344134
0.0971017,0.256523,-0.598031,1.20356,0.0999755,0.383167,-0.280239,0.0636554,-0.284944
0.101256,0.28293,-0.593724,1.31703,0.442886,0.301018,-0.256472,0.0137281,-0.155867
0.111372,0.307829,-0.591159,1.08799,0.571667,0.184644,-0.216391,-0.0319092,-0.0398338
0.121019,0.32657,-0.591359,0.766789,0.353485,0.00288247,-0.184198,-0.066655,0.0206805
0.127201,0.338945,-0.595177,0.523891,0.166515,-0.209287,-0.167919,-0.0487785,0.0607915
0.132288,0.347394,-0.6028,0.427848,0.111133,-0.374215,-0.145645,-0.000524014,0.0584515
0.139329,0.355896,-0.611605,0.545852,0.311745,-0.285994,-0.0878327,0.045376,0.0578441
0.150084,0.367863,-0.617671,0.711998,0.531609,-0.0862123,-0.00356208,0.104541,0.0309613
0.162183,0.382262,-0.619827,0.687252,0.535479,0.0838928,0.0905991,0.104404,0.0336438
0.170437,0.39474,-0.61877,0.532011,0.333348,0.238097,0.204759,0.111634,0.0242084
0.17264,0.404425,-0.612815,0.310645,0.0846764,0.447032,0.286151,0.10693,0.0421832
0.167145,0.411115,-0.601459,0.217435,-0.141865,0.716877,0.340979,0.142551,-0.03926
0.15369,0.418767,-0.58268,0.270337,-0.510495,1.10022,0.393223,0.158175,-0.050623
0.126587,0.429034,-0.55571,0.448574,-1.07953,1.45203,0.424683,0.208977,-0.101387
0.0860015,0.446258,-0.522887,0.959846,-1.56855,1.59601,0.355484,0.231062,-0.0894856
0.0356268,0.472012,-0.49231,1.42246,-2.06613,1.23426,0.246382,0.25926,-0.139787
-0.0188774,0.504057,-0.46858,1.68389,-2.15007,0.939773,0.202121,0.20779,-0.139739
-0.0684081,0.535818,-0.443373,1.49913,-1.37945,1.1689,0.199293,0.111696,-0.0378357
-0.100792,0.557993,-0.407999,0.914254,0.015249,1.632,0.137194,0.0609487,0.108998
-0.110811,0.565029,-0.364433,0.204784,1.23835,1.89079,0.0664035,0.0917145,0.128822
-0.102245,0.560507,-0.319567,-0.168023,1.86491,1.87993,0.0440607,0.148864,0.066485
-0.0884508,0.553469,-0.276422,-0.129759,1.67682,1.82945,0.115171,0.172797,-0.0448616
-0.0836418,0.550029,-0.232466,0.113665,1.06549,1.94603,0.193399,0.132728,-0.062794
-0.0929334,0.550659,-0.184002,0.271537,0.566363,2.12927,0.204601,0.0650274,-0.00502831
-0.110561,0.551428,-0.132372,0.222454,0.433726,2.22446,0.153644,0.0508819,0.0832556
-0.127867,0.548452,-0.078533,0.00088702,0.669813,2.33887,0.100378,0.0402269,0.20536
-0.139768,0.538565,-0.0241858,-0.375516,0.924745,2.37176,0.0764262,0.0390885,0.276359
-0.146501,0.520081,0.0285568,-0.772878,1.05337,2.35072,0.053266,0.00778443,0.277734
-0.147839,0.496005,0.0781336,-0.918184,1.22581,2.26334,-0.0163088,0.0185643,0.208368
-0.142329,0.471759,0.12508,-0.857059,1.49721,2.17028,-0.0679196,-0.0162493,0.174442
-0.1303,0.44847,0.168667,-0.948083,1.5869,1.97488,-0.0798774,-0.0415563,0.162821
-0.114678,0.422919,0.206754,-1.17484,1.56534,1.73395,-0.0916391,-0.0679546,0.175254
-0.0962625,0.391681,0.236949,-1.6566,1.41788,1.27888,-0.14586,-0.0306411,0.195182
-0.0759034,0.353488,0.255807,-1.88634,1.34815,0.842702,-0.143305,0.00785488,0.0838308
-0.0533258,0.316092,0.268755,-1.71176,1.26127,0.628093,-0.107009,0.0175655,0.0318701
-0.0345874,0.285115,0.279537,-1.2821,0.907475,0.545803,-0.0555606,0.0198691,-0.0799918
-0.022505,0.264125,0.289778,-0.820569,0.600675,0.472971,-0.0486661,0.0270708,-0.0787157
-0.0140131,0.24904,0.297059,-0.72543,0.433126,0.24812,-0.0662231,0.0690289,-0.0393685
-0.006812,0.233436,0.300546,-0.833299,0.39291,0.133803,-0.0377911,0.0643903,-0.0222318
-0.006812,0.233436,0.300546,-0.833299,0.39291,0.133803,-0.0377911,0.0643903,-0.0222318
0.00125546,0.215596,0.304035,-0.93369,0.516799,0.221897,0.00171857,0.0611889,-0.0331461
0.0124367,0.196902,0.310068,-0.897365,0.684777,0.341465,0.0121723,0.0775749,-0.0660751
0.0239462,0.18133,0.318441,-0.643162,0.573761,0.441749,0.0380636,0.080393,-0.126708
0.030798,0.171292,0.327591,-0.392784,0.245494,0.403375,0.039024,0.0763699,-0.144985
0.0310344,0.165234,0.334814,-0.25354,-0.0905571,0.274553,0.0226311,0.0568329,-0.118358
0.0259138,0.160854,0.339386,-0.193232,-0.317453,0.180341,0.0195134,0.0384421,-0.0917928
0.0175072,0.158201,0.343254,-0.0706965,-0.47361,0.200594,0.0428625,0.00582375,-0.0653886
0.00492414,0.159042,0.347975,0.156924,-0.732658,0.256034,0.0681361,-0.0302417,-0.0634748
-0.0144423,0.1637,0.353038,0.290918,-1.12064,0.225365,0.0675629,-0.0298703,-0.0417617
-0.0401776,0.169468,0.356105,0.266072,-1.33945,0.0467886,0.0136057,-0.0104799,0.00613463
-0.0663094,0.173645,0.355095,0.128742,-1.23352,-0.167326,-0.0426763,-0.0152142,0.0492795
-0.087082,0.175064,0.350745,-0.0145144,-0.867372,-0.233965,-0.0554553,-0.0334089,0.0414698
-0.0988538,0.173845,0.347116,-0.1328,-0.354246,-0.078574,-0.0210198,-0.0636475,0.0231941
-0.100861,0.170265,0.346792,-0.213275,0.119509,0.0580646,-0.0116055,-0.0745597,0.00499105
-0.0956853,0.165802,0.347052,-0.215642,0.353216,-0.0242152,-0.0101256,-0.0649981,-0.0291811
-0.0886453,0.162231,0.34429,-0.149162,0.265084,-0.222348,0.0128887,-0.061823,-0.077888
-0.0841296,0.160927,0.337591,-0.033384,0.0743399,-0.413222,0.0471628,-0.0663294,-0.0964748
-0.0827227,0.162017,0.327987,0.0593834,-0.0689715,-0.514854,0.078937,-0.0681833,-0.106467
-0.0823081,0.165092,0.317797,0.172678,-0.0280819,-0.489244,0.0904358,-0.0631498,-0.097701
-0.0802001,0.170224,0.309146,0.255053,0.0959728,-0.396605,0.0936963,-0.0641325,-0.0888033
-0.0761907,0.176125,0.302327,0.27051,0.16589,-0.327885,0.0809209,-0.0529033,-0.0856479
-0.0721831,0.181865,0.296058,0.268359,0.0937342,-0.33747,0.0523458,-0.0243668,-0.097712
-0.0703522,0.189009,0.289483,0.428404,-0.0240642,-0.348399,0.0461999,-0.0051682,-0.12499
-0.0703843,0.200783,0.283449,0.706697,-0.0948928,-0.305115,0.0515794,0.00189617,-0.105935
-0.071683,0.217473,0.279059,0.894041,-0.135173,-0.243878,0.0487707,-0.00617576,-0.0450286
-0.0749627,0.235694,0.275321,0.85773,-0.315178,-0.263241,0.0332864,0.00394972,0.00293165
-0.0834577,0.252093,0.27064,0.749776,-0.682537,-0.280145,0.0576548,0.0121728,0.0233257
-0.102683,0.267807,0.268077,0.823554,-1.37115,-0.109317,0.10657,0.0252373,0.0147398
-0.143074,0.287337,0.267625,1.1235,-2.78639,-0.22781,0.20333,0.0801371,-0.0247043
-0.216653,0.314441,0.265382,1.49291,-4.51063,-0.466687,0.265931,0.112248,-0.0649908
-0.310662,0.348756,0.263731,1.69459,-4.53945,-0.509854,0.235285,0.128732,0.107458
-0.390041,0.378994,0.26939,1.20983,-3.03686,0.115776,0.0709108,0.121665,0.37542
-0.426383,0.389958,0.285647,0.408505,0.221353,0.739101,0.0243918,-0.0446092,0.585889
-0.404518,0.381372,0.304716,-0.509376,2.23332,1.2221,0.0071601,-0.0245191,0.560918
-0.365685,0.354273,0.323576,-1.2334,2.09951,1.29116,-0.0191706,0.0816956,0.172683
-0.334739,0.323418,0.336753,-1.07475,1.42868,0.879092,-0.0732754,0.121292,-0.0791116
-0.312651,0.305228,0.344546,-0.39759,1.05876,0.432026,-0.135681,0.139286,-0.131705
-0.294691,0.300286,0.350383,0.0160958,0.944194,0.295751,-0.0912961,0.087679,-0.131917
-0.278071,0.298159,0.356939,-0.114139,0.886191,0.381734,-0.0175481,0.00791824,-0.0624221
-0.265107,0.290125,0.3636,-0.47962,0.580283,0.403521,-0.0184685,-0.0176386,-0.0785177
-0.256772,0.277437,0.366832,-0.615577,0.336507,0.19857,-0.0583788,-0.00410855,-0.0987169
-0.251952,0.265458,0.365649,-0.542924,0.13285,0.0158157,-0.0613931,-0.00135076,-0.137363
-0.250131,0.256044,0.362997,-0.443935,-0.0169197,-0.0155879,-0.0259808,-0.0279789,-0.121986
-0.250582,0.247319,0.361224,-0.450967,-0.0114871,0.0945416,0.0139822,-0.0521462,-0.100382
-0.248363,0.237126,0.36293,-0.492511,0.270881,0.332796,0.0583817,-0.100279,-0.0150989
-0.242455,0.224511,0.36995,-0.571616,0.402881,0.61773,0.0692964,-0.131588,-0.00382185
-0.241677,0.209039,0.380213,-0.703581,-0.259973,0.663216,0.0930385,-0.0696102,-0.141461
-0.257464,0.192566,0.388608,-0.617168,-1.13438,0.54531,0.141554,0.0264006,-0.231805
-0.257464,0.192566,0.388608,-0.617168,-1.13438,0.54531,0.141554,0.0264006,-0.231805
-0.28888,0.182569,0.398237,0.0365488,-1.65577,0.668485,0.164956,0.00832368,-0.228846
-0.32083,0.188011,0.416029,0.9792,-1.15294,0.811085,0.141554,0.00286877,0.0710604
-0.347059,0.206994,0.44345,1.59704,-0.937031,1.12191,0.0713222,-0.0234698,0.123108
-0.369885,0.229912,0.480093,1.72301,-0.472338,1.38262,0.0330408,-0.0853559,0.212889
-0.383542,0.249466,0.521732,1.52808,0.0732713,1.6658,-0.0563831,-0.141937,0.251879
-0.38917,0.260427,0.567316,1.11822,0.506833,1.96848,-0.0934414,-0.204497,0.183592
-0.388054,0.261421,0.615017,0.723807,0.792925,2.22086,-0.131509,-0.205947,0.133577
-0.380082,0.254698,0.662569,0.406793,1.23985,2.23502,-0.0549278,-0.200821,0.169169
-0.364361,0.244395,0.708107,0.262612,1.35079,2.24927,-0.0504465,-0.152424,0.0948033
-0.348873,0.233641,0.754301,0.335812,1.28297,2.305,-0.0452564,-0.108734,-0.0143943
-0.335825,0.227007,0.803468,0.668077,1.08931,2.43062,-0.0587894,-0.0502217,-0.0782831
-0.329279,0.226142,0.858064,0.947698,0.847958,2.56501,-0.0593074,0.0192176,-0.157316
-0.323107,0.228386,0.911326,0.79469,0.908553,2.10203,0.055241,0.0459252,-0.0642238
-0.319165,0.226506,0.948223,0.204343,0.188425,1.43638,0.0972022,0.0996658,-0.218341
-0.32927,0.222071,0.976224,0.345034,-0.501426,1.35611,0.10005,0.0368239,-0.186273
-0.352021,0.222486,1.00823,0.728009,-1.09539,1.57443,0.153924,0.0371989,-0.194688
-0.388786,0.227049,1.0478,1.07243,-1.65914,1.83925,0.202695,0.128378,-0.237281
-0.436754,0.233715,1.09506,1.36912,-1.96654,2.10309,0.257692,0.158183,-0.213247
-0.488154,0.239853,1.15153,1.58673,-1.78366,2.53081,0.315647,0.117214,-0.119317
-0.536195,0.240199,1.21819,1.57446,-1.35436,3.08263,0.310304,0.127483,-0.0599797
-0.575081,0.230553,1.29317,1.41607,-0.790718,3.55315,0.272126,0.108277,0.0261729
-0.604084,0.211133,1.37119,1.20175,-0.405593,3.76257,0.231772,0.0963784,-0.0342581
-0.623763,0.186093,1.44663,0.984485,-0.0836214,3.63395,0.176579,0.0376363,-0.0590326
-0.634573,0.158763,1.5136,0.673617,0.116792,3.24735,0.137288,-0.0205987,-0.0645747
-0.63959,0.131092,1.56979,0.442915,0.181033,2.84211,0.137003,-0.0475513,-0.0878142
-0.641744,0.105778,1.61919,0.486497,0.181337,2.62197,0.148516,-0.00998898,-0.115229
-0.641628,0.083519,1.66735,0.593077,0.304092,2.52646,0.159266,0.0153219,-0.100382
-0.637488,0.0639116,1.71481,0.618741,0.443031,2.39305,0.138443,0.0270181,-0.050098
-0.630113,0.0457609,1.75814,0.451637,0.474424,2.14118,0.11401,0.0466604,-0.00262326
-0.624132,0.0276944,1.79422,0.199766,0.248299,1.80647,0.115434,0.08778,-0.0327279
-0.621821,0.00988395,1.82223,0.000527102,0.023098,1.51833,0.124251,0.112209,-0.0323896
-0.623188,-0.00745234,1.8451,-0.0515671,-0.115903,1.33504,0.108177,0.137613,-0.0585906
-0.62336,-0.0222326,1.86514,0.0547913,0.15067,1.15364,0.0721173,0.154542,-0.0357524
-0.634958,-0.0186218,1.8981,1.73347,-0.613158,1.53289,0.605583,1.3328,-1.05463
-0.628128,-0.0134825,1.9428,1.10326,0.771412,1.51312,0.0255508,-0.509408,0.436741
-0.619997,-0.0125517,1.97153,0.918773,-0.17654,0.779416,0.0186245,0.309546,0.120273
-0.625783,-0.00789346,1.99218,0.708545,-0.394138,0.712313,0.129018,-0.106175,0.117441
-0.635578,-0.004312,2.01085,0.684217,-0.511268,0.525553,0.0548951,0.0333772,0.0354341
-0.643519,0.00231339,2.02641,0.784193,-0.224689,0.366377,-0.000862777,0.0467012,-0.000443459
-0.645012,0.01102,2.04249,0.886027,0.129922,0.374992,-0.0562536,0.0168943,0.00589228
-0.63896,0.023175,2.06025,1.1432,0.441408,0.299443,-0.0545563,0.0095621,0.0488542
-0.630383,0.0378501,2.07654,0.754598,0.502645,0.0581963,-0.00848687,0.013961,-0.0387088
-0.615151,0.0428083,2.07849,0.00106149,1.08034,-0.0575147,0.0693203,-0.0721035,-0.51649
-0.588625,0.0421896,2.08046,-0.0290534,1.36166,0.238257,-0.162408,-0.206862,-0.150389
-0.564798,0.0397009,2.08489,0.0921653,0.974556,0.231216,-0.00906068,-0.0430427,0.0482852
-0.55044,0.0417065,2.0882,0.254647,0.503983,-0.181993,0.0383245,0.00658396,0.061987
-0.540713,0.0499352,2.08595,0.297744,0.609659,-0.244544,-0.00238907,0.0820037,-0.0157055
-0.523484,0.0551162,2.08767,0.209287,1.04141,0.0481587,0.00774753,-0.143184,0.0211701
-0.523484,0.0551162,2.08767,0.209287,1.04141,0.0481587,0.00774753,-0.143184,0.0211701
-0.50195,0.0575753,2.09069,0.163679,1.05088,0.0791682,0.037605,-0.0636418,-0.0215657
-0.48281,0.0601422,2.0933,0.207065,0.883039,0.0165283,0.0353608,-0.0444473,0.0166606
-0.468025,0.0645398,2.09483,0.241511,0.569095,-0.0786529,0.0273187,-0.0237313,0.0223014
-0.459734,0.0706111,2.09415,0.251318,0.278176,-0.261132,0.0722734,-0.0202679,0.0215771
-0.452613,0.0783045,2.09215,0.373238,0.493919,-0.196501,-0.0206879,-0.00096862,0.0259157
-0.438884,0.0864114,2.09356,0.386153,0.868894,-0.0495649,-0.0515094,-0.0256193,0.0107813
-0.419448,0.0930585,2.09634,0.340978,1.05988,0.0305984,-0.059029,0.00156981,-0.042298
-0.399032,0.0985793,2.10027,0.323122,0.968617,0.0888905,-0.0455951,-0.0176692,-0.00472808
-0.382357,0.103906,2.10359,0.296858,0.725762,0.0315824,0.0420403,-0.024241,0.003335
-0.369078,0.110827,2.10695,0.545139,0.628885,0.0348454,0.018943,-0.0382034,0.087171
-0.359452,0.120174,2.10837,0.443411,0.606411,-0.0813463,0.0159575,0.11694,-0.0651838
-0.345204,0.136611,2.11627,1.34883,0.569825,-0.112834,-0.11209,-0.139082,0.415561
-0.350857,0.159554,2.11208,0.731326,-0.764884,-0.624911,0.181989,0.40903,0.157284
-0.363888,0.170247,2.10595,0.14161,-0.358268,-0.285242,0.201259,-0.263939,-0.2877
-0.365582,0.184126,2.11116,0.510878,-0.328982,-0.15788,-0.25791,-0.290514,0.100518
-0.371113,0.184421,2.1076,-0.160984,-0.0449926,0.0440743,0.152676,0.159283,-0.114091
-0.368963,0.185061,2.11089,0.181542,0.545837,0.179966,-0.10895,-0.174728,-0.353717
-0.355383,0.186205,2.11578,0.125039,0.783777,0.204731,-0.039153,-0.0150191,-0.00145274
-0.341794,0.18707,2.12002,0.0889503,0.608143,0.150246,0.0100095,0.00624721,0.0626957
-0.332021,0.187815,2.12213,0.0908523,0.466637,0.0302882,0.0616468,-0.000543535,0.0886574
-0.32609,0.189236,2.12257,-0.0212744,0.174846,-0.0558496,-0.00878748,-0.0197005,0.161989
-0.325231,0.189626,2.12211,0.0414201,-0.0854773,-0.0440584,-0.0182004,-0.0905306,0.0915411
-0.329558,0.191269,2.12101,0.0866968,-0.310035,-0.119756,0.0112043,-0.116093,-0.00376278
-0.335815,0.193462,2.11925,0.13934,-0.308976,-0.0974054,-0.0378454,-0.124348,-0.0991976
-0.339243,0.197089,2.11892,0.139488,0.0263951,-0.0129094,-0.0945827,-0.158707,-0.16555
-0.335364,0.198511,2.12076,0.105094,0.340213,0.129304,-0.102598,-0.0642347,-0.0139969
-0.330626,0.19985,2.12392,0.126959,0.1335,0.105706,-0.0294671,-0.0603737,0.0444148
-0.33247,0.201352,2.1262,0.0710062,-0.22169,0.0552481,-0.00789732,-0.0657679,0.0264384
-0.338113,0.201263,2.12779,-0.0263593,-0.255128,0.114792,-0.0382236,-0.0611866,-0.00768197
-0.342631,0.199387,2.13072,-0.0498362,-0.14482,0.204694,-0.0596519,-0.0755517,0.00564176
-0.346257,0.19652,2.13426,-0.114017,-0.163679,0.19593,-0.0336085,-0.0797821,0.00782549
-0.350394,0.192721,2.13682,-0.145382,-0.196367,0.176699,-0.0134287,-0.0744456,0.016423
-0.354282,0.188982,2.13933,-0.115461,-0.119575,0.183206,-0.0307647,-0.0745766,0.0358518
-0.355921,0.185798,2.14275,-0.0644329,0.0247193,0.246128,-0.0534635,-0.0760267,0.0425471
-0.355857,0.183379,2.14749,-0.0501592,0.0341914,0.270422,-0.0463792,-0.0738272,0.0433819
-0.356649,0.180573,2.1517,-0.0983048,-0.0265431,0.214923,-0.0110323,-0.0811949,0.0130531
-0.35753,0.17702,2.15456,-0.130996,0.0109948,0.194124,-0.00728318,-0.0754743,0.0118008
-0.356207,0.172957,2.15791,-0.141545,0.175443,0.254373,-0.0437183,-0.0655136,0.020655
-0.351843,0.167922,2.16203,-0.199969,0.314085,0.301016,-0.0325636,-0.0671035,0.00150841
-0.345458,0.160878,2.16684,-0.292584,0.415516,0.385201,-0.0419658,-0.0632954,-0.0201126
-0.338181,0.151215,2.17242,-0.457034,0.346303,0.427401,-0.0350363,-0.0568804,-0.0289223
-0.334519,0.138887,2.17375,-0.606007,0.031381,0.0179251,0.00171289,0.00935107,-0.119886
-0.330345,0.128169,2.16854,-0.618335,0.429157,-0.0922021,-0.0508958,-0.00757284,-0.0822446
-0.316993,0.118793,2.15937,-0.387282,0.608919,-0.60465,0.0135088,-0.00499082,-0.136491
-0.306963,0.124502,2.14293,0.408336,0.169789,-1.18292,-0.0761961,-0.0197248,-0.160217
-0.305595,0.145654,2.11677,0.683012,-0.389952,-1.84645,0.0368871,0.0180334,-0.230869
-0.30834,0.167245,2.08244,0.285991,-0.291133,-1.92857,0.22974,0.0546343,-0.0755777
-0.30834,0.167245,2.08244,0.285991,-0.291133,-1.92857,0.22974,0.0546343,-0.0755777
-0.30534,0.181006,2.04751,0.0895081,-0.0574864,-1.73179,0.328421,0.219479,0.0513685
-0.298956,0.195424,2.01817,0.439661,0.0657921,-1.49549,0.376838,0.236953,-0.070099
-0.288112,0.214006,1.98847,0.368015,0.431395,-1.84826,0.225415,0.209141,0.0366875
-0.264998,0.226747,1.94754,-0.259574,0.974513,-2.40455,0.0905914,0.105012,0.241186
-0.228354,0.22992,1.88786,-0.803803,1.22849,-3.29612,0.0237623,0.0814758,0.315123
-0.188714,0.227236,1.80883,-0.960447,0.858807,-4.12355,0.0978887,0.164128,0.14361
-0.155199,0.22796,1.71492,-0.417674,0.332419,-4.80076,0.181049,0.278039,0.0918463
-0.139033,0.238037,1.61664,-0.00184071,-1.0034,-4.66297,0.151172,0.0442215,-0.0642014
-0.144216,0.253652,1.52418,0.280852,-1.56346,-4.42043,0.0586892,-0.0116474,0.18183
-0.152252,0.273839,1.43594,0.341566,-1.51523,-4.27148,0.00366381,-0.00708181,0.302616
-0.164638,0.289252,1.34909,-0.0974445,-2.33784,-4.13984,0.0148748,0.10216,-0.0328049
-0.197647,0.298683,1.26687,-0.35861,-3.14548,-3.61611,0.0124521,0.212566,-0.308853
-0.236727,0.304974,1.20201,-0.267838,-2.33998,-2.56366,-0.0323579,-0.0845273,-0.168619
-0.249744,0.310811,1.15759,-0.289293,-0.322766,-1.68524,-0.0456619,-0.166551,0.174364
-0.234191,0.30835,1.12778,-0.620308,0.8572,-1.04453,-0.0370211,-0.175029,0.0662909
-0.204247,0.29884,1.10672,-0.667332,1.38638,-0.747686,-0.0923077,-0.100944,-0.0379562
-0.170719,0.29158,1.09102,-0.266134,1.48904,-0.577759,-0.128235,-0.0996339,-0.163829
-0.13608,0.292841,1.08051,0.189202,1.66647,-0.484038,-0.137678,-0.0951461,-0.0770277
-0.0951847,0.299808,1.06814,0.328597,2.08727,-0.826699,-0.0968815,-0.0331852,0.077686
-0.0282275,0.309443,1.04272,0.435303,3.22467,-1.57538,-0.0888547,0.156121,0.499258
-0.00618599,0.314139,1.01374,0.325657,-0.620701,-1.09877,0.319909,-0.488289,-1.34487
-0.0120012,0.328647,0.99483,1.10462,-0.773873,-0.675414,0.184393,-0.233481,0.0819556
-0.0248222,0.356445,0.983183,1.56807,-0.834461,-0.520185,0.0166831,-0.0181356,-0.0368088
-0.0394498,0.389227,0.973047,1.60752,-0.974743,-0.535012,0.0257474,-0.000928462,-0.0622725
-0.0523848,0.4189,0.962074,1.22443,-0.745345,-0.590091,0.0457431,-0.0250219,0.0471866
-0.062053,0.438326,0.950884,0.659461,-0.658035,-0.526946,0.0239699,-0.0536183,0.0247992
-0.0665673,0.447793,0.940116,0.244057,-0.224279,-0.49789,0.00243415,-0.0289975,0.0796756
-0.0632314,0.450308,0.929782,-0.0425592,0.0696899,-0.449066,-0.0182136,-0.0603171,0.0787813
-0.0554743,0.447932,0.919191,-0.247985,0.219727,-0.506369,-0.0173001,-0.0707736,0.076823
-0.04505,0.441936,0.906187,-0.395645,0.243344,-0.627959,0.0028053,-0.0676101,0.0689629
-0.0347776,0.433794,0.891075,-0.452777,0.105199,-0.688102,0.056666,-0.0865961,0.0503838
-0.0262672,0.425678,0.875213,-0.391068,0.135954,-0.710809,0.0967201,-0.096537,0.0501236
-0.0174689,0.418879,0.860122,-0.29832,0.0971836,-0.616997,0.0701418,-0.106248,0.043121
-0.011607,0.414712,0.848251,-0.133069,-0.00513975,-0.455253,0.0798825,-0.103818,0.0345404
-0.00938913,0.413535,0.8398,0.000585051,-0.105339,-0.314718,0.10218,-0.0986394,0.0300455
-0.0100418,0.414195,0.833641,0.056024,-0.170671,-0.264951,0.0981818,-0.0966165,0.0168198
-0.0098083,0.415648,0.827664,0.0655229,-0.0379981,-0.276309,0.0718545,-0.0906019,0.0680701
-0.00688171,0.416959,0.821759,0.0749505,0.0890462,-0.257598,0.0444086,-0.0811937,0.0624202
-0.00268041,0.419305,0.816592,0.1618,0.0847956,-0.201277,0.0658028,-0.0647679,0.0523766
-0.000656663,0.423703,0.813077,0.277676,-0.0150775,-0.130301,0.0700109,-0.0546972,0.0126317
-0.000240635,0.430684,0.809897,0.406774,-0.0807193,-0.173128,0.0572713,-0.0362734,0.013493
-0.000511403,0.43948,0.804758,0.450274,-0.154576,-0.295484,0.0477498,-0.0333624,0.0184371
-0.000347587,0.447806,0.796698,0.360179,-0.165664,-0.416463,0.0269857,-0.0449468,0.044786
0.0015023,0.45337,0.786824,0.189968,-0.0793815,-0.459809,-0.00577554,-0.0539457,0.0618474
0.00571486,0.455348,0.776163,0.0115236,0.0302822,-0.495708,-0.00751287,-0.0537098,0.0460122
0.0124354,0.454301,0.764688,-0.0832329,0.131466,-0.522207,-0.00182012,-0.0394525,0.0150604
0.0208463,0.453125,0.753043,0.0181655,0.201876,-0.51399,0.0149197,-0.0295844,-0.0148233
0.0303845,0.455397,0.741828,0.230589,0.226357,-0.475728,0.0216208,-0.0305182,-0.00944769
0.0303845,0.455397,0.741828,0.230589,0.226357,-0.475728,0.0216208,-0.0305182,-0.00944769
0.039047,0.461734,0.731195,0.423089,0.173232,-0.466136,0.0210506,-0.0370124,-0.0277032
0.0465408,0.471151,0.719706,0.536738,0.0587634,-0.519517,0.0448334,-0.0367031,-0.0321141
0.0520013,0.481123,0.706616,0.49527,-0.140491,-0.579266,0.072499,-0.0294739,-0.018592
0.0537638,0.489581,0.693422,0.398519,-0.294369,-0.51231,0.078353,-0.028615,-0.0113384
0.0515627,0.495268,0.68193,0.216317,-0.449013,-0.482871,0.0556663,-0.0144482,-0.0387321
0.0483886,0.497523,0.669701,0.0796989,-0.42771,-0.61398,0.0261131,0.00729471,-0.0225602
0.0487266,0.498231,0.653891,0.0538433,-0.341872,-0.725841,-0.0269168,0.0212376,0.00478244
0.0503345,0.498735,0.63678,0.0851946,-0.285791,-0.757624,-0.0458782,0.0175757,-0.0130758
0.0530187,0.500556,0.619826,0.181849,-0.262687,-0.699662,-0.0344836,0.0239506,0.0088191
0.0557074,0.504565,0.604114,0.282066,-0.237343,-0.650517,-0.0267218,0.0365729,0.0428808
0.0585658,0.510099,0.589139,0.335387,-0.206364,-0.610615,-0.0202276,0.0523661,0.0755913
0.061494,0.51608,0.575402,0.310958,-0.178989,-0.543993,-0.0117948,0.05097,0.123045
0.0646795,0.520339,0.562388,0.169491,-0.145216,-0.566049,-0.00918981,0.0540897,0.164085
0.0693615,0.521419,0.548641,0.0201426,-0.076168,-0.599701,0.00414345,0.0560638,0.207085
0.0738046,0.519379,0.53479,-0.121827,-0.161361,-0.606573,0.0409211,0.0323827,0.194469
0.0778725,0.515821,0.521553,-0.133381,-0.100603,-0.540893,0.050126,0.0330442,0.222583
0.0810138,0.511981,0.510868,-0.19023,-0.137054,-0.406222,0.0629506,-0.00293833,0.222493
0.0795667,0.506139,0.503298,-0.34325,-0.396113,-0.306597,0.0673844,-0.0351853,0.181197
0.071687,0.496733,0.497399,-0.564157,-0.673063,-0.28225,0.062809,-0.0507421,0.122141
0.0574688,0.482555,0.491792,-0.79112,-0.991871,-0.301498,0.0544529,-0.0615449,0.0157737
0.0393035,0.466134,0.486202,-0.76605,-1.00729,-0.249398,0.04693,-0.0579492,-0.0647901
0.0232199,0.452901,0.482375,-0.513422,-0.732863,-0.137193,-0.00377192,-0.0558321,-0.104021
0.0135597,0.446085,0.480154,-0.155729,-0.316099,-0.0901873,-0.0298105,-0.05248,-0.122293
0.0122537,0.446081,0.477938,0.137585,0.0589418,-0.116639,-0.0472481,-0.0582519,-0.127327
0.016887,0.450876,0.474978,0.31881,0.25346,-0.13341,-0.0323342,-0.0694488,-0.150966
0.0239288,0.458362,0.472099,0.427791,0.309858,-0.0953606,-0.0409269,-0.0984138,-0.182153
0.0310723,0.468572,0.470409,0.606257,0.326947,-0.0267413,-0.0696345,-0.125337,-0.197038
0.0387513,0.483073,0.469428,0.843697,0.395178,-0.0224829,-0.104209,-0.13735,-0.176922
0.0484748,0.502049,0.467777,1.04039,0.484459,-0.0358289,-0.141643,-0.13868,-0.110012
0.059449,0.524213,0.465609,1.1566,0.48532,-0.0361086,-0.166533,-0.179201,-0.0428089
0.0703386,0.547658,0.461886,1.18845,0.387131,-0.141455,-0.196644,-0.191637,0.00764108
0.0808211,0.571319,0.453854,1.22124,0.253025,-0.371744,-0.199793,-0.200438,0.0276975
0.0951473,0.595216,0.438296,1.25066,0.317277,-0.706061,-0.181205,-0.156582,0.0925927
0.11657,0.618038,0.414124,1.20864,0.444261,-0.996983,-0.116566,-0.134857,0.122153
0.144522,0.638282,0.383758,1.0923,0.542745,-1.13251,-0.0454438,-0.101968,0.145486
0.175604,0.654484,0.351662,0.889178,0.590704,-1.10753,0.0208514,-0.0877981,0.178347
0.205058,0.665477,0.321038,0.641877,0.456893,-1.04033,0.101254,-0.0668913,0.15889
0.229912,0.671316,0.293859,0.37872,0.339094,-0.885267,0.160931,-0.0427169,0.16891
0.248027,0.672223,0.273461,0.0823272,0.192817,-0.62117,0.206966,-0.0309902,0.148632
0.257076,0.66891,0.262702,-0.17423,0.0571682,-0.248315,0.217882,0.00898612,0.127492
0.256206,0.664245,0.264736,-0.29631,-0.0218379,0.29984,0.237891,-0.0222679,0.107521
0.244396,0.661025,0.281062,-0.319448,-0.171469,0.851904,0.240501,-0.0226704,0.0779028
0.221561,0.659731,0.30924,-0.321119,-0.384487,1.23063,0.211294,0.00381917,0.0350788
0.191425,0.658875,0.343643,-0.312225,-0.498092,1.37362,0.156695,0.0628811,0.0175871
0.158698,0.657999,0.380003,-0.276428,-0.552077,1.43024,0.131233,0.0708857,0.00234413
0.12296,0.656906,0.418183,-0.25126,-0.680193,1.53727,0.0922979,0.0578282,-0.0364503
0.0843664,0.655451,0.458629,-0.227758,-0.683462,1.5982,0.0491017,0.0465438,-0.0343568
0.0478302,0.652709,0.498307,-0.245031,-0.501779,1.48573,0.0276596,0.0572466,-0.028611
0.0478302,0.652709,0.498307,-0.245031,-0.501779,1.48573,0.0276596,0.0572466,-0.028611
0.0201091,0.649073,0.533765,-0.196303,-0.0930168,1.31359,0.0384399,0.0627919,0.00784802
0.00326339,0.646192,0.565728,-0.112342,0.304921,1.23978,0.0729561,0.0616993,0.0450978
-0.00613941,0.644984,0.596441,-0.00578673,0.576188,1.19377,0.128853,0.0433545,0.0717539
-0.0107374,0.645149,0.625466,0.0209052,0.670399,1.10232,0.172108,0.0360402,0.100493
-0.0132224,0.644368,0.650915,-0.0958275,0.567202,0.899044,0.202511,0.0380563,0.0951095
-0.0151869,0.640385,0.669969,-0.270274,0.395784,0.638682,0.231324,0.0653232,0.0731664
-0.0161368,0.633947,0.684366,-0.349629,0.365262,0.546342,0.214539,0.0742324,0.097156
-0.017388,0.625935,0.697311,-0.423027,0.259096,0.499761,0.193473,0.101847,0.0668237
-0.0192205,0.617264,0.70842,-0.398036,0.223356,0.419878,0.170885,0.142039,0.0360327
-0.0195364,0.610493,0.718292,-0.250676,0.331714,0.408884,0.150284,0.147673,0.043376
-0.0166829,0.606636,0.728801,-0.127801,0.564593,0.46194,0.133075,0.135583,0.0642843
-0.00983455,0.604104,0.740994,-0.137776,0.787771,0.534908,0.114814,0.106736,0.0848889
-0.000375637,0.5999,0.75456,-0.280921,0.896967,0.579263,0.111699,0.0776978,0.0926192
0.00831834,0.592351,0.769446,-0.485718,0.758259,0.635831,0.105007,0.035074,0.0830043
0.0124865,0.580852,0.784881,-0.643955,0.523132,0.617878,0.0760332,0.0125579,0.0443959
0.0138376,0.567869,0.799021,-0.645006,0.370899,0.546282,0.0378952,0.000315785,0.0425836
0.0128309,0.555787,0.811501,-0.566643,0.202917,0.491524,0.00037688,-0.0153108,0.0125777
0.0100144,0.545517,0.822803,-0.46127,0.119571,0.447518,-0.0565191,-0.0337826,-0.0115473
0.00743078,0.537466,0.832115,-0.351275,0.104263,0.330664,-0.0890093,-0.0354941,-0.03489
0.00717612,0.531594,0.838362,-0.227187,0.227974,0.214196,-0.129629,-0.0334671,-0.0687012
0.0122406,0.528316,0.843008,-0.114199,0.490615,0.20209,-0.162015,-0.0412691,-0.0494784
0.0205565,0.526417,0.848175,-0.0951817,0.568867,0.236848,-0.16537,-0.0670189,-0.0655323
0.0282928,0.524424,0.853893,-0.125094,0.449335,0.248111,-0.155347,-0.0755337,-0.0683277
0.0312628,0.521907,0.859701,-0.139198,0.111334,0.236069,-0.135556,-0.0830543,-0.10708
0.0275577,0.519666,0.864517,-0.0766664,-0.203465,0.169328,-0.108435,-0.0837626,-0.136144
0.0208321,0.520079,0.867935,0.117191,-0.279954,0.13006,-0.115748,-0.0671835,-0.123757
0.0128259,0.523958,0.869997,0.24853,-0.448321,0.0296553,-0.0940669,-0.059351,-0.154855
0.00121406,0.529312,0.867666,0.27927,-0.840412,-0.245845,-0.0345409,-0.0168344,-0.226461
-0.0146182,0.535527,0.858499,0.334472,-1.17435,-0.519377,0.0218791,0.0342511,-0.236085
-0.0328122,0.542848,0.845684,0.362013,-1.24385,-0.544136,0.0278613,0.0495664,-0.199121
-0.0506459,0.550617,0.835352,0.382005,-1.00977,-0.343111,-0.00329036,0.0642749,-0.132549
-0.0635572,0.559456,0.830883,0.471743,-0.496561,-0.0927795,-0.017351,0.0738316,-0.0216601
-0.0681811,0.569513,0.83083,0.512555,0.032687,-0.00598674,-0.0162942,0.0906743,0.0617954
-0.063483,0.57933,0.830934,0.440604,0.378,-0.0681846,-0.0120968,0.0841455,0.138489
-0.0535283,0.586658,0.827691,0.256956,0.391374,-0.267528,0.0106976,0.0761644,0.140181
-0.0413514,0.589764,0.817385,-0.00108354,0.225264,-0.60964,0.0412685,0.0844239,0.146097
-0.0289819,0.586934,0.798224,-0.347539,-0.0399174,-0.961456,0.0579569,0.0635764,0.136889
-0.0162143,0.576891,0.771589,-0.689975,-0.116446,-1.20357,0.0458925,0.0736954,0.151452
-0.00277093,0.560877,0.741537,-0.90329,-0.166009,-1.28589,0.0469326,0.0722731,0.135009
0.00921311,0.541937,0.711187,-0.953594,-0.230657,-1.27316,0.0588033,0.0824621,0.10962
0.0182856,0.523288,0.682944,-0.847086,-0.295541,-1.16301,0.0668802,0.0762076,0.101144
0.0243403,0.508093,0.658062,-0.601998,-0.301821,-1.01206,0.0876233,0.0560461,0.0882742
0.0289988,0.49799,0.637495,-0.382606,-0.238104,-0.802238,0.0965057,0.0090788,0.116868
0.0315941,0.490522,0.621316,-0.337573,-0.268017,-0.653714,0.115797,-0.0525034,0.101205
0.0319664,0.483021,0.607909,-0.37299,-0.308215,-0.539714,0.139115,-0.0900325,0.098263
0.0296809,0.474277,0.597688,-0.478918,-0.411871,-0.386395,0.139493,-0.133103,0.0927379
0.0234799,0.463465,0.591017,-0.562876,-0.492748,-0.227508,0.152873,-0.155275,0.0568141
0.0139215,0.452413,0.588366,-0.507338,-0.577434,-0.0185839,0.144035,-0.15614,0.0237737
0.0139215,0.452413,0.588366,-0.507338,-0.577434,-0.0185839,0.144035,-0.15614,0.0237737
0.000355138,0.44409,0.590844,-0.298812,-0.662465,0.240957,0.124237,-0.160253,-0.013502
-0.0174751,0.441176,0.599457,0.0254794,-0.744141,0.533636,0.0963675,-0.166441,-0.0500965
-0.0401193,0.444491,0.614225,0.316917,-0.894,0.753487,0.0592825,-0.190576,-0.0896725
-0.0671567,0.451369,0.631868,0.414384,-1.02088,0.752403,0.0166387,-0.216695,-0.12676
-0.0950305,0.457767,0.647359,0.303974,-1.05079,0.550965,-0.0165512,-0.224833,-0.150509
-0.118709,0.461454,0.657394,0.170893,-0.810898,0.323991,-0.0286615,-0.208726,-0.134119
-0.133569,0.463484,0.664456,0.110069,-0.332406,0.306527,-0.021975,-0.242447,-0.090884
-0.139001,0.463176,0.672237,-0.0776919,0.10049,0.391298,0.00167181,-0.242127,-0.077019
-0.139314,0.457562,0.680863,-0.370208,0.182498,0.430952,0.0543429,-0.231806,-0.12485
-0.140381,0.447104,0.688276,-0.528838,0.0314287,0.357813,0.100211,-0.157167,-0.185079
-0.142314,0.437135,0.694009,-0.338468,0.0515285,0.322381,0.104755,-0.0596565,-0.170024
-0.142532,0.431994,0.701737,-0.0160732,0.2608,0.505958,0.094988,0.0462306,-0.105318
-0.140346,0.434626,0.718022,0.469044,0.607958,0.925737,0.110111,0.0107926,0.0181961
-0.136663,0.445455,0.744296,0.860496,0.838032,1.21702,0.114474,-0.0137876,0.0852849
-0.132654,0.459711,0.77341,0.826904,0.783991,1.12768,0.129017,-0.0101375,0.0749984
-0.129385,0.470558,0.79708,0.462501,0.561839,0.809445,0.13026,-0.0329751,0.0872804
-0.127484,0.472756,0.811652,-0.0982006,0.273108,0.447545,0.11144,-0.0394245,0.0619858
-0.125668,0.465525,0.816495,-0.519978,0.164914,0.0829012,0.0797577,-0.0125492,0.0255776
-0.119622,0.453962,0.81398,-0.601644,0.350794,-0.129165,0.017986,0.0657426,0.00864238
-0.107146,0.443614,0.809027,-0.445119,0.677276,-0.168691,-0.0194682,0.12603,0.00830191
-0.0885519,0.437038,0.804924,-0.224067,0.960665,-0.111886,-0.0393064,0.155252,0.039041
-0.0666565,0.434857,0.802824,-0.0417667,1.08606,-0.0839586,-0.0469223,0.136171,0.0831997
-0.0442933,0.434862,0.799922,0.0322741,1.00146,-0.177177,-0.0551487,0.162389,0.0772119
-0.0239286,0.436179,0.795019,0.0806956,0.783418,-0.271282,-0.0604367,0.133936,0.0873874
-0.00803736,0.43837,0.787785,0.125578,0.50482,-0.378572,-0.0653087,0.150844,0.0584154
0.00416681,0.442042,0.779003,0.220931,0.377098,-0.407294,-0.0834171,0.140143,0.0539271
0.0159397,0.446323,0.770001,0.20387,0.411609,-0.386636,-0.0961189,0.142269,0.0629823
0.0289064,0.449264,0.761529,0.0866219,0.527893,-0.373603,-0.106997,0.116889,0.0632173
0.0444306,0.449138,0.752944,-0.0692384,0.627086,-0.397747,-0.117068,0.111909,0.0555874
0.0608552,0.446146,0.743863,-0.179217,0.594601,-0.438269,-0.109506,0.0795633,0.0384778
0.0753466,0.441033,0.733895,-0.260641,0.403984,-0.496663,-0.0919981,0.059595,0.00484902
0.0854919,0.434872,0.722619,-0.246693,0.11848,-0.561408,-0.0762347,0.0528101,-0.0390459
0.090297,0.429853,0.710525,-0.125202,-0.131325,-0.546452,-0.0630042,0.0460098,-0.0763659
0.0911885,0.428245,0.699592,0.0425475,-0.205251,-0.457821,-0.054427,-0.0108724,-0.072996
0.0921165,0.42716,0.689343,-0.135451,-0.121202,-0.504458,-0.0404622,-0.0559118,-0.0547266
0.095204,0.41873,0.676757,-0.613396,-0.103013,-0.735268,-0.0461829,-0.0696416,-0.0658576
0.0991971,0.400158,0.65889,-1.0254,-0.227721,-1.06821,-0.0361112,-0.0614405,-0.121416
0.102296,0.376747,0.635715,-0.990415,-0.321568,-1.2412,-0.0402679,0.0243,-0.174619
0.104854,0.359371,0.612069,-0.455045,-0.249848,-1.0754,-0.0385887,0.0778819,-0.189339
0.107981,0.354187,0.592771,0.0919279,-0.11697,-0.778624,-0.0294871,0.0970268,-0.147246
0.111847,0.357101,0.577578,0.287497,-0.0428395,-0.633458,-0.0177345,0.0761378,-0.0847025
0.116427,0.360553,0.563129,0.1793,-0.012666,-0.68012,-0.0258394,0.0583122,-0.027786
0.121792,0.36083,0.547304,0.0326992,-0.0235822,-0.778367,-0.0386096,0.0403224,0.00803447
0.127082,0.358869,0.529655,0.00340014,-0.0717393,-0.873015,-0.0447832,0.0450788,0.0203122
0.131997,0.357301,0.510355,0.075497,-0.119439,-0.921576,-0.0413316,0.0517277,0.0358418
0.136071,0.356769,0.490214,0.121193,-0.174781,-0.930907,-0.0239597,0.058782,0.0471891
0.13893,0.356848,0.470344,0.138121,-0.233147,-0.901275,-0.0063002,0.0437501,0.0591847
0.140501,0.357293,0.451209,0.163645,-0.258559,-0.849731,0.0101008,0.0423508,0.0602143
0.140501,0.357293,0.451209,0.163645,-0.258559,-0.849731,0.0101008,0.0423508,0.0602143
0.142015,0.358973,0.433644,0.234258,-0.195563,-0.740215,0.0146549,0.0368747,0.0843645
0.144262,0.362019,0.418444,0.262564,-0.121247,-0.616813,0.0272684,0.021506,0.108544
0.14669,0.365484,0.405817,0.24314,-0.105833,-0.493622,0.0346018,-0.00613916,0.137727
0.147442,0.368069,0.395803,0.134232,-0.1926,-0.391369,0.0452734,-0.0371883,0.155155
0.145225,0.3687,0.38818,0.0498168,-0.291209,-0.298522,0.0615284,-0.0554599,0.151035
0.140625,0.368866,0.382656,0.0422493,-0.359326,-0.210637,0.0689423,-0.0654822,0.133917
0.134569,0.368892,0.37886,0.00362117,-0.371037,-0.131889,0.0833127,-0.0827771,0.118555
0.128019,0.36827,0.377543,-0.0557125,-0.322453,0.00914749,0.102311,-0.110823,0.0973597
0.121372,0.366498,0.379524,-0.14447,-0.276459,0.146146,0.114918,-0.131566,0.068108
0.114064,0.363571,0.384216,-0.181384,-0.29716,0.244816,0.129707,-0.139396,0.0231182
0.105128,0.360834,0.390697,-0.143,-0.367086,0.322061,0.134718,-0.13306,-0.0161111
0.0947348,0.359434,0.398862,-0.0612728,-0.366562,0.428842,0.133696,-0.120576,-0.0375836
0.0847746,0.36029,0.409499,0.0547989,-0.23996,0.557856,0.13547,-0.126367,-0.0441132
0.0759774,0.362481,0.422153,0.0274644,-0.245612,0.607032,0.135739,-0.15694,-0.0506793
0.0646812,0.361598,0.433543,-0.202131,-0.510079,0.400757,0.108703,-0.15563,-0.108905
0.0486647,0.355954,0.43884,-0.347343,-0.892782,0.0708817,0.117276,-0.133632,-0.197706
0.028476,0.350125,0.438782,-0.179914,-1.06772,-0.0490751,0.104328,-0.0554982,-0.242142
0.00846051,0.350744,0.438913,0.267343,-0.852098,0.108972,0.109425,0.0263205,-0.223056
-0.0055711,0.360476,0.444758,0.653464,-0.302029,0.444689,0.125284,0.0515111,-0.132446
