rotationRate_x,rotationRate_y,rotationRate_z,acceleration_x,acceleration_y,acceleration_z,relativeAltitude
-0.262778,0.378469,-0.0703106,0.017926,-0.00489503,-0.0151364,0
-0.293378,0.254544,-0.0547776,0.0345139,0.0180994,0.00462091,0
-0.244089,0.0973163,-0.0133962,0.0342522,-0.00563437,-0.0215536,0
-0.148345,0.0568456,-0.00583419,0.00392165,-0.0147354,-0.0452356,0
-0.0409625,-0.00109645,0.00180348,-0.00547338,0.00203586,-0.0335717,0
0.0507749,-0.0831038,-0.00127584,-0.00325784,0.0122211,-0.00356674,0
0.135922,-0.203231,-0.0264557,-0.00203478,0.0266886,0.0113968,0
0.160111,-0.351601,-0.0686718,7.01547e-05,0.0258464,0.023583,0
0.0775844,-0.355175,-0.0914708,0.00438306,0.020434,0.0364048,0
-0.0395859,-0.258928,-0.124887,-0.000207454,0.00975376,0.0293905,0
-0.144534,-0.136484,-0.178659,0.0186201,0.0100688,0.0291817,0
-0.141246,-0.102016,-0.32159,-0.00315234,0.0147419,-0.00987709,0
-0.0874416,-0.0758954,-0.371692,-0.0111836,0.0582862,-0.0432941,0
-0.015684,0.0985108,-0.461789,-0.0377134,0.0751343,-0.0436893,0
-0.1055,0.148452,-0.339998,-0.0312029,0.0478335,0.0170515,0
-0.398728,0.307244,0.0360621,0.110377,0.0586231,0.109073,0
-0.692531,0.471095,0.226068,0.0862343,0.0339139,0.105558,0
-1.01536,0.322893,0.314384,0.0261531,0.133845,0.119024,0
-0.982124,0.22681,0.298028,-0.000425935,0.0276831,0.0748684,0
-0.556287,0.472848,0.310958,0.0156403,-0.0563105,-0.0514031,0
-0.0134105,0.521163,0.372471,0.0155445,-0.0680399,-0.109724,0
0.320466,0.0315112,0.352383,-0.0176563,-0.0181899,-0.0966966,0
0.38139,-0.452065,0.329708,-0.0341867,-0.0169543,-0.0534219,0
0.3665,-0.52248,0.320121,-0.0330093,-0.0206844,-0.0462068,0
0.362032,-0.327561,0.367386,-0.0206599,0.000723004,-0.0761243,0
0.379902,-0.12681,0.388728,-0.0248424,0.0197167,-0.0965323,0
0.435434,-0.0787184,0.373348,-0.00975545,-0.0113055,-0.0875075,0
0.492019,-0.307321,0.316646,0.00203609,-0.0441194,-0.0446866,0
0.563364,-0.727812,0.220756,0.00760806,-0.0432398,-0.014266,0
0.673157,-1.13238,0.0617513,-0.0389012,0.0334191,0.0142494,0
0.725958,-1.21795,0.0586291,-0.0143522,0.0528982,0.0145064,0
0.547389,-0.902429,0.273994,0.0240394,0.139044,0.0220172,0
0.343298,-0.250193,0.284225,0.0111401,0.0128826,0.0268435,0
0.0542572,0.101372,0.114129,0.00959411,-0.0750871,0.0966098,0
-0.253427,0.00429826,0.00768865,0.019628,-0.116146,0.139471,0
-0.411153,-0.229996,0.0672902,0.0646423,-0.0766444,0.117193,0
-0.460951,-0.41747,0.172349,0.0525142,-0.019565,0.0840883,0
-0.394108,-0.267534,0.266615,0.0142798,-0.00379515,-0.00200379,0
-0.354539,-0.0902898,0.183182,-0.0488433,-0.00676024,0.00414836,0
-0.374289,0.136781,-0.00611104,-0.0971505,-0.00742596,-0.0108153,0
-0.418149,0.278499,-0.146689,-0.0875411,0.00521934,0.0142636,0
-0.468015,0.351507,-0.131996,-0.0231797,0.0157267,0.0266894,0
-0.557246,0.4584,-0.0415637,0.0335281,0.0163698,0.0210353,0
-0.691638,0.597096,0.157263,0.102688,0.00943357,0.0145299,0
-0.874543,0.488371,0.109448,-0.0210178,0.0585246,0.0232148,0
-0.806283,0.400612,0.0544878,-0.00399277,0.0853245,-0.0721231,0
-0.353227,0.188163,0.145474,0.0774805,0.0542861,-0.220875,0
0.372276,0.513736,0.396623,0.106835,0.00796354,-0.223341,0
0.713371,0.133974,0.452292,0.0297605,0.0293998,-0.122961,0
0.774482,-0.267072,0.336599,-0.0263397,0.00597495,-0.0254812,0
0.646802,-0.588722,0.223436,-0.0121044,-0.0472781,0.0553371,0
0.646802,-0.588722,0.223436,-0.0121044,-0.0472781,0.0553371,0
0.411109,-0.658244,0.11464,-0.029874,-0.0446873,0.092289,0
0.169957,-0.653832,-0.112005,-0.114579,-0.0481299,0.088661,0
-0.00467482,-0.274812,-0.258479,-0.122349,-0.0213034,0.0543967,0
-0.143067,-0.000542566,-0.263379,-0.0960201,-0.0358141,0.0391465,0
-0.284433,0.142458,-0.227078,-0.0645135,-0.0304884,0.0435845,0
-0.412316,0.170589,-0.209042,-0.0459193,-0.0356534,0.0575024,0
-0.558535,0.100858,-0.166519,-0.0136012,-0.0271571,0.0566171,0
-0.6805,0.0417546,-0.118679,0.0137838,-0.0209613,0.0417276,0
-0.638921,-0.00194622,-0.0800623,0.0179818,-0.00204778,-0.0254476,0
-0.474952,-0.0173775,-0.0759762,0.0145196,0.0101998,-0.0713481,0
-0.311478,-0.0395258,-0.0600462,0.0239121,0.0110205,-0.0845327,0
-0.203543,-0.100338,-0.020133,0.036569,0.00738645,-0.0586091,0
-0.141698,-0.200153,0.0202433,0.0362453,0.00264478,-0.0312276,0
-0.0792111,-0.136134,0.0416921,0.0168681,0.00576407,-0.0448256,0
0.0739723,-0.0519369,0.0177985,-0.014506,0.00763327,-0.0603057,0
0.135405,-0.0262446,0.00390744,-0.0177799,-0.000728905,-0.0307699,0
0.0894874,-0.0297336,0.0103129,-0.0111223,-0.00120425,0.0129912,0
0.010391,-0.0300881,0.00213039,-0.00972338,-0.00131816,0.03231,0
-0.045581,-0.00425626,-0.00272082,-0.00367811,-0.00605583,0.0259474,0
-0.0818175,0.0463804,0.0354896,0.00812393,0.0135154,0.0101594,0
-0.0929466,0.052109,0.0530333,0.0120433,0.00887769,0.0109598,0
-0.116012,0.0506828,0.0643577,0.0094138,0.0010587,0.0135029,0
-0.1277,0.0225802,0.0717794,0.0090742,-0.00350404,0.00940901,0
-0.122467,0.0198584,0.0695501,0.00225785,-0.00466526,-0.0030427,0
-0.104506,0.00231675,0.0569297,-0.00188594,-0.00394309,-0.00743538,0
-0.0676386,-0.0054598,0.0400579,-0.00230381,-0.00406587,-0.0104854,0
-0.0327546,-0.00909973,0.0321143,-0.00337787,-0.00465912,-0.0120106,0
0.00434798,-0.0273763,0.0254746,-0.003317,0.00499511,-0.0168604,0
0.0375272,-0.0111383,0.0182049,-0.00495075,0.0033052,-0.0225952,0
0.0699419,-0.0200159,0.0161935,-0.00649555,1.3113e-06,-0.0196258,0
0.0843006,0.014341,0.0182535,-0.00787969,0.00692451,-0.0124182,0
0.045472,-0.00429884,0.016053,-0.00440422,0.00219083,0.00965667,0
-0.000986065,-0.00730029,0.0172327,-0.00567579,-0.00509208,0.0163487,0
-0.0322385,-0.0136659,0.0183239,-0.00119741,0.0016517,0.0135232,0
-0.0465754,-0.0181977,0.0334353,0.00895153,0.00179487,0.00723028,0
-0.0477661,-0.0338086,0.0459378,0.0103635,0.00375265,0.000858724,0
-0.0105303,0.011243,0.0438932,-0.00110839,0.00916564,-0.0152212,0
0.0134807,0.0217629,0.0302862,-0.00635712,0.0121575,-0.0147244,0
0.00542307,0.0113734,0.0258548,-0.00864331,-1.40667e-05,-0.000509024,0
-0.0368642,0.0293346,0.0500734,-0.00468537,0.00444669,0.0122041,0
-0.0530725,-0.0138135,0.0418911,0.0051466,0.00236505,0.0110483,0
-0.0403471,-0.0347266,0.0200481,-0.00883971,-0.0207036,-0.00286084,0
-0.00863199,-0.0120398,0.0171392,-0.0113461,0.000320375,-0.0156592,0
-0.000128826,-0.000504197,0.0101689,-0.00859632,0.00119746,-0.00946987,0
-0.000997008,0.00864821,0.00115539,-0.00685036,0.00287634,-0.00341648,0
-0.00294936,-0.00245153,-0.00538517,-0.00604647,0.00434357,-0.00117379,0
-0.00347188,0.0036309,-0.00891496,-0.00587882,0.00229251,-0.0015673,0
-0.0180702,-0.0120237,-0.00486043,6.97076e-05,0.00194705,0.0033024,0
-0.0329704,-0.0186065,-0.00263557,6.23353e-05,0.000297666,0.00258785,0
-0.0338127,-0.0103096,-0.00271747,-0.00171502,0.00166583,-0.00314683,0
-0.060586,0.0143947,0.0348112,0.00611076,0.0147353,-0.000649631,0
-0.060586,0.0143947,0.0348112,0.00611076,0.0147353,-0.000649631,0
-0.0411598,-0.0111381,0.0381922,0.00400206,0.0102012,-0.00171202,0
1.28914e-05,0.0170289,0.0134988,-0.0119284,-0.00275713,-0.0147565,0
0.0125808,0.000203717,-0.0214952,-0.0183371,-0.00937846,-0.00662518,0
0.0288592,0.0263317,-0.0289073,-0.0157543,-0.0123802,-0.0130327,0
0.0158736,0.0458916,-0.0224518,-0.0050413,-0.000470102,0.00603694,0
-0.00473578,0.0144879,-0.0245084,0.00773603,-0.000694394,0.0141984,0
0.0345775,0.0483812,-0.0204013,0.00868336,0.00289816,-0.0128829,0
0.0329522,0.0204566,-0.00641647,0.0145702,0.00277597,-0.00169903,0
-0.000497678,-0.00703063,0.0155912,0.0142958,-0.00339055,0.0113705,0
-0.0351894,-0.0348316,0.0137816,0.00104371,-0.00148684,0.0159295,0
0.0108975,0.0145134,-0.0012124,-0.0181324,0.000708759,-0.0206001,0
0.0238255,0.0282278,-0.00616122,-0.0148141,0.00181007,-0.0152978,0
-0.00981927,0.00905527,-0.00223606,-0.00141124,0.000815034,0.00950694,0
-0.0159147,0.00234236,-0.012895,-0.00787345,0.00174129,0.00535578,0
0.0138967,0.0323311,-0.0214741,-0.0102908,0.00399405,-0.0140102,0
0.00752458,0.0129597,-0.0156203,0.00168207,0.0024659,-0.000341237,0
-0.0110145,0.00799831,-0.00263537,0.00510953,0.000671268,0.00597727,0
-0.0376506,0.0107036,-0.00655798,-0.00512142,0.000815451,0.00792181,0
-0.0416544,-0.00098848,-0.0103204,-0.0068661,-0.00368345,0.0020014,0
-0.0254968,0.0174853,-0.0159327,-0.00608048,-0.000284255,-0.00789583,0
-0.0301171,0.00545872,-0.00988343,0.00286247,0.00209936,-0.00159717,0
-0.0251303,0.00159666,-0.0042411,0.00553222,0.00162357,0.000283659,0
-0.0347078,0.00398986,-0.00472258,-0.00146568,0.00223398,0.00405961,0
-0.0260198,0.0231133,-0.0136316,-0.00591967,-3.76105e-05,-0.00381899,0
-0.0171643,0.0256202,-0.0195823,-0.00754929,0.00102022,-0.00511849,0
-0.0209894,0.024589,-0.013052,-0.000424799,-0.000301689,-0.00357109,0
-0.0126838,0.019828,-0.0107382,-0.00179367,0.000274479,-0.00328219,0
-0.0126025,0.00973994,-0.0119116,0.00130346,0.00135741,-0.00209779,0
-0.00770975,0.0132098,-0.00169095,0.00519155,0.000680506,-0.00195879,0
-0.0156239,0.0055791,0.00166883,-0.000531614,0.000351548,0.00217676,0
-0.0247492,-0.0121437,0.00564616,0.00176334,-0.000706911,0.00048691,0
-0.0121455,-0.0161709,0.00643066,0.00192373,0.0022788,-0.00914574,0
0.000438472,-0.0118624,0.00739977,-0.00124332,0.00122428,-0.009785,0
0.0124568,-0.0112901,0.00794798,-0.00603983,0.000572562,-0.00944835,0
0.011425,-0.0117194,0.00321945,-0.0030936,0.00134769,-0.00390238,0
0.00574797,-0.0189751,0.00912253,0.000329152,0.00286448,0.000290871,0
0.00754986,-0.0186242,7.07991e-05,-0.00343135,0.000755787,-0.00139433,0
0.00867666,-0.00280259,-0.00345187,-0.00609288,0.00139064,-0.0024668,0
0.00431227,-0.00202819,-0.00250971,-0.001966,0.000576556,-0.000255227,0
-0.0121349,-0.00790534,0.0198738,0.000957582,-0.000182807,0.000465214,0
-0.0281418,-0.00482822,0.0638056,0.017348,0.023129,0.00598073,0
-0.0303791,-0.0130036,0.0419137,0.00531653,0.000791788,0.00340009,0
-0.0215188,-0.0245449,-0.00610894,-0.0202671,-0.0187107,-0.00588912,0
0.00832354,0.0060761,-0.00872533,-0.0202337,-0.00151896,-0.0152124,0
0.0119492,0.0189029,-0.0101771,-0.00440453,-0.00161025,-0.0073809,0
-0.00367883,0.0104351,0.000606034,0.00654276,0.00188059,0.00687349,0
-0.0278766,0.00279591,-0.00642077,-0.000741478,0.00168839,0.0146397,0
-0.029283,0.0143821,-0.00800003,-0.00189628,0.00229359,0.00527316,0
-0.0351894,0.0186433,-0.00924827,-0.00116774,0.00247645,0.00126868,0
-0.0442249,0.00412826,-0.00367161,0.00273713,-0.00306186,0.000749886,0
-0.0442249,0.00412826,-0.00367161,0.00273713,-0.00306186,0.000749886,0
-0.02391,0.0123673,-0.00490549,-0.00749921,0.000907272,-0.00942904,0
0.00368613,0.0116731,-0.00648239,-0.00328696,0.00117701,-0.0175375,0
0.00910463,0.00101195,-0.00156916,7.7948e-05,-0.000792086,-0.0100626,0
0.00348453,-0.0063324,0.00388515,0.00174655,0.000922322,-0.00184369,0
0.00119959,-0.0139665,0.00359803,0.00243406,0.00261986,-0.000682056,0
0.00940796,-0.0104967,0.00510699,-0.00172566,0.000830799,-0.00206143,0
0.0100447,-0.0046783,0.00180142,-0.00250959,0.00162923,-0.000724971,0
0.00238385,0.000391857,-0.00172607,-0.00403262,0.00209549,0.00394696,0
-0.00584049,0.00172138,0.000124376,0.000237927,0.000547647,0.00480145,0
-0.0109149,0.00868069,0.00102401,0.000834394,-0.000186771,0.000692666,0
-0.014988,0.00311308,-0.000615799,-0.00393312,-0.00352287,-0.00300103,0
-0.0147627,0.00491083,-0.00124751,-0.00153725,0.00027597,-0.00549155,0
-0.0186197,0.00596733,0.000791426,-0.00358431,0.000611156,0.00168556,0
-0.0149999,0.0144429,0.0281675,4.36753e-05,0.000468969,-0.0084793,0
-0.000881691,-0.00657384,0.0208216,0.00852609,0.00434482,-0.00188261,0
0.00715464,-0.0111017,0.00163523,-0.0124847,-0.0118606,-0.003618,0
0.0194928,0.00833032,-0.00324403,-0.00868571,0.00700939,-0.00762969,0
0.00627391,0.00662143,-0.010283,-0.00569113,3.32892e-05,0.00139469,0
-0.00504343,-0.00100936,-0.00154959,0.0017627,0.000728488,0.00598687,0
-0.0177941,0.00639863,-0.0058109,-0.00271758,0.00252748,0.0032956,0
-0.0170913,-0.00919577,-0.00352591,0.000828046,-0.000854999,0.00140244,0
-0.00142528,0.00331112,-0.00157652,-0.00113669,-0.0013468,-0.0114174,0
0.0174691,-0.000712943,-0.00214577,-0.00158797,0.000167251,-0.0114285,0
0.0205985,-0.00620719,0.000778898,0.00203466,0.000718415,-0.00395423,0
0.0107451,0.000500735,0.000682164,-0.0010526,0.00355434,0.00186837,0
-0.0048581,-0.00114422,-0.00341056,-0.00546414,0.000888973,0.00756109,0
-0.0190527,-0.0057777,-0.00150149,-0.00322826,-0.00138071,0.0049026,0
-0.0188474,0.000304407,-0.00425975,-0.00263961,0.000500858,-0.000910223,0
0.00705185,0.00770682,-0.00357468,-0.00184266,-0.000468731,-0.0130859,0
0.0201309,0.000805546,-0.000999876,0.00246942,-0.000398487,-0.00985932,0
0.0231054,-0.00229173,0.00527008,0.00242609,0.00109559,-0.00142813,0
0.00204087,-0.0108159,0.0049602,7.1466e-05,0.000807822,0.00900328,0
0.0088383,0.002635,0.00421841,-0.000576124,0.00230983,0.000369191,0
0.00166827,0.00927954,0.00448093,-0.000790417,0.00181812,0.00156647,0
-0.0105905,0.00524348,0.00900035,-0.00096409,-0.00182,0.00364524,0
-0.0194163,0.0019712,0.00713003,-0.00243019,-0.000614405,0.00318074,0
-0.0260451,-0.00667515,0.00647587,-0.00145011,0.000171214,0.00145417,0
-0.00541361,0.00688882,0.00348704,-0.00529018,0.000413954,-0.0132095,0
0.0109576,0.00603927,0.00239009,-0.0036778,0.00169897,-0.0118563,0
-0.00408467,-0.00733266,0.00530384,-0.000910934,-0.00186083,0.00108081,0
0.00427388,-0.00206962,0.00631883,-0.00164607,0.00208396,-0.0074324,0
0.0275435,0.00603717,0.00377293,-0.00168397,0.00182214,-0.0106007,0
0.0160741,-0.0149758,0.012822,0.00504553,-0.00069502,0.00431335,0
0.0122372,-0.00738606,0.0180096,0.00230588,0.00384802,0.0035578,0
0.00414578,-0.00452004,0.00869937,-0.00517406,0.00141287,0.00686872,0
-0.0184554,-0.0112446,0.00435722,-0.0048562,-0.00207451,0.0104344,0
-0.0071175,0.014721,0.00282531,-0.00565094,0.00192219,-0.00573587,0
-0.0136311,0.00240149,0.0034086,-0.00221032,-0.00281224,-0.00283432,0
-0.0218906,0.00120291,0.00904694,-0.00104946,-0.00157499,-0.00099206,0
-0.00412226,0.0136036,0.00570018,-0.00192879,0.00175279,-0.00845975,0
-0.00412226,0.0136036,0.00570018,-0.00192879,0.00175279,-0.00845975,0
-0.00381733,-0.00155434,0.00989939,0.00364943,-0.000828922,-7.98702e-06,0
-0.0199641,-0.00965031,0.0201638,0.00808284,0.00086242,0.00844693,0
-0.0327268,-0.0161285,0.0218819,0.00207853,0.00287974,0.0074352,0
-0.0166389,0.0056392,0.0144448,-0.00914922,0.00141138,-0.00694364,0
-0.0190008,-0.000737065,0.0126805,-0.00658505,0.00097689,-0.00266767,0
-0.0175377,-0.00423703,0.0123825,-0.00264952,-0.000206351,-0.00278151,0
-0.0127504,0.00871548,0.0138978,-0.00414187,0.000795484,-0.00504947,0
-0.00592975,0.0127945,0.00570364,-0.00411782,8.12411e-05,-0.00411582,0
-0.0163259,0.00493064,0.00905727,0.00280489,2.81334e-05,0.00189167,0
-0.0216784,-0.00778246,0.0146581,0.00600415,0.000883222,0.00449872,0
-0.0267682,-0.00702102,0.0139713,0.00213145,0.000687957,0.00105214,0
-0.0208493,-0.00266178,0.016233,-0.00315134,-0.000307649,-0.00447875,0
-0.0143315,-0.00552166,0.0153361,-0.00138026,-0.000377864,-0.00549012,0
-0.00768456,0.000583621,0.014876,-0.00343312,0.000363737,-0.00625658,0
-0.0108486,-0.00777051,0.019112,-0.000821471,-0.000797689,-0.00234604,0
-0.01052,-0.0138924,0.0191807,-0.000124395,-0.0010373,-0.000632882,0
-0.00801074,-0.00730775,0.0173867,-0.00144652,0.00220591,-0.00155574,0
-0.0125762,-0.00882619,0.0227611,-0.00155443,0.00115418,0.000873208,0
-0.00492682,-0.00908257,0.0225879,0.00045158,0.00181246,-0.00250405,0
-0.00990452,-0.014171,0.0212574,-0.00233126,0.000376105,-0.00245726,0
-0.0123515,-0.0183914,0.0229909,0.000973687,0.000572324,-0.000937343,0
-0.00939269,-0.0140413,0.030243,0.0038881,0.00137028,-0.00313056,0
-0.00806798,-0.0122342,0.0273613,-0.00205529,0.00127053,-0.0012145,0
-0.0104036,-0.0157798,0.0199793,-0.00818937,-0.00171176,-0.00111401,0
-0.0127797,-0.0151988,0.0182946,-0.00341107,0.000846207,0.000173926,0
-0.0143691,-0.0182992,0.0160146,-0.00407256,-0.000116646,-0.00237447,0
-0.01261,-0.0163435,0.012824,-0.00793751,-0.00141567,-0.00607669,0
0.00322136,-0.0047577,0.00693737,-0.00904624,5.87106e-05,-0.0117241,0
0.0148275,-0.00639228,0.00173284,-0.00725457,0.00120366,-0.00720835,0
0.0195522,-0.00625677,4.56693e-05,-0.00283992,0.00217128,-0.00386959,0
0.0146916,-0.0129133,0.00269025,0.00184938,0.00318122,0.00105226,0
0.0117577,-0.0152444,-0.00290555,-0.00227284,0.00228852,0.000789344,0
0.0116111,-0.0216748,0.00316359,0.00213909,0.00304627,-9.4533e-05,0
0.0219277,-0.0145209,0.000278235,-0.00286388,-0.00147003,-0.00599009,0
0.0240073,-0.00593411,-0.0210582,-0.018157,-0.00288448,-0.00772262,0
0.0167942,-0.0010653,-0.0163993,-0.00384597,-0.000451624,-0.00249064,0
0.0185471,-0.00652697,-0.00798573,0.00388522,0.000508428,-0.00061065,0
0.0298666,-0.00897662,-0.0124124,0.000472356,0.00103089,-0.00318891,0
0.0383191,-0.0197171,-0.00973266,0.000659168,0.0024336,-0.00384605,0
0.0453321,-0.0101027,-0.0050386,0.0012511,0.00265676,-0.00385302,0
0.0355122,-0.00633198,-0.00808484,-0.00267364,0.00101331,0.00131285,0
0.0203013,-0.00443521,-0.00680368,-0.00235137,0.000376314,0.00663996,0
-0.000979741,-0.0125304,-0.00806136,0.000809878,6.26445e-05,0.0100511,0
0.00481664,0.00567579,-0.0061571,-0.000919789,0.0012514,-0.0017724,0
-0.00348734,-0.00328112,-0.00432276,0.000852764,-0.000209749,0.00149161,0
9.72194e-05,-0.016473,0.000687975,0.00288761,-0.00135264,-0.00178432,0
0.0131089,-0.0127615,-0.00293049,-0.00116095,0.000181258,-0.00693828,0
0.0192989,-0.00861408,-0.0030255,-0.00396708,0.000440419,-0.00644243,0
0.0165675,-0.0145276,-0.00267906,-0.001224,0.00208414,-0.000360489,0
0.00709122,-0.0287495,-0.00441733,-0.00439972,-1.84774e-05,0.00129318,0
0.0343442,-0.0075785,-0.0140673,-0.0099654,0.00315449,-0.0168653,0
0.0343442,-0.0075785,-0.0140673,-0.0099654,0.00315449,-0.0168653,0
0.0528164,-0.00940691,-0.0166945,-0.00454997,0.00125247,-0.0115851,0
0.0617377,-0.00439794,-0.00666485,0.00365475,0.00037396,-0.00760704,0
0.0337705,-0.0233917,-0.0105906,-0.004384,0.00255406,0.0088104,0
0.0129872,-0.0151724,-0.0066175,-0.00217268,-0.00278568,0.00559235,0
0.00214945,-0.0071165,-0.00490513,0.000415772,0.000560224,0.00810796,0
-0.00482639,-0.0131973,-0.00470011,0.00141619,-0.000766218,0.00266814,0
0.0072939,-0.000912658,-0.00866888,-0.00272255,0.000964046,-0.00722027,0
0.0142165,-0.000602232,-0.00540886,-0.00121109,0.000837177,-0.00542241,0
0.0102228,0.00130956,-0.0113806,-0.00374027,0.000837207,-0.000796199,0
0.00671999,-0.00296147,-0.00869185,-0.00231826,0.00117609,0.00146759,0
0.00790002,0.00760555,-0.00914903,-0.000667304,0.0010308,0.00053066,0
-0.00194516,0.00789654,-0.00885993,-0.00284995,-0.00036931,0.00208098,0
-0.00649946,0.0055948,-0.00710451,0.0017538,-0.000969172,0.00374693,0
-0.0075913,-0.000476029,0.000370067,0.00403841,0.00259268,-0.0013243,0
0.0108018,-0.000686456,0.00343354,0.00198827,-0.00374287,-0.0086512,0
0.0212321,-0.00832939,0.00667054,0.00283866,1.85072e-05,-0.00751048,0
0.0200256,-0.011219,0.0064299,-0.00063844,0.00218058,0.000255227,0
0.00417846,0.00244933,0.0021869,-0.00520451,0.00286269,0.00550288,0
-0.0170117,0.0116674,0.00173501,-0.00505711,0.00131136,0.0115734,0
-0.0232584,-0.000968668,-0.00895147,-0.00516194,-0.00367391,0.00596035,0
0.0010035,0.0225587,-0.0104244,-0.00570998,0.000683069,-0.0138618,0
0.0041407,0.0174482,-0.00465959,-0.000270426,0.000205427,-0.00911671,0
0.00944655,-0.0148716,-0.00305931,0.0026608,-0.00156742,-0.00419921,0
0.0235277,-0.00273626,0.00143151,0.00232483,0.00199497,-0.00769997,0
0.0194941,-0.00240967,0.000873429,-0.00172122,0.000721991,0.000885069,0
-0.00691117,0.00275179,0.00263971,-0.00428951,0.000184894,0.011575,0
-0.040347,0.00473365,-0.00141158,-0.00597341,0.00145465,0.0140961,0
-0.041641,0.00332294,-0.00253903,-0.00561492,-0.000837594,0.00198126,0
-0.0156796,0.0195548,-0.00572189,-0.00350599,0.0015434,-0.0131734,0
-0.00626562,0.00449674,-0.00157735,0.00220117,0.00066933,-0.00843012,0
0.00907951,0.00343094,0.00287945,0.00287293,0.000181496,-0.00937104,0
0.0124116,-0.00166214,0.00406174,0.00156133,-0.000373781,-0.00372249,0
-0.00251693,-0.00139567,0.00856739,0.00244489,-0.000423789,0.00519991,0
-0.0136609,0.00385741,0.0040495,-0.00470264,0.000807524,0.00653732,0
-0.0146348,0.00252774,-0.00107986,-0.0054213,0.00146824,0.00233287,0
-0.012352,0.000323294,-0.00168423,-0.00251737,-0.000310481,-0.00253773,0
-0.00790183,0.000533439,0.000390125,-0.00144722,-0.000573337,-0.0053634,0
-0.00386267,0.0067021,-0.000850666,-0.00343974,-0.000636995,-0.00454426,0
-0.00660914,0.00841408,-0.00108098,-0.00256288,0.000283301,0.000278592,0
-0.0222955,-0.00293752,0.00244716,0.00241153,-0.000535846,0.00839978,0
-0.0355897,0.0129754,0.0559465,0.0182729,0.0217193,0.00196719,0
-0.0130785,0.00200022,0.00939558,-0.00232848,-0.00907353,-0.00132644,0
-0.011283,-0.000765522,0.00511945,-0.011241,-0.00364396,-0.00514263,0
-0.00768959,0.00680505,0.00423555,-0.00745794,-0.000951499,-0.00676531,0
-0.000960636,0.00138598,0.00935326,0.00370343,-0.00024122,-0.00431925,0
-0.003113,-0.00434456,0.00517882,-0.00259216,-8.7291e-05,-0.000201344,0
-0.000398132,-0.00133194,-0.00333159,-0.00655017,0.00138116,-0.00173634,0
-0.000541641,-0.0095187,-0.00598891,-0.00302309,-0.000155509,-0.00351191,0
0.00119468,-0.0147749,-0.00063909,-0.00183734,-0.00142902,-0.00548083,0
0.0108409,-0.00325111,-0.00309106,-0.00516713,0.000437021,-0.0094918,0
0.0250675,-0.00098216,-0.00506535,-0.00167261,0.0014962,-0.0108124,0
0.0295523,-0.00904982,-0.00209266,0.000943989,0.000664711,-0.00207126,0
0.0129999,-0.0164434,0.00493708,0.0045934,0.00333881,0.00685376,0
-0.00110944,-0.00551837,0.00207292,-0.00135241,0.0020324,0.00968468,0
-0.0170029,0.00206609,0.000315557,-0.00427842,-0.00144517,0.0082739,0
-0.0313212,0.0064123,0.00117807,-1.69724e-05,-0.000449508,0.00676107,0
-0.0202294,0.00429606,0.00159623,-0.00105439,-0.000460327,-0.0043574,0
-0.00437476,0.00113264,-0.000122363,-0.0055645,-0.00141042,-0.0108256,0
0.0122183,0.00302477,-0.00323246,-0.00293796,-0.000433505,-0.00941551,0
0.0166311,-0.000832746,-0.00464065,0.000310302,-0.000297606,-0.00402731,0
0.0118654,-0.00224231,0.000599716,0.00419183,0.000414968,0.00121903,0
0.00852985,-0.011898,0.00217183,0.00194669,0.00225055,0.00167441,0
0.0163707,-0.00030742,-0.00185061,-0.00554819,0.00203755,-0.00336134,0
0.000780311,-0.00089314,-0.00577836,-0.00828224,0.000564128,0.00224501,0
-0.00222531,-0.00549348,-0.000968329,0.000353634,0.000988901,-0.000575423,0
0.00488322,0.00296092,-0.000687559,-0.00042896,0.0018267,-0.00651848,0
0.0129145,0.0112219,-0.00571309,-0.00424016,0.00142485,-0.00615019,0
0.00748431,0.00929337,-0.0030616,0.000258744,-0.000930965,0.000846744,0
0.000289448,0.000122264,-9.62289e-05,0.00245598,0.000516057,0.00354308,0
-0.000509201,-0.00126798,0.00239843,0.00118725,-0.000243366,0.00108373,0
-0.00649735,0.00521796,-0.00295034,-0.00442822,0.00031063,0.000410199,0
-0.0126532,0.0028518,-0.00378525,-0.00474147,4.46737e-05,0.00291115,0
-0.00317373,0.0064518,-0.00854165,-0.00633122,-0.001001,-0.00587708,0
0.012393,0.0056823,-0.00320057,-0.000382587,-0.000435293,-0.011291,0
0.0129094,0.00500387,0.00100404,0.00106956,-0.00112009,-0.00462919,0
0.00556763,0.00222228,0.0034643,0.000909477,-0.000151038,0.00578374,0
0.00556763,0.00222228,0.0034643,0.000909477,-0.000151038,0.00578374,0
-0.0158543,0.0088141,0.00849451,0.00215785,0.000694036,0.0104703,0
-0.0238654,0.0029532,0.0131626,0.00433919,0.00138947,0.00799447,0
-0.0140069,0.00508844,0.00346919,-0.00420888,-0.000317991,-0.00626957,0
-0.00657929,0.000814988,0.00466838,-0.00444388,0.00148818,-0.00770515,0
-0.00244618,-0.00306244,0.00330228,-0.0042783,-0.000497997,-0.00795317,0
0.00414256,0.00313924,0.00493566,-0.00226967,0.00241384,-0.00824416,0
0.0108313,0.00580744,0.000803206,-0.00526339,-0.000532389,-0.00338864,0
-0.00030442,0.00438355,0.000794635,-0.00190979,0.000588953,0.00485802,0
-0.00699956,0.00260955,0.00210961,0.00260104,0.000708967,0.00630194,0
-0.00626028,0.00105062,0.00663168,0.00341684,0.00107235,0.00052923,0
-0.00870059,0.00117519,0.00668193,-0.00110306,-0.000830293,-0.00113785,0
-0.0119384,-0.0100348,0.0107003,-0.000272632,-0.000574917,-0.00185156,0
-0.00563898,-0.0108381,0.0156857,-0.000568792,-0.000314355,-0.00703943,0
0.00699291,0.00037101,0.0129137,-0.00221701,0.000892729,-0.00729907,0
0.00354491,-0.0058334,0.0152961,0.00145189,0.000335753,0.0020178,0
-0.010569,-0.00881924,0.0166811,0.000670791,0.00211215,0.00740552,0
-0.00916451,-0.00154257,0.00689365,-0.00473434,0.00117442,0.00165749,0
-0.00489916,0.00710974,0.00738913,-0.00130473,0.00186521,-0.00247741,0
-0.00222803,-0.00135006,0.00892408,-0.000183325,-0.0020304,-0.00351554,0
-0.0129664,-0.00234382,0.00860618,-0.00242822,-0.00164121,-0.00204921,0
-0.00473856,0.00248419,0.00859247,-0.00376822,-0.000505984,-0.00452244,0
0.0041713,-0.00211549,0.0055182,-0.00213568,-0.00134635,-0.00724179,0
0.00345168,-0.0086007,0.0106434,-0.000349864,0.00057134,-0.000917792,0
0.00386186,-0.0109164,0.0128758,0.00120321,0.00162089,0.000160158,0
0.00230684,-0.000333032,0.00885763,-0.00560637,0.00178018,-0.00106472,0
-0.0108306,-0.00477471,0.00797827,-0.00277698,-0.000244915,0.00490516,0
-0.0117608,-0.00616101,0.00652819,-0.00197224,-0.00133246,-0.000515938,0
-0.00889445,-0.00558093,0.00960517,-0.000196572,0.000932366,-0.00266868,0
-0.00957388,-0.000975015,0.00867437,0.00133717,0.00148416,-0.00112677,0
-0.00950219,0.000163855,0.0135754,0.00122105,0.00111231,-0.000481427,0
-0.00611011,-2.60673e-05,0.0123161,0.0011127,0.000685096,-0.00176799,0
-0.00687421,-0.0104251,0.0111122,-0.00108407,-0.000971943,0.00191861,0
-0.0129486,0.0105361,0.0124336,-0.00227119,0.0019637,-0.000478089,0
-0.014987,-0.00573464,0.0153192,0.000556648,0.000232458,0.00320762,0
-0.0182768,-0.00896972,0.0122034,-0.00364231,-0.00423953,-0.00100023,0
-0.0119206,-0.00906728,0.0115368,-0.000791982,0.00112489,-0.00582147,0
0.00447757,0.00469217,0.01345,-0.00185993,-0.000855058,-0.0116808,0
0.00219655,0.00455932,0.0162657,-0.000727162,-0.000706315,0.000166357,0
-0.0131058,-0.00278743,0.0146142,-0.000886615,-0.00244552,0.00676221,0
-0.0181689,-0.0100257,0.0188852,0.00110365,0.00181413,0.00612462,0
-0.0140476,-0.00788847,0.0171922,-0.00142351,0.00185478,-0.00334644,0
0.00327862,0.000373992,0.0127255,-0.00485757,0.00231689,-0.00886106,0
-0.000894313,-0.0011865,0.00914838,-0.00630273,-0.000934541,-0.00234467,0
-0.0104255,-0.00283286,0.0083726,-0.00528963,9.35495e-05,-0.00064224,0
-0.00178165,-0.00106593,0.000418609,-0.00622046,0.000590265,-0.00567693,0
0.00879537,0.00523094,-0.0091303,-0.00849956,-2.89679e-05,-0.00688505,0
0.00637957,0.00362415,-0.00892049,-0.00405844,0.000938028,-0.00172979,0
0.000110709,0.00759593,-0.0100289,-0.00350625,0.00128001,0.000299394,0
-4.69498e-05,-0.00210171,-0.0130295,-0.00155413,-0.000793338,-0.00366831,0
0.0185771,0.0114663,-0.0108333,-0.00275945,0.000680417,-0.0101703,0
0.0188581,-0.000739716,-0.0120469,-0.000532821,-0.000375092,-0.00206774,0
0.00905391,-0.0105271,-0.00693117,0.00272655,-0.0010826,0.00565594,0
-0.00357477,-0.00252238,-0.00466673,0.00195311,0.00170499,0.00674778,0
-0.00357477,-0.00252238,-0.00466673,0.00195311,0.00170499,0.00674778,0
-0.0031199,0.00424152,-0.00899597,-0.00521293,-2.27392e-05,0.00285524,0
-0.00636209,0.00510201,-0.0122924,-0.00355542,-0.00140685,-0.000591576,0
0.000454065,-0.0048518,-0.00690373,0.0019116,-0.00140002,-0.00451201,0
0.0169209,-0.00133836,-0.0119771,-0.00479793,-0.00301179,-0.0107417,0
0.0147603,0.00551033,-0.0102336,-0.00528749,-8.7291e-05,-0.00433093,0
0.0118572,0.00509382,-0.0112675,-0.00033167,0.000366181,0.00068891,0
0.0145912,0.00372336,-0.0118508,-0.000318006,0.00251096,-0.000110209,0
0.0142572,0.00324304,-0.0112555,-0.000764444,0.00277054,0.00100428,0
0.00971814,0.000799429,-0.00970697,-0.00175697,0.000515163,0.00156647,0
0.00198293,-0.00246234,-0.0108603,-0.00443248,-0.000915766,0.00215065,0
0.00217284,-0.00184981,-0.0125558,-0.00274774,-0.000568748,-0.00387919,0
0.0103732,-0.00504344,-0.0120466,-0.00252051,-0.00154808,-0.00393564,0
0.00701657,0.000788315,-0.0149411,-0.00340737,0.000582248,-0.00121784,0
0.000838741,0.00756289,-0.0101999,0.000896871,0.000567347,0.00229198,0
-0.00563929,0.00356937,-0.00909863,0.00111552,0.000230342,0.00335366,0
0.00201227,0.0122812,-0.0107194,-0.000522748,0.000527084,1.01924e-05,0
0.000551507,0.0142959,-0.0137909,-0.000305578,-4.17233e-06,0.000498474,0
-0.00637807,0.0092901,-0.00805397,0.00063622,-5.54621e-05,0.00328851,0
-0.0149228,0.00221843,-0.0047217,0.00156811,-0.00168964,0.0012005,0
-0.0113427,-0.00771941,-0.00192103,0.000615597,-0.000196278,-0.00362802,0
0.00752066,-0.00188689,-0.00172164,-0.00202538,-0.000775635,-0.00976431,0
0.0173353,0.00713046,-0.00642574,-0.00628623,-0.000723839,-0.00866413,0
0.00809514,0.00358765,-0.0056221,-0.00217755,-0.000599623,0.00311697,0
-0.00585745,-0.000594806,-0.00555688,-0.00140914,-0.000154495,0.00548422,0
0.0010812,0.00616094,-0.00861521,-0.00323156,0.000230402,-0.00144166,0
-0.00477457,0.00364216,-0.00476911,-0.000228837,0.000428587,0.000522554,0
-0.00261155,0.00561157,-0.00562185,0.000618234,0.00142086,-0.00121462,0
-0.00104157,0.00219812,-0.00490929,-0.00108798,-0.000258446,-0.00267899,0
-4.51014e-05,0.00851534,-0.00312222,-0.000168949,0.00025773,-0.0020234,0
-0.00456573,0.00228063,-0.00254473,-0.00324562,-0.000971228,0.00249767,0
-0.00466221,-0.00327301,-0.00336386,-0.00090234,-0.000682056,0.00143051,0
-0.00198541,0.00565809,-0.00576399,-0.00272899,-0.000580341,-0.00242621,0
-0.0041605,0.000146748,-0.00125526,-0.00128008,0.000194103,-0.0036456,0
-0.000448798,0.00297775,-0.00281562,-0.0018626,-0.000486165,-0.00435466,0
0.00281121,-0.0057868,0.00408417,0.00119588,0.000211328,-0.00186831,0
0.00152513,-0.00498946,-0.000724626,-0.000843838,-5.6982e-05,-0.00194103,0
0.00758438,0.00229167,0.000863042,0.00025472,0.00087586,-0.00122619,0
-0.00115539,-0.00355167,0.00451995,0.00150402,0.000449657,0.00410908,0
-0.011747,0.00120518,-0.000527469,-0.00265814,-0.000617594,0.00615603,0
-0.0198968,0.00776624,0.00258296,-0.00133991,0.00125372,0.00273061,0
-0.0104277,0.00654796,-0.00110217,-0.00338328,-0.00158846,-0.00491154,0
-0.00364858,0.00316692,-0.00659905,-0.00546892,-0.00228521,-0.00723386,0
0.0068,0.00984562,-0.00164687,-0.000538766,-0.000457764,-0.00919169,0
0.0149542,-0.00228541,-0.00509752,0.000636075,-0.000497073,-0.00512028,0
0.00942518,-0.012655,0.000188088,0.00229849,-0.00153077,0.00108856,0
0.0190032,-0.00400951,-0.00188162,-0.00245903,0.00244698,-0.0027402,0
0.00889813,0.00114617,-0.00107683,-0.00344123,0.000968337,0.00145215,0
-0.00918242,0.000978941,-0.00314057,-0.00412522,0.000395834,0.00704879,0
-0.0130889,0.00145607,-0.0048898,-0.00292663,0.000984788,0.00403184,0
-0.00923381,0.000618264,-0.00795266,-0.00291814,-0.00191927,-0.00242585,0
0.0013494,0.0092108,-0.0032848,-0.000404179,0.00020656,-0.00633156,0
0.000361321,0.00436693,-0.00269016,0.000778243,-0.000528216,-0.00229859,0
-0.00418171,0.000191513,0.00419316,0.00271195,-0.00203335,0.00182992,0
0.000287519,-0.00155071,0.0034546,-0.00200021,-0.000957906,-0.00230086,0
0.000287519,-0.00155071,0.0034546,-0.00200021,-0.000957906,-0.00230086,0
0.00270009,0.00799793,-0.00120655,-0.00523509,0.000473738,-0.000925124,0
-0.00770226,0.0106929,-0.0011784,-0.00212301,0.00114822,0.0038712,0
-0.00921406,-0.00488337,-0.00172319,-0.00203709,-0.000263602,0.00153208,0
-0.000264511,0.00389889,-0.0041912,-0.00446428,0.000200123,-0.00637418,0
0.00643835,0.00488877,-0.000428352,0.00139122,-0.00111148,-0.0056572,0
0.0025962,0.0028479,0.00190739,0.000322614,-0.00209779,-0.000622094,0
-0.00776586,0.00424114,0.00166718,-0.00276656,0.000241667,0.0039981,0
-0.00758689,-7.87708e-05,0.00606166,0.00251576,-0.00101894,0.00402516,0
-0.00640447,-0.00239888,0.00747683,0.000381097,-0.000368118,-0.00117797,0
-0.00858715,0.00226406,0.00370865,-0.00482018,0.000844955,-0.00333762,0
-0.00305709,0.00335765,0.000520438,-0.00411744,-4.6581e-05,-0.0049457,0
0.000608469,-0.00380542,0.00346453,-0.00215368,-0.000126362,-0.00270236,0
-0.00205736,-0.000146324,-0.00167629,-0.0050091,-0.00109404,-0.00156283,0
-0.00714247,0.000558955,-0.00268048,-0.00332278,0.00150248,0.000769854,0
-0.0108906,-0.000152858,-0.00307154,-0.000386953,6.9499e-05,0.002101,0
-0.0104906,-0.00193904,-0.003351,-0.00123492,-0.000848889,-0.00131208,0
-0.00216072,0.00173222,0.00171135,0.00136974,0.000729829,-0.00490832,0
0.00664423,-0.00652993,0.00442305,0.00244198,-0.00023067,-0.00746483,0
0.0130574,-0.00573959,0.00421733,-0.00291887,-0.00140801,-0.00519431,0
0.0140661,-0.00428454,-0.000331305,-0.00187895,0.000172973,5.50747e-05,0
0.00330376,0.000707645,0.00597801,0.00142026,0.00147882,0.00603414,0
-0.00882236,-0.00249697,0.00456534,-0.00274611,-0.000131786,0.0064652,0
-0.0134096,0.00737684,0.00147662,-0.00459772,-0.000751495,0.00128758,0
-0.00745962,0.00695246,-0.000275753,-0.00261605,-0.000317603,-0.00393647,0
-0.0020033,-0.00309653,-0.00330156,-0.0031416,-0.0024507,-0.00502694,0
-0.00324884,0.0114816,-0.00529783,-0.00454308,0.000957072,-0.00471044,0
0.00756249,0.00961207,-0.00522233,-0.00221328,0.000441253,-0.00397456,0
0.0128729,-0.00230091,-0.00214317,0.000995371,-0.00374749,-0.00386924,0
0.0106017,-0.00725035,0.00895561,0.00679705,-0.000190854,0.000371814,0
0.00312191,-0.00829845,0.0126509,0.00355124,0.000592411,0.00499201,0
-0.0106833,-0.00689632,0.0085481,-0.00398998,-0.000472426,0.00593448,0
-0.0145284,-0.00681715,0.00670689,-0.00529827,5.35846e-05,0.00306612,0
-0.00399347,-0.000914731,0.00168805,-0.00382641,0.000224471,-0.00725496,0
0.00613214,0.00303549,0.0012475,-0.00263906,0.000815928,-0.00699329,0
-0.000250627,-0.00292208,0.00506069,-2.91169e-05,-9.14335e-05,0.000336766,0
-0.00546225,-0.000372835,0.00457653,-0.000892952,-0.000950128,0.00115877,0
-0.00614929,-0.000738606,0.00428928,0.000134706,0.00121605,0.000919282,0
-0.0115508,-0.00473199,0.00630613,0.000366643,-0.00118244,0.00188082,0
-0.00622254,0.00144261,0.0077919,-0.00152737,0.00160259,-0.00165814,0
-0.000454661,-0.00161146,0.00458764,-0.00238581,-0.00144613,-0.00416595,0
0.00398799,-0.00669771,0.0103419,0.00208347,-0.00160819,-0.00520873,0
0.00423059,-0.0106284,0.0147503,0.00237945,-0.000925332,-0.00260478,0
0.00994579,-0.00554064,0.0138816,-0.000819549,-0.000724316,-0.00237441,0
0.0048088,-0.000973236,0.0111652,-0.0058236,0.00042057,0.00388384,0
-0.0112663,-0.00126406,0.0102903,-0.00422623,7.17342e-05,0.00581771,0
-0.0177061,-0.00296657,0.0101218,-0.00056453,0.000695646,0.00562161,0
-0.0241632,-0.00408616,0.0106316,-0.00144577,0.0004673,0.00119501,0
-0.0160481,-0.00350458,0.0100289,-0.00379493,-0.000768721,-0.00573754,0
-0.00305843,-0.00372832,0.00983765,-0.00243388,-0.000798434,-0.00747955,0
0.00433365,-0.00465791,0.0118264,-0.000450581,-0.000378996,-0.00455737,0
-0.00564786,-0.0050833,0.012478,-0.00107773,-0.00140423,0.00214416,0
-0.0131759,0.00668733,0.00856273,-0.00164993,-0.000415504,0.00604594,0
-0.0225965,0.0151531,0.00794986,0.000544533,0.00190598,0.00488251,0
-0.031587,0.0113628,0.0118168,0.00386927,0.00161743,0.00503397,0
-0.031587,0.0113628,0.0118168,0.00386927,0.00161743,0.00503397,0
-0.0229845,0.00380806,0.0148203,0.00365703,-0.00120741,-0.00293028,0
-0.0154643,0.00413138,0.0192211,0.00553222,-0.000714988,-0.00625443,0
-0.0112623,-0.00201,0.0257521,0.0044325,-0.00131628,-0.00192684,0
-0.0187815,-0.0084461,0.0290603,0.00149089,-0.0014447,0.00291246,0
-0.0189634,-0.00772106,0.0281635,-0.00259472,0.000360489,0.00222558,0
-0.0163516,-0.000184181,0.0207726,-0.00276986,0.00124416,0.000158191,0
-0.0283838,-0.00389598,0.0231133,-0.00427556,0.000436008,0.00160611,0
-0.0256237,-0.0102589,0.0129167,-0.00595081,-0.000665486,-0.0039534,0
-0.0144938,-0.00353741,0.00591156,-0.0116114,-0.00399622,-0.0101547,0
-0.00816239,-0.00294659,0.0108361,-0.00622542,-0.00295466,-0.0106595,0
0.0117559,-0.00298335,0.00776218,-0.00373538,-0.000658363,-0.0113066,0
0.0183805,-0.00774752,0.00606924,-0.00384982,-0.000634223,-0.00670695,0
0.0123117,-0.0145394,0.00755852,-0.00128138,0.00122863,0.00309175,0
0.00528923,-0.0155088,0.0046396,-0.00432141,0.00201777,0.00201637,0
-0.000765181,-0.0105511,0.00173413,-0.00878024,-0.000817657,-0.00138146,0
0.00581652,-0.0107454,-8.88212e-05,-0.00346079,-0.000779003,-0.00520623,0
0.0152736,-0.00884036,-0.000520595,-0.0017845,-0.000336707,-0.00696826,0
0.0205361,-0.00424636,-0.00225975,-0.000970718,0.00134873,-0.00434697,0
0.013916,-0.00315983,0.000255815,0.00247665,0.000431091,0.00186014,0
0.00525515,-0.00585951,0.00117341,0.000712425,-0.000356704,0.00393105,0
0.00385089,-0.00669228,-0.000627057,-0.00405805,-0.000715375,0.00134885,0
0.00347373,0.00105573,-0.00911392,-0.00668316,0.00112322,-0.00116014,0
0.00721254,0.00913842,-0.0125654,-0.00405736,0.00199348,-0.00292122,0
0.0081897,0.00152024,-0.0137324,-0.00331783,-0.00121409,-0.00276273,0
0.00738616,-0.00471468,-0.0101147,5.91576e-06,-0.00163889,-0.00272143,0
0.00898749,-0.00560924,-0.00568245,0.000387643,-0.00150052,-0.00306112,0
0.0189408,-0.00132416,-0.00795504,-0.00227554,-0.000526488,-0.00545454,0
0.0244909,0.00810206,-0.0107116,-0.00372371,-0.000465095,-0.00167292,0
0.00559623,0.000176525,-0.00695858,0.00221042,-0.000177681,0.00692171,0
0.000945662,-0.00400363,-0.00307532,0.0017071,0.0013532,0.00299245,0
0.00459303,0.0014651,-0.00552748,-0.00488464,0.000469118,-0.00252676,0
0.00338773,0.00813628,-0.00904086,-0.00319611,0.00130332,-0.00197476,0
0.00307798,0.00672533,-0.00746836,-0.00276738,-0.000453591,-0.000207663,0
0.00656303,0.00715829,-0.0130098,-0.00384907,0.000100613,-0.00229126,0
0.00405966,0.00694417,-0.0145877,-0.00156634,-0.00135386,0.00131822,0
0.00362999,0.00907303,-0.0134561,0.00174829,0.000389427,0.000841737,0
0.00513367,0.00774151,-0.0165064,-0.00162791,-0.00103337,-0.0012188,0
-0.000225973,0.0111245,-0.0127374,-0.00210442,-0.00170666,6.21676e-05,0
-0.00849579,0.00346262,-0.0047981,0.00271845,-0.0011785,0.00161606,0
0.00610866,0.00295386,-0.00463676,0.00118375,-0.00101304,-0.00479698,0
0.0102983,-0.00648306,-0.00109209,0.000261664,-0.000747025,-0.00424367,0
0.0186883,-0.00254452,-0.0016148,-0.00205608,0.000484943,-0.00425458,0
0.0104416,-0.000543005,-0.00853758,-0.00737303,0.00177899,0.00426173,0
-0.0057914,0.00136879,-0.0139152,-0.00461949,0.00101686,0.00621551,0
0.00130156,0.00300262,-0.0153648,-0.0051026,-0.000818849,-0.00467169,0
0.00366278,0.00966541,-0.0150292,-0.00694076,-0.00231811,-0.00727981,0
0.00885434,0.0144756,-0.014547,-0.00205475,-0.000227392,-0.00662029,0
0.0138616,0.00610601,-0.0197754,-0.000788987,-0.00222546,-0.00312471,0
0.0194599,0.00413893,-0.0140291,0.00259918,-0.00134906,-0.00177503,0
0.0212051,0.00189566,-0.0078408,0.00477775,0.00108674,0.0018236,0
0.0131391,0.00651108,-0.00267032,0.00161488,0.000485808,0.00447601,0
-0.00653984,-0.00350623,-0.00299501,-0.00140871,-0.00125188,0.0104702,0
-0.00890204,0.00128981,-0.00408341,-0.00204842,-0.000384063,0.00344735,0
-0.00849678,0.00627298,-0.00572137,-0.00290221,0.000226438,-0.00153726,0
-0.00849678,0.00627298,-0.00572137,-0.00290221,0.000226438,-0.00153726,0
-0.00532191,0.000786082,-0.00423946,0.00159863,0.000487298,-0.00219953,0
-0.000714438,0.0031253,-0.000353689,0.000797603,-0.000374913,-0.00540084,0
0.00851563,0.00241514,0.00275597,0.000213191,-0.00144097,-0.00432014,0
0.00134186,-0.00136482,-8.52756e-05,-0.00276915,-0.00160208,0.00159591,0
-0.00858374,0.00503334,-0.000321619,-0.00250717,0.00183749,0.00445229,0
-0.0146688,0.00957491,-0.000401757,-0.00362435,0.000734746,0.00150239,0
-0.0145801,0.00208771,-0.00569939,-0.00228627,-0.000653774,0.00048995,0
-0.01213,0.00554755,0.000674174,-0.00118911,-0.000382721,-0.00438732,0
-0.00219806,0.00612185,-0.00169162,-0.00141157,-0.000592768,-0.00550461,0
-0.00132661,0.0110075,-0.00569777,-0.00333842,-0.00167856,-0.00228125,0
-0.00570622,0.00786405,-0.00430282,-0.00131372,-0.0014326,0.00228822,0
-0.0129234,0.00867778,0.000757638,0.00114359,-0.000424027,0.00371778,0
-0.0193615,0.00681655,0.00163717,0.00217263,-0.000126123,0.00403464,0
-0.020601,0.00696764,0.00232146,-0.00127423,-0.0012998,0.00111467,0
-0.0159442,0.00669178,0.00214309,-0.00270869,-0.00144917,-0.00148219,0
-0.0184976,0.00620194,0.00296961,-0.0027215,0.00117862,-0.000674605,0
-0.0160384,0.00494174,0.00360684,-0.000783101,0.000193715,-0.0016135,0
-0.00532238,0.00708971,0.00145056,-0.00489829,0.000378609,-0.0064832,0
0.00181668,0.00853543,-0.00234406,-0.00494034,-0.00182644,-0.00511605,0
-0.00577515,0.000898519,0.00176906,-0.000642106,-0.000322521,0.00198036,0
-0.010228,-0.00484975,0.00212498,0.000297327,-0.000810355,0.00185496,0
-0.00738932,-0.00642545,0.00160624,-0.000916865,-0.000997424,-0.00413793,0
0.00160017,-0.00860507,0.00841156,-0.000863165,-0.00131249,-0.00700003,0
0.00982781,-0.00886879,-0.000674704,-0.00407767,0.00111377,-0.00570595,0
0.0108703,-0.00877769,0.00218217,-0.00118924,-0.00137642,-0.00183648,0
0.0090381,-0.00728987,0.00220249,-0.000981271,0.00160992,0.00120413,0
0.00837363,-0.00594755,-0.000780762,-0.00447407,0.00101364,-0.00111103,0
-0.00384123,-0.000442042,0.00144824,-0.00156607,0.00062412,0.00454843,0
-0.00696405,-0.00651374,-0.00276056,-0.00160491,-0.000680834,0.00219822,0
-0.00239913,0.00331626,-0.00653958,-0.00728266,-0.000956386,-0.00575423,0
0.00416742,0.0107519,-0.00399378,-0.00277503,0.0011237,-0.00831842,0
0.00839784,-0.00231944,-0.0043587,0.00161603,-0.00310731,-0.00156474,0
0.00797367,-0.0109165,0.00285485,0.00444257,-0.00183815,0.000337481,0
0.0185872,-0.00934869,0.00603842,0.00386437,0.000418931,-0.0029878,0
0.0162145,-0.0101538,0.0069222,-0.00163609,0.000137806,0.00127977,0
0.00315841,-0.00957157,0.00300698,-0.00663376,-0.000103474,0.00517732,0
-0.0035208,-0.00642908,-0.00241075,-0.00555002,0.000582248,0.00195986,0
-0.00644737,-0.00177362,-0.00569266,-0.00431963,-7.25687e-05,-0.00169998,0
0.000455353,0.00235146,-0.0038765,-0.00305345,0.000174135,-0.00264937,0
0.00975987,0.00165015,-0.00734495,-0.00177878,-0.000350475,-0.00443047,0
0.00104966,-0.00244345,-0.000208571,0.00383568,-0.00120226,0.00123334,0
0.00272319,-0.00679155,0.00233801,0.00146957,-0.000583589,0.000739098,0
0.00355197,0.000656246,-0.000843407,-0.00436406,0.000813246,-0.000773907,0
-0.00392777,0.00514088,-0.0073163,-0.00528666,0.000529408,0.00358635,0
-0.011399,0.00184149,-0.00572027,-0.00226048,-0.000977159,0.00203025,0
-0.00277754,0.000543021,-0.00037199,4.00692e-05,-0.00160062,-0.00610411,0
0.0183752,0.00539833,-0.00249511,-0.00249729,-0.00200486,-0.0114452,0
0.0151524,-0.00165586,0.00162114,-0.000511076,-0.00165477,-0.000539601,0
-0.00187379,-0.00269598,0.000656068,-0.000516862,-0.000150442,0.00883728,0
-0.0123652,-0.00238632,0.0026831,9.81688e-05,-0.000571728,0.00643271,0
-0.015859,0.00229517,0.00273022,-0.00123905,-0.000249147,-0.000237584,0
-0.000713092,0.00738943,0.00170192,-0.00210513,0.000408649,-0.00797915,0
0.000442991,0.00329007,0.00182395,-0.00315408,0.00110215,-0.00203955,0
-0.000916783,-0.00172803,0.00108861,0.00111164,-0.00158638,-5.01871e-05,0
-0.000916783,-0.00172803,0.00108861,0.00111164,-0.00158638,-5.01871e-05,0
-0.000217749,-0.000434454,0.0049107,-0.000964597,-0.000349104,-0.00122201,0
-0.00677047,-0.000119271,0.00670682,-0.000850916,-0.00147411,0.00158072,0
-0.0088817,-0.00281765,0.00526216,-0.00125481,4.19617e-05,0.00189018,0
-0.0063983,0.00315542,0.00252781,-0.00356755,-0.000246763,-0.0019269,0
-0.00309236,-0.00188561,0.00234714,-0.00293981,-0.00139791,-0.00227457,0
0.00102524,-0.000562667,0.00255535,-0.00140689,0.000619113,-0.00345552,0
-0.00127629,0.0033045,0.00595318,0.000876799,0.000527978,-0.0005126,0
-0.00379835,0.00283636,0.00785534,0.00113328,0.000796825,0.00092119,0
-0.00958565,-0.00688138,0.00943211,0.0022628,-0.00241321,0.00339252,0
-0.000142303,-0.00400893,0.00694219,-0.00141934,-0.00132012,-0.00374675,0
-0.00494345,-0.00481805,0.0141383,0.00222528,-0.000148535,0.00136626,0
-0.00694007,-0.00228135,0.0125477,-0.00268807,-0.000157624,-2.70605e-05,0
-0.00667186,-0.00339552,0.0109527,-0.0024101,0.00164628,-0.000556409,0
-0.00483934,0.00030201,0.00944931,-0.00550829,-0.00135291,-0.0014689,0
-0.00602985,0.00700335,-0.00167468,-0.00807498,-0.00177276,-0.00329858,0
-0.0159029,0.00614871,0.00114691,-0.00128049,-0.000593871,-0.00191116,0
-0.00582687,-0.00246511,0.00475687,0.00135717,-0.000778198,-0.00465238,0
0.00732322,-0.00855182,0.00428949,0.000834495,-4.59552e-05,-0.00666779,0
0.0154649,-0.00791003,0.00647778,0.00150864,0.000630319,-0.00415736,0
0.00947111,0.00315456,0.00649014,-0.00166652,0.00117144,0.00294137,0
-0.00961952,-0.00453075,0.00795644,-0.00356811,0.000304669,0.00928169,0
-0.0219701,-0.00534966,0.0072959,-0.0033779,-0.00148347,0.004067,0
-0.0121183,-0.00312148,0.00898166,-0.000614047,-0.00173956,-0.00482154,0
-0.00591264,0.000617897,0.00858338,-0.000108749,-0.00148642,-0.00524592,0
-0.00700671,0.0043105,0.00981854,-4.86821e-05,0.00066185,0.000450611,0
-0.0168185,-0.00378235,0.0124944,0.00259486,-0.00185311,0.0044353,0
-0.0125252,-6.84857e-05,0.0117219,0.000362117,-0.000574917,-0.00191647,0
-0.00787196,0.000286239,0.00987373,-0.00210722,0.000742793,-0.00327432,0
-0.00484733,0.00522295,0.00891183,-0.00540079,-0.000278056,-0.00132841,0
-0.00929163,0.00542411,0.00533629,-0.00420146,0.000282168,-0.000328958,0
-0.0114906,-0.00856769,0.00892621,0.000323072,-0.00186735,-0.00199974,0
-0.00373178,-0.00912714,0.0134674,0.00313395,-0.000694215,-0.00573814,0
0.00394318,-0.0100625,0.010733,-0.00143068,-0.00105771,-0.00577652,0
-0.00131543,-0.00927432,0.0116064,-0.00465177,-0.00147763,0.00156331,0
-0.00427644,-0.00407584,0.0053734,-0.00592562,-0.00158283,0.00132376,0
-0.00251125,0.00187087,0.00822806,-0.00231753,0.000520408,-0.00173438,0
-0.0055459,0.000970946,0.00878336,0.00116621,-0.00054273,0.000760436,0
-0.00940891,-0.00506224,0.0115668,-0.00139157,-0.000797749,0.00161839,0
-0.00876752,-0.00103752,0.00756908,-0.00121013,0.00017482,-0.00337267,0
-0.00293725,-0.00118207,0.00843284,-0.00103647,0.00072974,-0.00407791,0
0.0016878,0.000436721,0.00631285,-0.00235845,0.000599504,-0.00346869,0
-0.00142892,-0.00580968,0.00212419,-0.00597925,-0.00100774,0.000282764,0
0.000729827,0.00530488,-0.00573312,-0.00822566,0.000295579,-0.00294578,0
0.00433628,0.00274963,-0.00773628,-0.00474297,-0.000170469,-0.0021255,0
0.00115094,0.00960155,-0.00778198,-0.00192198,0.000223637,-0.000512779,0
-0.00387594,-0.00108601,-0.00825581,-0.00217406,-0.000977367,-0.00158906,0
0.00416263,0.000292413,-0.00757221,-0.00301665,-0.00157967,-0.00544488,0
0.0117016,-0.00145301,-0.00447839,-0.00134907,0.00144908,-0.00588053,0
0.0186905,-0.00481671,-0.0049874,0.000595212,-0.000152618,-0.000691295,0
0.0105492,-0.00333032,-0.00503568,-0.00124227,-0.00123239,0.00317419,0
-0.000435306,-0.00561274,0.000533569,0.000999972,0.000416636,0.00488973,0
-0.000467185,-0.000140953,-0.00869073,-0.0044864,0.000537455,0.000534415,0
-0.00186699,0.00613988,-0.00961365,-0.00506853,-0.000345349,-0.00350863,0
-0.00186699,0.00613988,-0.00961365,-0.00506853,-0.000345349,-0.00350863,0
0.00613758,0.00269684,-0.0113654,-0.00406056,-0.00242853,-0.00412863,0
0.00677787,0.00105537,-0.0108226,-0.00313925,-0.00457224,-0.00116473,0
-0.00192542,0.00680619,-0.0102591,-0.000421584,0.000702232,0.000342071,0
0.013553,0.00522797,-0.00924184,0.00169641,-0.00040102,-0.00381613,0
0.0156015,0.000429003,-0.010302,-0.000423193,-0.000639141,-0.000644207,0
0.00966948,-0.00363314,-0.0078528,0.000167176,0.00188905,0.00142229,0
0.00809585,0.000704359,-0.00793073,-0.00398189,1.52588e-05,0.000947714,0
0.00232051,0.00179013,-0.0116671,-0.00759894,-0.000838101,0.00109535,0
0.00310504,-0.00189898,-0.00935148,-0.0025962,-0.00169683,-0.000803649,0
0.00950233,0.00379808,-0.0105668,-0.000522539,-0.000519097,-0.00454998,0
0.00488175,0.00346017,-0.0108459,0.00156741,0.000613451,-7.4029e-05,0
-9.23141e-05,0.000547454,-0.00715075,0.000234693,-0.000982583,0.00367928,0
0.000623069,0.00109372,-0.00586472,4.57466e-05,0.000188679,0.000183046,0
0.00231151,-0.00161551,-0.00718991,-0.00217065,-0.0010322,-0.000491321,0
0.00465241,0.00743475,-0.00928772,-0.00246431,0.00117946,-0.00163609,0
0.00564444,0.00800152,-0.0121703,-0.0037711,0.000228286,0.000850439,0
0.000199123,0.000149949,-0.00878898,-0.00150498,-0.00142324,0.0018335,0
-0.000694901,-0.00624377,-0.00671092,-0.000146315,-0.000296474,-0.00204426,0
0.0169597,0.00906421,-0.00915305,-0.0032552,-0.00125086,-0.0101843,0
0.0155194,0.0173759,-0.0115339,-0.00557072,-0.000538945,-0.00059551,0
-0.000243035,0.0158315,-0.0101671,0.00161706,-0.0011605,0.00571555,0
-0.00821887,0.00734363,-0.000185168,0.00720666,0.000261307,0.00623858,0
-0.00875553,0.00222228,-0.000926811,0.00432272,-0.00198492,0.000441551,0
-0.00896563,-0.000890729,0.00123278,-7.18236e-05,-0.00149244,-0.00147361,0
-0.00547608,-0.00131861,-0.00110508,-0.00396462,-0.000754714,-0.000883818,0
0.00117105,0.00892806,-0.00164009,-0.00586796,8.09133e-05,-0.00368971,0
0.000629625,0.00242378,-0.00336562,-0.0056169,-0.000940502,-0.000166237,0
-0.00717733,0.00859745,-0.00649403,-0.00485982,-0.000622928,0.00279409,0
-0.0063565,0.0119817,-0.00785696,-0.00299683,0.000222057,-0.00149041,0
-0.00842369,0.014862,-0.00374677,-4.07249e-05,-7.30157e-05,0.00186002,0
-0.0123851,0.0033899,0.000218204,0.00534638,0.000162482,0.00192887,0
-0.00762368,-0.000195825,0.00157955,0.000351146,-0.00248235,-0.0026077,0
0.00146354,0.00103118,-0.00518086,-0.00448836,-0.000972509,-0.00660169,0
0.00605645,0.00246334,-0.00529646,-0.00137451,0.000390828,-0.00584304,0
0.00343754,-0.00438869,-0.00194495,-0.000583053,9.90629e-05,-0.00127792,0
0.00416724,-0.00571424,-0.0023805,-0.0026839,-0.00344944,-0.00187284,0
0.00614487,0.000922261,0.000146891,-0.000855207,0.000239164,-0.000401258,0
-0.000944223,0.000473513,0.000302588,-0.00257967,3.76701e-05,0.00364256,0
-0.0129056,0.00308328,0.00083424,0.000711486,0.00159329,0.00695288,0
-0.00555402,0.00260314,0.0037506,-0.000204608,-3.25143e-05,-0.00102758,0
0.00775127,0.000275198,-0.00475303,-0.00342417,-0.00242293,-0.00814569,0
0.00165263,0.00318892,-0.00194852,-0.0029932,-3.26335e-05,-0.00303525,0
0.00222942,-0.00024546,-0.00509758,-0.00292273,0.000608474,-0.00283349,0
0.0033738,-0.00716044,-0.00717087,-0.00275735,-0.00390425,-0.00151068,0
0.0227326,0.00456439,-0.00663628,-0.00147481,0.000731349,-0.00837821,0
0.0197392,-0.000276966,-0.000437504,0.00334302,0.00149775,0.00105512,0
0.00133806,-0.00500879,0.00276194,0.000758797,-0.000386775,0.00999826,0
-0.0120534,-0.00471646,-0.0027684,-0.00440007,-0.000189841,0.00717938,0
-0.00455732,0.00317409,-0.00561797,-0.00570304,-0.000896007,-0.0035798,0
0.00217864,0.00912444,-0.00602527,-0.00298454,-2.89381e-05,-0.00522125,0
0.00210449,0.00770332,-0.00610695,-0.000921682,-0.000479877,-0.000210404,0
-0.00237727,0.000944847,-0.00376945,0.000286534,-0.0021334,0.000835121,0
-0.00522875,-0.00262304,0.00358179,0.00520121,-0.00103998,0.00180936,0
-0.000288604,0.00492236,-0.000425655,-0.00112927,8.10623e-05,-0.00331068,0
-0.000288604,0.00492236,-0.000425655,-0.00112927,8.10623e-05,-0.00331068,0
-0.00732496,0.00984668,-0.00164051,-0.00558001,0.000366688,0.00207299,0
-0.01122,0.00597441,-0.000241313,-0.00362691,-0.00127223,0.00257468,0
-0.0047116,0.00190375,-0.000378495,0.000110809,-0.00111762,-0.00162333,0
0.00097885,-0.00432146,0.00461537,0.0011767,-0.0031358,-0.00528347,0
0.0105486,-0.000602905,0.00291891,-0.00236668,-0.000288546,-0.00645226,0
0.00746759,0.00114067,0.00209103,-0.00199368,-0.000798941,0.00161356,0
-0.0035986,0.000883107,-0.000941641,-0.00185816,-0.00161642,0.00727022,0
-0.0118762,0.00335751,0.00218676,-8.56519e-05,-0.00130492,0.00449818,0
-0.0120086,0.00343073,0.00352268,-0.000721425,-0.000155002,-0.00148004,0
-0.00557087,-0.00246194,0.00357945,-0.00138777,0.00049755,-0.00447839,0
0.000181229,0.000361394,0.00181793,-0.00345315,-0.000935256,-0.00557482,0
0.000284247,0.00034017,-0.0015143,-0.00360059,0.000660449,-0.00281334,0
0.00356614,0.00016437,0.000210601,-0.00208281,-0.00111055,-0.00254887,0
0.00731003,0.00170288,-0.00408232,-0.00366263,-0.000864506,-0.00212544,0
0.0029001,0.00282825,-0.00288561,-0.00141923,-0.00137782,0.00271857,0
-0.0111181,-0.00151321,-0.00282806,0.000378311,0.000457287,0.00451744,0
-0.0079761,-0.00695179,-4.21377e-05,0.000503808,-0.00205019,-0.000699699,0
0.00151285,-0.00174631,8.11787e-06,-0.00237763,-0.00127655,-0.00695574,0
0.0122867,-0.00322206,-0.00136513,-0.00054054,-0.00089097,-0.00839484,0
0.0114917,-0.00176949,0.00528854,0.00101574,1.20401e-05,-0.0012635,0
0.00424972,-0.00694655,0.00240645,-0.000113934,-0.00115466,0.00463659,0
-0.00121612,-0.00330591,0.00715642,-0.00127719,-0.000160813,0.00374848,0
-0.00142093,-0.000409903,0.00125487,-0.00417389,0.000255466,2.24113e-05,0
-0.00527457,-0.00147291,0.00232785,-0.000680357,-0.000761956,7.56979e-05,0
-0.00214536,0.00187912,0.00555494,-0.00136031,-0.000940323,-0.00128233,0
0.00395913,-0.00253219,-0.00170729,-0.00418551,-0.00229299,-0.0050168,0
-0.00249767,0.0037836,0.00078991,-0.00379653,-0.000481784,-0.00222218,0
0.00285082,0.00352062,-0.000715197,0.00237339,0.000751793,-0.00230008,0
-0.00024592,-0.00847821,0.00146643,0.000604376,-0.00346655,0.00161874,0
0.00123054,-0.00798766,0.00817014,0.00234084,-0.00165474,0.00221688,0
0.00183933,-0.00424893,0.0154687,0.00213939,0.000644147,-0.000470698,0
-0.000563333,5.68298e-05,0.0134424,-0.00534189,0.00107247,0.000165701,0
-0.00388785,-0.00575967,0.00408545,-0.00574987,-3.3021e-05,0.0019809,0
-0.00327371,-0.00668316,0.00113745,-0.00240748,-0.000885308,-0.000975549,0
-0.00627302,-0.000613246,0.00104703,-0.00223165,-0.00105503,-0.000867665,0
-0.00599542,0.00819211,0.00160864,-0.000941828,-0.000340879,-0.000782073,0
-0.0127729,0.00855891,0.00409835,0.00158494,-0.000668675,0.002168,0
-0.0112781,0.00209249,0.0109645,0.00402211,-0.00171199,0.00037998,0
-0.000450238,0.000565608,0.00790522,-0.0015405,-0.00103164,-0.0037204,0
-0.00785253,0.000400443,0.00610184,-0.00123717,-0.00119165,0.00240588,0
-0.0109551,-0.000817145,0.00540215,-0.0025823,0.000739306,0.00258327,0
-0.0196716,-4.60697e-05,0.0107624,0.000462383,-0.00140157,0.000833333,0
-0.00892526,-0.00174185,0.0145112,-0.00130285,-0.00251284,-0.00469333,0
-0.00123048,-0.000731517,0.0128247,-0.000327691,-0.00242546,-0.00527203,0
0.00328541,-0.000460458,0.015885,-0.00208469,-0.000644565,-0.0017879,0
-0.0071889,-0.000910635,0.0111902,-0.00230299,0.000770897,0.00546348,0
-0.0161981,-0.000547823,0.0110295,-0.000746578,0.00116658,0.00406384,0
-0.016634,0.00221139,0.0130503,-0.000453189,4.72665e-05,0.00257134,0
-0.0136663,-0.00155381,0.0146033,-0.00139928,-0.000604033,-0.00384694,0
-0.00736301,-0.000547859,0.0117194,-0.0023257,-0.00221503,-0.0044598,0
-0.00590967,-0.00390614,0.0127361,-0.00208847,-0.00161162,-0.0026654,0
-0.00785059,-0.00109495,0.011088,-0.00051504,-0.000836611,-0.00183707,0
-0.000910694,-0.000653009,0.0106856,-0.002729,-0.000570446,1.75238e-05,0
-0.0109221,-0.00290649,0.0115695,-0.00192784,-0.00104779,0.00349027,0
-0.0109221,-0.00290649,0.0115695,-0.00192784,-0.00104779,0.00349027,0
-0.0156404,-0.00187211,0.00827239,-0.00104883,-0.00125447,0.00406343,0
-0.0192292,-0.00212195,0.0118205,-0.00138359,-0.00153255,0.000981808,0
-0.011239,-0.00346842,0.00969858,-0.00237794,-0.000602752,-0.00478727,0
-0.006748,-0.00263816,0.0110723,-0.0023696,-0.00017947,-0.00544423,0
-0.00306446,-0.00611707,0.0109916,-0.00102237,-0.000919998,-0.0036099,0
-0.00284655,-0.0109581,0.0106039,0.000671372,-0.0018028,-0.00110054,0
-0.00174288,-0.0114921,0.0138931,0.000292301,-0.000439852,0.00119454,0
-0.00540585,-0.00960873,0.0158377,-0.00136311,0.0001688,0.00262612,0
-0.0109282,-0.00284745,0.0111794,-0.00306705,0.0004161,0.00301272,0
-0.00664282,0.00643851,0.00582188,-0.00500077,-0.000388503,-0.00202757,0
-0.00152502,-0.00341589,0.0010411,-0.00634069,-0.00368109,-0.00303251,0
-0.00795474,-0.00335461,0.00362103,-0.00170338,-0.00175279,-0.00313365,0
0.00554938,-0.000961705,0.00614027,0.000217829,0.0011802,-0.00772464,0
0.0104954,-0.00869007,0.000451581,-0.00323986,-0.00152794,-0.00391567,0
0.0163735,-0.00860907,0.00315029,-0.000672605,0.00152108,-0.00246829,0
0.0105172,-0.00469955,0.00355359,-0.0026395,0.00222823,-0.000250697,0
0.00239065,-0.00206385,-0.0031363,-0.00712559,-0.000843465,0.00316721,0
-0.00166569,-0.000438001,-0.00747808,-0.00672348,-0.000556231,0.00166559,0
-0.000148127,-0.00365432,-0.011216,-0.00275455,-0.00138736,-0.0018732,0
0.00804924,0.00272352,-0.0105527,-0.000659525,0.00153619,-0.00444293,0
0.00924284,0.000235594,-0.0101943,-0.00211892,-0.00123018,-0.00199401,0
0.00700453,0.00614458,-0.00947289,-0.0033198,-0.00144711,-0.00092268,0
0.00755922,0.00518624,-0.0111896,-0.00160533,0.000538945,-0.000832796,0
0.00351163,0.00903649,-0.012097,0.000775188,-0.000255823,0.000875831,0
0.00797171,0.00129367,-0.0132016,-0.00309837,8.7142e-05,-0.000188589,0
0.00359143,0.0019822,-0.0151684,-0.00385827,-0.000983894,-0.000372589,0
0.00125506,-0.000843234,-0.00893504,0.000800639,-0.00110075,-0.000345945,0
0.00944581,-0.000503561,-0.00701821,-0.0012593,-0.00298873,-0.00295335,0
0.0136129,0.00899891,-0.00583757,-0.00286327,-0.00195056,-0.00435293,0
0.0129183,0.00957051,-0.00719699,-0.00142162,-0.000465602,0.00243509,0
-0.00349744,0.00495729,-0.00778098,0.00192459,-0.000404119,0.00899696,0
-0.0115916,0.000411592,-0.00581807,0.00188814,0.000312984,0.00631672,0
-0.00246067,0.00835975,-0.00822999,-0.0040324,0.000373483,-0.00428832,0
0.0046503,0.00804511,-0.011599,-0.00319347,-0.000743508,-0.00583452,0
0.00336158,0.00295798,-0.00719315,-0.000875279,-0.00170082,-0.00289953,0
0.00285849,-0.00308461,-0.00988578,-0.00426447,-0.00196388,0.000675023,0
0.00434214,0.00655209,-0.0104181,-0.00460878,-0.00176954,-0.000788927,0
0.00336373,0.0108942,-0.0123614,-0.00352202,-0.000835359,0.000708878,0
0.00351701,0.00943308,-0.0109209,-0.000945419,-0.000677735,0.000316024,0
-0.00305214,0.00300271,-0.00783187,0.00110166,-0.000861824,0.00187004,0
-0.00309681,-0.00438577,-0.0041054,0.00251413,-0.00171152,-0.00164157,0
0.0070231,-0.00692258,-0.0025458,0.00112164,-0.000652701,-0.00842559,0
0.01778,-0.00234493,-0.00544169,-0.00230952,-0.000341177,-0.00662756,0
0.0115159,-0.00394746,-0.000290848,-3.48836e-05,-0.000249326,0.00319856,0
0.000324299,-0.00359197,-0.00194507,-0.00210325,0.000380009,0.00751948,0
-0.0032881,0.00158427,-0.00971265,-0.00503142,-0.000304163,0.0038138,0
-0.00123258,0.00890465,-0.00862827,-0.00367075,-2.43783e-05,-0.00103348,0
-0.000629262,0.00121328,-0.00898448,0.000656158,-0.00192985,-0.00183278,0
-0.00416475,0.000763893,-0.00600196,-0.00237635,-0.00303662,-0.0018819,0
-0.000746878,0.00767847,-0.00568707,-0.00201555,-0.00128493,-0.00340319,0
0.0144917,0.00598457,-0.0109381,-0.00388166,-0.00195807,-0.00702071,0
0.0228282,0.00295536,-0.0115964,0.000965685,0.00086844,-0.00350857,0
0.0126613,-0.00578758,-0.00306232,0.00638247,0.000835091,0.00406855,0
-0.00289232,-0.00504904,0.000883218,-2.10553e-05,-0.000282526,0.00732744,0
-0.00289232,-0.00504904,0.000883218,-2.10553e-05,-0.000282526,0.00732744,0
-0.014439,-0.000655667,-0.00180371,-0.00487645,-0.00172275,0.0040012,0
-0.00843973,0.00713558,-0.00213789,-0.00338827,0.000103682,-0.00189906,0
-0.0111816,0.0021024,-0.00354493,-0.00281717,-0.00367624,-0.000548184,0
0.00168236,0.00786448,-0.00523507,-0.00116628,0.000341117,-0.00584859,0
-0.00178101,0.00119527,-0.00530979,0.00297366,1.0252e-05,-6.12736e-05,0
-0.00366468,-0.000979869,0.000212088,0.0030016,-0.00114,0.00112426,0
0.00363088,-0.000139666,-0.00370163,-0.00411853,-0.00218812,-0.00108647,0
-0.00329502,0.00824865,-0.00121039,-0.00321589,-0.00137019,0.00260007,0
-0.0136624,0.0126297,-0.00124277,-0.0022389,-0.000241935,0.003034,0
-0.0188531,0.00204594,-0.00427933,0.00079878,-0.00173652,0.00218165,0
8.35792e-06,-0.000592601,-0.0032433,-0.0013572,-0.00118589,-0.0110471,0
0.0198103,-0.000906934,-0.000375536,-0.0002819,-0.00202152,-0.0120749,0
0.0189169,0.000376754,-0.000210892,-0.000871431,-0.00190943,-0.00102121,0
-0.00200903,-0.00305452,0.000543758,-0.00274263,-0.00127265,0.0102781,0
-0.00962134,0.0051055,0.000182685,-0.000838324,-0.00146288,0.00611746,0
-0.00870867,0.00489352,-0.000498285,-0.00132075,-0.000805557,-0.000497758,0
-0.000146327,0.00384548,-0.000648777,-0.00105666,-0.00105613,-0.00584704,0
-0.000236042,-0.000424007,0.00123083,-0.000194579,6.79791e-05,-0.00224334,0
-6.78475e-05,-0.00548599,0.00374355,-0.00113706,-0.000619471,-0.000614345,0
-0.00258046,0.00186062,0.000383465,-0.00323119,-0.00106025,0.000618994,0
-0.000521747,0.00289067,-0.00160378,-0.00329986,-0.0011684,0.00156307,0
-0.00821623,0.00353877,-0.00136238,-0.00247706,-0.00127813,0.0011847,0
-0.00370483,-0.00216838,-0.0016239,9.76473e-05,-0.00209025,-0.000802636,0
0.00745139,0.00226742,-0.00787012,-0.00243263,-0.000254184,-0.00803596,0
0.00397356,-0.00484944,-0.000779042,0.00184096,-0.000708491,-0.00212312,0
0.00100046,-0.00716212,0.00552672,0.00147107,-0.00163394,0.000928104,0
0.00195998,-0.00313937,0.00352372,-0.00230885,-0.0019286,0.0016771,0
-0.00539193,0.00127393,0.000413656,-0.0023188,-0.00212085,0.0033142,0
-0.0108709,-0.00327005,0.00860692,-0.000259947,0.00153324,0.00448275,0
-0.00291808,0.000619471,0.000612874,-0.00423884,-0.000679553,-0.00239551,0
-0.00391041,0.00618991,-0.000270715,-0.00370803,-0.00160432,-0.00256121,0
-0.0022332,-0.00329415,-0.00155455,-0.000930186,-0.00110063,-0.00244182,0
0.00300952,0.00572673,-0.00714929,-0.00513425,-0.0024536,-0.00488621,0
0.000279538,0.012717,-0.00268706,-0.00299709,-0.000198483,-0.00240242,0
0.000997789,0.00446462,-0.00594763,0.00120502,-0.00234535,0.0013032,0
-0.00123504,-0.00466102,-0.00602742,0.00121819,-0.0022122,0.0017634,0
0.000962529,-0.00491074,0.00403516,0.00327235,0.000883311,4.22001e-05,0
0.00118737,0.000264721,-0.000895035,-0.00119683,0.00110015,0.000665903,0
-0.00289842,-0.00199865,-0.00394766,-0.00670566,-0.00053224,-0.000271797,0
0.00259079,0.000550113,-0.0044576,-0.00321239,-0.000904083,-0.00288177,0
0.00234674,-0.001111,-0.00255214,-0.00119658,-0.00182784,-0.00292343,0
-0.00199589,0.00337867,0.00157902,-0.000530884,-0.00204211,0.00138903,0
-0.00194225,0.00152398,-0.00258633,0.000745982,-0.000647187,-0.000184178,0
-0.00126165,0.00371827,-0.00129074,-0.000623494,-0.00096333,0.000259638,0
-0.000184357,-2.91001e-05,0.0011374,0.000612125,-0.00201452,0.000207067,0
-0.00644203,0.000397085,-0.000673628,-0.00250866,-0.00022316,0.00306672,0
-0.00509128,0.00670713,-0.00214322,-0.00539538,-0.000143677,0.000121236,0
-0.002674,0.00320329,-0.00399909,-0.00419321,-0.00122398,-0.00197977,0
0.0056919,0.00618845,-0.00402293,-4.10229e-05,-0.000813305,-0.00632215,0
0.0121282,-0.00185865,-0.00021393,0.00251259,-0.00266325,-0.00435734,0
0.00700401,-0.00396886,0.00439389,0.0011283,-0.00258362,-0.000238299,0
0.00627197,0.00115393,-0.000805756,-0.00306344,0.000318974,0.00253654,0
-0.00956378,-0.000564004,0.00473798,0.000370204,-0.00103372,0.00729501,0
-0.015235,0.00100544,0.00308385,-0.00165242,-0.000144809,0.0035041,0
-0.015235,0.00100544,0.00308385,-0.00165242,-0.000144809,0.0035041,0
0.00134581,0.00591524,0.00296391,-0.00383888,0.000343293,-0.0069766,0
0.0032537,-0.000424153,0.00131195,-0.000737503,-0.000513494,-0.00520498,0
-0.00116735,-0.00236834,0.00305836,-0.000931855,-0.00108218,0.000840843,0
-0.00888171,-0.00328002,0.00219361,-0.00139841,-0.000255734,0.0042181,0
-0.00505692,0.00439316,0.00296904,-0.00293504,-0.00175411,-0.00035882,0
-0.00378153,0.00325328,-0.00186679,-0.00190358,-0.00129139,-0.0012306,0
-0.00600605,-0.00075029,0.0010337,0.000140876,-0.00229493,7.80225e-05,0
-0.00367477,-0.00212658,0.00404453,0.00123947,-0.000897974,-0.00244266,0
-0.000807412,-0.00286814,0.00610677,0.00121023,-0.00132948,-0.00158429,0
-0.00858485,-0.00702187,0.00847825,-0.000152599,-0.00233176,0.00233638,0
-0.00203849,-0.00353219,0.00725135,-0.00171505,-0.000921309,-0.000942528,0
-0.00139108,0.00184762,0.00745422,-0.00193065,-0.000299811,-0.00258297,0
-0.0049158,-0.0021252,0.00873868,0.00052464,-0.000167459,0.00177217,0
-0.0147229,-0.00999401,0.0146271,0.00234682,-0.0019851,0.0055216,0
-0.0182593,-0.00713616,0.0130066,-0.00196451,-0.00122565,0.00345528,0
-0.0121314,0.00274746,0.00765922,-0.00562036,-0.00107422,-0.0032233,0
-0.0128337,0.00924716,0.00959408,-0.000411332,-0.000727892,-0.00156182,0
-0.0102104,0.000989871,0.00749975,-0.00127665,-0.0022175,-0.00228781,0
-0.00753987,-0.00218016,0.00650318,-0.00370817,-0.00347114,-0.00434589,0
-0.00613121,0.00360997,0.00661507,-0.000863057,-7.59065e-05,-0.00499517,0
0.0061728,-0.00392399,0.0053425,-0.000108048,-0.00110766,-0.00309455,0
0.00198551,-0.0145761,0.00749188,0.000593826,-0.00176221,0.00175309,0
0.0054322,-0.00310586,0.00865211,-0.00099057,0.000989914,-0.00114322,0
0.00204353,-0.0026471,0.00857669,-0.00359191,0.000213921,0.00132269,0
-0.0131401,-0.00229957,0.00685086,-0.00472076,-0.000658989,0.00384164,0
-0.010493,-0.00409252,0.00666482,-0.000220027,-0.000980139,0.000121653,0
-0.0072508,-0.0027904,0.0084926,-0.000552446,-0.00137132,-0.00174856,0
-0.0120659,-0.00327143,0.0120933,0.0024841,-0.00128907,0.00156516,0
-0.0108714,0.000952309,0.0112964,-0.000214145,-0.00162891,0.000650644,0
-0.0153663,-0.000309195,0.0168508,0.000239436,-0.00174439,-0.000337303,0
-0.0086913,-0.00250491,0.0135558,-0.000705972,-2.48551e-05,-0.000290811,0
-0.00807727,-0.00309176,0.00833313,-0.00415301,-0.000552088,-0.000198603,0
-0.0130994,0.00422436,0.013042,-0.00284622,-0.000499934,-0.00022012,0
-0.0139801,-0.000312426,0.00851848,-0.000876069,-0.00120133,0.000656843,0
-0.00706309,-0.00433393,0.00925839,-0.00260341,-0.00294459,-0.00399393,0
-0.00130846,-0.0054085,0.00973645,1.04308e-05,-0.000533164,-0.00508386,0
0.00212404,-0.00389429,0.0137174,-0.000168338,-0.00149238,-0.00156873,0
-0.00349888,0.00194858,0.0068514,-0.00561184,-0.000863552,0.00242078,0
-0.0163066,0.00263676,0.0103334,-0.000479504,-0.00218993,0.00641692,0
-0.0213906,-0.00524601,0.0107178,0.00134307,-0.000706792,0.0040713,0
-0.0143351,-0.00157232,0.0125046,-0.00177801,-0.000440419,-0.00529987,0
-0.000959075,0.000737845,0.00535232,-0.00290259,0.000606984,-0.00727385,0
-0.00214981,-0.00528823,0.00799469,-0.000108466,-0.000217259,-0.00075978,0
-0.00499898,-0.00423479,0.00880591,-0.00268855,0.000137061,0.00242823,0
-0.00895125,-2.68449e-05,0.0049481,-0.00508958,-0.000968814,-1.06692e-05,0
-0.0104618,0.00139395,0.0039376,-0.0049091,-0.00161469,0.000316501,0
-0.00719036,0.00300477,-0.00198792,-0.00605068,-0.000452995,-0.00102121,0
-0.00640424,0.00257683,-0.00639532,-0.00145793,-0.000173926,-0.00326705,0
0.00699674,0.00271864,-0.00389809,-0.0015806,-0.000568748,-0.00748497,0
0.00350358,-0.00103582,-0.00735336,-0.00183156,-0.000130117,-0.00303751,0
0.00284148,0.000371474,-0.00701894,-0.00312448,-0.000280857,0.000133991,0
0.00655581,0.00350411,-0.00551022,-0.00502568,-0.000823438,-0.00166923,0
0.00495816,0.00215788,-0.0100153,-0.00289193,-0.000444829,0.000185132,0
0.00884478,0.00448441,-0.0100433,-0.000649154,-0.00101882,0.00100279,0
0.00884478,0.00448441,-0.0100433,-0.000649154,-0.00101882,0.00100279,0
0.00434803,0.00245295,-0.00381362,8.01831e-05,-0.00103271,0.00182164,0
-0.000322345,-0.00265059,-0.00396151,-0.00025925,-0.00185487,0.000611961,0
0.00522237,0.00121965,-0.00618533,-0.00385289,-0.00148433,-0.0030399,0
0.00734198,0.00623971,-0.00676989,-0.00435281,-0.000151664,-0.00383276,0
0.010269,0.00126248,-0.0128354,-0.00609539,-0.00404739,-0.00211114,0
0.00419987,0.00817368,-0.0133235,-0.00460732,-0.000937134,-0.000769556,0
0.00541889,0.00665116,-0.0153576,0.00157417,0.000523984,-0.000813425,0
0.0132437,-0.00322572,-0.0123379,0.00189395,-0.000379413,-0.00234008,0
0.01674,-0.00497754,-0.013591,-0.00203493,-0.000347674,-0.00246745,0
0.0195184,0.00223754,-0.00994462,-0.00296481,-0.000243306,-0.00191611,0
0.00896996,-0.00034962,-0.00893709,-0.00334738,-0.000685245,0.00539637,0
-0.000857898,-0.000160445,-0.0126278,-0.00324225,-0.0025124,0.00574946,0
0.00323718,-0.00138911,-0.0127268,-0.000658542,-0.00152689,-0.000797153,0
0.0046887,-0.000820013,-0.0106436,0.00156057,-0.00100061,-0.000769079,0
0.00866454,0.001855,-0.00846279,0.00164743,0.00024128,0.000129819,0
0.00517122,0.00286371,-0.00609263,-0.000876054,-0.00211954,0.00134277,0
0.00762658,0.00545131,-0.007006,-0.00136384,-0.0012933,-0.000471711,0
0.00306646,0.00657605,-0.0047864,-0.00197402,-0.000279903,0.00185072,0
-0.00948365,0.00805873,-0.00770554,-0.0034443,-4.76837e-06,0.00463617,0
-0.0131911,0.00416323,-0.00946557,-0.00241673,-0.000780255,0.0025444,0
-0.00784612,0.00109278,-0.00516283,0.000181183,-0.00163305,-0.00263959,0
0.000163988,-0.0048587,-0.00572844,-5.59688e-05,-0.00239664,-0.00663251,0
0.00964823,0.000497748,-0.00496248,-0.00270931,-0.0016292,-0.00731444,0
0.0119633,0.00401312,-0.00661028,-0.00433317,-0.00216749,-0.00172997,0
0.00369344,0.002189,-0.00561441,-0.000690967,-0.00110963,0.00442618,0
-0.000192202,0.00381923,-0.00443377,-0.00109296,0.000284731,0.00263566,0
-0.00108613,0.00301569,-0.00918352,-0.000972793,-0.000777334,-0.000266671,0
0.00343858,0.0055899,-0.00416026,0.000457495,-0.0011465,-0.00345141,0
0.00294354,0.00447604,-0.00295357,-0.00092664,6.97076e-05,0.00106883,0
0.000621234,0.00386426,-0.00154012,-0.001269,-0.00184971,0.00189286,0
-0.00376157,0.00136687,-0.00454072,-0.0036725,-0.00138119,0.00181663,0
-0.00376373,0.0063709,-0.00422556,-0.00321634,-0.000806242,-0.000244856,0
-0.00144035,0.00559047,-0.00432382,-0.00173134,-0.00104052,-0.00133729,0
-0.00449819,0.000292911,-0.00451184,-0.00248849,-0.00161654,-0.00120294,0
-0.00055941,0.00245796,-0.00468756,-0.00094603,-0.00175574,-0.00198215,0
0.00287402,-0.00166339,-0.004906,-0.00196023,-0.00115967,-0.000331819,0
-0.00203497,0.00132268,-0.00142426,-0.000586003,-0.000267863,0.00192362,0
-0.00606461,0.000520356,-0.000574957,-0.00126544,-0.000832409,0.00146002,0
-0.00327446,0.00322621,-0.00310903,-0.00331175,-0.000852734,-0.000924826,0
-0.00263053,0.00600175,0.000745799,-0.00218939,-0.00148812,-0.00112373,0
0.000937269,-0.00369066,-0.000751649,0.00042583,-0.00172204,-0.00190741,0
0.00917311,-0.000794554,0.00171148,-0.000232175,-0.00124663,-0.00292218,0
0.00356485,-0.00290331,0.00706657,0.00127901,-0.000695974,0.00254655,0
-0.00230691,-0.00363334,0.00248098,-0.00302532,-0.00141376,0.0034852,0
-0.00610381,0.00453053,-0.00192431,-0.00479843,-0.000730217,0.0023098,0
0.00107527,0.00392333,-0.00404765,-0.00413379,-0.00158346,-0.00338638,0
-0.000730904,-0.000533162,-0.00386872,-0.00396538,-0.0027194,-0.0026592,0
0.000587125,0.00992512,-0.0027495,-0.00118583,-0.000674188,-0.00324893,0
0.00642449,-0.00216133,-0.00413119,0.000555057,0.001066,-0.00429052,0
0.0140294,-0.0209156,-0.00344852,0.000933796,-0.00535116,-0.00270635,0
0.0233497,-0.00801654,-0.00424381,-0.00243777,0.00102806,-0.00445712,0
0.0258296,0.00334405,-0.00231443,-0.00316744,0.00192314,-0.00115108,0
0.00344119,8.50884e-05,-0.00561008,-0.00656305,-0.00124478,0.00865746,0
0.00344119,8.50884e-05,-0.00561008,-0.00656305,-0.00124478,0.00865746,0
-0.00841523,0.00164277,-0.00569593,-0.00379691,-0.000517517,0.00519097,0
0.000308335,0.000561947,-0.00577871,-0.000172194,-0.00230232,-0.0032084,0
0.00301198,0.000654625,-0.00156613,0.000569135,-0.0017288,-0.00197661,0
0.00510886,0.00330778,-0.00130694,0.0017506,-0.000974774,-0.000394404,0
-0.0063951,-0.00574304,0.00100575,0.00284384,-0.00123647,0.00563151,0
-0.00544226,-0.00272769,0.00339007,-0.00127275,-0.00200686,0.00116456,0
0.0036221,0.00731031,-0.00115186,-0.00746937,-0.000801235,-0.0057236,0
0.00280215,0.00996411,-0.00435364,-0.00510558,0.000617951,-0.000830829,0
-0.0167889,0.00330894,0.0466137,0.000541091,0.00133181,0.0025599,0
-0.0157132,-0.00738901,0.0420298,0.0169553,0.0122794,0.00393939,0
-0.00265633,-0.0104365,-0.00948712,-0.0211805,-0.0273637,-0.00586665,0
0.0120744,0.00551067,-0.00963324,-0.0138604,0.000167072,-0.00735813,0
0.00279146,0.00885472,0.00279341,0.00770392,-0.00146005,0.00210899,0
-0.00330184,0.00210955,0.00677256,0.00448008,0.000234932,0.00616854,0
0.000608442,0.00243672,0.00292774,-0.00577866,-0.00104433,0.000137866,0
0.00405987,0.0034361,0.00105053,0.00021252,0.000288963,-0.00175273,0
-0.00608246,-0.00557109,0.00693649,0.00150929,-8.7887e-05,0.00183755,0
-0.00317355,-0.00127321,0.00228298,-0.00457309,-0.00208995,-0.00176203,0
0.00419708,0.00059408,-0.00126504,-0.0069789,-0.00177205,-0.00435841,0
0.007672,0.00758125,-0.00322305,-0.00381114,-0.00032717,-0.0025847,0
-0.000443261,0.00774816,-0.00274403,-0.00142641,0.000549167,0.00301802,0
-0.00829313,-0.000180628,-0.00434942,-0.00301877,-0.00118524,0.00213265,0
-0.000901582,0.00509601,-0.00162964,-0.00162104,-0.00104815,-0.00316155,0
0.000685889,-0.00257803,0.00109023,0.00269784,-0.00162122,-0.000602722,0
0.00113975,-0.00568424,0.00536306,0.000718892,-0.000756323,0.000748873,0
-0.00378924,-0.00295485,0.0013658,-0.00377965,-0.00216371,0.00169921,0
-0.00314603,-0.00338299,0.00512783,-0.0024602,-0.00187436,0.000774324,0
-0.000381949,-0.000119732,0.00294113,-0.00238422,-0.00155354,-0.00180548,0
0.00339812,0.0012185,0.00485558,-0.0015271,-0.000801563,-0.00341761,0
-0.000975369,-0.0075699,0.00682911,0.00186266,-0.00108835,0.0013929,0
-0.00395966,-0.00678723,0.0133268,0.000485137,-0.00120658,0.00172836,0
-0.00460437,-0.00659866,0.00751254,-0.00266363,-0.000957906,0.00294656,0
-0.0143711,0.00401187,0.00554584,-0.00313331,-0.00121972,0.0031935,0
-0.0184529,0.000798475,0.00853947,-0.00164495,-0.00110173,0.00120252,0
-0.0131446,-0.00144798,0.00284597,-0.00423273,-0.00221485,-0.00386304,0
-0.00171063,0.0117762,-0.00218567,-0.00603986,-0.000978291,-0.00821507,0
0.00561415,0.00103044,0.00184092,0.00135411,-0.00275117,-0.00360787,0
-0.000551604,-0.0124029,0.0117656,0.00530124,-0.00366753,0.00211489,0
0.000718451,-0.0126083,0.0128726,0.000475481,-0.000227809,0.000410736,0
0.00860937,0.000706635,0.00934584,-0.00436309,-0.00018388,-0.00238323,0
-0.00191755,-0.00484658,0.0062809,-0.00497249,5.13196e-05,0.00337839,0
-0.00922791,-0.00979455,0.0102652,-0.00178872,-0.00162587,0.00378096,0
-0.00755203,-0.00453722,0.00327291,-0.00393737,-0.000751942,-0.000978529,0
-0.00580255,0.00111322,0.00841913,-0.00246881,-0.00152823,-0.00102371,0
-0.00806546,0.00496104,0.005699,-0.001505,1.59442e-05,0.000572562,0
-0.0149804,-0.000386632,0.00690695,0.000525255,-0.00153041,0.00146824,0
-0.0108695,-0.00558881,0.00712902,0.000846982,-0.00182295,-0.000870824,0
-0.00679987,-0.00323815,0.0102291,-0.00222479,-0.00247419,-0.00258082,0
-0.00361532,0.00273406,0.00632798,-0.00510366,-0.000574261,-0.00368625,0
-0.00184856,0.00175398,0.00313169,-0.00280517,0.000256598,0.00145602,0
-0.00785992,0.00139417,0.00652826,0.000568137,-0.00165421,0.00210059,0
-0.00887372,-0.00864789,0.0103216,0.000492558,-0.00288975,-0.000687718,0
0.00349536,-0.000826354,0.0115825,-0.000614733,-0.00267154,-0.00550866,0
0.00191262,0.00532812,0.00862354,-0.00293811,-0.00247225,0.000754416,0
0.00191262,0.00532812,0.00862354,-0.00293811,-0.00247225,0.000754416,0
-0.0122708,0.00364966,0.0116299,0.000369921,-0.00115991,0.0081026,0
-0.0209,-0.00282817,0.0145744,0.00137928,-0.0011192,0.00580859,0
-0.0146597,-0.00409024,0.0165752,0.000758067,-0.00159729,-0.00202054,0
-0.000768359,-0.00186552,0.0156612,-0.00149288,-0.00045383,-0.0077889,0
0.0001938,-0.00302929,0.0159633,-0.00243292,-0.000347406,-0.00290555,0
-0.00441367,-0.00113177,0.0123973,-0.00481956,-0.000443876,0.00206876,0
-0.0100819,0.000204745,0.00793807,-0.00378969,-0.00216013,0.0039556,0
-0.0142807,-0.000379481,0.0104647,-0.0019537,-0.000992715,-4.99487e-05,0
-0.0093259,-0.000874914,0.0125515,-0.00231102,-0.00245219,-0.00202143,0
0.000107255,0.00138659,0.00903281,-0.00329226,-0.00106832,-0.00474483,0
-0.00230474,-0.00253801,0.0107699,0.000230432,-0.00139472,-0.000925839,0
-0.00378357,-0.0048064,0.00918478,-0.000844374,-0.00119051,0.000977159,0
-0.00364518,-0.00352344,0.00975652,-0.00202399,-0.000845402,-0.00191289,0
-0.00202139,-0.00439096,0.00663008,-0.00185683,-0.000947267,-0.000237763,0
-0.00564783,-0.00370155,0.00921402,-0.00276773,-0.000968724,-0.000225306,0
0.010089,-0.00205102,-0.0115904,-0.0111115,-0.00171474,-0.00795478,0
0.0554946,0.0115564,-0.0484865,-0.0254907,-0.00171363,-0.0229617,0
0.086709,0.0907652,-0.0240785,0.00837132,-0.000555307,-0.0145017,0
0.0454659,0.0482284,-0.00289456,-0.00260784,0.00393152,0.0204617,0
0.0197596,0.0621176,0.00108649,-0.00528219,0.00378451,0.019659,0
-0.024271,0.0511081,-0.00347118,0.0131667,0.0109997,0.0290243,0
-0.0522699,0.0106373,0.00803146,0.0142144,-0.00439352,0.0136043,0
-0.0338323,0.00772647,0.00598193,-0.00506528,-0.00655806,-0.0177549,0
0.0264492,-0.0253888,0.00129466,-0.00821567,-0.0110937,-0.0377545,0
0.0412922,-0.0411603,0.0178894,0.00122514,-0.00461417,-0.0182806,0
0.0112976,-0.067328,0.0232314,0.00321354,0.00688025,0.0133759,0
0.00534675,-0.0242188,0.00416676,-0.0155155,-0.000885457,0.00288779,0
0.0476165,0.0670279,-0.0297305,-0.0296459,0.000409007,-0.0139896,0
0.0147035,0.0485652,-0.0383194,-0.0045691,0.00126326,0.0220401,0
-0.0524872,0.0135478,-0.0116413,0.0186823,-0.00429595,0.0331613,0
-0.0495823,-0.0058189,-0.00624288,0.000761911,-0.00264144,-0.00113636,0
0.0386906,0.0444973,-0.0178391,-0.00626805,-0.00227097,-0.0418383,0
0.119172,0.0694122,-0.0244594,-0.00815846,0.00610602,-0.0407219,0
0.0733759,0.0853478,0.0545793,0.0084846,0.00865626,0.0190705,0
-0.0693182,-0.112387,0.143902,0.0500099,0.0418214,0.0740414,0
-0.109177,-0.00438323,0.0581913,-0.0164543,-0.0271319,0.00989592,0
-0.0397565,-0.00311605,-0.0475725,-0.05444,-0.0334694,-0.0236378,0
-0.0586865,-0.0642795,0.00449828,0.00623836,-0.0113053,-0.00971359,0
-0.0169423,-0.046715,0.0146283,0.0157835,0.000479788,-0.0216874,0
0.0340354,-0.0312868,0.00488871,0.000535727,0.000936538,-0.0229629,0
0.0358592,-0.0107682,-0.00426794,-0.00748344,-0.00224763,0.00112402,0
0.0115751,-0.0160042,-0.00853044,2.2307e-05,0.00268328,0.0143336,0
-0.0104686,-0.0072538,-0.00393229,0.000814781,-0.00198275,0.0122367,0
-0.0115188,-0.00280841,-0.00438756,-0.00421613,-0.00233072,0.000908196,0
-0.00639988,-0.0046736,-0.0023637,-0.00273712,-0.00178111,-0.00414634,0
0.000735005,-0.0174904,-0.00344124,0.000605926,-0.000128627,-0.00412935,0
0.0186695,-0.0078536,-0.0115617,-0.00401002,-0.000606596,-0.00835919,0
0.0157068,0.00395225,-0.0100031,-0.00513582,-0.000127614,0.000482917,0
-0.00515432,0.00360142,-0.0108842,-0.00529115,-0.00417298,0.00944567,0
-0.00774876,-0.00191816,-0.0108374,-0.000440165,0.00130245,0.0036124,0
-0.00141496,-0.00245598,-0.00663612,0.00283048,-0.000162601,-0.00505108,0
0.0064794,-0.00785214,-0.00320036,0.00247793,-0.00222781,-0.00442916,0
0.0117075,-0.00302789,-0.00398636,-0.00382234,-0.00155926,-0.00574809,0
0.0102185,-0.00990743,-0.000156453,0.00137116,-0.000438869,-0.00104052,0
0.0102185,-0.00990743,-0.000156453,0.00137116,-0.000438869,-0.00104052,0
0.0174208,-0.00270392,-0.00307361,-0.00143555,-0.000264883,-0.00106478,0
0.007051,0.00103379,0.00046427,-0.00270046,-0.00157887,0.00553417,0
-0.0095169,0.00014107,0.000972448,-0.00169879,-0.000699043,0.0092594,0
-0.00427125,0.00558693,-0.00517196,-0.00495709,0.000920236,0.000404775,0
-0.00700225,0.00605571,-0.00533885,-0.000825018,-0.00225836,-0.000125349,0
0.0100584,0.000620445,-0.00708378,-0.00321801,-0.00283259,-0.00880301,0
0.00402082,-0.0035777,-0.00387255,-0.00115745,-0.00186992,-0.00366116,0
0.00983046,0.000498206,-0.0044611,-0.000991955,0.000472009,-0.00288451,0
0.0284066,0.00180143,-0.00886312,-0.00332554,-0.00294453,-0.00608748,0
0.0182262,-0.00262863,-0.00804326,-0.000298157,-0.00165266,0.00479698,0
0.00364801,-0.000156328,-0.0027051,0.000947163,-0.000460833,0.00797039,0
-0.00994398,0.00306547,-0.00372371,-0.00221904,-0.000873089,0.00566751,0
-0.00786135,0.00685454,-0.00786129,-0.00612202,-0.0017122,-7.72476e-05,0
0.00373506,0.00443965,-0.00608816,-0.00179332,-0.000755161,-0.0073691,0
0.00699793,-0.0066874,-0.00538211,0.00263134,-0.00198483,-0.00213099,0
0.0116729,0.00186932,-0.00219664,-1.81645e-05,0.000328839,-0.00471985,0
-0.00259849,-0.00518706,-0.00197462,-0.00260162,-0.0023458,0.00775301,0
-0.00440711,0.00423812,-0.00382314,-0.0010116,-0.00381401,0.00182313,0
-0.000168609,0.00609636,-0.00303091,-0.00165921,0.00111988,-0.00137645,0
-0.00310954,0.00155877,-0.00252024,-0.0029799,-0.00155604,0.00170875,0
-0.00844734,0.00141926,-0.00382389,-0.00409785,0.00072515,0.00280124,0
-0.00737428,0.00180416,-0.00751202,-0.00503682,-0.00116682,-0.00244492,0
-0.000527114,-0.00152083,-0.00584793,-0.00142933,-0.00241172,-0.00483316,0
0.0142972,0.0014223,-0.00409539,-0.00117673,-0.00351417,-0.00756031,0
0.0152873,0.00197371,-0.00722558,-0.00259927,-0.00168478,-0.00126672,0
0.00421196,-0.000735688,-0.00365752,0.00104207,-0.00120944,0.00646222,0
-0.00648586,0.00144698,-0.000201435,0.00123377,-0.00136739,0.00791723,0
-0.0107179,-0.00356186,0.00322725,0.00221324,-0.000639021,0.00359011,0
-0.0076412,-0.000806652,0.00561216,-0.00106141,-0.00182918,-0.000962079,0
0.00257258,0.00279324,0.00224774,-0.00449726,-0.000592232,-0.0067203,0
0.00289082,0.000375219,0.00093968,-0.00172481,-0.000701934,-0.00252223,0
0.00302588,-6.18375e-05,-0.000336372,-0.00309005,-0.000581086,-0.000455856,0
0.00472657,0.00149047,-0.00334714,-0.00335391,-0.000455201,0.00113702,0
-0.00120055,0.00482174,-0.00339803,-0.00286768,-0.000934988,0.00367838,0
-0.00890025,0.00309775,-0.00357964,-0.000848264,-0.000909567,0.003227,0
-0.00537829,0.00361473,-0.00266272,-0.00144184,-0.00322986,-0.00234658,0
-0.00301421,0.00352458,-3.54238e-05,0.0004288,-0.00219634,-0.00352055,0
-0.00134042,-0.00377199,0.00504529,0.000287339,-0.00143737,-0.00267154,0
-0.00196011,0.00119197,0.00275786,0.00162904,-0.00149602,0.000222921,0
0.00600035,-0.0046775,0.000514059,-0.00192402,-0.000580668,0.00124645,0
-0.00707285,-0.000835318,0.00549919,-0.0028345,-0.00115502,0.0058493,0
-0.0123267,-0.00469378,0.00253996,-0.00323662,-0.00105578,0.00442797,0
-0.0102633,0.0104915,-0.00191779,-0.00750679,-0.00133789,-0.00271803,0
-0.0067205,0.0109326,-0.00345944,-0.00486167,-0.000931025,-0.00640011,0
-0.00391752,-0.00417514,-0.00475089,-0.0019843,-0.00316906,-0.000457644,0
-0.00943328,0.00270614,-0.00429487,-0.00200674,-0.000400484,-0.00239325,0
0.00049878,0.00061797,-0.00379044,0.0030804,-0.000210613,-0.002756,0
0.00426317,-0.00468868,-0.00359973,0.00152302,-0.00360921,-0.000356138,0
0.00348308,-0.00529364,0.00317525,0.00325701,-0.00212857,0.00164109,0
-0.000560633,-0.00966938,0.00870765,0.0034743,-0.000882626,0.00491762,0
-0.0110098,-0.00762904,0.0100987,-0.00236589,-0.00334674,0.00493598,0
-0.00713887,-0.00365142,0.0082844,-0.00454511,-0.00143978,0.000148475,0
-0.00974137,-0.00335583,0.0098868,-0.00182575,-0.000410497,0.00153291,0
-0.0170461,-0.000597049,0.0130255,0.00392776,-0.000377655,0.00361437,0
-0.0170461,-0.000597049,0.0130255,0.00392776,-0.000377655,0.00361437,0
-0.0180173,0.00576375,0.0143742,-0.00187874,0.000224382,0.00173503,0
-0.0188923,-0.00252097,0.0115392,-0.00219563,-0.00161254,0.00222486,0
-0.0254239,0.00108732,0.0159897,-0.00204894,-0.0017767,-0.00087887,0
-0.0158482,0.00688093,0.0103335,-0.00166616,-0.000117004,-0.0076561,0
-0.00675003,0.0010259,0.00861446,-0.00522785,-0.000502408,-0.00638199,0
-0.00372679,0.0015284,0.00277152,-0.00290936,0.000192851,-0.0033257,0
-0.00278883,-0.00759409,0.00667373,-0.000139516,-0.00141954,-0.000991881,0
-0.00220295,-0.00598754,0.0104821,-0.00133347,-0.00452363,-0.00142628,0
0.00081516,-0.00532732,0.0129014,0.000385582,-0.00162858,-0.00156242,0
0.0041101,0.00137336,0.0134026,-0.00130288,-0.00225404,0.00179029,0
-0.0102087,-0.00365639,0.0150111,0.00103173,-0.0021283,0.00827289,0
-0.0188081,-0.00167541,0.0140295,-0.000741094,-0.00142056,0.00649893,0
-0.0175708,-0.00530993,0.0138473,-9.89437e-06,-0.00133413,0.00348711,0
-0.0149188,-0.00808213,0.0160631,-0.00301409,-0.00128138,-0.00285512,0
-0.00564457,0.00257789,0.0118247,-0.00465381,-0.000255704,-0.00926554,0
0.00116032,0.00294788,0.010899,-0.00458637,0.000112742,-0.00428671,0
-0.00327303,-0.00184327,0.0128244,-0.00130336,-0.001616,0.000950217,0
-0.00128865,-0.00217601,0.0076932,-0.00106758,-0.000716239,0.00121439,0
-0.0108279,-0.00362417,0.00915448,-0.00236353,-0.000568181,0.00467014,0
-0.0155681,-0.000633949,0.0122936,0.000316814,-0.00244808,0.00187188,0
-0.0108151,-0.00174438,0.00964229,-0.00372459,-0.00364077,-0.00377023,0
-0.00227754,-0.00389541,0.0124511,-0.00141278,-0.00201648,-0.00806046,0
0.00171078,-0.00063434,0.0115575,-0.000837252,-0.000702798,-0.0031209,0
-0.000407172,-0.00818189,0.013591,0.00216724,-0.00050509,0.00106782,0
-0.00312923,-0.00678144,0.0117222,-0.00136167,-4.05312e-05,0.00235844,0
0.000638107,-0.00421876,0.0102804,-0.00127797,0.00153035,0.000849009,0
-0.0106753,-0.000297247,0.0106661,-0.00164996,-0.00105059,0.00542831,0
-0.0133441,0.00282502,0.00915291,-0.00399979,-0.00089246,0.00143367,0
-0.0102202,0.00195399,-0.000426896,-0.0089092,-0.00558734,-0.00397366,0
-0.0108593,-0.000761684,0.00832942,-0.000466868,-0.00104684,-0.00461262,0
0.00598997,-0.00843571,0.00952999,0.00246959,0.000765175,-0.00704557,0
0.0108116,-0.00461696,0.00431814,-0.003723,-0.00202957,-0.00432473,0
0.0112143,-0.00159648,0.00392247,-0.00361449,0.000633687,-4.40478e-05,0
0.00468661,0.00466021,0.0054575,-0.00292751,0.000973016,0.00221872,0
-0.0070363,-0.000353303,-0.00181538,-0.00722574,-0.00170648,0.00346869,0
-0.00225699,-0.00213948,-0.00112509,-0.00460996,-0.00066945,-0.00302756,0
0.0143486,0.00142777,-0.00606461,-0.00117269,-0.000325859,-0.00881219,0
0.0157281,0.00190469,-0.00833592,-0.0032344,0.00012663,-0.00306427,0
0.00714474,0.00202555,-0.00763307,-0.00169028,-0.000711381,0.00376916,0
0.00377374,0.00175086,-0.0090946,-0.0025228,-0.0011313,0.00138211,0
0.0068763,0.00977087,-0.0146049,-0.00537419,-0.00112563,-0.00174588,0
0.0158192,0.0114438,-0.0163744,-0.0050042,0.000178516,-0.00221294,0
0.0116005,0.0104593,-0.0173627,-0.00122881,0.000433087,0.000779927,0
0.00258138,0.00373192,-0.014555,-0.000846311,-0.0016295,0.0020746,0
0.00651495,-0.00770424,-0.0111318,0.000177145,-0.00220743,-0.000864029,0
0.0166069,-0.0041917,-0.00975459,-0.000743732,-0.00271195,-0.00614721,0
0.0191569,0.0040402,-0.0107457,-0.00515996,-0.000983238,-0.00378811,0
0.0146466,0.00204672,-0.0170707,-0.00623001,-0.00218076,0.00546682,0
0.00656972,0.0102527,-0.0159825,-0.00218207,-0.00162196,0.00341004,0
0.00290689,0.00487648,-0.0143132,-0.00108677,0.000136018,0.00120372,0
0.00926643,0.00800069,-0.0165136,-0.00238314,-0.000838876,-0.00463009,0
0.0121695,0.00464866,-0.015175,0.000665486,-0.000855505,-0.00177717,0
0.00758257,0.00182964,-0.00968332,0.00245753,-0.000700504,0.00122166,0
0.00612043,0.000426527,-0.0128375,-0.00218265,-0.00113094,0.00244468,0
0.00612043,0.000426527,-0.0128375,-0.00218265,-0.00113094,0.00244468,0
0.00336653,0.00217621,-0.0122172,-0.00351903,-0.00147861,0.00102156,0
0.00684992,0.00969927,-0.0139876,-0.00340299,-0.000787675,0.00138301,0
0.00179837,0.00610931,-0.0176386,-0.00347797,-0.000541955,0.00216943,0
-0.00172998,0.00624529,-0.0145379,-0.00164561,-0.00202599,0.000137091,0
0.00479634,0.010573,-0.0115898,-0.00268871,-0.00363928,-0.00506926,0
0.0118143,0.00879585,-0.00534905,0.0031814,-0.00225276,-0.00524914,0
0.0103762,-0.00246915,0.00101046,0.00555529,-0.002002,0.00102901,0
0.00531061,-0.00713067,0.00614044,0.00470409,0.00106612,0.00458211,0
0.00194194,-0.00786456,0.0012966,-0.00149107,0.000354499,0.00578648,0
-0.00707838,-0.00278353,-0.00206025,-0.00408675,0.000766963,0.00406635,0
-0.00713779,0.00710256,-0.00801343,-0.00631179,-0.00256807,-0.000218451,0
-0.00279105,0.00606914,-0.0111335,-0.0101821,-0.00396395,-0.00413418,0
-0.00409857,0.0111878,-0.0100941,-0.00332488,-0.00146106,-0.00352424,0
0.00723689,0.0106893,-0.0130667,-0.0013261,-0.00172356,-0.00630492,0
0.0134389,0.00182161,-0.0117153,0.000414521,-0.00299901,-0.00324696,0
0.0155129,-0.00266747,-0.00235159,0.00519251,-0.000239402,0.00186026,0
0.00690558,-0.00613722,-0.000602835,0.00180079,-0.000690877,0.00697321,0
-0.00783454,0.00085898,-0.00142645,-0.00615586,-0.00180981,0.00753212,0
-0.0111658,0.00505166,-0.004844,-0.00355546,-0.000610471,0.000568032,0
0.00171749,0.00720487,-0.00474141,-0.001554,-0.000667691,-0.00814122,0
0.00946645,-0.00282035,-0.00418926,-0.000890195,-0.00130403,-0.00246739,0
0.00716472,-0.00561665,-0.00298346,-0.000878468,-0.00127244,0.000359774,0
-0.002775,0.00217709,-0.00128463,0.000521827,-0.000874788,0.00407916,0
0.000104379,0.00399078,0.00283521,0.00327619,0.000164956,0.0004583,0
0.00273591,-0.0010645,-0.0033593,-0.00609608,-0.00248408,-0.00123215,0
-0.000847679,0.00261984,-0.00556691,-0.00698546,-0.00276965,0.000987649,0
-0.00340752,0.0078323,-0.00951442,-0.00242025,0.000508487,-2.08616e-05,0
-0.00326073,0.00233307,-0.00294344,0.000186384,-0.00107855,0.000534415,0
4.74646e-05,-0.00118247,0.00288963,0.00189847,-0.00250334,-0.0028919,0
0.0196128,0.00475631,0.0010785,-0.000880942,-0.00104392,-0.0100473,0
0.0152881,-0.00370847,0.00151759,-0.00316045,-0.00249779,0.00266099,0
-0.00388738,-0.000863078,-0.000826879,-0.00280745,-0.00194928,0.0126698,0
-0.0265673,0.00247531,0.000608176,-0.00193956,-0.000172108,0.0090059,0
-0.0140263,0.00752178,0.000877497,-0.00263344,-0.00101364,-0.00544876,0
0.00906357,0.00110917,-0.00282597,-0.00273457,-0.000719249,-0.0107029,0
0.0131203,-0.00275753,-0.00271863,-0.00293812,-0.00141075,-0.00659895,0
0.00747417,-0.00200874,0.000545848,-0.000473782,-0.00138149,0.0020619,0
0.00120513,-0.000113748,-0.00112065,-0.00157163,-0.000547826,0.00505161,0
-0.00378565,0.00262642,-0.00232337,-0.00285849,-0.00130117,0.00374532,0
-0.0119323,0.00296715,-0.00494456,-0.00342384,-0.000949949,8.09431e-05,0
-0.00162659,0.000735238,-0.00227074,-0.00257309,-0.0014925,-0.00511366,0
0.00845022,0.00215702,0.00137042,-0.00154808,-0.00269371,-0.00846922,0
0.00695566,-0.00927308,0.00398323,-0.00146287,-0.000906885,-0.00310379,0
0.00964624,-0.00751114,0.00253144,0.00266938,-0.00010708,0.00216413,0
-0.000587216,-0.00499645,0.00368956,-0.00251237,-0.000250161,0.00685394,0
-0.00390849,-0.00377288,0.00309504,-0.00104815,0.000425935,0.0049848,0
-0.00447676,0.0042168,-0.000434014,-0.00309094,-0.00195542,0.00244063,0
-0.0136468,0.00913433,0.000370793,-0.00266917,-0.00176764,0.000107765,0
-0.0118205,0.00599934,-0.00438569,-0.00335094,-0.00385296,-0.000987649,0
-0.00827813,0.00894166,0.00225872,0.00214201,1.51992e-05,-0.00405604,0
0.00314393,-0.00272776,0.00704435,0.00306809,-0.00223812,-0.0048843,0
0.0065743,-0.00940597,0.00923897,0.00194421,-0.00403172,-0.00312757,0
0.0103869,-0.00740767,0.0118258,0.00180614,0.00059545,0.000623524,0
0.0103869,-0.00740767,0.0118258,0.00180614,0.00059545,0.000623524,0
-0.000365585,-0.00364602,0.0150213,-0.00153437,0.00119424,0.00692677,0
-0.021627,-0.0045766,0.00904536,-0.00632994,-0.000560939,0.0085116,0
-0.0183726,0.000541831,0.00492567,-0.00875331,-0.00204143,-0.00130361,0
-0.00742411,0.00186855,0.0029671,-0.00333616,-0.00174487,-0.00616443,0
-0.00309376,0.00719636,0.00676141,-0.00131324,-0.000771344,-0.0041157,0
-0.00630316,0.00975613,0.0049021,-0.000556454,-0.000948727,-5.78165e-06,0
-0.0140327,0.000337149,0.0109448,0.001463,-0.0020813,0.00321686,0
-0.00743577,-0.0022678,0.012795,0.00280432,-0.000708401,-0.000520766,0
-0.0018618,0.00120992,0.00887306,-0.00246449,-0.000453591,-0.00199246,0
-0.00962515,0.00142161,0.00929264,-0.0034949,-0.000164092,0.00343871,0
-0.0210142,0.00505215,0.0063248,-0.00288489,-0.00177041,0.00556558,0
-0.0223236,0.00526962,0.00700455,-0.00238284,-0.0036436,0.00201374,0
-0.0103479,0.0073016,0.0123641,6.29872e-05,-0.00362217,-0.00631571,0
-0.00197898,0.00035118,0.01278,-0.00177786,-0.0021885,-0.00477684,0
-0.00684829,-0.0169766,0.0158034,0.00207776,-0.000611037,0.00586492,0
-0.014144,-0.00263821,0.0177538,0.00082767,-0.00256836,0.00337809,0
-0.0141102,0.00443464,0.0147075,-0.00554006,-0.00112784,0.00169498,0
-0.0113879,-0.00064937,0.0108415,-0.00479461,-0.00222439,-0.0015341,0
-0.011793,0.00460834,0.0132316,-0.000898093,0.000658453,-0.00153649,0
-0.0152319,-0.00369131,0.0124022,-0.000700008,-0.000332385,6.9797e-05,0
-0.00530181,-0.00593095,0.00904385,-0.00309239,-0.0023759,-0.0040763,0
-0.00292969,-0.00480952,0.00639184,-0.00336227,-0.000289679,-0.00223678,0
-0.00948268,-0.00275783,0.00924558,-0.00279973,-0.00221628,0.0034343,0
-0.0111528,-0.00231944,0.00789603,-0.00156914,-0.000554144,0.00266594,0
-0.0144953,0.00160669,0.0106404,-0.000326842,-0.00239313,0.000394583,0
-0.0137459,-0.00551923,0.0102801,-0.00151556,-0.00238079,-0.00223529,0
-0.00827469,-0.00524936,0.010967,-0.00183693,-0.00146505,-0.00465202,0
0.00105758,-0.00613636,0.0118552,0.00330509,-3.78489e-05,-0.00414664,0
-0.00401577,-0.00958747,0.0122024,-0.000542879,-0.00275388,0.00170803,0
-0.0111514,-0.00794815,0.0162051,-0.00126839,0.000513256,0.0042187,0
-0.00539229,-0.000479025,0.0121422,-0.00384139,-0.000939995,-0.00133318,0
-0.0124303,0.00253835,0.00765712,-0.00410752,-9.54866e-05,0.00105381,0
-0.0102499,-0.00301952,0.00383043,-0.00297938,-0.00292236,-0.000595629,0
-0.00820467,-0.0018723,0.00282447,-0.00679404,-0.00317115,-0.00600535,0
0.00166528,0.00370636,0.00244941,-0.00505359,-0.00131068,-0.0064683,0
0.0105283,-0.00215521,0.000851845,-0.00214344,-0.000324517,-0.00521874,0
0.00649043,-0.00951644,-0.00211978,-0.000436079,-2.71201e-06,0.00241154,0
0.00571786,-0.00791384,4.56092e-05,-0.00237654,0.00213045,0.00150448,0
0.00556948,0.00349584,-0.00654922,-0.00647503,0.000713408,-0.000829577,0
0.000942267,0.00438823,-0.00883382,-0.0060983,7.49826e-05,-0.000846863,0
0.00427257,-0.00452505,-0.0113583,-0.00227563,-0.00210479,-0.0027135,0
0.0128364,-0.00414233,-0.00863975,-0.00100615,-0.00137287,-0.00456738,0
0.0108939,0.00330769,-0.0134109,-0.00444271,-0.00157022,0.00070709,0
0.00523874,0.00237133,-0.012319,-0.000840351,-0.000334084,0.00176728,0
0.00356548,-0.00086676,-0.00765942,0.000982374,-0.00214899,0.00224423,0
0.0142346,0.00329864,-0.0106202,-0.00270716,-0.000847548,-0.0044145,0
0.00850429,-0.000265251,-0.0104517,-0.0021881,1.51992e-05,-0.000363171,0
0.0052568,0.00172079,-0.0115923,-0.00423605,-0.0011526,0.00342786,0
0.00983566,-0.000455195,-0.0151823,-0.00409135,-0.00184208,-0.00200623,0
0.0145057,-0.00233851,-0.0114277,-0.000613093,-0.00209507,-0.00307059,0
0.0191577,-0.00382119,-0.00553313,0.000573222,-0.00103953,-0.00341046,0
0.0140416,0.000560428,-0.00867276,-0.00392058,-0.0019049,0.000641942,0
0.00750566,0.00626285,-0.0101183,-0.00535619,-0.000801027,0.00145584,0
0.00709763,0.00410243,-0.0136891,-0.000636324,0.000222862,0.00184399,0
0.00709763,0.00410243,-0.0136891,-0.000636324,0.000222862,0.00184399,0
0.0035548,0.00158458,-0.00921306,0.0029036,0.000167221,0.00318295,0
0.00352396,0.000450942,-0.0104021,-0.000292748,-0.0003362,0.00142169,0
0.00304748,0.00411738,-0.0104244,-0.00348672,-0.000661492,0.00126076,0
0.00443103,0.00565791,-0.0111795,-0.0027638,-0.00257331,-0.000704169,0
0.00200676,0.00341961,-0.0116308,-0.00111671,-0.00115526,0.000741482,0
0.00380012,0.006449,-0.0100532,-0.0014665,-0.00117493,0.000225663,0
0.00695755,0.005697,-0.0111602,-0.00307846,-0.000758767,-0.00134039,0
0.00672662,0.00807035,-0.012418,-0.00434159,-0.00213617,-0.000620723,0
0.00388294,0.00627975,-0.0118103,-0.000707641,-0.00153205,0.000232577,0
-0.00161888,0.00330625,-0.00530124,0.00196624,-0.00132105,0.00127333,0
-0.000340539,0.00255729,-0.000423593,0.000929818,-0.000846982,-0.00178784,0
0.0114354,-0.00158931,-0.0021786,-0.00093016,-0.00185975,-0.003048,0
0.00688778,-0.00463757,0.00022996,0.00171955,-0.000679493,0.00182307,0
0.00104722,-0.00408247,-0.00169342,-0.00286414,-0.000120878,0.00322211,0
-0.00343172,0.00563219,-0.00462798,-0.00537682,-0.00113943,0.00530249,0
-0.00715131,0.00625727,-0.00509232,-0.00359955,-0.0017052,0.00085187,0
-0.00509112,0.00406182,-0.00709598,-0.00440057,-0.00333109,-0.00228751,0
-0.00102447,0.0130855,-0.0104443,-0.00394665,-0.000451118,-0.00508505,0
0.0059333,0.0114757,-0.0138175,-0.00221251,-0.00158602,-0.00566268,0
0.0116248,-0.00232753,-0.0101478,0.000217557,-0.0025118,-0.00189525,0
0.010331,-0.00334158,-0.00222961,0.00312182,0.00101981,0.000769258,0
0.010147,0.000894046,0.00130698,0.00059681,-0.000298321,0.00119394,0
-0.00332834,0.00191787,-0.00260366,-0.00657098,-0.00199544,0.00697768,0
-0.0080584,0.00119392,-0.00675042,-0.00338273,-0.000382841,0.00284088,0
0.000657606,-0.000804069,-0.00501219,-0.000211786,-0.000598401,-0.00335145,0
0.00597327,0.00297145,-0.0025752,0.000615552,-0.00188869,-0.005651,0
-2.07291e-05,0.00273526,-0.00585821,-0.00353363,-0.000863016,0.00126934,0
-0.00762484,-0.00478817,-0.00325567,0.000815675,-0.00171119,0.00336814,0
-0.00418006,0.00615595,-0.00129852,-0.000648379,-0.000641227,-0.000219345,0
-0.00373235,0.00282014,-0.00075978,-0.00107621,-0.00182691,0.000808477,0
-0.00954121,0.00408707,-0.00298264,-0.00410551,-0.000484079,0.000785768,0
-0.00632227,0.00273909,-0.00438916,-0.0038552,-8.81553e-05,-0.00121665,0
0.000831796,0.00269711,-0.00625875,-0.0012783,-0.000830263,-0.00378495,0
0.0034968,0.000623918,-0.00295863,0.000992645,-0.0019823,-0.00080502,0
0.00204321,-0.00245165,-0.00144393,-0.000344604,-0.00332272,0.000777364,0
0.00464036,0.00279106,-0.0027929,-0.00261987,-0.00148281,-0.000215709,0
0.000439237,0.00565752,-0.00263795,-0.00106066,-0.00138932,0.00142813,0
-0.00493556,0.0052576,0.000886501,0.00296845,-0.00149402,0.00352627,0
-0.0119573,0.00135104,0.00251818,-0.000143424,-0.00108773,0.00150901,0
-0.00603572,0.00146907,0.000512618,-0.00434825,-0.000624359,-0.00317276,0
0.00232183,-0.000364722,-9.61944e-05,-0.002286,-0.000807226,-0.00376177,0
0.000475179,0.00290225,-0.000455792,-0.00286502,-0.000750363,-0.000163317,0
-0.00394405,0.00643793,-0.00198499,-0.00321837,-0.00199991,0.00320715,0
-0.00686212,0.00279864,-0.00180727,-0.00270744,-0.00098139,0.00259578,0
-0.00562851,0.0010503,-0.00299182,-8.97609e-05,-0.00150445,-0.000405729,0
0.00198652,0.0015238,-0.00236128,-0.00126385,-0.00136334,-0.00376832,0
0.000936121,-0.0035891,0.00166415,-0.000832792,-0.00163516,-0.00110954,0
0.000787562,-0.00227507,-0.000622422,-0.00141431,-0.00163355,-0.00076437,0
0.00274232,-0.00381442,0.00180925,-0.00116552,-0.00102681,-0.000394464,0
0.00472774,-0.000869832,0.00488324,-0.00107174,-0.000758588,-0.00123912,0
0.00200279,-0.00329815,-0.000199997,-0.00224146,-0.00165626,0.00237024,0
-0.00567831,-0.00253356,0.0034029,0.00015372,-0.000278234,0.0056147,0
0.000246414,-0.00124376,0.000747956,-0.00508647,-0.000525862,-0.000418723,0
-0.00191768,0.00543362,-0.00173068,-0.00442782,-0.00165263,-0.00183326,0
-0.00191768,0.00543362,-0.00173068,-0.00442782,-0.00165263,-0.00183326,0
-0.00571481,0.00566488,0.00126256,0.000231311,-0.000772774,-2.98023e-07,0
-0.00815635,-0.00212452,-0.0032641,-0.00372338,-0.00419554,0.000868559,0
-0.00163297,0.00509981,-0.00349954,-0.00374584,-0.000491917,-0.00517327,0
0.010947,0.00422224,-0.0050708,-0.0023917,-0.00101614,-0.00702834,0
0.0131934,-0.00305312,-0.00190705,-0.000361189,-0.00265801,-0.00144804,0
0.0120293,-0.0100122,-0.00154809,0.000550851,-0.000265598,0.00111336,0
0.00937814,-0.00228211,-0.000483127,-0.00214176,-0.000341773,0.00392944,0
-0.00302209,0.00272177,-0.00393998,-0.00491704,0.000611246,0.00617743,0
-0.00869913,-0.00368476,-0.00455957,-0.00383326,-0.00124407,0.00501019,0
-0.00322925,4.20809e-05,-0.00298554,-6.67535e-05,-0.000836402,-0.00437301,0
0.00331382,0.000776905,-0.0010907,-0.000320524,-0.00184345,-0.0045324,0
0.00377777,-2.13198e-05,0.00280238,-0.000305399,-0.0023641,-0.000932753,0
-0.00628288,-0.00233473,0.00513444,0.000649408,-0.00222588,0.00360304,0
-0.0069055,0.000140205,0.0053062,0.000610113,-0.00134581,0.00342536,0
-0.00643917,0.00324208,0.00111717,-0.00238045,-0.000227749,-0.000715256,0
-0.00899234,0.00681254,-0.00060826,-0.00476199,9.12547e-05,0.00202513,0
-0.0127543,0.0074681,0.000529815,-0.00276065,-0.0008789,0.0017941,0
-0.00687195,0.00282875,0.00186595,-0.000173032,-0.00118452,-0.00254107,0
0.000435777,-0.00288186,0.00716467,0.0024561,-0.00467256,-0.00436074,0
0.00119184,-0.00406986,0.0104923,0.00262348,-0.00232464,-0.00129062,0
-0.00509243,-0.000890446,0.00830748,-0.00318402,-0.000800252,0.00342321,0
-0.0148148,0.00366712,0.00298218,-0.00430515,-0.00154489,0.00644821,0
-0.0182468,0.00353832,0.0113734,-0.000944152,-0.00080213,0.003555,0
-0.00778138,0.00646945,0.00546648,-0.00211984,4.28259e-05,-0.00410336,0
-0.00587193,-5.47837e-05,0.00632027,-0.000657752,-0.000559747,-0.00338781,0
-0.00577419,-0.00424008,0.00887433,0.000308096,-0.000801623,-0.000106633,0
-0.00545518,-0.00449505,0.00965139,-0.0020587,-0.00117147,0.00150007,0
-0.0115572,-0.000324765,0.00746195,-0.00281617,-0.00244075,0.000347614,0
-0.0118148,0.00306279,0.00770637,-0.00290398,-0.00191408,0.000118554,0
-0.00978785,-0.00297659,0.00560665,-0.00325365,-0.00218171,0.00177491,0
-0.00989407,-0.00369872,0.00829179,-0.000845622,-0.000617236,-0.00203776,0
-0.00372436,0.000775985,0.00709027,-0.00247252,-0.000680894,-0.00419426,0
-0.0044189,-0.00504248,0.00772101,-0.00046226,-0.00125089,-0.000788808,0
-0.00683251,-0.00616588,0.00727473,-0.000657689,-0.00147679,0.00124991,0
-0.0113367,-0.00116007,0.0154782,0.000889633,-0.00177127,0.00111699,0
-0.00763998,-0.00180065,0.0133369,0.000579551,-0.000584066,-0.000853896,0
-0.00875055,-0.00765412,0.0116971,-0.00147644,-0.00301176,0.00100017,0
-0.00781257,-0.00293885,0.0178402,-2.54661e-05,-0.000225842,0.000833035,0
-0.00755612,-0.00895547,0.0103207,-0.003801,-0.00134376,0.00151926,0
-0.0097207,0.00179498,0.014226,-0.00183618,-0.00119078,-0.000683963,0
-0.0088328,0.00315639,0.0121346,-0.00308532,-0.00142473,0.000162125,0
-0.0123034,-0.00697765,0.0054544,-0.00399886,-0.00572681,-0.00179917,0
-0.00114825,0.00273068,0.0041852,-0.00364873,0.000911593,-0.00617796,0
0.00719277,-0.00701591,0.00776295,0.000782073,-0.00210026,-0.00424707,0
-0.000236117,-0.00946699,0.010512,0.00158427,-0.000863105,0.00354594,0
-0.00576301,-0.0116985,0.0146257,0.00149395,-0.000259519,0.00519818,0
-0.00905282,-0.0051804,0.0141505,-0.00357246,1.15335e-05,0.000567973,0
-0.00834704,-0.00460712,0.00958139,-0.00637503,-0.00109196,0.000112116,0
-0.0059409,-0.00809673,0.0122679,-0.00299294,-0.0019924,-0.000979424,0
-0.00390703,-0.00607121,0.0110957,-0.00158718,-0.0010567,-0.00217658,0
-0.00699577,-0.00290578,0.0129411,0.00104707,-0.00161105,0.00126266,0
-0.0111572,-0.00404484,0.0121932,0.00114661,-0.000808597,0.00302178,0
-0.0126092,-0.000912101,0.0138367,-0.000635695,-0.00165579,0.0014053,0
-0.013186,-0.0106441,0.0118068,-0.00246949,-0.000580549,0.00083977,0
-0.013186,-0.0106441,0.0118068,-0.00246949,-0.000580549,0.00083977,0
-0.0052346,0.00216929,0.006335,-0.00487749,-0.000260532,-0.00439149,0
-0.00113098,0.00806541,0.00220393,-0.00525627,0.000190765,-0.00416911,0
-0.005294,-0.00346482,0.00697116,-0.00104044,-0.00207132,0.000127554,0
-0.00456325,-0.00542767,0.00504707,-0.0024188,-0.00179857,-0.000784636,0
0.00632776,-0.00425112,0.00874357,-0.000858396,-0.00179613,-0.00453162,0
0.0102223,-0.00256248,0.00241769,-0.00251473,-0.000670671,-0.00263739,0
0.00215645,0.000255574,0.0009923,-0.00328907,-0.00172046,0.00347036,0
-0.00959235,0.00255539,0.00229553,-0.00268342,-0.000336319,0.00668204,0
-0.00776406,-0.00108033,-0.00204753,-0.00319052,-0.000500858,-0.00130105,0
0.00543108,0.00376771,-0.00236112,-0.00508387,0.000859529,-0.00832403,0
0.0141273,0.000513481,-0.00862182,-0.00520493,0.000226855,-0.00517172,0
0.00718824,-0.00112003,-0.012356,-0.00466646,0.000379682,0.00265712,0
0.00296738,0.00418817,-0.0105982,-0.00301383,-0.00114846,0.000693619,0
0.00701166,0.00638519,-0.0135118,-0.00550003,-0.00186682,-0.000113368,0
0.00419007,0.00558011,-0.0149866,-0.00265491,-0.00139958,8.14795e-05,0
0.00238923,0.0063153,-0.0133109,-0.000158101,-0.000448674,0.00113648,0
0.000816596,0.00358562,-0.0146728,-7.13766e-06,-0.00281405,-0.000134587,0
0.0069094,-0.00373437,-0.00841638,0.000886191,-0.00243512,-0.00315922,0
0.0150392,0.00249737,-0.00602449,0.000196353,-0.00170064,-0.00646847,0
0.0150392,-0.000875203,-0.00320244,0.00032033,5.08428e-05,-0.00011903,0
0.00797974,-0.00563009,-0.00646315,-0.0024202,-0.00105137,0.00548691,0
0.00106059,-0.00147337,-0.00388479,-0.00189494,-0.000631869,0.00417566,0
0.00315756,0.000474331,-0.00827545,-0.00342853,0.000709295,0.000404119,0
0.00393515,0.00936552,-0.013566,-0.0057822,-0.000558674,-0.00143909,0
0.00529581,0.0112576,-0.014509,-0.00318764,-0.000619262,-0.00280136,0
0.00646489,-0.00174488,-0.0154542,-0.00338992,-0.00495371,-0.00012064,0
0.00612054,0.0128032,-0.0148027,-0.00255498,-0.0013482,-0.00321764,0
0.00976322,0.0102499,-0.0114899,0.00162564,0.000565141,-0.00260317,0
0.0121598,-0.00254919,-0.0128759,0.00317895,-0.00143009,0.000912964,0
0.0147039,-0.00280151,-0.00878156,-0.00043723,-0.000216126,0.000576496,0
0.0109769,0.00317692,-0.00630782,-0.00142053,0.000113428,0.00240266,0
0.000214473,0.00266085,-0.00569049,-0.00353332,-0.00100952,0.00638431,0
-0.00605993,0.00155404,-0.00896591,-0.00351563,-0.000969589,0.00266892,0
0.00345953,-0.00251754,-0.00505577,-0.000188351,-0.00232944,-0.00275552,0
0.00471814,0.00163997,-0.00735322,-0.000839323,-0.00147372,-0.00346655,0
0.00575757,0.00210154,-0.00833294,-0.00185487,-0.000249445,-0.000377476,0
-0.00132429,0.00137034,-0.0056384,-0.00130345,-0.00170135,0.00225508,0
0.00278789,-0.000198852,-0.00325503,-0.00110351,-0.000669956,-0.00138408,0
0.0109643,0.00555896,-0.00897108,-0.00379604,-0.0016661,-0.00331092,0
0.00337807,0.00964062,-0.00763715,-0.00493976,-0.000421882,0.000560999,0
-0.00316507,0.00291776,-0.00830148,-0.0010224,-0.000355601,0.00313485,0
-0.00484497,-0.00382538,-0.00448681,0.000578508,-0.00131366,0.00205761,0
0.00657761,-0.00459358,-0.00120192,0.000510231,-0.00195834,-0.00588447,0
0.0141164,0.00167219,-0.00692445,-0.00485107,-0.00251177,-0.00712585,0
0.0133508,0.00187723,-0.00768146,-0.00384405,-0.00127003,0.000755847,0
-0.000949326,-0.00554963,-0.00568883,0.000412643,-0.000945449,0.00671875,0
-0.00228088,0.00230397,-0.00569266,-0.00112025,-0.000570923,0.00201946,0
-0.000998038,-0.000329365,-0.00234161,-0.00233084,-0.0017139,-0.000637531,0
0.00356049,0.00519593,-0.00421997,-0.00223495,-0.00103897,-0.0014497,0
-0.00261725,0.000987604,-0.003943,0.000493065,0.000288665,0.00328779,0
-0.00126225,-0.000400142,-0.00023681,0.00155258,-0.000726879,0.00107551,0
-0.00130724,-0.000343848,0.000225466,-0.000388816,-0.000420004,0.00126028,0
-0.00564525,0.00226589,-0.000485383,-0.00484376,-0.00192839,0.00106639,0
-0.00742743,-0.000635563,-0.0013978,-0.00193923,-0.00159582,0.00166994,0
-0.00742743,-0.000635563,-0.0013978,-0.00193923,-0.00159582,0.00166994,0
-0.00700615,-0.00166621,0.00192701,0.00268117,-0.00266355,0.000319242,0
-0.00718243,-0.00652348,0.0111272,0.00450027,-0.00312918,0.00183851,0
-0.0150411,-0.00421777,0.0133259,0.000654444,-0.00277853,0.0032661,0
-0.0156281,-0.00483959,0.0172064,0.000423357,-0.0022794,0.000474215,0
-0.0104815,-0.00584507,0.0189174,0.000294462,-0.000693619,-0.00290978,0
-0.00585538,-0.00734507,0.0170042,-0.00105996,4.09782e-05,-0.00224346,0
-0.00473339,-0.00812834,0.0160064,-0.00275235,-0.00113267,4.48823e-05,0
-0.0136345,-0.00673796,0.0179884,-0.00175975,0.000498682,0.00387883,0
-0.0100485,-0.00216064,0.0143274,-0.0049105,3.24845e-05,-0.000807226,0
-0.0132054,0.00981625,0.00936215,-0.00322579,-0.0021506,-9.39965e-05,0
-0.0096938,-0.00344177,0.00934058,-0.00233604,-0.00223297,-0.00122046,0
-0.0120025,-0.0084346,0.00374224,-0.00442523,-0.00433475,-0.00356227,0
0.00100652,0.00307571,0.00573011,-0.00200322,-4.02331e-05,-0.00857478,0
0.0136097,-0.000326114,0.00340885,-0.0010905,-0.00225198,-0.00686735,0
0.00616692,-0.0085561,0.00843111,-0.000801384,-0.00338215,0.00409544,0
-8.67108e-05,-0.010289,0.0142653,0.00142556,0.000444531,0.00397307,0
-0.00189179,-0.00515768,0.00958722,-0.00457847,0.000986874,0.00364721,0
-0.00477894,-0.00517407,-3.77148e-05,-0.0089181,-0.00029248,8.31485e-05,0
0.000450722,-0.00408522,0.000476818,-0.00488292,-0.0005849,-0.00302249,0
0.00329124,-0.00280234,0.000284503,-0.00171016,-0.001129,-0.00453311,0
0.00487448,-0.00133806,-0.0011116,-0.00190176,-6.94096e-05,-0.00103867,0
0.00198418,-0.000871657,-0.00250851,-8.83937e-05,-0.00177667,0.00214398,0
-0.00727138,0.00237095,0.0012139,0.000742912,-0.00158781,0.00478244,0
-0.00647112,0.000173108,0.00216048,0.00200659,-0.000910819,0.00152856,0
0.000693339,0.00221116,3.75775e-05,-0.00386304,-0.00103265,-0.00192004,0
0.00269789,0.00566593,-0.00324265,-0.0040317,-0.000354946,-0.00241673,0
0.00610511,-0.00118409,-0.00115398,-0.000999689,-0.00197363,0.000159502,0
-0.0038207,-0.00702287,0.00461022,0.00254516,-0.00234562,0.00273675,0
0.000316484,-0.00721489,0.00215188,1.40555e-05,-0.00237647,-0.00172919,0
0.0031714,0.00473268,-0.00195663,-0.00541574,-0.00148544,-0.00296819,0
0.00152022,0.00759977,-0.00258273,-0.00397034,-0.000411779,0.00211018,0
-0.00535897,0.00249997,-2.10223e-05,0.00128703,-0.00127938,0.00448942,0
-0.00608869,-0.00295979,-0.00220384,-0.00238246,-0.00139624,-0.00140005,0
0.00706709,0.00563444,0.00110806,-0.00442091,0.000446677,-0.00824285,0
0.0140185,-0.000352131,-0.00637212,-0.00263825,-4.825e-05,-0.00495684,0
0.00864582,-0.00554172,-0.00652041,-0.00526847,-0.000962377,0.00290745,0
0.00368885,0.00221697,-0.00579064,-0.00125565,0.000474721,0.0035941,0
0.000519414,0.00352181,-0.00493012,-0.00347523,-0.003133,0.00244468,0
-0.00189473,0.00356532,-0.00898723,-0.00438595,-0.00212106,0.00110763,0
0.00185475,-0.00785181,-0.00458241,0.00286481,4.15146e-05,-0.0013482,0
0.00242813,-0.0152259,0.00436594,0.00495093,-0.0010283,-0.00173783,0
0.00105473,-0.0212116,0.0126287,0.00165012,-0.0019066,-0.00208551,0
0.00922584,-0.0315643,0.0103265,-0.00246786,-0.00215742,-0.00430739,0
0.0149205,-0.0354839,0.0234338,0.00760655,-0.000546724,-0.00262564,0
0.010939,-0.0492429,0.0278601,0.00575162,-0.00347528,0.00403935,0
-0.00330246,-0.0469743,0.0280548,-0.00347319,-0.00562382,0.00500929,0
0.0028428,-0.0431643,0.0351003,0.000262365,0.000401646,0.000821769,0
0.0175844,-0.0411441,0.0303693,6.80238e-05,0.000516176,-0.00367409,0
0.00902612,-0.0319909,0.0282275,-0.00319284,0.00146848,0.00241905,0
0.000523169,-0.0272538,0.0159433,-0.00948778,-0.000481009,0.00220442,0
0.00093063,-0.0185872,0.0125514,-0.00991169,-0.0027495,-0.00202149,0
-0.000200142,-0.00661254,0.00697059,-0.00616391,0.00025782,-0.00402337,0
0.00740904,-0.00870823,0.00110945,-0.000155434,-0.000194371,-0.00469565,0
0.0198092,-0.00987381,-8.25571e-05,-0.00080356,0.000102609,-0.00557387,0
0.0198092,-0.00987381,-8.25571e-05,-0.00080356,0.000102609,-0.00557387,0
0.0216114,-0.00283084,-0.00804187,-0.00396717,0.00251335,-0.00220692,0
0.00829374,0.00686034,-0.0138703,-0.00620425,0.000739783,0.00323111,0
0.0045629,0.0122379,-0.0146367,-0.00564166,-0.00109875,0.00348741,0
0.00128004,0.0121912,-0.0156296,-0.00495511,-0.00189701,0.00392556,0
0.00274183,0.016702,-0.0175777,-0.00365462,-0.00239828,0.00166494,0
-0.00398264,0.0209396,-0.0186386,-0.00281417,-0.000929385,0.00263131,0
-0.00619012,0.0174788,-0.0144565,0.00218457,-0.000913769,0.00359589,0
-0.00794728,0.00845216,-0.00600513,0.00742357,-0.00136885,-0.00157881,0
0.0072362,0.00685021,-0.00170135,0.00375209,-0.000681341,-0.00770438,0
0.0049901,0.00821302,-0.00188619,-0.00716756,0.000150681,0.00232279,0
-0.00586841,-0.00523945,-0.000284886,0.00343607,-0.000889182,0.00222826,0
0.0090538,0.00961005,-0.00442975,-0.00760833,0.00233567,-0.00532824,0
0.00568652,0.00549177,-0.00830117,-0.00837003,-0.00614533,-0.00222743,0
0.00910172,0.00168069,-0.00907243,-0.00332087,2.14577e-05,-0.0012306,0
0.00916885,0.0122232,-0.00951174,-0.00155817,-0.000786334,-0.00104302,0
0.010551,0.00866019,-0.014922,-0.00347038,-0.00252166,0.00159115,0
0.000767924,0.00735669,-0.00775108,0.0041264,0.00021559,0.0022921,0
0.00125794,0.00730111,-0.00345565,0.00382848,0.00124764,0.000439882,0
0.00189816,0.00204748,-0.00843985,-0.00553401,-0.00265896,-0.000956476,0
0.00195328,0.006965,-0.00746043,-0.00251755,0.000790298,0.00112844,0
-0.000664604,0.00232417,-0.00766763,0.000759169,-0.00120145,0.00175691,0
-0.00323855,0.00107111,-0.00411876,-0.00192709,-0.00270543,0.00138932,0
0.000298678,0.00824215,-0.00269371,-0.00268802,0.0004403,-0.00246823,0
0.00471579,0.00678231,-0.00947262,-0.00448212,-0.00206989,-0.000685096,0
0.00217194,0.0124793,-0.0134743,-0.00506958,-0.000121117,0.000481844,0
0.00450779,0.00890335,-0.0117937,-0.000951335,0.000593603,-0.00143379,0
0.00261003,0.00428911,-0.0122287,-0.00317643,-0.00187466,-0.00182098,0
0.0035954,0.00524186,-0.0153601,-0.00519142,0.000182211,-0.00172663,0
0.00173838,0.00714843,-0.012993,-0.00365398,-0.00070405,-0.00139248,0
0.000559385,0.00934906,-0.01435,-0.00104314,-0.00110462,-0.00282383,0
0.00768282,0.0063545,-0.0140212,-0.00214685,-0.00109792,-0.00217319,0
0.00105579,-0.00172673,-0.00724129,0.00239423,-0.00109538,0.00172025,0
0.0106869,-0.00492541,-0.00692266,-0.00041534,-0.000650227,-0.00120205,0
0.00221587,0.0140392,-0.0165782,-0.00710024,-0.00258571,0.00359148,0
-0.010098,0.0205724,-0.0101419,0.00166243,-0.000867397,0.00561374,0
-0.00838405,0.00686924,-0.00585509,0.0035679,-0.00175345,0.00186872,0
-0.00476,0.00687644,-0.00416889,0.00017646,-0.00271767,-0.00431699,0
0.0103529,0.00468205,-0.00680692,-0.00145558,-0.00121087,-0.006881,0
0.011937,0.000235127,-0.00402053,-6.28978e-05,-0.00259632,-0.000120044,0
0.00476373,-0.00306111,-0.00162215,0.000186116,-6.61612e-06,0.00372827,0
0.00600183,0.0095675,-0.00560955,-0.00366013,0.000372469,-0.000259161,0
0.00136526,0.00578092,-0.00670725,-0.00477445,-0.000519037,0.000694275,0
-0.000145811,-0.00283684,-0.00804146,-0.00428501,-0.0015651,0.00102246,0
0.00317673,0.0023737,-0.00845256,-0.00198354,-0.00088799,-0.00214309,0
-0.00236635,0.0102965,-0.0074745,-0.000357807,-0.000262558,-0.000816405,0
-0.0020569,0.00514256,-0.00594319,-0.00105087,-0.000584751,-0.000266671,0
0.00412909,0.00166505,-0.0040917,-0.000328273,-0.00252163,-0.0017795,0
-0.00404653,0.00857514,-0.00480387,-0.00201777,-0.00231326,-0.000541925,0
0.000138354,0.0104766,-0.00236718,0.00121975,0.00148299,-0.00221187,0
0.00472325,0.00147665,-0.00138566,5.18896e-05,-2.0355e-05,-0.00197041,0
0.00534776,-0.000924736,-0.00277645,-0.00332598,-0.00205445,-0.00242901,0
0.0144339,0.00578691,-0.00451885,-0.00188412,-0.00174248,-0.00569385,0
0.0123636,-0.00410806,0.00241244,0.00123285,-0.00275534,-0.00219953,0
0.0123636,-0.00410806,0.00241244,0.00123285,-0.00275534,-0.00219953,0
0.017552,-0.0012211,0.00343596,-0.00386089,-0.00242203,-0.000675499,0
0.0142198,0.00299119,-0.00448238,-0.00772154,-0.000450402,0.00191009,0
0.00441458,0.00058567,-0.00954905,-0.00688279,-0.00151655,0.00557625,0
-0.00232188,0.00514945,-0.00951393,-0.0039437,-0.00053221,0.00356978,0
-0.00486067,0.00325399,-0.00208853,0.00108142,-0.0011465,0.00445235,0
-0.00779867,0.00752202,0.00108709,0.00419796,6.07967e-06,0.000934064,0
-0.00583805,0.00924254,0.00696547,0.00438821,0.00125578,0.0013687,0
-0.00899337,-0.00161042,0.00786636,0.00276591,-0.00226271,0.0024544,0
-0.00864741,0.00686233,0.00540447,-0.00089483,-0.00235772,-0.00123101,0
-0.00374586,0.0107677,0.00857179,0.0012029,0.000136167,-0.00534862,0
0.00584631,0.0077954,0.00836489,-0.00274228,-0.000331819,-0.00461531,0
0.00203506,0.010187,-0.000175387,-0.00616935,-0.000539422,0.00416696,0
-0.0119284,0.0176793,0.00735061,0.00310076,0.0016394,0.00912374,0
-0.0290078,0.0118336,0.0129188,0.00252615,-0.00265619,0.0133939,0
-0.0418981,0.00623817,0.0151045,-0.000396013,-0.00673747,0.00979936,0
-0.0436917,0.00729006,0.0127635,-0.000294104,-0.00366062,0.000851572,0
-0.0341397,0.00464071,0.0168632,0.0046273,-0.000280529,-0.00459331,0
-0.021393,-0.00457054,0.0308103,0.00689638,-0.00217754,-0.00404406,0
-0.026065,-0.0170129,0.0314672,-0.000786453,-0.00329599,-0.000814736,0
-0.0163975,-0.00740022,0.0246069,-0.00738309,-0.0030272,-0.00582051,0
-0.0120078,0.00487798,0.02358,-0.00341418,0.00268456,-0.00506437,0
-0.0101582,0.00435287,0.0165034,-0.00431609,0.00314245,-0.00150418,0
-0.0175607,-0.00450293,0.00482556,-0.00976621,-0.000727415,0.000556767,0
-0.0114152,-9.06317e-06,0.00471297,-0.00770866,-0.00129366,-0.00839365,0
0.0042721,-0.0035575,0.00893583,-0.00287244,-0.00182235,-0.014182,0
0.0198649,-0.0187428,0.0122385,0.000899836,-0.00324789,-0.010204,0
0.021159,-0.012323,0.0157084,-0.00151724,8.07047e-05,-0.00148225,0
0.00901281,-0.00477787,0.0127648,-0.00668912,0.00156265,0.00735813,0
-0.0176164,0.00970262,0.00624084,-0.00982971,-4.19021e-05,0.012724,0
-0.0248584,0.0103813,0.00998677,-0.000583529,-0.000247419,0.00466621,0
-0.0172848,0.00608531,0.0187241,0.00845326,-0.000341833,-0.00346565,0
-0.00444548,-0.0114067,0.0196829,0.00597776,-0.00298578,-0.00753063,0
0.00429715,-0.0239359,0.0159277,-0.00229043,-0.00350457,-0.00796664,0
0.0171866,-0.0174802,0.00494662,-0.0128061,-0.00182462,-0.0086928,0
0.0147719,-0.00447097,-0.0113963,-0.0167251,-0.00114158,-0.00152093,0
-0.00126779,0.00265391,-0.0086393,-0.00799775,-6.16908e-05,0.0066551,0
-0.00468916,0.00927758,-0.00517747,0.00252563,0.000840724,0.00403142,0
-0.00248087,-1.01505e-05,0.00266481,0.00407921,-0.00186178,0.000607371,0
-0.00474002,-0.0112865,0.00999548,0.00876281,-0.00237548,0.00433135,0
-0.000973249,-0.00734569,0.0122518,0.00739305,0.000320137,0.00108325,0
0.000669661,0.00455698,0.0101902,-0.00130691,0.000810444,0.00038898,0
-0.00818588,0.000515371,0.00704871,-0.00375675,-0.00294343,0.00463915,0
-0.0149165,0.00588364,-0.0012117,-0.0105488,-0.0029906,0.000844717,0
-0.00714592,0.0114631,-0.00260262,-0.00480171,0.00202659,-0.00606239,0
0.00701917,0.0138648,-0.00618457,0.0012394,0.00188765,-0.009058,0
0.0092722,0.00420493,-0.00477142,-0.000327818,-0.000751942,-0.0022251,0
0.0021866,0.00473584,-0.00584493,-0.00339267,-0.0013234,0.00466973,0
-0.00379593,0.00677259,-0.00441371,-0.00108203,-0.000241339,0.00408494,0
-0.00307688,0.00381378,-0.0043685,-0.00343259,-0.00165689,0.000677466,0
0.00365133,0.00505262,-0.013453,-0.00694555,-0.0016818,-0.00258094,0
0.00445001,0.00751045,-0.0153241,-0.00788894,-0.00229576,-0.0027557,0
0.000980437,0.000948173,-0.00983848,-0.00274628,-0.00166145,-0.00341904,0
0.0130768,0.00286158,-0.0113934,-0.00217652,-0.00285196,-0.00692284,0
0.0242211,0.00181434,-0.0112388,-0.0022303,-0.00123176,-0.00502187,0
0.0242211,0.00181434,-0.0112388,-0.0022303,-0.00123176,-0.00502187,0
0.00597814,-0.00613491,-0.00780475,0.00253032,-0.00104949,0.00810796,0
-0.00553551,-0.000829963,-0.00714267,0.000474125,0.000975251,0.0111352,0
-0.0116475,0.0104595,-0.016878,-0.00721691,0.00124547,0.00230485,0
-0.00606867,0.0163899,-0.0143896,-0.00534691,-0.000363171,-0.00128877,0
-0.00424654,0.00625846,-0.0189354,-0.00465575,-0.00359941,-0.00277787,0
-0.00169336,0.0085921,-0.0251177,-0.0067798,-0.00502753,-0.00517988,0
0.00901973,0.0183373,-0.0187398,-0.000445634,0.00121051,-0.00584972,0
0.0186332,0.0188465,-0.0219176,0.00141818,-0.000708431,-0.00252479,0
0.0106554,0.012678,-0.0207592,0.0013161,-0.00252843,0.00500637,0
0.00142147,0.00122172,-0.0179027,0.00169145,2.22623e-05,0.00853759,0
-0.00437809,0.0109355,-0.00768146,0.00548352,-0.0017893,0.0047825,0
-0.0224231,0.00846586,-0.00855346,-0.00205199,-0.0023371,0.0122838,0
-0.0304779,0.0214952,-0.0108833,-0.00347444,-0.000993431,0.00687087,0
-0.031774,0.0230988,-0.00838394,0.0021047,0.00125498,0.000765145,0
-0.023159,0.00986268,-0.00132399,0.00506908,-0.00170305,-0.000112116,0
-0.0353485,0.00839526,-0.000975838,0.00138526,-0.00321445,0.00164992,0
-0.027073,0.00955234,0.00332741,0.00445971,-0.00190696,-0.00376588,0
-0.0082956,0.000576079,0.00252364,0.00091812,-0.00227308,-0.00641328,0
-0.0112837,-0.00362147,0.00502395,-0.00163653,-0.00172198,-0.00210685,0
-0.0105388,-0.00353291,-0.00039172,-0.0066494,-8.91089e-06,-0.0055691,0
0.00286304,-0.00921309,-0.00301944,-0.00860423,-0.000761807,-0.00834811,0
0.00836167,-0.0125102,-0.00748722,-0.00891409,-0.00134298,-0.00740016,0
0.0197376,-0.000257744,-0.00827751,-0.0065403,0.00157773,-0.0104815,0
0.0221212,-0.0028558,-0.0114738,-0.00520058,3.73423e-05,-0.00328177,0
0.00889963,-0.013232,-0.0119954,-0.001298,-0.00187612,0.00347871,0
0.00644712,-0.0150125,-0.00905894,0.00236179,0.000478208,0.00184822,0
0.0186652,-0.0101602,-0.0034683,0.00101625,-0.0012984,-0.00476938,0
0.0242551,-0.00381567,-0.00631727,-0.00434262,-0.000488758,-0.00382215,0
0.0210804,-0.000959963,-0.0065013,-0.00379887,-0.00208545,0.00384432,0
0.00548332,-0.000631652,-0.00544737,-0.00146339,-0.0031116,0.00856382,0
-0.00404733,-0.00441994,-0.00344985,0.00125264,-0.002819,0.00660294,0
-0.000586556,0.00563044,-0.00217619,0.000142112,-0.000230134,0.00135303,0
-0.00275277,0.00484955,0.00228672,-0.000755593,0.000959784,0.000627637,0
-0.00375252,0.00263821,-0.00264469,-0.00060302,-0.00360918,-0.000963449,0
-0.00376876,-0.00237104,0.00087335,-0.00299409,-0.00232422,-0.00388145,0
0.00473577,0.0073122,0.00376763,-0.0035316,-0.0023725,-0.0074361,0
0.0160691,-0.000694353,0.000792157,-0.00140588,-0.000514567,-0.00361031,0
0.00499889,-0.000254699,0.00235435,0.0038446,0.00255561,0.00569618,0
-0.00480154,-0.00936246,0.00245205,0.00461853,0.00114524,0.00785041,0
-0.00964183,0.00102788,0.00224175,-0.00167176,-0.000680208,-0.000928879,0
0.00501195,0.00058569,-0.00317613,-0.0057948,-0.00362203,-0.00838161,0
0.00497253,-0.00174763,-0.000627574,-0.00308798,-0.00260523,-0.00520426,0
