attitude_roll,attitude_pitch,attitude_yaw,rotationRate_x,rotationRate_y,rotationRate_z,acceleration_x,acceleration_y,acceleration_z
-0.0347497,0.218996,0.00382068,-0.236483,-0.674865,-1.74896,0.0116503,0.123515,-0.0166302
-0.0406737,0.215884,-0.0318126,-0.210704,-0.663399,-1.74597,0.00494381,0.089867,-0.0288574
-0.0455815,0.213075,-0.0676588,-0.227888,-0.577808,-1.74922,0.00374854,0.0634862,-0.0321747
-0.048542,0.209658,-0.103072,-0.280089,-0.464867,-1.7009,0.024618,0.0463668,-0.027002
-0.049734,0.205544,-0.136832,-0.292396,-0.34129,-1.59858,0.0315314,0.0402814,-0.0400674
-0.0497077,0.201379,-0.169552,-0.274069,-0.332413,-1.59524,0.0313186,0.00923988,-0.0394086
-0.0498421,0.198357,-0.201876,-0.186479,-0.344342,-1.55878,0.0347454,-0.0119258,-0.0545477
-0.0512924,0.197086,-0.23302,-0.100395,-0.383319,-1.49443,0.0552975,-0.00696166,-0.0468324
-0.0527326,0.196942,-0.262715,-0.0777411,-0.336211,-1.42287,0.0618669,-0.00849155,-0.0473354
-0.0532499,0.196818,-0.290853,-0.0870417,-0.25694,-1.34767,0.0665405,-0.00984886,-0.0377861
-0.0521298,0.196197,-0.317785,-0.119711,-0.162678,-1.29168,0.0675555,-0.0159972,-0.0252475
-0.0501121,0.19472,-0.343129,-0.148274,-0.140972,-1.18703,0.0898396,-0.0166827,-0.00241429
-0.0483891,0.193006,-0.366302,-0.129284,-0.133825,-1.09344,0.0933553,-0.0237357,-0.00223011
-0.0469812,0.191765,-0.387855,-0.0913998,-0.14133,-1.01904,0.0943056,-0.0301109,-3.52263e-05
-0.046079,0.191189,-0.407729,-0.067053,-0.140686,-0.937861,0.101071,-0.0304326,0.0259334
-0.0447929,0.190374,-0.426146,-0.108744,-0.067451,-0.871702,0.0988853,-0.0396706,0.0398322
-0.0413076,0.188247,-0.443501,-0.181935,0.0928566,-0.82995,0.092263,-0.0550044,0.0407304
-0.0355071,0.18474,-0.459831,-0.22783,0.173399,-0.757024,0.108412,-0.0536443,0.0526617
-0.0292598,0.180497,-0.47408,-0.245966,0.179943,-0.627239,0.132571,-0.0552835,0.0655326
-0.0240069,0.176054,-0.485427,-0.221416,0.153599,-0.490549,0.134458,-0.0683693,0.0594847
-0.0191797,0.17271,-0.494386,-0.14015,0.167886,-0.382694,0.11597,-0.081947,0.0310231
-0.0144898,0.170312,-0.500874,-0.125564,0.200363,-0.261476,0.105222,-0.0799455,0.0395667
-0.00929178,0.167795,-0.505562,-0.137495,0.239046,-0.209761,0.073599,-0.0955951,0.0386473
-0.00432641,0.16443,-0.509557,-0.212061,0.177223,-0.182704,0.0704606,-0.109869,0.0343693
-0.00182268,0.159485,-0.512749,-0.27681,0.0144727,-0.12882,0.0737752,-0.110951,0.00354296
-0.00240975,0.154277,-0.515149,-0.237411,-0.0960125,-0.109726,0.0650947,-0.104712,-0.0768976
-0.00491596,0.150122,-0.516987,-0.188645,-0.173395,-0.0662239,0.0600669,-0.0791098,-0.143187
-0.00859836,0.146761,-0.517593,-0.146495,-0.185851,0.00887962,0.0690527,-0.0529233,-0.196623
-0.0113777,0.144663,-0.516423,-0.059613,-0.045274,0.116026,0.0757575,-0.0305998,-0.240337
-0.00996189,0.144648,-0.51279,0.0615875,0.250022,0.247604,0.0677495,-0.0163931,-0.255732
-0.00336693,0.147176,-0.506332,0.197069,0.478532,0.388332,0.0494426,-0.0130533,-0.217695
0.00473567,0.152141,-0.49768,0.291324,0.418183,0.455561,0.0425297,-0.0323436,-0.123928
0.00979695,0.158694,-0.488538,0.350573,0.225229,0.445089,0.0295719,-0.0576694,-0.0533996
0.0113188,0.165808,-0.48004,0.346041,0.0832198,0.404418,0.0125641,-0.0521289,-0.0150291
0.0111686,0.17224,-0.472278,0.288139,0.0560065,0.375956,0.00535428,-0.0342222,-0.00677103
0.0114626,0.177446,-0.464662,0.230469,0.101893,0.39584,0.0123839,0.000353873,-0.00941932
0.0121436,0.18198,-0.455904,0.224524,0.11563,0.478451,0.0338946,0.0288011,-0.00796396
0.0122847,0.186868,-0.44537,0.261468,0.0807567,0.564095,0.0388786,0.0396639,-0.00657314
0.0112009,0.193127,-0.433193,0.357173,0.0432451,0.637601,0.0277648,0.0378001,-0.0083378
0.00931377,0.201409,-0.42021,0.452478,0.0224907,0.638759,-0.00470033,0.0383989,0.0034095
0.00663802,0.211137,-0.40766,0.504456,-0.0425454,0.598553,-0.0190181,0.0392379,0.0391579
0.00256703,0.221428,-0.396021,0.509984,-0.0966534,0.535113,-0.0143147,0.0442691,0.0814776
-0.00198793,0.230579,-0.385825,0.387756,-0.130108,0.477354,0.0214055,0.0649973,0.133292
-0.00670054,0.236533,-0.376056,0.213313,-0.118754,0.479662,0.05699,0.0791824,0.153424
-0.0118556,0.239091,-0.366196,0.0675345,-0.182041,0.473281,0.0771766,0.0912662,0.138569
-0.0191632,0.239735,-0.356661,0.0313295,-0.331361,0.457593,0.0929701,0.09473,0.087998
-0.0290934,0.240637,-0.347341,0.0865238,-0.417863,0.445731,0.102531,0.0989167,0.0152091
-0.0389687,0.242754,-0.338413,0.149049,-0.323927,0.413569,0.081594,0.112416,-0.0375339
-0.0449916,0.245509,-0.330208,0.151441,-0.0585424,0.370438,0.0626097,0.111535,-0.052498
-0.0451169,0.2478,-0.322879,0.109505,0.203783,0.33459,0.0606917,0.108843,-0.0148544
-0.0415089,0.249565,-0.316266,0.0986091,0.302324,0.300047,0.0739486,0.102665,0.0545499
-0.0372686,0.25091,-0.310533,0.0538968,0.245466,0.24696,0.078711,0.0883121,0.121731
-0.0372686,0.25091,-0.310533,0.0538968,0.245466,0.24696,0.078711,0.0883121,0.121731
-0.0318623,0.250251,-0.304021,-0.096899,0.0929929,0.0708004,0.0795554,0.0502291,0.161428
-0.0310627,0.24725,-0.303379,-0.20617,0.00836121,0.0018422,0.0868607,0.0433835,0.158437
-0.0314695,0.241916,-0.304233,-0.334309,-0.0691459,-0.066396,0.0887298,0.0398107,0.130999
-0.0326808,0.234145,-0.306427,-0.446868,-0.0941197,-0.116891,0.0860436,0.0361951,0.0788374
-0.0335324,0.224691,-0.309382,-0.494379,-0.0397764,-0.139163,0.0686026,0.0396543,0.00190282
-0.0329309,0.215076,-0.312927,-0.478627,0.010991,-0.177599,0.0378121,0.0326656,-0.0673774
-0.0314723,0.206307,-0.317139,-0.409687,0.0515819,-0.204195,0.0273818,0.0180943,-0.115258
-0.0282887,0.199306,-0.321546,-0.306223,0.200416,-0.206525,0.0147856,0.00610948,-0.147294
-0.0214167,0.194241,-0.325737,-0.223896,0.386208,-0.194373,-0.0116872,-0.00224487,-0.134967
-0.0125109,0.189955,-0.32964,-0.219013,0.408448,-0.184887,-0.0269296,-0.0263039,-0.0668617
-0.00446084,0.185623,-0.333716,-0.218732,0.305133,-0.215735,-0.042857,-0.056805,-0.0151741
0.00100482,0.181374,-0.338659,-0.209539,0.150909,-0.262046,-0.0531582,-0.0723498,0.00970405
0.00396647,0.177205,-0.344197,-0.210837,0.0516138,-0.280581,-0.0610028,-0.0747131,0.0128665
0.00515649,0.172905,-0.34987,-0.21608,-0.0319496,-0.281414,-0.0663131,-0.0751322,0.0108023
0.00462029,0.168639,-0.355492,-0.204214,-0.1206,-0.274913,-0.0592575,-0.0826165,-0.000448287
0.00239374,0.164674,-0.360853,-0.201749,-0.173603,-0.261924,-0.0566369,-0.0871833,-0.00794625
0.000280955,0.16026,-0.36644,-0.245534,-0.110964,-0.294833,-0.0620449,-0.10222,-0.0200926
3.89166e-05,0.155087,-0.372656,-0.262478,-0.0222801,-0.31664,-0.0498889,-0.114241,-0.0362481
0.000287027,0.150227,-0.378836,-0.216831,-0.0705326,-0.290188,-0.0140167,-0.111949,-0.0285511
-0.0015418,0.146698,-0.384196,-0.133109,-0.195077,-0.243519,0.0235131,-0.118399,-0.021118
-0.00558774,0.144586,-0.388791,-0.0942813,-0.268812,-0.216075,0.0478267,-0.127615,-0.0167212
-0.0106462,0.142237,-0.393107,-0.15104,-0.29458,-0.214901,0.0600075,-0.14143,-0.0269546
-0.0158383,0.138816,-0.397574,-0.176451,-0.276773,-0.22444,0.0654289,-0.145077,-0.0682306
-0.0211422,0.135498,-0.402027,-0.175366,-0.351243,-0.210041,0.0889858,-0.133272,-0.0847199
-0.0281006,0.131536,-0.406379,-0.243474,-0.391326,-0.212708,0.107932,-0.128029,-0.0844693
-0.0357126,0.126263,-0.410727,-0.2733,-0.409848,-0.189951,0.127553,-0.116366,-0.119418
-0.0429722,0.122039,-0.41389,-0.149224,-0.343135,-0.0962389,0.140341,-0.0792674,-0.176643
-0.0484352,0.120888,-0.414317,0.0353877,-0.213117,0.063473,0.14755,-0.0483511,-0.177759
-0.0521759,0.123121,-0.411453,0.191173,-0.144463,0.200047,0.131591,-0.0400925,-0.131204
-0.0560031,0.12748,-0.406519,0.255314,-0.192654,0.253889,0.0885091,-0.0456101,-0.0688889
-0.0609326,0.132253,-0.401237,0.245881,-0.219745,0.23516,0.055938,-0.0634141,-0.0412729
-0.0658962,0.13648,-0.396442,0.216305,-0.202937,0.215141,0.0179491,-0.0413421,-0.0393879
-0.0695877,0.140964,-0.392174,0.274535,-0.0949399,0.171099,-0.0415097,-0.0137381,-0.0776228
-0.070451,0.147282,-0.389015,0.378303,0.0466597,0.101089,-0.0881452,0.0232607,-0.101812
-0.0687595,0.155359,-0.387095,0.425725,0.139227,0.0314471,-0.116815,0.0648457,-0.0693102
-0.0657746,0.163584,-0.386727,0.398757,0.169555,-0.0512789,-0.130219,0.0953654,-0.0256611
-0.0615966,0.171712,-0.388349,0.418831,0.237604,-0.156369,-0.149904,0.128954,-0.0191079
-0.0544865,0.180989,-0.391679,0.486731,0.435921,-0.219756,-0.177936,0.193766,-0.0170612
-0.042922,0.191054,-0.395911,0.486336,0.631704,-0.237599,-0.181627,0.25717,0.0276228
-0.0288159,0.200414,-0.400508,0.433394,0.666032,-0.264231,-0.173593,0.28161,0.0805295
-0.0152674,0.208679,-0.406582,0.385505,0.5654,-0.349368,-0.153705,0.277236,0.0938379
-0.00336047,0.216017,-0.414032,0.340984,0.468109,-0.370452,-0.150908,0.31514,0.0988848
0.00578103,0.221798,-0.421062,0.229156,0.287618,-0.307359,-0.121927,0.349547,0.119423
0.010772,0.224801,-0.426535,0.0708741,0.0798825,-0.234207,-0.0856961,0.338177,0.109517
0.0114533,0.224709,-0.430825,-0.0666166,-0.0773508,-0.187967,-0.0688586,0.32788,0.0678737
0.0101565,0.222349,-0.434341,-0.159442,-0.112357,-0.161424,-0.0702701,0.321367,0.0126548
0.00910295,0.218306,-0.437161,-0.24555,-0.0528753,-0.11788,-0.0557313,0.306939,-0.00964516
0.00905476,0.212714,-0.439203,-0.299249,0.000173944,-0.0810113,-0.0223393,0.280602,-0.00995958
0.00951189,0.207028,-0.440132,-0.25332,0.0233895,-0.00219088,0.0273887,0.258547,-0.00354546
0.00996401,0.20316,-0.439034,-0.135004,0.0388195,0.113836,0.0711889,0.233137,0.0106353
0.00996401,0.20316,-0.439034,-0.135004,0.0388195,0.113836,0.0711889,0.233137,0.0106353
0.00963729,0.201357,-0.43531,-0.0669074,-0.00792334,0.25581,0.109713,0.210421,0.0491476
0.00766975,0.199877,-0.428514,-0.0747411,-0.0486379,0.402362,0.12557,0.176286,0.0844476
0.00436969,0.198117,-0.419264,-0.103795,-0.112771,0.511678,0.1236,0.145997,0.0985325
-0.00085348,0.195836,-0.408,-0.121889,-0.186614,0.583798,0.0997751,0.122169,0.0982556
-0.00783605,0.192965,-0.395957,-0.163611,-0.276163,0.595313,0.0842896,0.0987983,0.0917156
-0.015937,0.189026,-0.383938,-0.223823,-0.292177,0.595701,0.077359,0.0827696,0.0660168
-0.0239623,0.183018,-0.37158,-0.367581,-0.294553,0.6452,0.0841219,0.0876991,0.0533291
-0.0321874,0.173853,-0.358169,-0.494823,-0.269684,0.703533,0.082478,0.0834249,0.00509107
-0.0390657,0.163464,-0.343808,-0.467892,-0.159082,0.752926,0.0653296,0.0765857,-0.0878595
-0.04289,0.15445,-0.328368,-0.368389,0.0268546,0.81698,0.0499653,0.0776043,-0.136302
-0.0433243,0.147162,-0.311453,-0.29644,0.173295,0.896335,0.0333516,0.0835975,-0.12688
-0.0410249,0.140602,-0.293087,-0.299545,0.306908,0.952108,0.0146077,0.0784937,-0.0888416
-0.0368094,0.133853,-0.273878,-0.266148,0.386677,0.976915,0.00706823,0.0538945,-0.0749696
-0.0302887,0.129787,-0.254146,-0.0608741,0.535913,0.992595,-0.0213317,0.0597671,-0.0827332
-0.0217209,0.12891,-0.233738,0.0115794,0.561863,1.04354,-0.0161044,0.0639627,-0.00773782
-0.0130647,0.128804,-0.212747,0.00964372,0.550794,1.03917,-0.0233293,0.0375058,0.058221
-0.00639869,0.128712,-0.192165,0.0159561,0.361575,1.00409,-0.0171376,0.00972009,0.089486
-0.00447017,0.129303,-0.172464,0.0532343,0.0849098,0.947212,-0.00339492,-0.0105223,0.0852395
-0.00762975,0.129805,-0.154559,-0.00540493,-0.168872,0.819398,-0.0242643,-0.026779,0.0629542
-0.0153431,0.128445,-0.1402,-0.119337,-0.430834,0.589596,-0.058194,-0.061208,0.0145184
-0.0281721,0.124774,-0.131738,-0.21772,-0.74841,0.262538,-0.0573777,-0.0878446,-0.0779006
-0.0446833,0.119998,-0.129304,-0.234136,-0.816022,0.00634963,-0.0124613,-0.0758155,-0.209339
-0.0572618,0.115935,-0.131305,-0.166636,-0.393684,-0.165202,0.00218933,-0.028215,-0.345392
-0.0582827,0.113867,-0.135209,-0.0615951,0.23994,-0.187625,0.0102498,0.0318795,-0.380996
-0.048551,0.114467,-0.138308,0.128757,0.652115,-0.130149,0.0192074,0.0526939,-0.328043
-0.0344921,0.119889,-0.14077,0.403018,0.669122,-0.141821,0.0173005,0.0484656,-0.208117
-0.0225143,0.130576,-0.143808,0.645287,0.486586,-0.198245,-0.00368023,0.0428033,-0.0817165
-0.014006,0.144834,-0.148596,0.748456,0.31242,-0.306499,-0.0324057,0.0562851,0.0198436
-0.00818727,0.159403,-0.155663,0.686524,0.180422,-0.408731,-0.0482216,0.0726693,0.0999295
-0.00353332,0.171757,-0.165126,0.535742,0.136101,-0.539909,-0.0701118,0.0797429,0.138264
0.00123897,0.180351,-0.177679,0.329659,0.122595,-0.704293,-0.0939008,0.0850753,0.144547
0.00649551,0.185344,-0.193709,0.202823,0.109896,-0.877553,-0.116415,0.0855604,0.112323
0.0118726,0.189016,-0.213418,0.199442,0.0516208,-1.05021,-0.116092,0.0977434,0.0699195
0.0166269,0.193087,-0.235995,0.241021,-0.00661329,-1.1499,-0.0846612,0.125331,0.0584598
0.0207223,0.197573,-0.259893,0.248888,-0.0441524,-1.18399,-0.0464712,0.149293,0.0774118
0.0242315,0.201452,-0.284225,0.190632,-0.0941059,-1.19752,-0.00844984,0.159932,0.115903
0.0267443,0.203842,-0.308907,0.105732,-0.142894,-1.2199,0.0173611,0.154002,0.13602
0.0290235,0.204419,-0.334144,0.0317124,-0.14184,-1.25234,0.0368924,0.139186,0.125907
0.0322943,0.203916,-0.360097,-0.00951065,-0.0721246,-1.28802,0.0536006,0.145926,0.106975
0.0366851,0.201928,-0.385877,-0.0981906,0.008893,-1.24252,0.102466,0.156644,0.113849
0.042572,0.198297,-0.410138,-0.154934,0.0825055,-1.15033,0.132652,0.163827,0.11158
0.0488495,0.194398,-0.432135,-0.124376,0.115874,-1.02754,0.157946,0.162429,0.103437
0.0546344,0.191266,-0.451567,-0.10637,0.084187,-0.901608,0.183068,0.157082,0.121047
0.0587031,0.187081,-0.468102,-0.251285,0.000199181,-0.739653,0.217028,0.136828,0.154443
0.0597583,0.178967,-0.480647,-0.483939,-0.131841,-0.556691,0.231896,0.0977061,0.168017
0.0570215,0.166849,-0.490044,-0.662062,-0.293085,-0.44888,0.195571,0.0686177,0.118864
0.0518902,0.151674,-0.498053,-0.825457,-0.355302,-0.437338,0.157225,0.00505155,0.0431887
0.0448882,0.132453,-0.506195,-1.06014,-0.462529,-0.454145,0.131484,-0.0401904,-0.00899458
0.0367563,0.109327,-0.513803,-1.19995,-0.413786,-0.385548,0.127686,-0.0790926,-0.105641
0.0303761,0.0852361,-0.519641,-1.16946,-0.280834,-0.272488,0.120541,-0.0927082,-0.21457
0.0303761,0.0852361,-0.519641,-1.16946,-0.280834,-0.272488,0.120541,-0.0927082,-0.21457
0.0258061,0.0630844,-0.522715,-1.03143,-0.217586,-0.0912609,0.129338,-0.126609,-0.279192
0.020907,0.043977,-0.522296,-0.893455,-0.319319,0.0817026,0.115101,-0.153837,-0.304835
0.0129113,0.0271729,-0.518515,-0.78504,-0.470177,0.285238,0.0995205,-0.188605,-0.318903
0.00269841,0.0130722,-0.510536,-0.612556,-0.489775,0.487168,0.0655544,-0.225606,-0.365308
-0.00456779,0.00351367,-0.499779,-0.337619,-0.192123,0.585664,-0.0182442,-0.238887,-0.411027
-0.00477321,-0.000804851,-0.48727,-0.100726,0.16456,0.679346,-0.0485868,-0.238872,-0.357769
0.000863295,-0.00144291,-0.472286,0.0421915,0.372229,0.817989,-0.043359,-0.243508,-0.228425
0.00835349,0.00109024,-0.455509,0.182362,0.353106,0.860909,-0.0618812,-0.24302,-0.112065
0.0145921,0.00543767,-0.438773,0.229532,0.279188,0.788948,-0.0800211,-0.259882,-0.0210716
0.0186439,0.00997142,-0.424439,0.201774,0.142405,0.668212,-0.0701556,-0.247673,0.0410668
0.0207686,0.0146426,-0.412054,0.240815,0.0948076,0.598082,-0.0445229,-0.195212,0.0508552
0.0232425,0.019987,-0.400257,0.263231,0.20275,0.600385,-0.0142178,-0.14223,0.0547823
0.0288091,0.025361,-0.388303,0.242425,0.377378,0.616251,-0.0077693,-0.0972155,0.0725516
0.0369036,0.0305064,-0.375914,0.244985,0.447359,0.642857,0.000414368,-0.0736395,0.0906205
0.0452885,0.0364512,-0.362991,0.311901,0.388227,0.671717,-0.0131995,-0.0500436,0.0870256
0.0506811,0.04466,-0.34992,0.448048,0.193333,0.66998,-0.0317796,-0.0321217,0.0890746
0.0517241,0.0547405,-0.337349,0.478969,0.00466357,0.635187,-0.040973,-0.0181933,0.106404
0.0505665,0.0639605,-0.3258,0.365256,-0.0378802,0.566799,-0.0629996,-0.0150625,0.121176
0.0493328,0.0701442,-0.315229,0.20392,-0.0183794,0.524708,-0.0672732,-0.0113188,0.121373
0.0483042,0.0736534,-0.305278,0.117487,-0.00632865,0.484736,-0.0810982,-0.00853591,0.0816664
0.0479429,0.076394,-0.295885,0.116547,0.0523786,0.483117,-0.106531,-0.0114792,0.0134701
0.0501534,0.0799161,-0.285909,0.210343,0.263386,0.516396,-0.170608,-0.0309019,-0.0577897
0.0546994,0.0861073,-0.276499,0.359787,0.225686,0.445821,-0.223781,-0.0488866,-0.0766367
0.0565374,0.0948864,-0.269202,0.479038,0.0456016,0.327333,-0.211084,-0.0783973,-0.014817
0.0562592,0.104387,-0.264851,0.395055,0.00257519,0.161455,-0.202225,-0.0728958,0.0181143
0.0566288,0.109904,-0.263598,0.15429,0.0726653,-0.00605133,-0.198316,-0.0256622,0.0425442
0.0593292,0.111272,-0.265618,0.0237079,0.165262,-0.180179,-0.184508,-0.0221818,-0.0112441
0.0633354,0.111852,-0.270243,0.0743796,0.168693,-0.245908,-0.134232,0.0245833,-0.0606554
0.067539,0.113874,-0.274534,0.152529,0.216216,-0.159577,-0.081638,0.0688285,-0.0750565
0.0731764,0.11739,-0.277192,0.21743,0.315966,-0.0919805,-0.0707312,0.083795,-0.0770907
0.0803682,0.122295,-0.27914,0.289438,0.367516,-0.064021,-0.0721442,0.0800747,-0.0611485
0.0873403,0.128902,-0.280683,0.386123,0.291196,-0.0354114,-0.0699804,0.0780692,-0.0245429
0.0918444,0.137087,-0.282088,0.435135,0.148203,-0.0304539,-0.0643504,0.0765847,0.0162435
0.0946322,0.14567,-0.283408,0.428619,0.125523,-0.0141054,-0.0503841,0.0889419,0.0334439
0.0975371,0.153878,-0.284055,0.3924,0.169905,0.0323914,-0.0541634,0.113141,0.0463535
0.101822,0.160924,-0.28376,0.304187,0.275911,0.0545528,-0.0645818,0.107771,0.0524017
0.108032,0.165879,-0.283257,0.191435,0.347601,0.047128,-0.078006,0.0955394,0.0569704
0.11515,0.169436,-0.282692,0.172895,0.359519,0.0576941,-0.0807336,0.0899526,0.0400807
0.121686,0.173624,-0.281743,0.24951,0.296891,0.0730115,-0.0924464,0.0894555,0.0334373
0.126452,0.178707,-0.281363,0.222464,0.192751,0.0271267,-0.0875616,0.0706862,0.0570583
0.130724,0.181844,-0.28187,0.0932372,0.237342,-0.0343691,-0.0877818,0.0455898,0.0642317
0.135827,0.182715,-0.282535,0.0219705,0.253765,0.000890094,-0.0692063,0.0478344,0.0464253
0.140343,0.184002,-0.28203,0.121934,0.197684,0.0476686,-0.0680639,0.0296759,0.0104406
0.143284,0.187945,-0.281571,0.257616,0.111191,0.0482744,-0.0646111,-0.00456537,-0.00518548
0.144932,0.193691,-0.281507,0.288851,0.0579642,0.0425863,-0.0714729,-0.0203623,0.0196572
0.146107,0.199239,-0.281359,0.266509,0.0742375,0.0357166,-0.0799327,-0.0339492,0.0407423
0.147233,0.204166,-0.282135,0.232051,0.0253995,-0.0535601,-0.0925373,-0.0443041,0.056023
0.148595,0.207272,-0.285267,0.103305,0.058262,-0.202504,-0.0820443,-0.0672494,0.0614855
0.151271,0.207006,-0.290752,-0.0348484,0.100281,-0.327271,-0.0638898,-0.0759024,0.0540685
0.155055,0.204753,-0.298224,-0.0671922,0.128586,-0.430473,-0.0287265,-0.0790998,0.0196568
0.160127,0.201566,-0.307424,-0.109264,0.212793,-0.506624,0.00743459,-0.0865543,-0.00844204
0.160127,0.201566,-0.307424,-0.109264,0.212793,-0.506624,0.00743459,-0.0865543,-0.00844204
0.167783,0.197155,-0.317561,-0.160653,0.353385,-0.549142,0.0209456,-0.0842251,-0.0239723
0.17795,0.192026,-0.32845,-0.148439,0.455799,-0.606597,0.036507,-0.0909512,-0.029304
0.189989,0.187104,-0.341026,-0.113286,0.502682,-0.700034,0.0424138,-0.0950677,-0.0211404
0.203104,0.18218,-0.355153,-0.110962,0.539965,-0.760009,0.0559764,-0.0893182,0.00899744
0.216008,0.176238,-0.369841,-0.175613,0.492183,-0.767938,0.105501,-0.0782429,0.0455695
0.227556,0.168981,-0.38333,-0.235718,0.436976,-0.689831,0.156111,-0.0690197,0.0481589
0.238003,0.161234,-0.395029,-0.248018,0.422638,-0.615743,0.167778,-0.0569775,0.0178611
0.247988,0.154007,-0.405185,-0.2076,0.427346,-0.534602,0.179906,-0.0528844,-0.00820607
0.258092,0.147896,-0.413921,-0.174552,0.45276,-0.454095,0.18949,-0.0470855,-0.018713
0.267988,0.142392,-0.420866,-0.180368,0.433515,-0.354856,0.210193,-0.0424457,-0.0101601
0.276784,0.137303,-0.425668,-0.180914,0.383242,-0.234004,0.224685,-0.0409535,-0.0102334
0.284219,0.13338,-0.427782,-0.13109,0.324134,-0.0712432,0.230368,-0.0339001,-0.0278165
0.28823,0.131385,-0.425656,-0.136019,0.0958385,0.254202,0.225427,-0.0232738,-0.0265044
0.288441,0.132905,-0.4182,0.0937083,-0.0332639,0.459449,0.185503,-0.0165485,-0.0468366
0.285781,0.140577,-0.410631,0.439818,-0.06842,0.459249,0.0987423,-0.0701364,-0.101521
0.284426,0.153767,-0.405707,0.649336,-0.0125369,0.384055,0.0254085,-0.0691736,-0.0697819
0.284292,0.167813,-0.402677,0.574338,0.0575802,0.299089,0.0234348,-0.0752979,0.0351829
0.286126,0.177977,-0.400098,0.323503,0.1642,0.240229,0.0267858,-0.0674983,0.116539
0.289248,0.183366,-0.396592,0.119422,0.194594,0.255072,0.035468,-0.0514088,0.138161
0.291574,0.186387,-0.391932,0.0651383,0.115168,0.261002,0.031865,-0.051125,0.102993
0.291977,0.189497,-0.38759,0.122269,0.00611874,0.23809,0.00786436,-0.0573319,0.0517852
0.290573,0.193684,-0.384371,0.17766,-0.0683474,0.184586,0.000303805,-0.0541215,0.0270641
0.289498,0.197937,-0.382592,0.166353,0.0124866,0.106244,-0.00917548,-0.053277,0.00452417
0.290455,0.200995,-0.381665,0.0986578,0.0931957,0.0749234,-0.00301963,-0.0349291,0.00983977
0.292288,0.202971,-0.380686,0.0757301,0.104739,0.0768242,0.0268994,-0.0276523,0.00973773
0.294124,0.205276,-0.379595,0.115088,0.0959393,0.0929542,0.034178,-0.0153397,-0.000415206
0.295428,0.208567,-0.378392,0.147483,0.0640455,0.105804,0.0400042,-0.0109589,0.00560123
0.296316,0.212086,-0.377112,0.12213,0.0660598,0.103698,0.0373127,-0.015086,0.014823
0.297728,0.2147,-0.375984,0.0749081,0.0806806,0.0756429,0.0294107,-0.0210309,0.019795
0.299453,0.216072,-0.375309,0.0379422,0.0824126,0.0361591,0.0291075,-0.0253054,0.00888723
0.301715,0.216957,-0.375263,0.0477843,0.106895,0.00974509,0.0259548,-0.0151032,-0.00751239
0.303891,0.218376,-0.375467,0.0839047,0.0600831,0.0208785,0.0328532,-0.00216605,-0.0135503
0.305308,0.220884,-0.375611,0.145769,0.0603269,0.0447369,0.0381832,0.00504214,-0.0254114
0.306843,0.22467,-0.375585,0.19102,0.0770849,0.0701806,0.0269827,0.0211854,-0.017871
0.308689,0.22882,-0.375313,0.183174,0.0942981,0.0762883,0.0122145,0.0190798,0.00721473
0.310423,0.232322,-0.375199,0.164965,0.053802,0.0444011,0.00407586,0.00921388,0.0232875
0.311381,0.235494,-0.375977,0.18634,0.0105645,-0.00706969,-0.00330085,0.00210746,0.0105223
0.312633,0.238644,-0.37802,0.213657,0.0559748,-0.0657142,-0.0159968,0.00616057,-0.00636333
0.314727,0.241861,-0.380837,0.209586,0.0718366,-0.0769337,-0.00876805,0.0203783,0.00888276
0.316882,0.244823,-0.383593,0.1685,0.070421,-0.0887534,-0.00620103,0.0175769,0.032747
0.318898,0.246467,-0.386665,0.0939657,0.0560785,-0.144385,-0.0167072,0.00763547,0.0480373
0.320292,0.246504,-0.390123,0.0235723,0.00214688,-0.172194,-0.0113505,0.00631334,0.0581936
0.320628,0.245348,-0.393765,-0.00918872,-0.0487784,-0.198762,-0.00883397,0.0109755,0.0498435
0.320339,0.244079,-0.397704,0.0233762,-0.0640637,-0.199471,-0.00111154,0.0155585,0.0172797
0.320379,0.24378,-0.40172,0.0690306,-0.0328327,-0.181386,0.00384888,0.023553,0.00181812
0.320802,0.24411,-0.405618,0.0721997,-0.0121576,-0.167534,0.0166681,0.0124902,0.00803703
0.321804,0.244302,-0.409184,0.0549459,0.0162345,-0.154336,0.0120824,0.00942649,0.0184432
0.322974,0.244261,-0.412573,0.0492705,0.0146052,-0.162863,0.00628787,0.0033143,0.0240285
0.323774,0.243923,-0.416138,0.0341797,-0.0256317,-0.180208,0.00946236,-0.00452168,0.0349678
0.323722,0.243105,-0.419949,0.0133229,-0.0686072,-0.191902,0.015673,-0.0122736,0.0286248
0.323722,0.243105,-0.419949,0.0133229,-0.0686072,-0.191902,0.015673,-0.0122736,0.0286248
0.323341,0.241918,-0.423791,-0.00273701,-0.0757446,-0.198015,0.0193821,-0.0102819,0.0149899
0.323002,0.240756,-0.427782,0.0239396,-0.0462248,-0.204855,0.0231156,-0.00715297,-0.0161059
0.324173,0.240531,-0.431952,0.0668377,0.037548,-0.183834,0.0215014,0.00459152,-0.0377943
0.325663,0.240784,-0.435715,0.0492454,-0.0232204,-0.160394,0.0228495,0.00651512,-0.00575119
0.32565,0.240736,-0.439279,0.0611064,-0.0332065,-0.172276,0.0280764,-0.0145883,-0.0228415
0.327295,0.241434,-0.443305,0.121069,0.0979,-0.171114,-0.00220636,0.0152334,-0.0556158
0.330922,0.242502,-0.44717,0.0963766,0.153211,-0.149238,0.00191382,0.0186811,-0.0112807
0.334695,0.24268,-0.450486,0.0378958,0.135388,-0.148756,0.00473756,0.00489247,0.0414373
0.337756,0.241941,-0.453688,-0.00850319,0.0824661,-0.166042,-0.00706837,0.0063266,0.0661978
0.339071,0.239953,-0.456596,-0.0879936,-0.0235905,-0.164766,-0.00220418,0.00598298,0.0881179
0.338152,0.236557,-0.458973,-0.138476,-0.0977888,-0.161081,0.0150034,0.00207268,0.0633982
0.337302,0.233418,-0.460818,-0.093568,-0.0295921,-0.104099,0.0161215,0.0234035,0.00137353
0.336873,0.231605,-0.461654,-0.0601214,-0.043563,-0.037175,0.0252268,0.0314814,-0.00526601
0.336016,0.230543,-0.461497,-0.0507806,-0.0384295,0.0169932,0.0353639,0.0187289,-0.00862151
0.33509,0.229852,-0.460283,-0.0690086,-0.0536438,0.0728768,0.0233773,0.0278672,0.000934124
0.333053,0.229003,-0.458224,-0.0747535,-0.0844252,0.0818293,0.01858,0.00604372,-0.0170473
0.331636,0.228237,-0.456123,-0.0553178,-0.0109481,0.0989681,0.00591239,0.00613731,-0.047927
0.331243,0.227943,-0.453251,-0.0633339,0.00763191,0.159039,-0.000247538,0.0202098,-0.0310771
0.330126,0.227551,-0.449499,-0.0643005,-0.0472891,0.173679,-0.0105844,0.000785068,-0.0170292
0.328434,0.227846,-0.446117,-0.00493408,-0.0725885,0.163728,-0.0354165,-0.00527559,-0.0358769
0.32451,0.229419,-0.442819,0.0599238,-0.262508,0.206628,-0.0217028,0.00274096,-0.0121769
0.316707,0.232835,-0.438808,0.155299,-0.39682,0.27906,0.00940415,0.00289319,-0.0118228
0.307527,0.237984,-0.434096,0.187027,-0.392783,0.302972,-0.0123105,0.00985263,-0.0154887
0.300198,0.242868,-0.429704,0.140597,-0.223571,0.240826,-0.0449808,-0.0125948,-0.021381
0.296559,0.245747,-0.426557,0.0343581,-0.0623881,0.13457,-0.0645184,-0.0204218,0.00955486
0.296538,0.245364,-0.424754,-0.121356,0.0892201,0.0247769,-0.0683403,-0.0328932,0.0329958
0.298526,0.242041,-0.423923,-0.203399,0.0958376,-0.029695,-0.0514073,-0.0260314,0.0353788
0.299063,0.238167,-0.423142,-0.176261,-0.0232155,-0.00572573,-0.00360855,-0.0208683,0.0246616
0.297662,0.235809,-0.421894,-0.0858648,-0.0769811,0.0607561,0.0188011,-0.0012029,-0.00413316
0.295448,0.235239,-0.419701,-0.0431491,-0.0997483,0.116498,0.0185171,0.00610101,-0.00531465
0.292826,0.235246,-0.417293,-0.0398825,-0.0705171,0.0908924,0.0159227,-0.0198927,-0.0148767
0.291991,0.234777,-0.415511,-0.071157,0.0195318,0.0668884,0.0081234,-0.0126435,-0.0262416
0.292093,0.233496,-0.413424,-0.105352,0.0245071,0.095296,0.03428,-0.00867091,-0.0142056
0.291919,0.232373,-0.410621,-0.0610576,0.0169784,0.140454,0.0521132,-0.00495699,-0.0334094
0.291641,0.23335,-0.40719,0.0513692,0.0146651,0.208375,0.0467917,0.0130531,-0.0544368
0.290724,0.23633,-0.403078,0.101225,-0.00788843,0.249623,0.0456167,0.00365251,-0.0343221
0.289422,0.239497,-0.398611,0.0700594,-0.0194838,0.255984,0.0328214,-0.00343256,-0.0052563
0.288312,0.241865,-0.394043,0.0343968,0.0127712,0.244633,0.0220681,-0.00731234,-0.00352186
0.288274,0.243666,-0.389534,0.0194675,0.0858902,0.234075,0.0124148,-0.00101715,-0.0152485
0.289253,0.245166,-0.384913,0.00843591,0.104879,0.247657,0.0135911,0.00480197,-0.00878686
0.290008,0.246984,-0.380019,0.0366206,0.0756913,0.260364,0.0125737,0.000828326,-0.010046
0.289982,0.249528,-0.375157,0.0751357,0.0304921,0.272955,0.00252247,0.00468312,-0.00918835
0.289009,0.253021,-0.370256,0.119647,-0.00855147,0.293591,-0.0086551,0.0120791,0.00707895
0.287018,0.257014,-0.365159,0.115086,-0.0523976,0.285801,-0.023764,0.0131961,0.0269547
0.284185,0.260164,-0.36046,0.0571739,-0.102514,0.239239,-0.0298056,-0.000436187,0.038321
0.280956,0.2617,-0.356437,-0.0131051,-0.12131,0.177818,-0.0410423,-0.00539148,0.0253827
0.276975,0.262427,-0.35313,0.0166879,-0.211461,0.158241,-0.0367747,0.0016126,0.00622571
0.27092,0.264672,-0.350642,0.134685,-0.310891,0.13107,-0.0313553,0.00515404,-0.0167734
0.26544,0.267565,-0.349503,0.0516513,-0.168798,0.0397564,-0.0406426,-0.000554323,-0.00441766
0.264207,0.266209,-0.349483,-0.152292,0.0236604,-0.061266,-0.052131,-0.033692,-0.000999391
0.264348,0.262724,-0.349158,-0.171241,-0.0316039,0.019052,0.0035904,0.0182267,0.00733632
0.262175,0.260822,-0.347196,-0.0434324,-0.100946,0.0974683,0.0183679,0.00108507,-0.0227548
0.258692,0.262027,-0.345326,0.101525,-0.162465,0.0964862,-0.000456333,0.00934452,-0.0332672
0.254314,0.265388,-0.34409,0.141537,-0.207934,0.077409,0.00856863,0.000275403,-0.00994062
0.249607,0.267986,-0.343612,0.0988987,-0.248434,0.0332639,0.0193776,-0.0109973,0.0112804
0.244704,0.269041,-0.343857,0.0169622,-0.284263,-0.0200546,0.0269597,-0.0141159,0.0256698
0.238972,0.268258,-0.344489,-0.0518112,-0.309164,-0.0407571,0.0323367,-0.00353274,0.0331153
0.232713,0.266892,-0.345526,-0.00663331,-0.379971,-0.109652,0.038869,0.0102559,0.0360518
0.221914,0.267737,-0.348044,0.141261,-0.80514,-0.0659399,0.0799348,0.023156,0.0178109
0.202892,0.27226,-0.348229,0.306248,-1.06082,0.147999,0.157055,0.0260196,0.0180399
0.180393,0.280578,-0.344697,0.439943,-1.06564,0.33209,0.135064,0.0732672,0.0080322
0.158619,0.291334,-0.337969,0.506068,-0.912071,0.49165,0.117012,0.086776,-0.0100806
0.139038,0.303124,-0.327493,0.503109,-0.744271,0.682963,0.111854,0.0803488,-0.00733161
0.120979,0.314425,-0.312494,0.431526,-0.62745,0.885816,0.10795,0.074818,0.00580668
0.102905,0.324183,-0.292891,0.339352,-0.561232,1.07351,0.096856,0.0650101,0.00757861
0.0847996,0.332278,-0.26954,0.265349,-0.511752,1.20238,0.0942513,0.0497234,0.021571
0.0660074,0.338687,-0.243607,0.193599,-0.519849,1.2947,0.0861336,0.0528609,0.0465301
0.0458711,0.343301,-0.215421,0.120856,-0.545,1.39415,0.0825989,0.059315,0.0740809
0.0235459,0.346155,-0.185355,0.102777,-0.767178,1.41829,0.0471125,0.061482,0.0824522
-0.00162287,0.34978,-0.155782,0.227979,-0.673669,1.38104,-0.0623792,-0.00879502,0.0194029
-0.0251904,0.353741,-0.127275,0.165178,-0.736061,1.27,-0.173622,-0.0470227,0.0275531
-0.0483035,0.353644,-0.102694,-0.119599,-0.590141,1.0112,-0.115333,-0.0923414,0.136318
-0.0584229,0.346379,-0.0880903,-0.568889,-0.0224412,0.402832,-0.319926,-0.194319,0.0534441
-0.0580446,0.330387,-0.0850732,-0.981717,0.122361,0.0335119,-0.184917,-0.202049,0.106479
-0.0543568,0.309153,-0.086212,-1.1072,0.196273,0.0463858,-0.0607487,-0.105935,0.0768713
-0.0528603,0.288048,-0.0841003,-0.960389,-0.0370783,0.271979,0.0299527,0.0259483,0.0159174
-0.0528603,0.288048,-0.0841003,-0.960389,-0.0370783,0.271979,0.0299527,0.0259483,0.0159174
-0.0606317,0.270887,-0.077615,-0.753034,-0.612467,0.441738,0.0338183,-0.00417244,0.0130023
-0.0804429,0.254515,-0.0690481,-0.913015,-1.10126,0.462083,-0.0128697,-0.0399567,0.125148
-0.107478,0.230006,-0.063273,-1.55442,-1.55282,0.346383,-0.0800171,-0.0610182,0.208785
-0.145515,0.187897,-0.0618728,-2.627,-2.07067,0.332274,-0.04856,-0.024556,0.261171
-0.173712,0.125819,-0.0586858,-3.41214,-0.705783,1.07161,0.344996,-0.101121,0.249808
-0.186635,0.0483961,-0.0491088,-4.05351,-0.545216,1.05286,0.0246306,-0.0363701,0.28756
-0.20471,-0.030683,-0.0524849,-3.48482,-0.967873,-0.0754274,-0.232634,0.0952069,-0.0495849
-0.20463,-0.0812583,-0.075313,-2.014,1.08459,-0.886857,-0.303676,-0.15937,-0.4469
-0.173791,-0.104094,-0.0987205,-0.561493,1.80995,-0.961951,-0.140885,0.124701,-0.208811
-0.152338,-0.0941597,-0.114986,1.27072,0.570649,-0.698485,-0.0561986,0.306721,-0.446334
-0.144684,-0.0517461,-0.120075,2.78031,0.445217,-0.558185,0.123158,0.264531,-0.410958
-0.132011,0.0157466,-0.125556,3.76514,0.777096,-0.941025,0.00677966,0.00767411,-0.18726
-0.112967,0.0979003,-0.136881,4.11615,1.19076,-1.12909,-0.00167441,0.0904351,-0.0394674
-0.0763192,0.162471,-0.148007,1.70873,2.03929,-0.502427,-0.0177918,0.0788566,0.19633
-0.0513495,0.168274,-0.154687,-0.79924,0.211344,-0.281178,-0.0372277,-0.0771177,0.456927
-0.0582514,0.145668,-0.158493,-1.27678,-0.499116,0.0107598,0.2258,-0.0545836,0.0868673
-0.0572905,0.123992,-0.157991,-0.793097,0.687353,0.1842,0.0972859,-0.118773,0.0518826
-0.0342173,0.114657,-0.151919,-0.165814,1.74325,0.429915,0.0155382,-0.0621993,0.0314878
-0.0070621,0.111419,-0.143448,-0.290231,0.66111,0.474133,-0.112153,-0.00514442,-0.022064
0.00100525,0.10647,-0.136991,-0.26227,0.437334,0.105212,0.000480551,0.0592725,-0.226046
0.00845888,0.100947,-0.137004,-0.222985,0.0519638,-0.0483985,-0.0121999,-0.0479207,0.0393529
-0.00883814,0.0990997,-0.139098,0.00552036,-0.704759,-0.183782,0.122702,-0.0101322,-0.306642
-0.0231137,0.101567,-0.142456,0.26533,-0.854234,-0.0972389,0.0385107,-0.143649,-0.0527977
-0.0377729,0.108363,-0.142579,0.385602,-0.598204,0.0224898,0.0666562,-0.0789975,-0.0328808
-0.0475155,0.11649,-0.142157,0.414778,-0.395699,-0.0194387,0.00780802,-0.0844107,0.0213528
-0.0543847,0.123938,-0.142319,0.315077,-0.316408,-0.0301857,0.00621144,-0.0849516,0.0341821
-0.0608176,0.128985,-0.142122,0.193891,-0.347039,0.0517714,0.0071441,-0.103443,0.00871938
-0.0690533,0.132127,-0.139689,0.164001,-0.440754,0.143988,0.0278392,-0.105699,-0.041886
-0.0787954,0.136076,-0.13684,0.265044,-0.500749,0.0910323,0.009932,-0.0833219,-0.0926252
-0.0894746,0.14227,-0.135455,0.362145,-0.551847,-0.0054446,0.000104122,-0.05108,-0.0863745
-0.100811,0.149891,-0.135691,0.381844,-0.587255,-0.0849812,-0.0186832,-0.0426553,-0.0445989
-0.112064,0.157348,-0.137098,0.336107,-0.548278,-0.125682,-0.011287,-0.0439994,0.00563645
-0.122042,0.163938,-0.13925,0.297258,-0.488459,-0.162434,-0.00319921,-0.0437654,0.0212157
-0.130259,0.169993,-0.142124,0.273343,-0.370492,-0.202463,0.0028504,-0.0285018,0.0332208
-0.135559,0.176069,-0.14599,0.282514,-0.224221,-0.25857,0.0038282,-0.0225627,0.0413188
-0.137615,0.182689,-0.150972,0.307237,-0.0776292,-0.316312,0.00355035,-0.0185815,0.0442219
-0.136842,0.189665,-0.15693,0.302063,0.0411996,-0.357431,0.0245638,-0.0165934,0.0573747
-0.134047,0.196331,-0.163369,0.269751,0.115069,-0.353211,0.04389,-0.0215717,0.0753533
-0.129704,0.201706,-0.169564,0.17553,0.1961,-0.312904,0.05726,-0.0263434,0.0977327
-0.124763,0.204696,-0.174743,0.058379,0.177806,-0.225215,0.072312,-0.0453264,0.084412
-0.121135,0.204915,-0.178319,-0.0838973,0.109905,-0.13062,0.0775852,-0.048408,0.0715436
-0.119378,0.202188,-0.180536,-0.207259,0.018151,-0.0560636,0.0817867,-0.0446698,0.0414441
-0.119471,0.197464,-0.181598,-0.264169,-0.035796,0.0077944,0.083103,-0.034224,0.0131589
-0.1204,0.192421,-0.181534,-0.230562,-0.0592793,0.0549807,0.0726809,-0.0189697,-0.0184814
-0.122264,0.188258,-0.180844,-0.179431,-0.12157,0.0550183,0.0506826,-0.00633371,-0.034538
-0.125797,0.184793,-0.180418,-0.164714,-0.225637,0.0263769,0.0306171,0.00928971,-0.0249306
-0.130939,0.181802,-0.180601,-0.134338,-0.293344,0.00580336,0.0353809,0.0214695,-0.0116398
-0.136949,0.179605,-0.180509,-0.0965025,-0.326914,0.0439957,0.0404222,0.0142124,-0.00854373
-0.143421,0.177451,-0.179577,-0.124971,-0.312182,0.079259,0.0213615,0.0141529,0.01188
-0.149362,0.173882,-0.178372,-0.214629,-0.25853,0.0935635,0.0104241,0.0234105,0.0252394
-0.153958,0.168629,-0.177268,-0.287474,-0.18006,0.0860583,0.00199038,0.025177,0.00796878
-0.156594,0.162623,-0.177096,-0.295467,-0.0750899,0.0186647,-0.00860849,0.0421407,-0.0258482
-0.157743,0.156711,-0.178227,-0.320114,-0.0470121,-0.0313512,-0.0168174,0.052585,-0.0502896
-0.157704,0.150551,-0.180231,-0.302136,0.011713,-0.0734957,-0.013549,0.055897,-0.0675563
-0.157704,0.150551,-0.180231,-0.302136,0.011713,-0.0734957,-0.013549,0.055897,-0.0675563
-0.157181,0.14623,-0.183032,-0.15799,-0.0103042,-0.135787,-0.00692455,0.0757017,-0.0871385
-0.157426,0.145442,-0.186531,0.0193395,-0.0641548,-0.197057,0.00926277,0.09717,-0.0690276
-0.159217,0.147755,-0.190506,0.126545,-0.19699,-0.216461,0.0273013,0.0977791,-0.0162195
-0.164411,0.150704,-0.194253,0.0898969,-0.375043,-0.194017,0.0317962,0.100543,0.0643837
-0.172711,0.152139,-0.197544,-0.00552461,-0.49363,-0.146448,0.0375897,0.0845053,0.126011
-0.18227,0.151032,-0.199838,-0.147352,-0.477556,-0.0558542,0.0207823,0.0708688,0.171977
-0.190642,0.146925,-0.200993,-0.270213,-0.361423,0.0115383,-0.00856674,0.0596812,0.174322
-0.19589,0.140918,-0.201896,-0.331155,-0.159406,0.00483004,-0.0409785,0.0670578,0.149115
-0.196546,0.134304,-0.203708,-0.353231,0.0569184,-0.0584628,-0.0825685,0.0755052,0.113852
-0.193103,0.127955,-0.207276,-0.337232,0.225615,-0.17539,-0.0981157,0.0976384,0.0746323
-0.187261,0.122438,-0.213155,-0.323138,0.277691,-0.287319,-0.10354,0.10315,0.0352364
-0.180481,0.117212,-0.220567,-0.329211,0.31426,-0.323781,-0.0975928,0.0955205,0.00828803
-0.172981,0.111909,-0.2279,-0.32091,0.355441,-0.293324,-0.0862507,0.0710567,-0.0209333
-0.164813,0.106495,-0.234267,-0.330506,0.394091,-0.244367,-0.102014,0.0497296,-0.0415698
-0.155832,0.100185,-0.239974,-0.39264,0.443126,-0.221918,-0.12234,0.0443233,-0.0438348
-0.14661,0.0924088,-0.245464,-0.460312,0.420328,-0.1995,-0.126572,0.0378035,-0.0682325
-0.137821,0.0832655,-0.250403,-0.519299,0.429774,-0.164609,-0.12867,0.0300993,-0.0800222
-0.1285,0.0733943,-0.255117,-0.507683,0.449166,-0.181181,-0.148413,0.0210824,-0.125081
-0.119195,0.0645627,-0.260263,-0.426654,0.463085,-0.220382,-0.144518,0.0280495,-0.169458
-0.110017,0.0582668,-0.265998,-0.25045,0.387939,-0.287201,-0.148326,0.0222232,-0.216793
-0.104123,0.0559619,-0.272668,-0.0649357,0.170054,-0.345154,-0.110415,0.0296724,-0.232055
-0.101968,0.0563826,-0.279525,0.0302598,0.0222453,-0.333471,-0.0978484,0.00216889,-0.179138
-0.102333,0.0585137,-0.285676,0.121779,-0.103975,-0.295175,-0.0862981,-0.0227116,-0.126654
-0.10562,0.062019,-0.290585,0.163041,-0.239123,-0.22805,-0.066807,-0.034502,-0.0783309
-0.110677,0.0654333,-0.29419,0.135946,-0.266351,-0.16561,-0.0656424,-0.0517245,-0.0141963
-0.115671,0.0680505,-0.296249,0.104112,-0.236656,-0.0595748,-0.0514497,-0.0778149,0.00937486
-0.119983,0.070125,-0.296153,0.114635,-0.209691,0.0357425,-0.0555869,-0.087159,-0.00511277
-0.125028,0.0726453,-0.294792,0.156654,-0.291964,0.057634,-0.0603954,-0.0682266,-0.0364237
-0.131537,0.0762317,-0.293007,0.228785,-0.340079,0.0811553,-0.0656801,-0.0679918,-0.0568973
-0.138985,0.0814667,-0.289933,0.330423,-0.381792,0.152426,-0.0385119,-0.0780624,-0.074283
-0.14716,0.0883982,-0.285357,0.421041,-0.396324,0.197832,-0.0406039,-0.0730632,-0.0768046
-0.155758,0.09656,-0.279676,0.467864,-0.418093,0.236392,-0.0398989,-0.0710094,-0.0639946
-0.164928,0.105283,-0.273137,0.502806,-0.409326,0.262598,-0.0270205,-0.0638108,-0.0476115
-0.172875,0.115125,-0.266125,0.608534,-0.311944,0.2556,-0.0490483,-0.0556617,-0.0540498
-0.179482,0.128317,-0.259001,0.82278,-0.280155,0.204192,-0.0433304,-0.0289101,-0.0680525
-0.186693,0.145702,-0.252356,0.99283,-0.367264,0.127904,-0.020855,0.0116271,-0.0346088
-0.196046,0.164897,-0.246466,0.968122,-0.453651,0.0989446,0.0329405,0.0346187,0.0699717
-0.204914,0.180614,-0.240005,0.670574,-0.265521,0.243745,0.0797663,0.00241803,0.203738
-0.207374,0.188361,-0.230297,0.29066,0.215867,0.55215,0.0996486,-0.0422277,0.257775
-0.201448,0.188231,-0.215502,0.0179034,0.616018,0.86545,0.0928245,-0.0448884,0.187036
-0.191806,0.183863,-0.196914,-0.0603952,0.619575,0.978036,0.0495554,0.0151803,0.0520754
-0.187023,0.179637,-0.178692,-0.00854739,0.131652,0.83416,0.0248006,0.11042,-0.0323638
-0.193376,0.177316,-0.164778,0.025833,-0.510537,0.542228,0.0137605,0.163601,-0.0246114
-0.209359,0.176026,-0.156777,-0.00118516,-0.886562,0.281088,-0.00407304,0.14901,0.0524352
-0.227951,0.174751,-0.152888,-0.0363373,-0.84579,0.121893,-0.0195248,0.106007,0.13851
-0.241695,0.173707,-0.152465,-0.0537641,-0.508675,-0.0713274,-0.0453811,0.0933826,0.181084
-0.247369,0.173838,-0.156617,-0.0230734,-0.138336,-0.337037,-0.0545975,0.0946403,0.149146
-0.245244,0.176497,-0.165852,0.0627721,0.18502,-0.606755,-0.0494464,0.0914607,0.089636
-0.236384,0.18196,-0.179067,0.153862,0.44762,-0.769252,-0.00995761,0.067448,0.0197244
-0.222184,0.188569,-0.194078,0.128598,0.727386,-0.794798,0.0339129,0.0249168,-0.0425893
-0.200827,0.193256,-0.208138,0.0547675,1.15434,-0.627552,0.0945396,-0.0246503,-0.1206
-0.172808,0.196592,-0.217415,0.131738,1.41117,-0.319603,0.150067,-0.0368345,-0.253947
-0.145748,0.201044,-0.220024,0.258648,1.18114,-0.0190075,0.18108,-0.00596562,-0.348142
-0.128115,0.206719,-0.217451,0.337129,0.604073,0.176254,0.179808,0.0560957,-0.333343
-0.128115,0.206719,-0.217451,0.337129,0.604073,0.176254,0.179808,0.0560957,-0.333343
-0.123578,0.213575,-0.21157,0.416337,-0.00340226,0.312058,0.156978,0.094905,-0.249671
-0.129418,0.221377,-0.202579,0.463164,-0.321118,0.470783,0.137444,0.0986013,-0.103836
-0.138438,0.229355,-0.189794,0.487032,-0.264826,0.673546,0.121855,0.086297,0.0468788
-0.145449,0.23593,-0.172701,0.380503,0.00483952,0.87409,0.0710059,0.0813734,0.163706
-0.146482,0.239003,-0.152632,0.208158,0.365407,1.01796,0.0299168,0.0790959,0.224292
-0.141336,0.238648,-0.130337,0.0827946,0.666505,1.13017,0.00131479,0.0935519,0.202051
-0.132105,0.236773,-0.1063,0.061094,0.784884,1.2155,-0.00353098,0.109812,0.118888
-0.122849,0.234933,-0.0809108,0.0817355,0.741349,1.25116,-0.0218172,0.126791,0.0321102
-0.114307,0.234327,-0.0552149,0.160204,0.717187,1.25096,-0.0299129,0.144634,-0.00988829
-0.106404,0.23513,-0.0288452,0.181252,0.688513,1.31023,-0.0274259,0.143507,-0.0312611
-0.0993883,0.23528,-0.000819818,0.103172,0.667726,1.41115,-0.0109461,0.124565,-0.0372175
-0.0932096,0.233594,0.0292565,0.0104921,0.645869,1.52458,-0.00358459,0.122833,-0.0465648
-0.0885779,0.230283,0.0612433,-0.0551872,0.538108,1.61318,-0.00313704,0.118604,-0.064517
-0.0872286,0.225523,0.0945275,-0.132128,0.345445,1.65689,-0.00245988,0.118086,-0.0708528
-0.0898379,0.219522,0.12779,-0.174985,0.136241,1.633,-0.0088715,0.112935,-0.0625107
-0.0955296,0.212931,0.160346,-0.183259,0.0109247,1.60834,-0.00328163,0.0860512,-0.0374626
-0.102327,0.20667,0.192356,-0.119388,-0.0215235,1.57242,-0.0125132,0.0580461,-0.0173818
-0.109794,0.202004,0.223244,-0.0241732,-0.11146,1.48276,-0.030899,0.0453753,0.0113499
-0.119062,0.198987,0.251916,0.0355666,-0.243549,1.35162,-0.0367455,0.0368187,0.0620573
-0.129721,0.196783,0.277988,0.0576377,-0.287474,1.22021,-0.0431978,0.0144704,0.118518
-0.138774,0.194859,0.301519,0.0628953,-0.131162,1.10048,-0.0640107,-0.0176149,0.158899
-0.142913,0.193409,0.32254,0.0917924,0.129879,0.962728,-0.0905597,-0.0435127,0.158484
-0.140996,0.193009,0.340558,0.121213,0.404682,0.800837,-0.100682,-0.0500082,0.145154
-0.133649,0.193087,0.355756,0.0827113,0.620422,0.693917,-0.0795061,-0.0631464,0.12687
-0.122137,0.192076,0.369614,-0.00124724,0.790747,0.688844,-0.0329648,-0.0826016,0.0857174
-0.108627,0.189638,0.384456,-0.0764644,0.825619,0.808081,0.0199979,-0.0943789,0.0197869
-0.0963629,0.185066,0.40234,-0.203649,0.716958,0.994678,0.0465057,-0.0976348,-0.0441733
-0.0878916,0.17739,0.423395,-0.371371,0.502614,1.13247,0.0385953,-0.0792002,-0.097571
-0.0839412,0.166589,0.445873,-0.484273,0.311482,1.15147,0.00292429,-0.0398688,-0.147535
-0.0840228,0.155088,0.467652,-0.479966,0.0281023,1.07796,-0.0536646,-0.01988,-0.188461
-0.0876647,0.144796,0.486533,-0.350055,-0.11229,0.855024,-0.101276,0.0136145,-0.197736
-0.0932257,0.139331,0.500477,-0.0690961,-0.239898,0.57616,-0.135167,0.00831091,-0.17929
-0.0995301,0.139269,0.509552,0.136465,-0.2406,0.325912,-0.131607,-0.0243126,-0.106579
-0.104351,0.143105,0.514392,0.277917,-0.182946,0.126149,-0.124763,-0.0534886,-0.0133478
-0.107514,0.148486,0.516138,0.255814,-0.10799,-0.00367373,-0.115828,-0.0772329,0.0830781
-0.108601,0.152852,0.515438,0.176753,-0.00801922,-0.108886,-0.101402,-0.101877,0.131017
-0.107064,0.156166,0.512891,0.13058,0.122128,-0.176011,-0.0901654,-0.107438,0.141003
-0.103172,0.159103,0.508987,0.129093,0.20594,-0.240809,-0.076122,-0.115874,0.103213
-0.0969436,0.162318,0.504037,0.142177,0.345822,-0.266914,-0.0505986,-0.118393,0.0671369
-0.0883793,0.165783,0.499178,0.162854,0.403152,-0.241119,-0.0293551,-0.126327,0.0135985
-0.0806577,0.169737,0.495365,0.192458,0.298895,-0.158636,0.0206509,-0.11959,-0.0569886
-0.0752281,0.173524,0.493983,0.174644,0.226656,-0.00431545,0.0462728,-0.124694,-0.093487
-0.0722138,0.177066,0.495614,0.199186,0.0785104,0.128341,0.0362787,-0.117437,-0.132153
-0.0738498,0.181124,0.499135,0.232643,-0.178361,0.176692,0.040746,-0.0760903,-0.15884
-0.0800071,0.186159,0.503124,0.305076,-0.339516,0.173473,0.0225564,-0.0513341,-0.14095
-0.0879758,0.192922,0.507092,0.398598,-0.36934,0.1599,0.0114491,-0.0397943,-0.0874414
-0.0962805,0.201434,0.511055,0.477592,-0.382796,0.148494,0.0212816,-0.0313553,-0.0368115
-0.104608,0.210955,0.514914,0.495911,-0.379778,0.134049,0.0208192,-0.023242,0.0259072
-0.11283,0.219906,0.51855,0.421527,-0.356257,0.12353,0.018815,-0.0234848,0.096101
-0.120004,0.226736,0.521738,0.295148,-0.281034,0.109977,0.0224442,-0.0262245,0.137671
-0.124972,0.231108,0.524545,0.1818,-0.149979,0.107352,0.0194963,-0.0323112,0.148637
-0.127449,0.233756,0.526996,0.119527,-0.0423838,0.0919069,0.0149286,-0.0285594,0.118035
-0.127517,0.235625,0.528733,0.0850923,0.0714496,0.0555439,0.0121156,-0.0122918,0.08955
-0.127517,0.235625,0.528733,0.0850923,0.0714496,0.0555439,0.0121156,-0.0122918,0.08955
-0.125604,0.236809,0.529645,0.0394159,0.136939,0.0181634,0.00492638,0.00176795,0.0692919
-0.122713,0.237105,0.529863,-0.00432965,0.145385,0.00993803,0.0173262,0.00756377,0.0467288
-0.120183,0.236553,0.530156,-0.0473615,0.112521,0.0231752,0.0209894,0.00803439,0.0298823
-0.118854,0.235209,0.530351,-0.0830424,0.0103409,0.00397641,0.00820846,0.0134116,0.016432
-0.119921,0.233524,0.529888,-0.080523,-0.117046,-0.0240114,0.0118026,0.0169145,0.00650418
-0.122488,0.232387,0.529216,-0.0395989,-0.142022,-0.0229965,0.00937036,0.00303644,0.00896513
-0.125033,0.231826,0.528793,-0.0323888,-0.126571,-0.0122229,0.00607614,-0.00558086,0.0412276
-0.127164,0.230729,0.528196,-0.0851852,-0.102976,-0.0337827,-0.0032177,-0.0109523,0.073626
-0.128438,0.228625,0.527082,-0.130639,-0.0562317,-0.0477326,-0.0100443,-0.0214997,0.0820301
-0.129039,0.225883,0.525781,-0.158898,-0.0493185,-0.0440174,-0.00405858,-0.0320911,0.0745263
-0.129921,0.222502,0.524366,-0.204356,-0.0818569,-0.0541814,-0.00101799,-0.0379811,0.0690874
-0.13152,0.21806,0.522227,-0.269591,-0.11623,-0.0986422,-0.00959907,-0.0403163,0.0630257
-0.132787,0.21263,0.518935,-0.31569,-0.0774601,-0.148322,-0.0163217,-0.0502291,0.0547355
-0.133183,0.206819,0.514416,-0.320382,-0.0611511,-0.217182,-0.0188282,-0.0579879,0.029287
-0.133143,0.201414,0.508425,-0.301106,-0.0621416,-0.292802,-0.0181879,-0.0570862,-0.00418288
-0.133101,0.196607,0.500921,-0.277014,-0.0839436,-0.377229,-0.0220542,-0.0634765,-0.020829
-0.133258,0.192532,0.491776,-0.246156,-0.109802,-0.460175,-0.0220264,-0.0642555,-0.0354797
-0.133829,0.189282,0.481245,-0.219333,-0.14596,-0.518599,-0.0212512,-0.0746482,-0.04625
-0.134932,0.186638,0.469922,-0.193911,-0.169677,-0.548101,-0.00723274,-0.0818842,-0.0442882
-0.136049,0.184867,0.458185,-0.134014,-0.15731,-0.573343,-0.00559723,-0.0866916,-0.0573876
-0.137053,0.184629,0.446238,-0.0551265,-0.166568,-0.584644,0.0010622,-0.0861779,-0.0659472
-0.138414,0.185626,0.434596,-0.0106051,-0.187659,-0.562266,0.0147984,-0.085122,-0.0525797
-0.140405,0.187155,0.423698,0.00377159,-0.205189,-0.516723,0.0292999,-0.091569,-0.0401469
-0.142458,0.188553,0.414047,-0.00227516,-0.178873,-0.440857,0.0379894,-0.0944681,-0.025843
-0.144363,0.189188,0.406197,-0.0479698,-0.165296,-0.337639,0.0381608,-0.095004,-0.024382
-0.146564,0.188966,0.399947,-0.0528657,-0.170235,-0.274234,0.0344468,-0.0796278,-0.0473745
-0.14912,0.188914,0.394759,-0.0232034,-0.189347,-0.234705,0.0244644,-0.063856,-0.0714161
-0.152735,0.189772,0.390379,0.0499829,-0.266663,-0.206755,0.0266837,-0.0435734,-0.0953487
-0.158169,0.19214,0.386676,0.118345,-0.335455,-0.192881,0.0331821,-0.0239599,-0.0877687
-0.164347,0.195422,0.38325,0.15099,-0.357561,-0.198267,0.026766,-0.00712836,-0.0513564
-0.170783,0.199328,0.379749,0.17724,-0.349266,-0.199516,0.0369349,0.0089395,-0.0201288
-0.176574,0.203761,0.376594,0.207287,-0.291687,-0.187155,0.0417597,0.0147013,0.00157624
-0.18113,0.208661,0.37347,0.210142,-0.23028,-0.204471,0.0365247,0.0312012,0.0316101
-0.184286,0.213266,0.369879,0.175845,-0.162086,-0.225345,0.0386509,0.0389389,0.0522571
-0.186161,0.217231,0.36594,0.142566,-0.114584,-0.230544,0.0477112,0.04356,0.0588388
-0.187336,0.220548,0.361813,0.104699,-0.094659,-0.226255,0.0580429,0.0428456,0.0561786
-0.188037,0.222972,0.357833,0.0621159,-0.0629043,-0.199234,0.0677403,0.0362539,0.0588535
-0.188647,0.224546,0.354417,0.0351695,-0.0845006,-0.162199,0.0733709,0.0311356,0.0509528
-0.189885,0.225603,0.35144,0.0137481,-0.0999987,-0.144554,0.0790284,0.0327004,0.0438716
-0.190947,0.226203,0.348797,-0.00524446,-0.0632462,-0.118407,0.0704062,0.0266474,0.0512037
-0.191587,0.226174,0.346801,-0.0336034,-0.0648908,-0.0650382,0.0807242,0.0217513,0.0535636
-0.192851,0.225151,0.346041,-0.0778166,-0.0829793,0.0126913,0.0917578,0.0194423,0.055033
-0.194774,0.223125,0.346457,-0.111753,-0.106124,0.0598201,0.072902,0.022456,0.0571433
-0.196725,0.220386,0.347288,-0.142046,-0.068412,0.0700685,0.0503043,0.0322048,0.0638643
-0.197498,0.2174,0.348055,-0.12931,0.00153349,0.0607597,0.0296569,0.03193,0.0563414
-0.197203,0.215132,0.348678,-0.0724968,0.0193577,0.0455437,0.0203754,0.0423343,0.0376489
-0.197328,0.214184,0.349286,-0.0141016,-0.0353841,0.0332447,0.0211291,0.0524855,0.0410581
-0.198875,0.213911,0.349963,-0.00895969,-0.0983588,0.0424433,0.0164127,0.055896,0.0753938
-0.20106,0.213046,0.3511,-0.0645702,-0.0774351,0.0806908,-0.00164543,0.0434845,0.116485
-0.20153,0.210413,0.352509,-0.17292,0.0776368,0.108416,-0.0480053,0.0272535,0.144646
-0.198357,0.205052,0.353946,-0.33654,0.264655,0.139716,-0.0792095,0.0108689,0.137374
-0.19172,0.195851,0.355695,-0.531174,0.43241,0.217655,-0.087082,-0.00858435,0.103002
-0.182085,0.183001,0.35871,-0.670366,0.585473,0.317806,-0.0958536,-0.0237223,0.0216269
-0.17029,0.167961,0.363373,-0.711693,0.66497,0.383262,-0.135483,-0.028537,-0.0951665
-0.17029,0.167961,0.363373,-0.711693,0.66497,0.383262,-0.135483,-0.028537,-0.0951665
-0.158794,0.154094,0.36817,-0.545236,0.52415,0.289923,-0.183361,0.00223985,-0.256856
-0.151879,0.145744,0.370874,-0.232676,0.209907,0.102178,-0.19653,0.0417741,-0.379642
-0.151251,0.144454,0.371117,0.093496,-0.126754,-0.0530083,-0.193851,0.0376443,-0.380874
-0.155935,0.148719,0.369654,0.281257,-0.353807,-0.144651,-0.157461,0.022592,-0.277478
-0.164128,0.155567,0.36736,0.341434,-0.481247,-0.183485,-0.127277,0.00546543,-0.143868
-0.173496,0.162985,0.364799,0.342972,-0.484411,-0.186985,-0.102198,-0.00208849,-0.026632
-0.18206,0.170178,0.362529,0.319806,-0.404084,-0.157208,-0.0875357,-0.012679,0.0548832
-0.188552,0.176312,0.360813,0.250326,-0.270646,-0.118993,-0.0752037,-0.0162352,0.111168
-0.191944,0.180634,0.359627,0.158263,-0.0901311,-0.0803468,-0.0743293,-0.0153083,0.13348
-0.192244,0.183286,0.358891,0.0934374,0.0271247,-0.0451834,-0.0767406,-0.0110981,0.112308
-0.191489,0.184754,0.358437,0.0437108,0.0258632,-0.0325,-0.0732326,0.0101209,0.0718412
-0.191571,0.185621,0.357673,0.0364942,-0.0575709,-0.0573293,-0.0781737,0.0283073,0.0249467
-0.193504,0.18674,0.356357,0.0430264,-0.157626,-0.0935267,-0.0786377,0.0403469,-0.000873327
-0.19714,0.187828,0.354138,0.0202515,-0.237294,-0.147612,-0.0850145,0.0478397,0.002675
-0.201733,0.188668,0.35066,-0.00605006,-0.267331,-0.208834,-0.0904803,0.0538994,0.00914943
-0.206615,0.189536,0.34565,-0.00387976,-0.302854,-0.298061,-0.100315,0.0603358,0.00446242
-0.211892,0.190637,0.338708,-0.0181044,-0.341882,-0.399254,-0.10246,0.0688329,0.00946897
-0.217023,0.191905,0.32956,-0.0310038,-0.322647,-0.513516,-0.105036,0.0708866,0.0212688
-0.220752,0.193807,0.318119,-0.0196792,-0.271688,-0.632445,-0.101039,0.0725248,0.0153726
-0.223011,0.19676,0.304291,0.00571755,-0.226878,-0.760308,-0.0912207,0.0747956,0.00428569
-0.224149,0.200468,0.288246,0.00589566,-0.202681,-0.858606,-0.0694822,0.0721448,0.00498801
-0.224525,0.204604,0.270405,0.0100609,-0.193125,-0.943523,-0.0440089,0.0661249,-0.00417525
-0.224088,0.209505,0.251127,0.0462046,-0.148347,-1.00636,-0.0192143,0.0615377,-0.0129207
-0.222446,0.215104,0.230976,0.0512947,-0.115037,-1.03853,0.00171018,0.0454961,-0.00585753
-0.220032,0.220115,0.210524,-0.0108802,-0.0850731,-1.01557,0.0374579,0.0334513,0.014173
-0.21739,0.223447,0.190669,-0.082991,-0.0968545,-0.947907,0.0638812,0.0151252,0.0128573
-0.215719,0.225171,0.172123,-0.137471,-0.152682,-0.865396,0.0865301,0.00897844,0.00396746
-0.215676,0.225493,0.154891,-0.192673,-0.232125,-0.789961,0.0882437,0.00628608,0.00265497
-0.217364,0.224195,0.138855,-0.266796,-0.29038,-0.717842,0.0889522,0.00329669,0.0151877
-0.21985,0.221544,0.123753,-0.305442,-0.283029,-0.66935,0.078567,-0.00172976,0.0192318
-0.221971,0.218552,0.109251,-0.294126,-0.250058,-0.653968,0.060741,-0.00216205,0.0175079
-0.223427,0.215704,0.0949618,-0.299171,-0.199443,-0.649721,0.0503311,-0.00105304,0.0285041
-0.223983,0.212715,0.0806986,-0.310442,-0.173062,-0.645685,0.0429603,-0.00820042,0.0416985
-0.224355,0.209294,0.0663965,-0.333768,-0.162541,-0.647496,0.0429246,-0.00855452,0.0442846
-0.224489,0.205593,0.0520002,-0.343136,-0.136041,-0.651125,0.0324191,-0.0117792,0.0395663
-0.223805,0.201869,0.0374361,-0.334965,-0.0879128,-0.663013,0.026105,-0.0153347,0.034743
-0.222193,0.198595,0.0227236,-0.307644,-0.0406858,-0.679103,0.0213962,-0.0165898,0.0176306
-0.21962,0.195857,0.00781061,-0.281981,0.00402485,-0.690273,0.0173439,-0.0253478,0.00704902
-0.216448,0.193378,-0.00722084,-0.282777,0.0166637,-0.700117,0.016316,-0.0311826,-0.00430661
-0.213295,0.190888,-0.0222542,-0.273704,0.0120115,-0.689409,0.0282559,-0.035702,-0.0214012
-0.210333,0.188696,-0.0368768,-0.237879,0.00991657,-0.671375,0.0294206,-0.0410438,-0.041534
-0.207562,0.187351,-0.0508968,-0.178624,0.00334737,-0.653164,0.0263974,-0.0430827,-0.0508857
-0.205352,0.187069,-0.064273,-0.1224,-0.032911,-0.633452,0.0295473,-0.043787,-0.05486
-0.204026,0.187559,-0.077009,-0.0932984,-0.068798,-0.601659,0.0328614,-0.0447854,-0.0349092
-0.203191,0.188016,-0.0887684,-0.0991303,-0.059195,-0.541095,0.036328,-0.0546512,-0.00537735
-0.201949,0.187947,-0.0995299,-0.124365,-0.0120583,-0.497806,0.0193281,-0.0590831,0.0140151
-0.199696,0.187071,-0.109602,-0.157901,0.0350309,-0.457852,0.00327566,-0.0639568,0.0219256
-0.197382,0.185706,-0.119153,-0.156758,0.0116603,-0.434431,-0.00520577,-0.0587829,0.00200754
-0.19567,0.184422,-0.128292,-0.143352,-0.0045071,-0.421437,-0.0121816,-0.0521869,-0.0139115
-0.194221,0.18343,-0.137063,-0.123267,-0.013363,-0.409644,-0.0241328,-0.0530249,-0.0191644
-0.193049,0.182887,-0.145719,-0.0936299,-0.019303,-0.42039,-0.0315014,-0.0474402,-0.0239419
-0.191608,0.183102,-0.154353,-0.044782,0.00336687,-0.418145,-0.0379656,-0.0452903,-0.0330022
-0.189924,0.184256,-0.162709,-0.00542286,0.00255255,-0.416072,-0.0411569,-0.0430421,-0.0332462
-0.188566,0.185903,-0.170977,0.0104163,-0.0194286,-0.411035,-0.0402968,-0.0363264,-0.0293866
-0.188566,0.185903,-0.170977,0.0104163,-0.0194286,-0.411035,-0.0402968,-0.0363264,-0.0293866
-0.187436,0.187743,-0.17899,0.0262995,-0.0183215,-0.394759,-0.0401095,-0.0324894,-0.0291484
-0.186625,0.189984,-0.186738,0.0464145,-0.0429872,-0.398302,-0.0418244,-0.0208124,-0.0340677
-0.186113,0.192262,-0.19454,0.0337181,-0.0529059,-0.399152,-0.0408116,-0.0114198,-0.0238559
-0.185693,0.194382,-0.202321,0.0324466,-0.0557591,-0.392571,-0.0368667,-0.00541773,-0.0208384
-0.18531,0.196539,-0.209961,0.0410449,-0.0551845,-0.383994,-0.0315765,0.00808099,-0.0183883
-0.185183,0.198939,-0.217463,0.0576524,-0.0888215,-0.388127,-0.0313276,0.0170873,-0.0131374
-0.186012,0.201579,-0.225261,0.0559154,-0.142307,-0.411339,-0.0300619,0.0330872,0.00378996
-0.187067,0.203959,-0.233226,0.0332431,-0.114675,-0.396696,-0.0235041,0.0314966,0.0339652
-0.187245,0.205537,-0.240793,-0.0207867,-0.0618859,-0.365704,-0.0235145,0.0292879,0.0641505
-0.186587,0.205678,-0.248239,-0.103994,-0.0209654,-0.35769,-0.0335679,0.0332558,0.0806757
-0.18494,0.204417,-0.25602,-0.151912,0.0227946,-0.370284,-0.0474958,0.034249,0.0726657
-0.182847,0.202916,-0.264236,-0.138865,0.0162264,-0.398891,-0.0477156,0.0414918,0.0405936
-0.180829,0.201847,-0.272957,-0.124167,0.0180849,-0.421198,-0.0431052,0.0416814,0.0338379
-0.178588,0.201113,-0.28199,-0.10756,0.0242145,-0.436958,-0.0378843,0.0357588,0.0355804
-0.176184,0.200459,-0.291039,-0.118088,0.0430043,-0.423133,-0.029408,0.0310133,0.0455393
-0.173421,0.199217,-0.299717,-0.154449,0.0585704,-0.39286,-0.0239899,0.0191913,0.0578038
-0.170458,0.196916,-0.307865,-0.209874,0.0799403,-0.354613,-0.0164293,0.015302,0.0632179
-0.167378,0.193661,-0.315219,-0.226131,0.076866,-0.302764,-0.0137321,0.00374721,0.0480368
-0.164992,0.190239,-0.321649,-0.219526,0.0348996,-0.266091,-0.00935741,0.00299752,0.0317798
-0.163602,0.186719,-0.327432,-0.221147,-0.00465989,-0.235196,-0.00832331,-0.000460491,0.0365754
-0.163169,0.183079,-0.3325,-0.222454,-0.0358685,-0.200092,-7.39694e-05,-0.00261906,0.0472688
-0.162891,0.179131,-0.336859,-0.246985,0.0060989,-0.155078,-0.00338733,-0.0142389,0.0642503
-0.161276,0.174266,-0.340466,-0.292913,0.0926037,-0.119881,-0.0163542,-0.0286871,0.0803198
-0.158615,0.168571,-0.343538,-0.317757,0.115,-0.0883002,-0.0083503,-0.0359158,0.0575569
-0.155889,0.162631,-0.346111,-0.314122,0.124989,-0.0733577,-0.00490206,-0.039394,0.022324
-0.152829,0.156979,-0.348413,-0.282809,0.15392,-0.061515,-0.00599416,-0.0459204,-0.00642842
-0.148984,0.151927,-0.350112,-0.247548,0.213232,-0.0265717,-0.000356242,-0.06289,-0.031746
-0.144454,0.147408,-0.351035,-0.226934,0.211056,-0.000372766,0.00179648,-0.0721193,-0.0574327
-0.140371,0.143072,-0.351484,-0.209512,0.191665,0.0198624,0.011146,-0.0738307,-0.0830325
-0.136567,0.139129,-0.351296,-0.182617,0.198484,0.0525464,0.00907993,-0.086554,-0.103036
-0.132523,0.135872,-0.350589,-0.121685,0.223754,0.0519946,0.0049866,-0.0914437,-0.123907
-0.127884,0.134364,-0.349835,-0.0077599,0.249256,0.0475657,0.00831321,-0.0925111,-0.152588
-0.123207,0.1357,-0.348779,0.153703,0.235333,0.0435966,0.0300905,-0.0907753,-0.170344
-0.118781,0.139864,-0.347222,0.263781,0.230695,0.0676694,0.044576,-0.0982169,-0.145115
-0.114498,0.14499,-0.344559,0.25929,0.243553,0.14235,0.0610774,-0.109241,-0.0879707
-0.109805,0.148803,-0.340076,0.160355,0.304275,0.26494,0.0795194,-0.120559,-0.0443963
-0.103654,0.14986,-0.333016,0.0178885,0.427318,0.424377,0.0834951,-0.127098,-0.0283255
-0.0953633,0.148073,-0.323314,-0.0818026,0.536659,0.545929,0.0671993,-0.112996,-0.057673
-0.0865057,0.14561,-0.311972,-0.0399492,0.488562,0.583323,0.037403,-0.081085,-0.12233
-0.0804158,0.145395,-0.300716,0.126022,0.268902,0.518261,0.000639394,-0.0441117,-0.159073
-0.0790157,0.148893,-0.29095,0.282748,0.0277342,0.425246,-0.0234718,-0.0284299,-0.103871
-0.081179,0.154397,-0.282311,0.319127,-0.0982906,0.399177,-0.034926,-0.0482571,0.028048
-0.0850465,0.159594,-0.2736,0.257115,-0.135779,0.419305,-0.0348184,-0.070575,0.15183
-0.0884702,0.162927,-0.264624,0.153024,-0.0528004,0.432203,-0.0574687,-0.0850458,0.240878
-0.0897171,0.16447,-0.255877,0.0774283,0.0750168,0.410135,-0.0888585,-0.0878417,0.271417
-0.0883487,0.164563,-0.247857,-0.00312858,0.184832,0.372255,-0.107737,-0.0853396,0.273338
-0.0848056,0.163319,-0.240927,-0.0562851,0.287515,0.324047,-0.123317,-0.0786317,0.244561
-0.0789848,0.161585,-0.234875,-0.065431,0.402374,0.28549,-0.127371,-0.0761779,0.180903
-0.0703887,0.16029,-0.229925,-0.0154556,0.536833,0.20705,-0.130858,-0.0508753,0.0952102
-0.0586505,0.160891,-0.226936,0.102383,0.678502,0.0775513,-0.129305,-0.0126841,-0.0284826
-0.0450296,0.164348,-0.226389,0.242703,0.657,-0.0374567,-0.0927229,0.0223895,-0.15159
-0.033711,0.170494,-0.227542,0.360147,0.438825,-0.0943842,-0.0280482,0.0513681,-0.245467
-0.027432,0.178483,-0.229318,0.418731,0.159912,-0.096188,0.0218354,0.0671706,-0.273535
-0.0261506,0.186602,-0.230591,0.377939,-0.0281125,-0.0494447,0.0629557,0.0784048,-0.236949
-0.0261506,0.186602,-0.230591,0.377939,-0.0281125,-0.0494447,0.0629557,0.0784048,-0.236949
-0.0284477,0.193192,-0.230913,0.276092,-0.176092,-0.00238326,0.0835177,0.087317,-0.182773
-0.0329256,0.198134,-0.230687,0.240504,-0.260162,0.00470261,0.0921206,0.104555,-0.148788
-0.0381506,0.203307,-0.230671,0.28306,-0.246955,-0.0253373,0.0881523,0.119146,-0.113456
-0.0425247,0.209578,-0.231145,0.338623,-0.206113,-0.0389787,0.0862441,0.116113,-0.053985
-0.0464687,0.216568,-0.23157,0.352801,-0.208151,-0.0303362,0.0932642,0.113027,0.0119481
-0.0510981,0.223325,-0.231609,0.3191,-0.253607,-0.00125599,0.0866117,0.10424,0.0802932
-0.0569119,0.228917,-0.230705,0.245816,-0.311942,0.0590927,0.0887531,0.0920043,0.142075
-0.0642696,0.232638,-0.228674,0.137807,-0.375201,0.112442,0.0858107,0.0920107,0.190398
-0.0723715,0.234288,-0.226097,0.0494332,-0.371869,0.120982,0.0745595,0.0968814,0.228938
-0.0801877,0.234185,-0.22359,-0.0487063,-0.33371,0.123552,0.0534555,0.103937,0.247456
-0.0863528,0.231754,-0.22129,-0.178093,-0.228275,0.125457,0.0511181,0.0960028,0.267399
-0.0903587,0.226384,-0.219315,-0.353502,-0.128243,0.110496,0.031369,0.0929089,0.270405
-0.0918671,0.217241,-0.2186,-0.542917,-0.000128234,0.0332976,0.00384258,0.0898495,0.242169
-0.0906434,0.205784,-0.220129,-0.595859,0.0781358,-0.0812235,-0.0169509,0.0802811,0.150984
-0.0879627,0.194279,-0.224071,-0.583903,0.105299,-0.200867,-0.0101474,0.0643514,0.0770183
-0.0848809,0.183441,-0.230401,-0.556977,0.0833623,-0.327925,-0.0126212,0.0384931,0.0312262
-0.0818501,0.173008,-0.239113,-0.564219,0.0645596,-0.441485,-0.00665058,-4.8697e-05,0.00928503
-0.0790224,0.162565,-0.249641,-0.553749,0.0356211,-0.501478,0.0117525,-0.0449673,-0.0140212
-0.0774407,0.152753,-0.260724,-0.510713,-0.057764,-0.509125,0.0390021,-0.0830087,-0.0471379
-0.0781146,0.144047,-0.271546,-0.446998,-0.158674,-0.494047,0.0662712,-0.109838,-0.0698473
-0.0802971,0.136472,-0.282082,-0.401844,-0.204361,-0.483627,0.0643894,-0.134703,-0.0700004
-0.0831213,0.129387,-0.292229,-0.392012,-0.206635,-0.460203,0.075633,-0.152315,-0.070834
-0.0857528,0.122718,-0.301717,-0.344049,-0.173782,-0.42628,0.0816466,-0.160304,-0.0913064
-0.0879277,0.117766,-0.31047,-0.215197,-0.150417,-0.402085,0.0733664,-0.160612,-0.130178
-0.0906946,0.115724,-0.318353,-0.0952173,-0.268115,-0.354367,0.0767047,-0.15228,-0.140181
-0.0966557,0.113644,-0.325046,-0.196349,-0.391526,-0.292679,0.0743373,-0.149158,-0.104792
-0.1044,0.109178,-0.330699,-0.304282,-0.423988,-0.224362,0.0581641,-0.155031,-0.0819992
-0.110932,0.10329,-0.335566,-0.317271,-0.274872,-0.20925,0.0175699,-0.137555,-0.0994868
-0.11432,0.0987168,-0.340938,-0.178341,-0.12983,-0.286004,-0.0257818,-0.107254,-0.163708
-0.115843,0.0979428,-0.348132,0.0118837,-0.122595,-0.42008,-0.0532748,-0.0617901,-0.189579
-0.118475,0.100467,-0.357645,0.117656,-0.241683,-0.549852,-0.0550207,-0.0365576,-0.16134
-0.123273,0.10476,-0.369044,0.164718,-0.330494,-0.624139,-0.0426304,-0.0301822,-0.0951366
-0.127982,0.109866,-0.381368,0.182406,-0.253839,-0.658558,-0.0351541,-0.0313463,-0.015959
-0.130119,0.114951,-0.394345,0.140609,-0.0953982,-0.693181,-0.0492505,-0.0262011,0.0372639
-0.128764,0.119031,-0.408418,0.0898394,0.0517274,-0.752561,-0.0587798,-0.0159241,0.0566799
-0.125188,0.123111,-0.423693,0.134514,0.104543,-0.802534,-0.047226,-0.00122321,0.00811762
-0.121272,0.128457,-0.439511,0.203402,0.0795714,-0.821929,-0.0298023,-0.00220548,-0.0477955
-0.118315,0.135065,-0.455347,0.264123,0.00373094,-0.814895,-0.0119118,0.00242193,-0.0704324
-0.11668,0.142789,-0.470817,0.319471,-0.0442947,-0.794974,-0.00322364,0.013123,-0.0775456
-0.115887,0.151393,-0.485482,0.374487,-0.0989994,-0.750494,0.00758538,0.015531,-0.0854973
-0.116566,0.161221,-0.4991,0.445011,-0.180839,-0.704686,0.0178857,0.035554,-0.0805945
-0.118629,0.171953,-0.511533,0.469769,-0.224602,-0.641861,0.0277081,0.049891,-0.0447891
-0.121168,0.182559,-0.522516,0.453647,-0.216414,-0.561127,0.0411804,0.0610937,0.00383657
-0.123412,0.192551,-0.531995,0.422311,-0.181893,-0.488199,0.049474,0.0798981,0.0326327
-0.124782,0.20169,-0.54004,0.390998,-0.112122,-0.411127,0.0516536,0.0989923,0.0544329
-0.125469,0.210109,-0.546551,0.355287,-0.109273,-0.325367,0.0605285,0.116815,0.0700364
-0.127224,0.216706,-0.551328,0.230059,-0.182338,-0.223131,0.0666627,0.129641,0.100768
-0.131051,0.220106,-0.554459,0.0612004,-0.263307,-0.126916,0.0660765,0.144557,0.132622
-0.136342,0.219989,-0.556198,-0.0890339,-0.298253,-0.0454317,0.0514369,0.151889,0.150773
-0.142112,0.217314,-0.557014,-0.181606,-0.293885,-0.0020161,0.0225652,0.163743,0.149849
-0.14747,0.21308,-0.557562,-0.251097,-0.252607,0.00342107,-0.00931112,0.172501,0.15568
-0.15161,0.207396,-0.558621,-0.337581,-0.196846,-0.0160861,-0.0436126,0.169444,0.161849
-0.154406,0.199309,-0.560312,-0.505876,-0.110226,-0.0318606,-0.0600062,0.168772,0.175375
-0.154481,0.187959,-0.563311,-0.668085,0.031609,-0.0854963,-0.096035,0.147258,0.15915
-0.154481,0.187959,-0.563311,-0.668085,0.031609,-0.0854963,-0.096035,0.147258,0.15915
-0.15165,0.173796,-0.567794,-0.78406,0.194747,-0.144769,-0.121363,0.147837,0.0861498
-0.145235,0.159008,-0.573918,-0.764818,0.346298,-0.228082,-0.132827,0.126997,-0.0256197
-0.13597,0.145478,-0.581399,-0.671392,0.445955,-0.318832,-0.141332,0.120124,-0.133358
-0.126179,0.134793,-0.590549,-0.503936,0.398763,-0.443627,-0.144096,0.115907,-0.229015
-0.118254,0.128074,-0.601639,-0.294115,0.238455,-0.561751,-0.117699,0.106103,-0.284541
-0.113866,0.125664,-0.613967,-0.0998555,0.0446852,-0.618335,-0.0805587,0.0798626,-0.281232
-0.113241,0.126356,-0.626334,0.0204769,-0.129944,-0.604368,-0.0448694,0.0477581,-0.212492
-0.115911,0.128772,-0.637729,0.0792948,-0.276299,-0.542289,-0.0116484,0.0196217,-0.126385
-0.120929,0.131517,-0.647541,0.0740671,-0.337384,-0.456472,0.00808126,-0.00110966,-0.0339575
-0.126466,0.134012,-0.655534,0.076135,-0.316048,-0.361674,0.0140664,-0.0163674,0.0296128
-0.131342,0.136186,-0.661675,0.061415,-0.258665,-0.270306,0.0157991,-0.0235821,0.0720516
-0.135379,0.13765,-0.666045,0.0194666,-0.202485,-0.179964,0.0150364,-0.0275947,0.107317
-0.138495,0.137585,-0.668832,-0.0646869,-0.154749,-0.0943022,0.00907736,-0.0303137,0.131624
-0.140677,0.135612,-0.670224,-0.149048,-0.0872087,-0.0207514,-0.000325426,-0.027874,0.13487
-0.141798,0.13185,-0.670687,-0.22584,-0.038734,0.0214875,-0.0193269,-0.0220048,0.112413
-0.142455,0.126796,-0.670932,-0.277376,-0.0261105,0.020798,-0.0428364,-0.0113001,0.0757961
-0.142764,0.121179,-0.671635,-0.273237,-0.021871,-0.0155675,-0.0689232,-0.00620794,0.0309383
-0.143277,0.116362,-0.673401,-0.234629,-0.0469587,-0.0931874,-0.0842216,0.00771641,-0.0119044
-0.143728,0.112512,-0.676671,-0.202299,-0.030273,-0.17034,-0.0908412,0.0121772,-0.0254341
-0.1438,0.109717,-0.681261,-0.148113,-0.0275767,-0.244805,-0.0910015,0.00863649,-0.0448366
-0.143711,0.108043,-0.687178,-0.103113,-0.0195513,-0.314046,-0.0848829,0.0100548,-0.0514646
-0.143348,0.107591,-0.694217,-0.0423549,-0.0193198,-0.369532,-0.0754369,0.00157887,-0.0557594
-0.142973,0.108323,-0.701842,-0.00047445,-0.0240497,-0.37918,-0.0442464,-0.00899965,-0.0436231
-0.142848,0.109333,-0.708773,-0.00479018,-0.0444761,-0.315269,-0.0188119,-0.0256501,-0.0177892
-0.143308,0.109892,-0.714386,-0.0172585,-0.0552411,-0.250574,-0.00240666,-0.0247593,0.0031727
-0.143741,0.10999,-0.718774,-0.0429643,-0.0338892,-0.183261,-0.014098,-0.023609,0.0323516
-0.143834,0.109062,-0.721992,-0.0966785,-0.0185767,-0.126775,-0.0191645,-0.0195106,0.0554947
-0.143635,0.107051,-0.72431,-0.132712,0.0306866,-0.0745891,-0.0204434,-0.0125382,0.0542729
-0.141929,0.104569,-0.725583,-0.128942,0.116895,-0.0228972,-0.037191,-0.0178753,0.0480446
-0.139177,0.102183,-0.726176,-0.134927,0.154965,-0.0115248,-0.0479082,-0.00593562,0.0321009
-0.135992,0.0996636,-0.726818,-0.139528,0.177013,-0.0170274,-0.0609001,-0.00198742,0.0180163
-0.132516,0.0975179,-0.727626,-0.0896184,0.184271,-0.0370474,-0.0682976,-0.00197122,-0.0190616
-0.128924,0.0971176,-0.728747,0.0303787,0.19377,-0.0701327,-0.0739282,-0.00224753,-0.0607628
-0.125348,0.0992107,-0.730221,0.143797,0.161116,-0.101453,-0.074005,-0.00243815,-0.0763384
-0.121779,0.102429,-0.73172,0.139305,0.211649,-0.0747582,-0.0543138,-0.0029894,-0.0498856
-0.11656,0.104355,-0.732089,0.0443325,0.333913,0.024396,-0.0357184,-0.0196747,-0.030377
-0.10992,0.104494,-0.730432,0.0111754,0.326881,0.12745,-0.0117497,-0.0163472,-0.078931
-0.105793,0.104716,-0.727327,0.0523601,0.108482,0.16802,-0.0130704,0.00502209,-0.132101
-0.106313,0.105902,-0.723846,0.10048,-0.0908486,0.158907,-0.0138812,0.0216279,-0.129381
-0.108342,0.107688,-0.720495,0.111123,-0.0431364,0.157989,-0.0210056,0.0175906,-0.0700022
-0.107919,0.109672,-0.71697,0.132447,0.1378,0.164627,-0.0254445,0.0189067,-0.0325731
-0.104652,0.11252,-0.713593,0.182368,0.19803,0.135899,-0.0320337,0.0255361,-0.0348618
-0.101458,0.115965,-0.711213,0.176565,0.137662,0.0675676,-0.0231905,0.048811,-0.0184162
-0.0997895,0.11892,-0.710063,0.135579,0.0498833,0.0221459,-0.00259642,0.0510889,0.0022952
-0.0994345,0.121327,-0.709536,0.116674,-0.00076564,0.0084089,0.0318448,0.0462617,0.01306
-0.0997714,0.123363,-0.709102,0.0980885,-0.0125605,0.0100452,0.060763,0.0491218,0.0353625
-0.0998315,0.125113,-0.708683,0.105173,0.0203725,0.0109585,0.0724584,0.0499426,0.0446928
-0.099083,0.127255,-0.70826,0.126232,0.0641653,0.0100081,0.0847849,0.0508317,0.053501
-0.0974641,0.12948,-0.707742,0.105874,0.103311,0.0212686,0.0920244,0.0490402,0.07312
-0.0950155,0.130761,-0.706708,0.0387611,0.140125,0.0718706,0.10392,0.0424829,0.094718
-0.0925536,0.130466,-0.704631,-0.040237,0.116913,0.135673,0.108329,0.03775,0.0895069
-0.0908829,0.128423,-0.701551,-0.129591,0.0879846,0.183758,0.100356,0.0377841,0.0797131
-0.0896065,0.124768,-0.698207,-0.195483,0.0742132,0.174053,0.069687,0.0369352,0.0611981
-0.0896065,0.124768,-0.698207,-0.195483,0.0742132,0.174053,0.069687,0.0369352,0.0611981
-0.0883224,0.12047,-0.695449,-0.198469,0.0810397,0.135669,0.0522747,0.0334021,0.0222384
-0.0866697,0.116779,-0.693725,-0.152311,0.0945599,0.0672369,0.037586,0.0243199,-0.0155131
-0.0847516,0.113765,-0.693243,-0.146437,0.0925152,0.00802537,0.0362056,0.0075022,-0.0271202
-0.0828282,0.110774,-0.6939,-0.153757,0.0780614,-0.0477593,0.0410124,-0.00929505,-0.0383298
-0.0810816,0.107759,-0.695525,-0.161554,0.0682854,-0.0823874,0.0432915,-0.0256435,-0.0519743
-0.0798053,0.104693,-0.697809,-0.154498,0.0175949,-0.122862,0.0504755,-0.039587,-0.0620159
-0.0797274,0.102072,-0.701037,-0.130156,-0.0411318,-0.181584,0.04778,-0.0513493,-0.0671417
-0.0803418,0.100525,-0.705471,-0.0542986,-0.0774199,-0.248258,0.0401315,-0.0703441,-0.064288
-0.0813362,0.100968,-0.711112,0.0457306,-0.0794762,-0.309069,0.0518715,-0.0758546,-0.0519306
-0.0819144,0.103313,-0.717644,0.123212,-0.0549564,-0.356653,0.0513571,-0.0932356,-0.02327
-0.0821206,0.106729,-0.72495,0.139922,-0.0525866,-0.397604,0.0564608,-0.102519,0.0104598
-0.0823535,0.110265,-0.732961,0.151718,-0.0569796,-0.428434,0.0646252,-0.106679,0.0236548
-0.08237,0.114457,-0.741384,0.204824,-0.0364085,-0.438194,0.0764894,-0.104482,0.00878066
-0.0817238,0.119829,-0.749568,0.259098,0.0208869,-0.415986,0.0907672,-0.0920507,-6.27637e-05
-0.079473,0.125753,-0.757063,0.251928,0.107028,-0.368588,0.0923733,-0.0681359,0.00307125
-0.075297,0.130363,-0.763633,0.145096,0.232214,-0.316746,0.0840174,-0.0342357,-0.0027498
-0.0688162,0.132466,-0.769073,0.0386053,0.322236,-0.241422,0.0716385,-0.00914131,-0.0464615
-0.0622719,0.133636,-0.773536,0.080429,0.251096,-0.222365,0.0607765,0.0333394,-0.138355
-0.0588744,0.137662,-0.778414,0.311606,0.0133492,-0.297323,0.0341595,0.0717827,-0.208625
-0.0601872,0.146928,-0.784732,0.566768,-0.21228,-0.377108,0.0486385,0.0970531,-0.178917
-0.063922,0.159955,-0.791496,0.67055,-0.23812,-0.351562,0.065596,0.0854059,-0.0476187
-0.0667042,0.173576,-0.796855,0.640843,-0.112568,-0.266223,0.0843603,0.0712045,0.0880228
-0.0669025,0.185523,-0.8004,0.515813,0.0203123,-0.156249,0.0847941,0.0594305,0.165242
-0.0652512,0.19393,-0.801686,0.313681,0.11846,-0.0270947,0.0903955,0.0503066,0.203959
-0.0625107,0.198145,-0.800628,0.122781,0.165994,0.102951,0.0876301,0.0436684,0.187976
-0.059802,0.198915,-0.797351,-0.0195794,0.160695,0.207297,0.0721376,0.0423176,0.141737
-0.0579454,0.197372,-0.792602,-0.0950382,0.114877,0.260714,0.0463058,0.0445584,0.0861477
-0.0572818,0.195011,-0.787339,-0.105029,0.0581701,0.264232,0.0184303,0.0467286,0.0360313
-0.057489,0.19268,-0.782121,-0.0931762,0.0200682,0.258234,-0.00760138,0.0393602,0.0130914
-0.0585245,0.190804,-0.777103,-0.0659475,-0.03228,0.247462,-0.0256545,0.0328948,0.00870502
-0.0608915,0.189192,-0.772089,-0.0753315,-0.111259,0.254056,-0.0366065,0.0253764,0.0288439
-0.0643728,0.186598,-0.767095,-0.157605,-0.131879,0.257012,-0.0493982,0.0161597,0.0728299
-0.067635,0.182334,-0.762149,-0.232686,-0.106669,0.258072,-0.0672955,0.00655153,0.0875589
-0.0701497,0.176773,-0.757178,-0.289605,-0.0540416,0.271083,-0.0712285,-0.00265908,0.0799872
-0.0711999,0.170112,-0.752167,-0.339217,0.039492,0.266439,-0.08719,-0.00773974,0.0674346
-0.0702209,0.16288,-0.747646,-0.338648,0.117566,0.228728,-0.107661,-0.000482678,0.0287661
-0.0681402,0.156389,-0.744166,-0.274141,0.13593,0.164015,-0.109669,0.00720815,-0.0270084
-0.0663034,0.151682,-0.741726,-0.178604,0.0734553,0.108546,-0.108563,0.00872175,-0.0724001
-0.0661025,0.148567,-0.740448,-0.135008,-0.0276374,0.0347586,-0.105648,0.0118366,-0.08271
-0.0677924,0.146074,-0.740631,-0.123329,-0.142847,-0.0330283,-0.100156,0.00607415,-0.0801221
-0.0707144,0.144212,-0.742119,-0.0752212,-0.186558,-0.0928451,-0.0875029,-0.00121532,-0.0850584
-0.0740435,0.14309,-0.744571,-0.0584937,-0.166844,-0.147265,-0.0850139,-0.0068579,-0.0856705
-0.0760384,0.142373,-0.748245,-0.0425574,-0.0844356,-0.203929,-0.0763996,-0.00730778,-0.0846945
-0.0760575,0.1421,-0.752872,-0.011542,0.0247167,-0.258308,-0.0511855,-0.00812718,-0.109468
-0.0735656,0.143245,-0.758637,0.0883487,0.132548,-0.312387,-0.0281752,-0.00143953,-0.142787
-0.0697762,0.1467,-0.764997,0.224012,0.145377,-0.33816,0.00689792,0.00139867,-0.170894
-0.0669696,0.153174,-0.77135,0.371985,0.0325529,-0.333712,0.0406843,0.00476411,-0.157402
-0.0667433,0.161898,-0.777339,0.445668,-0.104285,-0.304785,0.0581158,0.00105053,-0.0992128
-0.068861,0.171092,-0.782276,0.431889,-0.17681,-0.240421,0.0686106,-0.0129839,-0.00620908
-0.0718681,0.179327,-0.78563,0.364259,-0.173759,-0.144292,0.0710514,-0.0284497,0.0838409
-0.0746332,0.185789,-0.787118,0.268446,-0.124618,-0.0474441,0.0651325,-0.0404823,0.141386
-0.076545,0.189877,-0.786676,0.144352,-0.0513161,0.0609707,0.0586926,-0.0481851,0.166362
-0.0769438,0.191608,-0.78449,0.0496532,0.0421396,0.135478,0.0362308,-0.0450354,0.159062
-0.0760234,0.191355,-0.781175,-0.048252,0.115652,0.182428,0.0181521,-0.0351826,0.11856
-0.0760234,0.191355,-0.781175,-0.048252,0.115652,0.182428,0.0181521,-0.0351826,0.11856
-0.0739185,0.189495,-0.777208,-0.102044,0.164806,0.220191,-0.000560462,-0.0200419,0.0645923
-0.0712965,0.186818,-0.772839,-0.134936,0.167439,0.224724,-0.0247147,0.00682379,0.0036788
-0.0689319,0.183676,-0.768807,-0.139731,0.138664,0.187139,-0.0459288,0.0318879,-0.0509552
-0.0670362,0.181455,-0.765952,-0.051283,0.102499,0.0994989,-0.0684064,0.0595966,-0.105877
-0.0655625,0.181874,-0.765058,0.101682,0.0640298,-0.0124808,-0.0773803,0.0737257,-0.141287
-0.0644191,0.185437,-0.766123,0.240953,0.0322277,-0.103119,-0.073158,0.076466,-0.12456
-0.0638268,0.191017,-0.768045,0.285635,-0.00713277,-0.104564,-0.0369403,0.0623249,-0.0636904
-0.0637283,0.196243,-0.76925,0.228446,0.00361752,-0.0399974,-0.00650695,0.0416655,0.0134068
-0.0636803,0.199802,-0.768792,0.13828,0.0201289,0.0623221,0.0164728,0.0277449,0.0589756
-0.0634437,0.201419,-0.766337,0.0551166,0.0490098,0.164625,0.0191659,0.0242783,0.0728748
-0.0635875,0.20167,-0.762154,0.00583396,0.0125167,0.241025,0.0224313,0.0336494,0.0568397
-0.0647286,0.201006,-0.756848,-0.0344755,-0.0150746,0.284184,0.0113638,0.0456481,0.0537725
-0.066318,0.199514,-0.750694,-0.0763342,-0.0110613,0.327781,0.00431629,0.0517087,0.0546991
-0.067356,0.197363,-0.743942,-0.0831888,0.0447498,0.34566,-0.00304755,0.054422,0.0428624
-0.0676115,0.195184,-0.736917,-0.0960581,0.0608672,0.358487,-0.0127481,0.0613333,0.0314439
-0.0676389,0.192534,-0.729848,-0.11304,0.0715205,0.353022,-0.0139533,0.0633867,0.0161891
-0.0679226,0.189838,-0.7228,-0.119154,0.0438821,0.357704,-0.0122675,0.0657906,0.003452
-0.068062,0.186889,-0.715636,-0.118503,0.0776521,0.364514,-0.00733257,0.0561337,-0.00720626
-0.0675239,0.184452,-0.708402,-0.0803629,0.112981,0.362792,-0.0106831,0.0576904,-0.0233994
-0.0663836,0.182468,-0.701073,-0.0708436,0.128425,0.369039,-0.00820703,0.0493623,-0.0268697
-0.0654352,0.18055,-0.693502,-0.0721589,0.104569,0.392966,0.00455688,0.044057,-0.032383
-0.0649129,0.178616,-0.685245,-0.0694291,0.0962993,0.434901,0.0128404,0.0362494,-0.0311657
-0.0646114,0.176776,-0.676108,-0.053911,0.0933603,0.478748,0.0169445,0.0287011,-0.0348502
-0.0645404,0.175255,-0.666111,-0.031795,0.0950169,0.51865,0.0185705,0.0301176,-0.0318333
-0.0644377,0.174207,-0.655231,-0.000986714,0.104348,0.561797,0.0288878,0.0305662,-0.0303175
-0.0643683,0.173695,-0.643166,0.0277039,0.11789,0.635245,0.0422225,0.0300004,-0.0196503
-0.064521,0.173301,-0.629521,0.00945233,0.0980151,0.718276,0.0513949,0.0313676,-7.61747e-05
-0.0653597,0.172018,-0.614387,-0.0289742,0.0821259,0.781149,0.0522643,0.0389385,0.0115495
-0.0664302,0.170295,-0.598007,-0.0335776,0.095642,0.845688,0.0511389,0.0505765,0.0138939
-0.067335,0.168346,-0.580526,-0.0477321,0.113283,0.889467,0.0436736,0.0573379,0.0178851
-0.0676428,0.166094,-0.562418,-0.0491057,0.166569,0.917248,0.04243,0.0649132,0.0211836
-0.0668029,0.163891,-0.543648,-0.0463944,0.22744,0.956746,0.0474566,0.0648461,0.0184875
-0.0649633,0.161713,-0.523991,-0.0434682,0.267949,1.00005,0.0597371,0.0651386,0.0130082
-0.0628708,0.159661,-0.503467,-0.0352788,0.267352,1.03788,0.0657229,0.0673393,0.00370222
-0.0605981,0.157747,-0.482353,-0.029502,0.302454,1.06262,0.0720466,0.0723467,0.00466132
-0.0574036,0.155933,-0.460507,-0.017111,0.356177,1.10753,0.07401,0.0671523,0.00567955
-0.0531929,0.154504,-0.437876,-0.0037459,0.410457,1.14028,0.0774063,0.0633906,-3.45111e-05
-0.0485436,0.153233,-0.414583,-0.013785,0.404125,1.17517,0.0792364,0.0654151,0.000531018
-0.0443594,0.15144,-0.390443,-0.0559681,0.388233,1.22715,0.0889118,0.0592633,0.00751036
-0.0404134,0.148889,-0.365288,-0.0869279,0.376822,1.26756,0.0732348,0.0562833,0.00662267
-0.0369606,0.145783,-0.339872,-0.123237,0.348277,1.25949,0.0599214,0.0632364,0.00598961
-0.0337076,0.142228,-0.314773,-0.141766,0.340524,1.24591,0.0515951,0.0585426,0.00298172
-0.0300462,0.138455,-0.289814,-0.155544,0.382266,1.24076,0.0453792,0.0474214,0.00455558
-0.0252434,0.134543,-0.265271,-0.170769,0.424523,1.20316,0.0228306,0.041959,-0.00317317
-0.0196867,0.130291,-0.241479,-0.208638,0.444301,1.17802,0.0149104,0.0323125,-0.0095073
-0.0137585,0.125245,-0.217983,-0.251237,0.43991,1.16758,-0.000372565,0.0152529,-0.0247267
-0.00786585,0.119668,-0.194832,-0.275819,0.429718,1.13761,-0.0223266,0.00950455,-0.0487932
-0.0023739,0.114172,-0.172482,-0.24931,0.367573,1.08861,-0.052619,-0.000501595,-0.089277
0.00152808,0.11004,-0.151228,-0.158947,0.256242,1.02738,-0.0680014,-0.00599593,-0.125816
0.00307936,0.108076,-0.13142,-0.0445452,0.117218,0.94598,-0.0943547,-0.0178815,-0.137584
0.00234013,0.108171,-0.113338,0.0425168,0.0254369,0.859013,-0.103157,-0.0264694,-0.10741
0.00110869,0.109868,-0.096857,0.132236,0.0361742,0.786607,-0.107456,-0.0409573,-0.0767239
0.000477705,0.113548,-0.0817709,0.2312,0.0700914,0.718695,-0.105455,-0.0487293,-0.0595708
0.000220367,0.118908,-0.0678384,0.300752,0.0567619,0.673574,-0.0942435,-0.0631199,-0.0439875
0.000220367,0.118908,-0.0678384,0.300752,0.0567619,0.673574,-0.0942435,-0.0631199,-0.0439875
-0.000525252,0.125137,-0.0546335,0.319046,0.0282019,0.644151,-0.0746131,-0.0675261,-0.0219035
-0.00201515,0.131276,-0.0418644,0.299217,-0.0162226,0.625486,-0.0616924,-0.077414,-0.0206455
-0.00453065,0.137185,-0.0294358,0.307313,-0.0675084,0.60315,-0.0482921,-0.0760899,-0.0393888
-0.00799181,0.143575,-0.0176711,0.345771,-0.116477,0.562393,-0.0436042,-0.0639798,-0.0614071
-0.0122892,0.150967,-0.00683823,0.405473,-0.150425,0.501891,-0.0356567,-0.0416378,-0.0697981
-0.0170706,0.159342,0.00280773,0.442855,-0.184394,0.441462,-0.0351026,-0.0163496,-0.0580085
-0.0222691,0.168033,0.0112644,0.441403,-0.192687,0.378003,-0.0318794,0.0146859,-0.0326851
-0.0274478,0.1767,0.0185918,0.443247,-0.208553,0.325889,-0.020331,0.0449533,-0.0182152
-0.0331254,0.185177,0.0249972,0.422753,-0.24318,0.277858,0.000921711,0.0815814,-0.00388736
-0.0391284,0.193058,0.0305473,0.387769,-0.248756,0.246915,0.0225073,0.112286,0.0213814
-0.0449067,0.20023,0.0358112,0.35031,-0.227107,0.240277,0.0421332,0.130887,0.042784
-0.0501788,0.206388,0.040922,0.282225,-0.192985,0.236676,0.0686093,0.157426,0.0689761
-0.0545075,0.210642,0.0460393,0.171055,-0.127809,0.247253,0.0990527,0.169201,0.0825694
-0.0570185,0.212888,0.0516947,0.0949168,-0.00437276,0.293546,0.123587,0.172099,0.0627809
-0.0577785,0.214358,0.0580793,0.103276,0.043947,0.31444,0.128553,0.178235,-0.00193429
-0.0583305,0.216701,0.0646511,0.171587,0.0320771,0.317569,0.146793,0.195859,-0.0637299
-0.0601332,0.220289,0.0716411,0.218397,-0.0683685,0.355646,0.174215,0.201177,-0.0819749
-0.0643041,0.223864,0.0799288,0.181893,-0.163665,0.434997,0.210133,0.203352,-0.0502379
-0.0701643,0.226568,0.0897979,0.166611,-0.18221,0.496447,0.211275,0.20898,-0.00842339
-0.0757724,0.229739,0.100412,0.234644,-0.155112,0.506551,0.193004,0.227098,0.0191496
-0.0819409,0.234138,0.110994,0.279232,-0.222641,0.496889,0.18185,0.233561,0.0664968
-0.0896194,0.238011,0.122023,0.171125,-0.289236,0.55286,0.185686,0.220115,0.159025
-0.0981451,0.23774,0.134567,-0.0927326,-0.259345,0.675682,0.171632,0.17528,0.25461
-0.105667,0.23173,0.149013,-0.340853,-0.154136,0.771476,0.135061,0.141725,0.282005
-0.110638,0.221633,0.163922,-0.486747,-0.00563246,0.776174,0.0698092,0.127934,0.253373
-0.111808,0.209949,0.178072,-0.503636,0.199094,0.727587,0.00563962,0.110174,0.200618
-0.108393,0.198971,0.191005,-0.448227,0.399346,0.659222,-0.045961,0.086378,0.146743
-0.101307,0.189192,0.202794,-0.418866,0.530689,0.601666,-0.0642912,0.0635076,0.114053
-0.0917867,0.179168,0.213742,-0.498308,0.617653,0.578252,-0.0804789,0.0363045,0.104057
-0.08094,0.166351,0.224612,-0.708742,0.653574,0.620046,-0.0786354,0.000149563,0.0972246
-0.0693734,0.148494,0.236991,-0.994426,0.704773,0.748209,-0.0611294,-0.0423433,0.0660992
-0.0565676,0.124784,0.252263,-1.27093,0.780593,0.914519,-0.0627376,-0.0758719,-0.00927097
-0.0428494,0.0971319,0.270406,-1.38082,0.780416,1.01864,-0.0811754,-0.0895441,-0.133481
-0.0298067,0.0696526,0.289884,-1.26888,0.670687,1.0097,-0.130655,-0.0897359,-0.283065
-0.0197016,0.0462632,0.308623,-1.01433,0.476329,0.906672,-0.15218,-0.0780971,-0.379911
-0.0128983,0.0285985,0.325286,-0.746808,0.258114,0.809662,-0.158891,-0.094971,-0.378574
-0.0102953,0.0144567,0.341255,-0.683268,0.0316702,0.822012,-0.144628,-0.132806,-0.283055
-0.0122802,0.000477683,0.357942,-0.693507,-0.223765,0.863442,-0.142627,-0.163142,-0.181503
-0.0188259,-0.0131344,0.37504,-0.636789,-0.432703,0.864355,-0.156943,-0.167416,-0.12209
-0.0285418,-0.0253452,0.391641,-0.543482,-0.549175,0.824256,-0.177358,-0.17288,-0.073055
-0.0385172,-0.0349899,0.407,-0.358069,-0.478373,0.746296,-0.204787,-0.187677,-0.0433913
-0.0464862,-0.040609,0.42086,-0.153577,-0.381206,0.670797,-0.213212,-0.18815,-0.024792
-0.0526438,-0.0432436,0.433691,-0.0695929,-0.273733,0.633641,-0.18922,-0.184603,0.00636333
-0.0554687,-0.0448571,0.446276,-0.00962149,-0.0620534,0.634386,-0.19077,-0.18327,0.0037443
-0.0543294,-0.0444528,0.458716,0.136284,0.108045,0.600989,-0.191768,-0.156727,-0.0646262
-0.0509257,-0.040087,0.470401,0.371049,0.167807,0.543946,-0.172541,-0.121879,-0.159447
-0.0469546,-0.0308662,0.481477,0.598958,0.183222,0.539836,-0.132879,-0.091286,-0.211432
-0.0433271,-0.0177098,0.493523,0.760981,0.139704,0.617996,-0.0853553,-0.0737696,-0.228176
-0.0415952,-0.00233176,0.507656,0.82722,0.0178826,0.729551,-0.0472077,-0.0500612,-0.218778
-0.0421546,0.0139816,0.523798,0.882326,-0.0919979,0.826366,-0.0157691,-0.014095,-0.20405
-0.0458891,0.0310669,0.542208,0.902118,-0.226072,0.94132,-0.00470142,0.0192822,-0.194085
-0.0524337,0.0485486,0.562583,0.940654,-0.379155,1.01143,0.0150708,0.0360174,-0.1767
-0.0635448,0.0650211,0.584649,0.822552,-0.584772,1.08352,0.00376707,0.0620304,-0.13787
-0.0774404,0.079813,0.60714,0.862001,-0.605984,1.05174,-0.0108196,0.0820935,-0.113257
-0.0774404,0.079813,0.60714,0.862001,-0.605984,1.05174,-0.0108196,0.0820935,-0.113257
-0.0902857,0.0965581,0.629198,0.973943,-0.504137,0.996926,-0.0363097,0.101077,-0.0631097
-0.102346,0.113997,0.649911,0.966453,-0.486497,0.880748,-0.0663422,0.123989,-0.03206
-0.114643,0.131615,0.668558,0.988649,-0.517984,0.787024,-0.0499429,0.126307,0.00727421
-0.126877,0.148844,0.686039,0.929768,-0.447604,0.730935,-0.0444182,0.121607,0.0729893
-0.13678,0.164848,0.702257,0.876171,-0.283438,0.638615,-0.0704964,0.121896,0.12521
-0.143114,0.180216,0.715971,0.845553,-0.1224,0.477077,-0.111332,0.139829,0.142097
-0.146506,0.196,0.725819,0.874178,-0.0450169,0.251495,-0.13167,0.151595,0.124109
-0.148044,0.213276,0.731345,0.906761,-0.0007809,0.0469369,-0.120807,0.162194,0.129204
-0.148073,0.230712,0.733695,0.840767,0.0567578,-0.0585,-0.0847696,0.146593,0.177237
-0.146279,0.246184,0.734405,0.69318,0.136612,-0.0904227,-0.0561771,0.12873,0.211018
-0.143454,0.258242,0.734408,0.497841,0.13624,-0.0836253,-0.048744,0.127238,0.222336
-0.140512,0.266126,0.733824,0.27427,0.144178,-0.0865987,-0.0509912,0.131541,0.219204
-0.136706,0.269614,0.732397,0.0573679,0.212981,-0.0961276,-0.0713097,0.132311,0.217973
-0.130971,0.269213,0.73014,-0.120967,0.283655,-0.122133,-0.0975414,0.131604,0.185537
-0.124021,0.266065,0.726622,-0.214467,0.31707,-0.185234,-0.118351,0.149167,0.133306
-0.116771,0.262339,0.721584,-0.203227,0.24726,-0.241705,-0.124831,0.164125,0.084316
-0.112515,0.259183,0.71608,-0.156872,0.0536852,-0.257161,-0.103432,0.165272,0.0358967
-0.113198,0.256345,0.709687,-0.233304,-0.24133,-0.325136,-0.115069,0.157401,0.0616572
-0.118136,0.24994,0.701123,-0.576343,-0.598695,-0.425214,-0.136198,0.15004,0.124787
-0.124213,0.233373,0.689013,-1.16642,-0.239649,-0.560675,-0.158823,0.128523,0.206867
-0.121114,0.21,0.673018,-1.29649,0.219772,-0.685561,-0.199311,0.0627839,0.0196642
-0.109654,0.18653,0.656219,-1.21401,0.536299,-0.671173,-0.0792014,0.0857951,-0.153055
-0.0963051,0.165574,0.640078,-1.02756,0.438537,-0.724508,-0.00331847,0.103662,-0.305142
-0.0885517,0.149829,0.622033,-0.67555,-0.0259615,-0.941585,0.00620747,0.130851,-0.380495
-0.0889639,0.142171,0.600512,-0.284112,-0.298738,-1.07122,0.0725083,0.11383,-0.334759
-0.0937562,0.142468,0.579415,0.120836,-0.460601,-1.00132,0.150028,0.0498998,-0.220839
-0.100181,0.149317,0.561346,0.347597,-0.413877,-0.83723,0.194878,-0.0531869,-0.0665003
-0.104678,0.157848,0.547213,0.333867,-0.244506,-0.649795,0.192208,-0.127337,0.0904843
-0.106139,0.164268,0.536092,0.162632,-0.0886228,-0.515309,0.17504,-0.183744,0.199981
-0.10488,0.16582,0.527036,-0.091986,0.0897754,-0.400185,0.162379,-0.210763,0.234679
-0.101065,0.162846,0.519736,-0.270737,0.154778,-0.281193,0.133539,-0.229856,0.192871
-0.0966135,0.157273,0.514774,-0.304627,0.171031,-0.153033,0.125088,-0.223441,0.0763749
-0.093703,0.151523,0.512634,-0.29087,0.0921331,-0.014649,0.106013,-0.193523,0.000395298
-0.0928526,0.145748,0.512425,-0.294823,-0.00377064,0.0301026,0.0601811,-0.161622,-0.0274072
-0.0929017,0.139675,0.512024,-0.312876,0.0215369,-0.0303792,-0.0120324,-0.13356,-0.0448623
-0.0903347,0.134109,0.509827,-0.250329,0.203167,-0.143344,-0.05458,-0.102605,-0.0654797
-0.0840316,0.130242,0.50525,-0.180392,0.353977,-0.283758,-0.0774226,-0.0730529,-0.0905509
-0.0749315,0.127624,0.497789,-0.129759,0.466835,-0.436092,-0.0734372,-0.0552176,-0.105429
-0.0638157,0.126909,0.487494,0.00415794,0.497232,-0.578721,-0.062488,-0.0441009,-0.136816
-0.0531028,0.1296,0.474755,0.198099,0.40246,-0.698174,-0.0203196,-0.0283089,-0.151187
-0.0444403,0.136124,0.460218,0.374365,0.281194,-0.766871,0.0328911,-0.0362324,-0.12673
-0.0374558,0.145276,0.445237,0.464116,0.219041,-0.736516,0.0848736,-0.0899913,-0.0758032
-0.0313352,0.155007,0.432133,0.459535,0.219422,-0.586797,0.128458,-0.140108,-0.0184102
-0.0257812,0.164103,0.422414,0.415292,0.168624,-0.399916,0.142391,-0.156808,0.0361947
-0.0226736,0.171417,0.416351,0.290303,0.00788607,-0.215181,0.143769,-0.153914,0.0686173
-0.024377,0.17565,0.413887,0.129902,-0.207975,-0.043311,0.136503,-0.132732,0.0907812
-0.0294162,0.177295,0.414515,0.0551633,-0.253273,0.0917352,0.107183,-0.115975,0.0999263
-0.0339195,0.178374,0.417239,0.0631765,-0.147242,0.169283,0.0576365,-0.0872495,0.102006
-0.0357422,0.179655,0.420829,0.100614,0.0631732,0.16642,0.0146975,-0.0524955,0.094422
-0.0359665,0.181018,0.424211,-0.0129908,-0.049527,0.164396,-0.00782633,-0.0234903,0.088524
-0.0368799,0.178629,0.426422,-0.181175,-0.0113586,0.0512609,-0.0315251,0.014396,0.079046
-0.0360774,0.174921,0.426408,-0.188997,0.130908,-0.0172011,-0.0161623,0.0283089,0.0459434
-0.031403,0.171558,0.42567,-0.144056,0.302421,-0.0501918,-0.000526704,0.0412617,-0.00794834
-0.0254042,0.169337,0.424154,-0.101343,0.248745,-0.0881479,0.0115189,0.0478314,-0.0559573
-0.0254042,0.169337,0.424154,-0.101343,0.248745,-0.0881479,0.0115189,0.0478314,-0.0559573
-0.0219328,0.167919,0.422019,-0.0355561,0.0302704,-0.115427,0.0430917,0.0571915,-0.0893909
-0.0238885,0.168238,0.419671,0.055431,-0.250177,-0.111611,0.0748796,0.062236,-0.0861009
-0.0299413,0.170053,0.417603,0.119594,-0.358663,-0.0973402,0.0806677,0.0490717,-0.0399666
-0.0367523,0.172492,0.415948,0.110615,-0.314322,-0.0713626,0.0708973,0.0219954,0.0336891
-0.0416761,0.174309,0.414714,0.0627407,-0.208511,-0.0558238,0.0752277,0.00899869,0.0832652
-0.0450298,0.174933,0.413799,-0.0107588,-0.151712,-0.0396629,0.0777139,-0.00273131,0.101507
-0.0477447,0.174011,0.413104,-0.0812628,-0.144085,-0.0240768,0.0845272,-0.0180277,0.0933645
-0.0497557,0.17243,0.412775,-0.0673994,-0.0875033,0.00069306,0.101656,-0.0308004,0.0755348
-0.0510513,0.170784,0.413171,-0.103374,-0.0246351,0.038947,0.0994201,-0.0370759,0.0716771
-0.0510645,0.168543,0.413813,-0.116219,0.00534334,0.0390709,0.0978807,-0.0515375,0.0509972
-0.0510637,0.165837,0.414706,-0.164058,0.0033773,0.0643388,0.10744,-0.0483317,0.0400335
-0.0513523,0.161971,0.4158,-0.224539,-0.0298507,0.063617,0.0975482,-0.0517493,0.0211024
-0.0520541,0.157244,0.416952,-0.242853,-0.0174432,0.0747131,0.104306,-0.0574836,-0.0134159
-0.0517137,0.152735,0.418056,-0.21094,0.0388143,0.0510155,0.0732905,-0.0541414,-0.0382617
-0.050693,0.149309,0.418207,-0.139035,0.0291991,-0.0109016,0.0638863,-0.0450313,-0.0806794
-0.0504572,0.14757,0.417766,-0.0402218,-0.0403752,-0.0128007,0.086051,-0.0313863,-0.110028
-0.052547,0.148167,0.417806,0.0875148,-0.170998,0.0140083,0.108283,-0.0303987,-0.114006
-0.0567438,0.150782,0.418377,0.158066,-0.241646,0.0297149,0.107843,-0.0185355,-0.0757577
-0.0613602,0.154202,0.419075,0.182263,-0.209928,0.0168797,0.0975052,-0.018512,-0.0259018
-0.0649071,0.157734,0.419554,0.168251,-0.142622,0.0166277,0.105255,-0.0189751,0.0125448
-0.0665404,0.160769,0.420462,0.140938,-0.0239208,0.064661,0.1276,-0.0241568,0.0252184
-0.0659686,0.162919,0.422659,0.0722633,0.087208,0.143967,0.139389,-0.0190446,0.0388872
-0.0644554,0.162544,0.426432,-0.0859252,0.112044,0.232916,0.142541,-0.0201323,0.0250987
-0.0626893,0.159849,0.431669,-0.135386,0.132727,0.300681,0.138708,-0.00344378,-0.0141844
-0.0603922,0.156675,0.437883,-0.148171,0.177791,0.332046,0.112122,0.0203383,-0.0463825
-0.0578139,0.153893,0.444366,-0.0862503,0.165875,0.33086,0.0915075,0.024853,-0.0711932
-0.0558146,0.15284,0.450916,0.0240065,0.108385,0.327984,0.073278,0.0362488,-0.0821662
-0.0561024,0.154095,0.457709,0.130027,-0.0353603,0.340607,0.0722848,0.0393808,-0.064063
-0.0596066,0.15638,0.464979,0.128719,-0.154525,0.36726,0.0570287,0.0413641,0.00710034
-0.0638683,0.158555,0.47277,0.140459,-0.152208,0.397094,0.0376643,0.0178612,0.07222
-0.0681728,0.160614,0.481346,0.112515,-0.125079,0.441835,0.0205209,0.0229314,0.120731
-0.0718039,0.161499,0.490906,0.032778,-0.0780637,0.495271,0.00659975,0.0194255,0.157479
-0.0739971,0.160175,0.501227,-0.10268,0.0235477,0.532515,-0.0231776,0.00871897,0.191804
-0.0740125,0.155595,0.51174,-0.287085,0.135772,0.537142,-0.0694501,-0.00740062,0.195267
-0.0722399,0.147153,0.521979,-0.488275,0.176372,0.540708,-0.0875842,-0.0102683,0.169077
-0.0700769,0.135179,0.532158,-0.622341,0.175477,0.546663,-0.102723,-0.012831,0.115597
-0.0680634,0.12169,0.541875,-0.64133,0.164547,0.49644,-0.144543,-0.00998851,0.0410879
-0.0652776,0.109428,0.549877,-0.516578,0.205727,0.377428,-0.178064,-0.00239284,-0.0204427
-0.0615435,0.100433,0.555538,-0.348774,0.230323,0.244713,-0.199288,0.00295898,-0.0552626
-0.0570785,0.0945669,0.558874,-0.230629,0.25168,0.120348,-0.200287,-0.00506122,-0.0563671
-0.0521334,0.0906482,0.559909,-0.158584,0.238812,0.0114771,-0.194488,-0.0146547,-0.047451
-0.0483371,0.087824,0.559469,-0.136063,0.128974,-0.0316991,-0.160806,-0.0216485,-0.040128
-0.0470316,0.0850709,0.558667,-0.151094,-0.00538758,-0.0336303,-0.141022,-0.0321886,-0.0233644
-0.0478321,0.0817792,0.557859,-0.187203,-0.064366,-0.0364829,-0.141524,-0.0389173,0.00233871
-0.0490264,0.0778568,0.556756,-0.207331,-0.0505487,-0.057591,-0.156861,-0.0413471,0.0144648
-0.0496665,0.0738916,0.555207,-0.199828,-0.0226728,-0.0775753,-0.164295,-0.0377631,0.00861472
-0.0496522,0.0701511,0.553138,-0.185914,0.0219712,-0.113991,-0.173772,-0.02741,0.00032413
-0.0490072,0.066893,0.55024,-0.167672,0.0502455,-0.163346,-0.179577,-0.0182703,-0.0141308
-0.047964,0.0640979,0.546281,-0.13669,0.0566882,-0.222263,-0.180226,0.00103525,-0.0367095
-0.0472544,0.062177,0.541216,-0.0888775,0.0250874,-0.274576,-0.174595,0.015674,-0.0552926
-0.0470138,0.0614559,0.535253,-0.0185255,0.00296358,-0.315622,-0.164487,0.0232398,-0.0623779
-0.0470233,0.0616093,0.528855,-0.0158773,0.0311668,-0.330757,-0.173252,0.0233013,-0.0523627
-0.0455205,0.0615423,0.522018,-0.0392233,0.0750872,-0.345795,-0.168525,0.00196369,-0.051389
-0.0427288,0.0604972,0.515343,-0.08891,0.13616,-0.319272,-0.151561,0.006368,-0.0674224
-0.0427288,0.0604972,0.515343,-0.08891,0.13616,-0.319272,-0.151561,0.006368,-0.0674224
-0.0399868,0.0588433,0.509401,-0.0976697,0.0958576,-0.268027,-0.134638,0.00996602,-0.109478
-0.0393531,0.0572603,0.504341,-0.0769732,-0.0555258,-0.245157,-0.125898,0.016717,-0.144654
-0.0420043,0.0566014,0.499107,0.00364773,-0.250047,-0.284644,-0.127173,0.0275796,-0.165843
-0.048291,0.0583314,0.492964,0.157673,-0.410537,-0.334985,-0.118054,0.0316566,-0.165478
-0.0569846,0.0635919,0.486263,0.329544,-0.480173,-0.358898,-0.101227,0.0205956,-0.128016
-0.0657302,0.0717639,0.479544,0.435173,-0.440803,-0.357821,-0.0878522,0.00880568,-0.0565772
-0.0733917,0.0810024,0.473167,0.426897,-0.373427,-0.339445,-0.0707286,-0.000461258,0.0155224
-0.0796495,0.0891768,0.467382,0.342309,-0.3104,-0.296297,-0.0483448,-0.00574411,0.0626624
-0.0851467,0.0955227,0.462481,0.256739,-0.293572,-0.24383,-0.0286251,-0.00647485,0.0671523
-0.090811,0.100336,0.458538,0.189531,-0.315037,-0.191854,-0.00451166,0.00933246,0.058574
-0.0969435,0.103609,0.455484,0.108262,-0.325849,-0.142156,0.0151417,0.0159911,0.0544814
-0.102868,0.105217,0.453113,0.0296988,-0.288227,-0.108068,0.0278848,0.0243959,0.0465248
-0.107771,0.105536,0.451215,-0.00881296,-0.220083,-0.0929389,0.0323634,0.0351647,0.0155377
-0.11161,0.105535,0.449133,-0.0128189,-0.188291,-0.114684,0.0410724,0.0527113,-0.0104387
-0.115044,0.105592,0.446569,-0.0092594,-0.194398,-0.145242,0.0540158,0.0663336,-0.0309724
-0.119129,0.106028,0.443474,0.0169594,-0.258834,-0.162655,0.0678717,0.0720012,-0.0381456
-0.124788,0.106881,0.440189,0.0238837,-0.330273,-0.173223,0.0828764,0.0757936,-0.0211589
-0.130917,0.107825,0.436513,0.0231159,-0.308273,-0.200277,0.0808347,0.0720782,0.0165687
-0.135492,0.108895,0.432395,0.0278582,-0.188182,-0.222231,0.0722813,0.0603099,0.0547903
-0.137184,0.110202,0.427936,0.0276601,-0.07243,-0.228313,0.0714412,0.0435731,0.0774456
-0.137458,0.110717,0.42339,-0.036112,-0.00528344,-0.232855,0.0718399,0.0408803,0.0933892
-0.136729,0.110203,0.418769,-0.0834456,0.0256403,-0.20791,0.0731597,0.024088,0.0973437
-0.13561,0.108449,0.414927,-0.135849,0.0616433,-0.147323,0.0727094,0.0132811,0.0922369
-0.133659,0.105899,0.412112,-0.154527,0.103825,-0.0977721,0.0552136,0.000476189,0.07757
-0.131062,0.102624,0.409992,-0.204465,0.12773,-0.0680509,0.0377292,-0.00281067,0.063829
-0.128219,0.0980705,0.408344,-0.262696,0.139029,-0.0344858,0.0242412,-0.0143149,0.041881
-0.125092,0.0926699,0.407472,-0.277319,0.163798,0.0143858,0.0142603,-0.0303111,0.00793326
-0.121375,0.0873684,0.407431,-0.245315,0.203942,0.0471291,0.00191777,-0.0328294,-0.0277447
-0.117225,0.0831266,0.407923,-0.171059,0.203507,0.0478271,-0.0178308,-0.0337445,-0.0652087
-0.113673,0.0805008,0.408464,-0.0871209,0.15839,0.0367776,-0.0257791,-0.032791,-0.0834934
-0.111114,0.0794645,0.409114,-0.0183313,0.106604,0.0459444,-0.0205373,-0.0416822,-0.0840558
-0.109137,0.079493,0.410311,0.0253275,0.104872,0.0750558,-0.0186817,-0.0539983,-0.0762731
-0.107233,0.0802321,0.411989,0.0605667,0.0992959,0.0841155,-0.020316,-0.0641868,-0.076142
-0.105754,0.0816509,0.414046,0.10006,0.0738189,0.110314,-0.00593966,-0.0607127,-0.0800819
-0.104657,0.0837603,0.416899,0.14032,0.053532,0.149112,0.00377317,-0.0655227,-0.0855268
-0.104363,0.0865935,0.42046,0.171825,0.00419075,0.177822,0.0140771,-0.0594802,-0.082791
-0.105324,0.0899246,0.424692,0.204991,-0.0665027,0.205741,0.0248703,-0.0478918,-0.0797652
-0.107704,0.0940879,0.429602,0.256504,-0.126214,0.235683,0.0358538,-0.0352165,-0.0729513
-0.111109,0.0992466,0.435246,0.315993,-0.158093,0.264936,0.0412126,-0.0181953,-0.0519351
-0.115017,0.105265,0.441376,0.347769,-0.16434,0.280257,0.039971,-0.00137487,-0.0130977
-0.118893,0.111284,0.447974,0.322966,-0.153669,0.300031,0.0385638,0.00886682,0.0330937
-0.122363,0.116595,0.454712,0.285227,-0.11145,0.301263,0.0302408,0.0239852,0.0683343
-0.124814,0.121112,0.461298,0.239334,-0.059583,0.295602,0.0223519,0.0389377,0.0877663
-0.126363,0.124686,0.467544,0.194392,-0.0239749,0.276289,0.0110192,0.0508315,0.0928766
-0.127384,0.127304,0.473425,0.143052,-0.00251484,0.271754,0.0133863,0.0577467,0.0926814
-0.127868,0.128944,0.479078,0.0905067,0.0321369,0.264351,0.0100828,0.0599985,0.0866446
-0.127597,0.129759,0.484344,0.0604755,0.054822,0.239019,0.0020667,0.0638278,0.0683556
-0.127027,0.13013,0.488927,0.037496,0.0633505,0.20775,0.00183548,0.0720241,0.0479175
-0.125994,0.130374,0.493018,0.0366768,0.0885348,0.194293,0.0028442,0.0676121,0.0321311
-0.124493,0.130293,0.496873,0.00234257,0.105377,0.191204,0.00712239,0.0626943,0.0195863
-0.123122,0.129557,0.500648,-0.0241515,0.0829395,0.194591,0.0126054,0.0581496,-0.0023222
-0.122561,0.128379,0.504553,-0.0386682,0.0199361,0.206478,0.0191516,0.06246,-0.0133342
-0.123456,0.126727,0.508624,-0.0601116,-0.0479759,0.210678,0.0168694,0.0597831,-0.0158132
-0.123456,0.126727,0.508624,-0.0601116,-0.0479759,0.210678,0.0168694,0.0597831,-0.0158132
-0.125058,0.124905,0.512556,-0.0482601,-0.0510015,0.198482,0.00761092,0.0527426,-0.00421727
-0.126094,0.123294,0.516262,-0.0404761,-0.00971289,0.188057,-0.000285782,0.040157,0.0168022
-0.126109,0.121282,0.519906,-0.0744118,0.0376519,0.194172,-0.00286466,0.0274791,0.0420987
-0.125334,0.118385,0.523573,-0.130183,0.0545166,0.201796,-0.00678872,0.015173,0.0594455
-0.124691,0.114271,0.527144,-0.207349,0.0408473,0.199507,-0.0125814,0.00820303,0.0635542
-0.124343,0.108944,0.530361,-0.262693,0.0430093,0.181049,-0.0191533,0.00354952,0.0563735
-0.123411,0.103242,0.532955,-0.268217,0.0855053,0.146467,-0.031473,-0.00352428,0.0377238
-0.121657,0.0976557,0.534849,-0.265117,0.109028,0.106655,-0.0380036,-0.00932618,0.0181988
-0.119633,0.0922625,0.535865,-0.261972,0.10558,0.0562352,-0.0427813,-0.0155649,0.00530767
-0.117652,0.087071,0.53588,-0.253509,0.0913049,0.00691082,-0.0478738,-0.0227038,-0.0121247
-0.116003,0.0823114,0.534926,-0.228346,0.0728505,-0.0466842,-0.0500384,-0.0300251,-0.0275398
-0.114795,0.0783246,0.533152,-0.191794,0.0313138,-0.0828919,-0.0486803,-0.0352503,-0.0418844
-0.114503,0.074835,0.530761,-0.189569,-0.0159598,-0.112223,-0.0448036,-0.0425291,-0.0429592
-0.114724,0.0714774,0.527869,-0.173403,-0.0228644,-0.132271,-0.0415816,-0.0531256,-0.0465095
-0.115142,0.0687187,0.52482,-0.147228,-0.0100986,-0.141989,-0.042579,-0.0553435,-0.0540101
-0.115236,0.0667733,0.521675,-0.0935873,-0.0246031,-0.146089,-0.0417994,-0.0574371,-0.0585135
-0.115519,0.0655078,0.518573,-0.0719904,-0.0234394,-0.148269,-0.042883,-0.0543967,-0.061011
-0.115962,0.06483,0.515523,-0.0335164,-0.0330461,-0.141104,-0.0389137,-0.0582469,-0.0659469
-0.116688,0.0649024,0.512903,0.00451112,-0.0599645,-0.119751,-0.0351435,-0.055123,-0.0728867
-0.118091,0.065693,0.510514,0.0388454,-0.0930315,-0.128593,-0.0418155,-0.041715,-0.0670137
-0.120069,0.0670198,0.507985,0.0586654,-0.111957,-0.142716,-0.0456186,-0.0358288,-0.0561509
-0.12218,0.0687479,0.505245,0.0863522,-0.117182,-0.147908,-0.036477,-0.0380414,-0.0493044
-0.124224,0.0712555,0.502629,0.130058,-0.109308,-0.144698,-0.0255645,-0.0321373,-0.0423132
-0.12623,0.0745606,0.4999,0.162514,-0.110002,-0.171977,-0.026127,-0.0222186,-0.0284739
-0.128381,0.0783169,0.496581,0.167572,-0.122056,-0.204417,-0.0200075,-0.0189616,-0.0109644
-0.130469,0.0822213,0.492846,0.170349,-0.112967,-0.211972,-0.00565523,-0.0178621,0.00336444
-0.132114,0.0861147,0.48902,0.168135,-0.0811969,-0.216944,0.00491434,-0.0190942,0.0142084
-0.133141,0.0899086,0.485179,0.156984,-0.0552828,-0.216851,0.0149935,-0.0140027,0.0235998
-0.13403,0.0932546,0.481352,0.11778,-0.0655033,-0.210275,0.0169902,-0.0115862,0.0276189
-0.134864,0.0958566,0.477339,0.0906147,-0.0451558,-0.225148,0.0188331,-0.0070428,0.0245938
-0.134918,0.0985849,0.472856,0.126262,-0.00599084,-0.252071,0.0122432,0.000631727,0.0131395
-0.134082,0.102247,0.467983,0.170197,0.0289568,-0.278519,0.015307,0.00847125,0.00953031
-0.132712,0.106383,0.46269,0.1619,0.047149,-0.297831,0.0169815,0.019101,0.0266186
-0.130973,0.109775,0.457082,0.0955007,0.0639941,-0.296116,0.0209259,0.0208251,0.0449616
-0.128964,0.111476,0.45136,0.000696505,0.0715112,-0.294005,0.0190596,0.0179832,0.0499322
-0.126847,0.111574,0.445344,-0.0617855,0.0785323,-0.303603,0.0125457,0.0264582,0.0365332
-0.124421,0.110846,0.439181,-0.078438,0.0943066,-0.300387,0.0110489,0.0328148,0.0115097
-0.121647,0.110237,0.43274,-0.0543223,0.115019,-0.339211,-0.0123847,0.0401898,-0.00725043
-0.118591,0.110572,0.425255,-0.00224521,0.0965056,-0.402293,-0.0240108,0.0488687,-0.0160173
-0.116415,0.111909,0.416761,0.0321706,0.0345904,-0.448428,-0.0154182,0.0546992,-0.0112268
-0.114933,0.113646,0.407786,0.0299502,0.0292389,-0.457517,-0.0113954,0.0447068,0.0117745
-0.112846,0.115008,0.398663,-0.00392551,0.0797976,-0.463383,-0.0157773,0.0326776,0.0395659
-0.109794,0.115483,0.389329,-0.0498697,0.123852,-0.467472,-0.0173617,0.0298999,0.0494612
-0.106647,0.114979,0.380056,-0.110414,0.0769179,-0.444167,-0.00352588,0.0268962,0.0411438
-0.103981,0.113246,0.371058,-0.139866,0.0844285,-0.432589,-0.00528447,0.0287904,0.0273057
-0.101553,0.111405,0.362386,-0.141486,0.0723558,-0.412616,-0.0090365,0.0255579,0.00664026
-0.0991812,0.10934,0.353864,-0.149214,0.0720783,-0.412862,-0.014213,0.0282962,-0.000770688
-0.0967045,0.107128,0.345282,-0.160965,0.0825836,-0.419866,-0.0212939,0.0220385,-0.00935584
-0.0942584,0.104667,0.336553,-0.169093,0.0675557,-0.425015,-0.0206692,0.0209951,-0.0173184
-0.0923813,0.10219,0.327693,-0.156329,0.0269149,-0.431442,-0.0138221,0.0230327,-0.0321485
-0.0913588,0.100287,0.318615,-0.110341,-0.0133514,-0.457823,-0.0182201,0.0191103,-0.0413089
-0.0911641,0.0996139,0.309001,-0.0484769,-0.0550226,-0.492656,-0.0179644,0.0177843,-0.0338086
-0.0912815,0.100124,0.298808,0.00719514,-0.0560182,-0.52474,-0.0157775,0.0108608,-0.0119888
-0.0903583,0.101821,0.287925,0.0765242,0.0658838,-0.580425,-0.0150293,0.00737688,0.0154204
-0.0903583,0.101821,0.287925,0.0765242,0.0658838,-0.580425,-0.0150293,0.00737688,0.0154204
-0.0867216,0.105358,0.275924,0.154194,0.165839,-0.643324,-0.0332826,0.00134285,0.0270948
-0.0819327,0.109295,0.263015,0.112701,0.155118,-0.661346,-0.00974222,-0.00276898,0.0529698
-0.0781567,0.111219,0.250347,-0.0313004,0.0863051,-0.603709,0.0277443,-0.0235464,0.0727732
-0.0756378,0.109876,0.238929,-0.186775,0.0476372,-0.525576,0.0388704,-0.0431773,0.0651177
-0.0734604,0.105712,0.228527,-0.293387,0.0719767,-0.489372,0.0243243,-0.0492543,0.0341856
-0.0703712,0.100308,0.218313,-0.307297,0.133692,-0.490736,0.0124799,-0.0420568,-0.0260134
-0.0660472,0.0956186,0.20803,-0.225187,0.195292,-0.502613,0.00496779,-0.0414593,-0.0966431
-0.0616675,0.092888,0.19721,-0.127185,0.149672,-0.562282,-0.00708812,-0.0347632,-0.139443
-0.0587645,0.0920491,0.185464,-0.020678,0.00861108,-0.593995,0.00696842,-0.0259701,-0.166749
-0.0590224,0.0937064,0.173752,0.124172,-0.162839,-0.59121,0.033293,-0.0281957,-0.172671
-0.0623903,0.0981941,0.162213,0.244993,-0.262305,-0.581981,0.044624,-0.0229963,-0.127405
-0.0665734,0.104701,0.151068,0.323275,-0.254689,-0.571613,0.040632,-0.0321932,-0.0605967
-0.0698197,0.11223,0.140341,0.346277,-0.188839,-0.540767,0.049564,-0.0340783,0.00578368
-0.0716642,0.119793,0.130626,0.341913,-0.10973,-0.474344,0.0687093,-0.0352477,0.0478869
-0.0724687,0.126996,0.122469,0.309197,-0.0784305,-0.384936,0.0802908,-0.0342034,0.0687958
-0.0733393,0.132908,0.116176,0.231503,-0.088206,-0.284641,0.0878404,-0.0226493,0.0817475
-0.074209,0.136948,0.111645,0.145129,-0.0580313,-0.19558,0.0837769,-0.0106965,0.0841938
-0.0747839,0.139422,0.108625,0.077833,-0.0434797,-0.125422,0.074096,0.000329956,0.0718181
-0.0752263,0.140543,0.106786,0.0211761,-0.04427,-0.0700842,0.0687076,0.0137225,0.0554551
-0.0755151,0.140586,0.10566,-0.0163656,-0.00198489,-0.0470314,0.0521161,0.0253163,0.0329513
-0.0754231,0.140376,0.104604,-0.00686196,-0.00635152,-0.0540444,0.0416515,0.0356366,0.000730455
-0.0757585,0.140737,0.103467,0.0338277,-0.0510272,-0.0584665,0.0478381,0.0488725,-0.0186779
-0.0767837,0.141755,0.102296,0.0573726,-0.0736716,-0.0596886,0.0562092,0.0480038,-0.0105516
-0.0778289,0.143019,0.101152,0.0567747,-0.0507466,-0.0606367,0.0489719,0.0421753,0.0177388
-0.0781241,0.144061,0.0999856,0.0488789,-0.0132569,-0.0607114,0.0465965,0.0306785,0.0349473
-0.0780482,0.144825,0.0989508,0.0360164,-0.0143988,-0.0429008,0.0538068,0.0243086,0.0463639
-0.0779089,0.145036,0.098236,-0.00163161,0.00102491,-0.0233937,0.0551471,0.0129977,0.0635713
-0.0772928,0.144398,0.0980322,-0.0524798,0.0488339,0.0120605,0.0596581,-0.00148863,0.0711871
-0.0756319,0.142712,0.0986591,-0.108407,0.106239,0.0612806,0.0594108,-0.0131671,0.0711259
-0.0735533,0.139555,0.100468,-0.190893,0.110743,0.148279,0.0738102,-0.0281333,0.0570737
-0.0718609,0.134644,0.104236,-0.274568,0.100745,0.262846,0.0767798,-0.0411772,0.034519
-0.0714976,0.127903,0.11017,-0.364538,-0.0175006,0.373624,0.0708379,-0.0508356,0.00463259
-0.0741596,0.119075,0.117873,-0.455177,-0.158235,0.448308,0.0561263,-0.0471917,-0.0181109
-0.0791548,0.109481,0.126648,-0.420049,-0.228286,0.498569,0.0294197,-0.0504051,-0.0545706
-0.0844209,0.101575,0.136013,-0.289879,-0.193299,0.485642,-0.0120154,-0.0452213,-0.0697782
-0.0883303,0.0966637,0.144621,-0.130177,-0.110309,0.405476,-0.0479385,-0.0317216,-0.0611762
-0.0907484,0.0948067,0.151947,-0.00807696,-0.0719676,0.346289,-0.0602957,-0.0306708,-0.0347407
-0.0930976,0.0943063,0.158782,-0.00204059,-0.108305,0.342777,-0.049082,-0.0383254,0.0147896
-0.0962339,0.0927963,0.165732,-0.0977047,-0.143579,0.358194,-0.0435491,-0.0487705,0.0652788
-0.0996447,0.0889207,0.17248,-0.215976,-0.11589,0.344788,-0.0624274,-0.0494562,0.0894513
-0.102125,0.0834397,0.17846,-0.257107,-0.0763121,0.299195,-0.078659,-0.0462652,0.0705525
-0.103496,0.0782374,0.183232,-0.208222,-0.0230481,0.229124,-0.0883038,-0.0340554,0.0418078
-0.103809,0.0743703,0.186805,-0.148759,0.0135609,0.165978,-0.0847436,-0.0297326,0.0267032
-0.103774,0.0714435,0.189165,-0.128216,0.0095816,0.0976072,-0.0857022,-0.0311562,0.0287957
-0.103651,0.0687789,0.190199,-0.134696,0.011724,0.0360145,-0.0852405,-0.033387,0.0331749
-0.103262,0.0661339,0.19003,-0.133577,0.0374921,-0.0208189,-0.0805573,-0.0391999,0.0307373
-0.101762,0.0637856,0.188938,-0.109036,0.113383,-0.0605643,-0.0769034,-0.0434506,0.022604
-0.0991923,0.0625314,0.186945,-0.0566832,0.163018,-0.124739,-0.0894726,-0.0504854,0.0058502
-0.096868,0.0624675,0.183911,-0.0295979,0.144121,-0.171601,-0.0782767,-0.0492979,-0.00579011
-0.0950698,0.0630073,0.180408,-0.00461281,0.14106,-0.178928,-0.0597569,-0.0624921,-0.011206
-0.0926249,0.06388,0.177262,-0.00187271,0.189175,-0.142036,-0.0513271,-0.0807556,-0.0116428
-0.0898389,0.0640458,0.174884,-0.06836,0.188251,-0.0976781,-0.0417524,-0.0940026,-0.0149706
-0.0868982,0.0625258,0.173294,-0.137724,0.186802,-0.042162,-0.0313464,-0.0974422,-0.0365275
-0.0831981,0.0598812,0.172993,-0.139327,0.224518,0.0311091,-0.0225918,-0.104186,-0.0905112
-0.0831981,0.0598812,0.172993,-0.139327,0.224518,0.0311091,-0.0225918,-0.104186,-0.0905112
-0.0789345,0.0580545,0.174066,-0.039379,0.216537,0.0866973,-0.0273746,-0.091331,-0.149294
-0.0757125,0.0585802,0.17592,0.0978914,0.10788,0.0916918,-0.0414482,-0.0723126,-0.182828
-0.07483,0.0614541,0.177941,0.194529,-0.0105201,0.0932823,-0.0443537,-0.0637218,-0.168682
-0.0764319,0.0660289,0.180437,0.275231,-0.111742,0.123476,-0.0328329,-0.0573863,-0.129589
-0.0791951,0.0719589,0.18375,0.341366,-0.126759,0.155518,-0.0348467,-0.0552088,-0.070564
-0.0812348,0.0789853,0.187327,0.389923,-0.0405555,0.136905,-0.0534153,-0.0469054,-0.00938064
-0.0815105,0.0868248,0.190354,0.406335,0.0430136,0.102756,-0.061495,-0.0346221,0.0329798
-0.0799043,0.0946461,0.192866,0.39422,0.129328,0.0933941,-0.0443325,-0.0343097,0.0605395
-0.0770531,0.102116,0.195726,0.374591,0.179166,0.141115,-0.0194629,-0.0331929,0.0609155
-0.0740224,0.108969,0.19964,0.330827,0.161081,0.196103,-0.0061805,-0.0273398,0.0620254
-0.071889,0.11442,0.204355,0.244575,0.104189,0.230508,-0.00257142,-0.0178176,0.063649
-0.0708404,0.11815,0.209792,0.167165,0.065008,0.285351,-0.00034523,-0.0132896,0.0570051
-0.0701741,0.120432,0.216103,0.101952,0.082457,0.31986,8.96379e-05,-0.00502704,0.0447569
-0.0687108,0.121465,0.222836,0.0499806,0.151717,0.339679,-0.0145364,0.00178157,0.0278113
-0.0657881,0.121736,0.22971,0.0241139,0.213989,0.345588,-0.0226975,0.00685739,0.000477135
-0.0626984,0.121554,0.236781,0.00831912,0.165233,0.351828,-0.018112,0.0137264,-0.0392057
-0.0610921,0.121383,0.243846,0.0186939,0.0816962,0.348579,-0.0118591,0.0276709,-0.0642634
-0.0608665,0.121715,0.250671,0.057542,0.0291995,0.325887,-0.0257416,0.0273595,-0.0716141
-0.0612093,0.122834,0.256911,0.0918214,0.0280547,0.289676,-0.0310714,0.0257998,-0.053308
-0.0604992,0.124905,0.26248,0.152445,0.106646,0.252176,-0.0375582,0.0243152,-0.0315174
-0.0583021,0.128281,0.267434,0.209363,0.168939,0.217649,-0.038752,0.0167233,-0.0101612
-0.0555666,0.132625,0.271762,0.243225,0.15375,0.192549,-0.0293766,0.0171092,0.0132021
-0.0534134,0.137314,0.275909,0.244084,0.116487,0.19683,-0.0170608,0.00895372,0.0402914
-0.0522148,0.141779,0.280385,0.223492,0.0574003,0.228878,-0.00219609,0.00350265,0.0757294
-0.0520413,0.145401,0.285715,0.16774,0.0392338,0.277877,0.0111552,0.00546983,0.107951
-0.0521093,0.147962,0.291945,0.124344,0.0629322,0.323288,0.0145141,0.00818592,0.128356
-0.0512688,0.150002,0.298987,0.120436,0.130594,0.355976,0.00953327,0.017192,0.13417
-0.0490079,0.152149,0.30631,0.132271,0.194499,0.350318,0.000448715,0.0300266,0.124712
-0.0460866,0.154454,0.31329,0.129252,0.190943,0.327937,-0.00121578,0.0504929,0.111345
-0.0436287,0.156352,0.319778,0.0763355,0.158309,0.311589,0.0123822,0.0590972,0.093292
-0.0410098,0.156626,0.32612,-0.0331331,0.177721,0.319224,0.0188748,0.056148,0.0813501
-0.0387921,0.15412,0.3322,-0.205912,0.148365,0.291751,0.0378344,0.0649336,0.0589215
-0.0365095,0.147729,0.337704,-0.420551,0.18617,0.277945,0.055925,0.0529535,0.0195157
-0.032409,0.136937,0.342833,-0.633107,0.290018,0.267068,0.0776475,0.0226787,-0.0441374
-0.0271625,0.123246,0.347494,-0.696455,0.257396,0.223618,0.0935578,0.0107364,-0.150392
-0.0236637,0.110139,0.350355,-0.581936,0.0787025,0.0826635,0.0749098,0.0242232,-0.241506
-0.0252011,0.101097,0.350315,-0.307042,-0.231799,-0.0588904,0.0852963,0.0225405,-0.2777
-0.0312837,0.0983113,0.347397,0.00957343,-0.365261,-0.223048,0.0829922,0.00307553,-0.220754
-0.0372904,0.100892,0.341889,0.196595,-0.263994,-0.32621,0.0594616,-0.0405909,-0.0875335
-0.0398512,0.105505,0.334885,0.216293,-0.0800237,-0.387666,0.0544659,-0.0782998,0.0412269
-0.0384149,0.109357,0.326927,0.125156,0.130071,-0.414614,0.0626816,-0.104865,0.128852
-0.0332411,0.110893,0.318742,0.00366584,0.281423,-0.40224,0.0696062,-0.124839,0.16085
-0.0260986,0.110228,0.310937,-0.0849494,0.319198,-0.371899,0.0773136,-0.125789,0.14586
-0.0198537,0.107938,0.303826,-0.159035,0.218709,-0.329811,0.082298,-0.117918,0.117962
-0.0157977,0.104364,0.297623,-0.205192,0.133486,-0.28446,0.0697425,-0.118222,0.0998121
-0.0132673,0.100106,0.291948,-0.232654,0.0611083,-0.281014,0.0408647,-0.12406,0.0898004
-0.0120116,0.0952729,0.285988,-0.249397,0.00707592,-0.314041,0.0111787,-0.122187,0.0776685
-0.0112606,0.0907906,0.279193,-0.202913,0.0150743,-0.35764,-0.00315976,-0.121813,0.0576774
-0.00954197,0.0876711,0.271551,-0.120075,0.0832759,-0.405424,-0.0195933,-0.129543,0.0323384
-0.00678013,0.0862207,0.262738,-0.0503388,0.0995663,-0.475646,-0.0366868,-0.131919,0.0146645
-0.00425891,0.0853701,0.252745,-0.0580194,0.0551569,-0.510474,-0.0271897,-0.134719,0.0024069
-0.0026526,0.0833344,0.242864,-0.16576,0.037338,-0.469727,0.00636657,-0.146437,-0.0116677
-0.00025113,0.0790892,0.233965,-0.248407,0.149665,-0.429624,0.0110689,-0.146564,-0.0453165
0.00506104,0.0744519,0.225289,-0.191451,0.283445,-0.447731,-0.00934994,-0.125309,-0.129706
0.00506104,0.0744519,0.225289,-0.191451,0.283445,-0.447731,-0.00934994,-0.125309,-0.129706
0.0120751,0.0725061,0.215649,0.020506,0.298653,-0.524223,-0.0315591,-0.0859894,-0.214294
0.0167783,0.0756536,0.204109,0.313819,0.0654064,-0.621971,-0.023657,-0.0470991,-0.252909
0.0157801,0.0840952,0.190965,0.525422,-0.248257,-0.666767,0.0059591,-0.0349003,-0.208568
0.010585,0.0945671,0.177598,0.505763,-0.353468,-0.650787,0.0159365,-0.0529278,-0.0790173
0.00571633,0.102935,0.164842,0.335727,-0.264104,-0.619256,-0.00342771,-0.0768428,0.0274208
0.00347544,0.107512,0.152321,0.134008,-0.0879368,-0.631028,-0.0232307,-0.0624643,0.0636629
0.00464869,0.108843,0.13928,0.0276382,0.0501025,-0.677904,-0.0397774,-0.0301508,0.0255353
0.00792477,0.109609,0.124803,0.0793245,0.106932,-0.767821,-0.0497014,-0.00312877,-0.0536244
0.0115093,0.112105,0.1085,0.183327,0.0646605,-0.852398,-0.0418018,0.016411,-0.106471
0.0143424,0.116187,0.0907916,0.246227,0.0234087,-0.903647,-0.0265438,0.0256242,-0.113076
0.0172119,0.121568,0.0721146,0.332398,0.0509784,-0.949865,-0.0305881,0.0333931,-0.119649
0.0208031,0.129301,0.0524084,0.482695,0.0460398,-0.99729,-0.0473613,0.0482836,-0.120776
0.0237436,0.139698,0.0316199,0.595768,-0.0377092,-1.04132,-0.042431,0.0691911,-0.0950583
0.0255716,0.151487,0.010166,0.629032,-0.0756717,-1.05529,-0.0367658,0.0805955,-0.0364946
0.027433,0.163512,-0.0113486,0.626155,-0.0916769,-1.03653,-0.0358222,0.0701181,0.0108418
0.0289905,0.17493,-0.0322806,0.576502,-0.106309,-0.994002,-0.0282694,0.0854468,0.0521045
0.0299736,0.185387,-0.0522723,0.530078,-0.144762,-0.942291,-0.0199646,0.0945442,0.077852
0.0306898,0.194891,-0.0709977,0.475697,-0.136958,-0.869319,-0.0202622,0.100352,0.102479
0.0315148,0.203066,-0.0881748,0.390271,-0.12053,-0.794881,-0.0246976,0.106321,0.118523
0.0329576,0.209431,-0.103934,0.303555,-0.0520971,-0.73147,-0.0291799,0.119021,0.120502
0.0355606,0.214081,-0.118254,0.206067,0.00699214,-0.653856,-0.0315829,0.12932,0.113319
0.0384745,0.216718,-0.130862,0.108613,0.000974726,-0.576538,-0.0316296,0.131271,0.0855505
0.0405103,0.217518,-0.141982,0.00946955,-0.0327491,-0.510946,-0.0309694,0.146853,0.071155
0.0417505,0.216318,-0.151824,-0.0893355,-0.0537561,-0.463781,-0.0421237,0.152181,0.0545633
0.0426013,0.213703,-0.161067,-0.1255,-0.0544269,-0.456467,-0.0628751,0.156767,0.0333419
0.043242,0.210969,-0.170454,-0.108179,-0.0905935,-0.473875,-0.0733828,0.169246,0.0171518
0.0429751,0.208288,-0.180205,-0.129226,-0.131805,-0.495788,-0.0768691,0.169814,0.0255939
0.0427998,0.204675,-0.190443,-0.191895,-0.0839098,-0.526421,-0.0939872,0.160632,0.0515794
0.044237,0.19992,-0.201463,-0.229896,0.00408728,-0.578624,-0.11132,0.149702,0.044599
0.0470745,0.194795,-0.213684,-0.224993,0.037023,-0.643613,-0.112451,0.152107,0.0128375
0.0506663,0.189763,-0.227241,-0.208375,0.0566665,-0.717461,-0.109748,0.145078,-0.0165562
0.0548008,0.18481,-0.242379,-0.213831,0.0771671,-0.796342,-0.107887,0.130171,-0.0298112
0.0594684,0.179639,-0.258717,-0.198603,0.0834382,-0.829372,-0.0747275,0.106256,-0.0575801
0.063369,0.175237,-0.27493,-0.139483,0.0148549,-0.79183,-0.0391329,0.0796911,-0.0936003
0.0651161,0.172171,-0.29051,-0.0723189,-0.117102,-0.761819,-0.0275937,0.0631983,-0.099194
0.0642492,0.169936,-0.305533,-0.0610818,-0.221281,-0.730206,-0.0241261,0.0445928,-0.0612683
0.0615447,0.167497,-0.319389,-0.102584,-0.274701,-0.646834,-0.01789,0.0132418,-0.0146561
0.0578398,0.163916,-0.331111,-0.190595,-0.282942,-0.534744,-0.0109359,-0.00603706,0.0314853
0.054262,0.158726,-0.340771,-0.267446,-0.218983,-0.454156,-0.0208998,-0.0141961,0.059905
0.0520834,0.152552,-0.348975,-0.296651,-0.127175,-0.392472,-0.048022,-0.0253312,0.0618601
0.0511893,0.146143,-0.356137,-0.30357,-0.0821837,-0.350315,-0.0604024,-0.0264348,0.0521922
0.050434,0.139705,-0.362437,-0.30859,-0.0839828,-0.313033,-0.0611214,-0.0258796,0.0415645
0.0495516,0.133042,-0.36831,-0.325592,-0.0805432,-0.307252,-0.0765442,-0.0281774,0.0330524
0.0491395,0.126234,-0.374193,-0.31619,-0.0329853,-0.309212,-0.0817642,-0.0378732,0.0105752
0.0494595,0.119762,-0.379753,-0.304034,0.00345711,-0.281114,-0.0686165,-0.0473331,-0.0196685
0.0502933,0.113573,-0.385081,-0.283622,0.0295784,-0.283868,-0.0630098,-0.0501531,-0.0517357
0.052098,0.108087,-0.390523,-0.225976,0.0815502,-0.288941,-0.0533574,-0.0519746,-0.0927406
0.0543444,0.104218,-0.396114,-0.121026,0.0697407,-0.288797,-0.0410073,-0.055165,-0.147229
0.0557273,0.102751,-0.401903,0.00834782,0.0256519,-0.296495,-0.019455,-0.0521839,-0.179441
0.0562058,0.103689,-0.407912,0.123983,-0.0468128,-0.293169,-0.0130278,-0.0523802,-0.17076
0.0554306,0.107022,-0.413591,0.240869,-0.0894693,-0.240212,0.0222921,-0.0524535,-0.144944
0.054116,0.112636,-0.417756,0.337092,-0.0871947,-0.14894,0.0324195,-0.0691361,-0.102609
0.0528739,0.119721,-0.420508,0.371288,-0.0670167,-0.096756,0.0191996,-0.0624195,-0.0382848
0.0523567,0.127031,-0.422731,0.378807,-0.0128182,-0.0886901,-0.00483777,-0.0607647,0.0128915
0.0523567,0.127031,-0.422731,0.378807,-0.0128182,-0.0886901,-0.00483777,-0.0607647,0.0128915
0.0529174,0.134952,-0.424847,0.427971,0.0362233,-0.0729851,-0.0120829,-0.0608917,0.033817
0.0542178,0.143649,-0.426195,0.438534,0.0786501,-0.0115195,-0.000502028,-0.0610377,0.0540113
0.0565315,0.151336,-0.425984,0.29895,0.184216,0.0755508,0.000907045,-0.0616438,0.0964122
0.0613218,0.154604,-0.42341,-0.00530911,0.348563,0.20677,0.00873769,-0.0735506,0.120096
0.0696674,0.150971,-0.417171,-0.401881,0.562749,0.38652,0.0148752,-0.0862197,0.091925
0.0797844,0.140536,-0.40731,-0.672798,0.563426,0.484245,0.00204907,-0.0634322,-0.0276266
0.0872475,0.128444,-0.397295,-0.554259,0.281138,0.377201,-0.055993,-0.00203539,-0.198839
0.0875452,0.121927,-0.391279,-0.121165,-0.190529,0.159993,-0.0855789,0.0422187,-0.306574
0.0800286,0.124424,-0.390515,0.344266,-0.504671,-0.0454369,-0.0817666,0.0590702,-0.247952
0.0697297,0.133641,-0.393045,0.542849,-0.530556,-0.11088,-0.0791075,0.0102885,-0.0733979
0.0603376,0.14346,-0.395744,0.408579,-0.422522,-0.0842853,-0.0484511,-0.0242979,0.0996968
0.0545094,0.148197,-0.397687,0.0614258,-0.169913,-0.0967721,-0.0453708,-0.0392194,0.215521
0.0554216,0.146311,-0.400405,-0.191266,0.231397,-0.196325,-0.0720744,-0.0403219,0.20467
0.0636009,0.142653,-0.405227,-0.091274,0.444263,-0.293202,-0.0523076,-0.014752,0.0555443
0.0728126,0.143071,-0.41137,0.177079,0.350382,-0.296647,0.0360273,0.0257929,-0.0696941
0.0778986,0.148501,-0.417209,0.387631,0.0647803,-0.228811,0.0957661,0.0479349,-0.098188
0.077435,0.15674,-0.421093,0.435894,-0.149448,-0.0787804,0.139152,0.053972,-0.0472161
0.0738207,0.164456,-0.421652,0.324983,-0.205594,0.0659309,0.134868,0.0599099,0.0334272
0.0695328,0.169225,-0.419995,0.142956,-0.180239,0.119288,0.102017,0.0979685,0.0860864
0.065605,0.170689,-0.417547,-0.0068301,-0.161152,0.129027,0.0939031,0.131822,0.0886794
0.0626889,0.169626,-0.4148,-0.10846,-0.0881339,0.133825,0.0984533,0.155508,0.0723806
0.0611831,0.16688,-0.411954,-0.182137,-0.0237398,0.122697,0.0990215,0.156081,0.0447639
0.0602062,0.162947,-0.40966,-0.220975,-0.0509124,0.0755321,0.0934134,0.156688,0.00829625
0.0585401,0.158889,-0.408685,-0.173617,-0.101315,-0.00678128,0.0902863,0.155704,-0.0242365
0.0560392,0.156404,-0.409496,-0.0669242,-0.158147,-0.0842569,0.0843375,0.132437,-0.0414058
