rotationRate_x,rotationRate_y,rotationRate_z,acceleration_x,acceleration_y,acceleration_z,relativeAltitude
0.00621516,-0.0276095,-0.0117917,0.0253709,0.011227,-0.048241,0.15062
0.129721,-0.147083,0.00830506,0.00813576,0.00610113,-0.0423902,0.15062
0.103275,-0.0787588,-0.0393159,-0.029303,-0.0251897,-0.01341,0.15062
-0.00042011,-0.0158292,-0.0895329,-0.0450926,-0.0216177,0.0163561,0.15062
-0.0251505,-0.0132602,-0.0801562,-0.0158846,-0.0119497,0.0158873,0.15062
0.00629665,-0.0544845,-0.0557444,-0.0038062,-0.00581485,0.00826615,0.15062
0.0329293,-0.109396,-0.0619661,-0.0179543,-0.00958496,0.0132608,0.15062
0.0189829,-0.133408,-0.0977446,-0.0278199,-0.0188273,0.0212775,0.15062
0.00416186,-0.11972,-0.120743,-0.0260169,-0.0141887,0.0175313,0.15062
-0.0036998,-0.115182,-0.136854,-0.0190615,-0.00705227,0.0143233,0.15062
-0.0247188,-0.138317,-0.141278,-0.00611788,-0.004408,0.0194721,0.15062
-0.040722,-0.160663,-0.14335,-0.00194217,-0.000620216,0.019074,0.15062
-0.0173557,-0.153797,-0.147015,0.00181461,-0.0024052,0.000771046,0.15062
0.0226149,-0.142799,-0.161841,-0.00165092,-0.00325471,-0.00920719,0.15062
0.0141791,-0.166225,-0.174052,0.00234152,-0.00587818,0.00502867,0.15062
-0.0177075,-0.149563,-0.1932,-0.000320055,-0.0083797,0.00761151,0.15062
-0.042885,-0.128818,-0.219744,-0.000506304,-0.0104703,0.00404096,0.15062
-0.0339022,-0.092119,-0.233675,0.00307305,-0.0129999,-0.0129918,0.15062
-0.0194388,-0.0608687,-0.235246,0.00912777,-0.00863057,-0.013084,0.15062
-0.0287969,-0.0541645,-0.24184,0.0053919,-0.0106374,0.00141221,0.15062
-0.0558927,-0.0672557,-0.261373,0.00274339,-0.0140194,0.0162705,0.15062
-0.0654255,-0.0729993,-0.278003,0.00231104,-0.0140085,0.0154138,0.15062
-0.0604003,-0.093782,-0.275067,0.00568081,-0.00389493,0.0121914,0.15062
-0.0539424,-0.122436,-0.277487,-0.000669308,-0.0023348,0.00575095,0.15062
-0.0446842,-0.113698,-0.27958,-0.00832127,-0.00100055,-0.00189239,0.15062
-0.0530974,-0.0723436,-0.302166,-0.0218662,0.00292605,0.000367701,0.15062
-0.077239,-0.0546515,-0.319385,-0.0242753,0.0021137,0.0180318,0.15062
-0.0952633,-0.0826286,-0.342778,-0.0317312,0.000801742,0.037714,0.15062
-0.126597,-0.14909,-0.357677,-0.0350812,0.00166419,0.05278,0.15062
-0.160609,-0.177323,-0.393802,-0.0468861,-0.00173473,0.0511327,0.15062
-0.213499,-0.207618,-0.422842,-0.052666,-0.00199166,0.0431679,0.15062
-0.237772,-0.228854,-0.442744,-0.0498195,-0.00212827,0.0243571,0.15062
-0.214326,-0.194171,-0.483673,-0.0667222,-0.0021297,-0.0113261,0.15062
-0.217812,-0.190573,-0.524455,-0.0770918,-0.00158453,-0.0147371,0.15062
-0.226567,-0.181813,-0.566509,-0.0822626,-0.00198564,-0.0212586,0.15062
-0.20004,-0.182855,-0.596871,-0.0836945,-0.00159097,-0.0370215,0.15062
-0.115302,-0.185684,-0.625412,-0.0879571,0.0025792,-0.05156,0.15062
-0.0543941,-0.168905,-0.647822,-0.0906922,-0.000184819,-0.0317002,0.15062
-0.0415891,-0.149212,-0.689129,-0.0975986,-0.00629859,0.00652134,0.15062
-0.0892192,-0.18196,-0.731001,-0.0988703,-0.0153279,0.0488014,0.15062
-0.127682,-0.222826,-0.759698,-0.0945839,-0.0212744,0.0591766,0.15062
-0.12162,-0.211926,-0.793605,-0.0983365,-0.0280738,0.0402607,0.15062
-0.0938859,-0.164686,-0.819766,-0.0941005,-0.0331363,0.0325587,0.15062
-0.100511,-0.148167,-0.817166,-0.075595,-0.0357971,0.0570643,0.15062
-0.121644,-0.195194,-0.805184,-0.0588141,-0.0499412,0.0826415,0.15062
-0.151479,-0.243586,-0.818495,-0.0566555,-0.0706974,0.0892774,0.15062
-0.19631,-0.239438,-0.833015,-0.0507379,-0.0890971,0.0774209,0.15062
-0.260939,-0.208792,-0.830542,-0.0371369,-0.099081,0.0735247,0.15062
-0.339951,-0.2083,-0.822753,-0.0302549,-0.117082,0.0681872,0.15062
-0.3541,-0.198092,-0.817538,-0.0254527,-0.138873,0.0307427,0.15062
-0.327961,-0.172518,-0.784208,-0.0075481,-0.150141,-0.00116938,0.15062
-0.327961,-0.172518,-0.784208,-0.0075481,-0.150141,-0.00116938,0
-0.321792,-0.132972,-0.730659,0.000975,-0.161664,-0.00661296,0
-0.281806,-0.0780498,-0.703574,-0.0091627,-0.181935,-0.0154845,0
-0.197824,-0.00674611,-0.691629,-0.0183152,-0.190315,-0.0166357,0
-0.117319,0.026398,-0.656176,-0.000300206,-0.195334,0.0179808,0
-0.0641029,0.0181474,-0.600449,0.0225657,-0.192516,0.0651407,0
-0.0808154,0.00909763,-0.552287,0.0329948,-0.193944,0.111353,0
-0.126859,0.0371565,-0.501554,0.0414395,-0.200785,0.128682,0
-0.115331,0.03936,-0.44371,0.0626516,-0.193615,0.114479,0
-0.0665291,0.0362576,-0.362583,0.0910882,-0.182414,0.0973604,0
-0.0509741,0.0127135,-0.273111,0.11097,-0.176859,0.095414,0
-0.0544769,0.0228882,-0.179452,0.132465,-0.169887,0.0800232,0
-0.0791815,0.13611,-0.0762767,0.140638,-0.153805,0.0503865,0
-0.11967,0.287098,0.0349994,0.149107,-0.146572,0.0202423,0
-0.178909,0.330436,0.164466,0.156987,-0.129051,-0.00136364,0
-0.223374,0.275926,0.321543,0.180656,-0.13972,-0.0344975,0
-0.318159,0.0437369,0.410873,0.13437,-0.148521,-0.0929182,0
-0.300554,-0.219063,0.413603,0.0588288,-0.143159,-0.243106,0
-0.0527957,-0.312173,0.440453,0.0435096,-0.0885733,-0.414263,0
0.263086,0.143609,0.463098,0.0127434,-0.0487423,-0.519999,0
0.448522,0.608768,0.478294,-0.017505,-0.00670433,-0.450743,0
0.542873,0.744949,0.476933,-0.027499,0.00466901,-0.284657,0
0.65967,0.674755,0.48787,-0.0215935,0.0342518,-0.142732,0
0.755371,0.528604,0.482173,-0.0182616,0.0545128,-0.0261107,0
0.698542,0.380573,0.475189,-0.0195232,0.0681565,0.0894976,0
0.522451,0.213894,0.449232,-0.018197,0.077346,0.165984,0
0.335604,0.11006,0.421417,-0.013312,0.0863543,0.167842,0
0.16456,0.0221497,0.389382,-0.0228371,0.108907,0.135825,0
0.036242,-0.0475148,0.331684,-0.0322798,0.116424,0.0825194,0
-0.0270411,-0.0334759,0.271856,-0.0366318,0.138501,0.0190828,0
-0.0224591,0.0375894,0.258767,-0.0255498,0.157877,-0.0289848,0
0.0348354,0.103708,0.283049,-0.00999726,0.16437,-0.0485151,0
0.138944,0.165819,0.293339,-0.0214312,0.15699,-0.0461026,0
0.189291,0.154877,0.281955,-0.0386335,0.145346,0.00676268,0
0.185355,0.121687,0.223902,-0.070941,0.123329,0.0632476,0
0.157385,0.113466,0.133168,-0.096014,0.103422,0.103976,0
0.0914288,0.102251,0.0322665,-0.10334,0.0861852,0.142634,0
-0.0212237,0.0616918,-0.0592357,-0.0936417,0.0693562,0.176272,0
-0.114812,0.0401307,-0.160073,-0.0845721,0.0498812,0.17222,0
-0.14924,0.0198867,-0.241593,-0.0716475,0.040321,0.154858,0
-0.145729,-0.0437316,-0.294258,-0.0472054,0.034813,0.140035,0
-0.155191,-0.0979965,-0.334892,-0.0284076,0.0219096,0.134718,0
-0.216672,-0.115747,-0.361004,-0.0219212,0.0115942,0.129352,0
-0.28695,-0.132263,-0.385771,-0.0224362,-0.000835985,0.11168,0
-0.365285,-0.198521,-0.402662,-0.012833,-0.0142412,0.0919901,0
-0.405742,-0.248386,-0.404434,-0.00932753,-0.0246337,0.045519,0
-0.410895,-0.311733,-0.4056,-0.0194628,-0.0386492,-0.00636345,0
-0.383291,-0.326465,-0.418679,-0.0387224,-0.0555433,-0.0671324,0
-0.34599,-0.283857,-0.440906,-0.0591809,-0.0778265,-0.106157,0
-0.267083,-0.215686,-0.462493,-0.0671093,-0.0951739,-0.136077,0
-0.158992,-0.191395,-0.46736,-0.0678805,-0.105988,-0.131083,0
-0.158992,-0.191395,-0.46736,-0.0678805,-0.105988,-0.131083,0.00263977
0.0133628,-0.21556,-0.468399,-0.0865105,-0.14719,-0.055235,0.00263977
0.0464438,-0.221698,-0.510587,-0.105514,-0.170066,-0.00324172,0.00263977
0.012692,-0.285159,-0.543433,-0.09748,-0.175118,0.0546682,0.00263977
0.0133175,-0.402502,-0.612133,-0.093124,-0.193652,0.0750499,0.00263977
0.0395284,-0.516365,-0.642029,-0.0447212,-0.195498,0.0808747,0.00263977
-0.0548786,-0.690669,-0.606951,0.0286261,-0.211207,0.0997674,0.00263977
-0.34292,-1.0424,-0.592458,0.0450557,-0.199998,0.109664,0.00263977
-0.691359,-1.35256,-0.6711,-0.0111491,-0.174308,-0.00640082,0.00263977
-0.852051,-1.24973,-0.758297,-0.0371863,-0.11233,-0.262875,0.00263977
-0.570929,-0.73104,-0.727018,0.00194651,-0.0396818,-0.543712,0.00263977
-0.00277276,-0.236266,-0.54419,0.0811779,0.0535825,-0.640492,0.00263977
0.399454,0.00994901,-0.424721,0.0619892,0.08791,-0.505736,0.00263977
0.559566,0.0346213,-0.403266,0.0181052,0.103566,-0.300568,0.00263977
0.654825,0.0362924,-0.421019,0.00789548,0.128285,-0.151855,0.00263977
0.686516,0.0446757,-0.4148,0.0124546,0.154376,-0.034362,0.00263977
0.618426,0.0177171,-0.379581,0.00857837,0.186696,0.0781392,0.00263977
0.439814,0.017717,-0.374622,-0.0253687,0.199565,0.159789,0.00263977
0.246455,0.0142706,-0.438657,-0.0683618,0.188905,0.208912,0.00263977
0.109266,-0.0437379,-0.530096,-0.0713242,0.174338,0.236403,0.00263977
0.0321394,-0.0589159,-0.572109,-0.0326939,0.170252,0.245026,0.00263977
-0.0421287,-0.0503792,-0.585603,0.0118796,0.160276,0.267034,0.00263977
-0.145647,-0.0270856,-0.544154,0.0672035,0.136138,0.288942,0.00263977
-0.235085,0.0122319,-0.486132,0.108578,0.107844,0.287382,0.00263977
-0.313507,0.058925,-0.416295,0.141594,0.0779394,0.282165,0.00263977
-0.424968,0.0997892,-0.340246,0.156509,0.0404175,0.281425,0.00263977
-0.537226,0.157958,-0.252509,0.178011,0.00220865,0.261977,0.00263977
-0.656099,0.218528,-0.162171,0.189408,-0.0276057,0.234155,0.00263977
-0.774489,0.210056,-0.0208675,0.204022,-0.0433856,0.189159,0.00263977
-0.772675,0.126335,0.129845,0.186612,-0.0600317,0.0959259,0.00263977
-0.63048,0.066917,0.264564,0.159942,-0.070123,-0.0116747,0.00263977
-0.423997,0.0801133,0.416361,0.134256,-0.0677488,-0.0922766,0.00263977
-0.244115,0.188124,0.560918,0.103046,-0.0682694,-0.130111,0.00263977
-0.0816987,0.333202,0.694202,0.0839258,-0.0759302,-0.127523,0.00263977
0.0745343,0.413017,0.830479,0.0653853,-0.079457,-0.0891179,0.00263977
0.171319,0.325717,0.945216,0.0454271,-0.0979903,-0.0232134,0.00263977
0.200921,0.176679,1.01851,0.0192423,-0.120979,0.019586,0.00263977
0.148477,0.0708086,1.05695,-0.019781,-0.136056,0.020274,0.00263977
0.0096027,-0.0260903,1.0232,-0.075919,-0.149771,-0.00651282,0.00263977
-0.115495,-0.0344039,0.905761,-0.114709,-0.184393,-0.0861157,0.00263977
-0.167639,0.0796857,0.774436,-0.116445,-0.19739,-0.188156,0.00263977
-0.217617,0.156329,0.685854,-0.0866521,-0.196156,-0.257774,0.00263977
-0.295493,-0.0713113,0.669562,-0.0451344,-0.168714,-0.287151,0.00263977
-0.283461,-0.298492,0.673023,-0.0364334,-0.134647,-0.384556,0.00263977
-0.0484191,-0.163109,0.702056,-0.0131749,-0.0985303,-0.518291,0.00263977
0.264319,0.346801,0.794394,0.0128022,-0.0495432,-0.550628,0.00263977
0.537416,0.682476,0.951827,0.0612818,-0.0135719,-0.418039,0.00263977
0.694324,0.635215,1.10696,0.0904253,0.00745696,-0.181906,0.00263977
0.769451,0.370612,1.22344,0.0985422,0.0169035,0.00923043,0.00263977
0.783338,0.0652861,1.32903,0.107982,0.0426568,0.133852,0.00263977
0.79126,-0.121486,1.42669,0.125054,0.0681067,0.189982,0.00263977
0.79126,-0.121486,1.42669,0.125054,0.0681067,0.189982,0.00527954
0.834752,-0.102678,1.51804,0.148457,0.0983839,0.201889,0.00527954
0.794492,0.0163646,1.60265,0.173722,0.127622,0.249285,0.00527954
0.604445,0.0343601,1.6831,0.19928,0.12983,0.315371,0.00527954
0.358479,-0.177967,1.73339,0.230486,0.117988,0.352117,0.00527954
0.112519,-0.475699,1.78021,0.263615,0.119347,0.330329,0.00527954
-0.141383,-0.674554,1.82039,0.273148,0.131717,0.246808,0.00527954
-0.300759,-0.715523,1.80076,0.262948,0.121489,0.0995508,0.00527954
-0.308808,-0.58935,1.76057,0.259052,0.123591,-0.0613838,0.00527954
-0.189375,-0.421912,1.75173,0.263603,0.13917,-0.19406,0.00527954
0.00347982,-0.282107,1.79935,0.279672,0.153429,-0.274111,0.00527954
0.220497,-0.0894662,1.85966,0.273042,0.155121,-0.312896,0.00527954
0.418708,0.121784,1.89017,0.241111,0.144435,-0.290748,0.00527954
0.55045,0.213692,1.83852,0.186082,0.124035,-0.20678,0.00527954
0.624436,0.299864,1.75872,0.155779,0.100202,-0.12055,0.00527954
0.674226,0.426744,1.66814,0.136526,0.090796,-0.0477986,0.00527954
0.673044,0.493033,1.59588,0.126662,0.0974443,0.0305492,0.00527954
0.639899,0.463303,1.53753,0.124094,0.100081,0.0857523,0.00527954
0.607242,0.410148,1.48259,0.118867,0.102678,0.0991387,0.00527954
0.534175,0.361314,1.41762,0.11391,0.0955819,0.0977542,0.00527954
0.435543,0.3613,1.37367,0.107289,0.0983278,0.067522,0.00527954
0.327064,0.3585,1.35137,0.0884052,0.109885,0.0319983,0.00527954
0.186616,0.341032,1.33255,0.0553165,0.115507,-0.0069986,0.00527954
0.0167823,0.33748,1.27814,0.00545681,0.10542,-0.0604758,0.00527954
-0.153498,0.361885,1.21006,-0.0418462,0.107464,-0.129332,0.00527954
-0.207053,0.490025,1.17752,-0.0719495,0.135114,-0.233885,0.00527954
-0.032235,0.671974,1.27301,-0.065246,0.183433,-0.330435,0.00527954
0.297188,0.757532,1.44613,-0.0563208,0.225454,-0.340939,0.00527954
0.462488,0.562235,1.59939,-0.0744632,0.238242,-0.215028,0.00527954
0.400942,0.240621,1.65672,-0.117403,0.219142,-0.0913004,0.00527954
0.276133,0.14204,1.6454,-0.165432,0.209002,-0.0725918,0.00527954
0.215953,0.355574,1.6703,-0.154885,0.209197,-0.0959929,0.00527954
0.233423,0.581432,1.73845,-0.134193,0.21305,-0.0551028,0.00527954
0.31407,0.616317,1.7635,-0.1192,0.17791,0.0515553,0.00527954
0.356813,0.50527,1.74995,-0.101538,0.152585,0.171586,0.00527954
0.339176,0.411884,1.71541,-0.069102,0.120252,0.273602,0.00527954
0.271369,0.289213,1.70777,-0.0172278,0.11033,0.34283,0.00527954
0.173788,0.232023,1.74251,0.0290049,0.111777,0.370168,0.00527954
0.0862005,0.24072,1.7546,0.0459144,0.112149,0.358852,0.00527954
0.0432374,0.25265,1.77782,0.0838496,0.10897,0.317444,0.00527954
0.0309977,0.296667,1.84625,0.123592,0.129893,0.270182,0.00527954
0.055089,0.323052,1.95209,0.164585,0.144741,0.223905,0.00527954
0.121356,0.328088,2.09186,0.205488,0.15994,0.170908,0.00527954
0.212566,0.306272,2.28754,0.237151,0.185909,0.123081,0.00527954
0.271622,0.257893,2.46172,0.231957,0.196594,0.082599,0.00527954
0.258164,0.207135,2.61846,0.20297,0.207797,0.0527136,0.00527954
0.13516,0.0171993,2.66165,0.126455,0.216343,0.0218862,0.00527954
-0.023751,-0.109949,2.55979,0.0433635,0.19726,-0.0583407,0.00527954
-0.0448142,0.0559695,2.41829,0.016678,0.179581,-0.197703,0.00527954
0.0758691,0.183977,2.36626,0.0643872,0.193714,-0.271674,0.00527954
0.264051,0.0843425,2.42987,0.160474,0.198476,-0.262151,0.00527954
0.264051,0.0843425,2.42987,0.160474,0.198476,-0.262151,0.00793457
0.279115,-0.167466,2.47697,0.199852,0.161726,-0.199566,0.00793457
0.128293,-0.462406,2.38912,0.159788,0.093153,-0.191159,0.00793457
0.0854884,-0.574846,2.15391,0.105972,0.0453603,-0.309437,0.00793457
0.152767,-0.251028,1.91246,0.101737,0.032753,-0.437348,0.00793457
0.21088,0.332196,1.74209,0.124072,0.0383821,-0.449991,0.00793457
0.22748,0.731534,1.6144,0.169271,0.0261335,-0.317342,0.00793457
0.243545,0.914728,1.48724,0.199662,-0.00660658,-0.169923,0.00793457
0.256873,0.987207,1.36585,0.197019,-0.0135207,-0.0577955,0.00793457
0.208737,1.0012,1.26162,0.20697,-0.0373601,0.0400706,0.00793457
0.0977815,0.973243,1.22719,0.250978,-0.0413862,0.110613,0.00793457
-0.0237108,0.947444,1.21521,0.257541,-0.0440699,0.141745,0.00793457
-0.134237,0.915568,1.20907,0.250877,-0.0414588,0.146259,0.00793457
-0.202487,0.873407,1.22549,0.244828,-0.0282891,0.131728,0.00793457
-0.188952,0.826764,1.3076,0.237951,-0.000503622,0.102434,0.00793457
-0.079903,0.760103,1.44214,0.220446,0.027894,0.0739048,0.00793457
-0.0158004,0.656041,1.55757,0.174554,0.0568479,0.0957124,0.00793457
-0.0225459,0.532939,1.62909,0.119286,0.0584615,0.13395,0.00793457
0.00672327,0.417487,1.64772,0.0566927,0.0641715,0.137821,0.00793457
0.114619,0.383514,1.61945,-0.00367668,0.0615564,0.119473,0.00793457
0.111592,0.391813,1.52225,-0.0531932,0.0663477,0.142031,0.00793457
0.0369193,0.387312,1.42147,-0.0767614,0.0730184,0.154878,0.00793457
-0.0477384,0.321668,1.31968,-0.0955679,0.111405,0.142247,0.00793457
-0.153804,0.188502,1.26179,-0.0904502,0.158354,0.128347,0.00793457
-0.158205,0.0452115,1.24091,-0.0934527,0.203189,0.0695161,0.00793457
-0.0836218,-0.0162821,1.26147,-0.101078,0.260663,-0.00186503,0.00793457
-0.0515113,0.0555621,1.26812,-0.115746,0.305801,-0.00999951,0.00793457
-0.0872128,0.230116,1.27781,-0.133581,0.306531,0.0221924,0.00793457
-0.173223,0.348787,1.2584,-0.140199,0.283914,0.0748559,0.00793457
-0.274574,0.362204,1.23365,-0.143492,0.245488,0.112843,0.00793457
-0.376657,0.300208,1.19088,-0.159367,0.210284,0.117248,0.00793457
-0.478021,0.215922,1.14717,-0.16536,0.173398,0.114145,0.00793457
-0.649659,0.0899371,1.105,-0.162201,0.132793,0.11975,0.00793457
-0.76824,0.0299417,1.09844,-0.154631,0.109668,0.059809,0.00793457
-0.734174,0.0427426,1.10275,-0.164595,0.0852864,-0.0248531,0.00793457
-0.60858,0.0833718,1.12126,-0.182772,0.0695387,-0.0721078,0.00793457
-0.507005,0.105785,1.09986,-0.212881,0.0561487,-0.0485682,0.00793457
-0.421504,0.0428617,1.07271,-0.213171,0.0398662,-0.00594735,0.00793457
-0.368231,-0.0436118,1.03937,-0.207049,0.0299857,0.0346559,0.00793457
-0.311455,-0.0859404,1.00188,-0.193708,0.0145675,0.0415614,0.00793457
-0.218326,-0.0769043,0.982936,-0.181863,0.0208178,0.0304294,0.00793457
-0.125203,-0.0809993,0.971968,-0.173534,0.015628,0.0454193,0.00793457
-0.019148,-0.14527,0.930744,-0.162249,-0.00405342,0.0636774,0.00793457
0.0150712,-0.262889,0.838052,-0.169175,-0.00175767,0.102441,0.00793457
-0.0899929,-0.425977,0.737923,-0.156383,-0.0150981,0.126235,0.00793457
-0.278918,-0.572266,0.603497,-0.14973,-0.0256408,0.0960731,0.00793457
-0.412718,-0.64216,0.414179,-0.166765,-0.0381641,-0.0126253,0.00793457
-0.429223,-0.685756,0.26798,-0.129787,-0.0285626,-0.159577,0.00793457
-0.181956,-0.476068,0.248545,-0.0610956,-0.000921816,-0.344394,0.00793457
0.27723,-0.129284,0.296474,-0.0240709,0.0238795,-0.451759,0.00793457
0.735755,0.113591,0.32395,-0.023994,0.0289937,-0.403793,0.00793457
0.976232,0.178303,0.249044,-0.0505509,0.00693944,-0.21655,0.00793457
0.976232,0.178303,0.249044,-0.0505509,0.00693944,-0.21655,0.00793457
1.05067,0.242507,0.170807,-0.0418385,-0.00742439,-0.0456386,0.00793457
1.06418,0.300372,0.0707691,-0.0349718,-0.0042531,0.0706752,0.00793457
0.938705,0.172072,-0.0522312,-0.0170686,-0.026823,0.181794,0.00793457
0.704132,-0.136044,-0.203954,-0.00851559,-0.0459666,0.231604,0.00793457
0.545705,-0.27019,-0.365556,0.00374433,-0.050508,0.137551,0.00793457
0.539111,-0.102724,-0.457539,0.0194065,-0.0129525,-0.0255199,0.00793457
0.69715,0.111245,-0.477379,0.0422186,0.0256557,-0.14369,0.00793457
0.909399,0.183942,-0.490807,0.0509433,0.0568916,-0.196054,0.00793457
1.02495,0.136503,-0.495341,0.0435595,0.0974903,-0.199291,0.00793457
1.07291,0.145469,-0.516448,0.00577362,0.134967,-0.236707,0.00793457
1.19708,0.202534,-0.507705,-0.0102587,0.182593,-0.293085,0.00793457
1.45898,0.367643,-0.479203,-0.0132601,0.228866,-0.331837,0.00793457
1.60247,0.380402,-0.460913,-0.0406163,0.270231,-0.248042,0.00793457
1.5093,0.196954,-0.489369,-0.0625107,0.264807,-0.128331,0.00793457
1.36798,0.0131768,-0.506064,-0.0537938,0.264673,-0.0983308,0.00793457
1.40814,0.0382823,-0.550263,-0.0704608,0.271188,-0.177959,0.00793457
1.54587,0.290536,-0.59388,-0.0756675,0.293007,-0.221466,0.00793457
1.54188,0.466313,-0.597458,-0.0775421,0.319179,-0.13634,0.00793457
1.48016,0.545023,-0.599091,-0.0711253,0.319373,-0.0555857,0.00793457
1.1621,0.526308,-0.665934,-0.077143,0.288855,0.0431345,0.00793457
0.451488,0.261679,-0.80094,-0.08589,0.229351,0.141775,0.00793457
-0.301809,-0.214724,-0.84075,-0.0651818,0.157327,0.0638135,0.00793457
-0.105393,-0.594042,-0.679138,0.00942791,0.116033,-0.33086,0.00793457
0.973372,-0.40652,-0.409537,0.0530984,0.0979134,-0.647176,0.00793457
1.79128,0.235963,-0.14599,0.0474203,0.0917166,-0.54099,0.00793457
1.8246,1.08284,0.0432578,-0.0102493,0.0763029,-0.184249,0.00793457
1.22717,1.58628,0.0946216,-0.0695227,-0.0126603,0.225673,0.00793457
0.360536,1.51174,0.166105,-0.0285042,-0.136942,0.493786,0.00793457
-0.715259,0.999684,0.110395,-0.0438814,-0.246543,0.601098,0.00793457
-1.74047,0.415501,-0.19144,-0.109654,-0.322252,0.514897,0.00793457
-2.14208,-0.159315,-0.670674,-0.188736,-0.370026,0.250171,0.00793457
-2.06896,-0.439348,-0.762967,-0.191061,-0.263388,-0.0231323,0.00793457
-1.63222,-0.493684,-0.50317,-0.119554,-0.231159,-0.200382,0.00793457
-1.03332,-0.492438,-0.361992,-0.171447,-0.251413,-0.287974,0.00793457
-0.592894,-0.236347,-0.443405,-0.226538,-0.305852,-0.287792,0.00793457
-0.451969,0.298908,-0.737459,-0.296152,-0.304156,-0.21522,0.00793457
-0.3917,0.559264,-0.949765,-0.248094,-0.234659,-0.120248,0.00793457
-0.0319248,0.26124,-0.877057,-0.0797425,-0.169235,-0.109437,0.00793457
0.592095,-0.184617,-0.653983,-0.0161223,-0.0808582,-0.122038,0.00793457
1.22796,-0.357509,-0.523898,-0.0285727,-0.0492607,-0.107386,0.00793457
1.47096,-0.342845,-0.436802,-0.0370333,-0.0301853,0.0400088,0.00793457
1.32951,-0.0371333,-0.206448,0.0271053,-0.0639473,0.217942,0.00793457
1.08129,0.379987,0.0517984,0.0586508,-0.14175,0.347139,0.00793457
0.834511,0.502507,0.0952609,0.0558755,-0.241812,0.446353,0.00793457
0.562647,0.371142,-0.172908,0.0357979,-0.354362,0.509717,0.00793457
0.200523,0.102807,-0.606444,0.0710522,-0.442208,0.545609,0.00793457
-0.0572379,-0.25162,-0.973724,0.208027,-0.45884,0.470302,0.00793457
-0.0761282,-0.424813,-1.01028,0.36568,-0.300401,0.315889,0.00793457
0.00591155,-0.533611,-0.740168,0.493345,-0.154269,0.193636,0.00793457
0.00567983,-0.513496,-0.277776,0.561159,-0.0382349,0.122137,0.00793457
-0.0859044,-0.324711,0.132199,0.506954,0.0664103,0.054868,0.00793457
-0.332043,-0.168777,0.36308,0.35182,0.160374,0.0125161,0.00793457
-0.543948,-0.098957,0.411229,0.240848,0.154039,-0.074701,0.00793457
-0.411732,0.0575621,0.454096,0.214238,0.125404,-0.217421,0.00793457
-0.065499,0.290218,0.506147,0.173167,0.142259,-0.286337,0.00793457
0.187452,0.583655,0.640132,0.151619,0.141827,-0.23709,0.00793457
0.175447,0.72878,0.745908,0.108673,0.0985855,-0.0975736,0.00793457
0.0518596,0.746529,0.802257,0.0557737,0.0439327,0.00276613,0.00793457
-0.00926663,0.668606,0.787851,-0.000399396,-0.0122877,0.0298586,0.00793457
-0.00186519,0.549669,0.740448,-0.0416314,-0.0580974,0.0307372,0.00793457
0.00165474,0.421352,0.616312,-0.0946958,-0.0929359,0.0366936,0.00793457
-0.0443351,0.248028,0.462952,-0.123739,-0.108665,0.056688,0.00793457
-0.115127,0.0108585,0.356488,-0.107446,-0.108678,0.0618277,0.00793457
-0.209519,-0.211366,0.295506,-0.102771,-0.0884528,0.0551131,0.00793457
-0.240135,-0.309806,0.226112,-0.111585,-0.0764622,0.00367558,0.00793457
-0.199865,-0.284652,0.154133,-0.108213,-0.0605032,-0.0432312,0.00793457
-0.157998,-0.253834,0.0893156,-0.0896641,-0.0428704,-0.0476341,0.00793457
-0.143385,-0.242474,0.0719029,-0.0496367,-0.0237529,-0.0263674,0.00793457
-0.118796,-0.308092,0.0951026,-0.00434922,0.00510296,-0.00500917,0.00793457
-0.0492407,-0.387664,0.154415,0.0370815,0.024383,0.0017103,0.00793457
0.0862964,-0.463456,0.224722,0.074388,0.0378711,-0.00437212,0.00793457
0.173845,-0.430696,0.329443,0.0874928,0.0471265,0.00665033,0.00793457
0.0965029,-0.336905,0.4417,0.0882017,0.053412,0.0525671,0.00793457
-0.122863,-0.185381,0.501619,0.0669279,0.0332875,0.0806659,0.00793457
-0.289739,-0.0846703,0.511847,0.0478391,0.0120827,0.0607501,0.00793457
-0.294637,-0.089071,0.502936,0.0490503,-0.00115862,0.0119597,0.00793457
-0.294637,-0.089071,0.502936,0.0490503,-0.00115862,0.0119597,0
-0.150069,-0.0636446,0.488385,0.0453728,2.5183e-05,-0.0387273,0
-0.0049502,0.0156718,0.474234,0.043188,-0.00557339,-0.0492231,0
-0.00405348,0.0953783,0.466964,0.0377226,0.0101777,-0.00262672,0
-0.0839233,0.150725,0.46068,0.0281456,0.0275412,0.0316566,0
-0.159671,0.133411,0.443857,0.0158822,0.03656,0.043223,0
-0.168754,0.107661,0.436517,0.0135877,0.0385388,0.0191882,0
-0.117054,0.142141,0.402624,-0.00865723,0.0356087,-0.0180725,0
-0.0909013,0.22215,0.371244,-0.0130783,0.0365152,-0.0209296,0
-0.154909,0.244489,0.336745,-0.00398899,0.0268196,0.0124617,0
-0.269041,0.136036,0.331144,0.00313346,0.0305608,0.0367492,0
-0.360737,-0.0349742,0.341707,0.00236811,0.0451052,0.0192484,0
-0.316917,-0.135633,0.33247,-0.00987668,0.0457771,-0.0691515,0
-0.119752,-0.0852981,0.348393,-0.0227091,0.0721901,-0.174396,0
0.114777,-0.00212134,0.406555,-0.0305759,0.106432,-0.208209,0
0.297441,0.0439831,0.45299,-0.0515005,0.121712,-0.178878,0
0.362826,0.0632813,0.422799,-0.0919573,0.112477,-0.113501,0
0.338977,0.0285267,0.351949,-0.126353,0.100125,-0.0587953,0
0.290724,-0.00430362,0.241149,-0.147417,0.0954351,-0.0295641,0
0.27045,0.0456081,0.185823,-0.13276,0.0909008,-0.0194936,0
0.289422,0.0306229,0.167274,-0.109719,0.0950595,0.00151539,0
0.324278,-0.0981692,0.153948,-0.099867,0.0867314,0.0273418,0
0.321524,-0.315988,0.0880143,-0.103272,0.0687284,0.0577351,0
0.293901,-0.564246,0.00363106,-0.0783858,0.0440216,0.0572983,0
0.228633,-0.735177,-0.0319102,-0.0282514,0.0267561,0.0337054,0
0.185164,-0.775871,-0.0641817,-0.0138055,0.0240315,-0.0260176,0
0.213663,-0.710833,-0.0775906,-0.00777204,0.014631,-0.107864,0
0.338195,-0.629748,-0.122488,-0.0182391,0.0165523,-0.175071,0
0.518731,-0.467388,-0.189681,-0.0229012,0.0202248,-0.201742,0
0.592883,-0.26364,-0.285493,-0.022827,0.0327076,-0.161544,0
0.561835,-0.169815,-0.34733,0.00790575,0.0407712,-0.0773468,0
0.46686,-0.217894,-0.421135,0.0283192,0.0550739,-0.0148048,0
0.389861,-0.276945,-0.461993,0.0378784,0.0606157,-0.0111114,0
0.358537,-0.393641,-0.441881,0.0751816,0.0753506,-0.0248732,0
0.371371,-0.372169,-0.344655,0.0869279,0.0799311,-0.0585529,0
0.334822,-0.30437,-0.224183,0.0643026,0.0742021,-0.0612737,0
0.272287,-0.139045,-0.163292,0.0363624,0.0398167,-0.0572373,0
0.104785,0.103655,-0.173438,-0.0158445,0.0172175,-0.0214405,0
-0.104484,0.240048,-0.124499,-0.0246353,-0.00428441,0.0173541,0
-0.114276,0.373429,-0.0740155,-0.0298272,-0.00514379,-0.0110348,0
0.0256789,0.446424,0.0351033,-0.0369812,-0.0232474,-0.00178534,0
0.202289,0.369784,0.168531,-0.0529315,-0.0521321,0.0637941,0
0.374928,0.153675,0.26285,-0.0809767,-0.0873132,0.13869,0
0.407812,-0.0730062,0.211899,-0.12061,-0.123846,0.216779,0
0.369534,-0.124856,0.0376547,-0.124376,-0.175798,0.233497,0
0.29611,-0.196026,-0.149996,-0.0589996,-0.184395,0.248742,0
0.125364,-0.344954,-0.244076,0.0476002,-0.159076,0.265149,0
-0.0449477,-0.527217,-0.220175,0.14594,-0.148945,0.217138,0
-0.0738933,-0.527164,-0.149118,0.197633,-0.113238,0.0932388,0
-0.0699582,-0.388148,-0.0697073,0.214696,-0.0760962,0.000159442,0
-0.0096432,-0.147907,-0.0458558,0.190491,-0.0615714,-0.0812506,0
0.153941,0.100499,-0.140002,0.134417,-0.0241659,-0.152788,0
0.3227,0.29824,-0.271559,0.106184,0.00202543,-0.167717,0
0.505001,0.426711,-0.292475,0.130304,0.0229133,-0.141997,0
0.505001,0.426711,-0.292475,0.130304,0.0229133,-0.141997,0
0.71999,0.523995,-0.296556,0.108919,0.0418904,-0.101884,0
0.757984,0.52939,-0.362169,0.0657152,0.034309,-0.0114573,0
0.670636,0.480185,-0.426683,0.0434391,0.0282346,0.0499355,0
0.649848,0.410062,-0.408326,0.0712091,0.0372476,0.0402198,0
0.663977,0.382901,-0.340721,0.137753,0.0149686,0.0296402,0
0.571711,0.355371,-0.234517,0.215536,-0.0246589,0.0470292,0
0.367749,0.4873,-0.0647623,0.236103,0.005211,0.05555,0
0.205522,0.745973,0.166382,0.269472,0.0400796,0.0303084,0
0.0468954,0.940492,0.371771,0.262916,0.0755733,0.0381805,0
-0.0687496,1.02384,0.607876,0.245355,0.117125,0.0554495,0
-0.0377329,0.966417,0.683803,0.142861,0.139796,0.0402119,0
0.182012,0.797445,0.613046,0.0060395,0.154003,-0.0217015,0
0.391842,0.474696,0.638706,-0.0443817,0.21008,-0.0217195,0
0.486171,0.276361,0.737997,-0.0779334,0.241886,-0.00615531,0
0.411825,0.364474,0.799141,-0.147623,0.219124,0.00926745,0
0.228424,0.554627,0.793868,-0.213832,0.192109,0.0415399,0
0.0399545,0.67184,0.731406,-0.290986,0.184423,0.070767,0
-0.129127,0.742632,0.634139,-0.332451,0.176511,0.098681,0
-0.361459,0.715057,0.583705,-0.328054,0.169961,0.155422,0
-0.53483,0.484062,0.586034,-0.27693,0.125068,0.172644,0
-0.704364,0.0160748,0.579654,-0.274191,0.0743244,0.155766,0
-1.10211,-1.13015,0.536312,-0.207832,-0.0161207,0.156945,0
-1.09549,-1.54774,0.457813,-0.13037,-0.190462,-0.135254,0
-0.598357,-1.28447,0.39373,-0.135135,-0.207909,-0.409544,0
0.0074596,-0.294818,0.234778,-0.238657,-0.187923,-0.450422,0
0.273642,0.67292,0.0136293,-0.319475,-0.150373,-0.219492,0
0.200512,0.96418,-0.249304,-0.278878,-0.152129,0.0938071,0
0.0645951,0.768075,-0.43263,-0.218531,-0.153794,0.295878,0
-0.0242139,0.282862,-0.588181,-0.184047,-0.125366,0.398641,0
-0.0267202,-0.418318,-0.736982,-0.149943,-0.082095,0.386881,0
0.0296462,-0.888584,-0.756172,-0.112684,-0.00946456,0.322131,0
0.0691576,-1.14119,-0.692524,-0.0658562,0.0301422,0.240963,0
0.0352598,-1.31508,-0.611804,-0.0125794,0.0491491,0.172268,0
-0.162279,-1.52305,-0.46604,0.0369784,0.0497897,0.0968943,0
-0.547285,-1.85802,-0.25596,0.0589875,0.0179663,-0.0136349,0
-1.3771,-2.73261,-0.327827,0.0349589,-0.0624157,-0.12039,0
-1.9146,-2.8862,-0.769357,-0.0454638,-0.178603,-0.636123,0
-1.75604,-1.93643,-0.752071,0.0934056,-0.107456,-0.88135,0
-1.05463,-0.444023,-0.920274,-0.0588305,0.109811,-0.998753,0
-0.0945866,0.889576,-0.413606,0.0207164,0.131789,-0.779595,0
0.781979,1.83498,0.0329766,0.0411435,0.148086,-0.495176,0
1.28025,2.00435,0.0975043,-0.00957467,0.164735,-0.146527,0
1.38526,1.82354,0.156202,0.039019,0.11733,0.162882,0
1.10108,1.18808,0.186993,0.0790959,0.0807769,0.416072,0
0.663549,0.464455,0.194814,0.102564,0.0590349,0.549132,0
0.193988,-0.119238,0.164613,0.10813,0.0396654,0.568187,0
-0.299283,-0.523036,0.111731,0.112516,0.0222677,0.513934,0
-0.720602,-0.752005,0.145324,0.11494,0.0232852,0.389434,0
-0.920058,-0.765288,0.199434,0.0775674,0.0202994,0.202264,0
-0.874144,-0.755483,0.158859,0.0293855,0.00697315,0.0268049,0
-0.344189,-0.0765413,-0.0781844,-0.0243864,-0.000238538,-0.199464,0
0.0080804,-0.035034,-0.126045,-0.0292776,-0.0763537,-0.374371,0
0.0120706,-0.142849,0.0217707,0.050552,-0.0590963,-0.242783,0
-0.0187693,0.072036,0.0501735,-0.0841277,-0.0330495,-0.260051,0
-0.0187693,0.072036,0.0501735,-0.0841277,-0.0330495,-0.260051,0
-0.0227792,0.322193,0.132827,-0.0184117,-0.0704679,-0.238216,0
0.0365805,0.499103,0.194268,-0.0202567,-0.0168993,-0.160946,0
0.102432,0.506872,0.243849,-0.00437689,0.00572252,-0.0640827,0
0.102149,0.443,0.248623,-0.00520119,0.00406843,0.0184354,0
0.0370132,0.291606,0.238561,0.00243375,0.0130644,0.0741582,0
-0.0461967,0.131573,0.226771,0.015793,0.0327421,0.0992297,0
-0.0984578,0.0119253,0.217105,0.0205878,0.0399321,0.0749997,0
-0.111774,-0.05167,0.228112,0.0240375,0.0437947,0.0519544,0
-0.0900675,-0.0395957,0.249393,0.025265,0.0428044,0.0320925,0
-0.0450851,0.0108317,0.240343,-0.00579208,0.0387244,0.013599,0
-0.0390783,0.00165299,0.258179,0.00376827,0.0327231,0.022332,0
-0.056065,0.0132813,0.265233,0.00766949,0.0216571,0.0245551,0
-0.0546485,0.0673587,0.246503,-0.00805499,0.00487763,0.0109401,0
-0.077528,0.119217,0.20692,-0.0333744,-0.0158849,-0.010671,0
-0.140057,0.112718,0.159052,-0.0293666,-0.0466437,-0.021623,0
-0.112466,0.186479,0.113074,-0.0229128,-0.0502355,-0.0507152,0
-0.0274494,0.180079,0.158652,0.0229218,-0.0186782,-0.0571278,0
0.0873084,0.0359668,0.19622,0.0577734,0.00141871,-0.0490825,0
0.200641,-0.0377961,0.123589,0.00380084,-0.00630474,-0.0335002,0
0.23462,-0.0570829,0.0739564,0.0180126,-0.0489022,-0.0209502,0
0.261105,-0.0100821,0.0656589,0.0301567,-0.0406892,-0.0236717,0
0.280302,-0.00832146,0.0173173,-0.0315779,-0.00857794,-0.00238407,0
0.257583,-0.00613098,-0.0209929,-0.0351697,-0.00666642,0.0212432,0
0.187955,0.0319721,0.0163455,0.000707332,-0.0149143,0.0356474,0
0.0911028,0.0793908,0.00659464,-0.0226648,0.00826049,0.0391544,0
0.0118056,0.161694,0.0266846,-0.00904652,0.0106485,0.0196153,0
-0.0144641,0.146346,0.0358355,-0.00864778,0.00335348,0.0149701,0
0.0565031,0.0488289,0.0540541,0.010665,0.0133845,-0.0137418,0
0.17231,-0.0432392,-0.0116728,-0.00206846,0.0205292,-0.0406589,0
0.265438,-0.06122,-0.0219571,0.0140234,0.0109486,-0.0546454,0
0.333447,-0.0507163,0.0260135,0.0350815,0.00447381,-0.0660005,0
0.39244,-0.043404,0.0829426,0.0315168,0.00587988,-0.0692251,0
0.430149,-0.110009,0.166018,0.0513245,0.0181866,-0.0548881,0
0.414202,-0.215599,0.130647,0.00762433,0.0179087,-0.0173557,0
0.372925,-0.280447,0.0331233,-0.0167681,0.00390178,0.0105934,0
0.287143,-0.346116,-0.0877432,-0.0775972,-0.0243983,0.0488649,0
0.151616,-0.321707,-0.052963,0.00230825,0.00513244,0.0610621,0
0.0210566,-0.235855,-0.0413214,-0.0146874,0.0111943,0.065245,0
-0.0898339,-0.169839,-0.0326995,-0.00715232,0.00798565,0.0559799,0
-0.170252,-0.180972,-0.0290591,0.00619818,0.00275594,0.0469812,0
-0.221053,-0.230807,-0.0319064,0.00748625,0.00313425,0.0334136,0
-0.269958,-0.275658,-0.04846,0.00975838,-0.00578409,0.0264468,0
-0.317824,-0.293774,-0.0604369,0.0143128,-0.00441623,0.0279382,0
-0.348418,-0.228315,-0.0611474,0.0122803,0.00292182,0.00825763,0
-0.359418,-0.143043,-0.0509664,0.00143327,-0.000345528,0.00638175,0
-0.333114,-0.103755,-0.0238558,0.00673419,0.00216764,-0.00453532,0
-0.345643,-0.135928,0.00862202,0.02705,0.00590557,0.00530851,0
-0.310924,-0.0727664,0.00508149,0.0142344,0.0010854,-0.0196115,0
-0.238895,-0.0153408,-0.0180299,-0.0155043,-0.0135359,-0.0528556,0
-0.164101,-0.0155113,-2.2734e-05,0.00224181,-0.0104653,-0.0428971,0
-0.102755,-0.0287385,0.00727971,0.00518478,-0.0110823,-0.0294136,0
-0.0736999,-0.0506451,0.0297806,0.0158528,-0.0050385,-0.00379813,0
-0.0416664,-0.056727,0.0287606,0.0104752,0.0166082,-0.0516111,0
-0.0360181,0.0423383,0.00438684,-0.0283285,-0.0047878,0.0093137,0
-0.0360181,0.0423383,0.00438684,-0.0283285,-0.0047878,0.0093137,0
-0.0326098,0.0544793,0.0303558,-0.00355496,0.00139874,-0.0137203,0
0.0053789,0.041364,0.0187791,-0.00219893,0.00139993,-0.0188513,0
0.0219128,0.0121684,0.0162946,-0.00366834,0.00135404,-0.0119984,0
0.0181572,0.00308135,0.0141309,-0.00188272,0.00573868,-0.00563091,0
0.0286847,0.0111748,0.0121253,0.00399265,0.00859743,-0.0060097,0
0.0412903,0.00591457,0.000175679,0.000409544,0.00191653,-0.0094257,0
0.0557323,-0.0258713,-0.000632763,0.00563748,-0.00141919,-0.00307,0
0.0606493,-0.0246926,-0.00223085,0.0076424,0.00471973,-0.00702614,0
0.0521512,0.00443656,-0.00869951,0.00177628,0.00524795,-0.00527549,0
0.0707262,0.0231423,-0.0151467,0.00118154,0.000141203,-0.0143255,0
0.0927226,0.00613352,-0.0148562,0.00548242,-0.000217974,-0.0143806,0
0.0991877,0.0463326,-0.0102857,0.0102701,-0.00181776,-0.00699484,0
0.10136,0.0697721,-0.0104091,0.0165551,-0.00435877,0.00642216,0
0.106288,0.048279,-0.0183858,0.0186398,-0.00721908,0.0227454,0
0.0599201,0.000458782,-0.00878929,0.0215183,0.00718832,0.0393186,0
0.00648675,-0.0153377,-0.0522382,0.0032247,0.00211251,0.0270628,0
0.166236,-0.0970221,-0.0518735,-0.0139309,-0.0535015,-0.160129,0
0.0637961,0.0462186,-0.0230171,-0.0123916,0.0550101,0.165644,0
0.0122509,0.0220593,-0.0299026,-0.0300715,0.0188857,-0.00305951,0
0.0230878,0.137878,-0.105018,-0.0341758,-0.0202915,-0.020986,0
0.0357536,0.100374,-0.0951682,-0.00992179,-0.00191242,-0.0275662,0
0.0448421,0.0349966,-0.0855916,-0.0130905,0.00736034,-0.0190306,0
0.0258543,0.0187507,-0.0565737,-0.00857484,0.00803709,-0.007146,0
0.0311671,-0.00912601,-0.00877014,0.0228548,0.0229367,-0.0256755,0
0.0425073,-0.0470056,-0.0189728,-0.00839812,-0.00271451,-0.0189019,0
0.0268786,-0.0452958,-0.040099,-0.0247391,-0.00470853,-0.0142355,0
-0.0105232,-0.0282556,-0.0327732,-0.00794828,0.00406539,0.00672662,0
-0.0478732,-0.0410504,-0.0218873,-0.00247429,0.00647652,0.0125123,0
-0.107671,-0.0987372,0.0307273,0.0234867,0.0139124,0.0277279,0
-0.0509587,-0.0286915,-0.013565,-0.0304267,-0.0323061,-0.0318673,0
-0.00888024,-0.0652156,0.0233788,0.0231888,0.0074116,-0.0221453,0
0.00896852,-0.11234,0.0092092,0.00642704,0.00120807,0.00317317,0
-0.00944189,-0.127319,0.0122252,0.0147892,-0.0114102,0.00907868,0
-0.0311517,-0.116901,0.00925995,0.00926441,-0.0023523,0.011441,0
-0.0273088,-0.08252,0.0183074,0.00987279,0.00672853,-0.00152808,0
-0.0225233,-0.0615384,0.0128984,-0.00737914,0.00512499,0.00689971,0
-0.0237582,-0.0516626,0.0110593,0.00152555,0.0119537,0.00399512,0
-0.0156521,0.000743395,0.00256028,-0.000419095,0.00860834,0.00377315,0
-0.0222871,0.0418587,0.00553471,0.0132148,0.00948638,0.00652492,0
-0.0104627,0.015654,0.00920339,0.036381,0.02332,-0.0118921,0
-0.0166623,0.0637522,-0.0270671,-0.0113454,-0.0115613,0.0216604,0
-0.0235279,0.0623652,-0.00030387,0.0148609,-0.0148981,-0.0039748,0
-0.0205086,0.0313844,0.0196979,0.0125978,-0.020715,-0.0107838,0
-0.0250432,0.0231911,0.039579,0.0126828,-0.0173814,-0.00612271,0
-0.0414943,0.00335961,0.0580885,0.00874717,-0.0177463,-0.00214237,0
-0.0398163,-0.0124602,0.0599223,0.00813879,-0.00890881,-0.00714922,0
0.265155,0.370255,0.200507,-0.0208219,-0.0156637,-0.0835571,0
0.00954753,-0.216541,-0.0214748,-0.156036,0.012246,0.255972,0
-0.0991137,-0.0518386,0.0498601,0.00416705,0.0318974,0.00563449,0
-0.0648444,0.0938216,-0.0356519,-0.0281568,0.0191036,-0.0040288,0
0.00913765,0.00534626,-0.0277347,-0.00343178,0.0100929,-0.0142692,0
0.0336412,-0.0210365,-0.027832,-0.0111813,-0.00834548,-0.0105314,0
-0.00350036,-0.00106013,-0.0243088,-0.00217275,-0.00353587,-0.00127023,0
-0.0129314,0.0210081,-0.0197262,-0.00646418,-0.0111978,-0.00426579,0
-0.0129314,0.0210081,-0.0197262,-0.00646418,-0.0111978,-0.00426579,0
0.0088378,-0.0102361,-0.0205659,-0.00784946,-0.0136898,-0.0157921,0
0.0289122,-0.0242765,-0.0142503,0.00455047,-0.00322485,-0.0116605,0
0.0155553,-0.0315877,-0.00546006,0.0080439,0.00437641,0.00465184,0
-0.012578,-0.0128625,-0.00499692,0.00623211,-0.00210214,0.0180901,0
-0.0316987,-0.00525144,-0.00985526,0.00443174,0.00220388,0.0145985,0
-0.0464694,-0.00900785,-0.0075685,0.00720534,0.00526494,0.0102452,0
-0.0618649,0.0519075,-0.040965,0.00191981,0.019166,0.0201602,0
-0.0142311,0.0161123,-0.00990949,0.00500937,-0.00627732,-0.0362908,0
0.0161535,-0.0191004,-0.0130426,0.00196435,0.0132222,-0.0178812,0
0.016256,-0.0440749,-0.00398231,0.0103456,4.35114e-06,-0.00709885,0
-0.010545,-0.0270819,-0.00992684,-0.00323773,0.000715733,-0.000175059,0
-0.0242768,-0.0326372,-0.00185474,0.0042678,0.000688314,0.00612313,0
-0.0179536,-0.0343538,-0.00723773,-0.00340472,-0.00280416,0.00607902,0
-0.029708,-0.0187523,0.00195436,0.00211942,0.00285232,0.00770342,0
-0.0466361,-0.0021312,0.00792673,0.0101489,0.00420189,0.00830305,0
-0.0480731,0.012627,0.00284931,0.00642231,0.00307167,-0.00170344,0
-0.0424744,-0.0160133,0.000313285,0.000849605,-0.000609517,-0.0034197,0
-0.0363934,-0.00424444,0.00221593,0.00153056,-0.00116885,-0.0019815,0
-0.0435386,-0.0160621,0.00799649,0.00510438,0.000456929,-0.00274408,0
-0.0498109,0.00202842,0.0130258,0.0046131,0.00108939,0.000374138,0
-0.0480865,0.0121263,0.00921945,0.00125058,-0.00298834,-0.00417829,0
-0.0444856,-0.00638233,0.00724841,0.000167251,0.00109988,-0.00516909,0
-0.0460231,-0.0113558,0.00795973,0.000139564,0.00595665,0.00541818,0
-0.0399178,0.00722078,0.00253717,-0.000807911,0.00190252,0.000474453,0
-0.0531675,0.0137733,-0.0219656,-0.0248495,-0.0156975,0.0124275,0
-0.0842708,-0.00844529,-0.0152412,0.00627616,0.00656164,0.003546,0
0.0747878,0.387653,-0.00449961,-0.044556,-0.0175384,0.00248778,0
-0.0377193,-0.36501,-0.0425788,0.0281689,0.0441843,0.00204796,0
-0.0279341,0.0445822,0.0278207,0.0580041,-0.0054785,-0.0178707,0
-0.0103026,0.0668956,-0.0130334,-0.00534526,0.00120723,-0.0192001,0
0.0525954,-0.0133695,0.0122164,0.00745091,-0.000867546,-0.0145895,0
0.0222399,-0.0237278,0.00807504,-0.00586553,-0.00511825,0.00850081,0
-0.0358397,0.0200229,-0.00116169,-0.00952411,0.000829101,0.0189694,0
-0.0262645,0.0249607,-0.00192758,-0.00124118,0.00540513,-3.47495e-05,0
0.0133447,0.0150349,-0.00524365,0.000131905,-0.00109327,-0.0165784,0
0.0261036,0.0101606,-0.00551436,0.00310406,0.0038957,-0.00972819,0
0.0128043,-0.0015424,-0.00511495,0.0028308,0.0013234,0.000573337,0
0.0112879,0.0110792,0.00173435,0.00129339,-0.00250459,-0.00330007,0
-0.00083428,0.00729609,0.010359,0.00432491,0.00477374,0.00624239,0
-0.0166791,0.0121485,-0.00189169,-0.00286383,0.000492752,0.0100759,0
-0.0227934,0.0197221,-0.00514474,-0.000774339,0.000229716,-0.00794792,0
-0.011647,0.0185462,0.00499868,0.00346731,0.00309443,-0.00510877,0
0.002169,0.00844572,0.00371722,0.00419149,0.000192404,-0.00544971,0
0.0118789,0.000479273,0.0111177,0.00194047,-0.000605941,-0.0114471,0
0.00865561,-0.0126422,0.0135064,0.00893561,0.00240541,0.00493711,0
0.00091276,0.00179727,0.0130653,0.00261275,0.00355905,0.00539041,0
0.00160174,0.0124793,0.00607525,-0.00620753,-0.00158089,-0.00232309,0
-0.010097,0.00976185,0.011345,0.00351052,-5.45979e-05,0.00551617,0
-0.0146047,0.012733,0.00721072,0.0012117,0.00179917,0.00234735,0
-0.0179209,0.00896879,0.00594963,0.00256525,0.00090301,-0.00511032,0
-0.0154942,0.00104081,0.0100769,0.00275226,0.000645578,-0.00289232,0
-0.00715105,0.00268108,0.00605598,-0.00174497,-0.000744164,-0.00921929,0
0.00670139,0.00666324,0.00887239,-0.00111039,-0.000790358,-0.00897074,0
-0.00204791,-0.0123443,0.0161517,0.00592221,0.00168824,0.00847381,0
-0.00204791,-0.0123443,0.0161517,0.00592221,0.00168824,0.00847381,0
-0.0106512,0.00457133,0.0123638,-0.000375167,0.00350165,0.0057596,0
-0.0161578,0.0125535,0.00794379,-0.00495273,0.00239694,-0.00245905,0
-0.0126875,0.00522759,0.00634413,0.00167851,0.0040946,0.000646949,0
-0.0124459,0.0015765,-0.000422261,0.000586763,0.000380397,-0.00379193,0
-0.00773668,0.0226101,0.00392844,0.00109114,-0.00229692,-0.0144502,0
0.00384728,-0.00572644,0.00778173,0.00867051,-0.00147367,-0.00595134,0
0.0123065,-0.0103844,0.00167076,0.000658467,-0.00438142,-0.00495803,0
0.0208923,0.00112825,0.00672996,-0.00347003,0.000679553,2.563e-05,0
0.00144165,-0.00639095,0.013675,0.0037212,0.00443023,0.00826609,0
-0.022056,0.00398056,0.0112279,-0.00148836,0.000585794,0.00527275,0
-0.00639788,0.00622362,0.00520728,-0.00420046,0.00429261,-0.00854325,0
0.00560205,-0.01782,0.0062305,0.00563511,0.0043515,-0.00431561,0
-0.00517922,-0.00328333,0.00105461,0.000640422,-0.000501573,-0.000835061,0
-0.000830808,0.0157756,0.00396704,-0.00159878,0.00231469,-0.00418246,0
0.00514529,-0.0100293,-0.000632756,0.00297961,0.000602186,-0.00273836,0
-0.0123037,-0.00130746,0.00314437,0.00219253,-0.0015409,0.00366086,0
-0.00403541,0.0177195,0.00509753,-0.00152202,0.00508279,-0.00423455,0
0.00937657,0.00644463,0.00209732,0.00113384,0.00513691,-0.00571221,0
0.00243392,-0.0088622,-0.00849796,0.00135797,-0.000351727,-0.00198424,0
-0.00136318,0.00460424,-0.00755687,-0.00159154,0.000259399,0.000926197,0
0.00385845,0.00490327,-0.00451991,0.000103056,0.00192487,-0.00453389,0
-0.00273204,0.00331421,-0.00317251,0.00276954,-0.00219381,-0.000729501,0
-0.00472331,0.0179096,0.00488315,7.90805e-05,0.000681043,0.000488997,0
0.00101476,0.00221268,-0.00175603,0.00270776,0.00194901,-0.00455958,0
-0.00135919,-0.00500328,-0.00386348,0.00237779,0.000126302,-0.000746608,0
0.00270877,0.00813003,-0.00566477,-0.003839,0.00403148,0.000467241,0
0.000767607,0.00561067,-0.00633332,0.00014241,0.00224555,-0.00208592,0
-0.0245758,0.00455438,-0.000669601,0.00244194,-0.00185233,0.0055027,0
-0.0313978,0.0148143,-0.00331546,-0.00369782,0.00183505,0.00279099,0
-0.0136364,0.0173101,-0.00196701,-0.00200386,0.00272977,-0.00892794,0
-0.00385379,-0.010533,1.00709e-05,0.00424674,-0.000843525,-0.0110639,0
-0.014455,-0.0173782,0.00160568,0.00722097,-0.000598013,0.00409102,0
-0.00429587,0.0026761,-0.00413857,-0.00285468,-0.000646949,-0.00617921,0
0.000722056,-0.00226828,0.000521217,-0.000839889,0.00108665,-0.00495815,0
-0.0148535,1.91866e-05,0.00470662,0.00106955,0.00233251,0.0114449,0
-0.0109951,0.00804293,-0.00674669,9.25362e-06,0.00369978,0.0024547,0
-0.00643624,0.00524736,-0.00498103,0.000168577,-0.00126684,-0.00824565,0
-0.00730046,0.00125062,0.000330955,0.0035993,-0.00139451,-0.00365472,0
-0.00104684,0.00872484,-0.00289718,0.000967547,-0.000985146,-0.00771439,0
0.00647556,-0.00193651,-0.00658318,0.00197069,-0.00116491,-0.00509381,0
0.00546382,-0.00902123,-0.00315211,0.00548358,-0.000330329,0.00455451,0
0.00206162,-0.00184128,-0.00106724,-7.43419e-05,0.00190926,0.00332093,0
-0.00545756,-0.00222121,-0.000210818,0.000288866,0.0019092,0.00470465,0
-0.0105391,0.0100238,-0.00477777,-0.00093101,0.00115609,-0.000409365,0
-0.00276724,0.00626757,-0.00154672,0.00323836,0.00264806,-0.00180167,0
0.00537618,-0.00433367,-0.00375661,0.00363181,0.00228238,-0.00136179,0
-0.0039425,0.00953386,-0.00742541,-0.00111329,-0.00392991,-0.00290912,0
-0.0126454,0.00103749,-0.000572104,0.00319997,-0.0011605,0.00168687,0
-0.00797851,0.00128058,-0.0022982,0.0025776,-0.000440836,-0.000177443,0
-0.00569614,0.010339,0.000371834,-0.00338148,0.00183189,-0.00608695,0
-0.00327189,-0.000982052,0.00162427,0.00180656,0.00167006,-0.0021385,0
1.12606e-05,-0.00491791,-0.000982729,-0.000177965,0.000712514,-0.000964999,0
0.00539803,0.00579395,-0.00371288,-0.00204391,0.00263554,-0.00629419,0
0.00539803,0.00579395,-0.00371288,-0.00204391,0.00263554,-0.00629419,0
0.0100226,-0.00758918,0.00763544,0.00056839,-0.000603676,-0.00470668,0
-0.00423517,-0.0116339,0.0057847,0.00439796,-0.000227153,0.00759959,0
-0.0074371,0.00577202,0.0015941,0.000302941,0.00177723,-0.00287926,0
-0.00170194,0.0038287,-0.00314771,-0.00140428,-0.000142038,-0.00476903,0
0.000224035,-0.00597277,-0.00743441,0.00361945,0.000189841,0.0031938,0
0.00434448,0.00815201,-0.00438841,-0.00108733,-0.0021044,-0.00542396,0
-0.00710921,0.00181245,0.00372854,0.00399127,-0.000362217,0.001432,0
-0.0206389,-0.00753377,-0.000884185,0.00410997,0.00055486,0.0090546,0
0.000161749,0.0105005,-0.00393284,-0.00683404,0.000648797,-0.00719118,0
0.007014,-0.00672601,0.000481404,0.000439033,0.0033623,-0.00145501,0
-0.00486738,0.0063723,0.000141924,6.68168e-05,-0.000930846,-0.00106364,0
0.00190075,0.00549833,0.00488313,-0.000878289,0.00038588,-0.00717074,0
0.00247577,-0.0152317,0.00442584,0.00546645,-0.000323057,-0.00123745,0
0.00655463,-0.00277599,0.00451224,0.00169995,-0.00156903,-0.00080812,0
-0.00097916,-0.00473811,-0.000556124,-0.00263251,0.00162029,-0.00274193,0
-0.0116838,-0.00385537,-0.00123673,0.00131527,0.00306046,0.00793684,0
-0.00126465,0.0124349,-0.00272172,-0.0022759,0.00426692,-0.00347328,0
-0.00565809,-0.00385568,-0.003052,0.00307526,0.00086087,-0.00168192,0
-0.0143759,0.00775025,0.00128252,0.00219529,0.000319064,0.00135595,0
0.0061336,0.00548982,0.000242712,-0.00343111,0.00126922,-0.00999624,0
0.0113009,-0.00816388,-0.00737266,-0.000879742,-0.00571299,-0.006805,0
0.00154817,0.00230582,-0.00453151,0.00262576,-0.000409603,0.00397992,0
0.00761964,0.00457698,-0.0011793,0.000223443,0.00274181,-0.00222933,0
-0.00436431,-0.00972847,0.00375039,0.00573429,0.00114876,0.00493985,0
-0.015633,0.00137082,-0.00016374,-0.00192572,0.00113314,0.00657147,0
0.00142115,0.00512779,-0.00345583,-0.00512819,0.00277513,-0.00738269,0
0.00655703,-0.00508296,-0.00707695,0.000314564,0.00219858,-0.00360656,0
0.00215749,0.0096342,-0.00457545,0.000198111,0.000510097,0.000200272,0
0.00122142,0.00394099,0.00191564,0.00263739,-0.000389576,-0.00389665,0
-0.00683971,-0.0101975,-0.00427227,0.00387257,-0.00216359,0.00428271,0
-0.0168149,0.00336598,-0.0073061,-0.00648227,-0.0010969,0.00377655,0
-0.0135099,0.00713225,-3.09083e-05,0.00245138,0.00311542,-0.00222027,0
-0.00476034,0.00623756,-0.000461455,0.00192954,-0.000852644,-0.00266147,0
0.00961888,0.00277219,0.00200235,0.00135752,0.000429273,-0.0134749,0
0.0133771,-0.0152702,0.00576303,0.00673486,0.000667274,-0.00562829,0
0.00554052,0.00170533,0.00245269,-0.00134028,0.000188172,0.00161546,0
0.0125513,0.000252888,0.00386609,-0.00116284,6.83665e-05,-0.00331962,0
0.00424248,-0.0102226,0.00105894,0.00407417,0.000981212,0.00554878,0
-0.00408175,0.00937927,-0.00422593,-0.00393139,0.00182277,0.00476432,0
-0.00299015,0.00461953,-0.00390604,-0.00223252,0.000768304,-0.000818253,0
-0.00742271,0.00260914,0.00388314,0.00410503,-0.000308692,0.000435948,0
0.00631071,0.00566548,-0.00416051,-0.00177061,-0.00158775,-0.00903523,0
0.00684492,-0.00737102,0.00101941,0.002662,0.000390053,-0.00184721,0
-0.00165055,-1.27237e-05,0.000110912,-0.00167365,8.46386e-05,0.00258923,0
0.00241635,0.00246204,-0.00178658,-0.00401021,0.00108248,-0.0030421,0
-0.00672947,-0.00246593,0.00148655,0.00106993,0.000846028,0.00402564,0
-0.008411,0.00634089,0.00317722,0.000636801,0.00098455,-0.00231558,0
0.00145496,-0.00406601,0.00087157,0.00243198,-0.00110221,-0.00819951,0
0.00452132,-0.00462615,0.00205851,0.00233713,-0.00107551,-0.00146097,0
0.0050465,-0.00180578,0.000257179,0.00260552,-0.000587344,-0.00349706,0
-0.000554142,-0.0106889,0.0017674,0.000256822,0.00185335,0.00571179,0
-0.00640109,0.00504203,-0.000107974,-0.00316638,0.000897765,0.00402433,0
-0.00784934,0.00587653,-0.00100089,0.00301751,0.00193727,0.000813127,0
0.0025447,0.00716413,-0.000607509,-0.00228849,0.0011574,-0.00468624,0
0.0025447,0.00716413,-0.000607509,-0.00228849,0.0011574,-0.00468624,0
-0.0021776,0.00640462,-0.00109792,-0.000965662,0.000962436,-0.00608557,0
-0.00571641,0.00906148,-0.00339185,-0.000574991,-0.000967979,-0.00112963,0
-0.00233766,0.000470123,-0.00581799,0.000681624,-0.00286859,-0.00399125,0
0.00168184,-0.0049615,-0.00744837,0.00471655,0.000139654,0.000406325,0
-0.00145857,-0.00145393,-0.000160125,-0.000523195,0.00107211,0.00381875,0
-0.0116095,0.00651221,0.0036342,-0.000222467,0.00252885,0.00365192,0
-0.00650815,0.00174478,-0.00115699,-0.00174874,0.00225729,-0.000546634,0
0.00125096,-0.00104753,-0.0029066,-0.00102535,0.000294387,-0.00472486,0
0.00668085,0.0032334,-0.00412942,-0.000420466,0.000750184,-0.00476176,0
-0.00108967,-0.00208038,-0.00223679,0.00274528,-0.00150108,0.00361902,0
-0.00665968,0.0109648,0.00470317,0.00346641,-0.00184387,0.000441194,0
-0.000654528,0.00298178,0.00228305,0.00161096,-0.00160354,-0.00440043,0
0.00065628,-0.000247035,0.00465353,0.00186381,0.000192642,-0.0011248,0
0.000108448,0.00156119,-0.000918007,-0.00237136,0.00233573,-0.000510752,0
-0.0013853,8.80845e-05,0.000202703,-0.00265175,0.000819206,0.000646293,0
0.00175214,0.000657546,0.000610148,-0.000207469,0.000209808,-0.00293368,0
0.00592186,-0.00190039,0.00122104,0.00125923,-0.0010972,-0.00296229,0
0.00371008,-0.000608192,0.00358132,0.000548184,-0.000788331,-5.06639e-05,0
-0.00172517,0.000333909,0.00359935,-0.000113368,0.000292718,0.000733793,0
0.00458921,0.00125356,0.00474977,-0.000709966,0.00149149,-0.00126088,0
0.00996161,-0.00188507,0.000293112,0.000396624,0.000878394,-0.00215077,0
-0.00049022,0.00236603,0.00122927,-0.000519216,0.00228155,0.00135684,0
-0.00390384,0.0041737,0.00473986,-0.000603035,4.1306e-05,-0.00107545,0
-0.0016354,0.0042869,0.00363443,-0.000231691,0.000201881,-0.00214654,0
-0.00254801,0.00275773,0.00450201,0.000650153,-0.000443757,0.000737906,0
-0.00179917,0.00502667,0.00209577,-0.000411913,0.00234717,0.000364065,0
-0.0020005,-0.00243112,0.00139997,-0.00218222,0.000139177,0.00023669,0
-0.00253818,-0.00105855,0.00142465,0.00104813,0.00134033,-0.00139034,0
-0.00463595,0.00390629,0.00588319,0.000703074,0.00101811,-0.00239629,0
-0.000797585,-0.00152538,0.00810683,0.00258596,-0.00113702,-0.00557297,0
0.00577458,-0.00501366,0.00623208,0.00184768,-0.000320077,-0.00396323,0
0.00461398,-0.00198082,0.00945793,0.000122905,-0.00083971,-0.000612319,0
-0.000592212,-3.28696e-05,0.00596466,0.00188142,0.00177872,0.00171971,0
-0.0056898,-0.0107738,0.00223121,-0.00132561,0.00134218,0.00303352,0
-0.00677981,0.00121803,0.00103018,-0.00219041,0.00285667,0.00419164,0
-0.00807275,0.0125482,0.00205614,-0.00135984,0.00156468,-0.0003317,0
-0.00343384,0.00768129,0.00473962,0.0021532,-0.00176448,-0.00593507,0
-0.000404475,0.00312362,0.00806984,0.00163142,-0.00058949,-0.00848401,0
0.00966468,-0.000252926,0.000317666,-0.000307962,-0.000150561,-0.00710475,0
0.0115747,-0.00519434,-0.00347443,-0.000876054,-0.00205481,-0.00241947,0
0.0041314,0.00113701,0.00126301,0.000632487,0.000602543,0.00632566,0
-0.00417498,0.00305575,0.00593484,0.000662416,0.00163007,0.00443375,0
-0.00539685,0.000350264,0.00918239,-0.00127321,0.00198704,0.000543535,0
-0.0090459,-0.00403501,0.00312934,-0.00261194,0.0011515,-0.0023647,0
9.77763e-05,-0.00803988,0.00135581,-0.00144559,0.000722528,-0.0065192,0
0.00688407,-0.00228345,0.00360312,0.000582442,0.00143206,-0.0027445,0
-0.00213098,0.0029935,0.00253471,0.000632651,0.000465274,0.00135303,0
-0.0095775,0.00262174,0.00241652,0.000980265,0.00058049,0.000946939,0
-0.000948294,-0.00170651,0.00269457,-0.000795543,-0.000474095,-0.00231636,0
0.00276735,0.00489062,0.00392276,-0.00019069,0.00084573,-0.00311649,0
-0.00345272,0.00109783,0.00132567,0.000707291,0.00177604,3.06964e-05,0
-0.00320934,-0.00230041,-0.00315733,-0.00342393,0.000941694,-0.00333834,0
0.00327361,-0.00905146,-0.00441867,0.000166222,0.00118184,-0.00371963,0
0.0046928,-0.00304531,-0.00259603,-2.57492e-05,0.000828028,-0.00201356,0
0.0046928,-0.00304531,-0.00259603,-2.57492e-05,0.000828028,-0.00201356,0
-0.0003406,0.00516689,0.00111773,-0.000866786,0.0024063,0.000404596,0
-0.00232089,0.00760092,0.000748006,-0.00177929,-0.000481844,0.00238872,0
-0.0074762,-0.00422666,-0.00715429,-0.000934288,0.000652194,0.000990391,0
-0.00609698,0.00603343,-0.00603447,0.00155161,0.00315815,0.000642061,0
-0.00256057,9.31597e-05,-0.00628599,0.000700787,-0.000819266,-0.00536513,0
-0.0019073,0.00558021,0.00235321,0.000809804,0.000426769,-0.000722766,0
-0.00540482,0.00594705,-0.00454056,-0.00184883,-0.000312805,-0.00312304,0
-0.00495956,-0.00125066,-0.00190873,-0.000557125,0.00126636,0.00155717,0
-0.00378827,0.00311467,-0.00777172,-0.00265196,0.00249845,-0.000574887,0
-0.00725839,0.00363259,-0.00235878,0.000749305,0.000866473,-0.00128424,0
-0.00560031,0.00123393,-0.00250413,0.00111556,0.000984728,-0.00196135,0
-0.00230438,-0.00129065,-0.00244888,1.89394e-05,-0.00108093,-0.0052247,0
-0.00365168,0.00256064,0.00187222,0.000904456,-0.000225723,-0.000524998,0
0.00166161,0.00100854,-0.000315394,0.000752091,0.00101304,-0.00177902,0
-0.00714228,-0.00146899,0.00263202,0.0045965,-0.00160044,0.0014329,0
-0.00296994,-0.00353446,-0.00202241,-6.2108e-05,-0.000339925,-8.91089e-05,0
-0.00416462,-0.0124781,-0.00835171,-0.00104335,0.00316685,3.41535e-05,0
-0.0103203,0.00845917,-0.00737773,-0.00136442,0.00317752,0.00289726,0
-0.00978679,0.0136181,-0.00599932,-0.00379685,-0.000626266,-0.00182551,0
-0.00808105,0.00781479,-0.000486808,0.00021895,-0.00315166,-0.00479501,0
-0.0100329,0.0103392,-0.000927794,0.000928998,0.000183523,-0.00568998,0
-0.00193446,0.00668613,-0.00830648,0.000390403,-0.000268996,-0.00514913,0
0.00672797,-0.00130984,-0.0124961,0.000212729,-0.000415742,-0.00194198,0
0.0103209,-0.00337138,-0.00724337,-0.00117567,0.000974655,0.00160885,0
-0.00756625,-0.000654296,0.00114754,8.57487e-05,0.00095731,0.00721496,0
-0.0188791,0.00365584,0.00381308,-0.00238065,0.00232697,0.00270927,0
-0.00955723,0.000485099,-0.00247184,-0.00153427,0.000388443,-0.00519955,0
0.00404591,-0.00192873,-0.00141575,-0.00036183,-0.000683784,-0.00526553,0
0.00641084,-0.00170197,-0.00262682,0.00143457,0.00175226,-0.00227791,0
-0.00195737,0.00205401,-0.00325182,0.00223082,0.00115681,0.00220227,0
-0.0034173,0.00647333,-0.00418293,0.00051859,-0.00109154,-0.00196475,0
-0.00183328,-0.00743322,-0.0049724,-0.000648841,-0.000982523,-0.00219524,0
-0.00528077,-0.00207016,-0.000210538,-0.000318155,0.00125504,0.000125945,0
-0.00322215,0.0042095,-0.00230061,-0.000164375,0.00138402,-0.00145072,0
0.00422516,-0.00259632,-0.00493278,-0.00104544,-0.000846088,-0.00413173,0
0.00482835,-0.00978852,-0.00276384,0.000273138,-0.000881732,-0.00144482,0
-0.000934421,-0.000614692,0.00467092,0.000655457,-0.000651956,0.000292778,0
0.00317801,-0.00997993,0.0114507,0.000811756,-0.000682354,-0.000613272,0
-2.41941e-05,0.000833189,0.00133098,-0.000471652,0.000521123,-0.000132143,0
-0.00318589,0.00152467,-0.00275236,0.00198957,0.000499487,-0.00189054,0
0.00748222,-0.00279513,-0.00135048,-0.00044395,0.001095,-0.00146496,0
0.00133403,-0.000616964,-0.00343144,-0.000487894,2.83122e-05,-0.00238675,0
-0.0077138,0.00423391,0.00260965,0.000157624,-0.000875771,0.00259155,0
-0.00653884,0.00155378,0.00286796,0.000488706,0.00157863,-0.00186557,0
-0.00343256,-0.00352169,0.00116153,0.000206716,0.000323355,-0.000718296,0
-0.00281092,0.00308555,-0.00214409,-0.00294036,-0.000692427,-0.00110614,0
-0.00501657,-0.00145498,-0.00022448,-0.000517964,0.00104743,-0.00118184,0
-0.002669,-0.0108725,0.0029902,-0.000927642,0.00120634,0.000539541,0
0.0069304,-0.00464451,-0.00300166,-0.00209047,0.0023762,-0.00434995,0
-0.00920223,0.00203678,0.00250836,0.00232118,-0.00171047,-0.00168312,0
0.00396973,-0.0040666,0.0108832,0.00121991,0.00110304,-0.00244826,0
0.00377639,-0.00792762,0.000446783,0.000727057,-0.00128961,-0.0061484,0
-0.00360451,-0.00668297,0.00164078,0.00251813,-0.00123209,0.00497735,0
0.00136226,-0.00356574,-0.00309251,-0.000657141,0.0012123,-0.00287092,0
0.00136226,-0.00356574,-0.00309251,-0.000657141,0.0012123,-0.00287092,0
0.00372875,-0.0047308,0.00066178,-0.00381428,0.00220275,-8.76188e-05,0
-0.00750235,0.00340505,-0.00225145,0.000537075,0.00280899,0.00563192,0
-0.000623936,0.0080836,-0.00477438,-0.00277516,0.00116313,-0.0056538,0
0.00124001,-0.0056857,-0.00325738,0.000873789,-0.000397384,-0.00538421,0
-0.00373611,0.0114295,0.00264111,0.00212077,0.000720799,-0.0030514,0
0.00306774,0.00823216,-0.00528044,-0.00136621,-0.00111163,-0.00731826,0
0.00460888,-0.010748,-0.00456475,0.00207222,-0.00216311,0.00229305,0
-0.000981882,-0.00158383,-0.00386922,-0.00110146,0.000265956,0.00346839,0
-0.0128726,-0.00193755,0.0010605,-0.000184521,0.00160527,0.00383079,0
-0.00679979,-0.00134996,-0.000678383,-0.00151652,0.00130379,-0.00150383,0
0.00533704,0.000514112,0.000156605,-0.00260198,0.00166804,-0.00775367,0
0.00811895,-0.00532644,-0.00240996,0.000466272,0.00177687,-0.00329417,0
0.000249843,0.00752789,-0.00313748,0.00110878,0.00212109,0.00181091,0
-0.0120351,0.00678327,0.000281753,0.00250036,-0.000775635,0.00556123,0
-0.0103016,0.00162946,-0.0037257,0.00104293,-0.000494421,0.00226873,0
-0.00497474,-0.0093159,-0.00932492,-0.00277299,0.000435829,-0.00659716,0
-0.0166357,-0.0104589,-0.00520861,-0.00149485,-0.00106126,0.00301933,0
-0.0219671,-0.00569611,-0.00819005,-0.00271547,0.000832617,-0.00637352,0
-0.0160037,0.00583299,-0.00835104,-0.00252415,-0.00272208,-0.00579619,0
-0.0079841,0.00422697,0.00273899,0.00515829,-0.00117719,-0.00247264,0
-0.00667254,0.0084065,0.00399705,0.00392477,-0.00285923,-0.000107646,0
-0.000381606,0.0011483,0.0032281,0.00324317,-0.000110805,-0.00361645,0
-0.0080699,-0.00125474,-0.00264899,-0.00388484,0.0016138,0.00370783,0
-0.00505514,-0.00789953,-0.0105647,0.000504866,0.00588107,0.00630188,0
-0.00973728,0.0137312,-0.00890296,-0.00323708,0.00209892,0.00421548,0
-0.0157294,0.0356743,-0.00230973,-0.00199451,-0.00013119,0.00122887,0
-0.00492333,0.00339811,-0.00166857,0.00181738,-0.00245285,-0.00630534,0
0.00112311,-0.0139778,-0.0210305,0.000238538,0.000484824,-0.00797611,0
-0.00872103,-0.00331932,-0.0103893,0.000324547,0.00285369,-0.000402391,0
-0.00128868,0.0142445,-0.00446965,-0.000583157,-0.0034247,-0.000717759,0
-0.0116566,0.0174669,0.000727121,0.000495732,-0.000622988,0.000120163,0
0.00512184,-0.00283427,-0.00195332,-0.000450939,0.00443298,-0.000926912,0
0.0136477,-0.00119526,-0.00716341,-0.00179806,0.00390464,-0.000783563,0
0.00194014,0.00486167,-0.00829238,-0.00116882,-0.000169933,0.00120986,0
-0.00109799,0.005169,-0.00195805,-0.00143273,-0.0022217,-0.00597703,0
0.00352469,-0.013369,0.000463248,0.00360078,3.57628e-07,-0.0022828,0
1.62658e-05,-0.00249454,-0.00558444,-0.000879228,0.000414431,0.000355721,0
-0.00130649,0.0033005,0.00149162,0.00359145,-0.00134277,0.00273943,0
0.00891658,0.0005409,-0.00165114,-0.000264823,0.0032745,-0.00298053,0
-0.00241358,0.00661477,-0.00289351,-0.00136763,0.00184309,0.0025773,0
-0.0131341,0.0180272,0.00141931,-0.00247879,-0.00140339,0.00429779,0
-0.00230708,0.0213432,-0.00446612,-0.00335656,-0.00113928,-0.00419194,0
-0.015139,0.064622,0.00182267,-0.0036504,0.000567198,-0.00147283,0
-0.0281594,0.109491,0.0126884,-0.00349988,-0.00365806,-0.00566316,0
-0.0352006,0.131089,-0.00255957,-0.00335603,-0.0013178,-0.00492227,0
-0.00659851,0.191802,0.00772586,-0.00580369,0.0029788,0.00512308,0
0.107399,0.126154,-0.0369722,0.00496769,0.0143422,0.0345148,0
-0.0543695,-0.0398872,-0.0220126,0.0356837,-0.00560951,-0.0171412,0
-0.135743,0.0998595,0.014981,-0.0229297,-0.0330846,-0.0276352,0
-0.0341366,0.0242115,0.00974826,-0.000128731,0.0171142,-0.0030371,0
0.0679349,-0.143002,0.00873633,0.0121887,0.0153758,0.00123185,0
-0.0131395,-0.0874153,0.0374254,-0.00486642,-0.0151694,0.00734347,0
-0.0940599,0.0245309,0.0497471,-0.00486705,-0.0105595,0.00773853,0
-0.0163339,-0.000298137,0.0225437,-0.000268072,0.00498104,-0.0141492,0
-0.0163339,-0.000298137,0.0225437,-0.000268072,0.00498104,-0.0141492,0
0.0961513,-0.070102,-0.0229225,0.00317264,0.0172495,-0.0149274,0
