attitude_roll,attitude_pitch,attitude_yaw,rotationRate_x,rotationRate_y,rotationRate_z,acceleration_x,acceleration_y,acceleration_z
-0.0588152,0.266299,1.59718,-0.647904,1.65634,0.323668,-0.0216599,-0.17182,0.119806
-0.0244505,0.248992,1.60397,-0.96716,1.78941,0.306415,0.0124636,-0.120714,-0.00686693
0.00125355,0.232173,1.60887,-0.60833,0.713686,0.210707,0.0911262,-0.10734,-0.259941
-4.07639e-05,0.226454,1.61218,0.0668302,-0.679121,0.0902641,0.0205017,-0.0214785,-0.436801
-0.0213563,0.235864,1.61156,0.852928,-1.29969,-0.195879,-0.092289,0.0810644,-0.434968
-0.0452206,0.258814,1.60509,1.35019,-1.13332,-0.475231,-0.174776,0.14752,-0.352928
-0.0593987,0.288846,1.59597,1.54594,-0.480268,-0.505379,-0.18951,0.160258,-0.174526
-0.0611685,0.319864,1.5911,1.46163,0.138024,-0.0975181,-0.152404,0.0587461,-0.0509713
-0.0553546,0.346218,1.59403,1.14688,0.465316,0.150038,-0.11559,0.0683618,0.0572031
-0.0477009,0.365054,1.59788,0.727072,0.380534,0.0834908,-0.0742948,0.0866753,0.094785
-0.0437938,0.375335,1.59841,0.305851,0.0166045,-0.0913542,-0.0510192,0.0821302,0.0780675
-0.0444897,0.378187,1.59473,-0.0187234,-0.175919,-0.234152,-0.0421487,0.0900765,0.0758618
-0.0459373,0.376043,1.58986,-0.197077,-0.121082,-0.176873,-0.0416077,0.063486,0.103415
-0.0470846,0.371024,1.58693,-0.314818,-0.151361,-0.0849406,-0.032231,0.0733092,0.0730287
-0.0517621,0.363914,1.58439,-0.373718,-0.416214,-0.135856,-0.0196731,0.116235,-0.0332478
-0.060009,0.357307,1.5792,-0.290378,-0.537656,-0.317493,-0.01399,0.159826,-0.0737247
-0.0671008,0.353914,1.57123,-0.0768513,-0.391961,-0.38788,-0.0490589,0.114363,-0.0123754
-0.0683092,0.355165,1.56289,0.138633,-0.0030651,-0.384402,-0.0404656,0.0459571,0.0724263
-0.0621159,0.359423,1.55577,0.217899,0.342274,-0.296097,-0.0573693,-0.00689328,0.131774
-0.0515442,0.363642,1.55093,0.15115,0.51665,-0.1909,-0.0593917,-0.028093,0.140672
-0.0393052,0.365225,1.54726,-0.0151439,0.574454,-0.170516,-0.0732974,-0.0200529,0.130191
-0.0252666,0.363935,1.54343,-0.100225,0.688717,-0.17522,-0.0796776,-0.0244936,0.15291
-0.00957589,0.361592,1.5398,-0.130193,0.757894,-0.157242,-0.0865941,-0.0305742,0.142064
0.00833274,0.359007,1.53649,-0.130482,0.909219,-0.152945,-0.0777173,-0.0206954,0.151866
0.0275073,0.355408,1.53316,-0.260668,0.830271,-0.188749,-0.0607277,-0.0309948,0.111863
0.0426907,0.346355,1.52732,-0.661272,0.415339,-0.430415,-0.0231909,0.0143223,0.0516519
0.0477021,0.325854,1.51349,-1.37272,-0.455828,-1.04509,0.00812411,0.0985603,-0.0636487
0.0366869,0.288602,1.48554,-2.18679,-1.31656,-1.73539,0.0585576,0.150518,-0.15626
0.0208313,0.240715,1.44597,-2.26447,-1.14857,-2.11209,0.129322,0.0130858,-0.0281121
0.010656,0.202841,1.40457,-1.33569,-0.801861,-1.87111,0.135604,-0.209039,-0.0641364
0.00276693,0.185879,1.37189,-0.428048,-0.620001,-1.3433,0.0893674,-0.264347,-0.134676
-0.00446717,0.179457,1.34875,-0.364507,-0.594485,-0.951627,0.100434,-0.206987,-0.183733
-0.0176511,0.165324,1.32977,-1.07424,-0.960918,-0.907125,0.0369864,-0.102335,-0.23501
-0.0325013,0.140001,1.31265,-1.33852,-0.730032,-0.654242,0.151318,-0.169095,-0.171791
-0.0448723,0.118034,1.30443,-0.815043,-0.597695,-0.0256965,0.0820511,-0.293373,-0.264549
-0.0557485,0.106954,1.31116,-0.30517,-0.444183,0.753585,0.0146602,-0.209046,-0.236919
-0.0670262,0.100614,1.33392,-0.257314,-0.417075,1.51634,-0.0789621,-0.043583,-0.182981
-0.0755703,0.0913765,1.37024,-0.383027,-0.0352219,2.0948,-0.109051,0.135668,0.0245259
-0.0755527,0.0806558,1.41543,-0.291358,0.389193,2.40374,-0.101904,0.225298,0.160074
-0.0701684,0.074619,1.46397,0.0731041,0.445302,2.40164,-0.035019,0.198512,0.157514
-0.0668513,0.0772266,1.5105,0.490018,0.203943,2.14695,0.0244423,0.138856,0.116252
-0.0683765,0.0878011,1.55021,0.810526,-0.00749423,1.69114,0.0529385,0.108227,0.0877228
-0.0720763,0.104395,1.58037,1.02712,-0.0421849,1.15909,0.0526093,0.103473,0.0916134
-0.0746621,0.124134,1.60029,1.04019,0.0116912,0.686455,0.0325606,0.11997,0.109338
-0.0748651,0.142371,1.61238,0.838261,0.136372,0.399005,0.0129116,0.132217,0.129779
-0.0719736,0.156042,1.62033,0.577247,0.26187,0.315441,-0.00299793,0.105116,0.141695
-0.0672939,0.164683,1.62804,0.342768,0.333098,0.398619,-0.00677158,0.0486287,0.13945
-0.0611246,0.169101,1.63795,0.17326,0.456217,0.541027,-0.000728451,0.0111616,0.165933
-0.0524698,0.170905,1.6503,0.0773985,0.57989,0.647093,0.00131235,-0.0128935,0.18511
-0.0431281,0.171174,1.66409,0.0225244,0.569018,0.692948,-0.0105856,-0.0142003,0.159579
-0.0352044,0.170876,1.6785,0.0179097,0.452694,0.723994,-0.0125263,-0.0168291,0.137856
-0.0309293,0.171244,1.69369,0.0658474,0.217668,0.767895,-0.0158232,-0.0287041,0.115594
-0.0309293,0.171244,1.69369,0.0658474,0.217668,0.767895,-0.0158232,-0.0287041,0.115594
-0.0309953,0.172447,1.70972,0.0897901,0.0871934,0.782387,0.0127998,-0.0331031,0.126617
-0.0318976,0.173095,1.72509,0.00722659,0.0888219,0.706636,0.058332,-0.041315,0.135572
-0.0334334,0.171634,1.73835,-0.103005,-0.0407718,0.589801,0.0551527,-0.0469042,0.109726
-0.0391289,0.1686,1.74827,-0.153332,-0.381047,0.36069,0.0287832,-0.0328811,0.0397383
-0.0508148,0.165505,1.75129,-0.136386,-0.728186,-0.0783438,0.0108379,-0.00919977,-0.00955153
-0.0672334,0.162811,1.74417,-0.189515,-1.00935,-0.606084,0.0182138,-0.0120711,-0.0580106
-0.0863046,0.157249,1.72664,-0.511655,-1.19217,-1.04622,-0.00400792,-0.0131369,-0.105293
-0.105669,0.145855,1.70094,-0.847977,-1.07481,-1.32474,-0.0107595,0.0307453,-0.111916
-0.121477,0.130354,1.67181,-0.945683,-0.867251,-1.303,-0.0414252,0.0398205,-0.153867
-0.133807,0.116701,1.64594,-0.689171,-0.696065,-1.03789,-0.0355598,0.00344471,-0.190652
-0.144762,0.107995,1.62665,-0.461143,-0.612679,-0.736055,0.0228876,-0.0370206,-0.239461
-0.154962,0.100789,1.61341,-0.517708,-0.554531,-0.424432,0.0111944,-0.0584391,-0.238035
-0.163469,0.0882068,1.60516,-0.852545,-0.358921,-0.231353,-0.0283964,-0.0560115,-0.256501
-0.167132,0.0702501,1.5981,-0.958465,-0.0249599,-0.158164,-0.0567876,0.0944386,-0.173883
-0.163892,0.0545779,1.59301,-0.590647,0.293006,-0.101345,-0.0937671,0.17511,-0.0976177
-0.156373,0.0492706,1.58938,0.0184216,0.389608,-0.195958,-0.102799,0.216929,-0.0693999
-0.149312,0.0559933,1.58409,0.530905,0.262042,-0.438243,-0.0806473,0.202494,-0.0395468
-0.145156,0.0716648,1.57419,0.829901,0.0817881,-0.779814,-0.0515406,0.136453,0.0275777
-0.143234,0.0918912,1.55689,0.875894,0.00270337,-1.21851,-0.0217369,0.0794786,0.0952486
-0.140572,0.112,1.53096,0.719066,-0.00144194,-1.57769,-0.0176595,0.0163227,0.149353
-0.136997,0.129121,1.49944,0.545062,-0.00493299,-1.7008,-0.0295612,-0.057776,0.174736
-0.131983,0.143416,1.46712,0.45166,0.0735427,-1.6242,-0.0345311,-0.0896652,0.2184
-0.124825,0.156202,1.43741,0.448795,0.195962,-1.4155,-0.0495,-0.0973007,0.229056
-0.116115,0.168598,1.41313,0.487291,0.296918,-1.07781,-0.0652774,-0.123017,0.227977
-0.106259,0.180172,1.39747,0.471192,0.411265,-0.522349,-0.0683106,-0.124848,0.224053
-0.0957515,0.1883,1.39562,0.272255,0.625338,0.270186,-0.0523098,-0.122808,0.196849
-0.082486,0.188994,1.40783,-0.0803648,0.912357,0.842174,-0.0329053,-0.126597,0.163699
-0.0664299,0.185709,1.42687,-0.0568542,1.00424,0.97079,-0.0660165,-0.110263,0.126146
-0.050835,0.185651,1.44491,0.164689,0.855706,0.747227,-0.0838797,-0.0571133,0.040522
-0.0376426,0.190346,1.45638,0.33228,0.66259,0.344873,-0.0452452,-0.00086458,0.00187308
-0.0280772,0.198037,1.46022,0.441612,0.332784,0.0373168,-0.0205557,-0.0212267,-0.0444068
-0.0249454,0.207883,1.45924,0.52778,-0.0261074,-0.140525,0.000601973,-0.0758685,-0.0991048
-0.0275418,0.218777,1.4559,0.532657,-0.286908,-0.188578,0.0168416,-0.120244,-0.122382
-0.0340977,0.228704,1.45255,0.423606,-0.411611,-0.165964,0.00923174,-0.164306,-0.154977
-0.0419767,0.23492,1.44948,0.176423,-0.429362,-0.15265,-0.00716202,-0.175942,-0.188159
-0.0493824,0.236469,1.44675,-0.0204886,-0.369389,-0.115658,-0.0278934,-0.189801,-0.237403
-0.0560325,0.234471,1.44471,-0.190265,-0.340889,-0.0739985,-0.0517915,-0.189531,-0.291157
-0.0615046,0.229463,1.44316,-0.291312,-0.21038,-0.0444584,-0.0552272,-0.13926,-0.289207
-0.0633641,0.223862,1.44241,-0.24575,0.0128228,0.0195765,-0.022075,-0.0643494,-0.22239
-0.0620353,0.220195,1.4439,-0.107672,0.144874,0.148759,0.0174535,-0.0173284,-0.151068
-0.0586069,0.21939,1.44799,0.0608679,0.308693,0.240036,0.060694,0.0307905,-0.0544997
-0.0521642,0.222301,1.45343,0.259196,0.416628,0.259151,0.0871275,0.0596931,0.0529081
-0.0461445,0.22934,1.45886,0.443458,0.268351,0.233935,0.0868209,0.026178,0.0789202
-0.043377,0.237356,1.46388,0.292284,0.144161,0.223305,0.139605,-0.106999,0.124827
-0.0408178,0.237933,1.46886,-0.219394,0.287849,0.257536,0.209487,-0.189019,0.171808
-0.0345774,0.229257,1.47395,-0.586085,0.393354,0.261069,0.182439,-0.180141,0.156252
-0.028318,0.215336,1.47802,-0.76884,0.326595,0.152815,0.119076,-0.124871,0.0499382
-0.0222658,0.199412,1.47886,-0.778407,0.320231,-0.0381446,0.0542781,0.0036962,-0.00322932
-0.014804,0.185697,1.47619,-0.559852,0.373048,-0.185738,-0.000496335,0.122971,-0.0353968
-0.00557736,0.177561,1.4711,-0.257924,0.454119,-0.298749,-0.0337713,0.175393,-0.0508483
0.00537043,0.17541,1.46414,0.0486302,0.512236,-0.370754,-0.0394678,0.207593,-0.0301296
0.00537043,0.17541,1.46414,0.0486302,0.512236,-0.370754,-0.0394678,0.207593,-0.0301296
0.0171645,0.179024,1.45656,0.31105,0.521359,-0.359614,-0.0233744,0.206832,0.0122391
0.028574,0.187604,1.44944,0.55373,0.469123,-0.315249,-0.00954473,0.1947,0.0488406
0.038202,0.200166,1.44265,0.696399,0.35353,-0.324931,-0.000931188,0.169107,0.0791569
0.0464466,0.214121,1.43436,0.72707,0.316566,-0.425139,-0.0141045,0.167506,0.112905
0.0548585,0.228648,1.42449,0.753888,0.286658,-0.446316,-0.0205976,0.146826,0.142781
0.0627286,0.242414,1.41448,0.642944,0.270353,-0.445258,-0.0162685,0.10406,0.15031
0.0702962,0.252848,1.4045,0.467543,0.240699,-0.446517,-0.0204282,0.0820863,0.138741
0.0773116,0.259954,1.39464,0.299013,0.195357,-0.450304,-0.0184264,0.0565811,0.113356
0.0830744,0.262459,1.38495,0.0089468,0.144611,-0.465573,-0.0165387,0.0454215,0.0857152
0.0885848,0.259165,1.37538,-0.224534,0.162161,-0.4559,0.00179616,0.0762504,0.03981
0.0936817,0.253036,1.36753,-0.305316,0.138699,-0.349659,0.000757821,0.081216,-0.0056929
0.0972845,0.245577,1.36172,-0.382015,0.0577515,-0.292464,0.0249694,0.0650457,-0.0541663
0.0977916,0.236375,1.3567,-0.497567,-0.146278,-0.287809,0.0447122,0.0321226,-0.0890311
0.0940454,0.223611,1.35156,-0.726989,-0.317265,-0.333667,0.0394278,-0.000584096,-0.133286
0.0877627,0.206064,1.34618,-0.954009,-0.411375,-0.326093,0.0237013,0.0089912,-0.135061
0.0795118,0.185802,1.34221,-0.952376,-0.498041,-0.21479,0.00470261,0.046124,-0.139991
0.0681334,0.170287,1.34046,-0.516465,-0.679865,-0.0785967,-0.0459321,0.126954,-0.166348
0.0525608,0.166242,1.33949,0.127307,-0.88342,-0.0749286,-0.11094,0.204952,-0.163433
0.0337212,0.173977,1.33582,0.607766,-1.03749,-0.28397,-0.149127,0.218434,-0.135041
0.0141608,0.187636,1.32666,0.718839,-1.05257,-0.581937,-0.142254,0.160826,-0.0628623
-0.00302735,0.200929,1.31268,0.588572,-0.893896,-0.738277,-0.117105,0.0850474,0.0142398
-0.0152249,0.210678,1.29808,0.356498,-0.601695,-0.669113,-0.0815327,0.0167556,0.0833058
-0.0219822,0.215571,1.28616,0.106824,-0.345257,-0.494773,-0.0497412,-0.0167614,0.126154
-0.025832,0.215604,1.2776,-0.101306,-0.224698,-0.352132,-0.0353464,-0.000311509,0.125875
-0.0277322,0.212898,1.27047,-0.171329,-0.126273,-0.359137,-0.0350923,0.0465743,0.136196
-0.0282085,0.209983,1.26189,-0.121292,-0.105595,-0.478974,-0.0390805,0.0864802,0.138671
-0.0279689,0.208876,1.25041,-0.0178216,-0.107336,-0.632473,-0.0404985,0.0899593,0.14907
-0.0270845,0.209538,1.23614,0.0341995,-0.0994343,-0.74627,-0.0252233,0.0581212,0.159455
-0.0257348,0.210161,1.2205,-0.0273367,-0.0858541,-0.760263,0.00284212,-0.00918685,0.154447
-0.0238387,0.208594,1.20557,-0.170957,-0.0302405,-0.672875,0.0244946,-0.0764541,0.138415
-0.0211521,0.20409,1.1931,-0.295825,0.0386315,-0.524799,0.0319725,-0.12281,0.102104
-0.0177387,0.197601,1.18384,-0.359383,0.119427,-0.373482,0.0173315,-0.132433,0.0632719
-0.0129348,0.190234,1.17687,-0.379138,0.213194,-0.308001,0.00606344,-0.123579,0.029348
-0.00772438,0.182861,1.17096,-0.346029,0.181897,-0.262213,0.0131344,-0.120448,-0.0341427
-0.00429796,0.176922,1.16606,-0.24032,0.06433,-0.209432,0.0489848,-0.124186,-0.0864045
-0.00406023,0.173506,1.16253,-0.104335,-0.13045,-0.13094,0.0738081,-0.138536,-0.119805
-0.0089778,0.172542,1.16074,-0.00319298,-0.378848,-0.0560824,0.0687961,-0.153295,-0.155696
-0.0179876,0.17277,1.15986,0.0149379,-0.492486,-0.0368312,0.0297274,-0.146768,-0.160723
-0.0270294,0.172849,1.15919,-0.0221147,-0.393151,-0.017621,-0.0162997,-0.133095,-0.150637
-0.0325685,0.170992,1.15934,-0.179967,-0.136612,0.0424868,-0.0321975,-0.144644,-0.145172
-0.0334057,0.165457,1.16118,-0.350899,0.0633918,0.161874,-0.00341836,-0.125671,-0.150697
-0.0316622,0.157387,1.16557,-0.416416,0.168758,0.289364,0.0272983,-0.0598451,-0.142448
-0.0286551,0.14936,1.17191,-0.341792,0.217368,0.34486,0.0529445,0.0449388,-0.102848
-0.0241493,0.144314,1.17863,-0.123632,0.34644,0.322432,0.058396,0.141357,-0.0537135
-0.0171875,0.144705,1.18499,0.186032,0.423047,0.309557,0.0424433,0.181219,-0.0164112
-0.00894289,0.151103,1.19135,0.426039,0.48203,0.309056,0.0567229,0.146379,0.0326182
0.00010756,0.160337,1.19778,0.457232,0.528689,0.318542,0.100449,0.0578899,0.0615602
0.010541,0.168126,1.20464,0.294197,0.616546,0.370061,0.133483,-0.0199058,0.073736
0.0229744,0.171649,1.21331,0.0300778,0.771827,0.495527,0.13833,-0.0614466,0.0579509
0.0369225,0.169631,1.22506,-0.254905,0.808198,0.644432,0.130928,-0.0537003,-0.0159706
0.0505451,0.163546,1.23939,-0.374242,0.775335,0.716996,0.0866251,0.0215518,-0.0576337
0.062977,0.157991,1.25426,-0.21973,0.677934,0.693761,0.0405858,0.115129,-0.0763325
0.062977,0.157991,1.25426,-0.21973,0.677934,0.693761,0.0405858,0.115129,-0.0763325
0.0720548,0.157406,1.26752,0.081049,0.420223,0.592134,0.00764812,0.166736,-0.104342
0.0760825,0.163003,1.2779,0.390459,0.14475,0.4741,-0.00613877,0.166585,-0.0771757
0.0754079,0.174144,1.28576,0.641096,-0.0501539,0.37749,-0.0157101,0.11635,-0.0316412
0.0723177,0.189372,1.29151,0.827167,-0.155539,0.300303,-0.0310308,0.0754945,0.0227381
0.0675581,0.208045,1.29559,0.987625,-0.226341,0.220686,-0.0650441,0.0336346,0.040673
0.0625659,0.2288,1.29755,1.04072,-0.219243,0.0982745,-0.0927408,0.0176414,0.0618927
0.0586779,0.24922,1.29681,0.977687,-0.175836,-0.0513873,-0.102395,0.00397214,0.0796046
0.0569676,0.267367,1.29298,0.840494,-0.0883893,-0.210457,-0.0887274,-0.00748995,0.0916742
0.0580002,0.282337,1.28627,0.680443,0.00210292,-0.335861,-0.0680323,-0.012979,0.0828001
0.0612517,0.293646,1.27778,0.48785,0.0825734,-0.399874,-0.0306849,-0.0145115,0.0646836
0.0662698,0.300847,1.2684,0.275147,0.138979,-0.443264,0.00470023,-0.0155608,0.0360279
0.0724941,0.30371,1.25833,0.0776443,0.181189,-0.49422,0.0376652,0.00113457,0.00984794
0.0793666,0.302768,1.24747,-0.0835386,0.171788,-0.532175,0.0550907,0.0260689,-0.0189794
0.0856523,0.299188,1.23649,-0.165,0.139772,-0.538498,0.0669953,0.0634207,-0.0463704
0.0920006,0.294981,1.22531,-0.152987,0.150893,-0.562048,0.070697,0.0994987,-0.0469641
0.0971014,0.290441,1.21342,-0.229655,-0.0210175,-0.613117,0.102928,0.0726601,-0.0729154
0.0981918,0.28129,1.20043,-0.591277,-0.207953,-0.708305,0.135311,0.0138167,-0.103759
0.0974045,0.263871,1.18757,-0.989351,-0.172835,-0.655272,0.106708,0.00845444,-0.0835
0.0986268,0.240948,1.17837,-1.14624,0.0583255,-0.425958,0.0457196,0.0624762,-0.0410687
0.102567,0.218838,1.1747,-0.953036,0.240037,-0.158727,-0.0048831,0.140008,-0.0575136
0.107699,0.203807,1.17458,-0.516493,0.214404,-0.0385533,-0.0313068,0.201361,-0.0640296
0.109655,0.198074,1.17417,-0.0578386,-0.042937,-0.0812447,-0.0336418,0.206608,-0.0805256
0.106267,0.200154,1.17142,0.265693,-0.335975,-0.162905,-0.030997,0.169478,-0.0432383
0.0983189,0.206728,1.16692,0.399622,-0.524624,-0.192677,-0.0435498,0.117841,0.0133032
0.0884664,0.214303,1.16227,0.364526,-0.516852,-0.182354,-0.0740314,0.0713242,0.0659704
0.0804943,0.219479,1.15832,0.163761,-0.3504,-0.144354,-0.102649,0.0399567,0.112896
0.0760667,0.219924,1.156,-0.108759,-0.14025,-0.0798393,-0.0993095,0.00883529,0.130395
0.0749315,0.215271,1.15519,-0.328842,-0.00927064,-0.0353962,-0.100294,-0.0055498,0.12086
0.0754293,0.20737,1.15515,-0.435962,0.0528894,-0.0394014,-0.101133,0.0136264,0.0940489
0.0768368,0.198801,1.1548,-0.384072,0.0735946,-0.0578997,-0.107568,0.0393825,0.0665383
0.0783628,0.192584,1.15376,-0.217926,0.0547007,-0.092486,-0.113884,0.0530899,0.048493
0.0790526,0.189772,1.15179,-0.0433169,-0.0399822,-0.117051,-0.0996932,0.0492612,0.0375893
0.077664,0.190077,1.14919,0.0743694,-0.142392,-0.142261,-0.0799576,0.00892641,0.0426588
0.0749052,0.191674,1.14558,0.10449,-0.185779,-0.18395,-0.0811857,-0.0153841,0.0424411
0.0719616,0.193767,1.14187,0.124179,-0.166076,-0.15648,-0.0798618,-0.0402314,0.050493
0.0697453,0.195675,1.1388,0.0916094,-0.0999403,-0.139374,-0.0744777,-0.0643147,0.0501567
0.0694261,0.197837,1.13547,0.178816,-0.00235541,-0.173119,-0.0800869,-0.031234,0.000318229
0.0703232,0.203746,1.13108,0.476323,-0.0150442,-0.215007,-0.0941873,0.050392,-0.0720857
0.0695574,0.217459,1.12538,0.918495,-0.204293,-0.23966,-0.0853206,0.0811665,-0.147281
0.0639751,0.238987,1.11885,1.23169,-0.500624,-0.239347,-0.0466421,0.044839,-0.168455
0.0528755,0.265087,1.11304,1.37175,-0.724295,-0.156277,-0.0298104,-0.028534,-0.138223
0.0381928,0.292557,1.10949,1.35659,-0.815495,-0.0562093,-0.040803,-0.0836228,-0.0954196
0.0220937,0.318747,1.10794,1.23751,-0.819895,-0.0213782,-0.0704177,-0.118935,-0.0646868
0.0071044,0.341618,1.10676,1.02877,-0.682309,-0.0629196,-0.0897169,-0.128566,-0.0341129
-0.00327788,0.359766,1.10478,0.770166,-0.412131,-0.116558,-0.0851126,-0.133175,0.00204492
-0.00773545,0.372508,1.10213,0.501473,-0.13442,-0.118947,-0.0537541,-0.145141,0.00775975
-0.00771179,0.37992,1.10046,0.222606,0.0605043,-0.0315187,0.00246205,-0.18201,-0.00587314
-0.00539371,0.380659,1.10077,-0.167464,0.162876,0.0565844,0.0682857,-0.213077,3.11732e-05
-0.00309771,0.37215,1.10296,-0.692548,0.138514,0.152872,0.133348,-0.23306,-0.00713181
-0.00225852,0.353223,1.1074,-1.15904,0.102191,0.271783,0.150511,-0.174737,-0.01401
-0.0031069,0.32753,1.11465,-1.3304,0.0628645,0.418393,0.111432,-0.0155441,-0.00595415
-0.0031069,0.32753,1.11465,-1.3304,0.0628645,0.418393,0.111432,-0.0155441,-0.00595415
-0.00459516,0.30316,1.12497,-1.02148,0.126944,0.562707,0.0612703,0.153625,0.0316279
-0.00485515,0.287797,1.13742,-0.51196,0.186102,0.600099,0.0338607,0.249432,0.0713632
-0.00499033,0.280881,1.14879,-0.203383,0.105571,0.467531,0.0500217,0.234645,0.0688472
-0.00641274,0.277718,1.15679,-0.143834,-0.0299577,0.308849,0.0903954,0.133338,0.0654389
-0.00929565,0.273549,1.16233,-0.289975,-0.0832583,0.248099,0.124352,0.0438472,0.0658345
-0.0118239,0.265433,1.16778,-0.518562,-0.00988333,0.309178,0.132869,-0.0075708,0.0669777
-0.0128205,0.252632,1.17562,-0.737225,0.115766,0.465749,0.12513,-0.0257879,0.0500874
-0.0118471,0.236214,1.18668,-0.858149,0.239135,0.61312,0.112043,-0.00486867,0.0296885
-0.00993048,0.218985,1.20007,-0.815683,0.237708,0.693758,0.0823249,0.0416709,-0.0106391
-0.00900093,0.204204,1.21425,-0.622625,0.144233,0.688948,0.0615176,0.0818012,-0.0408213
-0.0100606,0.194231,1.22761,-0.354289,0.00900452,0.614393,0.0472247,0.111499,-0.0480433
-0.0135147,0.189539,1.23911,-0.103498,-0.130187,0.512298,0.0408143,0.112936,-0.0460594
-0.01878,0.189481,1.24861,0.0938647,-0.191158,0.420166,0.0311533,0.0949198,-0.0186661
-0.0239765,0.192351,1.25662,0.200668,-0.173479,0.368372,0.0252867,0.0692037,0.00823766
-0.0285438,0.196863,1.26416,0.254479,-0.123993,0.357591,0.0256082,0.0419987,0.0281982
-0.0315471,0.201386,1.27125,0.212305,-0.0427904,0.31156,0.0258995,0.0254519,0.0417722
-0.0331183,0.205374,1.27714,0.206738,-0.00558891,0.250235,0.0232305,0.0218656,0.0328455
-0.0343962,0.209068,1.28199,0.175236,-0.0213285,0.209015,0.0422313,0.00581151,0.0207981
-0.035664,0.211444,1.28589,0.0622767,-0.0204267,0.155686,0.0541036,-0.0113503,0.0202133
-0.0361535,0.211657,1.28841,-0.0271261,0.0280746,0.0938383,0.0385738,-0.0107142,0.00950068
-0.0352819,0.209861,1.28984,-0.142784,0.106127,0.056149,0.0349888,-0.0135542,-0.00741202
-0.0324698,0.205986,1.29084,-0.216781,0.18157,0.0549994,0.0266965,0.000964776,-0.0210152
-0.0286677,0.202075,1.29161,-0.154244,0.201769,0.024017,0.0131421,0.0336188,-0.0525191
-0.0249803,0.199897,1.29134,-0.0697851,0.148053,-0.0450879,0.0234884,0.0492763,-0.0663765
-0.0224607,0.199117,1.28983,-0.0199229,0.0649155,-0.100147,0.0478024,0.0356491,-0.0584121
-0.0215246,0.199868,1.28742,0.0982119,-0.0168606,-0.133404,0.0528022,0.0196615,-0.0606921
-0.0219631,0.202727,1.28428,0.156436,-0.0856304,-0.182666,0.0590634,-0.0115798,-0.0554593
-0.0235235,0.204609,1.27993,0.00194935,-0.142893,-0.236382,0.0858969,-0.0792714,-0.0706756
-0.0251618,0.202415,1.27511,-0.236428,-0.107796,-0.2098,0.0902429,-0.122374,-0.0743608
-0.0256991,0.19505,1.27174,-0.498985,-0.00145494,-0.0908228,0.0870833,-0.119723,-0.0730883
-0.0243704,0.183589,1.27135,-0.611303,0.119742,0.0799351,0.0626394,-0.0644345,-0.0729595
-0.0215409,0.171959,1.27391,-0.505788,0.198588,0.183319,0.0210689,0.0387428,-0.0739828
-0.0181701,0.164798,1.27772,-0.169338,0.188898,0.185946,-0.0128083,0.138602,-0.0823911
-0.0158059,0.165625,1.28079,0.254438,0.079216,0.106329,-0.0260066,0.199644,-0.0785661
-0.0161447,0.174379,1.2821,0.594233,-0.0953377,0.00446241,-0.0145879,0.19466,-0.0563857
-0.0196589,0.188426,1.28172,0.775103,-0.260596,-0.0630729,0.00194511,0.151607,-0.0186372
-0.025921,0.2043,1.28045,0.772168,-0.366747,-0.0942057,0.00874696,0.099915,0.01812
-0.0328571,0.218518,1.27891,0.611278,-0.338027,-0.095039,-0.00841162,0.0611739,0.0686952
-0.037773,0.22798,1.27758,0.308365,-0.157019,-0.0595022,-0.0298331,0.0280426,0.103176
-0.0385935,0.230625,1.27725,-0.0376906,0.0663981,0.0315618,-0.0301562,0.000390336,0.121801
-0.0359375,0.22747,1.27924,-0.240235,0.227774,0.171492,-0.0275569,-0.000453919,0.11538
-0.0315211,0.221563,1.28342,-0.319489,0.295704,0.24079,-0.0192119,0.0319955,0.105762
-0.0269184,0.215326,1.28794,-0.25248,0.241252,0.20422,-0.0168889,0.0695011,0.0755366
-0.0241739,0.211847,1.29118,-0.0894003,0.0874007,0.113071,-0.0108232,0.0823819,0.0601833
-0.0242002,0.211235,1.29258,0.0294034,-0.0553901,0.0347438,0.00252651,0.0599181,0.0668266
-0.0263183,0.21266,1.29338,0.112528,-0.117397,0.0495004,-0.00258271,0.0309461,0.0820996
-0.0289851,0.214944,1.29487,0.10522,-0.108543,0.0882615,0.00437303,-0.0113019,0.103073
-0.03126,0.216259,1.29708,0.0252043,-0.0721398,0.1208,0.00934757,-0.0426559,0.107959
-0.0327633,0.215656,1.29999,-0.0700876,-0.00821771,0.167594,0.0238961,-0.0629287,0.0933928
-0.0333976,0.213388,1.30396,-0.145021,0.0256083,0.22393,0.034465,-0.0779771,0.0744457
-0.0338559,0.209445,1.30876,-0.229697,0.0275359,0.254293,0.0503826,-0.0863332,0.0443431
-0.0347588,0.20417,1.31426,-0.269328,-0.00977152,0.303159,0.0592069,-0.0872389,0.0162206
-0.0347588,0.20417,1.31426,-0.269328,-0.00977152,0.303159,0.0592069,-0.0872389,0.0162206
-0.0370097,0.198563,1.32086,-0.271143,-0.0930899,0.36006,0.0678904,-0.0732163,-0.0209459
-0.0409557,0.193316,1.32841,-0.212154,-0.137599,0.393058,0.0660298,-0.0563142,-0.0425522
-0.0448476,0.189627,1.33634,-0.122823,-0.0858518,0.392973,0.0579448,-0.0321799,-0.0479656
-0.0471982,0.187587,1.34442,-0.0466251,0.0163939,0.409946,0.0417143,-0.032719,-0.061209
-0.0466872,0.186327,1.35323,-0.0632716,0.214613,0.462505,0.0252325,-0.0642612,-0.0498736
-0.0408727,0.182778,1.36349,-0.270395,0.556191,0.574686,0.0333447,-0.117707,-0.0176161
-0.0288481,0.174053,1.37677,-0.552536,0.866699,0.753933,0.0832483,-0.177411,-0.0137793
-0.0128051,0.159605,1.39332,-0.845505,0.952023,0.884758,0.155174,-0.195579,-0.0461465
0.00194352,0.139793,1.41189,-1.1061,0.770384,0.945331,0.217253,-0.163274,-0.123008
0.0125289,0.116448,1.43196,-1.19488,0.535239,1.01897,0.222923,-0.079784,-0.163375
0.0194998,0.0944651,1.4537,-0.970287,0.401801,1.09484,0.157133,0.0690256,-0.173761
0.0247026,0.0808253,1.47685,-0.396751,0.312184,1.16892,0.0758749,0.20032,-0.167311
0.0281179,0.0802228,1.50084,0.259647,0.204205,1.20548,0.0506352,0.250577,-0.123498
0.0288017,0.0910043,1.52497,0.698813,0.0589848,1.21405,0.0881884,0.189283,-0.0550729
0.026012,0.107047,1.54907,0.767938,-0.0893371,1.21457,0.14075,0.0716105,-0.0106228
0.0206195,0.12111,1.57354,0.544149,-0.14473,1.24698,0.165766,-0.0229997,0.00222975
0.0153369,0.12903,1.59925,0.19259,-0.037308,1.30099,0.130146,-0.0475361,0.013299
0.013106,0.129859,1.62605,-0.131382,0.150164,1.33876,0.077413,-0.000907212,0.00608242
0.0139737,0.125699,1.65324,-0.276662,0.272029,1.32821,0.0443797,0.0933706,-0.0108247
0.01701,0.121576,1.67956,-0.132276,0.329868,1.25414,0.0189897,0.21521,0.00538409
0.0202379,0.122196,1.70333,0.160782,0.260294,1.08526,0.0139719,0.283422,0.0145111
0.021571,0.12855,1.72328,0.408185,0.123437,0.907196,0.0367903,0.26374,0.0488454
0.0207578,0.138302,1.74055,0.496722,0.0333687,0.828807,0.063182,0.17758,0.105961
0.0191119,0.148016,1.75694,0.415776,0.0432058,0.810135,0.081623,0.0954743,0.151635
0.0181411,0.154934,1.77332,0.23714,0.111985,0.811409,0.0848298,0.0326412,0.166479
0.0186595,0.157926,1.78961,0.0423162,0.191153,0.79616,0.082358,0.00292818,0.160083
0.0208354,0.157763,1.80571,-0.0727338,0.277489,0.783588,0.0789426,-0.00663227,0.130006
0.024545,0.155884,1.82137,-0.139694,0.320207,0.741344,0.0722821,0.00945605,0.0871407
0.0286865,0.15332,1.8357,-0.150211,0.291953,0.654542,0.0788315,0.00942457,0.0411924
0.0317222,0.150463,1.84797,-0.172672,0.186499,0.547469,0.0969525,0.00113782,-0.00163323
0.0326786,0.147012,1.8584,-0.205556,0.0674236,0.469799,0.10832,-0.0150924,-0.0357137
0.0319162,0.143203,1.86747,-0.192821,-0.0184815,0.416755,0.0956741,-0.00676113,-0.0604532
0.0300312,0.140202,1.8757,-0.125014,-0.0470475,0.38072,0.0703655,0.0147281,-0.0869647
0.0278109,0.138887,1.8831,-0.025749,-0.0760614,0.339169,0.0474421,0.0315383,-0.106784
0.0249536,0.139371,1.88944,0.0481039,-0.117989,0.287851,0.0341135,0.0436288,-0.105128
0.021855,0.140891,1.8947,0.0814141,-0.111761,0.23917,0.0116731,0.0431661,-0.0774364
0.0190509,0.141636,1.89906,-0.0451301,-0.1127,0.191394,0.0183876,0.0028576,-0.0484471
0.0161391,0.138079,1.90275,-0.332415,-0.124291,0.173263,0.0489565,-0.038278,-0.02576
0.0133038,0.128028,1.90675,-0.673767,-0.108056,0.21833,0.0673108,-0.045097,0.00440794
0.0112339,0.111631,1.91236,-0.933911,-0.00241145,0.321783,0.0482539,0.0124464,0.0328671
0.012192,0.0928025,1.92042,-0.906768,0.161416,0.454526,0.00990959,0.105883,0.0682548
0.0152375,0.0770276,1.93052,-0.645034,0.198016,0.505435,-0.0160463,0.188219,0.061357
0.0171215,0.0679872,1.94039,-0.263745,0.0272141,0.440417,0.00434217,0.207202,0.0440066
0.0144727,0.0662604,1.94789,0.0558434,-0.250723,0.28991,0.0389042,0.173039,0.0352682
0.00692298,0.0687908,1.95207,0.151798,-0.454968,0.135706,0.0582942,0.0932575,0.0511388
-0.0029242,0.070889,1.95398,0.0296868,-0.48195,0.0738944,0.0518059,0.0103591,0.0696735
-0.0111929,0.0685869,1.95564,-0.284227,-0.306551,0.108591,0.0410277,-0.0499972,0.0842716
-0.0145549,0.0589739,1.95902,-0.656195,0.00230224,0.260177,0.0380123,-0.078313,0.078768
-0.0121449,0.0431682,1.96619,-0.864352,0.256681,0.473127,0.0401331,-0.0507478,0.0443896
-0.0121449,0.0431682,1.96619,-0.864352,0.256681,0.473127,0.0401331,-0.0507478,0.0443896
-0.00575798,0.0257565,1.97706,-0.823662,0.381857,0.60119,0.0495334,0.0188872,0.0158261
0.000765515,0.0114247,1.98928,-0.574346,0.246916,0.598971,0.0672429,0.0774035,-0.03423
0.00303844,0.00325956,2.00042,-0.241757,-0.0179449,0.501959,0.0887126,0.0944919,-0.06016
0.000243805,0.00138002,2.0097,0.0360862,-0.241453,0.433824,0.0926821,0.0700751,-0.0464334
-0.00549769,0.00359379,2.01849,0.164962,-0.308124,0.453322,0.0854994,0.0116352,-0.00086081
-0.0113884,0.00692893,2.02849,0.15344,-0.260592,0.541693,0.0783433,-0.0489946,0.0284451
-0.0155507,0.00894947,2.04047,0.0533388,-0.143489,0.650565,0.072251,-0.0899276,0.0492013
-0.0172438,0.00835142,2.05451,-0.0851649,-0.0185831,0.744007,0.072418,-0.106502,0.04808
-0.0169966,0.00549369,2.07027,-0.159256,0.0389032,0.823793,0.0754976,-0.0979914,0.0239646
-0.0162124,0.00169294,2.08733,-0.184989,0.0347945,0.876373,0.085105,-0.0798195,-0.00284886
-0.0161291,-0.00199375,2.10533,-0.140685,-0.0303158,0.921815,0.0912779,-0.0557047,-0.0423073
-0.0175768,-0.00417364,2.12431,-0.0369789,-0.123949,0.966344,0.0901312,-0.0343402,-0.0782118
-0.0208027,-0.0041042,2.14397,0.0792877,-0.203009,0.991289,0.0765108,-0.0171352,-0.105388
-0.0250375,-0.00160901,2.16424,0.222514,-0.219737,1.0219,0.0510052,0.00780569,-0.124186
-0.0297128,0.00416518,2.18519,0.404916,-0.255348,1.04666,0.0348351,0.035049,-0.126747
-0.0360403,0.0132432,2.2064,0.562282,-0.375312,1.02883,0.0442995,0.0465985,-0.118214
-0.0456528,0.02489,2.22701,0.6523,-0.541797,0.972,0.0497884,0.0183261,-0.116143
-0.0578547,0.0359349,2.24704,0.504221,-0.584721,0.970322,0.0481262,-0.0449749,-0.108656
-0.0693726,0.0414346,2.26722,0.156047,-0.447055,1.00304,0.0382821,-0.0868579,-0.0738639
-0.0762047,0.0393235,2.28812,-0.194815,-0.121028,1.0888,0.00667501,-0.0582819,-0.0324358
-0.0757936,0.031874,2.31067,-0.329997,0.217888,1.21252,-0.0128643,0.0248191,0.00178009
-0.0701363,0.0242138,2.33602,-0.215017,0.379017,1.35027,0.0257924,0.0912891,0.0137438
-0.0637101,0.0204465,2.36395,0.0342202,0.27369,1.43799,0.107736,0.107924,0.0477504
-0.0616604,0.0209229,2.39323,0.168411,-0.0102046,1.45086,0.192559,0.0600907,0.0834067
-0.0649269,0.0225418,2.42223,0.144435,-0.247872,1.42111,0.253006,-0.00449864,0.124272
-0.0719748,0.0217233,2.45082,-0.0492849,-0.359661,1.43029,0.278713,-0.0610421,0.116225
-0.0795909,0.0162059,2.47968,-0.276843,-0.332835,1.47504,0.265913,-0.0609126,0.0977166
-0.0858591,0.00633899,2.50828,-0.467179,-0.263517,1.43398,0.234006,-0.0134974,0.0573926
-0.0904048,-0.00712233,2.53529,-0.629491,-0.185825,1.36313,0.211648,0.0395392,0.0195422
-0.0925511,-0.0232303,2.56101,-0.709191,-0.0596119,1.34639,0.201906,0.0814777,-0.00447214
-0.0911045,-0.0391557,2.58718,-0.599124,0.107601,1.39609,0.19621,0.133828,-0.0169649
-0.086264,-0.051347,2.61415,-0.353597,0.226597,1.35487,0.207107,0.176901,-0.0297965
-0.0807079,-0.0574248,2.63964,-0.0270687,0.141736,1.23371,0.211286,0.188655,-0.0420837
-0.0783719,-0.0565379,2.66423,0.284632,-0.0409095,1.20124,0.208965,0.147212,-0.0518579
-0.0784358,-0.0506322,2.68897,0.464625,-0.0937309,1.2051,0.22303,0.090518,-0.00287199
-0.0792761,-0.0428079,2.71396,0.480911,-0.109692,1.2046,0.221195,0.036139,0.0177203
-0.0798157,-0.0357331,2.73879,0.412361,-0.0331295,1.19975,0.208891,0.0135147,0.0329691
-0.0786439,-0.0302676,2.76351,0.323182,0.0684408,1.2016,0.188436,-0.00191208,0.0298541
-0.0752651,-0.0265989,2.78769,0.225118,0.18244,1.16593,0.184329,0.00666849,0.0301719
-0.0703571,-0.0244606,2.81097,0.159534,0.232032,1.12631,0.193676,0.0107439,0.00825965
-0.0652959,-0.0233135,2.83325,0.10928,0.206263,1.07488,0.205704,0.0225109,-0.0214452
-0.0612097,-0.0224031,2.85445,0.120792,0.140287,1.01808,0.204848,0.0436695,-0.0522788
-0.0588948,-0.0208017,2.87444,0.152445,0.0281395,0.959762,0.18989,0.0575843,-0.0947995
-0.0590884,-0.0187527,2.89343,0.158368,-0.08189,0.915103,0.15908,0.0785233,-0.12924
-0.0611668,-0.0162914,2.91148,0.201482,-0.168913,0.864611,0.10502,0.118185,-0.139789
-0.0654022,-0.0117928,2.92883,0.371121,-0.270694,0.833461,0.0580115,0.151675,-0.127894
-0.0688365,-0.00328876,2.94536,0.562987,-0.0289397,0.724409,0.0509595,0.174675,-0.0351343
-0.0685186,0.00726658,2.95931,0.532516,0.0100249,0.598544,0.0580414,0.117084,-0.0324937
-0.0685186,0.00726658,2.95931,0.532516,0.0100249,0.598544,0.0580414,0.117084,-0.0324937
-0.0678693,0.0146249,2.97089,0.23551,0.0705644,0.51856,0.0780181,0.0398777,-0.0343303
-0.0653816,0.0143427,2.98191,-0.18154,0.224384,0.604718,0.0615441,0.00147912,-0.031826
-0.057907,0.00715728,2.99588,-0.399893,0.542945,0.840829,0.0241969,0.040986,-0.00479925
-0.0442838,-0.0010251,3.01492,-0.261584,0.764128,1.08238,-0.000713687,0.136747,-0.00052309
-0.0300633,-0.00343053,3.03784,0.124356,0.601155,1.16852,0.0058886,0.188907,-0.0517273
-0.021404,0.00207968,3.06042,0.44883,0.235994,1.04163,0.0463504,0.184621,-0.0548882
-0.0205883,0.0121366,3.07992,0.563431,-0.121039,0.888223,0.0832073,0.116659,-0.0496172
-0.025476,0.0229332,3.09725,0.537608,-0.299852,0.821927,0.0792995,0.0501377,-0.0351332
-0.0319274,0.0323965,3.11394,0.44293,-0.268158,0.811784,0.0543814,0.027203,-0.0187038
-0.0366307,0.0395779,3.13059,0.328958,-0.131178,0.821781,0.0431245,0.0290391,-0.0087471
-0.038221,0.0447752,-3.13565,0.265651,0.0399445,0.842159,0.0417897,0.0479952,0.000175536
-0.0365609,0.0497201,-3.11854,0.304471,0.192497,0.836822,0.035119,0.082735,0.0114482
-0.0326508,0.0562019,-3.10178,0.407789,0.270521,0.800016,0.0346533,0.106069,0.0250343
-0.0285333,0.0651553,-3.08599,0.528247,0.221039,0.741876,0.0461538,0.100784,0.0414936
-0.0258584,0.0763531,-3.07143,0.61314,0.147193,0.672479,0.0586323,0.0803379,0.0854068
-0.0248964,0.0885993,-3.05809,0.618022,0.0620842,0.627552,0.0625922,0.0399758,0.12498
-0.0248953,0.0997739,-3.04514,0.514238,0.0659397,0.64164,0.060383,-0.00875942,0.173124
-0.0249272,0.108146,-3.03109,0.348717,0.0782908,0.7378,0.0636126,-0.0590721,0.183043
-0.0248178,0.112993,-3.01482,0.156362,0.11327,0.856487,0.0616443,-0.0960179,0.192948
-0.0240683,0.113521,-2.9964,-0.0514034,0.171372,0.967551,0.0571294,-0.107716,0.166493
-0.0222345,0.110789,-2.97558,-0.164813,0.232771,1.09632,0.0614335,-0.111727,0.1355
-0.0205011,0.106214,-2.95243,-0.22607,0.174176,1.18979,0.0793288,-0.100849,0.0740659
-0.0207479,0.101627,-2.92789,-0.166452,0.0366448,1.24387,0.092554,-0.0721466,0.0217412
-0.0244069,0.0990629,-2.90262,-0.0360607,-0.151417,1.25394,0.0882649,-0.0481021,-0.0284078
-0.0317705,0.0992226,-2.87767,0.121492,-0.331316,1.21123,0.0712512,-0.0157625,-0.0702553
-0.0421803,0.101858,-2.85376,0.210379,-0.447056,1.14418,0.0501127,-0.00969215,-0.105677
-0.0532213,0.105318,-2.8307,0.240149,-0.391906,1.13555,0.0319816,0.00279821,-0.112982
-0.0618433,0.109281,-2.80668,0.288507,-0.198338,1.23166,0.0179019,0.00103176,-0.106254
-0.0671301,0.113747,-2.77994,0.299983,-0.0655621,1.37129,0.0487934,-0.032555,-0.0985591
-0.0723328,0.116521,-2.75124,0.152598,-0.185671,1.43221,0.142855,-0.0946952,-0.109247
-0.0826407,0.115415,-2.72234,-0.0437985,-0.526028,1.41664,0.234692,-0.0994716,-0.137881
-0.098974,0.110259,-2.69418,-0.199864,-0.738211,1.41306,0.254386,-0.0309556,-0.103084
-0.11644,0.102492,-2.66536,-0.255171,-0.66792,1.51274,0.212446,0.0544455,-0.036123
-0.130398,0.0941196,-2.63435,-0.158676,-0.384382,1.63143,0.13429,0.139788,0.000534296
-0.136846,0.0885855,-2.60102,0.043938,0.0498421,1.70884,0.0953569,0.177627,0.0802879
-0.135506,0.0855555,-2.56577,0.11364,0.363666,1.80511,0.128891,0.137362,0.121303
-0.129424,0.0823899,-2.52814,0.0378303,0.510682,1.93444,0.213846,0.0421814,0.147727
-0.122585,0.0765575,-2.48832,-0.120845,0.457718,2.04692,0.291155,-0.00956149,0.117656
-0.117861,0.0679219,-2.44718,-0.237684,0.29604,2.09579,0.29583,-0.00265634,0.0631298
-0.115578,0.0577625,-2.40639,-0.281982,0.210249,2.03097,0.235536,0.048621,0.0163298
-0.113276,0.0479184,-2.3675,-0.245748,0.238535,1.91483,0.153249,0.0999174,-0.0189477
-0.109074,0.0393351,-2.33066,-0.188711,0.342682,1.8314,0.103128,0.12244,-0.0433632
-0.102321,0.0329165,-2.29464,-0.0643212,0.460337,1.80168,0.0798096,0.120298,-0.0605786
-0.093276,0.0295803,-2.25909,0.0717371,0.530814,1.74123,0.0820528,0.119542,-0.0565099
-0.0838991,0.0294986,-2.22482,0.223537,0.492177,1.6469,0.102288,0.10823,-0.0637654
-0.0760241,0.0326885,-2.19272,0.335872,0.374966,1.50627,0.126188,0.0800155,-0.0507386
-0.0709534,0.0380729,-2.16341,0.40639,0.222706,1.36675,0.133465,0.0576103,-0.0440257
-0.0709534,0.0380729,-2.16341,0.40639,0.222706,1.36675,0.133465,0.0576103,-0.0440257
-0.0691115,0.0449792,-2.13638,0.458783,0.0714513,1.27054,0.136812,0.0354121,-0.0321438
-0.0696197,0.0526176,-2.11093,0.464008,0.019399,1.19226,0.129343,0.0118525,-0.00902164
-0.0707424,0.0601208,-2.08718,0.44098,-0.00147194,1.11198,0.0934287,0.0128282,-0.0114293
-0.0721423,0.0674995,-2.06499,0.445191,-0.00528404,1.03427,0.0834055,0.0127303,-0.0202685
-0.074355,0.0752393,-2.04431,0.467812,-0.0795029,0.951905,0.0943248,0.00777038,-0.0313565
-0.0786091,0.0836001,-2.02546,0.496434,-0.207411,0.845603,0.113013,0.003028,-0.0341271
-0.0855262,0.0924278,-2.00893,0.498856,-0.333534,0.716874,0.122365,-0.0129588,-0.0374642
-0.0938595,0.100952,-1.99486,0.447689,-0.33712,0.607454,0.106932,-0.0228608,-0.0310007
-0.100477,0.10782,-1.98213,0.334874,-0.167517,0.604541,0.0773558,-0.0464869,-0.0202969
-0.103396,0.110961,-1.96885,0.0838605,-0.00287414,0.674712,0.0548632,-0.0594327,-0.0456221
-0.103043,0.109398,-1.95464,-0.0628322,0.209064,0.733145,0.0193144,-0.0284234,-0.0822039
-0.0984119,0.106907,-1.93976,-0.0354282,0.370869,0.745723,0.00736028,0.00796387,-0.112723
-0.0931466,0.104759,-1.92546,-0.0664413,0.27134,0.670886,0.0382419,-0.00523517,-0.175855
-0.0908576,0.101122,-1.91332,-0.190117,0.0823148,0.562254,0.0652754,-0.0108667,-0.190746
-0.0912455,0.0953771,-1.90296,-0.259735,0.0191568,0.532499,0.0320044,0.0320918,-0.149754
-0.0906075,0.0899142,-1.89163,-0.145499,0.16769,0.652864,-0.0236361,0.102763,-0.0616529
-0.0866246,0.0883197,-1.87707,0.138038,0.347578,0.787931,-0.0459009,0.152765,-0.000720382
-0.0807676,0.0933261,-1.8603,0.489048,0.345845,0.805198,-0.0317775,0.164831,0.0422072
-0.0769839,0.104606,-1.84389,0.735173,0.175438,0.717228,0.0212813,0.121154,0.0812184
-0.0772622,0.119324,-1.82936,0.8001,-0.0372936,0.606639,0.0788796,0.0416029,0.124937
-0.0815701,0.133286,-1.81641,0.659739,-0.228962,0.57421,0.129311,-0.0467807,0.161862
-0.0893323,0.142674,-1.80363,0.359921,-0.350834,0.609229,0.156331,-0.123953,0.171546
-0.0982301,0.145132,-1.7904,0.00636349,-0.335392,0.666456,0.143977,-0.141403,0.181021
-0.105729,0.140959,-1.77671,-0.271661,-0.202292,0.71635,0.109125,-0.116496,0.181819
-0.109898,0.13229,-1.76281,-0.41562,-0.0251493,0.72877,0.0751489,-0.0694203,0.174629
-0.110664,0.122454,-1.74942,-0.396336,0.102685,0.688399,0.060615,-0.0213452,0.149359
-0.109648,0.113829,-1.73682,-0.320452,0.132842,0.650667,0.0691697,0.00105007,0.119657
-0.10854,0.106635,-1.72446,-0.264102,0.0982171,0.649446,0.101287,-0.0186125,0.104481
-0.108761,0.100173,-1.71166,-0.246427,0.00843254,0.683364,0.122743,-0.0461735,0.0879237
-0.110733,0.093541,-1.69781,-0.259551,-0.0598526,0.761363,0.122857,-0.0651341,0.0671213
-0.113505,0.0866587,-1.68208,-0.245402,-0.0664518,0.86115,0.09448,-0.0626806,0.0384971
-0.115874,0.0795541,-1.66462,-0.2602,-0.0200186,0.941849,0.0703578,-0.0552954,0.0179694
-0.116984,0.0720006,-1.64545,-0.260653,0.0624268,1.0386,0.0503293,-0.0510931,-0.00655466
-0.116013,0.0645019,-1.6241,-0.231212,0.178977,1.15547,0.0431707,-0.0389821,-0.0268082
-0.112974,0.0576689,-1.60033,-0.16996,0.258511,1.26757,0.0477729,-0.0348007,-0.0631871
-0.108911,0.0522317,-1.57454,-0.0766132,0.265873,1.32429,0.0525328,-0.0329513,-0.111025
-0.105661,0.0493427,-1.54815,0.080132,0.184242,1.30313,0.0346578,-0.00927106,-0.172833
-0.10392,0.050324,-1.52236,0.277249,0.120727,1.23351,0.00721185,0.00498422,-0.199968
-0.102971,0.0549044,-1.49757,0.420644,0.124015,1.1739,-0.00683245,-0.00814196,-0.20458
-0.101122,0.0616109,-1.4735,0.461415,0.192105,1.13594,-0.00071267,-0.0497714,-0.174812
-0.0985523,0.0678071,-1.45015,0.343946,0.195475,1.10846,0.0375894,-0.11091,-0.166685
-0.0966579,0.069971,-1.42769,0.063019,0.148531,1.09619,0.0717963,-0.14229,-0.157204
-0.0949149,0.0660637,-1.40541,-0.216952,0.197963,1.1592,0.049644,-0.093698,-0.115193
-0.0911729,0.0582467,-1.3813,-0.299488,0.362466,1.29142,0.00010258,0.00468598,-0.0622082
-0.0826611,0.0506892,-1.35552,-0.20182,0.614683,1.29422,-0.00269829,0.127465,0.034368
-0.0710281,0.04686,-1.33074,0.0127317,0.610742,1.17905,0.0426771,0.170607,0.0931091
-0.0614636,0.0474247,-1.30833,0.164097,0.448302,1.04776,0.106995,0.121336,0.13911
-0.0546771,0.0492804,-1.28751,0.100771,0.335857,1.02591,0.172137,0.042043,0.201441
-0.0546771,0.0492804,-1.28751,0.100771,0.335857,1.02591,0.172137,0.042043,0.201441
-0.0493108,0.0479845,-1.26589,-0.15653,0.312176,1.14523,0.221491,-0.0403365,0.225998
-0.0438135,0.0404306,-1.24095,-0.475727,0.356472,1.38198,0.236192,-0.0755167,0.196268
-0.0369352,0.0269273,-1.21137,-0.7342,0.417033,1.59032,0.22536,-0.064415,0.145349
-0.0295042,0.00949642,-1.17921,-0.864485,0.35326,1.6395,0.201007,-0.00876849,0.069527
-0.0244753,-0.00855717,-1.14722,-0.816833,0.138814,1.57982,0.176572,0.044101,-0.0131382
-0.0234415,-0.023725,-1.11648,-0.59473,-0.0788968,1.51949,0.154674,0.0913437,-0.0635291
-0.0256598,-0.0330648,-1.08682,-0.252143,-0.225892,1.44706,0.119729,0.12281,-0.0896055
-0.0303627,-0.0351396,-1.05885,0.11818,-0.334298,1.33172,0.0906116,0.139154,-0.108057
-0.0370353,-0.0305373,-1.03339,0.397139,-0.398107,1.18941,0.0772014,0.112213,-0.0989147
-0.0440876,-0.0218593,-1.01021,0.540658,-0.349224,1.09257,0.0653032,0.0611807,-0.0615436
-0.0498204,-0.0114348,-0.988191,0.577359,-0.238852,1.04643,0.0642009,0.0103549,-0.0314116
-0.0528527,-0.00100608,-0.967226,0.56848,-0.0749931,0.979146,0.046511,-0.0151357,-0.0178001
-0.0531711,0.00948828,-0.947738,0.567533,0.0409435,0.89993,0.0352757,-0.0350065,-0.0154658
-0.0514693,0.0194935,-0.930096,0.504791,0.151933,0.798323,0.0455012,-0.0509271,-0.00923491
-0.0481616,0.028196,-0.914652,0.427644,0.202842,0.69479,0.0505196,-0.0678619,-0.0212252
-0.0441641,0.0349902,-0.901419,0.303595,0.237598,0.582811,0.0529118,-0.0726525,-0.040054
-0.0393439,0.0394835,-0.89071,0.189149,0.287194,0.463029,0.0414547,-0.0507978,-0.0555077
-0.0331414,0.0425129,-0.882478,0.152834,0.374326,0.352443,0.0195709,-0.00793025,-0.0621516
-0.0248214,0.0463148,-0.875778,0.256431,0.467333,0.313754,0.00660388,0.0312836,-0.0631323
-0.0160135,0.0532398,-0.869364,0.429909,0.40687,0.306866,0.0217123,0.0123821,-0.0871772
-0.010835,0.0619933,-0.863727,0.39104,0.11822,0.231112,0.0329851,-0.037549,-0.102916
-0.011758,0.0660927,-0.860279,-0.0271478,-0.158216,0.116786,0.0481091,-0.116924,-0.095041
-0.0154697,0.0602934,-0.85777,-0.516229,-0.130793,0.175575,0.0229179,-0.150513,-0.0773759
-0.0152278,0.0479875,-0.851778,-0.614227,0.196453,0.470254,-0.0567354,-0.0428665,-0.0307317
-0.00887442,0.0390367,-0.838891,-0.192733,0.468921,0.798669,-0.132017,0.13029,-0.0519486
0.000183591,0.0418429,-0.822031,0.47617,0.406577,0.806578,-0.132248,0.253913,-0.0459498
0.00314475,0.0571274,-0.809091,0.988463,-0.0643218,0.443537,-0.0959587,0.256651,-0.0440404
-0.00269014,0.0786028,-0.80443,1.07211,-0.43371,0.0482407,-0.0378302,0.154373,0.0544192
-0.0117387,0.0974076,-0.804915,0.755703,-0.417269,-0.0456159,0.0143227,0.0130556,0.155027
-0.016714,0.108308,-0.803765,0.32484,-0.0155787,0.172591,0.00396588,-0.0728426,0.215971
-0.0129847,0.110695,-0.797378,-0.0553056,0.437084,0.44581,-0.00381865,-0.0667317,0.212607
-0.00207888,0.107099,-0.786978,-0.274112,0.733641,0.546423,0.00920817,-0.0220423,0.165121
0.0125014,0.100829,-0.776723,-0.337703,0.78122,0.445117,0.0440506,0.0150872,0.110856
0.0255646,0.094384,-0.769324,-0.303099,0.570809,0.279693,0.0824012,0.0177516,0.0623167
0.0340711,0.0896176,-0.764691,-0.181494,0.331097,0.178884,0.0974199,0.0068408,0.0491657
0.0390669,0.087253,-0.761228,-0.0714859,0.208327,0.174777,0.096666,-0.011109,0.0672284
0.0422485,0.0865708,-0.757002,-0.0262836,0.159215,0.248953,0.0903839,-0.0408566,0.0775042
0.0451251,0.0864195,-0.750853,-0.0228198,0.185612,0.36025,0.0854298,-0.0655893,0.0834345
0.0485133,0.0859841,-0.742485,-0.0619639,0.221326,0.458331,0.0844364,-0.0890944,0.070283
0.0522623,0.0850026,-0.732398,-0.0826409,0.226141,0.533418,0.0829599,-0.0937954,0.040073
0.0553131,0.0838958,-0.720868,-0.0866164,0.172771,0.600255,0.0868164,-0.0917244,0.0014438
0.0568903,0.0832325,-0.707991,-0.0459692,0.0857883,0.677475,0.087716,-0.0793239,-0.0226674
0.0560777,0.0838355,-0.693393,0.0200664,-0.0477951,0.76346,0.0791736,-0.0686828,-0.0582097
0.0523025,0.0854534,-0.677612,0.0488336,-0.184279,0.803594,0.0637722,-0.0593649,-0.0959843
0.0465404,0.0870871,-0.66116,0.0315521,-0.23943,0.829242,0.0401244,-0.0557842,-0.123261
0.0403578,0.0889792,-0.643985,0.0860997,-0.207405,0.885015,0.0063522,-0.0320641,-0.151114
0.0355838,0.092507,-0.625521,0.198441,-0.0966912,0.958194,-0.0302361,-0.0103929,-0.158898
0.0322928,0.0983435,-0.60586,0.303138,-0.0484338,0.992238,-0.048992,0.000406727,-0.168192
0.0322928,0.0983435,-0.60586,0.303138,-0.0484338,0.992238,-0.048992,0.000406727,-0.168192
0.0300126,0.106156,-0.586327,0.402911,0.0290932,0.960849,-0.0515218,0.0113677,-0.136326
0.0295655,0.114815,-0.567321,0.369288,0.131134,0.952261,-0.0310449,-0.0278624,-0.0925894
0.0307793,0.120744,-0.547841,0.1297,0.207348,0.999938,0.0323464,-0.0975817,-0.0644373
0.0326931,0.120985,-0.526423,-0.168081,0.245258,1.11918,0.0694805,-0.10662,-0.0699435
0.0355114,0.1162,-0.502416,-0.361469,0.33105,1.22892,0.0637804,-0.0362985,-0.072006
0.0404276,0.109432,-0.476708,-0.374696,0.444493,1.27653,0.0403612,0.0752626,-0.0767859
0.0474576,0.105079,-0.450728,-0.133477,0.521476,1.26137,0.0065176,0.179593,-0.0485361
0.0554188,0.107268,-0.426124,0.229351,0.504061,1.17314,0.0110901,0.21012,0.019734
0.0618784,0.116105,-0.403934,0.486671,0.369083,1.07505,0.0640963,0.143585,0.0943328
0.0650261,0.127577,-0.383542,0.471525,0.202756,1.01192,0.114778,0.0354652,0.140732
0.0660588,0.135853,-0.364026,0.196168,0.179911,0.969655,0.14021,-0.0306105,0.165627
0.0681193,0.137737,-0.344327,-0.141466,0.326497,0.991099,0.127707,-0.0546838,0.165142
0.0739473,0.133296,-0.323086,-0.431767,0.532123,1.06771,0.111392,-0.0307033,0.155199
0.0829995,0.125031,-0.300001,-0.539141,0.653487,1.12655,0.0893738,0.0160175,0.10151
0.0936307,0.116752,-0.276353,-0.460224,0.673133,1.11205,0.0704116,0.0772416,0.0574759
0.10372,0.111641,-0.253824,-0.261838,0.573451,1.04386,0.0666971,0.103215,0.0186617
0.111375,0.110549,-0.23358,-0.0749619,0.409149,0.929475,0.0806038,0.0949432,0.0112209
0.116164,0.112053,-0.215943,0.00217225,0.267588,0.826155,0.107678,0.0470298,0.0270247
0.118875,0.11367,-0.19981,-0.048124,0.197456,0.786395,0.128813,-0.00286159,0.0475699
0.121105,0.113515,-0.183619,-0.161696,0.22742,0.808035,0.121912,-0.0260563,0.0616654
0.124537,0.111456,-0.166385,-0.23644,0.30684,0.857763,0.104812,-0.0147822,0.0534052
0.12928,0.109173,-0.148447,-0.194197,0.35759,0.866282,0.0825562,0.0238121,0.0212432
0.134406,0.108551,-0.131259,-0.0902299,0.324387,0.802828,0.0781057,0.0534368,-0.00494874
0.137767,0.110093,-0.115869,0.0324271,0.168809,0.725086,0.089147,0.0506663,-0.0415793
0.137665,0.113258,-0.102148,0.0763833,-0.0348566,0.66349,0.106706,0.0253084,-0.0578755
0.133627,0.116766,-0.0896077,0.0986318,-0.207377,0.616935,0.0965133,0.0245203,-0.0808643
0.126971,0.120641,-0.0776328,0.124358,-0.297784,0.614959,0.0688706,0.0359975,-0.0889749
0.119418,0.124904,-0.0653727,0.148251,-0.292649,0.634588,0.042499,0.0450204,-0.0810189
0.112292,0.130332,-0.0531041,0.250718,-0.249081,0.614725,-0.00284432,0.0627182,-0.0933849
0.106239,0.137352,-0.0421083,0.302383,-0.217882,0.535411,0.000916459,0.0426367,-0.0633428
0.100261,0.144078,-0.0325396,0.254533,-0.243465,0.481085,0.03162,-0.0176751,-0.0504569
0.0937433,0.1494,-0.023451,0.178588,-0.252886,0.456253,0.040951,-0.0559436,-0.0498287
0.0874075,0.15212,-0.0148197,-0.0070007,-0.236252,0.417555,0.0467685,-0.0763257,-0.0368211
0.0822111,0.150477,-0.00624737,-0.213098,-0.134305,0.418759,0.0392623,-0.0636372,-0.0252139
0.0795104,0.146499,0.00305718,-0.231797,-0.0068011,0.462052,0.0206368,0.00908931,-0.00840515
0.0782502,0.143549,0.0130811,-0.122007,0.00563214,0.494477,0.0363269,0.0553032,-0.0149466
0.0756169,0.143825,0.023306,0.0818396,-0.144862,0.505263,0.0598787,0.0760539,-0.023819
0.0692862,0.148355,0.0330025,0.294618,-0.333325,0.470925,0.0650136,0.0906978,-0.0194914
0.0597979,0.156196,0.0412844,0.402461,-0.478186,0.38871,0.0522629,0.0852796,0.0181193
0.0478708,0.164127,0.0480879,0.313579,-0.605106,0.32809,0.0513318,0.0508723,0.0294681
0.0341626,0.169029,0.0541777,0.155415,-0.615113,0.292907,0.047004,0.0319952,0.0274707
0.0231448,0.17122,0.0599145,0.0459127,-0.367916,0.289822,0.0484847,0.0488634,0.0828158
0.0169988,0.171282,0.0667016,-0.0446276,-0.148985,0.39159,0.0701953,0.0348713,0.0745649
0.0132702,0.170105,0.0762999,-0.0794271,-0.0701255,0.5426,0.0785355,0.0210162,0.0427617
0.0108154,0.168808,0.0883518,-0.064983,0.0156926,0.624443,0.0718276,0.0342797,0.0604198
0.00895372,0.168081,0.101411,-0.0192529,0.0225463,0.646607,0.0542677,0.0363241,0.0548379
0.00730954,0.168392,0.114624,0.0259605,0.0353652,0.648298,0.0364341,0.0246076,0.0841873
0.00730954,0.168392,0.114624,0.0259605,0.0353652,0.648298,0.0364341,0.0246076,0.0841873
0.00590731,0.16896,0.127998,0.00769038,0.058357,0.660965,0.036108,-0.00789858,0.10789
0.00523369,0.16853,0.141513,-0.0645102,0.103302,0.666241,0.0375041,-0.0401987,0.131083
0.00546638,0.166407,0.155337,-0.157291,0.143645,0.687387,0.0404771,-0.0739385,0.13052
0.0059663,0.162494,0.169742,-0.236794,0.144557,0.727869,0.0493492,-0.0911504,0.108727
0.00665292,0.157631,0.185298,-0.242022,0.171765,0.799146,0.0421967,-0.0786015,0.0859993
0.00736011,0.153582,0.202203,-0.157473,0.151703,0.8501,0.0169881,-0.0533506,0.0381753
0.00763934,0.152011,0.219299,-0.0218653,0.125362,0.816635,-0.00858876,-0.0361047,0.00748277
0.00694642,0.152149,0.235089,0.00481833,0.0395961,0.735474,-0.00964321,-0.0700864,-0.0340981
0.00505762,0.152119,0.24947,-0.0240145,0.00293954,0.692469,0.000829674,-0.109194,-0.0609531
0.00290502,0.151417,0.263637,-0.0479708,0.0117023,0.706382,-0.0127747,-0.112085,-0.0941637
0.00191663,0.150694,0.278235,-0.0181507,0.110739,0.728018,-0.0345334,-0.0673746,-0.109067
0.00273865,0.151331,0.293229,0.0797512,0.19611,0.741856,-0.0470494,-0.0283539,-0.129596
0.00454784,0.153764,0.308132,0.151231,0.20439,0.726269,-0.0315785,-0.0139405,-0.141829
0.00653436,0.157163,0.322775,0.158319,0.221228,0.718259,-0.010238,-0.0266342,-0.125719
0.00861152,0.159442,0.337619,0.0341763,0.213086,0.74871,0.0357178,-0.0643314,-0.10908
0.00992335,0.158379,0.353792,-0.154733,0.175092,0.846723,0.0733004,-0.0912602,-0.11254
0.0102084,0.154249,0.372324,-0.255235,0.154848,0.955763,0.0690146,-0.0488307,-0.113136
0.0109132,0.149955,0.392026,-0.153927,0.216786,0.96067,0.0184911,0.0591382,-0.0880176
0.0129546,0.149455,0.410913,0.0954492,0.271466,0.889279,-0.0323258,0.159016,-0.0434114
0.0165823,0.154272,0.428218,0.347459,0.347955,0.827499,-0.014401,0.177632,0.0478481
0.0207467,0.162943,0.444949,0.462337,0.304883,0.842832,0.0513375,0.114249,0.117966
0.0224463,0.17215,0.462249,0.38667,0.146108,0.873183,0.126355,0.0218865,0.141083
0.0206424,0.178171,0.480216,0.168267,0.00172893,0.902534,0.163066,-0.0255753,0.139477
0.0163542,0.179855,0.499202,-0.0304002,-0.0826002,0.952315,0.1549,-0.0242384,0.106342
0.0109329,0.178215,0.51889,-0.154585,-0.0973319,0.962423,0.114652,0.0363126,0.0458246
0.00575965,0.174731,0.538366,-0.187534,-0.0705106,0.943128,0.0702253,0.0920558,-0.0293268
0.00144239,0.171531,0.557345,-0.120806,-0.0254031,0.916693,0.0300119,0.133765,-0.0852636
-0.00162974,0.170925,0.575765,0.0739568,0.0373602,0.885572,-0.00396349,0.164982,-0.0913556
-0.00316979,0.174591,0.593063,0.285795,0.10239,0.797756,-0.0188511,0.16513,-0.0529423
-0.00337484,0.181549,0.608111,0.391296,0.136899,0.669126,-0.00035802,0.121257,-0.00058639
-0.00270012,0.189493,0.620657,0.378342,0.157614,0.560713,0.0291868,0.0581881,0.0506846
-0.00149618,0.196111,0.631646,0.280273,0.176666,0.516942,0.0473354,-0.00294386,0.0866657
0.000475552,0.200472,0.642253,0.154737,0.234355,0.516432,0.044349,-0.0251266,0.117195
0.00365642,0.202702,0.652544,0.0750202,0.287626,0.47814,0.0172162,-0.0139391,0.123166
0.00798295,0.203707,0.66151,0.0123546,0.309224,0.395697,0.00684586,-0.00984177,0.122847
0.0127263,0.202936,0.668609,-0.0998543,0.319249,0.296158,0.0145585,-0.0321883,0.10411
0.0179243,0.19996,0.67435,-0.203632,0.305455,0.268501,0.0269741,-0.048333,0.0814032
0.0227406,0.194709,0.680167,-0.335296,0.289315,0.287138,0.0430291,-0.0732121,0.0490113
0.0278313,0.186778,0.686084,-0.435818,0.338917,0.258648,0.0315704,-0.0508631,0.0113561
0.0341201,0.179173,0.691182,-0.317329,0.361799,0.208852,-0.0102978,0.025857,-0.0552776
0.0401625,0.174228,0.69471,-0.18488,0.293898,0.115627,-0.000923842,0.0544823,-0.106693
0.0443114,0.171633,0.696376,-0.0845764,0.149814,0.0497251,0.0145815,0.0425876,-0.131749
0.0464844,0.170663,0.697435,-0.0301169,0.111321,0.0571819,0.0228414,0.0321561,-0.109373
0.0486897,0.170763,0.699195,0.0494409,0.13201,0.118584,0.0042988,0.052152,-0.0848043
0.0509701,0.172728,0.701493,0.109884,0.122348,0.0868488,-0.0141792,0.0449787,-0.0815285
0.0523169,0.173736,0.701898,-0.0321734,0.0164813,-0.0428373,0.00487533,0.0091671,-0.0910172
0.0519562,0.171336,0.700474,-0.183728,-0.0577481,-0.0940535,0.00288945,-0.0205108,-0.100185
0.0512041,0.166567,0.698921,-0.275579,-0.0391146,-0.0878872,-0.0182163,-0.00510065,-0.0855673
0.0512041,0.166567,0.698921,-0.275579,-0.0391146,-0.0878872,-0.0182163,-0.00510065,-0.0855673
0.0516481,0.160977,0.697395,-0.234638,0.0522502,-0.0885927,-0.0389185,0.0451244,-0.0703211
0.0533943,0.158336,0.695822,0.0064265,0.0910887,-0.0842867,-0.0739721,0.105765,-0.0788272
0.0555418,0.161684,0.693272,0.328611,0.0641383,-0.161466,-0.0774791,0.150773,-0.0513381
0.0564713,0.170117,0.688266,0.507606,-0.0626017,-0.278122,-0.0402915,0.125901,-0.0216365
0.0550326,0.180259,0.681368,0.512023,-0.197718,-0.325133,-0.00786424,0.073114,0.0209126
0.0517239,0.18889,0.674404,0.371628,-0.234105,-0.299087,0.00411985,0.0303282,0.0528755
0.048243,0.194129,0.668705,0.182104,-0.215117,-0.224229,0.00389005,0.0104773,0.0690638
0.045291,0.196004,0.664934,0.0320339,-0.145666,-0.14149,0.00271054,0.012439,0.0726966
0.0433275,0.196145,0.662407,0.0203044,-0.104734,-0.114054,-0.0241882,0.056233,0.0625311
0.0414969,0.1973,0.659612,0.106075,-0.136179,-0.160994,-0.029877,0.0800094,0.0573768
0.0392364,0.200177,0.655569,0.194428,-0.166859,-0.22108,-0.0244965,0.070074,0.071074
0.0367023,0.2044,0.650367,0.228801,-0.185786,-0.269029,-0.0180775,0.0352703,0.0862048
0.0342724,0.208456,0.644607,0.182558,-0.166799,-0.26864,-0.0047153,-0.0146842,0.114114
0.0326911,0.210739,0.639455,0.0539767,-0.0935372,-0.222524,0.00612372,-0.0626528,0.134153
0.0323138,0.210354,0.635628,-0.0769448,-0.028808,-0.14997,0.00841251,-0.0937759,0.135711
0.0327244,0.207792,0.633535,-0.156451,0.024725,-0.0629414,0.0110913,-0.0978231,0.122252
0.0335548,0.204619,0.633208,-0.138148,0.0539886,0.0184378,-0.00213274,-0.0825273,0.0917619
0.0344732,0.202672,0.63418,-0.0538767,0.0452586,0.0580161,-0.0125665,-0.0678477,0.0614394
0.0345182,0.202562,0.635315,0.0294038,-0.0251541,0.0505109,-0.00736225,-0.0727919,0.0255865
0.0327914,0.203636,0.636358,0.0698453,-0.134337,0.0574623,0.00757994,-0.0998158,-0.0123692
0.028317,0.205662,0.637629,0.124882,-0.303171,0.07098,0.0210048,-0.108971,-0.0575382
0.0201864,0.208786,0.638853,0.175199,-0.470037,0.0439786,0.0156232,-0.0891753,-0.101872
0.00996848,0.212616,0.639026,0.196729,-0.521591,-0.014433,-0.0118496,-0.0671345,-0.118224
0.00061786,0.216433,0.638453,0.179149,-0.394949,-0.0314785,-0.0485161,-0.0624588,-0.115921
-0.00468511,0.219881,0.638188,0.17009,-0.13169,0.0189905,-0.0690972,-0.0592151,-0.0897
-0.00499803,0.22307,0.639521,0.136448,0.11527,0.103923,-0.0476313,-0.0809143,-0.0663696
-0.00200658,0.224098,0.642278,-0.0668362,0.214465,0.163064,0.0285677,-0.138674,-0.0597055
0.00149782,0.219715,0.646561,-0.362308,0.234705,0.268308,0.0888397,-0.174581,-0.0788969
0.00504311,0.210434,0.653799,-0.534436,0.282978,0.433162,0.0905729,-0.128594,-0.0793994
0.0092796,0.199757,0.66429,-0.492329,0.347422,0.571513,0.0527184,-0.0113928,-0.0845177
0.0140236,0.192907,0.676998,-0.162025,0.354601,0.648625,0.0104984,0.114899,-0.0850821
0.0177425,0.194654,0.69012,0.312461,0.246791,0.614666,-0.00617603,0.195533,-0.0460173
0.0188819,0.204485,0.701228,0.598826,0.0805062,0.485217,0.0295015,0.165481,0.0229822
0.0170748,0.216822,0.710106,0.566026,-0.0591635,0.420135,0.0842779,0.0566492,0.0846896
0.0137917,0.225673,0.719187,0.277411,-0.0452868,0.492746,0.118165,-0.038582,0.124865
0.0112085,0.227712,0.730585,-0.0931158,0.0523207,0.608753,0.115576,-0.0750166,0.121112
0.0104237,0.222445,0.743709,-0.431387,0.167957,0.645629,0.0880083,-0.0404176,0.0781829
0.011834,0.211931,0.756857,-0.592164,0.24281,0.620699,0.0435305,0.0342925,0.030979
0.0146056,0.200789,0.769171,-0.492425,0.28332,0.555736,0.000367256,0.121638,-0.0105971
0.0182239,0.193705,0.779765,-0.214825,0.266435,0.457389,-0.0280902,0.184867,-0.0226646
0.0212384,0.192349,0.787832,0.0488585,0.186757,0.323996,-0.023668,0.183277,-0.012972
0.023231,0.194997,0.793325,0.181331,0.125716,0.233715,0.00209839,0.124321,0.0310307
0.0246528,0.199048,0.797971,0.200563,0.123649,0.23765,0.0250154,0.0515573,0.0834882
0.0262793,0.20242,0.803242,0.109492,0.141877,0.285422,0.0393542,-0.00367115,0.118878
0.0283268,0.203475,0.809356,-0.0198847,0.173953,0.310819,0.043474,-0.0370775,0.125859
0.0306395,0.202041,0.815728,-0.135284,0.181403,0.296477,0.0393091,-0.0457149,0.0975618
0.0329525,0.198838,0.821293,-0.179404,0.161866,0.231933,0.0278833,-0.0240277,0.0504892
0.0329525,0.198838,0.821293,-0.179404,0.161866,0.231933,0.0278833,-0.0240277,0.0504892
0.0351759,0.195389,0.82534,-0.174183,0.137507,0.153004,0.0188452,-0.00943518,-0.000988245
0.0373237,0.192284,0.827825,-0.146396,0.121837,0.0752916,0.0115141,0.000900716,-0.0490205
0.0394585,0.189624,0.828673,-0.118719,0.114967,-0.00111003,0.00837796,0.00985496,-0.0915499
0.0416965,0.187429,0.828282,-0.100076,0.0986468,-0.0431394,0.0020601,0.014977,-0.128994
0.0437981,0.18575,0.827197,-0.0572234,0.0848024,-0.0711841,-0.00445672,0.0225283,-0.149553
0.0454428,0.185323,0.825321,0.0313114,0.0472239,-0.11802,-0.0203116,0.0399765,-0.162196
0.0464767,0.186978,0.822262,0.146135,-9.17725e-05,-0.178323,-0.037731,0.0519637,-0.143231
0.0469341,0.190673,0.817743,0.234956,-0.0361923,-0.248054,-0.0404667,0.0396323,-0.0982906
0.046459,0.194463,0.811467,0.125023,-0.1406,-0.352631,-0.00847281,-0.0183692,-0.0592748
0.0445941,0.193629,0.803513,-0.180227,-0.175987,-0.403634,0.0290076,-0.0778422,-0.0369972
0.0433933,0.187202,0.796596,-0.407641,-0.0512827,-0.284511,0.00248319,-0.0714884,-0.0164887
0.0447536,0.177838,0.792371,-0.473027,0.103589,-0.18416,-0.0341912,-0.00220579,-0.0278959
0.0481622,0.169376,0.789268,-0.317955,0.164152,-0.174497,-0.0628508,0.0827365,-0.0577044
0.0515933,0.166018,0.785184,0.0250726,0.0867138,-0.248635,-0.08144,0.154804,-0.0730298
0.0526709,0.170131,0.778803,0.408937,-0.0951081,-0.361412,-0.0744543,0.180802,-0.0568809
0.0503523,0.180716,0.769636,0.655777,-0.295254,-0.478678,-0.0580106,0.1456,-0.012847
0.044938,0.193813,0.758326,0.663834,-0.424723,-0.556844,-0.0461723,0.0885213,0.0392769
0.0389043,0.204897,0.746256,0.465587,-0.38871,-0.564481,-0.0590923,0.0439965,0.0949946
0.035104,0.210812,0.734716,0.15191,-0.210879,-0.531669,-0.0739164,0.0158178,0.12147
0.0348271,0.210059,0.724617,-0.189554,-0.0281439,-0.445677,-0.0770388,-0.0116366,0.105859
0.0373318,0.203536,0.71693,-0.397989,0.111616,-0.32537,-0.0759661,-0.00100687,0.0710066
0.041437,0.195996,0.711487,-0.280654,0.166218,-0.248344,-0.0976846,0.0811263,0.0294508
0.0451714,0.193177,0.706062,0.0372197,0.0832617,-0.319544,-0.115361,0.146354,-0.000696242
0.0467709,0.196871,0.697786,0.352074,-0.0823124,-0.471307,-0.106901,0.146545,0.00520003
0.0459007,0.205331,0.686506,0.509793,-0.219058,-0.574942,-0.0807179,0.0693235,0.0548973
0.0436052,0.214877,0.673784,0.458488,-0.25435,-0.61198,-0.0597551,-0.024795,0.107239
0.0417443,0.22148,0.661057,0.227506,-0.195101,-0.590472,-0.0366235,-0.104362,0.147697
0.0412619,0.222498,0.649454,-0.082572,-0.093337,-0.531022,-0.0268667,-0.156577,0.152894
0.043011,0.217408,0.639322,-0.371695,0.0469354,-0.469685,-0.0273219,-0.157881,0.140687
0.0470443,0.207726,0.630881,-0.534729,0.17708,-0.38854,-0.0354417,-0.129535,0.106113
0.0531146,0.196393,0.624405,-0.535236,0.295599,-0.29735,-0.0424256,-0.0837364,0.0695273
0.060452,0.186384,0.619916,-0.42446,0.327879,-0.199199,-0.0352294,-0.0562244,0.0256702
0.0670587,0.179239,0.617083,-0.267485,0.277158,-0.124279,-0.0116595,-0.0538209,-0.0230536
0.0719263,0.175425,0.615535,-0.0982566,0.167024,-0.0525912,-0.000647254,-0.0644714,-0.057841
0.0738122,0.17526,0.614901,0.0843195,0.00554909,-0.0219932,-0.00266926,-0.0691202,-0.0973151
0.0725122,0.1786,0.613728,0.250729,-0.144553,-0.0770425,-0.0271221,-0.0477203,-0.112838
0.0694574,0.184849,0.611146,0.383751,-0.189962,-0.1186,-0.0494205,-0.0191748,-0.0928007
0.0664394,0.193373,0.608298,0.464416,-0.155621,-0.0994873,-0.0520001,-0.0215448,-0.0612545
0.0639526,0.201639,0.605734,0.325002,-0.153919,-0.101933,-0.00742322,-0.0749782,-0.0438086
0.0609391,0.204869,0.603701,0.00475883,-0.17529,-0.0599569,0.038471,-0.122748,-0.0515383
0.0575557,0.202507,0.603909,-0.212752,-0.147672,0.065514,0.0324272,-0.0950169,-0.0498734
0.0547656,0.197758,0.606393,-0.238247,-0.0892817,0.136427,-0.00682691,0.00683472,-0.0493112
0.0522285,0.195098,0.609267,0.0112265,-0.105748,0.114691,-0.0524656,0.11769,-0.0711818
0.0496923,0.199492,0.610373,0.414991,-0.127421,-0.0010398,-0.073818,0.196676,-0.0243384
0.0469721,0.20994,0.608359,0.579394,-0.191052,-0.138134,-0.014567,0.127331,0.0334527
0.0433726,0.219976,0.604498,0.384637,-0.235064,-0.172623,0.0711807,-0.0211437,0.0610141
0.0395985,0.224028,0.60157,0.0260589,-0.186855,-0.081608,0.117971,-0.117563,0.0586426
0.0371989,0.221545,0.600959,-0.246964,-0.0671203,-0.00324728,0.09293,-0.0986991,0.0247501
0.0371989,0.221545,0.600959,-0.246964,-0.0671203,-0.00324728,0.09293,-0.0986991,0.0247501
0.0362587,0.215169,0.60078,-0.366387,-0.0417161,-0.0595166,0.0439766,-0.0202831,-0.0510912
0.0355941,0.207572,0.598089,-0.35236,-0.0741587,-0.236939,-0.00198576,0.0613854,-0.120886
0.0355251,0.201698,0.591849,-0.185267,-0.0390598,-0.382948,-0.0577316,0.133408,-0.143403
0.0377988,0.200264,0.583358,0.0768962,0.110816,-0.439986,-0.104188,0.175979,-0.123072
0.0432841,0.203859,0.573966,0.305457,0.241361,-0.458662,-0.112824,0.165539,-0.0803709
0.0507037,0.210976,0.563868,0.431112,0.276625,-0.497639,-0.0954719,0.120975,-0.0288771
0.0585278,0.219601,0.552561,0.474443,0.262261,-0.554479,-0.0758732,0.0778103,0.0317474
0.0662271,0.228132,0.540047,0.443442,0.23382,-0.599955,-0.0689959,0.0465166,0.0809029
0.0741522,0.235792,0.526922,0.400383,0.276754,-0.608363,-0.0801978,0.0307472,0.123894
0.0836298,0.242079,0.51382,0.322949,0.353153,-0.602379,-0.0861016,0.0187285,0.150081
0.0940244,0.246667,0.500838,0.243579,0.359833,-0.612561,-0.0761669,0.00523555,0.130854
0.104237,0.249547,0.487351,0.164132,0.318895,-0.656777,-0.0608168,0.002626,0.105412
0.113236,0.250382,0.473051,0.0707885,0.219165,-0.698284,-0.0458107,-0.00622375,0.0516177
0.119886,0.249256,0.457883,-0.0117115,0.069243,-0.7774,-0.0424777,0.000528544,-0.0137203
0.12415,0.246532,0.440748,-0.0319569,-0.0517751,-0.894428,-0.0647741,0.0533074,-0.0649211
0.127209,0.244707,0.421235,0.113046,-0.108071,-0.998443,-0.106836,0.125542,-0.0912809
0.129429,0.24669,0.398889,0.35137,-0.209721,-1.12416,-0.126046,0.169,-0.0993897
0.130523,0.251272,0.372873,0.368033,-0.326846,-1.30507,-0.0814792,0.118143,-0.0474238
0.130036,0.251849,0.343883,-0.0101502,-0.425606,-1.44756,-0.00656088,-0.00890698,-0.00467378
0.129134,0.241612,0.314285,-0.640225,-0.357923,-1.48341,0.0254324,-0.104909,0.0150543
0.130243,0.220448,0.287595,-1.05306,-0.123572,-1.33442,-0.0146258,-0.0930092,-0.00107777
0.134972,0.195182,0.264918,-1.08326,0.11549,-1.20851,-0.0765872,0.0259155,-0.0426193
0.141591,0.173523,0.242948,-0.692106,0.0895187,-1.23931,-0.122184,0.165833,-0.126971
0.145344,0.162315,0.21735,-0.0396606,-0.159059,-1.42554,-0.150238,0.274625,-0.19132
0.144444,0.162947,0.18536,0.510683,-0.428699,-1.66503,-0.157553,0.28979,-0.158776
0.140086,0.170344,0.148372,0.664142,-0.578175,-1.80292,-0.134464,0.191875,-0.057346
0.135408,0.176761,0.110387,0.427798,-0.502687,-1.76964,-0.110629,0.0619498,0.0493973
0.134116,0.17669,0.0755175,0.0148837,-0.216578,-1.60167,-0.104777,-0.0199674,0.117757
0.13779,0.169306,0.0458024,-0.325287,0.0584741,-1.39069,-0.109847,-0.0415995,0.117564
0.144544,0.157474,0.02031,-0.452371,0.173555,-1.27267,-0.105333,0.00132121,0.0677815
0.151092,0.145627,-0.00362497,-0.330503,0.0935076,-1.2385,-0.104918,0.0596021,0.00736368
0.154497,0.137869,-0.027719,-0.0627306,-0.0990642,-1.22311,-0.0963014,0.0799679,-0.0280617
0.15387,0.135446,-0.0523986,0.185001,-0.294529,-1.22207,-0.0864458,0.0595467,-0.0355594
0.149815,0.136879,-0.0775775,0.30702,-0.431496,-1.20415,-0.0763866,0.00290674,-0.00935656
0.144193,0.139316,-0.102035,0.268378,-0.435782,-1.13635,-0.0766582,-0.0615739,0.0312425
0.139659,0.140495,-0.124566,0.16409,-0.310919,-1.04218,-0.0892194,-0.0923428,0.0598977
0.137575,0.140103,-0.144755,0.0843933,-0.170997,-0.932632,-0.0983221,-0.107135,0.0702317
0.137932,0.13907,-0.162821,0.0644085,-0.0539726,-0.855858,-0.0985238,-0.0951884,0.0696694
0.139582,0.137953,-0.180128,0.074227,-0.0319067,-0.854859,-0.0926561,-0.0818595,0.0366219
0.14098,0.137446,-0.197724,0.114381,-0.0714284,-0.870683,-0.0905275,-0.0800583,0.00622386
0.141556,0.137732,-0.215713,0.16385,-0.114669,-0.87663,-0.093178,-0.0789813,-0.0268392
0.141732,0.139258,-0.234053,0.239907,-0.107624,-0.895943,-0.115278,-0.067765,-0.0554079
0.142906,0.142015,-0.253276,0.297125,-0.029676,-0.944654,-0.137889,-0.0498378,-0.0687727
0.146539,0.145494,-0.273797,0.326615,0.101655,-1.00009,-0.141756,-0.041817,-0.0656188
0.152787,0.148965,-0.294992,0.327576,0.198146,-1.00252,-0.112803,-0.0564962,-0.0631222
0.160013,0.152652,-0.31595,0.363636,0.19491,-0.98085,-0.0900495,-0.0795993,-0.0737696
0.166299,0.156872,-0.337195,0.364326,0.0956616,-1.03068,-0.0770139,-0.103399,-0.0831412
0.170864,0.158902,-0.360093,0.177553,0.00871253,-1.15684,-0.0500636,-0.140548,-0.0815574
0.170864,0.158902,-0.360093,0.177553,0.00871253,-1.15684,-0.0500636,-0.140548,-0.0815574
0.174862,0.155326,-0.384433,-0.107958,0.0381722,-1.24383,-0.0496394,-0.150886,-0.0917866
0.181165,0.146775,-0.408534,-0.297089,0.237578,-1.21937,-0.0737613,-0.117958,-0.0889991
0.191675,0.136399,-0.430592,-0.273452,0.504889,-1.09612,-0.110349,-0.015208,-0.0898549
0.20599,0.129375,-0.450357,0.0063833,0.633834,-0.963527,-0.125709,0.0849166,-0.0970706
0.220521,0.130123,-0.469896,0.483015,0.527677,-0.925699,-0.115235,0.165584,-0.0882061
0.231162,0.139708,-0.492041,0.904471,0.219685,-1.00084,-0.0779812,0.171496,-0.0614586
0.23569,0.154599,-0.517501,1.0718,-0.131629,-1.08198,-0.0219884,0.105552,-0.0140053
0.234138,0.169934,-0.544014,0.98276,-0.437781,-1.08441,0.00790966,0.0164374,0.0191133
0.227337,0.182149,-0.569614,0.75339,-0.673684,-1.08868,-0.0117092,-0.0204254,0.0194777
0.216934,0.188206,-0.594906,0.348915,-0.783319,-1.20904,-0.0740452,-0.0116341,-0.0132014
0.207687,0.18551,-0.620898,-0.0541911,-0.554879,-1.31221,-0.158546,0.0336298,-0.0287569
0.204799,0.177431,-0.646087,-0.176851,-0.177048,-1.24485,-0.232435,0.116031,-0.0270381
0.208011,0.169871,-0.669417,-0.0724296,0.0565915,-1.1615,-0.225789,0.16553,-0.0354869
0.212769,0.165549,-0.692441,0.122957,0.000706747,-1.15565,-0.166868,0.169524,-0.0378364
0.214552,0.164504,-0.717193,0.275832,-0.231169,-1.24566,-0.101316,0.137213,-0.0112012
0.212191,0.165476,-0.744126,0.365906,-0.42366,-1.30348,-0.0600207,0.0837588,0.0431367
0.207581,0.167231,-0.771805,0.354406,-0.469301,-1.31275,-0.0450762,0.0197856,0.0891793
0.203055,0.168295,-0.799134,0.285582,-0.424756,-1.28879,-0.0430211,-0.0116061,0.106502
0.199831,0.167772,-0.825636,0.184086,-0.330393,-1.26936,-0.0351481,-0.0241002,0.103058
0.198665,0.165757,-0.851306,0.127095,-0.217937,-1.2369,-0.0353992,-0.00840212,0.0861571
0.199045,0.163619,-0.876423,0.159252,-0.167454,-1.23235,-0.0286344,0.0220666,0.050782
0.199497,0.162387,-0.902418,0.231824,-0.216174,-1.30291,-0.0176823,0.0485606,0.00766158
0.198635,0.162037,-0.930432,0.270006,-0.322402,-1.39969,-0.0032786,0.0555397,-0.0190923
0.196256,0.161366,-0.959898,0.224408,-0.373403,-1.44157,0.00194742,0.0396494,-0.0386674
0.193924,0.159663,-0.989458,0.178468,-0.320907,-1.43568,-0.0135632,0.0286756,-0.0499629
0.192968,0.157581,-1.01868,0.181352,-0.226609,-1.4243,-0.0386706,0.0412982,-0.0642444
0.193689,0.156381,-1.04806,0.275084,-0.163995,-1.43711,-0.0597755,0.0664343,-0.0784793
0.195378,0.158212,-1.07878,0.502714,-0.157158,-1.49798,-0.0724345,0.0865992,-0.0910308
0.196998,0.164011,-1.1125,0.667389,-0.236927,-1.65862,-0.0532987,0.0595019,-0.0860142
0.197009,0.168632,-1.15025,0.441152,-0.381704,-1.88056,0.0127431,-0.0357489,-0.0811665
0.195361,0.165222,-1.18994,-0.0274409,-0.397457,-1.96882,0.0458433,-0.102436,-0.0633261
0.195136,0.153352,-1.22706,-0.379061,-0.183576,-1.80675,0.00278741,-0.0751997,-0.0293927
0.199074,0.138793,-1.25903,-0.372531,0.10212,-1.56819,-0.0702796,0.0449642,-0.0106215
0.206041,0.128386,-1.28782,-0.0349802,0.169304,-1.44465,-0.0900335,0.159696,-0.0260338
0.21103,0.126279,-1.31731,0.426596,-0.0870026,-1.47332,-0.0613759,0.199338,-0.050478
0.209343,0.131836,-1.35,0.755387,-0.498886,-1.56374,-0.0223894,0.154205,-0.0402388
0.200382,0.141993,-1.385,0.911044,-0.833346,-1.59268,-0.0288881,0.078574,0.00561994
0.187451,0.153546,-1.42011,0.840504,-0.923815,-1.57874,-0.0762374,0.0190017,0.0649329
0.175597,0.161357,-1.45431,0.494654,-0.757019,-1.58338,-0.131884,-0.0261553,0.10553
0.168843,0.161224,-1.48656,0.0342091,-0.421377,-1.52326,-0.172714,-0.0650599,0.115315
0.168251,0.153164,-1.51524,-0.329117,-0.0958525,-1.39337,-0.2063,-0.0650095,0.0892518
0.172434,0.140154,-1.54069,-0.479303,0.112718,-1.3066,-0.22483,-0.0153182,0.0398257
0.178244,0.127213,-1.56535,-0.323837,0.110489,-1.32786,-0.239315,0.0634856,-0.0243607
0.182718,0.119209,-1.59217,0.0318184,-0.00857389,-1.42877,-0.247094,0.122909,-0.0581712
0.184298,0.117978,-1.62253,0.372243,-0.193606,-1.5422,-0.229193,0.108687,-0.0568038
0.182878,0.121383,-1.65554,0.531499,-0.321773,-1.58876,-0.202052,0.0371775,-0.00875884
0.18001,0.126381,-1.68901,0.526731,-0.360387,-1.56617,-0.185333,-0.0480575,0.0447513
0.18001,0.126381,-1.68901,0.526731,-0.360387,-1.56617,-0.185333,-0.0480575,0.0447513
0.177329,0.130022,-1.72156,0.387823,-0.303867,-1.53249,-0.177506,-0.101576,0.087994
0.176831,0.13038,-1.75291,0.188192,-0.143694,-1.50808,-0.178538,-0.121057,0.118324
0.179621,0.127037,-1.78306,0.0146503,0.0309477,-1.47765,-0.168672,-0.126569,0.114487
0.18516,0.120428,-1.81191,-0.136891,0.157623,-1.44056,-0.134492,-0.130138,0.0880469
0.192102,0.111333,-1.83932,-0.233455,0.196735,-1.38536,-0.093976,-0.132824,0.0443298
0.198529,0.101059,-1.86532,-0.260036,0.161262,-1.33909,-0.0582201,-0.125355,-0.00590628
0.203302,0.0908815,-1.89043,-0.222239,0.0718179,-1.30256,-0.0450801,-0.104968,-0.0604795
0.205923,0.0824506,-1.91507,-0.0908639,-0.024136,-1.26385,-0.0473427,-0.0775243,-0.106575
0.206463,0.0771467,-1.93968,0.0792007,-0.11807,-1.24226,-0.0639328,-0.0468311,-0.144938
0.205362,0.0751552,-1.96506,0.227608,-0.16921,-1.26937,-0.0875771,-0.0233347,-0.170749
0.204586,0.0751765,-1.99148,0.301756,-0.0885824,-1.27768,-0.112103,-0.00474349,-0.150512
0.206343,0.0769167,-2.01739,0.386186,0.0615032,-1.18991,-0.111914,-0.00973739,-0.0982953
0.210069,0.0799904,-2.0415,0.383526,0.0896193,-1.10386,-0.057043,-0.0472157,-0.0468698
0.212435,0.0814561,-2.0646,0.211038,-0.0542902,-1.1155,0.0196104,-0.104364,-0.039713
0.211659,0.078921,-2.08689,0.0215097,-0.1831,-1.07932,0.0512374,-0.124332,-0.0350794
0.209423,0.0743754,-2.10695,-0.0280792,-0.181887,-0.957274,0.0283973,-0.084537,-0.0221117
0.207015,0.0707524,-2.1249,0.062503,-0.185323,-0.87365,0.00209722,-0.0176397,-0.0308951
0.204277,0.0700708,-2.14256,0.239379,-0.224645,-0.865088,-0.0137933,0.0507417,-0.0335405
0.200569,0.073731,-2.16109,0.493461,-0.265488,-0.857501,-0.0204939,0.0917155,-0.0217478
0.196357,0.0827528,-2.18003,0.752332,-0.300662,-0.806458,-0.00799838,0.100008,0.0149946
0.191324,0.0960013,-2.19917,0.869979,-0.375999,-0.817002,0.0235768,0.0574476,0.0455616
0.184595,0.109333,-2.21937,0.773158,-0.497739,-0.906363,0.0676692,-0.0118717,0.0501087
0.175965,0.118476,-2.24083,0.463827,-0.601025,-1.02152,0.0926639,-0.0725362,0.0422316
0.16641,0.119426,-2.26289,-0.0100811,-0.581552,-1.09169,0.096462,-0.106474,0.0141804
0.158724,0.111725,-2.2836,-0.379858,-0.393431,-1.03072,0.0496689,-0.074512,-0.0214731
0.155409,0.0998899,-2.3015,-0.450135,-0.131019,-0.902466,-0.00615536,0.0194322,-0.0450069
0.155728,0.0900345,-2.31768,-0.24823,-0.0339403,-0.855056,-0.0438448,0.105218,-0.0868574
0.15578,0.0851564,-2.33517,0.0408521,-0.130345,-0.944117,-0.0348676,0.133561,-0.111651
0.153368,0.0854933,-2.35522,0.280855,-0.269044,-0.995063,-0.00909717,0.0870983,-0.0713013
0.148926,0.0897337,-2.37547,0.420107,-0.342315,-0.910708,0.0160389,0.00170754,0.00329322
0.143286,0.0961608,-2.39399,0.458721,-0.388255,-0.819608,0.0237727,-0.0585587,0.0590932
0.136764,0.103043,-2.4114,0.452527,-0.433418,-0.801604,0.0141192,-0.0843797,0.0891674
0.129594,0.109637,-2.4288,0.428883,-0.453553,-0.819238,-0.00246364,-0.0898317,0.106953
0.122852,0.115841,-2.44656,0.397915,-0.41251,-0.845899,-0.0175353,-0.0935246,0.124041
0.117303,0.121092,-2.46463,0.331017,-0.340834,-0.861528,-0.0198786,-0.102883,0.126755
0.113454,0.124833,-2.4827,0.239858,-0.260015,-0.864757,-0.0119272,-0.116198,0.124755
0.111487,0.126713,-2.5005,0.137607,-0.171628,-0.856884,0.00828838,-0.123977,0.12268
0.110409,0.126204,-2.51783,0.000133555,-0.147975,-0.853157,0.0337122,-0.133408,0.0732715
0.109704,0.122998,-2.53498,-0.125502,-0.135095,-0.861347,0.0466931,-0.118752,0.0278764
0.10926,0.118089,-2.55198,-0.166967,-0.108008,-0.857965,0.0418022,-0.0871262,-0.0273054
0.109184,0.113349,-2.569,-0.104301,-0.099765,-0.869942,0.0282828,-0.0345375,-0.0700118
0.109079,0.111158,-2.5868,0.0842777,-0.1169,-0.906813,0.0160922,0.0145244,-0.0916833
0.108299,0.112501,-2.60618,0.226354,-0.192325,-0.995486,0.0311308,0.014577,-0.0902986
0.105448,0.11361,-2.62792,0.0544798,-0.33491,-1.12937,0.078501,-0.0671607,-0.0794244
0.101223,0.108573,-2.65107,-0.323304,-0.308445,-1.16793,0.0898068,-0.131615,-0.0526485
0.0995297,0.0964712,-2.67237,-0.642065,-0.0536196,-1.03166,0.0352365,-0.115241,-0.0282677
0.103159,0.0805416,-2.68989,-0.713893,0.248315,-0.862997,-0.0271269,-0.0247547,-0.0337635
0.110508,0.0667773,-2.7049,-0.451349,0.332253,-0.791562,-0.0641086,0.0828563,-0.0611104
0.110508,0.0667773,-2.7049,-0.451349,0.332253,-0.791562,-0.0641086,0.0828563,-0.0611104
0.117016,0.0600202,-2.72111,-0.0242581,0.190411,-0.90475,-0.0689625,0.153795,-0.0720425
0.119492,0.0618485,-2.74073,0.399554,-0.047416,-0.998217,-0.0615153,0.138988,-0.0221058
0.118595,0.0693745,-2.76176,0.541158,-0.15669,-0.965216,-0.0249697,0.0494521,0.0924092
0.116826,0.0766781,-2.78117,0.352239,-0.137767,-0.860106,0.00379269,-0.0736807,0.167221
0.116354,0.0780793,-2.79737,-0.0435752,-0.0328355,-0.71713,0.0335086,-0.165133,0.195214
0.117857,0.071953,-2.80937,-0.397268,0.100252,-0.535567,0.0285638,-0.180733,0.169448
0.12142,0.0610972,-2.81729,-0.55834,0.175558,-0.393989,0.00935324,-0.134772,0.119829
0.124936,0.048458,-2.82331,-0.594065,0.126251,-0.361453,0.00506648,-0.0719985,0.0397164
0.127029,0.0369426,-2.82874,-0.438268,0.0670568,-0.309378,-0.0170736,-0.00836908,-0.0134033
0.128282,0.0306418,-2.8333,-0.12102,0.0435033,-0.220944,-0.0355551,0.0475133,-0.0251315
0.128376,0.0301961,-2.83724,0.093395,-0.0664522,-0.183605,-0.0111292,0.0326635,-0.0248096
0.125067,0.03191,-2.84127,0.0853046,-0.283698,-0.187101,0.0466789,-0.0467391,-0.027023
0.117591,0.0316207,-2.84454,-0.0797306,-0.441493,-0.123331,0.0855579,-0.11142,-0.0288714
0.108603,0.0285737,-2.84519,-0.194195,-0.43571,0.0318118,0.0614847,-0.108286,-0.03358
0.100726,0.0254164,-2.84269,-0.103778,-0.340771,0.162555,0.00503726,-0.0403821,-0.0596043
0.0942313,0.026292,-2.83944,0.171511,-0.326654,0.132586,-0.0456738,0.0412579,-0.0804489
0.086518,0.0324502,-2.83908,0.415681,-0.455707,-0.0507745,-0.0466613,0.0607344,-0.0914536
0.0761475,0.0419381,-2.84223,0.531041,-0.574949,-0.160767,-0.0280486,0.0103555,-0.069784
0.064995,0.0525702,-2.84628,0.536138,-0.534335,-0.152515,-0.0394536,-0.0379996,-0.0332751
0.0561008,0.0629972,-2.84966,0.521977,-0.353526,-0.128132,-0.0846772,-0.0407889,-0.0102677
0.051538,0.0735575,-2.8531,0.548096,-0.119776,-0.169534,-0.136901,-0.0119579,0.00318909
0.0514042,0.0845808,-2.85796,0.556673,0.0440358,-0.261104,-0.149663,-0.0129625,0.013328
0.0535506,0.0944012,-2.865,0.42867,0.0899681,-0.379189,-0.106784,-0.0660477,0.0174969
0.0560662,0.100016,-2.87364,0.160251,0.0804517,-0.420408,-0.0471051,-0.13982,0.00938451
0.0588373,0.0996259,-2.88128,-0.150217,0.131079,-0.314029,-0.0245457,-0.171016,0.00424492
0.0632739,0.0941604,-2.88529,-0.332325,0.293296,-0.109039,-0.0402923,-0.128177,0.0073871
0.0711694,0.0878083,-2.88524,-0.259546,0.47897,0.0647392,-0.080189,-0.0284543,0.0131721
0.0812517,0.0850729,-2.88305,-0.0181474,0.507419,0.115262,-0.079755,0.0427341,0.0205469
0.0897743,0.0873675,-2.88102,0.223148,0.358341,0.105267,-0.0294668,0.0425178,0.0451223
0.0949619,0.094191,-2.87938,0.431753,0.170529,0.132656,0.0336528,0.00548983,0.110924
0.096513,0.104666,-2.87699,0.554731,0.00396762,0.201386,0.095723,-0.0450152,0.179581
0.0950214,0.115564,-2.87363,0.448228,-0.086114,0.21946,0.146233,-0.117313,0.209964
0.0931963,0.122035,-2.86999,0.129578,-0.0462873,0.208227,0.185646,-0.175814,0.239232
0.092538,0.120728,-2.86515,-0.312786,0.0388059,0.271093,0.226046,-0.226824,0.22236
0.0934078,0.110211,-2.85731,-0.801604,0.13011,0.413042,0.274024,-0.246869,0.194022
0.095051,0.0910125,-2.84517,-1.18749,0.156451,0.6049,0.301206,-0.216166,0.127963
0.0974708,0.066815,-2.82873,-1.31477,0.224495,0.778889,0.269752,-0.110969,0.0697693
0.101431,0.0434319,-2.80987,-1.13428,0.242606,0.842116,0.229923,0.0230326,0.00303161
0.104998,0.0266996,-2.79129,-0.680955,0.157988,0.814481,0.216796,0.123636,-0.0860771
0.105659,0.0200106,-2.77464,-0.175721,-0.0543235,0.748987,0.231,0.142583,-0.161614
0.102531,0.0208855,-2.76096,0.071663,-0.212198,0.612218,0.256893,0.0895486,-0.193518
0.0977732,0.0242644,-2.74995,0.145928,-0.208732,0.528195,0.254782,0.0423133,-0.198291
0.0943479,0.0292107,-2.73984,0.265045,-0.0929767,0.517369,0.210962,0.0718244,-0.177739
0.093294,0.0377977,-2.73069,0.499492,-0.0137364,0.452079,0.161516,0.126229,-0.149332
0.0926605,0.0507541,-2.72409,0.719188,-0.0360622,0.316677,0.127943,0.175015,-0.11362
0.0911816,0.0673449,-2.72045,0.873845,-0.0881146,0.205178,0.104906,0.16373,-0.060153
0.0891775,0.0857347,-2.71853,0.912352,-0.081057,0.159688,0.0832038,0.125913,0.00794721
0.0891775,0.0857347,-2.71853,0.912352,-0.081057,0.159688,0.0832038,0.125913,0.00794721
0.0884339,0.104393,-2.71693,0.917361,0.0415246,0.1644,0.0296396,0.109529,0.0740588
0.0909727,0.122455,-2.71519,0.837889,0.231809,0.169605,-0.018115,0.0929134,0.12447
0.0976098,0.1382,-2.71312,0.703813,0.43186,0.187557,-0.019835,0.0385482,0.143771
0.105056,0.150284,-2.71039,0.395921,0.306624,0.169142,0.0304744,-0.0606391,0.124391
0.109012,0.151531,-2.70876,-0.340752,0.12701,0.0157989,0.103281,-0.192249,0.0870586
0.111875,0.13569,-2.70627,-1.21845,0.275616,0.114069,0.0790973,-0.250682,0.0574902
0.121027,0.107823,-2.69674,-1.54295,0.756419,0.513716,-0.0445153,-0.148092,0.0326051
0.136954,0.080292,-2.67974,-1.32382,0.883815,0.737814,-0.113839,0.0166988,-0.107419
0.150104,0.0615376,-2.66386,-0.692808,0.481246,0.495356,-0.134274,0.194159,-0.277581
0.153718,0.0565994,-2.65692,0.0763822,-0.0682165,0.115386,-0.150732,0.293874,-0.292976
0.148643,0.0623936,-2.65802,0.426812,-0.389926,-0.095862,-0.117779,0.183966,-0.190869
0.140417,0.0703736,-2.6608,0.337826,-0.408963,-0.0348968,-0.0696939,-0.00491016,-0.0570471
0.134225,0.074815,-2.66053,0.0947437,-0.184494,0.11918,-0.0598242,-0.0877913,0.0425087
0.133045,0.0755151,-2.65736,-0.051325,0.0724954,0.176578,-0.070172,-0.0731008,0.0935471
0.135498,0.0749488,-2.65446,-0.0278764,0.15561,0.0846138,-0.0541377,-0.0296897,0.0987246
0.137845,0.0755267,-2.65428,0.0823009,0.0619986,-0.0622188,-0.0136805,-0.0149991,0.0971267
0.137987,0.077947,-2.65705,0.186947,-0.0704847,-0.165108,0.0105277,-0.0219548,0.119415
0.13601,0.0815178,-2.66133,0.198383,-0.146302,-0.198385,0.0139372,-0.0486078,0.159365
0.133558,0.0840566,-2.66578,0.0934753,-0.119393,-0.194803,0.003204,-0.0725516,0.203339
0.132515,0.0837681,-2.66924,-0.0874729,0.0081607,-0.142917,-0.0138355,-0.0918211,0.222941
0.13499,0.0798216,-2.67059,-0.276295,0.23235,-0.0298399,-0.0260281,-0.0933588,0.233994
0.141348,0.0735468,-2.66843,-0.343741,0.391789,0.158473,-0.0110716,-0.0816097,0.192581
0.149,0.0682501,-2.66258,-0.230669,0.386472,0.331929,0.0125107,-0.0521641,0.116501
0.154437,0.0664736,-2.65464,-0.0484184,0.227576,0.393847,0.0155532,0.000186354,0.0336151
0.157196,0.0684082,-2.64709,0.0852524,0.10461,0.370927,0.0239927,-0.0199935,0.00461668
0.158322,0.0714285,-2.64003,0.0877446,0.0590482,0.386381,0.0391818,-0.0474981,-0.00229901
0.158199,0.0738383,-2.63147,0.00448584,-0.0293645,0.493415,0.0686126,-0.106465,-0.0363268
0.155201,0.0741962,-2.6206,-0.144268,-0.197285,0.568066,0.0893466,-0.134932,-0.0952888
0.149411,0.0719242,-2.60844,-0.241152,-0.265504,0.587133,0.0653507,-0.109992,-0.1524
0.143544,0.0692875,-2.59611,-0.165456,-0.213218,0.580349,-0.0137719,-0.0338104,-0.188776
0.139518,0.069427,-2.5846,0.00954145,-0.119772,0.542257,-0.0693034,0.017995,-0.194231
0.136614,0.0714427,-2.57502,0.0258442,-0.116435,0.424241,-0.0516134,0.000459217,-0.180515
0.133332,0.071994,-2.5672,-0.0868466,-0.143422,0.373221,-0.000467107,-0.0585154,-0.14395
0.130517,0.0699543,-2.5591,-0.213447,-0.0650795,0.395728,0.011926,-0.0637238,-0.0856372
0.12963,0.0661384,-2.55058,-0.25679,0.0288504,0.383978,0.0057357,-0.0229295,-0.0417471
0.130565,0.0624225,-2.54272,-0.192623,0.109112,0.348975,-0.0021489,0.0371898,0.00580794
0.133354,0.0609609,-2.53547,-0.0528952,0.199601,0.351678,0.0127502,0.0675761,0.0926283
0.135996,0.0617829,-2.52788,0.0168785,0.10137,0.40182,0.0522422,0.0389166,0.147171
0.136571,0.0626888,-2.51978,-0.0647587,-0.00622438,0.408045,0.117386,-0.00342271,0.198032
0.135353,0.0604132,-2.51102,-0.299901,-0.0199008,0.429697,0.141887,-0.0395075,0.168657
0.137072,0.0532963,-2.50044,-0.513462,0.293614,0.524091,0.11233,0.00140659,0.138872
0.146222,0.0438822,-2.48733,-0.578823,0.664272,0.620497,0.0697708,0.0616599,0.0275913
0.16134,0.0345538,-2.4732,-0.530197,0.82596,0.599597,0.0802236,0.130708,-0.110988
0.175411,0.0278066,-2.46152,-0.295697,0.542705,0.401595,0.119363,0.178194,-0.227426
0.180282,0.0267187,-2.45617,0.108878,-0.0688201,0.101564,0.148867,0.221036,-0.236895
0.173991,0.0330001,-2.45805,0.520325,-0.496244,-0.160291,0.0985559,0.214803,-0.139551
0.162772,0.0449493,-2.4647,0.711334,-0.594019,-0.266741,0.024023,0.136609,-0.00489163
0.152908,0.0573913,-2.47202,0.573198,-0.398813,-0.231646,0.0153268,-0.00362946,0.131999
0.152908,0.0573913,-2.47202,0.573198,-0.398813,-0.231646,0.0153268,-0.00362946,0.131999
0.147592,0.0653146,-2.47638,0.265417,-0.154619,-0.0625234,0.0312811,-0.117807,0.193898
0.146655,0.0677807,-2.47599,-0.00494425,0.056031,0.132555,0.0495491,-0.156972,0.209376
0.14882,0.0668933,-2.47153,-0.124867,0.175306,0.282392,0.0529577,-0.144689,0.184382
0.15207,0.0652062,-2.46467,-0.134933,0.166818,0.342995,0.0503149,-0.1094,0.133454
0.153918,0.0635276,-2.45803,-0.135984,0.0551719,0.261007,0.0637796,-0.094001,0.0685668
0.153349,0.0613031,-2.45398,-0.145031,-0.0968093,0.100031,0.0698745,-0.0859978,0.0150495
0.149931,0.0585018,-2.45313,-0.136405,-0.222132,-0.0574668,0.0484111,-0.066211,-0.0343334
0.145302,0.0556627,-2.45528,-0.108921,-0.226971,-0.189013,0.0232492,-0.0354456,-0.0535436
0.141696,0.0537715,-2.45961,-0.00307906,-0.15144,-0.243591,0.00342184,0.00796927,-0.0625393
0.139177,0.0545919,-2.46413,0.134519,-0.14172,-0.179737,0.015241,0.00434821,-0.0691894
0.135939,0.0574828,-2.46708,0.181055,-0.201759,-0.0650524,0.0472896,-0.015379,-0.0596595
0.131997,0.0612238,-2.46736,0.192559,-0.183859,0.0860876,0.0634262,-0.0355398,-0.0279971
0.128573,0.0650787,-2.46498,0.132462,-0.152576,0.178056,0.0666023,-0.055008,0.00846064
0.125419,0.0657471,-2.46176,-0.144957,-0.124135,0.131359,0.0869108,-0.0884903,0.0155755
0.124037,0.0597205,-2.459,-0.457987,0.00273495,0.0767728,0.0904759,-0.0885541,-0.00397378
0.125092,0.0504073,-2.45591,-0.44555,0.127086,0.123184,0.0293844,0.00564726,-0.0683239
0.128513,0.0444734,-2.45201,-0.163404,0.197575,0.184441,-0.000576109,0.104624,-0.119975
0.130857,0.0453038,-2.44797,0.206198,0.0348488,0.215306,-0.0176941,0.168824,-0.169982
0.12949,0.0539338,-2.44516,0.589468,-0.156561,0.156696,-0.0305364,0.159468,-0.121798
0.124626,0.0676544,-2.44504,0.710367,-0.316062,0.0206914,-0.0227157,0.0906589,-0.0386816
0.118411,0.0805293,-2.44758,0.549922,-0.278835,-0.110329,-0.0273737,0.0116558,0.057254
0.115422,0.0876809,-2.45141,0.176302,-0.0321781,-0.170384,-0.0398941,-0.0346542,0.125105
0.117659,0.0867405,-2.45417,-0.22339,0.213842,-0.0892685,-0.0323055,-0.0616073,0.135669
0.123287,0.0799649,-2.45337,-0.427527,0.317591,0.0899359,0.00643093,-0.0625762,0.09811
0.128929,0.0720064,-2.44897,-0.375965,0.246573,0.2324,0.0325279,-0.0292063,0.0426277
0.131175,0.0672453,-2.44306,-0.154585,0.00230739,0.261675,0.0446369,0.000330657,-0.00742906
0.128155,0.0671732,-2.43854,0.0802487,-0.257335,0.170603,0.0352034,0.0180963,-0.0129246
0.121516,0.0708683,-2.43655,0.248175,-0.360243,0.0841794,0.00126434,0.0129173,0.0169594
0.114697,0.0770658,-2.43554,0.330943,-0.296847,0.0969238,-0.0238353,-0.0269685,0.067019
0.109986,0.083831,-2.43373,0.300563,-0.148371,0.161103,-0.0244183,-0.0690075,0.110004
0.108185,0.089223,-2.43001,0.184967,-0.0128292,0.266291,0.0053548,-0.107352,0.13618
0.108367,0.0924909,-2.42384,0.0749007,0.0822254,0.375297,0.0393867,-0.141207,0.129991
0.109283,0.0940075,-2.41549,-0.0114077,0.0787044,0.461467,0.0652445,-0.147815,0.0972199
0.109573,0.0944024,-2.40516,-0.0474908,0.0364356,0.563239,0.0808147,-0.134772,0.066527
0.108165,0.0955305,-2.39299,0.0614266,-0.0664102,0.625948,0.0723935,-0.114591,0.0138386
0.104281,0.0994679,-2.38063,0.183324,-0.221681,0.634414,0.0626671,-0.0888368,-0.0319242
0.0961628,0.10538,-2.36828,0.277449,-0.453842,0.642645,0.0576552,-0.0787439,-0.0716653
0.0834079,0.112947,-2.35572,0.357792,-0.678531,0.655172,0.0539842,-0.0888459,-0.0910333
0.0670379,0.121757,-2.34378,0.414676,-0.782511,0.565061,0.0216583,-0.0634494,-0.0965164
0.0507677,0.130647,-2.33493,0.404914,-0.717512,0.348505,-0.03449,-0.0197491,-0.100757
0.0369044,0.137672,-2.33048,0.249132,-0.587822,0.136149,-0.0408346,-0.0570221,-0.113698
0.0269194,0.13998,-2.32848,-0.0256906,-0.365837,0.10647,-0.020946,-0.0922725,-0.11831
0.0221688,0.137435,-2.32486,-0.213248,-0.0655613,0.263021,-0.013474,-0.0559289,-0.104338
0.0222315,0.132855,-2.31723,-0.228729,0.161943,0.474896,0.00195305,0.00744893,-0.101144
0.0249802,0.129493,-2.30571,-0.11712,0.22057,0.642488,0.0357479,0.0610318,-0.0859372
0.0271006,0.129731,-2.29184,0.115966,0.178497,0.708128,0.060075,0.0984384,-0.0482267
0.027818,0.135185,-2.27747,0.373094,0.0701183,0.714985,0.0757872,0.113747,0.0353997
0.0257904,0.144642,-2.26372,0.496778,-0.0820486,0.659331,0.108439,0.0906256,0.116182
0.0257904,0.144642,-2.26372,0.496778,-0.0820486,0.659331,0.108439,0.0906256,0.116182
0.0208378,0.154634,-2.25112,0.435858,-0.216652,0.606747,0.136547,0.043057,0.171172
0.0140567,0.16159,-2.23912,0.203012,-0.255353,0.587268,0.156858,-0.0140849,0.195219
0.00793549,0.162106,-2.22722,-0.17394,-0.140577,0.580955,0.14616,-0.0339766,0.180599
0.00485188,0.155467,-2.21492,-0.463993,0.0470211,0.633306,0.0920085,-0.00580281,0.127652
0.00638248,0.144975,-2.20126,-0.564591,0.300912,0.702002,0.0475176,0.0394567,0.0755489
0.0120115,0.134144,-2.18672,-0.496427,0.446408,0.703091,0.0213151,0.0976703,0.0189598
0.0192929,0.126309,-2.17327,-0.298178,0.426535,0.596799,0.0297207,0.107602,0.000500739
0.0250255,0.122222,-2.16268,-0.145135,0.263011,0.439092,0.0569052,0.0844578,0.0107841
0.0274663,0.120124,-2.15489,-0.101519,0.0890733,0.343657,0.0928828,0.0217215,0.0351439
0.0277241,0.117694,-2.14814,-0.173583,0.0429937,0.33269,0.108137,-0.0305415,0.0651339
0.0282953,0.113162,-2.14089,-0.301742,0.116142,0.375894,0.0966148,-0.0533242,0.0672573
0.0309189,0.106621,-2.13258,-0.352216,0.231083,0.422769,0.0757374,-0.0383563,0.040355
0.0354243,0.100399,-2.12373,-0.279108,0.296786,0.426398,0.0660189,-0.00828984,0.00541794
0.0400516,0.0966044,-2.1152,-0.130851,0.220069,0.397612,0.0711841,-0.00307883,-0.0323163
0.0416961,0.0954451,-2.10796,-0.0216901,0.0125423,0.297992,0.0796911,-0.0206054,-0.0762937
0.0397408,0.095936,-2.1035,0.0493284,-0.149603,0.146155,0.0788759,-0.0264339,-0.0830973
0.036263,0.0984061,-2.10194,0.197414,-0.152941,0.0255082,0.066612,-0.0322457,-0.0665884
0.0328757,0.102584,-2.10227,0.215745,-0.176921,-0.0425073,0.0469387,-0.0185212,-0.0979882
0.0299403,0.106688,-2.10336,0.200969,-0.139756,-0.0417984,0.0320936,-0.00145505,-0.093259
0.0274439,0.111063,-2.10411,0.250345,-0.113064,-0.0269797,0.0190848,0.0112406,-0.11527
0.0245142,0.116184,-2.10549,0.236189,-0.203241,-0.116942,0.0376958,-0.0224435,-0.116904
0.0200865,0.119555,-2.10969,0.0872282,-0.299505,-0.292051,0.0820175,-0.0695112,-0.0889883
0.0144096,0.11934,-2.11709,-0.0840604,-0.323427,-0.427473,0.0770783,-0.0562059,-0.0965558
0.00996801,0.117519,-2.12636,-0.0477391,-0.213529,-0.479711,0.0224649,0.0198821,-0.0940134
0.00789385,0.118708,-2.13573,0.192521,-0.125259,-0.422803,-0.0193433,0.0844022,-0.10828
0.006139,0.125991,-2.14355,0.523435,-0.178596,-0.347496,0.00347702,0.0923637,-0.0930434
0.000175137,0.138468,-2.15071,0.675049,-0.558869,-0.390407,0.0587713,0.0360973,-0.0456432
-0.0147285,0.151518,-2.1605,0.545362,-1.0776,-0.573937,0.116427,-0.0110945,0.0482962
-0.0392522,0.160464,-2.17337,0.343642,-1.51752,-0.722568,0.122494,-0.0656567,0.104236
-0.0695275,0.168342,-2.18873,0.358632,-1.73592,-0.790785,0.0559162,-0.0331812,0.1334
-0.101004,0.178481,-2.20421,0.521088,-1.57009,-0.785024,-0.0388614,0.0504441,0.0781438
-0.123542,0.191228,-2.2165,0.573229,-0.815619,-0.498752,-0.0838981,0.0298626,0.116089
-0.126927,0.201583,-2.22021,0.367761,0.510685,0.00905129,-0.097,-0.00971021,0.201865
-0.102751,0.204194,-2.214,-0.0669554,2.01804,0.551916,-0.0625402,-0.046688,0.296036
-0.0489296,0.197988,-2.19986,-0.451337,3.56884,0.802438,-0.0106849,0.0157887,0.380032
0.0267129,0.185008,-2.18432,-0.78873,3.91894,0.701391,0.0176457,0.115,0.240152
0.0894195,0.169558,-2.17107,-0.714944,2.16559,0.492825,-0.112754,0.0986326,-0.0955642
0.102135,0.163092,-2.16174,0.0139423,-0.469622,0.398698,-0.205386,-0.0625447,-0.512095
0.0820688,0.170078,-2.16023,0.677761,-1.19136,-0.298794,-0.0500932,-0.0351929,-0.207855
0.0657522,0.188243,-2.17476,1.19689,-0.626965,-0.853621,-0.0168299,0.247055,0.105441
0.0619827,0.214202,-2.19101,1.39768,-0.126872,-0.454512,-0.0587726,0.0991493,0.0842329
0.0620723,0.239432,-2.19517,1.05466,-0.0118918,0.182397,7.04452e-05,-0.0727702,0.00158429
0.0588652,0.255178,-2.18817,0.463023,-0.129244,0.534768,0.0182387,-0.0882351,-0.0326079
0.0541984,0.260207,-2.17633,0.0157607,0.0148044,0.582037,-0.0269423,-0.0843486,-0.00473243
0.0546695,0.258731,-2.16533,-0.170793,0.311418,0.467365,-0.0615516,-0.0623835,-0.0211332
0.0600715,0.256859,-2.15616,-0.0172237,0.397447,0.407774,-0.0752318,-0.0666042,-0.0646117
0.0648578,0.260234,-2.14867,0.307456,0.245206,0.328179,-0.0634692,-0.0649127,-0.083874
0.0666276,0.269031,-2.14318,0.488248,0.0878916,0.258019,-0.0638324,-0.0872909,-0.0485013
0.0666276,0.269031,-2.14318,0.488248,0.0878916,0.258019,-0.0638324,-0.0872909,-0.0485013
0.0667344,0.278554,-2.1392,0.378636,0.0561422,0.186009,-0.0361755,-0.120282,-0.00227982
0.0670343,0.282829,-2.136,-0.0100439,0.0574862,0.153646,-0.0168679,-0.142405,0.0328354
0.0671703,0.277981,-2.13254,-0.491974,0.0736253,0.150183,-0.00118861,-0.120941,0.0188608
0.0685783,0.264811,-2.1276,-0.802411,0.209243,0.254376,0.00167419,-0.0646127,-0.0111562
0.0726511,0.249182,-2.119,-0.747727,0.417066,0.469958,0.00347679,-0.0129865,-0.0480294
0.079576,0.238343,-2.10615,-0.381378,0.587043,0.663529,-0.0173845,0.0428401,-0.0679045
0.0883569,0.237246,-2.09164,0.13962,0.538218,0.711311,-0.00320484,0.0886038,-0.0213811
0.0942438,0.245407,-2.07787,0.495602,0.35315,0.664902,0.0189142,0.0474408,0.00723761
0.0960022,0.256523,-2.06693,0.442094,0.110724,0.462013,0.0180301,0.0370742,0.0349829
0.0971039,0.263233,-2.06137,0.152752,0.202483,0.125888,0.0121012,0.0202135,0.0861425
0.102757,0.263072,-2.0616,-0.171245,0.286958,-0.099711,-0.0173974,0.0399247,0.0946881
0.107802,0.256436,-2.06355,-0.452849,0.155642,-0.160232,-0.0306344,-0.00610012,0.0184017
0.109909,0.244899,-2.06654,-0.629846,-0.0238844,-0.25174,-0.0674743,0.0611228,-0.0165117
0.109349,0.231741,-2.07113,-0.580317,-0.104863,-0.331072,-0.0756052,0.0793122,-0.0646037
0.109751,0.22187,-2.07771,-0.300078,0.0306141,-0.409701,-0.11179,0.110573,-0.0661787
0.114285,0.218344,-2.08666,0.0311725,0.205577,-0.498115,-0.134415,0.121887,-0.0447138
0.12125,0.21993,-2.0982,0.229456,0.219969,-0.589507,-0.12248,0.101828,-0.022631
0.12779,0.223836,-2.11184,0.304145,0.118162,-0.676349,-0.118755,0.0715958,0.0151373
0.131892,0.228204,-2.12736,0.316124,-0.0628522,-0.760876,-0.127444,0.0599534,0.0409775
0.132765,0.232515,-2.14458,0.33288,-0.233364,-0.830667,-0.143186,0.0619537,0.0533936
0.131212,0.237557,-2.16335,0.406101,-0.355437,-0.90963,-0.159129,0.0681687,0.0691521
0.128128,0.243848,-2.18449,0.477309,-0.434093,-1.0464,-0.174641,0.0758355,0.0706614
0.125928,0.251215,-2.20921,0.544997,-0.365486,-1.23682,-0.1981,0.0755922,0.0759924
0.126695,0.258513,-2.23855,0.500025,-0.321283,-1.47242,-0.197261,0.0786716,0.0849228
0.128517,0.262835,-2.27206,0.320007,-0.365068,-1.65519,-0.177397,0.0574424,0.0677093
0.12961,0.262603,-2.30817,0.107861,-0.462152,-1.7777,-0.152923,0.0576609,0.052527
0.128967,0.258596,-2.34543,-0.0237704,-0.560421,-1.81961,-0.137441,0.0726638,0.0352899
0.126787,0.253536,-2.38301,0.0240741,-0.586314,-1.82771,-0.113891,0.10262,0.0125228
0.125145,0.251648,-2.42098,0.247967,-0.536297,-1.84499,-0.0683662,0.105751,0.0144113
0.122957,0.252398,-2.46191,0.231633,-0.771812,-2.10958,-0.0869618,0.111299,0.00281507
0.11355,0.246793,-2.51012,-0.298723,-1.37472,-2.57181,-0.111231,0.155123,-0.0696554
0.0948136,0.229471,-2.5643,-0.806874,-1.64572,-2.74092,-0.115536,0.182586,-0.161416
0.075701,0.207199,-2.61807,-0.881425,-1.32849,-2.62904,-0.152563,0.260529,-0.197425
0.0652357,0.188762,-2.66908,-0.565632,-0.723462,-2.4758,-0.18508,0.314734,-0.204071
0.0632716,0.178221,-2.71913,-0.176144,-0.442583,-2.50915,-0.198214,0.312518,-0.276796
0.0633244,0.174352,-2.77175,0.0964103,-0.517127,-2.66731,-0.207449,0.285957,-0.299743
0.0604249,0.174423,-2.82833,0.243244,-0.749361,-2.86744,-0.212075,0.269075,-0.305346
0.0544668,0.177053,-2.88896,0.36059,-0.869103,-3.03353,-0.220917,0.284146,-0.264804
0.0485345,0.182235,-2.95246,0.468424,-0.834821,-3.14513,-0.224134,0.306244,-0.212114
0.0449863,0.189296,-3.01839,0.519354,-0.722987,-3.26531,-0.218362,0.320706,-0.160855
0.0447693,0.196509,-3.08707,0.482597,-0.61709,-3.40151,-0.209527,0.333583,-0.107066
0.046768,0.202155,3.12487,0.391874,-0.611347,-3.50438,-0.179725,0.34696,-0.0668756
0.0489033,0.205859,3.05232,0.325411,-0.643387,-3.52272,-0.146347,0.357042,-0.0363073
0.0504246,0.208582,2.9802,0.311997,-0.66787,-3.4649,-0.118784,0.3661,-0.0230247
0.0514714,0.211439,2.90974,0.313078,-0.704701,-3.36415,-0.0937753,0.36276,0.00123066
0.0511473,0.214085,2.84139,0.284598,-0.761362,-3.2642,-0.0670936,0.345205,-0.00666583
0.0496376,0.216068,2.77504,0.235082,-0.791416,-3.1686,-0.0405901,0.331029,-0.0123091
0.0496376,0.216068,2.77504,0.235082,-0.791416,-3.1686,-0.0405901,0.331029,-0.0123091
0.0473585,0.216966,2.71081,0.159226,-0.809926,-3.05135,-0.0105101,0.313092,-0.00947952
0.0440714,0.216789,2.64982,0.108641,-0.81469,-2.85846,0.0166512,0.289634,-0.00523585
0.0396287,0.216531,2.59336,0.104149,-0.842634,-2.61704,0.0304596,0.263213,0.007788
0.0335694,0.217341,2.54191,0.177476,-0.860672,-2.37721,0.0239891,0.225979,0.014651
0.0261914,0.220648,2.4946,0.28497,-0.892932,-2.22862,0.00822937,0.198751,0.0244629
0.0184548,0.225892,2.44913,0.322705,-0.866256,-2.17804,-0.0033213,0.162116,0.0443599
0.0119907,0.231405,2.40427,0.273353,-0.780362,-2.16205,-0.0153788,0.125891,0.0737695
0.00811034,0.235424,2.3597,0.164722,-0.619072,-2.14907,-0.0204751,0.0869689,0.10158
0.00800851,0.237142,2.31513,0.040938,-0.424446,-2.1607,-0.0127893,0.0526136,0.122495
0.0117661,0.236175,2.2701,-0.0995195,-0.264323,-2.1971,0.00256824,0.0145793,0.12798
0.0183546,0.232132,2.22412,-0.232034,-0.1499,-2.26253,0.011527,-0.0264625,0.110572
0.0267107,0.225355,2.17635,-0.330544,-0.0970935,-2.38285,0.0239403,-0.0517858,0.0802785
0.0368315,0.216877,2.12627,-0.348406,0.0265242,-2.49846,0.0319257,-0.0629714,0.0529077
0.0497553,0.208022,2.07429,-0.31379,0.15205,-2.58608,0.0448737,-0.0616178,0.0286679
0.061952,0.198302,2.02063,-0.39218,-0.0843553,-2.69558,0.0644077,-0.0611279,-0.0440766
0.0668958,0.185212,1.96523,-0.549118,-0.456927,-2.76855,0.0903488,-0.0363191,-0.151488
0.065946,0.169825,1.9099,-0.588032,-0.525826,-2.72498,0.0704866,0.0293314,-0.214557
0.0679379,0.15619,1.8563,-0.379932,-0.0848289,-2.60482,0.0306274,0.0984877,-0.18062
0.0796286,0.148042,1.80533,-0.0721458,0.468955,-2.45531,0.00212082,0.112818,-0.130741
0.0996734,0.144134,1.757,0.0824221,0.763424,-2.32054,0.00542039,0.0886273,-0.07064
0.121962,0.141566,1.71151,0.16716,0.780163,-2.15671,0.0136668,0.0526231,-0.00760716
0.142376,0.141241,1.66897,0.370369,0.639128,-2.00741,0.020528,0.0305726,0.0753309
0.15852,0.144984,1.62832,0.572885,0.352238,-1.90008,0.0241424,0.00258516,0.152425
0.166107,0.149878,1.58867,0.484084,-0.214108,-1.88627,0.0406715,-0.0684557,0.150686
0.161274,0.149391,1.54919,0.0552074,-0.825626,-1.96454,0.027721,-0.149809,0.101564
0.146433,0.137843,1.50936,-0.602481,-1.17203,-2.07975,-0.0361582,-0.183883,0.049952
0.128871,0.114298,1.4694,-1.12711,-0.994755,-2.14498,-0.139212,-0.179789,-0.0127643
0.117599,0.0853075,1.42873,-1.15144,-0.498441,-2.20164,-0.23885,-0.111818,-0.0862628
0.116912,0.0612784,1.38668,-0.678431,0.111007,-2.21153,-0.29172,-0.074609,-0.120156
0.125181,0.0490345,1.34351,-0.0135616,0.41414,-2.18467,-0.283106,-0.0956996,-0.168075
0.135144,0.0487217,1.2996,0.515581,0.322843,-2.14903,-0.251944,-0.140369,-0.146051
0.141019,0.0557807,1.25429,0.748882,0.0206374,-2.23678,-0.223006,-0.176731,-0.0879589
0.143059,0.0642864,1.20676,0.726458,-0.0356171,-2.30478,-0.203725,-0.14224,0.00780523
0.146992,0.0706751,1.15925,0.586298,0.093991,-2.25206,-0.139003,-0.0514847,0.100852
0.151908,0.0757111,1.11358,0.636893,0.0039259,-2.15438,-0.0189638,0.080552,0.0969347
0.152056,0.0853676,1.06943,1.0232,-0.360098,-2.01907,0.119482,0.223753,0.0478809
0.145514,0.104741,1.02644,1.49153,-0.656857,-1.9202,0.219273,0.324932,0.0469517
0.136816,0.13121,0.983944,1.61841,-0.660301,-1.85518,0.287771,0.386907,0.0813984
0.131018,0.154879,0.944251,1.1465,-0.452801,-1.68558,0.337641,0.371728,0.081552
0.130239,0.165566,0.911131,0.310915,-0.148041,-1.38181,0.38666,0.339234,0.0586299
0.13363,0.160743,0.8871,-0.439291,0.0694979,-1.02586,0.405183,0.33063,0.016257
0.138807,0.145311,0.871256,-0.786563,0.215091,-0.738796,0.379789,0.335993,-0.0592711
0.145977,0.128506,0.86097,-0.663043,0.367405,-0.504665,0.342939,0.33584,-0.10612
0.156018,0.118005,0.8542,-0.242927,0.542921,-0.318518,0.286033,0.31019,-0.0962256
0.168671,0.117621,0.849552,0.283857,0.643171,-0.136474,0.219762,0.235591,-0.0614842
0.182094,0.127313,0.846658,0.677676,0.625769,0.0018836,0.154514,0.119554,0.00033319
0.193108,0.141775,0.843279,0.736242,0.408811,-0.0963923,0.0788601,0.0595898,0.0640798
0.200208,0.153244,0.836868,0.459831,0.229574,-0.303162,0.039663,-0.018437,0.105198
0.200208,0.153244,0.836868,0.459831,0.229574,-0.303162,0.039663,-0.018437,0.105198
0.205575,0.155771,0.828276,-0.0715706,0.177394,-0.463186,0.00914191,-0.0938203,0.113865
0.209689,0.146332,0.819571,-0.663718,0.0957921,-0.555114,-0.0116257,-0.143421,0.0473543
0.211815,0.126409,0.811809,-1.0819,0.0130681,-0.596662,-0.031494,-0.143245,-0.0554487
0.212511,0.101112,0.805001,-1.16369,-0.010352,-0.58501,-0.0564872,-0.100934,-0.165321
0.213501,0.0791332,0.798305,-0.756672,0.0614686,-0.508327,-0.0813061,-0.0474295,-0.251914
0.216606,0.0696308,0.791632,0.00611831,0.200294,-0.331413,-0.130747,0.00232895,-0.280876
0.221525,0.0762154,0.784992,0.731791,0.197993,-0.190271,-0.172068,0.0123446,-0.24698
0.22405,0.0937584,0.777244,1.07223,-0.0194645,-0.191508,-0.177839,-0.0246194,-0.180507
0.222388,0.113374,0.767975,0.981328,-0.20734,-0.271586,-0.178159,-0.0671517,-0.0646561
0.220244,0.128508,0.758357,0.678066,-0.0863398,-0.327835,-0.175849,-0.0909766,0.105005
0.221613,0.136585,0.749032,0.305806,0.104709,-0.388559,-0.136367,-0.0978026,0.200116
0.22623,0.13737,0.740385,-0.0311056,0.193508,-0.419906,-0.0923398,-0.12446,0.247794
0.229764,0.132424,0.732535,-0.247861,0.0223037,-0.452148,-0.056946,-0.154737,0.222763
0.22813,0.124412,0.724264,-0.31773,-0.307127,-0.525028,-0.0277535,-0.162606,0.197229
0.21983,0.116417,0.714382,-0.216445,-0.619097,-0.601286,-0.00638282,-0.151882,0.167464
0.206545,0.111136,0.70229,-0.046895,-0.812836,-0.670188,0.0169038,-0.121759,0.169179
0.191561,0.109077,0.688694,0.101446,-0.792096,-0.694601,0.0330147,-0.112895,0.176725
0.178235,0.1092,0.674048,0.160151,-0.690116,-0.715219,0.0619381,-0.0770978,0.176844
0.167126,0.110143,0.659958,0.175822,-0.552205,-0.623341,0.0952027,-0.0751537,0.145055
0.159539,0.112524,0.648397,0.261552,-0.323989,-0.466988,0.109841,-0.0564454,0.112359
0.156551,0.118515,0.639639,0.478611,-0.0803146,-0.289315,0.107877,-0.0114163,0.0834116
0.156795,0.129418,0.633711,0.64806,0.000919441,-0.125021,0.124373,0.0226269,0.0774492
0.156437,0.141753,0.630531,0.573128,-0.0905704,0.00489432,0.160994,0.0133796,0.0629793
0.154107,0.150737,0.630251,0.294256,-0.136197,0.110008,0.188331,-0.0188087,0.0452882
0.151007,0.153936,0.633148,-0.0198398,-0.127715,0.218717,0.185467,-0.0407475,-0.0130909
0.147452,0.151299,0.638761,-0.318706,-0.154876,0.263953,0.164514,-0.0480693,-0.121135
0.143946,0.143046,0.644309,-0.551557,-0.0594672,0.136832,0.137648,-0.024464,-0.26865
0.145793,0.131509,0.647475,-0.592425,0.306127,0.0394987,0.139867,0.00959347,-0.335772
0.154846,0.121296,0.65119,-0.457044,0.595524,0.203859,0.128994,0.0244716,-0.376234
0.166188,0.114649,0.658922,-0.320597,0.580631,0.439321,0.138106,0.00120869,-0.391285
0.175583,0.111281,0.67003,-0.197394,0.493953,0.567723,0.128873,0.00198163,-0.347775
0.184282,0.110624,0.682539,-0.0985744,0.516789,0.635502,0.119393,0.0324256,-0.246436
0.193456,0.111652,0.696301,-0.0658294,0.551621,0.732687,0.125382,0.0520486,-0.148407
0.202949,0.113827,0.712838,-0.0350838,0.579827,0.926693,0.119128,0.0771428,-0.0369327
0.212336,0.118734,0.733613,0.10947,0.569626,1.19047,0.10208,0.102372,0.0875716
0.219054,0.128609,0.758742,0.3162,0.356169,1.4272,0.0871618,0.100392,0.193338
0.21858,0.142798,0.786344,0.451053,-0.0331835,1.50378,0.0717858,0.0910897,0.240821
0.211153,0.1584,0.813422,0.476645,-0.268487,1.41323,0.0515662,0.0982441,0.284915
0.200899,0.172157,0.838653,0.325617,-0.313372,1.29783,0.046945,0.114209,0.297037
0.191,0.180454,0.863059,-0.00713173,-0.234727,1.20982,0.04838,0.116137,0.277106
0.182779,0.180313,0.887291,-0.440303,-0.143074,1.11497,0.0296946,0.12758,0.212899
0.17712,0.172286,0.910957,-0.722476,-0.00507121,1.02408,0.024869,0.138323,0.136927
0.174997,0.161178,0.933664,-0.707388,0.177119,0.985957,0.0206567,0.153477,0.0671942
0.176446,0.152753,0.955279,-0.466807,0.284224,0.948449,0.0129289,0.148604,0.023273
0.179969,0.149633,0.974179,-0.175053,0.343665,0.81379,-0.000515461,0.117414,0.00544834
0.184673,0.150563,0.988762,-0.0252704,0.337346,0.612489,-0.016158,0.0825811,0.0202459
0.189879,0.151857,0.999241,-0.0673725,0.34062,0.431717,-0.0248858,0.0389389,0.0463636
0.196119,0.150299,1.00714,-0.243674,0.406912,0.310016,-0.0335942,0.00582832,0.0739293
0.196119,0.150299,1.00714,-0.243674,0.406912,0.310016,-0.0335942,0.00582832,0.0739293
0.20396,0.144397,1.01378,-0.461153,0.460696,0.208214,-0.0409869,-0.0203957,0.0883434
0.21219,0.134344,1.01928,-0.605493,0.424021,0.120396,-0.0424134,-0.0406507,0.0752699
0.219657,0.122671,1.02347,-0.592035,0.372673,0.0269171,-0.0506084,-0.0453305,0.0492502
0.225745,0.111778,1.02555,-0.512714,0.239032,-0.0550194,-0.0454489,-0.0348779,0.0287413
0.2282,0.101631,1.02668,-0.504885,0.0195193,-0.0533815,-0.0170797,-0.0433955,-0.02706
0.226992,0.0912577,1.02821,-0.543427,-0.120915,-0.0340144,-0.00377443,-0.00971431,-0.093824
0.222932,0.0798467,1.03056,-0.606258,-0.24963,0.0146486,0.000103995,0.0241893,-0.216254
0.218104,0.0687762,1.0342,-0.505305,-0.151258,0.105464,0.0122972,0.054165,-0.324186
0.218494,0.0628525,1.0389,-0.14298,0.234682,0.207993,0.00820152,0.0671445,-0.337836
0.22467,0.0642219,1.04238,0.158102,0.30767,0.137008,-0.000859216,0.069793,-0.288083
0.228342,0.0680189,1.04298,0.141367,0.0389249,-0.00263576,0.0134798,0.00899114,-0.246791
0.226235,0.0679039,1.04175,-0.150062,-0.231041,-0.0912605,0.0121686,-0.0122417,-0.183429
0.220992,0.0619685,1.04222,-0.392105,-0.239153,0.0322466,-0.0178949,-0.0282354,-0.149468
0.217506,0.0556138,1.04641,-0.23905,-0.0788221,0.239892,-0.0483476,-0.0195187,-0.135667
0.217007,0.05763,1.05278,0.3531,0.0570574,0.394696,-0.0949862,-0.0144539,-0.114537
0.218594,0.073631,1.05733,1.09076,0.107872,0.354629,-0.142356,0.0043963,-0.0326825
0.220364,0.101329,1.05674,1.54452,0.0535696,0.182272,-0.163646,0.00491861,0.0928218
0.221669,0.132336,1.05145,1.49889,0.0277851,-0.0198948,-0.156245,-0.0043418,0.232368
0.223843,0.156981,1.04322,1.02251,0.0804335,-0.222085,-0.11346,-0.00696211,0.335422
0.227534,0.169352,1.0344,0.364242,0.122729,-0.328092,-0.0575231,-0.0199783,0.377616
0.23017,0.168811,1.02748,-0.239329,-0.0148137,-0.347323,-0.0203406,-0.02599,0.336619
0.22721,0.157895,1.02218,-0.658961,-0.396464,-0.414349,0.00173888,-0.00776932,0.2264
0.216488,0.141737,1.0168,-0.741746,-0.73088,-0.445052,-0.0056309,0.0198183,0.0778717
0.201392,0.127403,1.01086,-0.480701,-0.767233,-0.40873,-0.021258,0.0941151,-0.0525203
0.19095,0.12062,1.00438,-0.0561567,-0.302901,-0.357906,-0.0522286,0.132733,-0.0862835
0.190884,0.121086,0.99668,0.198354,0.14162,-0.386298,-0.0643139,0.127275,-0.0774912
0.196051,0.1231,0.988058,0.115929,0.236247,-0.401611,-0.0207162,0.0528124,-0.0619182
0.201159,0.121162,0.980571,-0.176593,0.159248,-0.353204,0.0177699,-0.020431,-0.0219765
0.203303,0.113496,0.975854,-0.45589,0.00540938,-0.245914,0.044419,-0.0592637,-0.0216472
0.203077,0.102902,0.974561,-0.503609,-0.0281514,-0.0898571,0.0390827,-0.0682545,-0.0316966
0.202321,0.0949162,0.975829,-0.248505,-0.03475,0.0527493,0.0195198,-0.0487047,-0.05273
0.201144,0.0947391,0.978012,0.196647,-0.0753608,0.141897,-0.00347483,-0.0401378,-0.0629768
0.198298,0.103035,0.979409,0.547043,-0.204088,0.155607,-0.0184663,-0.0420749,-0.0388344
0.192928,0.115615,0.980214,0.628127,-0.307778,0.16846,-0.029626,-0.0713181,0.0104021
0.186382,0.127927,0.981079,0.540355,-0.324906,0.140122,-0.0304857,-0.0912785,0.0726125
0.179933,0.13761,0.981408,0.400048,-0.304743,0.0630222,-0.0204418,-0.0981455,0.103461
0.17433,0.144373,0.980663,0.277258,-0.266151,-0.0199895,-0.00416379,-0.105319,0.104617
0.169366,0.148538,0.978355,0.172803,-0.268551,-0.133291,0.00868265,-0.0946074,0.0932461
0.16484,0.150264,0.974291,0.0658758,-0.215389,-0.227124,0.0179154,-0.0857596,0.0743891
0.164118,0.1494,0.969,-0.0809637,0.113096,-0.292623,0.0329872,-0.0563861,0.0780206
0.17201,0.145077,0.963819,-0.249609,0.624425,-0.242733,0.0938488,-0.0389794,0.0508965
0.191491,0.13919,0.96306,-0.295354,1.27594,0.104614,0.174097,-0.0134805,-0.0119343
0.217187,0.134687,0.970357,-0.287148,1.23755,0.492918,0.231673,0.0482056,-0.20563
0.234885,0.132681,0.984366,-0.180141,0.695918,0.790487,0.294354,0.0483081,-0.410259
0.244756,0.137575,1.00256,0.28476,0.677927,1.07798,0.244665,0.147044,-0.404296
0.26083,0.156105,1.02393,0.964292,1.22506,1.40898,0.13806,0.214295,-0.204508
0.284914,0.186594,1.04714,1.24699,1.47434,1.557,0.091831,0.167736,-0.0398826
0.284914,0.186594,1.04714,1.24699,1.47434,1.557,0.091831,0.167736,-0.0398826
0.306562,0.217043,1.07003,0.922191,1.05806,1.41482,0.097357,0.0625719,0.0362338
0.31625,0.236232,1.09122,0.237245,0.38599,1.12599,0.119768,-0.033491,0.0479443
0.313563,0.239688,1.11128,-0.490989,-0.149749,0.815152,0.0861411,-0.0648011,0.0356649
0.304268,0.229426,1.12871,-0.928372,-0.314429,0.491955,0.0201604,-0.0306837,0.0171867
0.296473,0.213762,1.14213,-0.865587,-0.138713,0.331459,-0.0570904,0.0314428,-0.0288342
0.294552,0.203172,1.15301,-0.413468,0.184574,0.398298,-0.107231,0.0591226,-0.0670229
0.298599,0.202734,1.16304,0.0605596,0.365249,0.502813,-0.140955,0.046761,-0.054898
0.303696,0.20969,1.1715,0.323215,0.297874,0.471793,-0.134357,0.00519937,-0.00779599
0.307675,0.219317,1.17756,0.388397,0.24271,0.377105,-0.131801,-0.0204133,0.0859427
0.311693,0.227765,1.18175,0.265808,0.243194,0.262392,-0.123107,-0.0330803,0.176486
0.314956,0.232541,1.18444,0.115241,0.124527,0.138306,-0.0909722,-0.0409419,0.20688
0.315191,0.234653,1.18558,0.0754742,-0.0826398,0.0264331,-0.0782513,-0.0327987,0.20636
0.312079,0.236773,1.18366,0.205464,-0.258509,-0.14484,-0.0562995,0.00019151,0.183354
0.307129,0.241484,1.1775,0.416514,-0.377953,-0.263124,-0.0496239,0.0383687,0.189341
0.300513,0.249212,1.1687,0.549793,-0.496167,-0.310127,-0.0280459,0.0452852,0.183092
0.291957,0.25813,1.15846,0.575172,-0.6166,-0.391886,-0.00251919,0.0524532,0.150822
0.281619,0.266289,1.14617,0.524017,-0.700878,-0.506373,0.0283472,0.068985,0.105842
0.270742,0.271757,1.13286,0.321408,-0.725975,-0.55956,0.0298136,0.0551976,0.074939
0.26002,0.271626,1.12101,-0.051357,-0.62595,-0.531472,0.035468,0.028857,0.0332023
0.253075,0.2643,1.11251,-0.429389,-0.262603,-0.427647,0.0443683,0.00848705,0.0161021
0.253042,0.251935,1.10839,-0.623789,0.124605,-0.261249,0.0554806,-0.0138596,-0.00613302
0.256834,0.238455,1.10716,-0.631914,0.161286,-0.230395,0.0678191,-0.04189,-0.0343967
0.258207,0.224398,1.10478,-0.683719,-0.117323,-0.361248,0.0693071,-0.0586081,-0.0613434
0.25319,0.207122,1.1003,-0.884232,-0.467724,-0.485114,0.0743944,-0.0858445,-0.10276
0.24265,0.1856,1.09518,-1.04443,-0.630745,-0.498042,0.0480151,-0.055042,-0.14904
0.231507,0.163525,1.09169,-0.961358,-0.496833,-0.325726,0.0304677,-0.00846784,-0.198034
0.224668,0.147019,1.09122,-0.585262,-0.173921,-0.0946855,0.00412297,0.0322164,-0.220082
0.224203,0.140748,1.09218,-0.042737,0.104762,0.0121262,-0.0259632,0.0538728,-0.201021
0.227217,0.144294,1.09134,0.367413,0.15764,-0.0234445,-0.0478011,0.0602981,-0.147828
0.22999,0.152926,1.08812,0.502536,0.0770317,-0.0885964,-0.0635339,0.0455648,-0.0729117
0.23191,0.161798,1.08369,0.428389,0.05556,-0.123038,-0.0660991,0.0440121,0.0223467
0.233314,0.167618,1.07973,0.205823,-0.00730972,-0.121295,-0.0572021,0.0378665,0.0905721
0.23257,0.169021,1.07729,0.00183414,-0.0888547,-0.0632276,-0.0308143,0.029698,0.10629
0.230317,0.167848,1.07715,-0.0961015,-0.149422,0.0184082,-0.0189778,0.0397115,0.127255
0.226019,0.166108,1.07848,-0.0855576,-0.27305,0.0676893,-0.000312299,0.034333,0.121232
0.219088,0.166011,1.08035,0.0499236,-0.371383,0.108893,0.0066261,0.0260592,0.0997614
0.21098,0.169136,1.08225,0.203655,-0.387344,0.133958,0.0110385,0.0243488,0.114233
0.203042,0.174236,1.08362,0.242948,-0.370489,0.089163,0.0132104,0.0153048,0.118803
0.195935,0.178441,1.08398,0.138891,-0.333676,0.0331676,0.0287136,-0.000223741,0.137289
0.189051,0.178818,1.08399,-0.113332,-0.364008,-0.0233224,0.0446838,-0.018758,0.138549
0.181775,0.174471,1.08408,-0.286318,-0.329859,-0.034004,0.060036,-0.0243348,0.100734
0.17559,0.168267,1.08509,-0.320792,-0.271761,0.0270011,0.0640909,-0.00420281,0.0772694
0.170245,0.162647,1.08751,-0.252054,-0.223444,0.110631,0.075732,-0.0103407,0.0575581
0.166321,0.159667,1.0911,-0.0886639,-0.0990235,0.180303,0.0779447,-0.0168983,0.0463339
0.164348,0.159813,1.09505,0.0241011,-0.0393423,0.201825,0.0856531,-0.0224919,0.0303048
0.163692,0.161142,1.09948,0.0117454,0.0388377,0.250899,0.099434,-0.0511029,0.0197336
0.163775,0.160799,1.10511,-0.160294,0.0419469,0.281541,0.10473,-0.0671571,-0.0153058
0.162562,0.155951,1.11189,-0.423965,-0.0786593,0.29873,0.109771,-0.091751,-0.0808696
0.162562,0.155951,1.11189,-0.423965,-0.0786593,0.29873,0.109771,-0.091751,-0.0808696
0.158302,0.146726,1.11962,-0.567871,-0.194352,0.30726,0.124874,-0.0986427,-0.163159
0.154236,0.137281,1.12768,-0.451107,-0.0654299,0.320909,0.111659,-0.081137,-0.192783
0.153771,0.131002,1.13447,-0.285766,0.0766797,0.236408,0.0981006,-0.0210299,-0.197269
0.154007,0.126096,1.13945,-0.299848,-0.0222564,0.195847,0.123011,-0.0164342,-0.209684
0.150665,0.119889,1.14549,-0.383446,-0.221134,0.333824,0.140274,-0.0230677,-0.207131
0.144101,0.114339,1.1561,-0.273444,-0.284594,0.64129,0.135366,0.00373842,-0.168972
0.138818,0.114768,1.17299,0.119761,0.0144544,1.02395,0.100713,0.0397019,-0.106009
0.140595,0.125113,1.1956,0.570504,0.374451,1.29438,0.0653548,0.0640722,0.00404578
0.145526,0.143056,1.22028,0.797617,0.386326,1.34293,0.0845107,0.0310723,0.072264
0.146359,0.16188,1.24391,0.670784,0.0163996,1.20178,0.108877,0.00814395,0.0871531
0.13955,0.175187,1.26455,0.332551,-0.285976,1.00549,0.138407,0.00156224,0.076684
0.130948,0.180433,1.28355,-0.0673952,-0.198387,0.916698,0.103174,0.0497249,0.102938
0.125068,0.177898,1.30207,-0.388646,-0.0619843,0.851472,0.104033,0.092382,0.0713789
0.121759,0.171128,1.32046,-0.452031,0.0624876,0.866408,0.103307,0.121207,0.00908852
0.121441,0.16604,1.33927,-0.239146,0.205696,0.90337,0.082397,0.165919,-0.0307364
0.123366,0.166946,1.35816,0.113451,0.284536,0.945506,0.0784254,0.183002,-0.0423629
0.126155,0.175031,1.3767,0.444243,0.294434,0.9506,0.072833,0.17806,-0.0145901
0.128422,0.188345,1.39439,0.617419,0.236029,0.935204,0.0587661,0.162346,0.0318741
0.129118,0.20319,1.41156,0.602028,0.170911,0.912969,0.0415073,0.135541,0.0670544
0.128839,0.216412,1.4282,0.483813,0.152843,0.850387,0.0117511,0.127111,0.0882996
0.128752,0.2268,1.44356,0.354016,0.187404,0.760081,-0.0179922,0.120369,0.0923328
0.130034,0.234838,1.45707,0.280114,0.242613,0.627952,-0.052058,0.118458,0.0876477
0.132977,0.241647,1.46745,0.266996,0.290384,0.44814,-0.0713454,0.116164,0.075685
0.136875,0.247604,1.47383,0.23191,0.234965,0.241442,-0.0799645,0.110514,0.0635996
0.139819,0.251925,1.4762,0.158472,0.109211,0.0402461,-0.0805364,0.0869151,0.0343621
0.141108,0.253748,1.47448,0.038954,-0.0146219,-0.165716,-0.0825634,0.0906945,0.00103617
0.141208,0.252287,1.46991,-0.122292,-0.0813783,-0.272657,-0.0931014,0.0913705,-0.0406228
0.140837,0.24757,1.46452,-0.252248,-0.0576061,-0.292227,-0.102019,0.0933306,-0.0827979
0.142783,0.241859,1.45944,-0.22843,0.108592,-0.295217,-0.112415,0.0739045,-0.0870813
0.144632,0.23597,1.45267,-0.281825,-0.13521,-0.449032,-0.102323,0.0849673,-0.121772
0.1413,0.227371,1.44338,-0.442033,-0.358067,-0.553203,-0.0949241,0.050734,-0.135667
0.137034,0.215299,1.43328,-0.606423,-0.252689,-0.569124,-0.114256,0.0595253,-0.104602
0.135664,0.201268,1.42444,-0.623547,-0.0673435,-0.447823,-0.102733,0.0510931,-0.0988148
0.136889,0.189885,1.41908,-0.391198,0.082753,-0.221995,-0.0922609,0.028147,-0.103348
0.139464,0.185589,1.41675,0.00487519,0.0811022,-0.0921339,-0.0901009,0.0204476,-0.0698819
0.138767,0.188744,1.41433,0.306645,-0.225815,-0.110814,-0.0830245,0.011112,-0.0505626
0.130905,0.19568,1.41051,0.401386,-0.618278,-0.164742,-0.0980267,-0.000848442,-0.039455
0.117077,0.203021,1.40557,0.366497,-0.796746,-0.223072,-0.117065,0.00753763,-0.0179048
0.10343,0.208884,1.39983,0.26514,-0.646094,-0.270496,-0.13802,0.0287029,0.0135471
0.0945328,0.212337,1.39345,0.142197,-0.361014,-0.304191,-0.135745,0.0314389,0.0303359
0.0916615,0.213901,1.38683,0.0891185,-0.0828103,-0.328375,-0.126374,0.0259637,0.0475861
0.0931699,0.215278,1.37921,0.131092,0.0471483,-0.392716,-0.0930545,0.0257988,0.0702294
0.0959293,0.217956,1.37026,0.210476,0.0155518,-0.443424,-0.0603894,0.0124228,0.105428
0.0971941,0.221478,1.3603,0.223219,-0.0963359,-0.486294,-0.0305839,-0.00361043,0.131111
0.0971638,0.22422,1.34973,0.133979,-0.140607,-0.507251,-0.0157406,-0.0214586,0.163545
0.0963274,0.224369,1.33921,-0.0229897,-0.173659,-0.498967,0.000623018,-0.0357946,0.165728
0.0949708,0.221585,1.32963,-0.156316,-0.174263,-0.453619,0.008885,-0.0500148,0.153649
0.0935123,0.217068,1.3211,-0.193603,-0.146221,-0.40653,0.017183,-0.0463214,0.127983
0.0935123,0.217068,1.3211,-0.193603,-0.146221,-0.40653,0.017183,-0.0463214,0.127983
0.0924416,0.212914,1.31393,-0.15316,-0.127919,-0.323649,0.0180965,-0.0409651,0.0977121
0.089926,0.210002,1.30855,-0.0839437,-0.275761,-0.233718,0.0332007,-0.0528149,0.0332981
0.0820175,0.209535,1.30407,0.108844,-0.601492,-0.210958,0.0496269,-0.0602598,-0.078627
0.0679632,0.215268,1.29963,0.508663,-0.859255,-0.171237,0.0552232,-0.0530533,-0.151389
0.0498261,0.229286,1.29604,0.883934,-0.99785,-0.095326,0.0415248,-0.044141,-0.153829
0.032001,0.249311,1.29373,1.07264,-0.780989,-0.0695676,-0.000549823,-0.0655961,-0.121272
0.0207296,0.269954,1.29099,0.928141,-0.411046,-0.146686,-0.0179328,-0.0660919,-0.0648205
0.0169562,0.284506,1.28694,0.497655,-0.0832673,-0.206116,0.0052105,-0.0994586,-0.026208
0.0198698,0.289269,1.28252,0.0016105,0.264265,-0.193281,0.039337,-0.104641,0.00675583
0.0298243,0.28549,1.27946,-0.352453,0.602928,-0.102253,0.0845614,-0.104359,0.0380462
0.0421078,0.27549,1.27849,-0.636812,0.530997,-0.0358284,0.111225,-0.106842,0.00605583
0.0499008,0.260496,1.27899,-0.830179,0.243252,0.0245493,0.110555,-0.0915005,-0.0380989
0.0516261,0.243719,1.28159,-0.809935,0.00881114,0.150508,0.0998241,-0.068669,-0.10247
0.0497415,0.230493,1.28707,-0.473673,-0.0150798,0.321588,0.0641732,0.00415321,-0.141221
0.0494388,0.227148,1.2957,0.133496,0.21989,0.48862,0.0299147,0.0609847,-0.120719
0.0537541,0.236557,1.30602,0.709311,0.386924,0.534717,0.0386494,0.0726749,-0.0545221
0.058294,0.254273,1.31578,0.939462,0.259243,0.495752,0.076379,0.0315557,-0.0022881
0.0583821,0.272716,1.3244,0.790738,-0.0313998,0.439196,0.0943812,0.0114595,0.0309364
0.0531497,0.285361,1.33253,0.397516,-0.235342,0.414679,0.106616,-0.00623095,0.0466145
0.0458869,0.289186,1.34106,-0.0562062,-0.222248,0.415816,0.0882055,0.0251008,0.0479522
0.0402952,0.284696,1.34977,-0.388851,-0.0566236,0.397778,0.0663024,0.0642216,0.00524789
0.0396688,0.276245,1.35855,-0.43258,0.235368,0.410919,0.0370252,0.0971773,-0.0172929
0.0449683,0.270027,1.36765,-0.19112,0.518041,0.432921,0.0342667,0.131077,-0.0196782
0.0540306,0.269659,1.37693,0.0992918,0.597209,0.456821,0.0523326,0.13919,-0.00196129
0.0624998,0.274076,1.38673,0.260906,0.485558,0.509894,0.0717995,0.110624,0.0438954
0.0675401,0.2804,1.39749,0.282922,0.311489,0.564852,0.0890165,0.0890416,0.0914901
0.0689542,0.286241,1.40976,0.207291,0.177681,0.647845,0.0934801,0.067459,0.121812
0.0674802,0.290244,1.42406,0.0955223,0.0860381,0.743747,0.0857818,0.0578386,0.126678
0.0636859,0.292371,1.44046,0.0235398,0.00909221,0.818082,0.0654006,0.0455324,0.114176
0.0579617,0.294041,1.45776,0.0566735,-0.0776896,0.825784,0.0476911,0.0387387,0.0850357
0.0505152,0.296972,1.4745,0.154695,-0.175718,0.767376,0.0249892,0.0273212,0.051336
0.0419854,0.302007,1.48924,0.280369,-0.235607,0.643566,0.0113791,0.0113808,0.023419
0.0331902,0.308863,1.50087,0.349474,-0.280854,0.486921,0.00448837,0.000356108,-0.00624937
0.0247563,0.315996,1.50955,0.315934,-0.290503,0.36238,0.00689777,-0.0125097,-0.0276786
0.0169036,0.321169,1.51635,0.171361,-0.27278,0.294442,0.000974923,-0.0116555,-0.0606527
0.0107252,0.323147,1.52231,0.035696,-0.122099,0.277866,-0.018959,-0.000928938,-0.0935619
0.00901392,0.323819,1.52806,0.0496559,0.124512,0.257439,-0.030045,0.00745931,-0.103098
0.010116,0.325256,1.53237,0.0667709,0.0410518,0.131453,-0.0062896,-0.0180798,-0.130528
0.00683127,0.324921,1.53279,-0.132822,-0.368717,-0.104146,-0.000416137,-0.0157121,-0.173348
-0.00159324,0.31884,1.52856,-0.477816,-0.531374,-0.259509,-0.0205056,0.00601569,-0.173113
-0.00792709,0.306365,1.52317,-0.72142,-0.19287,-0.22105,-0.0788985,0.055104,-0.1634
-0.00433817,0.292739,1.52031,-0.562179,0.47742,-0.0117069,-0.093045,0.0979786,-0.117396
0.00958155,0.286121,1.52259,-0.0779157,0.871718,0.201995,-0.0726075,0.10633,-0.0605803
0.0239599,0.289715,1.52779,0.396662,0.594771,0.287991,-0.0391031,0.0818061,-0.0254701
0.0272475,0.300745,1.53331,0.646388,-0.121803,0.250091,-0.0435996,0.0636421,-0.0273857
0.017229,0.314298,1.53724,0.652666,-0.701419,0.155689,-0.0716669,0.0568299,-0.00431252
0.000738352,0.325475,1.53944,0.420313,-0.78511,0.0678353,-0.124769,0.0640059,0.0187421
-0.0119948,0.330131,1.53984,0.0327341,-0.416588,-0.0313572,-0.15708,0.0773256,0.0463651
-0.0119948,0.330131,1.53984,0.0327341,-0.416588,-0.0313572,-0.15708,0.0773256,0.0463651
-0.0141872,0.327131,1.53847,-0.304044,0.169043,-0.0758741,-0.155877,0.0864338,0.0659982
