attitude_roll,attitude_pitch,attitude_yaw,rotationRate_x,rotationRate_y,rotationRate_z,acceleration_x,acceleration_y,acceleration_z
0.0534785,0.22524,-0.00604977,-0.151977,-0.0337133,-0.173055,0.0267699,-0.0101039,-0.0138661
0.0489805,0.222411,-0.00777952,-0.129148,-0.385055,0.00140966,0.0950673,0.052842,-0.00199759
0.0418968,0.220795,-0.00597462,-0.0269558,-0.230552,0.144264,0.0515548,0.0499073,-0.0422376
0.038939,0.221772,-0.00295354,0.112696,-0.0335048,0.148978,0.0164066,0.0367922,-0.0627211
0.038665,0.225412,-0.00022359,0.249342,0.0815404,0.136951,-0.00229236,0.0305144,-0.0591226
0.0408211,0.231961,0.00222069,0.394167,0.17462,0.124351,-0.00550655,0.0357334,-0.0240074
0.0439011,0.24112,0.00401246,0.506828,0.163479,0.0880618,0.00601236,0.0390831,0.0259217
0.0462356,0.251814,0.00517998,0.54462,0.0968017,0.0762228,0.0362627,0.052246,0.0686082
0.0468106,0.262217,0.0061855,0.475589,-0.0125447,0.0697138,0.0659663,0.0621704,0.0907973
0.0461104,0.270084,0.00711081,0.29604,-0.0251324,0.0548419,0.0797987,0.0663117,0.0955519
0.0454534,0.273756,0.00798113,0.0707366,-0.0125598,0.0411495,0.081239,0.065134,0.0805423
0.0451369,0.273313,0.00836432,-0.100154,-0.0184311,-0.00995601,0.0661419,0.0587866,0.0360439
0.0443893,0.270695,0.00777103,-0.139789,-0.0710205,-0.0578195,0.0631677,0.0634215,-0.0242108
0.0438311,0.268298,0.00612346,-0.0825337,0.00323597,-0.110328,0.0504324,0.0731202,-0.0950828
0.0462668,0.267457,0.00378271,0.00815203,0.172921,-0.10707,0.0532334,0.0872322,-0.122112
0.0510543,0.268159,0.00198709,0.0661384,0.243552,-0.0677823,0.0744795,0.0945919,-0.0928584
0.0568257,0.269288,0.000501679,0.0480271,0.293707,-0.0705268,0.0741275,0.0863273,-0.0586678
0.0632571,0.269453,-0.000857756,-0.0202461,0.296623,-0.0533859,0.066416,0.0852807,-0.0179917
0.0691645,0.268619,-0.0017335,-0.0309362,0.288339,-0.0323063,0.067509,0.0900618,-0.00964826
0.0757489,0.268315,-0.0020032,0.0296931,0.366348,0.0145209,0.0576008,0.0950933,-0.0141013
0.0831263,0.269623,-0.00102021,0.102737,0.376131,0.0983901,0.0477615,0.097331,0.0166345
0.0890773,0.272542,0.00152837,0.163665,0.288546,0.160345,0.0360891,0.0845339,0.0536469
0.0929086,0.276139,0.00431566,0.160824,0.167248,0.130904,-0.00500121,0.0653677,0.0800819
0.0943189,0.279029,0.00613179,0.105435,0.0328642,0.072186,-0.0241608,0.0560467,0.0853465
0.093532,0.280768,0.00716945,0.0643586,-0.0716966,0.0526779,-0.0138109,0.0662626,0.0675899
0.0918791,0.282304,0.00844742,0.0881612,-0.0390865,0.0891119,-0.00387428,0.0797315,0.0284936
0.0911095,0.284587,0.0106462,0.116813,0.0183969,0.142188,0.00421356,0.0922087,0.015535
0.0912357,0.286992,0.0138903,0.0855138,0.0785017,0.181526,-0.00796074,0.0807526,0.0209065
0.0910507,0.288303,0.0176427,0.0120201,-0.00446218,0.180114,-0.0115192,0.067864,0.0333699
0.0893216,0.288142,0.021097,-0.0506993,-0.0556684,0.139348,-0.0261076,0.0537938,0.0124161
0.087676,0.286605,0.0236893,-0.116979,-0.0323392,0.104625,-0.0252303,0.050825,-0.0163991
0.0860383,0.283676,0.0262062,-0.188341,-0.0644121,0.111143,-0.00771443,0.0555821,-0.0292816
0.0838908,0.279426,0.0289985,-0.233457,-0.0678805,0.12577,-0.0116337,0.06775,-0.0586001
0.0815974,0.274899,0.0321726,-0.21887,-0.0708178,0.137628,-0.00453291,0.0590016,-0.087945
0.0796332,0.271337,0.0351821,-0.147393,-0.0374852,0.119872,-0.00486127,0.047103,-0.102307
0.0786001,0.269326,0.0376062,-0.071834,-0.00866815,0.0995987,-0.000508532,0.0406181,-0.0822233
0.0777493,0.268204,0.039472,-0.0513695,-0.0299331,0.0681789,0.00992951,0.0349733,-0.0466753
0.0767997,0.266977,0.0404168,-0.070784,-0.0372804,0.0124373,0.00872701,0.032524,-0.0263227
0.0765272,0.265281,0.0401232,-0.0834607,0.012868,-0.0559001,0.0109692,0.0265086,-0.0295048
0.0777171,0.263496,0.0384829,-0.0691195,0.0606996,-0.113848,0.0161663,0.0418292,-0.0266714
0.079492,0.26209,0.0359285,-0.0491311,0.035778,-0.145337,0.0308322,0.0589353,-0.00945902
0.0803123,0.260977,0.0327345,-0.0308981,-0.0351171,-0.171144,0.039495,0.0749797,-0.000552952
0.0800441,0.260304,0.0291531,0.00643366,-0.0856421,-0.176263,0.0394343,0.0976609,0.00589663
0.0789928,0.260685,0.0255633,0.0795686,-0.107977,-0.16368,0.0456426,0.11904,0.0227862
0.0778091,0.262571,0.0223246,0.142063,-0.104843,-0.129191,0.0481635,0.139004,0.0622302
0.0765024,0.265625,0.0197604,0.188857,-0.102634,-0.0865378,0.0483382,0.157608,0.111078
0.0743717,0.269563,0.0182509,0.225256,-0.162618,-0.0228538,0.0592395,0.173171,0.171123
0.0703469,0.274546,0.0184829,0.293882,-0.226438,0.0918735,0.0610819,0.196052,0.213708
0.0656496,0.2822,0.0213068,0.473305,-0.137007,0.237008,0.0506247,0.217801,0.237642
0.0636408,0.294136,0.0267491,0.683477,0.105001,0.357669,0.0294045,0.223613,0.28878
0.066342,0.309536,0.0339882,0.792745,0.372706,0.42274,0.00652887,0.219137,0.374406
0.0728468,0.325572,0.0418586,0.739148,0.485857,0.428675,-0.00722187,0.212398,0.479608
0.0728468,0.325572,0.0418586,0.739148,0.485857,0.428675,-0.00722187,0.212398,0.479608
0.0802173,0.339719,0.0493652,0.619381,0.504776,0.380005,-0.00999991,0.19571,0.529828
0.0885406,0.351193,0.0553137,0.471028,0.5363,0.270055,-0.00714575,0.169778,0.54617
0.0981255,0.358915,0.0589498,0.261732,0.545377,0.145216,0.00800602,0.156312,0.53883
0.107607,0.361746,0.060493,0.00733326,0.461069,0.0553553,0.0510557,0.136363,0.518845
0.114779,0.359912,0.063405,-0.222956,0.274572,0.202375,0.127812,0.162601,0.456351
0.113717,0.354491,0.0683095,-0.329224,-0.160296,0.167512,0.0863933,0.200476,0.331745
0.108079,0.348925,0.0721112,-0.258968,-0.241721,0.142784,0.0725972,0.210525,0.183159
0.102466,0.345121,0.0758421,-0.142453,-0.172166,0.169757,0.0642672,0.210823,0.0537594
0.0996215,0.34466,0.0796346,0.0799181,0.0338787,0.18716,0.0561268,0.239885,-0.0527186
0.101479,0.349469,0.0840003,0.357258,0.301482,0.28104,0.0870847,0.26406,-0.094118
0.107566,0.359252,0.0900659,0.53269,0.509564,0.366671,0.101888,0.262478,-0.0642915
0.117919,0.370735,0.0960424,0.525135,0.755908,0.295066,0.0894128,0.231976,-0.0327702
0.133508,0.380425,0.0992707,0.388254,0.88949,0.120987,0.064195,0.214043,0.022585
0.150235,0.386898,0.0993933,0.277875,0.759769,0.00636879,0.0740692,0.218168,0.0800966
0.163233,0.393116,0.0985807,0.382646,0.505884,0.0321331,0.0886265,0.242489,0.0696901
0.171617,0.40323,0.0981085,0.630183,0.350907,0.0977072,0.0788672,0.2729,0.00346965
0.179667,0.417879,0.0982237,0.771481,0.502252,0.156336,0.0931138,0.268952,-0.0886597
0.191082,0.432024,0.0981775,0.563599,0.595123,0.0705364,0.108657,0.178094,-0.145105
0.203381,0.437436,0.096328,-0.0605095,0.540378,-0.130269,0.157049,0.00761795,-0.164648
0.210509,0.428244,0.094502,-0.744306,-0.0187045,-0.194668,0.180014,-0.113138,-0.305515
0.20283,0.410491,0.094485,-0.93136,-0.709776,-0.20447,0.0709386,-0.200641,-0.689625
0.182429,0.391023,0.0944259,-1.00493,-1.30807,-0.099355,-0.0498052,-0.17073,-1.05322
0.154322,0.374477,0.101981,-0.531653,-0.968394,0.568322,0.0949488,-0.314237,-1.41143
0.147438,0.379566,0.118403,0.772213,0.944505,0.854601,0.0158491,-0.523327,-1.5094
0.17592,0.399886,0.127959,0.81592,2.06408,0.288561,-0.273373,-0.532653,-0.862261
0.216751,0.403834,0.126977,-0.484376,1.7105,-0.253053,-0.294347,-0.654752,-0.133572
0.231166,0.384316,0.124913,-1.11412,-0.547516,-0.336107,-0.0895519,-0.704863,-0.0123692
0.19525,0.3679,0.120889,-0.255521,-3.12296,-0.387681,-0.173233,-0.505272,-0.371769
0.120349,0.372659,0.111972,0.820924,-4.39882,-0.375052,-0.255586,-0.325909,-0.637447
0.0421469,0.396879,0.101103,1.62651,-3.5916,-0.47559,-0.312694,-0.300836,-0.757548
-0.00838531,0.432759,0.0886231,1.89036,-1.95787,-0.59218,-0.218035,-0.224087,-0.545802
-0.0271149,0.468468,0.0778123,1.58821,-0.439638,-0.407918,-0.0493873,-0.141086,-0.152287
-0.0220776,0.493718,0.0729706,0.90413,0.64188,-0.0921816,-0.00437951,-0.0811658,0.206199
-0.0031981,0.504801,0.0736405,0.246817,1.20899,0.113883,-0.0738152,-0.0428866,0.407798
0.0199922,0.506365,0.0774073,-0.0179382,1.20831,0.206407,-0.0958972,-0.0406794,0.438151
0.0377767,0.508094,0.0820508,0.267991,0.763322,0.193001,-0.0958324,-0.0523667,0.38068
0.0464904,0.520246,0.0847,0.985177,0.282219,0.0637565,-0.0965842,-0.0396951,0.29605
0.0511706,0.547466,0.0816439,1.72184,0.0515333,-0.20094,-0.126177,0.0171379,0.253531
0.0560054,0.585952,0.0717656,2.11737,-0.0670421,-0.399652,-0.102348,0.0944207,0.286332
0.0636249,0.628377,0.0575557,2.14542,0.0396216,-0.506508,-0.0391076,0.127658,0.325992
0.0766672,0.667836,0.0404629,1.88469,0.239771,-0.567593,0.00884764,0.146251,0.35375
0.0953948,0.701637,0.0228501,1.60938,0.551307,-0.49581,0.0217316,0.145911,0.360152
0.120817,0.72921,0.00732869,1.24812,0.983864,-0.371341,0.0633239,0.107779,0.403214
0.151285,0.747497,-0.0042184,0.639549,1.2638,-0.219012,0.154624,0.00295603,0.503107
0.181066,0.751937,-0.00857646,-0.157438,1.40157,-0.0231971,0.257988,-0.154821,0.591505
0.204734,0.741499,-0.00336725,-0.93819,1.28469,0.196427,0.327563,-0.32958,0.604608
0.21738,0.717536,0.0120705,-1.63655,0.993239,0.420012,0.368268,-0.469011,0.551111
0.217577,0.682801,0.034884,-2.09708,0.474598,0.502867,0.324917,-0.581404,0.409892
0.206758,0.641726,0.0590228,-2.29802,-0.0680237,0.488884,0.22198,-0.582604,0.21784
0.187979,0.598967,0.0809199,-2.20011,-0.507951,0.383021,0.0389103,-0.532753,-0.0430467
0.167895,0.560557,0.0943068,-1.75748,-0.730708,0.015226,-0.181801,-0.458485,-0.307528
0.167895,0.560557,0.0943068,-1.75748,-0.730708,0.015226,-0.181801,-0.458485,-0.307528
0.152169,0.531156,0.095825,-1.16223,-0.729563,-0.336479,-0.216009,-0.366471,-0.435873
0.143003,0.51332,0.0886798,-0.511007,-0.519373,-0.517094,-0.177142,-0.265169,-0.465395
0.141082,0.50824,0.0769822,0.141602,-0.249265,-0.539083,-0.142968,-0.119652,-0.417777
0.143492,0.515451,0.0649955,0.702911,-0.126593,-0.372649,-0.0835574,0.0159986,-0.299684
0.145517,0.532777,0.0562921,1.10093,-0.109224,-0.120522,-0.0194072,0.110863,-0.166366
0.145973,0.556714,0.0518833,1.29463,-0.0650359,0.0798883,0.00692588,0.154666,-0.04576
0.146468,0.582533,0.0503108,1.25157,0.0308313,0.144975,-0.00633455,0.166504,0.0599869
0.147934,0.605587,0.0495121,1.01938,0.05528,0.117878,-0.0277384,0.17125,0.152559
0.149421,0.622752,0.0484356,0.685581,0.0255414,0.0515024,-0.0282226,0.166006,0.204196
0.150378,0.632698,0.0471157,0.317451,-0.00669205,-0.00609819,-0.0242715,0.154479,0.219209
0.150667,0.635521,0.0458312,-0.0110363,-0.0416187,-0.0507413,-0.032551,0.140273,0.200797
0.150049,0.632691,0.0449144,-0.2485,-0.0746176,-0.0603459,-0.0343552,0.130502,0.165313
0.147801,0.62588,0.0451632,-0.421099,-0.142468,-0.0130237,-0.0144906,0.123164,0.140998
0.142477,0.616891,0.0478461,-0.485787,-0.230067,0.0986672,0.0134951,0.0934707,0.103055
0.134214,0.607688,0.0532478,-0.482649,-0.275618,0.209214,0.0120624,0.0611896,0.0658916
0.124541,0.599086,0.0606191,-0.452619,-0.273767,0.271849,0.000241987,0.0187067,0.040158
0.114914,0.590788,0.0681748,-0.45581,-0.26292,0.242008,-0.0314448,-0.0119083,0.0294465
0.106569,0.582026,0.0740123,-0.476479,-0.253942,0.133065,-0.0495627,-0.0410879,0.01535
0.0998476,0.572418,0.0771062,-0.505868,-0.244968,0.0359315,-0.0499479,-0.0520689,0.00303322
0.0944224,0.5625,0.0787368,-0.491298,-0.209665,0.0132807,-0.0319956,-0.0482251,-0.0095892
0.0894901,0.553324,0.0800287,-0.430517,-0.219105,0.00404723,-0.0361485,-0.0325412,-0.019062
0.0847757,0.545828,0.08079,-0.321392,-0.212871,-0.00803575,-0.0219253,-0.0406737,-0.0322521
0.0804863,0.540506,0.0810591,-0.213949,-0.204775,-0.0151048,-0.0108939,-0.0433068,-0.0319545
0.0765743,0.537069,0.0809373,-0.139243,-0.193096,-0.018439,-0.0096379,-0.0301278,-0.0179247
0.0731972,0.534774,0.0807031,-0.0997363,-0.155565,-0.02831,-0.00356475,-0.0275394,-0.00346154
0.0707849,0.533031,0.0799051,-0.0704242,-0.123847,-0.0527101,0.00492764,-0.0275748,-0.000443935
0.0693691,0.532015,0.0788108,-0.0286022,-0.0781824,-0.0451407,0.0134782,-0.0178601,0.0043214
0.0684509,0.531775,0.0779637,0.00875581,-0.0521467,-0.0256062,0.0172958,-0.00232041,0.0130426
0.0675501,0.532344,0.0775669,0.0354584,-0.0670946,-0.00484149,0.0355613,-0.00303489,0.0219622
0.0655575,0.533252,0.077629,0.0363171,-0.133484,0.0174657,0.0552946,-0.0057627,0.0261483
0.0618963,0.534026,0.078157,0.0155066,-0.220577,0.0424587,0.0605101,0.00190759,0.0268869
0.0561667,0.53406,0.0796426,-0.0245921,-0.288328,0.0988241,0.0589036,0.0176992,0.016571
0.0496291,0.533431,0.0823928,-0.0598057,-0.245196,0.15036,0.059609,0.010718,-0.0126274
0.0444245,0.532081,0.0860952,-0.107344,-0.138712,0.189915,0.0674578,-0.00104904,-0.0294476
0.0413196,0.529859,0.0904784,-0.143195,0.000720101,0.199567,0.0742959,-0.0260369,-0.0397745
0.0407568,0.527151,0.0946962,-0.130633,0.119092,0.164584,0.0657991,-0.045206,-0.054122
0.0424713,0.525337,0.097714,-0.0581194,0.179716,0.112264,0.0676522,-0.0388545,-0.0536857
0.0453359,0.52495,0.100461,-0.00300878,0.229662,0.143603,0.10838,-0.0346579,-0.0349084
0.0483702,0.525134,0.104296,-0.0132091,0.276371,0.174756,0.119678,-0.0246876,-0.00335455
0.0529947,0.523703,0.107498,-0.170222,0.344128,0.0800433,0.105359,-0.0560012,0.0661126
0.0598969,0.517636,0.1081,-0.453594,0.349841,-0.0603319,0.142104,-0.118957,0.139421
0.0659652,0.505822,0.106378,-0.702273,0.172989,-0.159857,0.130875,-0.139451,0.152263
0.070357,0.490322,0.103762,-0.834084,0.271055,-0.0903714,0.0777389,-0.10482,0.100504
0.0815912,0.474108,0.102717,-0.733662,0.72598,-0.174381,0.059752,-0.0791454,-0.0800258
0.0954116,0.460129,0.0982513,-0.692757,0.231823,-0.366286,-0.0948801,-0.0351384,0.0307291
0.094248,0.442462,0.0901346,-1.00253,-0.55548,-0.478273,-0.0848171,0.0626261,0.1848
0.0730131,0.413717,0.0908559,-1.82771,-1.31905,0.328667,0.125192,-0.0512316,0.299668
0.043774,0.375855,0.10704,-1.89653,-0.906111,0.868875,0.0544332,-0.00336993,0.175061
0.022112,0.345741,0.129568,-1.07449,-0.506253,1.19557,-0.0868419,0.0885579,-0.104114
0.00268993,0.336381,0.159901,0.072631,-0.476469,1.60859,0.0161376,0.108088,-0.238421
0.00268993,0.336381,0.159901,0.072631,-0.476469,1.60859,0.0161376,0.108088,-0.238421
-0.014621,0.345661,0.194111,0.818843,-0.290574,1.51404,0.00861354,0.325178,-0.184157
-0.0285228,0.36675,0.220922,1.36192,-0.12791,0.894277,-0.0887952,0.379565,0.0893068
-0.0354738,0.398344,0.23379,1.80495,-0.0970871,0.237525,-0.152476,0.349853,0.232648
-0.0377306,0.436858,0.235446,2.02547,-0.162422,-0.182889,-0.0589912,0.276183,0.172057
-0.0419514,0.478131,0.230219,2.05658,-0.412042,-0.457258,-0.10551,0.252311,0.101034
-0.0442068,0.519018,0.219879,1.99414,-0.303242,-0.576783,-0.119358,0.307795,0.119305
-0.0434923,0.557975,0.209969,1.85522,-0.0958065,-0.427235,-0.0759241,0.393987,0.148751
-0.0390724,0.592698,0.203659,1.53161,0.371349,-0.243641,-0.0828346,0.45684,0.166892
-0.0175121,0.614222,0.201338,0.606792,1.41491,-0.0682013,-0.301638,0.364729,0.165592
0.0101914,0.621248,0.196982,0.241309,1.00431,-0.275516,-0.363481,0.346165,0.19603
0.0305431,0.628145,0.192701,0.479415,0.893244,0.000562844,-0.17066,0.359892,0.045131
0.0462493,0.636995,0.195222,0.256447,0.724426,0.171854,-0.0952714,0.363032,0.185443
0.0528784,0.633317,0.198536,-0.714663,0.109678,0.0388364,-0.000840455,0.16546,0.342632
0.048705,0.608027,0.19787,-1.79666,-0.480469,-0.237559,0.0594814,-0.127039,0.293406
0.0889593,0.542076,0.189984,-5.18355,4.63026,-0.903383,-0.291621,-0.619567,-0.118351
0.178413,0.417622,0.186243,-6.58348,3.73338,-0.902071,-0.497864,-0.14115,-0.666386
0.251068,0.296692,0.195402,-4.97975,4.09525,-1.04462,0.110957,0.102036,-1.04978
0.325946,0.227677,0.187684,-1.41145,2.57026,-1.44084,0.303689,-0.0750049,-1.14004
0.35559,0.218845,0.164452,1.03273,0.155765,-0.957056,0.489032,0.0369871,-0.736605
0.350212,0.240868,0.137515,1.77779,-1.24791,-0.847581,0.350508,0.205678,-0.293734
0.322649,0.268683,0.106115,1.80065,-2.21594,-1.09411,0.318549,0.120153,-0.017208
0.282691,0.294655,0.0742037,1.59632,-2.62068,-0.977018,0.415866,0.092854,0.110099
0.238755,0.320355,0.0524309,1.44559,-2.28491,-0.276136,0.518672,0.0518568,0.112508
0.200123,0.348225,0.0528687,1.26664,-1.64901,0.955982,0.678513,-0.0480525,0.113755
0.160545,0.37576,0.0736531,1.15658,-1.52008,1.23802,0.243082,0.100317,0.187142
0.129738,0.402725,0.0923114,1.29873,-0.874293,0.841909,-0.25408,0.0296376,0.034228
0.110752,0.431457,0.104547,1.4068,-0.551904,0.711696,-0.261942,-0.0780361,0.0680142
0.0964942,0.460341,0.117451,1.31436,-0.274286,0.738147,-0.0718651,-0.0272123,0.202204
0.0901976,0.484081,0.131033,0.888424,0.300374,0.697442,-0.113326,-0.0332465,0.263158
0.0954993,0.496818,0.144146,0.282427,0.789595,0.506282,-0.133906,-0.0289384,0.298804
0.109843,0.497768,0.15056,-0.214976,0.875867,0.0586382,-0.237768,-0.0672736,0.30817
0.124461,0.49139,0.1498,-0.383396,0.618232,-0.131065,-0.134049,-0.0650748,0.220302
0.135275,0.481229,0.148019,-0.620309,0.341936,-0.193535,-0.0093926,-0.02204,0.225695
0.135676,0.467765,0.143735,-0.59121,-0.52132,-0.338852,0.0699892,0.0747786,0.204123
0.127214,0.453892,0.1412,-0.892986,-0.162208,-0.060673,0.167973,0.200109,0.0976312
0.124658,0.43416,0.142473,-1.01795,-0.0480422,-0.0968863,-0.0159982,0.12446,-0.185143
0.123585,0.416745,0.141994,-0.622771,-0.155172,-0.148236,-0.0310246,0.017686,-0.369861
0.11879,0.411071,0.139892,0.0551244,-0.404773,-0.100624,0.0125778,0.0200289,-0.389983
0.109744,0.413966,0.138181,0.148864,-0.5388,-0.022366,0.0399706,0.0825112,-0.179666
0.098848,0.415132,0.138069,-0.015603,-0.559944,0.0178853,0.0236325,0.0478417,-0.0713372
0.0874326,0.414291,0.138422,-0.0593998,-0.56067,-0.000576243,-0.0190819,-0.000611305,-0.0999051
0.0763516,0.413552,0.138198,0.0120403,-0.545134,-0.0152665,-0.042656,0.000848264,-0.144265
0.0661198,0.41524,0.138162,0.15722,-0.481744,0.0366077,-0.0342269,0.00794759,-0.158528
0.0569824,0.419402,0.139601,0.240434,-0.356685,0.126339,-0.0180649,0.0064882,-0.132644
0.049667,0.424448,0.143063,0.247234,-0.238874,0.216369,-0.00996288,9.02414e-05,-0.0936266
0.0431251,0.429283,0.148648,0.216512,-0.205249,0.315026,0.0202025,0.00786281,-0.0522741
0.0353248,0.433577,0.156307,0.197225,-0.25891,0.386618,0.0340669,0.0197901,-0.0150334
0.0256897,0.437757,0.164876,0.201149,-0.336217,0.396314,0.0238697,0.0255171,0.0199537
0.0149716,0.441718,0.173102,0.18214,-0.374841,0.347801,0.0146794,0.0296965,0.0487995
0.00452238,0.44517,0.179694,0.159298,-0.380977,0.245132,-0.0105666,0.00847664,0.0551316
-0.00449565,0.447758,0.183568,0.0907679,-0.343401,0.10395,-0.0392672,-0.017799,0.0674571
-0.00449565,0.447758,0.183568,0.0907679,-0.343401,0.10395,-0.0392672,-0.017799,0.0674571
-0.0110714,0.448583,0.184482,-0.00598608,-0.272835,-0.0162491,-0.04697,-0.02647,0.0746218
-0.0153097,0.447523,0.18328,-0.100067,-0.20336,-0.0816004,-0.0400163,-0.0389004,0.0706515
-0.0177189,0.444786,0.181083,-0.162892,-0.13802,-0.115556,-0.0270509,-0.0438564,0.051258
-0.0187008,0.441524,0.178083,-0.160618,-0.0889235,-0.148754,-0.0303348,-0.0413869,0.026136
-0.0185826,0.438724,0.174911,-0.110835,-0.0252177,-0.128156,0.00772749,-0.0232284,-0.0023632
-0.0176812,0.437609,0.172642,0.00137944,0.00913545,-0.0778253,0.0191423,0.000190705,-0.0349562
-0.0170833,0.438596,0.171443,0.0724978,0.00595527,-0.0353367,0.0240868,-0.00221077,-0.00840342
-0.0168771,0.440105,0.171003,0.060684,0.00164538,-0.0169782,0.0135744,-0.0106871,0.0141666
-0.0168667,0.441024,0.170594,0.0272124,-0.0130715,-0.0193923,-0.00467589,-0.0143884,0.023312
-0.0168411,0.441404,0.170263,0.0164343,-0.000651761,-0.00324159,-0.0058157,-0.00984851,0.0186945
-0.0165032,0.441352,0.170223,-0.0169511,0.0216406,0.00280601,-0.0112325,-0.00284538,0.0271444
-0.0157913,0.440871,0.170379,-0.0338244,0.0462486,0.020363,-0.0111862,0.00369278,0.0229046
-0.0149578,0.440493,0.171206,-0.0219658,0.0671515,0.0539064,-0.00658163,0.013696,0.00733054
-0.0144357,0.440297,0.172625,-0.0175828,0.0469061,0.0669242,-0.00883797,0.0134579,0.0112966
-0.0143764,0.43968,0.173905,-0.0568154,0.024222,0.0451735,-0.0247722,0.00668889,0.0255527
-0.0141481,0.438143,0.174646,-0.107708,0.0322001,0.0162041,-0.0272583,0.00761694,0.029169
-0.0134024,0.435645,0.174188,-0.141184,0.0314985,-0.0554485,-0.044292,0.00263751,0.0167311
-0.0121763,0.432732,0.172405,-0.147698,0.019935,-0.100578,-0.029901,0.00205499,-0.00409371
-0.0110304,0.430105,0.170131,-0.122275,0.00756952,-0.100187,-0.0115199,0.0114483,-0.0169754
-0.0104181,0.428179,0.168231,-0.0804765,-0.00377632,-0.072399,0.00122242,0.0206227,-0.0264375
-0.0103803,0.427308,0.167119,-0.0184907,-0.00997391,-0.0447708,0.00694434,0.022546,-0.034285
-0.0104285,0.427239,0.166313,0.000702992,-0.00952886,-0.0387937,-0.00364685,0.00922367,-0.023469
-0.0103146,0.427178,0.165395,-0.00703989,-0.0132962,-0.0456011,-0.00855678,0.00510886,-0.0038349
-0.0102985,0.426689,0.164347,-0.019843,-0.0271846,-0.0468532,-0.00264895,0.000711858,0.0021202
-0.0104312,0.425993,0.163399,-0.0225315,-0.0358815,-0.0332785,0.00160995,0.00287017,0.000224948
-0.0108844,0.425346,0.162707,-0.0221813,-0.0402171,-0.0264215,0.00545874,0.00388387,0.000136375
-0.0115555,0.424946,0.162175,-0.00965645,-0.0409127,-0.0203614,0.00591934,0.00322887,-0.00463378
-0.0122058,0.424667,0.161792,-0.0205413,-0.0403445,-0.0136425,0.00620806,0.00054872,0.00488871
-0.0129483,0.42395,0.161463,-0.0486075,-0.0493282,-0.0120028,0.00339405,-0.00195095,0.011996
-0.0137601,0.422677,0.161221,-0.0808675,-0.0472097,-0.00592851,0.00592646,-0.00421059,0.014035
-0.0146894,0.420672,0.161112,-0.115966,-0.0579677,0.00253431,0.0071979,-0.00181302,0.0166592
-0.0158806,0.418185,0.161188,-0.13441,-0.0655912,0.0105857,0.00552414,0.00206459,0.00965983
-0.017295,0.415522,0.161336,-0.139219,-0.0749842,0.00738142,0.000945136,0.00448269,0.00503981
-0.0187877,0.413018,0.161398,-0.117877,-0.0754825,0.00840178,-0.00105783,0.00980386,-0.00708413
-0.020106,0.41113,0.161567,-0.0829487,-0.0530859,0.0137872,-0.00201751,0.0149105,-0.0173687
-0.0210162,0.40978,0.161719,-0.0673003,-0.0385359,0.00663404,-0.000836216,0.0116733,-0.0122694
-0.0218867,0.40858,0.16176,-0.0605995,-0.0429129,-0.0042917,-0.00465102,0.00639141,-0.00311172
-0.0225307,0.407203,0.161489,-0.0756895,-0.033117,-0.0147431,-0.00624512,0.00508162,0.00372314
-0.0228707,0.405485,0.161091,-0.0883867,-0.0189601,-0.0157471,-0.00179757,0.00341213,0.00321984
-0.022815,0.403587,0.160885,-0.0928384,0.0139611,0.00216403,0.00524838,0.00795409,-0.000579298
-0.0224143,0.401899,0.161007,-0.0713033,0.0300132,0.00989645,0.00220929,0.00959033,-0.0103161
-0.0219507,0.400781,0.161357,-0.0413017,0.0334914,0.0204476,0.00684293,0.0094918,-0.0159429
-0.0215822,0.400079,0.161806,-0.0338211,0.0254287,0.0181184,0.00220662,0.00707525,-0.0103366
-0.0212342,0.399463,0.162105,-0.0253872,0.0205153,0.00949928,-0.00248801,0.00423419,-0.00812161
-0.020897,0.398821,0.162204,-0.0321764,0.00954612,0.000674773,-0.00395303,0.00464961,-0.00572932
-0.0206859,0.398163,0.162163,-0.0180901,0.0106993,0.00260728,6.92233e-05,0.00562999,-0.0156628
-0.0203244,0.397971,0.16229,0.00324845,0.0283004,0.00325806,-0.00892943,0.00897789,-0.0171533
-0.0196109,0.398,0.162254,-0.000878643,0.0367233,-0.00713365,-0.0125475,0.00839484,-0.00766069
-0.0189524,0.397998,0.162152,0.0076741,0.030352,-0.00174278,-0.00203075,0.00663781,-0.00937229
-0.0184168,0.398274,0.162265,0.0228363,0.03125,0.0112557,-0.000176445,0.0129496,-0.00789821
-0.0184168,0.398274,0.162265,0.0228363,0.03125,0.0112557,-0.000176445,0.0129496,-0.00789821
-0.018103,0.398591,0.162594,0.0219694,0.0159802,0.0124481,-0.00168856,0.0116396,0.00103259
-0.0181515,0.398949,0.162939,0.0259724,0.00353689,0.013842,-0.00266878,0.00701106,-0.000175655
-0.018174,0.399399,0.163237,0.0251719,0.00713675,0.0100765,-0.00774762,0.00657105,0.00524914
-0.0180304,0.399633,0.163379,0.0112957,0.0088533,0.00263695,-0.0114369,0.0045892,0.0114625
-0.0179417,0.399604,0.163317,0.00139038,-0.00170264,-0.00986016,-0.00961105,0.00157151,0.0113381
-0.0178743,0.39973,0.163014,0.0163238,0.00473629,-0.0128223,-0.0115661,0.00254253,-0.00129855
-0.0176073,0.39992,0.162761,0.000789027,0.00806043,-0.0132046,-0.00998224,0.00389215,0.0105643
-0.017492,0.399749,0.162465,-0.0165138,0.00365915,-0.0118867,-0.00453308,0.00201038,0.00953418
-0.0174769,0.399371,0.162248,-0.0231009,-0.00431067,-0.00974777,-0.00191991,0.00175402,0.0054546
-0.017522,0.398874,0.162071,-0.0260402,0.00223012,-0.00726548,-0.00216488,0.0074912,0.00117618
-0.0174501,0.398455,0.161945,-0.0142914,0.00189094,-0.00344673,0.000243656,0.00957644,-0.00633502
-0.0174092,0.398341,0.161856,-0.000423769,0.00136027,-0.00510082,0.0021446,0.0101433,-0.009983
-0.0173075,0.398538,0.161712,0.0106513,0.00707218,-0.00861923,-0.00318425,0.00969929,-0.00982893
-0.0170546,0.398675,0.161458,-2.85679e-05,0.00438561,-0.0153176,-0.00289933,0.00808564,0.000925303
-0.0169355,0.398432,0.161167,-0.0149068,-0.00415826,-0.0128043,-0.000642419,0.0033907,0.0028373
-0.01696,0.398168,0.160908,0.00085295,-0.00484128,-0.0074836,-0.00490582,0.00627574,-0.0121518
-0.0169348,0.39834,0.160817,0.021391,0.00336283,-0.00123614,-0.00221413,0.0105691,-0.0166735
-0.0168806,0.398686,0.160779,0.0135456,0.00240598,-0.00562684,-0.00421943,0.00481531,-0.00398964
-0.0167536,0.398864,0.160635,0.00223327,0.00764656,-0.0084279,-0.00694686,0.00417075,0.00204664
-0.0165201,0.398801,0.160504,-0.00221555,0.0124559,-0.00377063,-0.00169896,0.00786585,0.00183076
-0.016285,0.39856,0.160487,-0.00878423,0.0120151,-0.00293162,0.00167175,0.0059655,0.00208038
-0.0160895,0.398321,0.160375,-0.00600762,0.00751883,-0.00806273,0.00153885,0.00324267,0.00249648
-0.0157856,0.398314,0.160221,0.00665597,0.021067,-0.00508543,-0.00109106,0.00505239,-0.00491226
-0.0153155,0.398479,0.1601,0.0103823,0.0222121,-0.00542419,-4.51654e-05,0.00593689,-0.000285089
-0.0150565,0.398532,0.159981,-0.00252821,0.000494199,-0.00558531,0.00194361,0.00189605,0.00790739
-0.0151732,0.398283,0.159931,-0.0156331,-0.0134459,-0.00173459,0.00135077,0.00180385,0.00913149
-0.0154864,0.397919,0.160043,-0.0130141,-0.0098365,0.00850516,-0.00174583,0.00683954,-0.00278634
-0.015737,0.397786,0.160223,0.00432569,-0.00590734,0.00834722,-0.00296361,0.00955522,-0.00983381
-0.0158135,0.397943,0.160288,0.00665864,0.000430079,0.000259214,-0.00698344,0.00773138,-0.005669
-0.01566,0.397978,0.160201,-0.00588778,0.00971205,-0.00559852,-0.00724721,0.0091677,-0.000370383
-0.0154158,0.397773,0.160079,-0.00552266,0.00777059,-0.00498651,-0.00190164,0.00907043,-0.00335455
-0.0152705,0.39774,0.159944,0.0102821,0.00261275,-0.00371126,-0.000280625,0.00871909,-0.0121285
-0.0152647,0.397933,0.16001,0.0123109,0.0016223,0.00582708,0.00268836,0.00843945,-0.00211728
-0.0153504,0.398119,0.160234,0.012038,0.00554502,0.0101299,-0.000270255,0.00333107,-0.00240409
-0.0152879,0.39837,0.160477,0.0165978,0.0140085,0.0108967,-0.00486119,0.00206724,-0.00213438
-0.0151363,0.398549,0.160674,0.00885628,0.0108031,0.00472699,-0.0066957,0.00024879,0.00504613
-0.0149483,0.398523,0.160667,-0.000770523,0.00647857,-0.00696089,-0.00754012,-0.00278103,0.00569963
-0.0147542,0.398441,0.160516,-0.0053349,0.00763013,-0.00808841,-0.00587223,-0.000858098,0.00413209
-0.014624,0.398307,0.160342,-0.00831339,0.00164642,-0.00707865,-0.00176479,0.00297022,0.00488782
-0.0145929,0.398211,0.160319,-0.00503397,0.00203163,0.00190937,0.000648491,0.00294304,-0.000903487
-0.0146714,0.398148,0.160352,-0.006377,-0.00349999,0.00136113,-0.00378013,0.00309843,0.00270575
-0.0147276,0.397962,0.160288,-0.0138605,6.13541e-05,-0.00407557,-0.00534467,0.00295797,0.0028227
-0.0147239,0.397751,0.160153,-0.00118091,-0.00247994,-0.00805113,-0.004172,0.00847042,-0.00478601
-0.0146421,0.397794,0.16004,0.00168039,0.00263768,-0.00625483,-0.00224871,0.00793007,-0.00553393
-0.0144932,0.397777,0.159908,-0.000554017,0.00666217,-0.00278713,-0.00392704,0.00541148,-0.00291592
-0.0143037,0.397749,0.159836,0.00305937,0.0127026,-0.0012622,-0.00379643,0.00776616,-0.00346714
-0.0140809,0.397793,0.159782,0.00428523,0.0111458,-0.0037914,-0.00287282,0.0055787,-0.00216895
-0.0139077,0.39772,0.159739,-0.00502839,0.00758675,0.00078795,-0.000331379,0.00413892,0.00364429
-0.0138341,0.397483,0.159763,-0.0103233,0.00353416,0.00456176,0.00100593,0.00366092,0.00297409
-0.0139001,0.3973,0.159953,-0.000316187,-0.00327075,0.00795729,0.00109825,0.00509372,-0.00467658
-0.0140128,0.397335,0.160004,0.00310519,-0.00348323,-0.00790087,-0.00546609,0.00256321,-0.00308973
-0.0138458,0.397366,0.159801,-0.00129463,0.014136,-0.0114677,-0.00697832,0.00294262,0.00182909
-0.0135305,0.397273,0.159602,-0.00342117,0.00737853,-0.00429192,0.000666037,0.00508401,0.0020982
-0.0135077,0.397173,0.159611,-0.00542386,-0.00609796,0.00254654,0.00368208,0.00282556,0.000504255
-0.0138325,0.397,0.15972,-0.0064063,-0.0150635,0.00496059,-0.00125126,0.00480217,0.000277162
-0.0141146,0.396859,0.159818,-0.00568512,-0.00249581,0.00287134,-0.00361494,0.00491643,-0.00336462
-0.0140292,0.396698,0.159796,-0.00758157,0.00840898,-0.00377,-0.0106203,0.00308967,-0.000936329
-0.013869,0.396504,0.159633,-0.00604917,0.000335704,-0.00582643,-0.00402261,0.00597766,-0.00488758
-0.0138506,0.39654,0.159617,0.0103913,0.000156553,0.00370396,0.000965118,0.00802517,-0.0103334
-0.0137588,0.396793,0.159681,0.0123828,0.00922291,0.00224443,-0.00366797,0.00543523,-0.0049367
-0.0136467,0.396946,0.159664,0.00513424,0.00435919,-0.00172921,-0.00125448,0.00194517,0.000986874
-0.0136466,0.396973,0.159703,0.00174804,0.000723274,0.00296706,0.00179707,0.00213784,0.0040282
-0.0137312,0.396985,0.159784,0.00538112,-0.00683411,0.00645697,0.000349052,0.00304884,0.00112349
-0.01397,0.397168,0.159852,0.0161986,-0.0110537,-0.00140068,-0.00159846,0.00166118,-0.00159007
-0.0141217,0.39737,0.159824,0.000168451,-0.00274882,-0.00648899,-0.00611359,0.0020768,0.00632524
-0.0140607,0.397253,0.159656,-0.00790459,0.00172942,-0.00855963,-0.00604715,0.00326517,0.00319773
-0.0138865,0.397072,0.159511,-0.00653546,0.00989031,-0.00319522,-0.00512341,0.0050818,-0.000849843
-0.0136588,0.396785,0.159377,-0.0175186,0.00636966,-0.00512299,-0.00173077,0.00765544,-0.00101072
-0.013726,0.396571,0.159403,0.00105426,-0.010203,0.00129171,0.00493941,0.0104034,-0.0103742
-0.0139842,0.396883,0.159524,0.0274678,0.000404598,0.00826115,0.0020631,0.0117588,-0.0143889
-0.0138681,0.397323,0.159685,0.0125256,0.0130066,0.000456383,-0.00376841,0.00824359,0.00361544
-0.0136804,0.397313,0.159715,-0.0044574,0.00923272,0.000589177,-0.00197303,0.000116408,0.00693297
-0.0136209,0.397161,0.15986,-0.00212555,-0.00137546,0.00692397,0.00165027,0.00365388,0.00172812
-0.013659,0.397079,0.160005,-0.00203208,0.00266992,0.00208938,-0.00403623,0.000877082,0.00265974
-0.0135801,0.396831,0.159987,-0.0184012,0.00882706,-0.00405347,-0.00831912,-0.00177753,0.0101876
-0.0134276,0.396394,0.159853,-0.0228652,0.00447178,-0.00538642,-0.00409342,-0.00123435,0.00639087
-0.0134276,0.396394,0.159853,-0.0228652,0.00447178,-0.00538642,-0.00409342,-0.00123435,0.00639087
-0.013227,0.396044,0.159647,-0.0137593,0.00873552,-0.0110571,-0.00514645,0.00184563,-0.00197077
-0.0129197,0.395753,0.159369,-0.0171018,0.00793323,-0.0143234,-0.0023004,0.00209516,0.00260103
-0.0128125,0.395451,0.15926,-0.0153524,-0.000718731,-0.00124853,0.00364461,0.00433481,-0.0019508
-0.0129459,0.395276,0.159288,-0.00543852,-0.00723266,0.000231934,0.00169339,0.00330329,-0.00548595
-0.0132004,0.395223,0.15938,0.00263508,-0.00868426,0.00351634,-0.0013826,0.00476503,-0.00696403
-0.0133112,0.395322,0.159493,0.00878703,0.00167895,0.00329846,-0.00598062,0.00676334,-0.0057826
-0.0130777,0.395449,0.159443,0.00370731,0.0149134,-0.00323534,-0.00734111,0.00506493,-0.00349414
-0.0128273,0.395447,0.15934,-0.00149306,0.00927302,-0.00356089,-0.00288768,0.00535306,0.00307083
-0.0126489,0.395254,0.159261,-0.0119265,0.00409368,-0.00287412,-0.00140346,0.00322217,0.0046578
-0.012626,0.395066,0.159293,-0.00147817,0.0032086,0.00565295,0.00336757,0.00689346,-0.00169337
-0.0126296,0.395069,0.159419,0.00518906,0.00674442,0.000512088,-0.00117616,0.00373784,0.000136375
-0.0125456,0.395,0.15941,-0.0085941,0.00277476,-0.00122412,-0.00299294,0.00338441,0.00445157
-0.0124439,0.394827,0.159363,-0.0139306,0.00544459,-0.00103718,-0.00140742,0.00243121,0.00415313
-0.0123733,0.394424,0.159309,-0.0230511,0.000460909,-0.00203878,-0.00288979,0.00250113,0.00433964
-0.0123418,0.394015,0.159288,-0.0153503,0.0027493,0.00425218,-0.00247446,0.00426042,-0.0041855
-0.0123416,0.393685,0.159305,-0.0167698,0.000406181,-0.00173968,-0.00573844,0.0039553,-0.00180042
-0.0122896,0.393435,0.159299,-0.00585455,0.00503185,-0.00181387,-0.00181797,0.00550982,-0.00800586
-0.0122343,0.393468,0.159275,0.0072216,0.000184732,-0.000802073,-0.00302891,0.00509757,-0.0082314
-0.01228,0.393617,0.159267,0.010591,-0.00532394,0.00218114,-0.00106472,0.0038166,-0.00456613
-0.0124304,0.393688,0.159327,-0.000963089,-0.00319463,-0.000808408,-0.00222323,0.00188255,0.00379753
-0.0124335,0.393492,0.159257,-0.0138597,0.000882802,-0.00300994,-0.0072853,0.00176257,0.00675654
-0.0123277,0.393181,0.159106,-0.0123979,0.00505603,-0.00840588,-0.00513857,0.00326127,-6.60419e-05
-0.0121593,0.39296,0.159012,-0.00574558,0.00585333,-0.00112037,-0.00065434,0.00600201,-0.00283289
-0.0120525,0.392916,0.158978,-9.33092e-05,0.00457389,-0.00368494,-0.000768028,0.00550377,-0.000602365
-0.012052,0.392848,0.158943,-0.00667535,0.00234588,-0.00056618,0.000406712,0.00365564,0.00203294
-0.0120358,0.392639,0.158987,-0.0146741,0.00598024,0.00284677,0.0037039,0.00201288,0.00196052
-0.011943,0.392352,0.15898,-0.0103582,0.00291357,0.000590967,0.000384547,0.00218964,-0.0022009
-0.0119567,0.392256,0.158988,0.00327529,-0.00322286,0.00185735,0.00256442,0.0028643,-0.00352257
-0.0121689,0.392266,0.159036,-0.000848587,-0.0132501,0.00367294,0.000151218,0.00174397,-9.53078e-05
-0.012451,0.392336,0.15915,0.00579865,-0.0112361,0.00942531,-0.000839695,0.00319752,-0.00171238
-0.012543,0.392313,0.159177,-0.00889342,0.00158652,-0.00732441,-0.0105202,0.00210816,0.00499398
-0.0122975,0.392053,0.15893,-0.0109971,0.0127775,-0.0156121,-0.00999817,0.00426346,0.00202918
-0.0119638,0.391915,0.158723,-0.00471174,0.0100555,-0.00432921,0.000649989,0.011323,-0.00508606
-0.011882,0.391819,0.158644,-0.00221319,-0.00255427,-0.0033479,0.00042218,0.00862509,-0.00225616
-0.0119919,0.391846,0.158614,0.00501302,-0.00328259,0.000471766,0.000218429,0.00932115,-0.00490737
-0.0121369,0.391956,0.158683,0.00735365,4.43389e-05,0.00156691,0.00206091,0.00846153,-0.00107521
-0.0121941,0.39197,0.158754,0.00335387,0.000293766,0.00256874,-0.00192989,0.00171471,0.00403047
-0.0121752,0.391936,0.158818,0.00191738,0.00326015,0.00612428,-0.0023286,0.00265992,0.00186163
-0.0121846,0.391919,0.158922,-0.000967986,-0.00105101,0.00551557,-0.00271656,-0.000300646,0.00368381
-0.0122316,0.391774,0.158928,-0.0096522,-0.00141577,-0.00236599,-0.00575475,-0.00389844,0.00456262
-0.0121744,0.391493,0.158817,-0.0188406,0.00201318,-0.00641676,-0.00449409,-0.00228083,0.00503653
-0.0121374,0.39112,0.158613,-0.0141849,-0.00511002,-0.00839239,-0.00216141,-0.00158879,-0.00109184
-0.012198,0.39097,0.158478,-0.00144249,-0.00248066,-0.00362908,0.000687681,0.00188914,-0.00729162
-0.0121624,0.390968,0.158428,-0.000563912,0.00363607,-0.000834143,0.00109722,0.00536653,-0.00332326
-0.0121788,0.391006,0.158421,0.00314799,-0.00113866,-0.00209766,-0.000413634,0.00285351,-0.00440603
-0.0122075,0.39102,0.158363,-0.00239216,-0.00237426,-0.0024755,-0.00069236,0.00488031,0.00205815
-0.0121708,0.390881,0.158327,-0.00752912,0.00449025,-0.00250522,-0.000740856,0.00640023,0.000493884
-0.0120803,0.390714,0.158308,-0.00415569,0.0034732,-0.00249638,-0.000854327,0.00581828,0.000314534
-0.0119418,0.39069,0.158332,0.00714623,0.00865197,0.00388637,-0.00121116,0.00921395,-0.00417608
-0.0117947,0.390915,0.158445,0.012627,0.0053859,0.00558071,0.00240549,0.00728583,-0.00262755
-0.0118015,0.390937,0.15854,-0.00803357,-0.00333145,0.00198539,-0.000136502,0.000515759,0.00677878
-0.0118066,0.390675,0.158566,-0.0157146,0.00103605,0.00151136,-0.00177861,0.000303894,0.00613087
-0.011753,0.390397,0.158593,-0.00665243,0.00500623,0.00202492,-0.00130805,0.00335804,-0.00168204
-0.0116143,0.390286,0.158594,-0.00283904,0.0101064,0.00107172,-0.00259547,0.0017294,-0.000799
-0.0116143,0.390286,0.158594,-0.00283904,0.0101064,0.00107172,-0.00259547,0.0017294,-0.000799
-0.011477,0.390136,0.158624,-0.0136384,0.00152708,0.0022433,-0.00293542,0.00163633,0.00354725
-0.0114848,0.389863,0.158692,-0.0113484,0.000708916,0.000662343,-0.00292704,0.000392795,-0.00251395
-0.0114418,0.389682,0.158675,-0.00428647,0.00422379,-0.00505429,-0.00531583,0.00277314,-0.00638127
-0.0112485,0.389639,0.158558,0.000524249,0.0117263,-0.00588339,-0.00293101,0.00383189,-0.00535578
-0.0110669,0.389725,0.158474,0.00685673,0.00665815,-0.000473496,0.000608571,0.00449115,-0.0032503
-0.0110666,0.38982,0.158499,0.00257754,-0.00389849,0.000483746,-0.00102485,0.00370985,0.00177932
-0.0111853,0.389823,0.15852,-0.00155411,-0.00448024,0.00350313,-0.00161701,0.0028277,0.00414205
-0.0112036,0.38965,0.158491,-0.0108305,-0.000397773,-0.00416167,-0.00378133,0.00210282,0.0055657
-0.0111031,0.389438,0.158448,-0.00428228,0.00469817,0.00116673,-0.00256116,0.00320393,-0.00469834
-0.0110088,0.38942,0.158474,0.00299622,0.00730152,0.000499732,-0.0010309,0.00610131,-0.00527018
-0.0109364,0.389428,0.15854,-0.000114909,0.00544306,0.000850411,0.000733235,0.00343868,-0.0015952
-0.0108447,0.389271,0.158563,-0.0148382,0.00718896,0.000837684,-0.000449605,0.00262216,0.00319546
-0.0107621,0.389014,0.158542,-0.00791314,0.00484123,-0.000726012,0.00197741,0.00259757,-0.00161934
-0.0107598,0.389045,0.15858,0.0115814,-0.00383626,0.00448382,0.00504224,0.00384703,-0.00619352
-0.010832,0.389296,0.15869,0.00976274,-0.00199079,0.00414634,0.000286251,0.000875026,0.00262165
-0.0109609,0.389315,0.158701,-0.00602239,-0.00791879,-0.00118686,-0.00408075,-0.00225085,0.00804532
-0.0111547,0.389174,0.1587,-0.00607614,-0.0074743,-0.000662425,-0.00368715,0.00181487,-0.000249743
-0.011092,0.389134,0.158632,-0.00211655,0.00773502,-0.00649901,-0.00902461,0.00406659,-0.00288892
-0.0108144,0.389006,0.15845,-0.0138231,0.0108076,-0.00697307,-0.00554247,0.00504684,0.00189269
-0.0106714,0.388816,0.158396,-0.0107458,0.00132099,0.00229074,0.000551544,0.00604606,-0.00183338
-0.0107505,0.388682,0.158439,-0.00307394,-0.0064027,0.00187727,0.000716828,0.00891268,-0.00533861
-0.0109177,0.388662,0.158475,0.00394137,-0.00308027,-0.000650434,0.000490211,0.0078716,-0.00434077
-0.0109477,0.388797,0.158463,0.0111545,0.00164305,-0.000398986,-0.0020003,0.0055559,-0.00156969
-0.0108484,0.388956,0.158451,0.00650246,0.00650512,0.00130388,-0.000689089,0.00246796,0.00456619
-0.0107389,0.388882,0.158461,-0.00962961,0.00547382,0.000438788,-0.00233116,-0.00126249,0.00889826
-0.0107097,0.388523,0.158438,-0.0196987,-0.000787918,-0.000537043,-0.00122757,-0.00286156,0.00753939
-0.0108106,0.38808,0.158407,-0.0183318,-0.00463421,-0.000812631,-0.000232144,-0.00125691,0.00129724
-0.0109247,0.387819,0.158391,-0.0086491,-0.00668776,-0.00372081,-0.00107153,-0.000476807,-0.00360984
-0.0110232,0.387771,0.158308,-0.000660038,-0.00307439,-0.00303791,-0.00154468,0.000471175,-0.00585127
-0.0109826,0.387843,0.158207,-0.000351212,0.00464635,-0.00464983,-0.0037341,0.000552416,-0.0017274
-0.0108722,0.387784,0.158078,-0.00753533,0.00114977,-0.00540701,-0.00246269,0.00119966,0.000783205
-0.0108536,0.387656,0.158006,-0.00357895,-0.00107604,-0.00162038,0.000816442,0.00335523,-0.000495911
-0.0109084,0.387606,0.158048,0.000281599,0.00137394,0.000562517,0.000546969,0.00588718,-0.00177437
-0.010865,0.387597,0.158075,0.00080568,0.00387637,0.00101243,-0.00227024,0.0047195,-0.000137985
-0.0107381,0.387596,0.158072,0.00162538,0.0108571,-0.000987664,-0.00165537,0.00528273,-0.00170779
-0.0105987,0.387528,0.15807,-0.0061819,0.00562225,-0.00166565,4.69238e-05,0.00604418,0.00420898
-0.010496,0.387366,0.158052,-0.00906665,0.00635893,0.00211141,0.000578158,0.0024763,0.00273001
-0.0103965,0.387051,0.158074,-0.0194629,0.00681917,0.00122041,-0.00204574,0.00223011,0.00594759
-0.0102849,0.386642,0.158046,-0.0181214,0.0073634,-0.00303936,-0.00286467,0.0024769,0.00256294
-0.0100958,0.386271,0.157917,-0.0159143,0.0063479,-0.00794481,-0.0024433,0.00327787,-0.00030154
-0.0099133,0.38599,0.157737,-0.0110507,0.00170097,-0.00655372,-0.000673383,0.00321549,-0.00149083
-0.00977001,0.3857,0.15762,-0.0157496,0.00329287,-0.00651447,-0.000881359,0.000688791,-0.000175059
-0.00967261,0.385414,0.157497,-0.00790925,0.00293574,-0.0082338,-0.00582286,0.000973523,-0.00722319
-0.00958289,0.385273,0.157299,-0.00431371,0.00313894,-0.00636213,-0.0014194,0.00366557,-0.00385815
-0.00949,0.385192,0.157203,-0.00096985,0.00349368,-0.00105658,0.00061579,0.00392565,-0.0055967
-0.00942197,0.385281,0.15719,0.00666782,-0.00112874,3.14224e-05,-0.000378355,0.00272697,-0.00320363
-0.00948596,0.385351,0.157212,0.00151919,-0.00480307,-0.00174346,-0.000868625,0.00366139,0.000553787
-0.00956975,0.385417,0.157209,0.00442943,-0.00351411,0.00126212,0.0020164,0.00407338,-0.00192839
-0.00954819,0.385461,0.157178,0.0020739,0.000684481,-0.00197457,-0.00189472,0.00307676,0.00142735
-0.00956069,0.385422,0.157209,0.000905181,0.00261571,0.00430509,-0.000357136,0.00305572,-0.000404358
-0.00955894,0.385458,0.157263,0.00206757,0.000555215,0.00235175,-0.00269347,0.00247854,-0.00066191
-0.00947265,0.385434,0.157263,-0.00505728,0.00334113,-0.000482249,-0.00178152,0.00263956,0.00481045
-0.00940489,0.385253,0.157248,-0.0114259,0.00251173,-0.000146953,-0.000256754,0.000137508,0.00275797
-0.00940489,0.385253,0.157248,-0.0114259,0.00251173,-0.000146953,-0.000256754,0.000137508,0.00275797
-0.00934125,0.385096,0.157221,-0.00153742,0.00208531,0.00193334,0.00154639,0.00243318,-0.000844479
-0.00936147,0.385178,0.157275,0.0126468,-0.00346392,0.00266358,0.0020989,0.00200564,-0.00530052
-0.00954925,0.38541,0.157329,0.0115936,-0.0110965,0.00200077,0.00124975,-0.00159344,0.000759721
-0.00978143,0.385454,0.15737,-0.00517277,-0.0106774,0.000145157,-0.00312817,-0.000896841,0.00531882
-0.0098517,0.385342,0.157321,-0.0014708,0.00188381,-0.00418122,-0.00612967,0.00142518,-0.00236052
-0.00972276,0.385349,0.157167,0.00311992,0.0055911,-0.00563936,-0.00496743,0.00532287,-0.00355226
-0.00955432,0.385399,0.157052,0.00173754,0.00172045,-0.00251653,0.000461021,0.00863495,-0.000380576
-0.00958457,0.38544,0.157071,0.000827701,-0.00347153,0.0019286,0.000931419,0.00859642,0.000855029
-0.00972467,0.385453,0.1571,0.00139025,-0.00140043,-0.00156397,-0.0010903,0.00786087,-8.19564e-05
-0.0098173,0.38551,0.157132,0.00615836,0.00129288,0.0041516,0.000765339,0.00701311,-0.000928044
-0.00983831,0.385597,0.157226,0.00268686,-0.000149786,0.00470888,0.000494562,0.00314173,0.00236541
-0.00981673,0.385551,0.157264,-0.00652441,-0.000882964,0.00098899,-0.00301953,-0.000547767,0.00538898
-0.00982227,0.385312,0.157274,-0.0132562,-0.000834715,0.00069374,-0.00106039,-0.00252411,0.00706571
-0.00990419,0.384992,0.15726,-0.0154336,-0.00682576,-0.000234372,-0.000876479,-0.00398052,0.00379777
-0.0100442,0.384708,0.15725,-0.0103263,-0.0103418,-0.00302332,-0.000852451,-0.00274789,-0.00085783
-0.0102017,0.384572,0.157199,-0.00399304,-0.00524773,-0.00203801,-0.00229288,-0.00203469,-0.00605732
-0.0102774,0.384591,0.15712,0.00156027,-0.000983154,-0.00538019,-0.00373343,-0.000735223,-0.00395954
-0.010218,0.384638,0.157021,0.00149034,0.00038403,-0.00398436,-0.00294942,0.00196353,-0.00226766
-0.0101183,0.384684,0.156909,0.00117954,0.00200648,-0.00436344,-0.00179082,0.00278392,-0.00149035
-0.0100529,0.38477,0.156815,0.00526938,0.000298773,-0.00350776,0.000849098,0.00472534,-0.000713348
-0.0100837,0.384828,0.156826,-3.21846e-05,-0.00209431,0.00116193,0.00305943,0.00500822,0.00214839
-0.0101563,0.38479,0.156872,-0.00224313,0.00180026,0.00212136,0.00102116,0.00353843,0.00431359
-0.0101237,0.384668,0.156896,-0.00569378,0.00296456,0.000793139,-0.00180092,0.00487444,0.00345963
-0.0100413,0.3846,0.156938,-0.00122134,0.00532811,0.00218831,0.000121877,0.00511694,0.000571311
-0.0099879,0.384453,0.156986,-0.00692762,0.00227693,0.00326508,-0.000232294,0.00392774,0.00254959
-0.00998445,0.384282,0.157038,-0.00981266,0.00243099,0.00227449,-0.000753655,0.0014343,0.00267494
-0.00994877,0.384021,0.157006,-0.0126085,0.00392734,-0.00372482,-0.00229637,0.000765383,0.00223887
-0.00985995,0.383767,0.156972,-0.0105065,0.00170387,0.00118312,-0.000745103,0.00150645,-0.00167829
-0.00982795,0.383586,0.156945,-0.00450206,0.00142276,0.000878301,0.00114851,0.000591338,-0.00460112
-0.00989352,0.383607,0.15703,0.00366512,-0.00220924,0.0053195,-0.00124744,0.00309771,-0.00755441
-0.0099122,0.383707,0.157077,0.00555025,0.0023364,-0.00106475,-0.00390077,0.00198486,-0.00388408
-0.00983658,0.383834,0.157026,0.00451042,0.00264778,-0.00348586,-0.00130106,0.00298741,-0.000711203
-0.00980558,0.383878,0.156966,-0.000170507,-0.00298134,-0.000816118,-0.00284059,0.00130445,0.00375849
-0.00989029,0.38382,0.156936,-0.00448744,-0.00110929,-4.87491e-05,-0.00146484,0.00277659,0.00507635
-0.00992753,0.383712,0.156868,-0.00666155,-0.00281646,-0.00343356,-0.00298631,0.00194344,0.00404859
-0.00986605,0.383561,0.156759,-0.00444732,0.00395792,-0.00519985,-0.00194412,0.00244462,-0.000182152
-0.00975032,0.383436,0.156709,-0.00611856,0.00858944,0.00183981,0.000207321,0.00414446,-0.00269777
-0.00965672,0.383348,0.156717,-0.00355851,0.00399487,0.000728203,0.00103637,0.00447491,-0.00364065
-0.00967321,0.383257,0.156739,-0.00588067,-0.00277428,0.00411257,0.00294408,0.00217792,-0.00122637
-0.0097071,0.383172,0.156828,-0.00213049,0.000807739,0.00294066,0.00117527,0.00168708,-0.00174421
-0.00964445,0.38323,0.156858,0.00726749,0.00361676,-0.00318915,-0.00223997,0.00140524,-0.00149065
-0.00953365,0.383363,0.15678,0.0071458,-0.000576195,-0.00305567,9.82145e-05,-0.000897229,0.00100869
-0.00960335,0.383466,0.156745,0.000919613,-0.0113775,-0.000892807,0.00106274,-0.00257242,0.00646293
-0.00984766,0.383315,0.156747,-0.0153203,-0.0131653,0.00210352,-0.00176191,-0.00271171,0.00912619
-0.0100023,0.382988,0.156715,-0.014775,-0.00178817,-0.00187345,-0.00668319,0.00142533,0.000259578
-0.00988921,0.382816,0.156605,-0.00427622,0.00905402,-0.00240143,-0.00507846,0.00674298,-0.00655657
-0.00967483,0.382873,0.156523,0.00752012,0.00680564,-0.00310447,0.000108823,0.00783402,-0.00869715
-0.009628,0.38305,0.156452,0.00451532,-5.0534e-05,-0.00479195,-0.000103094,0.00854757,-0.00186586
-0.00970096,0.383076,0.156413,-0.000957628,-0.00327544,-0.000473836,0.00171925,0.00680095,0.000595987
-0.00983957,0.383061,0.156478,0.00296391,-0.00538344,0.00547881,0.00322115,0.00542951,-0.0013988
-0.00997822,0.383137,0.156613,0.00883917,-0.00348878,0.00488645,0.000740208,0.00313449,0.000646889
-0.0100655,0.38323,0.156746,5.44898e-05,-0.00126696,0.00568657,-0.000293106,-0.00120398,0.00605857
-0.0101438,0.383133,0.156847,-0.00546722,-0.00517778,0.000158763,-0.00185275,-0.00332296,0.00847429
-0.0102713,0.383027,0.156868,-0.00292478,-0.00692486,0.00166408,-0.00103223,-0.00317723,0.000761271
-0.0102713,0.383027,0.156868,-0.00292478,-0.00692486,0.00166408,-0.00103223,-0.00317723,0.000761271
-0.010473,0.38303,0.1569,0.00155775,-0.012044,0.00306924,-0.000768833,-0.00181723,-0.000156999
-0.0106597,0.383063,0.156942,-0.00086395,-0.00702228,0.000679412,-0.00351029,-0.00233507,0.00114077
-0.010761,0.38305,0.156881,-0.00474953,-0.00494042,-0.00626537,-0.00449966,-0.00198117,0.00204498
-0.0107566,0.382984,0.156774,-0.00381806,-0.000897181,-0.00262825,-0.00149745,-0.000180483,-0.000600696
-0.010762,0.382969,0.156685,0.00116145,-0.00154072,-0.00237935,0.00108634,0.00395551,-0.00147998
-0.0107432,0.382954,0.156647,-0.00453916,0.000760132,-0.000917318,0.000626422,0.00412437,0.000494301
-0.0107275,0.382854,0.156621,-0.00448448,0.000658676,-0.00205656,-0.00176808,0.005817,0.000760674
-0.0107166,0.382789,0.156561,-0.00287263,0.00182373,-0.00476554,-0.000145249,0.0059706,-0.000451028
-0.0106405,0.382678,0.156513,-0.00783635,0.00423085,-0.00139375,-0.000429027,0.00582182,0.00322282
-0.0105817,0.382515,0.15652,-0.00940687,0.00518334,0.00194734,0.000875145,0.0038546,0.00410831
-0.0105605,0.382273,0.156547,-0.0144307,0.00566362,0.00156975,-0.00120351,0.00273034,0.00496149
-0.0104911,0.381972,0.156493,-0.0173591,0.0025793,-0.0071114,-0.00311306,0.000833064,0.00257224
-0.0103525,0.381616,0.156377,-0.0175175,0.00456073,-0.00433069,-0.000753134,0.00126621,0.00122583
-0.0102364,0.381306,0.15629,-0.0105633,0.00550571,-0.000442746,-0.000905395,0.00073415,-0.00636327
-0.0102025,0.381168,0.15627,-0.00741078,-0.00242759,-0.0040673,-0.00197399,0.00185704,-0.00580794
-0.010229,0.38105,0.156171,-0.0049137,0.00123338,-0.00454083,-0.000529841,0.000816762,-0.00280416
-0.0101814,0.380968,0.156032,0.000985305,-0.000567187,-0.00682581,-0.00322874,0.00125983,-0.00327688
-0.0101523,0.381091,0.155872,0.0109924,0.000920298,-0.00596476,-0.00231016,0.00129765,-0.00431412
-0.010104,0.381301,0.155815,0.0112539,0.000850312,-0.000276887,-6.69956e-05,0.00404057,-0.000699103
-0.0100878,0.381454,0.155844,0.00118843,0.00263413,0.00116505,0.000237837,0.000627428,0.00411159
-0.0100147,0.381362,0.155798,-0.0111883,0.00552928,-0.00193795,-0.00234742,0.000618517,0.00345981
-0.00985513,0.381128,0.155713,-0.00964848,0.00692202,-0.00800841,-0.00151805,0.00410905,-0.000128925
-0.00967466,0.381066,0.155641,0.00367596,0.00825183,-0.000539328,0.00345687,0.00667551,-0.00591767
-0.00952666,0.381164,0.155693,0.00106013,0.00688595,0.00028382,0.00315129,0.00540894,-0.00103968
-0.00944246,0.38113,0.155795,-0.00658717,0.00854972,0.00409587,0.00223403,-0.000268519,0.00553507
-0.00929858,0.380941,0.155761,-0.00716399,0.00353069,-0.00612705,-0.00276642,-0.00177124,0.00586593
-0.00915634,0.380825,0.155663,-0.000693533,0.00263494,-0.00423285,0.00196948,-0.00015527,0.00198895
-0.00907652,0.380771,0.155593,-0.00224178,0.00118712,-0.000340278,0.00212445,-0.00127295,0.00194848
-0.00910963,0.380624,0.155627,-0.0116823,-0.00161124,0.00232828,6.52298e-05,8.57711e-05,0.00250638
-0.00915103,0.380462,0.155687,-0.00795073,0.00337073,0.0010214,-0.00424454,0.00181195,-0.00399494
-0.00904294,0.380386,0.155703,-0.000870873,0.00692615,-0.00038902,-0.0059163,0.00680739,-0.00921488
-0.00895092,0.380485,0.155699,0.00932572,0.00330498,-0.0014555,-0.00131761,0.00937128,-0.0101359
-0.00891414,0.380801,0.155699,0.0187562,0.00166535,0.00128804,-0.00101712,0.00917643,-0.00546175
-0.00887691,0.381175,0.155736,0.0151649,0.00257935,-0.00266463,-0.00177007,0.00587654,-0.000626087
-0.00884177,0.381384,0.155787,0.00948453,0.00276066,0.00295295,-0.00206278,0.00254625,0.0066815
-0.00877431,0.381387,0.155844,-0.000826951,0.005056,0.00331264,-0.000507966,-4.54187e-05,0.0103738
-0.00867396,0.381193,0.155874,-0.0113154,0.0086998,-0.00213684,-0.0034081,-0.00249937,0.0109047
-0.0085116,0.380803,0.155763,-0.0213808,0.00661653,-0.0055027,-0.00419843,-0.00266254,0.0106083
-0.00837582,0.380345,0.15561,-0.02678,0.0030485,-0.00803594,-0.00232415,-0.00200456,0.00400466
-0.008301,0.379951,0.155509,-0.0168119,0.000935781,-0.000929415,0.00177324,-0.00122598,-0.0043478
-0.00829751,0.379721,0.155454,-0.0101164,-0.00233194,-0.00883905,-0.00320365,-0.00153133,-0.00439978
-0.00823511,0.379516,0.155256,-0.0109964,0.00416478,-0.0105546,-0.00525988,-0.00172147,-0.0033468
-0.0080882,0.379353,0.155031,-0.00345087,0.00653689,-0.0100464,-0.00147434,0.000858516,-0.0051927
-0.00790212,0.379355,0.154866,0.00518904,0.00594041,-0.00454487,0.00109939,0.00308776,-0.00511563
-0.00777533,0.379421,0.154773,0.00210908,0.00619238,-0.00222488,-0.00211611,0.00130346,-0.000271857
-0.00765864,0.379473,0.154701,0.00188489,0.003703,-0.00661228,0.000552453,0.00347212,0.00137317
-0.00756253,0.379485,0.15466,0.00044457,0.00378764,0.000567437,0.00319447,0.0053302,0.00205582
-0.00754763,0.379462,0.154656,0.000231864,-0.00177111,0.000971126,0.00105973,0.00401181,0.00438374
-0.00760664,0.379396,0.15466,-0.00590578,-0.00156096,0.000544264,0.000946879,0.00317186,0.00477415
-0.0076056,0.379183,0.154697,-0.0109527,0.000350831,-8.13096e-05,-0.00105239,0.00149366,0.00453269
-0.00757191,0.378948,0.154651,-0.00841264,0.0027489,-0.00310805,-0.00387539,0.00116876,-0.000675023
-0.00747675,0.378782,0.154602,-0.00903345,0.00397598,-0.00352481,-0.00115572,0.00220507,-0.00123864
-0.00738323,0.37859,0.154527,-0.00812451,0.00115291,-0.00439239,-0.000143446,0.0012483,-0.0016858
-0.00724341,0.37853,0.154428,0.00437839,0.00691802,-0.00756047,-0.00266883,0.00253531,-0.00485176
-0.00724341,0.37853,0.154428,0.00437839,0.00691802,-0.00756047,-0.00266883,0.00253531,-0.00485176
-0.0071839,0.378664,0.154255,0.00657079,-0.000168888,-0.00913375,-0.00199206,0.00236988,-0.00224584
-0.00711788,0.378636,0.154117,-0.0110535,-0.00120842,-0.0101812,-0.00188548,-0.00154719,0.0089497
-0.00712428,0.378357,0.153815,-0.0154851,-0.000827782,-0.0200089,-0.00816542,-0.000997543,0.00629079
-0.00691408,0.378142,0.153464,-0.00558264,0.00624905,-0.0104726,0.00071878,0.00362396,-0.00440091
-0.00673723,0.378089,0.153364,0.00304372,0.00904519,-0.000405637,0.00215673,0.0043377,-0.00531107
-0.00659396,0.378184,0.15337,0.00149531,0.0065975,3.15136e-05,0.00151981,0.00119108,-0.00388038
-0.00653738,0.378218,0.153381,-0.0044062,0.0045559,7.77268e-05,0.00122301,0.000993639,0.000654578
-0.00649536,0.378148,0.153391,0.000909708,0.0038843,-0.00214772,0.00171818,0.00137171,-0.000647068
-0.00636044,0.378247,0.153365,0.0111507,0.00778272,0.000763922,0.00267594,0.0016619,-0.00350565
-0.0062813,0.378466,0.153363,0.0127056,-0.00148459,0.00223994,0.00153377,-0.00104919,0.00117475
-0.00633751,0.378708,0.153327,0.0066793,-0.00663144,0.000675561,0.00111242,-0.00315902,0.00372481
-0.00643011,0.378748,0.153357,-0.00726448,-0.00447271,0.00291682,8.44672e-05,-0.0013364,0.0079971
-0.00653967,0.378553,0.153397,-0.00907353,-0.00559503,0.00283432,-0.00223942,0.0014883,0.00312471
-0.00655366,0.378448,0.153424,-0.00119739,0.00300892,0.00301003,-0.00225668,0.00596839,-0.00480169
-0.0064742,0.378514,0.153474,0.00483481,0.00148954,0.000919349,-0.00150671,0.00871551,-0.00481039
-0.0064963,0.378719,0.153533,0.0135745,0.000231025,0.00134625,0.000451208,0.00750226,-0.00677842
-0.00651598,0.379034,0.15361,0.015661,0.000694984,0.00270031,-0.00104189,0.00819179,-0.00318724
-0.00651505,0.379278,0.153699,0.012212,0.00332645,0.00355625,-0.00122645,0.00438985,0.0002321
-0.00647285,0.379433,0.15376,0.00774571,0.00483726,0.0011429,-0.00270034,0.000123799,0.00652272
-0.0064105,0.379349,0.153815,-0.00750797,0.00388767,0.00356237,-0.000377685,-0.00141895,0.0122151
-0.00635954,0.379135,0.153871,-0.00796611,0.00457804,0.00309553,-0.00172151,-0.00283843,0.0037955
-0.00629037,0.378962,0.153899,-0.00716034,0.00420519,-0.000192202,-0.00216684,-0.00179315,0.000930011
-0.00628407,0.378843,0.153899,-0.006437,-0.00314386,0.00021031,-9.72226e-05,-0.00251424,0.0011878
-0.00639058,0.378733,0.153828,-0.0086047,-0.00836784,-0.00484736,0.000795461,-0.00286126,8.36849e-05
-0.00652071,0.378642,0.153733,-0.000345265,-0.00504089,-0.0031726,-0.00111284,-0.00105321,-0.00292015
-0.00650298,0.378679,0.153642,0.00393512,0.00299255,-0.00490286,-0.00254847,0.00030899,-0.00412405
-0.00638409,0.378805,0.153594,0.00848394,0.00580265,-0.000921316,-0.00130121,0.0021044,-0.00153005
-0.00627491,0.378913,0.15357,0.00360521,0.00196604,-0.000613143,0.000901185,0.00255516,0.00241339
-0.00629757,0.378931,0.153632,8.54507e-05,0.000125268,0.00345616,0.00179195,0.00322828,1.0848e-05
-0.00634311,0.378971,0.153733,0.00182685,0.000418839,0.0034732,0.00056769,0.0042271,0.00188774
-0.00636472,0.378965,0.153802,-0.00258457,-0.00134787,0.000441571,-0.000983886,0.00416046,0.00347674
-0.00631197,0.378909,0.153766,-0.00484687,0.00742685,-0.000907688,-0.00231449,0.00232261,0.00310129
-0.0061308,0.378794,0.153712,-0.00811648,0.00858197,-0.00139207,-0.000529423,0.00348246,0.00277853
-0.00603609,0.378596,0.153727,-0.0117069,0.00385903,0.000190579,-0.000113435,0.000750542,0.00173831
-0.00606744,0.378353,0.153778,-0.00991543,-0.00340121,0.00302234,0.000953838,0.00160745,-0.0015288
-0.00616459,0.378258,0.153851,-0.000990706,-0.00261997,0.00358916,0.00269227,0.00272512,-0.00462252
-0.00627285,0.378352,0.15391,0.0126099,-0.00496206,-0.000959509,-0.00253265,0.00201917,-0.00595492
-0.00632353,0.378608,0.153887,0.0118666,0.0022785,0.00111652,-0.00349323,0.000944674,-0.00133479
-0.00632892,0.378739,0.153888,-0.00104034,-0.00129146,-0.00326138,-0.00562476,-0.00107029,0.00687194
-0.00626631,0.378634,0.153815,-0.00984462,0.00235208,-0.00350625,-0.00359223,-0.0012587,0.00465256
-0.0061911,0.378399,0.153775,-0.0118332,0.00340672,-0.000949507,-0.00236458,-0.000379235,-0.000554621
-0.00618276,0.378274,0.153707,0.000534811,-0.00281957,-0.00249174,-0.000495218,0.00273961,-0.00523871
-0.00619119,0.378414,0.153639,0.0141337,0.000676185,-0.00236631,0.00202999,0.00503641,-0.00805229
-0.00620193,0.378707,0.15365,0.0117668,-0.000708207,0.00119547,0.00327527,0.00347787,-0.00277436
-0.00621246,0.378891,0.153733,0.00348397,0.00049745,0.00630883,0.0028879,0.00177199,0.00583977
-0.00622809,0.378916,0.153841,-7.53608e-05,0.000777651,0.00185134,0.0011476,0.000116587,0.00572366
-0.00622522,0.378921,0.153862,0.000449081,-0.00124836,-0.000528349,-0.00111338,-0.000824809,0.00619489
-0.00625205,0.378944,0.153827,0.00257293,-0.0022944,-0.0015876,-0.000356086,-0.00203949,0.00621676
-0.00631683,0.378831,0.153784,-0.0113416,-0.00748087,-0.00158989,-0.00272179,-0.00151846,0.00714302
-0.00641672,0.378595,0.153769,-0.0137523,-0.00176886,-0.000632058,-0.00255213,0.000825644,0.0014466
-0.00639706,0.378389,0.153704,-0.0109702,0.00308651,-0.00369388,-0.0043857,0.0036554,-0.00404656
-0.0063198,0.378226,0.153671,-0.00756624,0.0018694,-0.00255075,0.00076139,0.00617412,-0.0062899
-0.00634113,0.378158,0.15369,0.00401112,-0.00417343,0.0029656,9.47192e-05,0.00774413,-0.00881338
-0.00639951,0.378404,0.153703,0.0190894,0.00320136,0.000604865,0.000590913,0.00815538,-0.0105218
-0.00639951,0.378404,0.153703,0.0190894,0.00320136,0.000604865,0.000590913,0.00815538,-0.0105218
-0.00639057,0.378754,0.153752,0.0163952,0.000944365,-0.000988922,-0.000455827,0.004437,0.00199842
-0.00638496,0.378979,0.153778,0.0104156,0.000974743,0.0024506,-0.000141136,-0.000419557,0.00688946
-0.00639518,0.378998,0.153827,-0.00519229,-0.00201429,0.00458991,-0.00037583,-0.00160745,0.0123909
-0.00641616,0.378751,0.153918,-0.0122703,0.0032458,0.0037899,-0.00117973,-0.00342405,0.00936937
-0.00641766,0.378471,0.154005,-0.0142827,0.000683721,0.000191325,-0.00187957,-0.0021731,0.00429994
-0.00647092,0.378225,0.153968,-0.0117672,-0.00680667,-0.00449125,-0.00211941,-0.00266188,0.000667632
-0.00651146,0.378071,0.153873,-0.0076675,-0.00294893,-0.0054525,-0.00289008,-0.00216335,-0.00319761
-0.00652372,0.378038,0.153762,-0.00247631,-0.00354018,-0.00675696,-0.00220722,-0.00187367,-0.00323123
-0.00649914,0.378076,0.153623,0.00266577,-0.00158152,-0.00630822,-0.000109188,-0.000328302,-0.00477076
-0.00650035,0.37823,0.153541,0.0110261,0.000399391,-0.000103417,0.00152426,0.000745952,-0.00433946
-0.00648915,0.378437,0.153616,0.00884311,0.00287258,0.00450199,0.00181854,0.00270867,-0.00141001
-0.00642926,0.378558,0.153713,0.00107508,0.00518661,0.00473953,0.000663966,0.00218022,0.00251293
-0.00637927,0.378608,0.153733,0.00318492,0.00362421,-0.000444835,0.00128878,0.00359949,8.40425e-05
-0.00625694,0.378714,0.153768,0.0108549,0.00873206,0.00157217,0.00466913,0.00557458,-0.00184643
-0.00609189,0.378904,0.153821,0.0124022,0.0100457,0.00315793,0.00384397,0.00311145,-0.000115275
-0.00599319,0.379039,0.153957,0.00760425,0.0121613,0.010235,0.00376723,0.000704318,0.00101012
-0.0058446,0.379111,0.154156,0.00475352,0.0148122,0.009407,-0.00110119,0.00350255,-0.00258625
-0.0055363,0.379259,0.154356,0.0120294,0.0185929,0.00815498,-0.00358517,0.00443292,-0.0111078
-0.00523766,0.379566,0.154502,0.0239868,0.0129788,0.00514694,-0.00198635,0.00599998,-0.0120898
-0.00508385,0.380274,0.154702,0.0409733,0.010238,0.00940399,0.00241658,0.00661215,-0.0129316
-0.00495671,0.381242,0.154922,0.0550277,0.0112128,0.0101031,-0.000602432,0.00531319,-0.00621057
-0.00488545,0.382247,0.155129,0.0410664,0.000860446,0.00751603,-0.00613304,0.00121057,0.00972694
-0.00526982,0.382724,0.155164,0.0103615,-0.0285264,-0.000630463,-0.00547218,-0.00181022,0.0198162
-0.00579345,0.382744,0.155147,0.00382291,-0.0194588,0.00041653,-0.0064666,-0.00054118,0.0101322
-0.00607047,0.382877,0.155093,0.0116837,-0.00791046,-0.00907189,-0.0144039,-0.00263032,0.00162762
-0.00598667,0.383086,0.154881,0.00930001,0.0101512,-0.00927492,-0.0118118,-0.00646466,0.00385398
-0.0057455,0.383244,0.154683,0.0023974,0.0106942,-0.00856679,-0.00254486,-0.0051586,0.00516963
-0.00555111,0.383288,0.154578,0.00214292,0.00499104,-0.00128215,0.00494993,-0.00382003,0.00538278
-0.00556157,0.383357,0.154546,0.00412873,0.00229478,-0.00320762,0.00676003,-0.00290236,0.0026564
-0.00550715,0.383379,0.154505,-0.00233923,0.00699303,-0.00758958,0.00472587,-0.00312579,0.00321293
-0.00544021,0.383358,0.154397,-0.0016004,-0.000123592,-0.00297629,0.00417556,-0.0015277,0.0016799
-0.00534814,0.383424,0.154296,0.00196197,0.00136191,-0.00411052,0.0033271,0.000959128,0.000267327
-0.00522508,0.383465,0.154243,-0.00213042,0.00541321,-0.00371878,0.0028009,0.00464439,0.00173253
-0.00507034,0.383407,0.154156,-0.00309816,0.00395582,-0.00240589,0.00281011,0.00669593,0.00117528
-0.00503326,0.383377,0.154236,-4.73787e-05,0.000499025,0.0115655,0.00681935,0.0106971,-0.00337589
-0.00519159,0.383475,0.154503,0.00943965,-0.00905515,0.0133944,0.00218999,0.010177,-0.00519842
-0.00543303,0.383621,0.154701,0.00754048,-0.00628292,0.00610973,-0.00715366,0.00892422,-0.000981867
-0.00543215,0.383609,0.154716,-0.00662667,0.00396291,-0.00227918,-0.0111217,0.00775319,0.00486678
-0.00522858,0.383426,0.154584,-0.00694959,0.00987677,-0.00600771,-0.0113254,0.00469971,0.00279999
-0.00492537,0.383321,0.154453,0.0014283,0.012933,-0.0044985,-0.00869197,0.00164202,-0.00269818
-0.00468424,0.383351,0.154391,0.00379546,0.0088685,-0.00223454,-0.00456691,-0.00325823,-0.000633359
-0.00456146,0.383373,0.154342,0.000995084,0.00745049,-0.00585368,-0.00205629,-0.00770921,0.000854552
-0.0043988,0.383319,0.154212,-0.00609934,0.0101893,-0.0116283,-0.0023749,-0.00931507,0.00342339
-0.00411589,0.383199,0.15395,-0.00338061,0.0148029,-0.0153089,-0.00246926,-0.00794679,-0.00277126
-0.00358913,0.383409,0.153617,0.0210843,0.0266987,-0.0140917,0.00113127,-0.0026398,-0.0140939
-0.00279545,0.384029,0.153347,0.0322029,0.0414555,-0.0117742,0.00465177,-0.00157702,-0.00963902
-0.00165025,0.384615,0.153048,0.0175872,0.0642033,-0.0136438,0.00546645,-0.00469565,0.000992537
-0.000181955,0.384899,0.152739,0.0124745,0.0708832,-0.0138953,0.0161751,0.000175297,0.00450373
0.00137013,0.385339,0.152592,0.0243132,0.0744665,-0.0010897,0.0202452,0.00317737,-0.00361234
0.00265025,0.385846,0.152744,0.0308811,0.0638485,0.0156149,0.02646,0.00791958,0.00316781
0.00365124,0.386431,0.153165,0.0298664,0.055035,0.0217044,0.0168969,0.00621831,0.00428742
0.00456077,0.386963,0.15363,0.0289798,0.0510546,0.0216266,0.0068391,0.00562808,0.00383902
0.00540281,0.387489,0.154078,0.0245474,0.0463383,0.0199575,-0.00163004,0.00507686,0.00777191
0.00630364,0.387883,0.154416,0.0166263,0.0505013,0.0120391,-0.0116642,0.00269538,0.00880814
0.00630364,0.387883,0.154416,0.0166263,0.0505013,0.0120391,-0.0116642,0.00269538,0.00880814
0.00726972,0.387997,0.154644,-0.00125989,0.0487632,0.00875307,-0.0170442,0.000741094,0.0115665
0.00823246,0.387884,0.154655,-0.00462362,0.0473965,-0.0040179,-0.0259924,-0.00223213,0.00215715
0.00924381,0.387772,0.154373,-0.00365695,0.0463559,-0.0261937,-0.030408,-0.000596166,-0.00255424
0.0104374,0.387778,0.153633,0.00648811,0.0516252,-0.0472242,-0.029163,0.000507981,-0.00285727
0.0117988,0.388052,0.152556,0.0173306,0.0553632,-0.0545221,-0.0262106,0.000303477,-0.00535512
0.0131478,0.388383,0.151452,0.0112316,0.0483566,-0.0503309,-0.0141213,-0.00112972,-0.000323236
0.0141794,0.38852,0.150567,0.00729247,0.0355898,-0.0339097,-0.00341757,-0.000300974,0.00113767
0.0150084,0.388629,0.150003,0.00729549,0.0375108,-0.0236883,0.00338427,-0.000444293,-0.000257552
0.0156697,0.388732,0.149591,0.00849232,0.024386,-0.0167831,0.00927318,-0.000364423,0.00186086
0.0159396,0.388821,0.149383,0.000200233,0.00124699,-0.00709795,0.0136627,-0.00105959,0.00727028
0.0156527,0.388779,0.149367,-0.001756,-0.0214628,0.00228915,0.0114865,0.00283769,0.00899965
0.0151488,0.388676,0.149424,-0.00801423,-0.0273513,0.00427512,0.00609273,0.00497091,0.00619215
0.0146469,0.388373,0.149383,-0.0235367,-0.0276358,-0.00342493,-0.000738226,0.00374424,0.00953352
0.0142421,0.3878,0.149222,-0.0324473,-0.0266862,-0.00782587,0.000777692,0.00448039,0.00649035
0.0138228,0.387136,0.149036,-0.0371391,-0.0283379,-0.00801271,0.00128445,0.00545233,0.00137568
0.0134299,0.386453,0.148859,-0.030618,-0.0202185,-0.00603026,-0.00104075,0.00361475,-0.00464857
0.0130776,0.385915,0.148707,-0.0203724,-0.0208021,-0.0057641,0.000274703,0.00586268,-0.00979733
0.0126786,0.38574,0.148569,0.00228154,-0.0241056,-0.00790826,0.00114705,0.00370184,-0.0136788
0.0122314,0.385856,0.148476,0.00507167,-0.0253024,-0.00179945,0.00229424,0.00116938,-0.00761378
0.0116734,0.385858,0.148509,-0.00108221,-0.0287911,0.00768067,0.00189573,-0.00258255,-0.000955403
0.0110198,0.385785,0.148686,-0.000972995,-0.0312815,0.0102006,0.00291285,-0.00176528,-0.00157714
0.0103601,0.385815,0.14895,0.00524612,-0.0224017,0.0149547,0.00262391,0.00114602,-0.00211585
0.00984549,0.385957,0.149211,0.0103305,-0.0196651,0.00712384,-0.00306334,0.0016596,-0.000226796
0.00955538,0.386175,0.149333,0.00937795,-0.00971605,0.00592874,-0.00233605,0.000961274,0.0043782
0.00931566,0.386291,0.149424,0.00199284,-0.0123499,0.0045621,-0.000908137,0.000366986,0.00932616
0.00907073,0.386172,0.149493,-0.0126686,-0.0140531,0.00267611,0.00153085,-0.00172734,0.0118757
0.00876493,0.385865,0.149532,-0.0159667,-0.0143656,0.00150745,0.00127904,-0.00309494,0.0113528
0.00842079,0.385535,0.149651,-0.0171916,-0.0147348,0.00727021,0.00426712,-0.00257653,0.00725293
0.00811651,0.385182,0.149814,-0.0206337,-0.00879098,0.00692677,0.0018319,-0.00264448,0.00744909
0.00792532,0.384749,0.149902,-0.0261161,-0.00686504,0.00278247,3.94136e-05,-0.0026035,0.00521755
0.00773455,0.384262,0.14997,-0.0275404,-0.0104383,0.00452195,0.0011456,-0.00101018,0.00190735
0.00747767,0.383773,0.15009,-0.0225888,-0.0112299,0.0087006,0.00312188,0.0012987,-0.00314158
0.00714008,0.383437,0.150314,-0.0174795,-0.0141328,0.0126869,0.00364762,0.00239059,-0.00716376
0.00676652,0.383195,0.1506,-0.00787552,-0.0132324,0.0129644,-0.000660494,0.001968,-0.00733036
0.00650437,0.383092,0.150834,-0.00489926,-0.00510139,0.0108905,-0.004568,0.00162783,-0.00826663
0.00639971,0.383088,0.150955,0.0017761,-0.00330091,0.00708458,-0.0047456,0.00241837,-0.00596076
0.00632708,0.383134,0.151065,0.00384563,-0.00162005,0.00258614,-0.00368629,0.00230831,-0.00341398
0.00628244,0.383207,0.151125,0.00359583,-0.000933074,0.0024454,-0.00652864,0.000392079,-0.000450194
0.00632598,0.383262,0.151081,0.00502231,0.00656225,-0.00753148,-0.00743864,-0.000549018,-0.000211477
0.00650242,0.383328,0.150927,0.00435286,0.00795098,-0.00740024,-0.00471821,-0.000960499,0.00194466
0.006732,0.383364,0.150772,-0.00125625,0.0116603,-0.00409319,0.000913091,-0.00164461,0.00586671
0.00690155,0.38329,0.150702,-0.00289581,0.0074491,-0.00326025,0.000526771,-0.00160611,0.00537437
0.00690758,0.383253,0.150755,-0.00270795,-0.000368773,0.00519614,0.00374069,0.00124386,0.00358748
0.00680395,0.383166,0.150851,-0.00786465,-0.00332272,0.00319328,0.00122733,0.000201523,0.00555867
0.00682042,0.382916,0.150818,-0.0156983,0.00590394,-0.00626085,-0.00225233,-0.000930965,0.0039584
0.00705149,0.38262,0.150651,-0.0131811,0.0115825,-0.0088464,-0.00112467,0.00048843,-0.000113487
0.00729784,0.382446,0.150536,-0.00333598,0.00875264,-0.000350428,0.00287301,0.00287494,-0.00847298
0.00742732,0.382473,0.150621,0.00241115,0.00573416,0.00808604,0.00476713,0.00326693,-0.00535619
0.00746851,0.38247,0.150846,0.000420045,0.00744598,0.0098025,0.000822648,0.00208899,-0.00347841
0.00756943,0.382532,0.151038,0.00824003,0.00703922,0.0057393,-0.00365007,0.00245112,-0.00453961
0.00776293,0.382751,0.151061,0.0151709,0.00944093,-0.00186512,-0.00527852,0.00178525,-0.00146449
0.00798707,0.382975,0.150979,0.0065641,0.00722911,-0.0047903,-0.00389886,-3.68953e-05,0.00554579
0.00814984,0.382963,0.150867,-0.00547771,0.00394832,-0.00299649,-0.00314961,-0.00367966,0.0082193
0.00814984,0.382963,0.150867,-0.00547771,0.00394832,-0.00299649,-0.00314961,-0.00367966,0.0082193
0.00828745,0.382829,0.150794,-0.00750222,0.0102001,-0.00295985,-0.0037049,-0.00278118,0.0026834
0.00850336,0.382709,0.150761,-0.0065053,0.0116874,-0.00229598,-0.00250174,0.00144085,0.000681937
0.00881041,0.382671,0.150728,0.00214926,0.0161012,-0.000244651,0.000142992,0.00300813,-0.00278544
0.00901742,0.382839,0.150755,0.0106278,0.00973832,0.00196395,0.00405613,0.00642854,-0.00324631
0.00909733,0.383048,0.150841,0.00909449,0.00164401,0.00274325,0.00537128,0.0048531,-0.00071615
0.00901722,0.383167,0.150918,0.00844395,-0.0033892,0.00395468,0.00416424,0.00467354,0.00242919
0.00895743,0.383262,0.151017,0.00519847,0.000790713,0.00418771,0.00180912,0.00318998,0.00280613
0.0090025,0.383248,0.151121,0.000423421,0.00474752,0.00644169,-0.00189483,0.000567108,0.00262815
0.00908763,0.383217,0.151253,-0.0021126,0.00657003,0.00404916,-0.00131775,-7.2062e-05,0.00360036
0.00915627,0.383116,0.151348,-0.00618808,0.00617835,0.00277558,-0.00412834,-0.00172195,0.00447667
0.00924554,0.382919,0.151424,-0.0153154,0.00543268,0.0034188,-0.00381508,-1.20699e-05,0.0084098
0.00923774,0.382632,0.15151,-0.0111166,0.000362661,0.00574538,-0.00200831,-0.000766933,0.00285625
0.00915659,0.382454,0.151665,-0.00572588,-0.00134983,0.00523305,-0.0036121,-0.000321239,-0.00290573
0.00916396,0.382421,0.151727,-0.000539807,0.00284943,-0.000333285,-0.00618254,-0.000291348,-0.00374776
0.00929621,0.382447,0.151655,0.000580368,0.00552237,-0.00655571,-0.00657979,-0.00144166,-0.000615478
0.00942537,0.382436,0.151488,-0.00182295,0.00324508,-0.00505,-0.00146589,-0.0010553,-0.000826061
0.00954484,0.382406,0.151395,-0.00421192,0.00450947,-0.00220788,0.00182588,-0.000106394,0.000969291
0.00956831,0.382295,0.151403,-0.00589903,0.00222911,0.00213098,0.00203259,-0.000484228,0.000705421
0.00953939,0.382192,0.151477,-0.0012612,-0.00155766,0.00468198,0.00407321,0.00154081,-0.000644267
0.00942284,0.382199,0.151588,0.000123511,-0.00256174,0.00508363,0.00418138,0.00212732,-0.000310302
0.00933128,0.382168,0.151657,-0.00322972,-0.00498927,0.00214229,-0.00203567,0.00255588,0.00193006
0.00928353,0.382092,0.15167,-0.00561878,-0.00166427,-0.00145421,-0.00411259,0.0019061,0.00311822
0.00927568,0.38199,0.151554,-0.00510729,-0.00232445,-0.00410346,-0.00386152,0.00274196,0.00420928
0.0092344,0.38177,0.151494,-0.0113569,-0.00657946,-0.00628826,-0.00202344,0.00171432,0.0057258
0.00913089,0.381496,0.151402,-0.0123342,-0.00568161,-0.00268902,-0.0030117,0.00121516,0.00120556
0.00908797,0.381253,0.151323,-0.0123708,-0.00499098,-0.00258627,-0.00213345,0.00185937,6.03795e-05
0.00889788,0.381019,0.151335,-0.0138036,-0.0114706,-8.97762e-05,-0.00204934,-0.000219494,-1.87755e-05
0.00862104,0.380775,0.15132,-0.0129967,-0.0166505,-0.0015145,-0.00395989,-0.000292778,-0.000475407
0.0083793,0.380555,0.151189,-0.00854727,-0.0105566,-0.00805889,-0.00616231,-0.000192165,-0.00181073
0.00827209,0.38043,0.150969,-0.00104723,-0.00796368,-0.0132367,-0.00307244,-0.000781566,-0.00763798
0.00823457,0.380465,0.150777,0.00631242,-0.00565778,-0.00520926,0.000212625,0.000869006,-0.0065828
0.00817192,0.380595,0.150676,0.0102963,-0.00307202,-0.00162386,0.00242269,0.0012646,-0.00550157
0.00809249,0.38079,0.15068,0.0110703,-0.0026604,0.00281718,0.00622016,0.00168973,-0.00305569
0.00795204,0.380895,0.150792,0.0026071,-0.00785653,0.00739238,0.0072969,-0.000181496,0.00378817
0.00775453,0.38088,0.150981,0.00146183,-0.00953923,0.0126451,0.0087009,0.00145251,0.00423771
0.00749884,0.380919,0.151198,0.0055048,-0.00859918,0.00860896,0.00492531,-0.000128925,0.00196677
0.00734219,0.381086,0.151301,0.00866651,-0.00668527,0.00422189,-0.000101544,8.70228e-05,0.00417942
0.00727712,0.381206,0.151333,-0.00268714,-0.00426197,0.000529685,-0.00190239,-0.00161749,0.00831616
0.00714878,0.381017,0.151363,-0.0144006,-0.00773133,0.00108374,-0.00204317,-0.00150242,0.00934833
0.00711172,0.380712,0.151382,-0.0158689,0.00188682,0.00321149,-0.0042221,0.00262412,0.00293124
0.00708849,0.380438,0.151421,-0.0110988,0.00090197,0.00355365,-0.00171407,0.00503981,-0.0042299
0.00703084,0.380346,0.151538,-0.00153572,-0.00325896,0.00674466,-0.00211855,0.0076555,-0.00752193
0.00693785,0.380387,0.151617,0.00270291,-0.00495503,0.00391611,-0.00281029,0.00535879,-0.00576639
0.00679706,0.380476,0.151626,0.00543063,-0.00678228,-0.00144314,-0.00377798,0.00510553,-0.0037691
0.00671312,0.380607,0.151616,0.00745198,-0.00386307,0.00124838,-0.0025553,0.00126013,2.7895e-05
0.00667825,0.380659,0.151595,0.00200711,-0.0013314,-0.000510165,-0.00378929,-0.00304031,0.00754666
0.00666136,0.380519,0.151611,-0.0106188,-0.000100268,0.00223006,-0.00137831,-0.00550544,0.00749218
0.00655613,0.380232,0.151668,-0.0137071,-0.00585158,0.00207709,-0.000823557,-0.00525296,0.00473058
0.00637704,0.38002,0.151689,-0.00708551,-0.0099271,1.23307e-05,-0.000169479,-0.00372505,-0.00117129
0.00621191,0.379887,0.151657,-0.00744903,-0.0078256,-0.00564875,-0.00105403,-0.00313136,-0.00254011
0.00611623,0.379876,0.151552,0.00275957,-0.00546334,-0.00413303,-0.000370108,7.80523e-05,-0.00728101
0.00604481,0.38008,0.151428,0.0138305,-0.00713572,-0.005781,0.00259585,0.00240359,-0.00615072
0.00590875,0.38032,0.151355,0.0116204,-0.0119354,-0.00124493,0.00481317,0.00110021,-0.00106615
0.00563014,0.380516,0.151435,0.00858664,-0.0118025,0.0054096,0.00325648,0.00314417,0.00101388
0.00563014,0.380516,0.151435,0.00858664,-0.0118025,0.0054096,0.00325648,0.00314417,0.00101388
0.00535342,0.380701,0.151552,0.00901696,-0.0107143,0.00490297,-0.000865504,0.00432283,0.000473619
0.00519862,0.380822,0.151598,0.00562683,-0.00392487,-0.00317574,-0.00575696,0.0038859,0.00322175
0.00533143,0.380873,0.151499,0.00245083,0.00886178,-0.00863941,-0.00861147,0.00606909,0.0042094
0.00564103,0.380915,0.151255,0.00278547,0.0119889,-0.0133787,-0.00390916,0.00432324,0.00445139
0.00586055,0.380961,0.151084,-0.00374279,0.00756003,-0.00452004,0.00441682,0.000520945,0.00591314
0.00587797,0.380797,0.151129,-0.0112838,0.00159032,0.00559795,0.00421718,-0.00260714,0.00737798
0.00587214,0.380587,0.15123,-0.00982485,0.00640396,0.00457784,0.00246738,-0.00446534,0.000772715
0.00594182,0.380438,0.151264,-0.00550911,0.00364188,-0.000679289,-0.00115294,-0.00278828,-0.0025596
0.00601833,0.3804,0.151255,0.00068716,0.00489147,-0.00156254,0.00288055,-0.00112912,-0.0052318
0.00600136,0.380473,0.15127,0.00422684,-0.004455,0.00335467,0.000470318,-0.00100058,-0.00300038
0.00597265,0.380607,0.151282,0.00970556,-0.000943508,-0.00127255,-0.00569779,-0.000662804,-0.00395018
0.00604696,0.380803,0.151236,0.00655431,0.00480341,-0.00578233,-0.0055985,0.000374049,0.000935555
0.00615366,0.380867,0.151126,0.000103334,0.00466226,-0.00447392,-0.00430886,-9.44734e-06,0.00474131
0.00639203,0.380831,0.15094,-0.00427303,0.0102048,-0.00994224,-0.00327901,0.00169674,0.00350201
0.00659538,0.380737,0.150786,-0.00347017,0.00445478,-0.00704684,-0.000111081,0.00238803,0.00254375
0.00664684,0.380674,0.150773,-0.00345604,0.00387965,0.00310437,0.00283171,0.00185636,-0.00265157
0.00668924,0.380682,0.150803,0.00278173,0.0057105,8.19974e-05,-0.000213616,0.00470164,-0.00466889
0.00680235,0.380803,0.150789,0.0075245,0.00520475,-0.00238946,0.0012686,0.00321206,-0.0055539
0.00686788,0.380931,0.150749,0.00720235,-0.00116221,-0.000424201,0.00360371,0.003483,-0.00157338
0.00673877,0.381094,0.150792,0.0127502,-0.00939797,0.00138909,0.00259483,0.00206277,-0.00276238
0.00654394,0.381312,0.150858,0.0114432,-0.0062688,0.00410188,-0.000504435,0.00170073,-0.00053823
0.00644854,0.381469,0.150847,0.00830103,-0.00376623,-0.00159543,-0.00339098,0.00105277,0.00262356
0.00643207,0.381532,0.150727,0.00178441,-0.00383031,-0.00551394,-0.00258208,-0.00149751,0.0023101
0.00641554,0.381533,0.150573,-0.00179279,-0.00529339,-0.008945,-0.00239889,-0.00113067,0.00116551
0.00627152,0.381465,0.150481,-0.00602566,-0.0162211,-0.00201743,0.00067956,-0.000476241,-0.00137192
0.00588708,0.381436,0.150494,0.00639509,-0.0188364,0.00169886,0.00317253,0.000656545,-0.00595188
0.00546196,0.381764,0.15062,0.0209286,-0.0174937,0.00856278,0.000393919,0.00268453,-0.00660557
0.00497361,0.382185,0.150778,0.016692,-0.0200892,0.0062828,-0.00861256,0.00125962,0.0038141
0.00456849,0.382393,0.150771,0.00644485,-0.0158406,-0.00728115,-0.0156979,0.000506341,0.00814819
0.00439303,0.38245,0.150461,0.000920608,-0.0189466,-0.0209712,-0.0209671,0.00361142,0.00550294
0.00422782,0.382405,0.14994,-0.00237097,-0.0176366,-0.0287531,-0.0191507,0.00279149,0.00440651
0.00404959,0.382309,0.149264,-0.00592672,-0.0231308,-0.0344611,-0.0147283,0.00486916,0.00305444
0.00387456,0.382188,0.148583,-0.0102948,-0.0164246,-0.030378,-0.00560915,0.00291055,0.00102508
0.00372704,0.381888,0.148009,-0.0163244,-0.0114471,-0.0279644,0.00089021,0.00173226,0.00217491
0.00373361,0.38156,0.147452,-0.0124598,-0.00191526,-0.0282508,0.00366076,0.00331968,-0.00350118
0.00386799,0.381414,0.146948,-0.000545515,0.00334681,-0.021281,0.0120655,0.00457266,-0.00601077
0.00409386,0.381537,0.146601,0.00958615,0.00734563,-0.0128758,0.017395,0.00181812,-0.00346333
0.00431721,0.381712,0.146448,0.00709113,0.00934934,-0.000267202,0.0215215,-0.00329861,0.00408459
0.00438568,0.381685,0.146602,-0.00514401,-0.00187564,0.0145612,0.0247233,-0.00663483,0.00806165
0.00416981,0.381437,0.147005,-0.0127308,-0.00938314,0.0251378,0.022314,-0.00790268,0.00575924
0.00390003,0.381223,0.147479,-0.00619264,-0.00398839,0.0175746,0.0114404,-0.00665155,0.00072813
0.00386322,0.381173,0.147743,-0.00455177,0.00285741,0.0109587,0.00132739,-0.00379881,0.00228798
0.0039654,0.381079,0.147869,-0.00811883,0.00138816,0.00695578,-0.0018041,-0.00330678,0.00288743
0.00397541,0.380902,0.147952,-0.014436,-0.00494283,0.00701479,-0.00518584,-0.000312746,0.00118321
0.00393791,0.380733,0.148098,-0.00513564,0.0040445,0.0074549,-0.0108123,0.0038029,-0.00652057
0.0040873,0.380776,0.148239,0.00992208,0.0159808,0.00362742,-0.0155133,0.00448382,-0.0130526
0.00448717,0.381107,0.148307,0.0235958,0.0277701,0.00293386,-0.0153194,0.00286835,-0.0133604
0.00510902,0.381666,0.148419,0.0277171,0.0404551,0.00739177,-0.00860185,0.00312799,-0.00882578
0.00588651,0.382147,0.148559,0.0241957,0.0457039,0.00208342,-0.0100853,-0.000881106,-0.00185269
0.00667316,0.382582,0.148607,0.0269564,0.0423558,0.00109442,-0.00570238,0.00130731,-0.00439978
0.00729446,0.383123,0.148754,0.0318464,0.0341011,0.00973878,0.00330524,0.00432768,-0.00544542
0.00778153,0.38374,0.148949,0.0339778,0.0251089,0.0082889,0.00389288,0.00271764,-0.00197172
0.00813365,0.384409,0.149164,0.0337114,0.0248517,0.0134048,0.00526215,0.000484467,0.000979424
0.00849763,0.385039,0.149518,0.0326659,0.029257,0.0158738,0.00521667,-0.00131202,0.002617
0.00849763,0.385039,0.149518,0.0326659,0.029257,0.0158738,0.00521667,-0.00131202,0.002617
0.00895428,0.3856,0.149851,0.0269215,0.0287713,0.0139892,0.00444441,-0.00288281,0.0062325
0.00945864,0.386091,0.150065,0.0261775,0.0290005,0.0109683,0.0036279,-0.00535738,0.00750822
0.00995515,0.386525,0.150232,0.0187852,0.0253569,0.00840262,0.00776248,-0.00492451,0.0124518
0.0103645,0.386781,0.15042,0.00573923,0.0180214,0.00925105,0.00860509,-0.00493217,0.0108258
0.0105573,0.386912,0.150754,0.00728018,0.00847605,0.0199528,0.0108532,-0.00163719,0.00465578
0.0104286,0.387184,0.151265,0.0216348,-0.00371362,0.0284974,0.00888295,0.000827432,-0.00475359
0.0101249,0.387732,0.151878,0.0229866,-0.00684928,0.0326867,0.00625185,0.00418794,-0.006926
0.00964679,0.388243,0.152596,0.0258443,-0.0207095,0.0348494,0.00471266,0.00444776,-0.00404811
0.00909274,0.388821,0.153248,0.0329186,-0.0164003,0.0251096,-0.0074526,0.00736335,-0.0103201
0.00873029,0.389548,0.153697,0.0435473,-0.00682927,0.0183824,-0.0159344,0.0133759,-0.0114472
0.0086825,0.390371,0.153853,0.0401961,0.0040904,0.0016588,-0.0246765,0.0145037,-0.00507647
0.00892956,0.391047,0.153703,0.0332056,0.00824225,-0.00926528,-0.0245975,0.0134351,-0.000804067
0.00926307,0.391647,0.153381,0.0319927,0.0126085,-0.0158007,-0.0231795,0.0110905,0.000581741
0.00958966,0.392164,0.153055,0.027978,0.0128756,-0.0163388,-0.0131187,0.00902036,0.00802594
0.00983708,0.392554,0.152775,0.0216047,0.00829402,-0.0130695,-0.00730339,0.00399363,0.00885147
0.0101267,0.393005,0.152549,0.0258169,0.0232864,-0.0118651,-0.00505152,0.00209126,0.00948477
0.0106638,0.393259,0.152229,0.00671424,0.0284534,-0.0155383,-0.00234226,-0.00508955,0.0143566
0.0112497,0.393129,0.151996,-0.0119948,0.0284171,-0.00957649,0.00901785,-0.00807828,0.0100212
0.011674,0.392903,0.152037,-0.012334,0.0201996,0.0116369,0.0180701,-0.00695947,0.00229073
0.0117651,0.392703,0.152412,-0.00696702,0.00784803,0.0189518,0.0214793,-0.00595474,0.000825405
0.0117131,0.392735,0.152803,0.0100631,0.00653367,0.0179629,0.0151188,-0.00604644,-0.00381005
0.0117837,0.393009,0.153074,0.00826233,0.00518922,0.00807569,0.0116369,-0.00756341,0.00218791
0.0117954,0.393115,0.153159,-0.000438497,-0.00660077,0.000985013,0.00656068,-0.0107003,0.00648057
0.0115909,0.393079,0.153139,-0.00455785,-0.02071,0.00126088,0.00119518,-0.00756004,0.00449783
0.0111821,0.393024,0.153155,0.000314257,-0.0262282,0.00455792,-0.00517181,-0.00379616,-0.00121409
0.0107229,0.393084,0.153174,0.00346728,-0.0243675,0.00220053,-0.0124379,0.00143158,-0.00297177
0.0103367,0.393254,0.153159,0.00786327,-0.019819,0.00126273,-0.0148881,0.00766182,-0.00497109
0.0100013,0.393498,0.15315,0.00972751,-0.0173282,-0.00132661,-0.0148062,0.00732243,-0.0061295
0.00966582,0.393764,0.153133,0.010846,-0.0165971,9.65889e-05,-0.0145412,0.0104824,-0.00175762
0.00942768,0.393908,0.153003,0.00305697,-0.0100698,-0.0115085,-0.0150685,0.00735086,0.00211036
0.00936928,0.393956,0.152692,0.00658445,-0.000867695,-0.0183101,-0.0117337,0.00408396,0.00221455
0.00939165,0.394047,0.152344,0.00597145,-0.00356502,-0.0170736,-0.0031786,0.00111625,0.00388843
0.00930982,0.394078,0.152106,0.00085599,-0.0069895,-0.0111611,0.00257333,-0.00334147,0.00702059
0.00921829,0.393965,0.151899,-0.00881277,-0.00355518,-0.00839918,0.00477841,-0.00590259,0.00914001
0.00916664,0.393724,0.151707,-0.012951,-0.00518191,-0.00881323,0.00703778,-0.00540838,0.00590676
0.00916701,0.39343,0.151508,-0.0141335,-0.00356424,-0.0104674,0.00720425,-0.00622869,0.00487483
0.00923074,0.393133,0.151246,-0.0157218,-0.00365558,-0.0140286,0.00628985,-0.00436738,-0.00154245
0.009243,0.392904,0.151,-0.00883265,-0.00570567,-0.00997995,0.00598779,-0.00167897,-0.00407964
0.00924614,0.392841,0.150824,-0.00019811,-0.00401976,-0.00352357,0.00606097,-7.42972e-05,-0.0056271
0.0091952,0.392912,0.150743,0.00147682,-0.00854431,0.000946502,0.00645922,0.00186798,-0.00338024
0.00903742,0.392944,0.150743,0.000935428,-0.0109207,0.00017914,0.00370592,0.00331661,-0.002262
0.00888805,0.393006,0.150741,0.00480306,-0.00680574,-0.000741518,-0.00041309,0.00406089,-0.00316966
0.00884774,0.393153,0.150712,0.0103666,-0.0040414,0.000149267,0.00203553,0.00622562,-0.00328642
0.0088357,0.393333,0.150739,0.00465325,-0.0016319,0.00484031,0.00187942,0.00402734,0.00189346
0.00879354,0.393358,0.150821,-0.000865106,-0.00195679,0.0050385,-0.00131642,0.00343975,0.00572956
0.0087641,0.393374,0.150925,0.00104337,-0.000482266,0.00538184,-0.00238782,0.00166968,0.00259548
0.00875863,0.39332,0.151016,-0.00468554,0.00157661,0.00308932,-0.00172682,0.00349632,0.00543922
0.00876525,0.393223,0.151074,-0.00195247,0.0026345,0.00103258,-0.00219102,-0.00056076,0.00309604
0.00882886,0.393159,0.151094,-0.00252992,0.00274089,0.00214614,-0.00244836,-0.000482738,-0.000664055
0.00877892,0.393117,0.151149,0.000175169,-0.00266631,0.00237146,0.000466286,-0.000903159,-0.00278372
0.00867363,0.393146,0.15124,0.0034633,-0.0064005,0.00526658,0.00126554,-0.000112802,-0.00232124
0.00848903,0.393332,0.151368,0.0153825,-0.004565,0.00450853,-0.00103527,0.000409395,-0.00565624
0.00842149,0.393673,0.1514,0.0172511,0.00132817,0.00444979,-0.000529282,0.000282198,-0.00139201
0.00840239,0.393909,0.151417,0.00701137,-0.00556846,0.00364332,0.00141173,0.000332475,0.00596374
0.00840239,0.393909,0.151417,0.00701137,-0.00556846,0.00364332,0.00141173,0.000332475,0.00596374
0.00824714,0.394003,0.151525,0.00245773,-0.00769293,0.00477948,0.000166833,-0.00121373,0.00383854
0.00817398,0.394065,0.151607,0.0050557,0.0023607,0.00241757,-0.00283244,0.0019716,0.00151122
0.00825479,0.394134,0.151672,0.00173429,0.00604429,0.00129053,-0.00093846,0.00232568,0.00299454
0.00837027,0.394145,0.15171,-0.00139803,0.00604844,0.0042069,-0.00193005,0.000916064,0.00482082
0.00842506,0.394133,0.151802,-0.000946778,0.00405493,0.00759775,0.00120841,0.00179046,0.00265801
0.00839279,0.394151,0.152013,-0.00193882,0.00212708,0.0120469,0.00305405,0.0018222,0.00304812
0.00833673,0.394035,0.15219,-0.00757877,-0.00294975,0.0060546,-0.00142641,-0.000527501,0.00454253
0.00825444,0.393816,0.152337,-0.0157237,0.00284255,0.00626105,-0.00119854,-0.00234711,0.00130075
0.00827538,0.39354,0.152422,-0.0118381,0.00443657,0.00662336,-0.00301929,-0.00119835,-0.000622869
0.00831432,0.393364,0.152499,-0.00735118,0.00427441,0.00520687,-0.00246072,-0.00241444,-0.00270689
0.00840633,0.393262,0.152586,-0.00305938,0.00911296,0.00282985,-0.00317164,-0.00261471,-0.00295877
0.0086243,0.393316,0.152572,0.00336272,0.0112359,-0.00132666,-0.003327,-0.00213754,-0.00382042
0.00885495,0.393451,0.15255,0.00705076,0.010125,0.000404292,0.00166368,-0.00341663,0.000505209
0.00895683,0.393561,0.152634,-0.00277305,0.00662642,0.00671714,0.00150891,-0.00220194,0.00653559
0.00886615,0.393464,0.152819,-0.010175,-0.00423586,0.00914418,0.00276726,-0.00160483,0.00715333
0.00870574,0.393316,0.152956,-0.00836278,-0.00417218,0.00305871,-0.00173901,0.00326392,0.0035795
0.00867534,0.393148,0.152943,-0.0139164,-0.00046197,-0.00217606,-0.00630439,0.003948,0.00416291
0.00874636,0.392858,0.152887,-0.0190746,0.00315577,-0.00329559,-0.00518078,0.00384802,0.00405973
0.00877535,0.392484,0.152797,-0.0178729,-0.00380417,-0.0070156,-0.00470528,0.00565347,0.000983238
0.00876014,0.392171,0.152707,-0.0107609,-0.00223612,-0.00187868,-0.00255603,0.00704283,-0.00507683
0.00876549,0.39202,0.152642,-0.00747297,0.0028415,-0.00191854,-0.00263778,0.00652176,-0.00212002
0.00885226,0.391768,0.152588,-0.0177644,0.00585767,-0.00449763,-0.00146759,0.000398964,0.00108832
0.00895217,0.391433,0.152573,-0.0121677,0.0036829,0.00235004,0.00199422,0.000211507,-0.00192797
0.00887367,0.391258,0.152655,-0.00134963,-0.00604752,0.0045196,0.00382095,-0.00234586,-0.00443935
0.0087487,0.391281,0.152722,0.00313105,-0.0044714,0.000143714,-0.000656351,-0.00581929,-0.00163931
0.00868484,0.391304,0.152686,-0.000722355,-0.00333414,-0.00163182,-0.00320649,-0.00556913,0.00323528
0.00862967,0.391251,0.152651,-0.00338239,-0.00330131,-0.000888586,0.000262305,-0.00616664,0.00346917
0.00855077,0.39114,0.15265,-0.00570656,-0.00477484,0.00225582,0.000426418,-0.0039199,0.00218487
0.00852178,0.39104,0.152642,-0.00818947,-0.000334191,-0.000564216,0.000315561,-0.00178421,0.00239092
0.00849695,0.390928,0.152612,-0.00666277,0.00102516,-0.00180237,0.000353426,0.00015676,0.000190794
0.00847373,0.390858,0.152578,-0.0033433,-0.0045958,-0.00171555,-5.25862e-05,0.00213665,0.00101113
0.00843624,0.390822,0.152523,-0.00557332,-0.00243903,-0.00240115,0.000378691,0.00181335,0.000597954
0.00842432,0.390655,0.152475,-0.0122371,0.00013788,-0.000825256,-0.00185387,0.00320038,0.00266039
0.00843286,0.390414,0.15244,-0.0104151,-0.00274592,-0.00197025,-0.00254919,0.00404546,-0.000772595
0.00848991,0.390242,0.152407,-0.00714725,0.0046458,-0.000154467,-0.00147335,0.00481668,-0.000295401
0.00857336,0.390091,0.152371,-0.0118472,0.0014979,-0.000868015,0.000310563,0.00272396,0.00420159
0.00858591,0.389807,0.152382,-0.0182881,-0.00233728,0.000715597,0.00177813,0.000950754,0.00583529
0.00855704,0.389418,0.152427,-0.0186381,-0.000526205,0.00548595,0.00140684,0.000286013,0.00340444
0.0084721,0.389117,0.152478,-0.00875979,-0.00274876,0.000764813,-0.000422895,0.000160486,-0.0025233
0.00846848,0.388953,0.152475,-0.00796016,0.00276465,-0.00338536,-0.000420071,-0.0013952,-0.00172859
0.00852968,0.388771,0.152386,-0.0107975,-0.000620198,-0.00283663,-0.00392578,-0.00258601,-0.000118911
0.00860195,0.388605,0.152254,-0.00879792,0.00144258,-0.00579413,-0.00211635,-0.00103101,-0.00417632
0.00882019,0.388418,0.151935,-0.00942364,0.00618846,-0.0206305,-0.00756797,-0.00152451,0.000195742
0.00910777,0.388249,0.151654,-0.00860906,0.0100903,-0.00435139,0.00418923,0.00304934,-7.83205e-05
0.00924627,0.388221,0.151626,0.000483758,0.003629,-0.00182932,0.000673487,0.000490218,-0.00498211
0.00933833,0.388271,0.151587,-2.21001e-05,0.00744195,-0.00222847,-0.00215812,-0.00036335,-0.000332832
0.00941942,0.388216,0.15151,-0.00578863,0.00424059,-0.00569799,-0.00114999,0.000378847,0.00289178
0.00956247,0.388012,0.151377,-0.00941372,0.00518437,-0.00689758,-0.00261064,0.000541359,0.000236213
0.00979645,0.387888,0.151157,-0.00320068,0.0114576,-0.011856,-0.000859298,0.00244024,-0.00216019
0.0101085,0.387917,0.150955,0.00475451,0.0155708,-0.00577623,0.00236148,0.00353542,-0.000678778
0.0103444,0.387985,0.150946,0.00111349,0.0102343,0.00412578,0.00575974,0.00033325,0.00475585
0.0105693,0.387853,0.151035,-0.0130928,0.012888,0.00184355,0.00173629,-0.00406149,0.0111818
0.0107557,0.387528,0.151046,-0.015766,0.00867351,0.000945536,0.0021118,-0.0049879,0.00695401
0.0108954,0.387239,0.151065,-0.0121009,0.00403953,0.00308225,0.00292727,-0.00376061,1.23978e-05
0.0108954,0.387239,0.151065,-0.0121009,0.00403953,0.00308225,0.00292727,-0.00376061,1.23978e-05
0.0109493,0.386975,0.151113,-0.0086669,0.00227478,0.00289514,0.000541739,-0.00353208,-0.00266558
0.0109866,0.386811,0.151171,-0.0099347,0.00299213,0.00435928,-0.00217904,0.000619203,-0.00559485
0.011096,0.386692,0.151203,-0.00734685,0.00736767,0.00171865,-0.000663416,0.00478196,-0.0069856
0.0112443,0.38668,0.151263,0.00397233,0.00854562,0.00406234,0.00107602,0.00789854,-0.00792855
0.0113212,0.386785,0.151398,0.00253048,0.0071038,0.00901907,0.00300414,0.00894204,-0.00137722
0.0114189,0.386701,0.151626,-0.0166042,0.0143286,0.00707059,-0.00180169,0.00463736,0.0112573
0.0114945,0.386291,0.151666,-0.0134791,0.00852007,-0.000923052,-0.00739712,0.00215197,0.00785571
0.0116773,0.386003,0.151647,-0.0126603,0.00577372,-0.00133696,-0.00192197,0.00457051,0.00500202
0.0118338,0.385647,0.15161,-0.0189523,0.0057833,-0.0044478,-0.0017176,-0.00151187,0.00861329
0.0119129,0.385188,0.151593,-0.0264267,0.00516456,-0.000676233,-0.00460055,-0.00451529,0.00570244
0.0119869,0.384667,0.151613,-0.0263794,0.00572637,0.00058626,-0.00360334,-0.00525814,-0.0003739
0.0121067,0.384207,0.151617,-0.0196301,0.00391055,-0.00120332,-0.00122932,-0.00388384,-0.00333083
0.0121631,0.383979,0.151613,-0.00586089,0.00460684,0.00231994,0.00219641,-0.00507152,-0.00707608
0.0122106,0.38397,0.151645,0.00106494,0.00493042,-0.00118026,0.00084003,-0.00338605,-0.00595939
0.0123008,0.383942,0.151623,-0.00280065,0.00426969,-0.00237867,-0.000311844,-0.0037021,-0.00112814
0.0124409,0.383892,0.151565,-0.00209865,0.00772274,-0.00327163,0.00119074,-0.000986576,-0.000576973
0.0125966,0.383824,0.151569,-0.00555389,0.00649376,0.00402591,0.00281607,0.00151348,0.00156778
0.0127213,0.383702,0.151617,-0.00624149,0.0074791,0.00245773,0.000838295,0.00227001,0.00344312
0.0128704,0.383546,0.151682,-0.0154135,0.00943977,0.00260248,-0.000353567,0.00340736,0.00702441
0.013035,0.383187,0.151732,-0.0226164,0.00717756,-0.00227998,-0.00156075,0.00385249,0.00918615
0.0132002,0.38268,0.151737,-0.0263395,0.00637115,-0.000242126,-0.000907749,0.00481662,0.00912941
0.0132973,0.382089,0.151718,-0.0335957,0.00302933,-0.000574751,-0.00074131,0.00533649,0.00637323
0.0133696,0.381441,0.151714,-0.0339106,0.00223397,-0.00101861,-0.00253589,0.00178969,0.00360793
0.0134405,0.38074,0.151688,-0.0353755,0.00206899,-0.00200408,-0.00498559,0.000559151,-0.000862479
0.013565,0.380104,0.151601,-0.0278424,0.00716809,-0.00798864,-0.0066455,-0.000686824,-0.00416821
0.0137834,0.379668,0.151421,-0.0172779,0.00890792,-0.0098766,-0.00456171,-0.00103125,-0.0065726
0.0139971,0.379323,0.151257,-0.0168489,0.00753534,-0.00771113,-0.00189334,-0.00209865,-0.00324345
0.0140829,0.378949,0.151217,-0.0177451,0.000765321,0.000220035,-0.000494845,-0.00369734,-0.00371653
0.0140592,0.378728,0.151227,-0.0025755,0.0023031,-0.00263626,-0.00132851,-0.00153783,-0.00995153
0.0140919,0.378677,0.151188,-0.00419464,0.00184632,-0.00507216,-0.000229917,0.000795424,-0.00277686
0.0141189,0.3785,0.15111,-0.0126291,-0.000888785,-0.0056507,-0.000118658,-0.00225309,-0.00100273
0.0141294,0.378388,0.150994,0.00203525,-0.000783253,-0.00397056,-0.00438619,-0.00125912,-0.0082702
0.0141659,0.378564,0.150868,0.0172822,-0.00169574,-0.00456764,-0.000711329,0.00192642,-0.0103807
0.0141402,0.37896,0.150775,0.0217909,-0.00704763,-0.00193858,0.00206123,-0.00197828,-0.00626951
0.0139274,0.379379,0.150805,0.0213601,-0.0119088,0.00598141,0.00473302,-0.00264177,-0.00608617
0.0136653,0.379912,0.150962,0.0312258,-0.00739954,0.00693877,0.00160696,-0.0016284,-0.0149624
0.0134986,0.380682,0.15112,0.0479445,-0.00320073,0.00691633,-0.000752062,0.00319079,-0.0159326
0.0134786,0.381753,0.151188,0.061871,0.00572887,0.000707236,-0.0033832,0.00862566,-0.0132334
0.013692,0.382949,0.151146,0.0616765,0.0120926,-0.00215673,-0.00365136,0.01178,-0.00402343
0.0139894,0.384062,0.151042,0.0550899,0.0119845,-0.00420486,0.00329598,0.0143837,0.00315523
0.0141438,0.384967,0.150979,0.0376953,0.00242632,-0.000176562,0.00845251,0.0148261,0.0147765
0.0141348,0.385448,0.150989,0.0197677,1.98851e-05,0.000130234,0.00730369,0.00929058,0.0180596
0.0139952,0.385663,0.151072,0.0079561,-0.00577439,0.0063249,0.00528271,0.00596464,0.0186522
0.0138513,0.385658,0.151206,-0.00031498,-0.00329781,0.0073769,0.0030356,0.00290871,0.0144748
0.0137884,0.385577,0.151355,-0.00227142,0.000574745,0.00630515,-0.00310155,0.000727832,0.00977594
0.0138618,0.385444,0.151429,-0.00957728,0.00281583,0.00302024,-0.00544387,-0.00108927,0.00356895
0.0139823,0.385273,0.151483,-0.00928064,0.0063456,0.00241044,-0.00496134,-0.00310925,-0.000991762
0.014015,0.385146,0.15156,-0.00473835,-0.00130138,0.00646274,-0.0033748,-0.00557673,-0.00485075
0.0140333,0.385167,0.151637,0.00793997,0.00650081,0.00323264,-0.002583,-0.00902092,-0.0108709
0.0140465,0.385528,0.15172,0.0284491,0.00131679,0.00391894,-0.00285272,-0.0094043,-0.0132648
0.01402,0.386249,0.151783,0.0404022,0.00510672,0.00476684,-0.00035245,-0.00743881,-0.0129104
0.014086,0.387045,0.151803,0.0363938,0.00387568,-0.00237933,-0.00393409,-0.00752547,-0.00257599
0.0142635,0.38771,0.151696,0.0313587,0.00897123,-0.00735108,-0.00615484,-0.0059334,0.00231278
0.0142635,0.38771,0.151696,0.0313587,0.00897123,-0.00735108,-0.00615484,-0.0059334,0.00231278
0.0144579,0.388298,0.151576,0.0281864,0.00765314,-0.000785844,0.000657006,-3.29316e-05,0.00713831
0.0145702,0.388772,0.151549,0.0225002,0.00734587,0.00117626,0.0012881,0.00423512,0.0102991
0.0147037,0.389163,0.151554,0.0157569,0.00818361,-0.00170528,0.000632711,0.00487146,0.0110189
0.0148661,0.389377,0.151522,0.00514263,0.00830079,-0.000740676,0.000620953,0.00484112,0.0123085
0.0150091,0.389396,0.151481,-0.00356803,0.00589223,-0.00125867,0.00343379,0.00438526,0.010148
0.0151026,0.389253,0.151457,-0.00669237,0.00443193,-0.00168958,0.00156118,0.00411573,0.00472301
0.01516,0.389096,0.151457,-0.00786911,0.00181021,0.0022902,0.00147665,0.00247508,0.000631392
0.0151448,0.389005,0.151516,-0.00463081,0.000813756,0.00560457,-0.000203513,0.00112504,-0.00475103
0.0151933,0.389005,0.151588,0.00159255,0.0056292,0.00377976,-0.000584073,-0.000798106,-0.00485831
0.0152815,0.389125,0.151624,0.0120671,0.00435184,0.00400662,-8.51527e-05,-0.00132814,-0.00678182
0.0153372,0.389425,0.151717,0.0187686,0.00618232,0.00572196,0.000231259,-0.00175181,-0.00550818
0.0153533,0.389812,0.151835,0.0169915,0.00510162,0.00552441,-0.00263473,-0.0036521,0.000615954
0.0153974,0.389988,0.151909,0.00364109,0.00494153,0.000507963,-0.00549742,-0.0049389,0.00797951
0.0154795,0.390023,0.151906,0.00213514,0.00733085,-0.00185528,-0.00592413,-0.00217599,0.00273156
0.0156051,0.390097,0.151815,0.00400612,0.00275383,-0.00650814,-0.00382729,0.000319332,0.00160271
0.0157007,0.39023,0.151728,0.00429099,0.00478565,-0.00211791,0.000311791,0.000533879,0.000833631
0.0157501,0.390412,0.151701,0.00869199,0.00315247,-0.00130815,-0.00041946,0.0012359,-0.000136495
0.0158393,0.390553,0.151709,0.00483449,0.007043,0.00176034,-7.38278e-05,0.00142711,0.00179225
0.0159162,0.390602,0.151707,0.00207674,0.00293271,0.00110956,-0.000373475,0.00128984,0.00113142
0.0159795,0.390637,0.151689,0.0046077,-0.000134862,-0.00114069,0.00202482,0.000574052,-0.000316978
0.0159459,0.390734,0.151684,0.00693716,-0.00246673,0.00123938,-0.000125527,0.000297815,-0.00117755
0.0159135,0.39094,0.151665,0.00938459,-0.000400095,-0.00236569,-0.00129972,0.000274777,-1.95503e-05
0.0158957,0.391104,0.151641,0.00836906,0.000479352,-0.000587286,0.000564054,0.000563651,0.00260377
0.015926,0.391163,0.15162,0.00113836,6.62431e-05,-0.00375022,-0.00253068,0.00077045,0.0045951
0.0159545,0.391137,0.151522,-0.0016099,-0.00167399,-0.0050028,-0.00116865,0.00132653,0.00184268
0.0159083,0.391131,0.151473,-1.30846e-05,-0.00375763,-0.00112147,0.00157486,0.00290817,-0.00190818
0.0159051,0.391228,0.151514,0.00930992,0.00444936,-9.74261e-05,-0.00158014,0.00449288,-0.00615638
0.0159967,0.391491,0.151535,0.0157457,0.00470343,0.000266885,-0.00170899,0.00317988,-0.00511378
0.0160945,0.391817,0.151515,0.015072,0.00249636,-0.00048896,0.000872925,0.00421283,-0.000951588
0.0161313,0.392058,0.151546,0.0123255,-3.51877e-05,0.00250139,0.00145078,0.000865281,0.0041132
0.0160951,0.392208,0.151588,0.00896236,-0.00202372,0.00104852,-0.00100205,0.000195622,0.0047276
0.0160704,0.392389,0.151643,0.00897174,0.00479845,0.0031464,-0.000367798,-0.00136155,0.00317872
0.016122,0.392463,0.151701,-0.00175247,0.00163108,-0.000398208,-0.00233764,-0.00336891,0.00693411
0.0161849,0.392331,0.151663,-0.010475,0.00200091,-0.00229571,-0.00283904,-0.00420797,0.00399286
0.0162297,0.392219,0.151572,-0.00210353,-0.00011803,-0.00722,-0.000805952,-0.000313163,-0.00159568
0.0162753,0.392318,0.151464,0.00876192,-4.03016e-05,-0.0039431,0.00127351,0.0011816,-0.00564706
0.016294,0.392557,0.151395,0.0116669,0.000492845,-0.00209916,0.00142559,-4.66108e-05,-0.00277871
0.0162821,0.392779,0.151383,0.00871069,6.89947e-05,0.000368618,0.000980183,-0.00182521,-0.000544131
0.0162856,0.39295,0.151412,0.00704758,0.00344533,0.0007289,-0.000990339,-0.00195685,0.00236571
0.0163352,0.393005,0.151398,0.00260775,0.00186908,-0.00285417,-0.00243966,-6.00219e-05,0.00129116
0.0164301,0.393078,0.151346,0.00358034,0.00401292,-0.00331969,-0.001123,0.000938386,0.00132275
0.0165324,0.393211,0.151285,0.00701819,0.0037647,-0.00269179,0.00140789,0.0030143,0.000812471
0.0165954,0.393331,0.151289,0.00403694,0.00423594,5.32405e-05,0.000419661,0.000821292,0.00282538
0.0166444,0.393327,0.15129,-0.00223152,0.00217804,5.43804e-05,-0.00080055,0.00104636,0.00400114
0.0167486,0.393243,0.151289,-0.00269093,0.00679731,-0.00143109,0.000704877,0.00133494,0.00172764
0.016809,0.393284,0.151308,0.00420516,0.00371113,0.000777946,0.00064931,0.00189134,-0.00292754
0.0168575,0.393336,0.151315,0.00129108,0.00420014,-0.000367579,7.08476e-05,0.000611752,0.000530779
0.0169844,0.393332,0.151288,0.0011745,0.0070896,-0.0020906,-0.00279303,-0.00110114,0.000454128
0.0171095,0.393314,0.151295,-0.00115728,0.00186414,0.00447496,-0.00016202,0.000805378,-0.000670314
0.0170989,0.393409,0.151401,0.00549268,-0.000432638,0.00730407,9.23872e-07,-3.82364e-05,-0.000431657
0.0170124,0.393457,0.151522,-0.000217974,-0.000535117,0.00232519,-0.0040387,6.78003e-05,0.00525784
0.0170737,0.393373,0.15149,-0.00572532,0.005348,-0.00596624,-0.00566752,-0.00170347,0.0044651
0.0172994,0.393296,0.15133,-0.00108135,0.0103149,-0.00694639,-0.00264159,0.000269979,-0.00155145
0.0175575,0.393361,0.151248,0.00450286,0.00841673,-0.00319266,0.00217113,0.000787109,-0.002038
0.0175575,0.393361,0.151248,0.00450286,0.00841673,-0.00319266,0.00217113,0.000787109,-0.002038
0.0176598,0.393388,0.151238,-0.00193206,0.00353107,0.00109662,0.00163429,-0.000515133,0.00136787
0.0176058,0.393327,0.151304,-0.00263701,-0.000897218,0.0062459,0.00247724,-0.000250965,-0.000850976
0.0175132,0.393352,0.151431,0.00345783,0.00125975,0.00503491,-0.000610925,-1.42455e-05,-0.00401765
0.0175493,0.393506,0.151502,0.013667,0.00465562,0.000965011,-0.00108576,0.000478804,-0.0043366
0.0176836,0.393866,0.15146,0.0211663,0.00456604,-0.00323187,-0.00247374,-0.00210297,0.000558496
0.017789,0.394109,0.151388,0.00469118,-0.000270807,-0.00238423,-0.00054005,-0.00358763,0.00911528
0.0177376,0.394004,0.151314,-0.0118295,-0.00894447,-0.0033867,-6.60196e-05,-0.00369969,0.0106059
0.0176071,0.393762,0.151253,-0.00922347,-0.00638928,-0.00504325,-0.00101531,-0.000535578,0.00331557
0.0175658,0.39365,0.151167,0.000504734,0.00510873,-0.00367976,-0.00334301,0.00253424,-0.00300342
0.0176608,0.393739,0.151127,0.00435124,0.00621779,-0.000669228,-0.000515753,0.00420386,-0.00514501
0.0177376,0.393919,0.151149,0.00703984,0.000887614,0.000661984,0.000696376,0.00380495,-0.00384188
0.0177104,0.394044,0.151211,0.00308648,-0.00125018,0.00389246,-0.000345774,0.00393572,-0.00152433
0.0176613,0.394112,0.151228,0.00269952,-0.00335327,0.00112943,-0.000147454,0.00439531,-5.42998e-05
0.0176439,0.394154,0.151228,0.00668686,0.00212478,0.000309493,-0.000375191,0.0030919,0.0017302
0.017668,0.394304,0.151239,0.00874115,0.00295417,-0.00153447,-0.00051856,0.000560135,0.00365579
0.0177402,0.394334,0.151233,-0.00505167,0.00350493,0.00197482,-0.002416,-0.00275427,0.00910592
0.0177992,0.394068,0.15123,-0.0169962,0.00453109,-0.00262434,-0.00372356,-0.00533462,0.0080322
0.0178581,0.393718,0.151178,-0.0137834,0.00204639,-0.003718,-0.00109474,-0.00407121,0.000505805
0.0179086,0.393582,0.151112,0.000498894,9.13125e-05,-0.00241534,0.000948139,-0.000167638,-0.00722522
0.0178905,0.393751,0.151061,0.0115268,-0.00408724,0.000109709,0.00314802,-0.000942945,-0.00698435
0.0178109,0.394003,0.151111,0.00988937,-0.00389961,4.99431e-05,0.000354579,-0.00118282,-0.000915289
0.0177982,0.394181,0.151078,0.00596992,0.000908263,-0.000683281,-0.00189074,-0.000988156,0.000847697
0.0178504,0.394269,0.151018,0.0033387,0.000647787,-0.00107483,-0.0014043,0.000863284,0.000843525
0.0179124,0.394408,0.151014,0.00824665,0.000386835,0.000725327,-0.00098753,0.0013577,0.00184196
0.0179389,0.394537,0.151019,0.00405901,6.97412e-05,0.0003887,-0.00175885,0.0024378,0.00490493
0.0180105,0.394771,0.15095,0.0212078,0.00250053,-0.000765944,0.0015642,0.00413436,-0.00379241
0.0180799,0.395313,0.151073,0.0240341,-0.00493913,0.0113133,0.00257196,0.00377995,-0.00337642
0.0180834,0.395592,0.150903,0.0197775,0.0101293,-0.0257952,-0.0155872,-0.0062167,0.0069226
0.0177233,0.39594,0.15045,0.0188521,-0.0385278,-0.0129884,0.0123505,0.00367212,-0.00071311
0.0166119,0.396565,0.150431,0.0408506,-0.0791015,0.0135125,0.013456,0.00728533,-0.011389
0.0147201,0.397234,0.150602,0.036023,-0.0929523,0.00357554,-0.00316691,-0.00479305,-0.0160148
0.012721,0.398099,0.150853,0.0377985,-0.104465,0.0180275,-0.00363874,0.00647175,-0.00620776
0.0100933,0.398094,0.151389,-0.0469346,-0.13899,0.0297302,-0.00529076,-0.00575542,0.0210589
0.00646771,0.396992,0.152017,-0.0249935,-0.184819,0.0376269,0.0223862,-0.0099296,0.00176811
0.00241365,0.397858,0.153362,0.104374,-0.166151,0.0877583,0.0246761,0.0215386,-0.0618742
-0.00135984,0.40077,0.155629,0.189273,-0.109072,0.122648,0.00991908,0.00258473,-0.0421458
-0.00394578,0.404899,0.158546,0.215597,-0.0417049,0.135653,-0.00291929,0.0114949,-0.0152369
-0.00641746,0.409114,0.16038,0.209514,-0.153337,0.0230543,-0.0511801,-0.0214541,0.0178272
-0.00981035,0.412555,0.160556,0.116408,-0.158275,0.0192349,0.00292937,-0.00439835,0.0499969
-0.0116141,0.412363,0.161977,-0.118743,-0.0327171,0.0894632,0.0427601,-0.00187367,0.0938032
-0.0131621,0.409584,0.163573,-0.115465,-0.040951,0.0551121,-0.016232,0.00998318,0.0250562
-0.0138526,0.408396,0.164016,-0.0156884,-0.0094204,-0.000488441,-0.0218787,-0.000323355,-0.0266344
-0.0133854,0.40787,0.164157,-0.0591365,0.0542875,0.00794446,-0.00327699,0.00345153,0.0260855
-0.0124011,0.405913,0.164156,-0.137139,0.043472,-0.000489403,0.000284687,-0.0119115,0.0433666
-0.0112336,0.402409,0.164262,-0.22306,0.0797409,0.0205534,0.0265409,-0.0128441,0.0483581
-0.00979704,0.397498,0.165296,-0.255438,0.0832135,0.085808,0.0178984,0.0134858,0.0258396
-0.0098417,0.392816,0.167154,-0.185266,0.0204024,0.0742065,-0.0145134,-0.0195221,-0.0321882
-0.0100987,0.390151,0.168181,-0.0896541,-0.00652544,0.0165481,-0.0285021,0.000582576,-0.0502169
-0.0101494,0.389372,0.168019,0.00557231,-0.00279937,-0.0197352,-0.0195259,0.0269923,-0.0514626
-0.0102535,0.390193,0.1679,0.0586269,-0.0173982,0.00583294,0.00550011,0.0106158,-0.0395989
-0.010977,0.391532,0.168142,0.0780064,-0.052175,0.0233431,-0.00433446,0.00196627,-0.0273445
-0.0126152,0.393639,0.168861,0.144268,-0.0757654,0.0386871,-0.00168607,-0.00461656,-0.0451667
-0.0144909,0.396912,0.170067,0.180234,-0.0639394,0.0640587,0.00472742,0.0209411,-0.0278041
-0.016248,0.400208,0.171503,0.149172,-0.0601468,0.0621405,-0.00195859,0.00499654,0.00586528
-0.016248,0.400208,0.171503,0.149172,-0.0601468,0.0621405,-0.00195859,0.00499654,0.00586528
-0.0180408,0.402335,0.172534,0.0672002,-0.0853259,0.0277282,-0.00676187,-0.0163909,0.038255
-0.0196179,0.402455,0.172697,-0.0666104,-0.0595015,-0.0142703,-0.0212879,-0.00402766,0.0672945
-0.0203221,0.399293,0.171932,-0.239139,-0.0549709,-0.041592,-0.0088352,-0.0150725,0.0931736
-0.0212507,0.394146,0.17097,-0.252841,-0.0728616,-0.030262,0.00784007,-0.00773478,0.0359858
-0.0222836,0.39017,0.170569,-0.144449,-0.0339283,0.00179937,0.0141374,0.0113425,-0.0222542
-0.0224804,0.388005,0.170613,-0.0958662,0.0157953,0.0016972,0.000543909,0.00235066,-0.0109543
-0.0220014,0.385832,0.170525,-0.131589,0.0240632,-0.000570527,0.00304832,-0.00721514,0.0138317
-0.0213471,0.383155,0.170424,-0.125889,0.0439384,-0.00258456,0.00484414,-0.00899458,-0.00842094
-0.02004,0.381276,0.170084,-0.0632373,0.0741387,-0.0210791,-0.00706562,0.0101364,-0.0356342
-0.0183864,0.380571,0.169519,-0.0136413,0.0626608,-0.0255655,0.00223844,0.00334758,-0.0315278
-0.0170723,0.380592,0.168929,0.00438807,0.0472994,-0.0264784,0.00155248,-0.000707179,-0.0208328
-0.0161181,0.380587,0.168499,-0.00564249,0.0287601,-0.015376,0.00619034,-0.00161213,-0.00424516
-0.0156364,0.380649,0.168278,0.0176059,0.0310876,-0.00735908,0.00209593,0.00105482,-0.014515
-0.0147602,0.380901,0.168047,0.0148124,0.037404,-0.0203633,-0.00494441,-0.000633866,0.00398892
-0.0136945,0.381279,0.167413,0.0242823,0.0410376,-0.0317332,-0.00781239,0.000266194,0.00137526
-0.0124941,0.381719,0.166712,0.0170304,0.0511649,-0.0280306,0.00106601,-0.00089702,0.00560528
-0.011287,0.381927,0.166206,0.0123725,0.0478499,-0.0206,0.00133356,0.00283629,0.0132772
-0.0104469,0.382133,0.16591,0.00742857,0.0295878,-0.00607922,0.00223167,8.21948e-05,0.0111185
-0.00999736,0.382015,0.165867,-0.0172881,0.0195667,-0.00291395,0.00219648,-0.00283441,0.013074
-0.00966895,0.381631,0.16578,-0.0157605,0.0157297,-0.00309227,-0.00219622,0.000273168,0.000600994
-0.00918849,0.38147,0.165648,-0.00399337,0.0282769,-0.00872071,-0.00366388,0.000321746,-0.00690311
-0.0084277,0.381419,0.165425,-0.00629031,0.0349867,-0.01185,-0.00360686,-0.000427693,-0.00367349
-0.00786895,0.381315,0.165186,-0.0036674,0.0123144,-0.00668142,0.00327538,-0.00272098,-0.00604165
-0.00765858,0.381436,0.165039,0.0123262,0.00252461,-0.00499926,0.0032934,0.00073269,-0.0090757
-0.00751814,0.381588,0.164998,0.00492202,0.0130155,0.000198866,-0.000545256,-0.000423402,0.000863194
-0.00725464,0.381698,0.164999,0.00791418,0.0173877,0.00196688,-0.00155304,0.00103706,0.00292963
-0.00696701,0.38182,0.165039,0.00437963,0.0150482,0.00238692,0.000850014,-0.000238538,0.00468671
-0.0066706,0.381878,0.165098,-0.000303821,0.0187457,0.00445572,0.000269637,0.00181445,0.00625384
-0.00629455,0.381776,0.16506,-0.00783351,0.0157724,-0.00895905,-0.0079221,-0.00140837,0.00482929
-0.00582268,0.381785,0.164738,0.0105279,0.0235089,-0.0125677,-0.00515565,0.00276563,-0.00756156
-0.00539217,0.382102,0.164539,0.0134674,0.0100768,-0.00134561,0.00364525,0.00104553,-0.003878
-0.00535347,0.382302,0.164606,0.00832212,-0.00216538,0.00773231,0.0051043,-0.000310123,0.000335336
-0.0054941,0.382491,0.164793,0.0140533,0.00118005,0.00856736,0.000153214,-0.000256896,-0.00200939
-0.0055184,0.382858,0.164996,0.030925,0.0118521,0.00282064,-0.000710018,-0.00151813,-0.00774676
-0.00508811,0.383785,0.164917,0.0592523,0.015982,-0.0152571,-0.0110139,0.00138608,-0.00868636
-0.00466017,0.385107,0.164418,0.0703069,0.00415476,-0.0243092,-0.00126588,-0.00575024,-0.00435847
-0.00432846,0.386469,0.163946,0.0612238,0.0137661,-0.0213173,0.000652269,0.000867486,0.00897014
-0.00403088,0.387513,0.163434,0.0508368,-0.000450819,-0.0248349,0.00055816,-0.00156856,0.0054493
-0.00372105,0.388517,0.163069,0.0500809,0.0244213,-0.010441,-0.00227833,0.00238234,0.00197291
-0.00304202,0.389155,0.16293,0.0182383,0.0315153,-0.00761737,-0.00380775,0.00159901,0.015451
-0.00262948,0.389522,0.162457,0.0300238,-0.00634322,-0.0298301,-0.00269444,0.00218311,-0.000770152
-0.00236704,0.390455,0.161941,0.0557373,0.0132779,-0.0142998,0.00710222,0.0101715,-0.0114695
-0.00190635,0.391509,0.161721,0.0516836,0.0214444,-0.0155403,-0.00455503,0.00633982,0.000641763
-0.00144055,0.39255,0.161199,0.0528818,0.0111619,-0.0319136,-0.00529134,-0.00511873,-0.000991285
-0.000865409,0.393506,0.160588,0.0394612,0.0284194,-0.0182468,0.00264558,0.000707805,0.00682205
-0.000220253,0.393966,0.160255,0.0164279,0.0173032,-0.0191352,-0.00103258,-0.00874007,0.0139703
6.48174e-05,0.394182,0.159775,0.0130136,0.00709755,-0.0186228,-0.00175357,-0.00558001,0.00325179
0.000524428,0.394338,0.159601,-0.00201093,0.0321164,-0.00430023,-0.000880904,-0.0051007,0.0105619
0.00121927,0.393982,0.159294,-0.0259096,0.0275146,-0.0227756,-0.0123716,-0.00947312,0.0138872
0.00200798,0.393565,0.158662,-0.0224282,0.025967,-0.0297622,-0.00421958,-0.00303668,0.00206751
0.00275641,0.393291,0.158082,-0.0148586,0.0310787,-0.0255275,0.00392377,0.000372022,0.00188112
0.00363092,0.393321,0.157377,0.0113444,0.0266906,-0.0412187,-0.000851214,-0.0025914,-0.000116408
0.00459712,0.393983,0.156241,0.0489268,0.0431227,-0.0630928,-0.00134574,3.43621e-05,-0.00911736
0.00640392,0.394805,0.155204,-0.0708285,-0.00430779,-0.0168369,0.00419008,-0.000137329,0.0354794
0.00640392,0.394805,0.155204,-0.0708285,-0.00430779,-0.0168369,0.00419008,-0.000137329,0.0354794
0.0056286,0.392457,0.154473,-0.0853598,-0.0430131,-0.0314901,0.00140641,0.0169048,0.0176618
0.00528159,0.392291,0.154321,0.0642099,-0.00477506,0.00456193,0.00905093,0.0144324,-0.0810585
0.00505814,0.394131,0.154524,0.0856234,-0.0333594,0.00776261,-0.00857656,0.017093,-0.0273647
0.00341438,0.395006,0.154912,-0.000946247,-0.109086,0.0400297,0.0176921,-0.00507846,0.00764453
0.00066344,0.394197,0.156648,-0.0691621,-0.0832301,0.113377,0.0331399,-0.0194522,0.0197408
-0.0017288,0.392511,0.159012,-0.0856363,-0.0673474,0.0933038,-0.0136004,-0.0168737,0.0131835
-0.0031649,0.391329,0.160564,-0.0243861,-0.0160186,0.052991,-0.0205576,-0.00588092,-0.00368708
-0.00342044,0.391169,0.161341,-0.000854159,0.0105356,0.0210427,-0.0108302,0.00733781,0.00740522
-0.00335978,0.391085,0.161668,-0.0144632,-0.0017304,0.0150749,0.000954613,0.00217819,0.0239173
-0.00377812,0.390456,0.162044,-0.062009,-0.0243731,0.0170581,0.00550792,-0.000447899,0.0335701
-0.00461189,0.389027,0.162453,-0.0794777,-0.032675,0.0162652,0.00409942,0.000427932,0.019919
-0.00534697,0.387653,0.162823,-0.0545636,-0.0154743,0.0145105,-0.000161499,0.00437421,-0.00927281
-0.00547711,0.386931,0.163032,-0.0206064,0.01412,0.00572869,-0.00667709,0.0075357,-0.0209485
-0.00490173,0.38689,0.162991,-0.00148782,0.0301873,-0.0032924,-0.0049363,-8.5324e-05,-0.0151016
-0.00449675,0.386775,0.162908,-0.0148158,0.00751233,6.97379e-05,0.00701796,-0.00156492,-0.00466526
-0.00460193,0.386519,0.163083,-0.00736567,-0.00968359,0.0178413,0.0101828,0.00225639,-0.00981808
-0.00504374,0.386407,0.163487,0.0026195,-0.0160783,0.0155045,0.00282553,0.00320512,-0.00904524
-0.00540181,0.386561,0.163729,0.0196116,-0.00496019,0.00599139,-0.00863817,0.00133365,-0.00867778
-0.00531671,0.386917,0.163758,0.013951,0.0134516,-0.00378118,-0.00946538,-0.00343239,0.00457007
-0.00503315,0.387039,0.163657,-7.61284e-05,0.00551322,-0.00298932,-0.00342633,-0.00234306,0.0122464
-0.00489339,0.38693,0.163632,-0.00344067,0.00787505,0.000896649,0.000823729,-0.00465715,0.0083822
-0.0047167,0.386796,0.163746,-0.000923093,0.0150775,0.00809215,0.00342218,-0.000279665,0.00150591
-0.00465749,0.386788,0.163934,-0.00274659,0.000369415,0.00638713,0.00229925,-0.0053072,0.0030809
-0.00474214,0.38671,0.164001,-0.00611699,-0.000352161,0.000621276,0.00143173,-0.00363955,0.00245363
-0.00472765,0.386653,0.163998,-0.00262306,0.00382657,-0.00510274,-0.00521915,-0.00138861,-0.00297207
-0.00451894,0.3867,0.163734,0.00858903,0.0117234,-0.0124129,-0.00500054,0.00275972,-0.0100843
-0.00421709,0.386927,0.163537,0.00866619,0.00905979,-0.00465716,-0.000718087,0.00689137,-0.006827
-0.00409909,0.387171,0.163504,0.0101062,-0.00256631,0.00126364,0.00347523,0.00598872,-0.00369924
-0.00425007,0.387332,0.163641,0.00597855,-0.000984836,0.00994715,0.00253141,0.00747973,-0.000449121
-0.00439272,0.387437,0.163807,0.00694651,-0.00582904,0.000752847,-0.002662,0.00681472,0.00201273
-0.00443916,0.387605,0.163786,0.0155601,-0.000694111,-0.0064361,-0.0036874,0.000469357,-8.0049e-05
-0.00426662,0.387885,0.163624,0.00869919,0.00649438,-0.00595832,-0.00255059,0.00159889,0.00837475
-0.00406859,0.387935,0.16353,-0.000879192,0.00861888,-0.0029058,-0.000735097,-0.00439787,0.0115917
-0.00387185,0.387719,0.163538,-0.0148499,0.00924213,0.000803401,-0.0011763,-0.00638306,0.0102397
-0.00382396,0.387303,0.163565,-0.0240564,-0.0025768,0.00245216,0.000733093,-0.00646293,0.00620091
-0.00403321,0.38682,0.163677,-0.0209178,-0.0112117,0.00617397,0.00468124,-0.00253108,-0.000834882
-0.00425824,0.386629,0.16374,-0.00172584,-0.00348627,-0.00314235,-0.000694759,-0.000968188,-0.0106515
-0.0040994,0.386792,0.163603,0.0106023,0.00729676,-0.00821226,-0.00297836,-0.000115633,-0.00907958
-0.00387312,0.387,0.163496,0.0102172,0.0095991,-0.00233057,0.00233547,-0.00125027,-0.00450337
-0.00378023,0.387221,0.163482,0.00867209,0.000359739,0.0017061,0.00227964,-0.000343263,-0.000375271
-0.00386786,0.387275,0.163537,0.00324318,-0.00625236,0.00541933,0.00275743,0.0011861,0.00224411
-0.00398954,0.387345,0.16358,0.00459473,-0.00336647,0.00381959,-0.00137195,0.0042572,0.00128633
-0.00397791,0.387357,0.163613,-0.00228369,0.00241522,0.001343,-0.00168791,0.00477153,0.00717181
-0.00392152,0.387284,0.163658,-0.0028266,0.00492356,0.00408366,0.00057932,0.00452167,0.00607014
-0.00386099,0.387147,0.163741,-0.00771882,0.00380924,0.00297216,-0.00132284,0.00288355,0.00462699
-0.00369489,0.387028,0.163766,-0.00580653,0.00936586,-0.00186515,-0.00301762,0.00051555,0.00229192
-0.00352758,0.386853,0.163666,-0.00787345,0.00760714,-0.00517428,-0.00266878,-0.00199637,0.00188547
-0.00336555,0.386644,0.163654,-0.00962586,0.00263342,-0.00139713,0.00116397,-0.00176328,-0.000476301
-0.00333297,0.386522,0.163663,-0.00180911,0.00539397,-0.000753442,-0.000864945,-0.00219634,-0.0058167
-0.00327347,0.386508,0.163626,0.0033321,0.00280155,-0.00265229,-0.00105736,-0.00169101,-0.0062688
-0.00315791,0.386772,0.163639,0.0200085,0.00457449,0.00153121,0.000818923,0.0009799,-0.00951141
-0.00313255,0.387096,0.163758,0.0145674,-0.000446525,0.00761367,0.00261085,-0.00123745,-0.000661612
-0.00320665,0.387332,0.163838,0.0109922,-0.00183048,-6.36894e-05,-0.00182217,-0.000728726,0.00240749
-0.00326088,0.387442,0.163834,-0.000512657,-0.00369761,-0.0043974,-0.00256554,-0.00157344,0.0104989
-0.00326088,0.387442,0.163834,-0.000512657,-0.00369761,-0.0043974,-0.00256554,-0.00157344,0.0104989
-0.00323224,0.387251,0.163741,-0.0123284,0.00151805,-0.00576242,-0.00228665,0.000676155,0.0106168
-0.00309268,0.387058,0.163635,-0.00557985,0.00620589,-0.00153077,0.000788696,0.00393057,-0.000250399
-0.00307109,0.387004,0.163654,-0.000874363,0.00201816,0.00542062,0.00223361,0.00339255,-0.00221372
-0.00314216,0.386984,0.163773,-0.00249416,0.00107918,0.00636779,0.00155177,0.00363278,-0.00248075
-0.00322124,0.386899,0.163853,-0.00355746,-0.00444404,0.00331448,-0.00214382,0.00131157,-0.00136578
-0.00326691,0.386897,0.163873,0.00758295,0.00132043,-0.00162926,-0.00200997,0.00144634,-0.00617141
-0.0032179,0.387116,0.163882,0.015333,0.00266627,0.00193928,0.000248447,-0.000501871,-0.00533855
-0.00316701,0.387409,0.163926,0.00982726,0.00198143,0.00208426,0.00151324,-0.00482306,0.00326353
-0.00332122,0.387498,0.163953,-8.44691e-05,-0.00973943,-0.00169056,0.000862442,-0.00812846,0.00651026
-0.00352551,0.387488,0.163992,-0.000570843,-0.00798799,0.00118823,-0.000504792,-0.00449097,0.00431615
-0.00364628,0.387437,0.164014,-0.00127765,-0.00233577,0.000827674,-0.000423416,-0.00121176,0.00206149
-0.00370926,0.387471,0.164029,0.00147148,-0.0012937,-0.00131836,-0.00265398,0.00130722,-0.0017817
-0.00371691,0.387531,0.163987,-0.00171987,-0.00283229,-0.00172289,-0.00269276,0.00325489,4.19021e-05
-0.00376152,0.387475,0.16396,-0.00230057,-0.00248944,-0.00370476,-5.73767e-05,0.00485113,-0.000471175
-0.00374558,0.387619,0.163937,0.017627,0.00223187,-0.00152028,0.000354901,0.00895163,-0.0094977
-0.00362742,0.388032,0.163929,0.0205135,0.0107082,-0.000440688,-0.00175396,0.00528973,-0.0022527
-0.00349999,0.388175,0.163897,-0.00547819,0.000280731,-0.00240423,-0.000346228,-0.000879794,0.0102516
-0.00350586,0.387924,0.163915,-0.0136707,-0.00204655,0.00265513,0.00251293,-0.00158459,0.00936979
-0.003528,0.387714,0.163973,-0.00354502,-0.000583236,-8.41985e-05,-0.000884257,-0.000604391,0.00206399
-0.00343865,0.387648,0.163935,-0.00188248,0.00489521,-0.00312537,-0.00168406,-0.00338143,0.00129575
-0.00338589,0.387622,0.163946,-0.00216403,0.00505461,0.00285333,0.00226494,-0.00268832,0.00354874
-0.0033574,0.387687,0.164045,0.00160333,-0.00233181,0.00745271,0.00129244,-0.00502351,0.000457108
-0.00344171,0.387595,0.164122,-0.0106138,-0.0040014,0.00218003,-0.00149804,-0.00558221,0.00189567
-0.00357171,0.387441,0.16413,-0.00699919,-0.00743972,-0.0026078,-0.00101127,-0.00259641,-0.00260907
-0.00365303,0.387454,0.16402,0.00571812,-0.00427395,-0.00745588,-0.00238559,-0.000371695,-0.00800067
-0.0034939,0.387689,0.163899,0.0129675,0.012059,-0.00537482,-0.00289944,0.00221047,-0.00515902
-0.00325841,0.387918,0.163847,0.00707548,0.00861184,-0.00069171,0.000178166,0.00132447,0.00230789
-0.00322634,0.388042,0.163881,0.00235321,-0.00427123,0.00603293,0.00457337,0.00284302,0.00300878
-0.00335298,0.38804,0.164019,-0.0025542,-0.00471039,0.00264965,0.0012116,0.00432122,0.00401628
-0.00341154,0.388039,0.164037,0.00104467,0.00116332,0.00400206,-0.000916205,0.00299257,0.00468791
-0.00337242,0.388029,0.164083,-0.00518695,0.00394927,0.00181058,-0.000158943,0.000541985,0.00608039
-0.00330107,0.38788,0.164143,-0.00796702,0.00403561,0.00289093,0.000614434,-0.00125951,0.00281066
-0.00328107,0.387704,0.164191,-0.0113917,-0.00172442,0.00236373,-0.00187579,-0.000522345,0.00342667
-0.003258,0.387481,0.164179,-0.0102461,0.005181,-0.00363765,-0.00140858,-0.00191888,0.000398219
-0.00312232,0.387306,0.164102,-0.0061537,0.00847107,-0.0040619,-0.00177814,-0.00110379,-0.0023126
-0.00298562,0.387258,0.164092,-0.00326353,0.0067101,0.00303889,0.0006283,-0.000248432,-0.00589496
-0.0029946,0.38718,0.164174,-0.00556591,-0.00209352,0.0066432,0.00072825,-0.00169352,0.000512421
-0.0031298,0.38707,0.164261,-0.000330541,-0.00606912,-0.000781253,0.00103668,-0.000254184,-0.00248295
-0.00312457,0.387264,0.164255,0.0192399,0.00796365,0.000551764,-0.00182179,0.0041362,-0.00682837
-0.00297657,0.387595,0.164169,0.0139893,-0.00030586,-0.00899924,-0.00466,-0.00025633,0.00453657
-0.00286971,0.38774,0.16401,-0.00172635,0.0016094,-0.00361325,-0.000135683,-0.00117531,0.00979227
-0.00282572,0.387565,0.163956,-0.0142981,0.000416781,-0.00249196,-0.00158003,0.000264764,0.00889724
-0.0028141,0.387375,0.163876,-0.00297382,0.00127281,-0.00648164,-0.00229249,0.00164571,-0.00235313
-0.00271454,0.387399,0.163722,0.00367774,0.0046299,-0.00913655,-0.00180486,0.00256816,-0.0035063
-0.0026797,0.387424,0.163583,-0.000386246,-0.00515642,-0.00534368,0.00225221,0.00179777,-0.00133359
-0.00267959,0.38743,0.163445,-0.00327839,-0.00170819,-0.00451314,0.0018096,-0.000653714,-0.00246489
-0.00267306,0.387313,0.163403,-0.00864444,0.00277395,-0.00443634,-0.000775062,-0.00109771,0.00372857
