attitude_roll,attitude_pitch,attitude_yaw,rotationRate_x,rotationRate_y,rotationRate_z,acceleration_x,acceleration_y,acceleration_z
-0.109482,0.0631993,0.00346419,-0.0441089,-0.389366,0.425624,0.0233057,-0.0972737,-0.337516
-0.121772,0.0635409,0.0155058,0.140103,-0.257524,0.337567,-0.0261132,-0.0545286,-0.257913
-0.12421,0.0669313,0.0217776,0.279541,0.0463363,0.24088,-0.0417914,-0.0331858,-0.219155
-0.122478,0.0736363,0.0262461,0.435162,0.113798,0.0936376,-0.032303,-0.00186969,-0.207019
-0.121872,0.0840617,0.0267159,0.608342,-0.0838516,-0.171751,-0.00707842,0.0197843,-0.18063
-0.125878,0.0985719,0.0233456,0.790656,-0.339633,-0.313401,0.0385259,0.00650869,-0.129198
-0.133461,0.116648,0.0191709,0.943341,-0.424016,-0.32408,0.0640299,0.0155692,-0.0697966
-0.140021,0.136987,0.015689,1.01145,-0.234681,-0.296135,0.0675317,0.0474478,-0.00600177
-0.140931,0.157239,0.0129462,0.935585,0.11398,-0.265564,0.0490557,0.0756441,0.047955
-0.13487,0.174601,0.0097339,0.732855,0.422964,-0.294185,0.0330822,0.0865266,0.0757521
-0.124296,0.187619,0.00518904,0.511542,0.505195,-0.318434,0.0474441,0.115476,0.0576659
-0.114559,0.197263,-0.000466518,0.405163,0.342975,-0.354262,0.0646825,0.138919,0.0188415
-0.108441,0.206519,-0.00744275,0.456321,0.143741,-0.43644,0.0569328,0.162375,0.00776112
-0.104925,0.217681,-0.0162912,0.563297,0.0284954,-0.551656,0.0465055,0.174279,0.0478744
-0.102502,0.231249,-0.0275533,0.665525,-0.0381559,-0.672023,0.064229,0.176626,0.117244
-0.10119,0.246771,-0.0404122,0.737653,-0.143096,-0.718759,0.0980029,0.163265,0.193536
-0.102053,0.263052,-0.0533973,0.742544,-0.275711,-0.681296,0.139295,0.146107,0.268438
-0.105577,0.278321,-0.0646915,0.643399,-0.358459,-0.547499,0.166832,0.114295,0.328235
-0.110411,0.29007,-0.072707,0.424373,-0.34161,-0.338729,0.187356,0.0900356,0.374005
-0.11507,0.296284,-0.0768655,0.153708,-0.226897,-0.136799,0.179988,0.0637123,0.387084
-0.117089,0.297189,-0.0778026,-0.0494192,0.0226222,0.0306761,0.146231,0.0448627,0.351533
-0.114584,0.295395,-0.0758222,-0.0879618,0.263251,0.180936,0.118491,0.0345874,0.275105
-0.109429,0.292797,-0.0703574,-0.134211,0.410738,0.377637,0.118448,0.0288659,0.21978
-0.102398,0.287254,-0.0609466,-0.35136,0.552362,0.583547,0.095162,0.00524333,0.187477
-0.0939079,0.275344,-0.047596,-0.73028,0.675652,0.822916,0.0884525,-0.0199614,0.135139
-0.0841932,0.255335,-0.0297023,-1.09725,0.748961,1.07668,0.0807874,-0.0405058,0.024744
-0.0745653,0.229152,-0.00782539,-1.31886,0.740525,1.22686,0.0542536,-0.0324153,-0.10804
-0.0663065,0.200425,0.0157421,-1.37209,0.528431,1.27904,0.0129906,-0.0286215,-0.250595
-0.0645567,0.17129,0.0401922,-1.38328,0.10839,1.3036,0.0205685,-0.0576038,-0.371591
-0.0685959,0.143031,0.0645155,-1.25323,-0.0781186,1.29792,0.0809342,-0.04726,-0.443234
-0.0724332,0.118732,0.0896231,-0.993489,0.0670392,1.37021,0.140555,-0.0445714,-0.471955
-0.0713809,0.0997296,0.11626,-0.715002,0.313744,1.40741,0.173612,-0.0535881,-0.481151
-0.0668536,0.0866839,0.143454,-0.398333,0.350823,1.3883,0.224741,-0.0399353,-0.482329
-0.0633512,0.0801345,0.170575,-0.0911612,0.23083,1.3674,0.285945,-0.030135,-0.430166
-0.0619402,0.0797116,0.198086,0.215902,0.118369,1.39171,0.317655,-0.0427177,-0.339743
-0.0635743,0.0854564,0.226749,0.539082,-0.0536361,1.43282,0.33837,-0.0444084,-0.227525
-0.0691874,0.0976001,0.256674,0.872143,-0.232494,1.47235,0.381227,-0.0141881,-0.104323
-0.0780315,0.115758,0.288342,1.16328,-0.284969,1.55743,0.425316,0.0252895,0.0329181
-0.087088,0.138096,0.323329,1.32588,-0.154092,1.74792,0.459502,0.0601734,0.15619
-0.0932181,0.160839,0.363368,1.27282,0.168013,2.01504,0.485269,0.102072,0.257512
-0.0936062,0.180276,0.409135,1.07014,0.56964,2.3051,0.467123,0.146266,0.306437
-0.0884697,0.194568,0.460049,0.802411,0.873677,2.55259,0.435091,0.197448,0.311691
-0.0797711,0.202741,0.51496,0.453233,1.07681,2.75149,0.385015,0.245957,0.306771
-0.0689951,0.203756,0.572663,0.0724923,1.13989,2.87941,0.306436,0.270235,0.270746
-0.0593912,0.198381,0.63156,-0.220946,0.970125,2.92569,0.247996,0.291153,0.20632
-0.0546035,0.189166,0.690524,-0.351794,0.641619,2.9096,0.193862,0.307913,0.148132
-0.0559523,0.178671,0.748259,-0.37876,0.289931,2.82494,0.138956,0.309466,0.130307
-0.0622418,0.167855,0.803687,-0.380717,0.0649003,2.69557,0.0782951,0.293487,0.153638
-0.0702472,0.15664,0.856079,-0.409529,-0.00618463,2.55748,0.0295962,0.261134,0.204712
-0.0777069,0.143808,0.905745,-0.522133,0.023935,2.45413,-0.00424258,0.214632,0.251904
-0.0828721,0.127772,0.953201,-0.711147,0.106297,2.37447,-0.0462392,0.163893,0.27238
-0.0848005,0.107614,0.998331,-0.921292,0.244749,2.26947,-0.0914045,0.121826,0.258007
-0.0848005,0.107614,0.998331,-0.921292,0.244749,2.26947,-0.0914045,0.121826,0.258007
-0.0817851,0.084363,1.04056,-1.02523,0.474841,2.11849,-0.152499,0.0885507,0.185068
-0.0731356,0.0616253,1.07909,-0.920761,0.643217,1.8946,-0.228628,0.0605183,0.0554159
-0.0623466,0.0427929,1.11278,-0.73584,0.585602,1.58909,-0.29975,0.0401248,-0.0575899
-0.0534845,0.0278884,1.13996,-0.618602,0.376856,1.20971,-0.377607,0.00817048,-0.134753
-0.0489133,0.0150396,1.15944,-0.57106,0.113831,0.820168,-0.420594,-0.0421051,-0.196164
-0.0504515,0.00310017,1.17239,-0.565219,-0.252357,0.548089,-0.405533,-0.094434,-0.287791
-0.058362,-0.00820475,1.17996,-0.518433,-0.473405,0.268767,-0.420524,-0.131236,-0.359677
-0.0637808,-0.0179298,1.1822,-0.440126,0.0798903,0.0454325,-0.403131,-0.166473,-0.431149
-0.0504733,-0.0251802,1.1819,-0.244165,1.2144,-0.0221097,-0.396143,-0.169495,-0.607913
-0.0209375,-0.0259267,1.1802,0.188508,1.62452,-0.173328,-0.350852,-0.113067,-0.849722
0.00833207,-0.0169409,1.17406,0.707625,1.20624,-0.453145,-0.248809,-0.00210848,-0.967158
0.0234797,0.00179505,1.16211,1.16919,0.275136,-0.690983,-0.155039,0.0197242,-0.909045
0.0187907,0.0279088,1.14671,1.4543,-0.736152,-0.773804,-0.0620867,0.0170562,-0.682969
-0.00315591,0.0581783,1.13108,1.5723,-1.47517,-0.766631,0.000526006,0.0279179,-0.371539
-0.0357736,0.0899171,1.11628,1.55828,-1.84354,-0.77673,0.030937,0.0634289,-0.0698168
-0.0710929,0.12051,1.10232,1.41485,-1.78418,-0.770791,0.0577157,0.083811,0.158148
-0.101369,0.147868,1.08963,1.20358,-1.37515,-0.712447,0.0710384,0.0786647,0.298189
-0.120744,0.170873,1.0791,0.97838,-0.708109,-0.567403,0.079848,0.0700365,0.352896
-0.126885,0.189552,1.07183,0.800683,-0.0746464,-0.379352,0.0785633,0.0795633,0.331875
-0.123743,0.204821,1.06739,0.666095,0.248786,-0.268391,0.0745826,0.132179,0.273048
-0.117501,0.217588,1.06376,0.565471,0.252083,-0.249812,0.0648754,0.191553,0.209495
-0.113992,0.228645,1.05952,0.484053,-0.0178707,-0.299251,0.0525269,0.231328,0.169069
-0.115996,0.238149,1.05316,0.39293,-0.316817,-0.436061,0.0324833,0.258335,0.167059
-0.121549,0.246861,1.04354,0.37586,-0.437463,-0.598853,0.0213366,0.259864,0.185446
-0.126828,0.256463,1.0312,0.424985,-0.385767,-0.700415,0.0313784,0.245955,0.211538
-0.129812,0.267208,1.01757,0.458095,-0.25698,-0.737725,0.0571355,0.229387,0.249198
-0.129576,0.278288,1.00368,0.472429,-0.0927641,-0.729052,0.0754603,0.206656,0.276571
-0.126277,0.289701,0.990448,0.505916,0.0409234,-0.672266,0.09335,0.197226,0.282852
-0.121321,0.301521,0.978596,0.521649,0.107147,-0.603273,0.106653,0.190008,0.28498
-0.115384,0.312626,0.96797,0.446137,0.160806,-0.534785,0.0957847,0.179079,0.302593
-0.108666,0.321055,0.958252,0.286949,0.212594,-0.479956,0.0752621,0.156587,0.312309
-0.101247,0.325912,0.949417,0.112126,0.243325,-0.403599,0.0625657,0.123731,0.285128
-0.093828,0.327209,0.942129,-0.0465281,0.288245,-0.291479,0.0547075,0.0784666,0.2377
-0.0846072,0.325227,0.937343,-0.194839,0.512375,-0.141973,0.0223676,0.0261586,0.178182
-0.0705528,0.319342,0.936003,-0.431144,0.844765,0.0838188,0.0073446,-0.0431896,0.0929846
-0.053783,0.30614,0.940548,-0.88836,0.919604,0.433764,0.0231966,-0.121532,-0.0189747
-0.0411629,0.283501,0.951967,-1.29287,0.625253,0.759671,0.0542943,-0.158514,-0.179159
-0.0373024,0.255109,0.96978,-1.46033,0.280044,1.06562,0.0949094,-0.126296,-0.333391
-0.036971,0.224451,0.992826,-1.51639,0.360614,1.27056,0.0497835,-0.109689,-0.434624
-0.0331226,0.193497,1.01811,-1.47799,0.508892,1.28098,-0.0299253,-0.10176,-0.551625
-0.0286679,0.165215,1.04169,-1.26369,0.306339,1.11631,-0.0309763,-0.0749308,-0.650451
-0.0293423,0.142844,1.0618,-0.906047,-0.051503,0.956239,0.0426195,-0.0595146,-0.668341
-0.0350577,0.12879,1.0796,-0.431241,-0.275281,0.857105,0.0697028,-0.067992,-0.61497
-0.044748,0.125429,1.0951,0.167748,-0.503519,0.68179,0.0790496,-0.0476904,-0.517318
-0.0586499,0.134445,1.10703,0.79126,-0.728975,0.451053,0.119824,0.00656827,-0.352372
-0.0754148,0.155051,1.11561,1.30015,-0.796506,0.276617,0.167564,0.0392728,-0.128055
-0.0915943,0.183809,1.12302,1.59718,-0.685606,0.230055,0.228384,0.0553646,0.0903463
-0.104919,0.215725,1.1317,1.62605,-0.457619,0.317737,0.27805,0.0663047,0.278457
-0.113549,0.245296,1.14344,1.41772,-0.127591,0.510805,0.298542,0.068008,0.406491
-0.117114,0.268768,1.15936,1.08247,0.162687,0.756302,0.299892,0.0721543,0.46636
-0.117114,0.268768,1.15936,1.08247,0.162687,0.756302,0.299892,0.0721543,0.46636
-0.117237,0.283905,1.17982,0.636957,0.377126,1.03109,0.293316,0.084794,0.491893
-0.115145,0.288979,1.20498,0.152045,0.536604,1.30745,0.25858,0.0919809,0.468744
-0.112024,0.284678,1.23436,-0.236572,0.587263,1.539,0.220877,0.110362,0.397798
-0.109971,0.273789,1.26701,-0.479979,0.507229,1.68964,0.175272,0.143886,0.309996
-0.109984,0.259182,1.30074,-0.600304,0.38541,1.69464,0.0984973,0.170796,0.236104
-0.111551,0.24342,1.33302,-0.607106,0.273483,1.57552,0.0210016,0.177028,0.192835
-0.113363,0.228731,1.36184,-0.529877,0.231399,1.38142,-0.0307559,0.163662,0.162085
-0.114227,0.216284,1.3869,-0.435902,0.244425,1.20234,-0.0508013,0.137362,0.141433
-0.113514,0.205315,1.40868,-0.438298,0.277008,1.05252,-0.0756168,0.0967286,0.140436
-0.111566,0.193725,1.42747,-0.510966,0.289675,0.91377,-0.082917,0.0543934,0.134281
-0.108729,0.181485,1.44344,-0.526228,0.286094,0.790718,-0.0831168,0.0247596,0.0959172
-0.10572,0.169864,1.45711,-0.479706,0.255716,0.671094,-0.0940244,-0.000705704,0.0489526
-0.102671,0.159773,1.46822,-0.410698,0.24103,0.525404,-0.117153,-0.0284206,0.0194179
-0.0992141,0.151229,1.4768,-0.363823,0.227178,0.40943,-0.132243,-0.0583009,-0.00734842
-0.0961899,0.14327,1.48322,-0.384265,0.164641,0.292891,-0.151936,-0.0908617,-0.0213518
-0.0939197,0.134488,1.48698,-0.461997,0.134583,0.163397,-0.167548,-0.11787,-0.0326844
-0.0903019,0.124575,1.48845,-0.503351,0.277677,0.0836818,-0.160474,-0.151961,-0.0679447
-0.0825002,0.114986,1.48895,-0.436003,0.513872,0.0558745,-0.152497,-0.177,-0.13895
-0.0704779,0.107214,1.4892,-0.339761,0.672451,0.0316711,-0.157127,-0.186555,-0.212327
-0.0577683,0.101074,1.48939,-0.281871,0.565702,0.022517,-0.158989,-0.194005,-0.283848
-0.0492169,0.0958027,1.48913,-0.242845,0.275628,-0.0202095,-0.166544,-0.197831,-0.331856
-0.0457105,0.0913281,1.48821,-0.220577,0.117539,-0.0443193,-0.162153,-0.194184,-0.356602
-0.0425765,0.0867278,1.48679,-0.250492,0.201848,-0.0821377,-0.180115,-0.201513,-0.37046
-0.0374223,0.0817941,1.48428,-0.236825,0.27893,-0.152005,-0.170567,-0.185555,-0.405774
-0.0320201,0.078783,1.48037,-0.0534653,0.189892,-0.227941,-0.150015,-0.144229,-0.446423
-0.0307474,0.0808966,1.47502,0.247627,-0.123665,-0.323336,-0.122571,-0.0985281,-0.43941
-0.0365541,0.0890608,1.46721,0.538698,-0.526926,-0.494323,-0.112097,-0.0451968,-0.349447
-0.049414,0.102519,1.456,0.747155,-0.847885,-0.678012,-0.102599,-0.00651648,-0.198115
-0.0666666,0.119369,1.44172,0.849131,-1.01089,-0.838546,-0.0895575,0.0241918,-0.0274491
-0.0844884,0.138103,1.42492,0.888764,-0.949965,-0.96971,-0.0791048,0.0418697,0.100227
-0.0976523,0.157601,1.40577,0.870467,-0.61356,-1.10051,-0.0989779,0.0519082,0.181418
-0.101778,0.176197,1.38427,0.757277,-0.143063,-1.19987,-0.112129,0.0568172,0.206336
-0.0952333,0.192282,1.36035,0.625489,0.346128,-1.3071,-0.108964,0.0708904,0.16856
-0.0790699,0.206681,1.33403,0.602465,0.741979,-1.38406,-0.0763953,0.103666,0.0563784
-0.0560707,0.221189,1.30693,0.681008,0.937573,-1.35277,-0.0263787,0.132994,-0.0761736
-0.0323194,0.237039,1.28061,0.793408,0.794518,-1.28893,-0.00122835,0.161675,-0.165891
-0.0143403,0.254398,1.25468,0.890066,0.33798,-1.2829,0.00582163,0.197906,-0.186841
-0.00630404,0.273162,1.22798,0.961384,-0.210559,-1.32001,0.0131045,0.229098,-0.132083
-0.00632,0.292485,1.2006,0.951588,-0.518432,-1.32442,0.0140776,0.236193,0.00617158
-0.00946908,0.311315,1.17345,0.9145,-0.58293,-1.27971,0.022945,0.22907,0.13443
-0.0126237,0.329389,1.1477,0.865831,-0.526604,-1.1863,0.0351076,0.213739,0.223783
-0.0138096,0.346223,1.12408,0.785342,-0.365805,-1.06666,0.0320937,0.20269,0.28333
-0.0123666,0.360879,1.10329,0.639145,-0.220758,-0.903993,0.0467106,0.196694,0.310973
-0.00950004,0.371955,1.08617,0.441199,-0.107337,-0.707251,0.0446016,0.179798,0.304425
-0.0063723,0.378987,1.07338,0.26087,-0.0750694,-0.493843,0.0382992,0.167709,0.256368
-0.00539521,0.382936,1.06464,0.147264,-0.162367,-0.332494,0.032516,0.186573,0.176078
-0.00718853,0.38575,1.05861,0.146589,-0.231255,-0.237138,0.00966617,0.193164,0.0972842
-0.00989264,0.389525,1.05446,0.23635,-0.179482,-0.139625,0.0235252,0.1926,0.0488541
-0.0120261,0.394758,1.05328,0.259251,-0.0904392,0.036529,0.0489884,0.165164,0.0227543
-0.0146436,0.398057,1.05681,0.0240313,-0.020872,0.303023,0.104822,0.13598,0.0289711
-0.0146436,0.398057,1.05681,0.0240313,-0.020872,0.303023,0.104822,0.13598,0.0289711
-0.0173525,0.392919,1.06796,-0.581496,0.192352,0.779833,0.2136,0.105405,0.0364341
-0.0200695,0.372741,1.09111,-1.41155,0.384945,1.41403,0.251326,0.0433539,0.00905633
-0.0237786,0.336416,1.1254,-2.11116,0.429567,1.82734,0.201872,0.041532,-0.105136
-0.0275113,0.29042,1.16322,-2.31786,0.330033,1.84358,0.113957,0.106332,-0.299975
-0.0330062,0.245883,1.19762,-1.97288,-0.0033808,1.58441,0.100932,0.169286,-0.455303
-0.0434876,0.212032,1.22516,-1.29565,-0.406723,1.23313,0.0932052,0.151716,-0.49007
-0.0584382,0.192444,1.24649,-0.58117,-0.644671,0.972439,0.0876002,0.0925188,-0.383142
-0.0763706,0.185449,1.26386,-0.0369385,-0.817547,0.787047,0.103125,0.0421,-0.187522
-0.0967484,0.187397,1.27834,0.318315,-0.943037,0.619403,0.122601,0.0298388,0.0223162
-0.117609,0.194204,1.28994,0.446205,-0.893507,0.447756,0.121098,0.0234449,0.217313
-0.13434,0.201717,1.29864,0.391782,-0.567642,0.317461,0.126109,-0.00614505,0.34907
-0.14194,0.207572,1.30513,0.279261,-0.0516308,0.244085,0.116241,-0.0430149,0.394231
-0.138946,0.211268,1.31077,0.158591,0.467767,0.270305,0.137358,-0.0663316,0.372441
-0.126469,0.211609,1.31776,-0.0443203,0.909867,0.413338,0.168134,-0.0736735,0.321189
-0.107678,0.207548,1.32769,-0.248315,1.13089,0.616181,0.17923,-0.0773246,0.227205
-0.0880898,0.199092,1.3423,-0.453153,1.09459,0.891958,0.179469,-0.0669763,0.135076
-0.0720776,0.186957,1.36157,-0.594895,0.852737,1.07098,0.114202,-0.0356881,0.0558289
-0.0621154,0.173085,1.38286,-0.64683,0.538455,1.10294,0.0350096,0.0104944,0.0165904
-0.0570402,0.158753,1.4038,-0.657247,0.344972,1.03279,-0.0613681,0.030722,0.0157112
-0.053819,0.145249,1.42242,-0.581562,0.262893,0.87811,-0.141613,0.0260717,0.0101319
-0.0513694,0.134001,1.43791,-0.471459,0.19709,0.728204,-0.171541,0.0182747,0.0234499
-0.0492305,0.124371,1.45101,-0.43382,0.192397,0.625388,-0.191221,-0.00934209,0.0606233
-0.0467609,0.115104,1.46247,-0.458945,0.192895,0.564349,-0.211744,-0.0455807,0.0881069
-0.0442933,0.104334,1.4725,-0.582281,0.160361,0.476892,-0.239318,-0.0592158,0.102916
-0.0424329,0.0912365,1.48016,-0.68445,0.105957,0.338169,-0.279259,-0.0731203,0.0839795
-0.0407983,0.0772027,1.48491,-0.685406,0.0988006,0.194971,-0.31404,-0.0894236,0.0336063
-0.0393783,0.0639577,1.48666,-0.634069,0.049791,0.0255592,-0.343601,-0.0950519,-0.0243789
-0.0388528,0.0517465,1.48444,-0.595839,-0.0117609,-0.210663,-0.367871,-0.0887794,-0.0744341
-0.0388536,0.0409908,1.47694,-0.497336,-0.00866008,-0.49786,-0.382499,-0.0864315,-0.149559
-0.0377683,0.0331738,1.46366,-0.337673,0.0568045,-0.804603,-0.39645,-0.0795794,-0.233837
-0.0369969,0.0285389,1.44432,-0.219201,-0.0748993,-1.11425,-0.39392,-0.0808704,-0.310112
-0.0391556,0.0247303,1.41922,-0.282842,-0.144981,-1.37233,-0.339223,-0.0869818,-0.355778
-0.0388637,0.0194733,1.39015,-0.325383,0.153584,-1.49593,-0.263995,-0.110548,-0.447371
-0.0316468,0.0164213,1.35954,-0.022955,0.473021,-1.56099,-0.200541,-0.0806863,-0.594324
-0.0219995,0.0229538,1.3277,0.624891,0.38131,-1.6594,-0.133007,-0.00539903,-0.683428
-0.0171382,0.0434732,1.2933,1.35168,-0.0461443,-1.82806,-0.0818626,0.0599543,-0.61448
-0.0203727,0.0758991,1.25621,1.76777,-0.471657,-1.92909,-0.0439269,0.0828759,-0.37212
-0.0300655,0.113016,1.21816,1.81888,-0.858398,-1.95586,-0.0104141,0.0936559,-0.0719835
-0.0456196,0.149376,1.1803,1.65758,-1.18034,-1.93822,0.0172944,0.113268,0.175747
-0.0651534,0.181573,1.14334,1.33977,-1.37789,-1.89037,0.0266682,0.128926,0.359358
-0.0858586,0.206847,1.10734,0.901458,-1.34234,-1.83911,-0.00298888,0.11927,0.476497
-0.101267,0.223853,1.07097,0.478857,-0.94394,-1.88807,-0.0898901,0.108814,0.506202
-0.106018,0.234318,1.03228,0.180302,-0.392706,-1.97321,-0.16758,0.102434,0.442904
-0.0981985,0.239696,0.991567,-0.0542732,0.199267,-2.0379,-0.217476,0.113018,0.332361
-0.080077,0.240249,0.947976,-0.258796,0.562517,-2.2123,-0.238132,0.155791,0.197079
-0.0540644,0.237705,0.900443,-0.264773,0.939324,-2.37223,-0.217303,0.18811,0.0158101
-0.0191005,0.236755,0.851251,0.0411595,1.39588,-2.40398,-0.205722,0.201773,-0.182309
0.0225379,0.242957,0.801813,0.616448,1.51649,-2.41171,-0.226235,0.221805,-0.342436
0.0609542,0.259216,0.751266,1.18857,1.00111,-2.42839,-0.196699,0.262945,-0.390169
0.0876476,0.282231,0.698941,1.42782,0.304254,-2.426,-0.17236,0.273327,-0.283454
0.104196,0.305276,0.647306,1.30914,-0.0982742,-2.26353,-0.174623,0.22643,-0.0916309
0.104196,0.305276,0.647306,1.30914,-0.0982742,-2.26353,-0.174623,0.22643,-0.0916309
0.114839,0.324061,0.599851,1.04791,-0.261348,-2.03171,-0.178142,0.181181,0.0530648
0.123668,0.337835,0.557404,0.811354,-0.20892,-1.80013,-0.205583,0.159174,0.130971
0.133198,0.347939,0.520275,0.652619,-0.0853011,-1.54337,-0.233016,0.138202,0.151919
0.143009,0.355825,0.489017,0.53512,-0.0215183,-1.26801,-0.246372,0.137244,0.142497
0.151304,0.361915,0.463476,0.423671,-0.0518941,-1.02846,-0.270694,0.145128,0.117315
0.157353,0.366474,0.442549,0.331587,-0.0845385,-0.849318,-0.315076,0.158558,0.0783736
0.161371,0.369661,0.425016,0.247106,-0.160574,-0.731147,-0.360573,0.173143,0.0312515
0.161955,0.371369,0.409619,0.155123,-0.359028,-0.670348,-0.383883,0.181236,-0.0266975
0.157202,0.371401,0.395526,0.0538551,-0.62754,-0.621487,-0.376381,0.186575,-0.0757334
0.146797,0.369546,0.3837,-0.0789881,-0.832354,-0.481798,-0.331434,0.165865,-0.103539
0.131117,0.365217,0.37619,-0.255681,-1.01187,-0.273605,-0.281863,0.147618,-0.115277
0.11119,0.358495,0.373117,-0.343948,-1.06371,-0.113548,-0.231913,0.166051,-0.129492
0.0898375,0.351535,0.372962,-0.377708,-1.06818,0.0179764,-0.216173,0.196649,-0.139678
0.0691121,0.341725,0.374304,-0.656447,-0.951833,0.0135595,-0.209656,0.197128,-0.101972
0.0515874,0.324367,0.37531,-1.08409,-0.770978,-0.0139681,-0.14757,0.156507,-0.093554
0.0369663,0.299866,0.376435,-1.32737,-0.684667,0.0176756,-0.0369262,0.0826232,-0.182102
0.0223957,0.273244,0.378025,-1.31992,-0.758139,0.0516237,0.0527319,0.0523726,-0.273394
0.00373662,0.247489,0.379368,-1.27604,-1.12486,0.0188875,0.144403,0.0436607,-0.303456
-0.02256,0.222255,0.37718,-1.25579,-1.54655,-0.238093,0.183517,0.0389415,-0.261112
-0.0547089,0.198325,0.368118,-1.15437,-1.83006,-0.558793,0.220831,0.0251065,-0.206219
-0.0883237,0.178734,0.352057,-0.895419,-1.78895,-0.882368,0.26022,0.0127902,-0.148978
-0.117182,0.16672,0.329605,-0.528022,-1.4239,-1.19419,0.309247,0.00458743,-0.0874467
-0.13501,0.163706,0.302152,-0.122381,-0.774094,-1.45325,0.343982,-0.00465745,-0.0394075
-0.13838,0.169476,0.271413,0.266636,-0.0737928,-1.62453,0.369208,-0.0312397,-0.0120149
-0.128435,0.182077,0.239411,0.5427,0.480719,-1.65206,0.411853,-0.0539589,0.00985444
-0.11012,0.198197,0.209043,0.678103,0.726829,-1.47615,0.462849,-0.0757883,0.0329412
-0.0909723,0.214272,0.184025,0.651543,0.641107,-1.10209,0.491525,-0.101573,0.0714644
-0.0771148,0.227006,0.167274,0.466843,0.360432,-0.641981,0.468556,-0.110754,0.130491
-0.0712259,0.234801,0.158508,0.256829,0.0426387,-0.300441,0.367126,-0.092302,0.198519
-0.0718178,0.239019,0.154685,0.15661,-0.167442,-0.114819,0.258803,-0.0448206,0.259731
-0.0757184,0.242139,0.154058,0.162074,-0.224715,0.0321931,0.185317,-0.01727,0.303754
-0.0803844,0.245248,0.156444,0.158129,-0.16889,0.178993,0.133941,-0.0104222,0.353618
-0.0833088,0.24729,0.16206,0.0786732,0.0282774,0.35566,0.085869,-0.0211225,0.385452
-0.0823436,0.247049,0.171344,-0.0179086,0.295381,0.541492,0.0284837,-0.0358522,0.374098
-0.0769796,0.24501,0.1841,-0.0863944,0.537914,0.706334,-0.0380183,-0.0375089,0.323692
-0.0693268,0.241007,0.199807,-0.223832,0.578831,0.836819,-0.0880348,-0.0274174,0.268723
-0.0628263,0.23274,0.217597,-0.508074,0.483089,0.943359,-0.120396,-0.0241768,0.231662
-0.0585888,0.218391,0.236651,-0.80212,0.372121,0.992152,-0.169856,-0.0302132,0.168985
-0.0563727,0.199682,0.255782,-0.930752,0.238917,0.985793,-0.207167,-0.0352243,0.0528831
-0.0568166,0.18034,0.274237,-0.881574,0.0766298,0.923433,-0.244382,-0.0441622,-0.0580573
-0.0590087,0.163436,0.290521,-0.710563,0.00351176,0.775343,-0.306954,-0.0494333,-0.14897
-0.0605175,0.149976,0.303893,-0.57093,0.0701017,0.637454,-0.339094,-0.0667259,-0.212224
-0.0601844,0.138341,0.314854,-0.548384,0.100942,0.519466,-0.339459,-0.0738151,-0.266764
-0.0610323,0.126845,0.323224,-0.544903,-0.152456,0.378987,-0.344144,-0.0806324,-0.344766
-0.0696318,0.115472,0.32838,-0.575379,-0.63118,0.197523,-0.351054,-0.0933564,-0.391315
-0.0845035,0.103077,0.329169,-0.662501,-0.775689,-0.0194856,-0.360839,-0.0907247,-0.372199
-0.0978406,0.0897232,0.325555,-0.683529,-0.571267,-0.216832,-0.357527,-0.103284,-0.374569
-0.106867,0.0782755,0.317682,-0.505208,-0.447118,-0.46348,-0.345964,-0.0767422,-0.428625
-0.116654,0.0727159,0.304602,-0.187438,-0.668863,-0.787472,-0.317725,-0.0257521,-0.438712
-0.131391,0.0742437,0.285236,0.0712846,-0.909666,-1.15373,-0.286889,0.0103785,-0.334059
-0.131391,0.0742437,0.285236,0.0712846,-0.909666,-1.15373,-0.286889,0.0103785,-0.334059
-0.147586,0.0806202,0.259599,0.188207,-0.872176,-1.4576,-0.265414,0.00506291,-0.172455
-0.160748,0.0899423,0.229213,0.268765,-0.707759,-1.67729,-0.213302,0.0136492,-0.0480406
-0.170495,0.102021,0.195066,0.368718,-0.598142,-1.88778,-0.179051,0.0397406,0.0376887
-0.176836,0.117093,0.157034,0.456064,-0.437833,-2.10535,-0.176103,0.0630229,0.109058
-0.177701,0.13413,0.115003,0.472466,-0.171435,-2.30711,-0.171577,0.0761262,0.153955
-0.172235,0.151191,0.0694481,0.409735,0.0702838,-2.44163,-0.152195,0.0770679,0.156705
-0.160452,0.166748,0.0210003,0.342442,0.359397,-2.54421,-0.137694,0.0879431,0.11447
-0.140875,0.181305,-0.0291012,0.376312,0.75216,-2.55602,-0.107939,0.10643,0.02663
-0.112689,0.196733,-0.0787345,0.556151,1.11744,-2.49062,-0.0941257,0.125505,-0.09686
-0.0795323,0.215299,-0.127169,0.842108,1.15188,-2.42361,-0.110695,0.148027,-0.202292
-0.0493016,0.237868,-0.174935,1.118,0.750227,-2.38656,-0.10654,0.190084,-0.241298
-0.0283143,0.264335,-0.223192,1.34065,0.153293,-2.40516,-0.0919965,0.224188,-0.195765
-0.0159394,0.293247,-0.272368,1.44272,-0.214025,-2.38893,-0.0850683,0.240128,-0.0607405
-0.00636546,0.322995,-0.321135,1.48015,-0.259201,-2.2973,-0.0891329,0.22935,0.0809754
0.00548864,0.352684,-0.36812,1.48871,-0.092449,-2.13569,-0.0894556,0.213979,0.176121
0.0217566,0.381567,-0.411606,1.4488,0.160564,-1.88454,-0.0966979,0.193252,0.218787
0.0415852,0.408179,-0.450072,1.31398,0.321303,-1.589,-0.111659,0.183712,0.22946
0.0615503,0.43112,-0.482895,1.12912,0.323799,-1.30487,-0.132314,0.184048,0.20083
0.0787074,0.450359,-0.510179,0.971893,0.219714,-1.02994,-0.155686,0.193895,0.135312
0.090807,0.466656,-0.531808,0.816103,0.027932,-0.775568,-0.174019,0.213879,0.0675598
0.096319,0.479768,-0.547757,0.618062,-0.207158,-0.50636,-0.168885,0.224803,0.017542
0.0935712,0.489028,-0.556191,0.374795,-0.468182,-0.131812,-0.123316,0.217281,-0.0269862
0.0805883,0.493976,-0.554391,0.0938117,-0.747225,0.341159,-0.0688787,0.212854,-0.0574464
0.0569653,0.493191,-0.541688,-0.256024,-1.00086,0.750924,-0.0468535,0.23589,-0.0518612
0.0263754,0.485799,-0.521697,-0.537052,-1.09986,0.956236,-0.0610104,0.271587,-0.0410542
-0.00678181,0.473589,-0.498827,-0.712262,-1.14125,1.05435,-0.0648265,0.281462,-0.0474765
-0.0390385,0.45687,-0.47517,-0.921925,-1.01443,1.11224,-0.0164116,0.269831,-0.0275319
-0.068102,0.435282,-0.450581,-1.11084,-0.829076,1.23127,0.0595065,0.22141,-0.0200943
-0.093947,0.409677,-0.424306,-1.25179,-0.702873,1.3734,0.113115,0.161176,-0.0345492
-0.118329,0.380429,-0.39699,-1.39814,-0.711155,1.42795,0.134057,0.124157,-0.030212
-0.142553,0.347771,-0.371739,-1.5428,-0.826628,1.32977,0.128133,0.0882547,-0.0270736
-0.167361,0.312011,-0.350735,-1.6844,-0.980119,1.18911,0.132582,0.0499544,-0.0302227
-0.192362,0.274622,-0.334849,-1.70738,-1.03245,0.96334,0.126702,0.0215795,-0.0346414
-0.213793,0.239561,-0.325641,-1.5149,-0.84511,0.597674,0.0856712,0.0145892,-0.0500182
-0.227146,0.212226,-0.324502,-1.1149,-0.439715,0.0917841,0.0449286,0.0145148,-0.0740353
-0.229038,0.196341,-0.332533,-0.603221,0.105659,-0.502424,0.0337139,0.0032329,-0.087276
-0.218386,0.193137,-0.349162,-0.0895566,0.617082,-0.985675,0.0820569,-0.041979,-0.10155
-0.198826,0.199701,-0.371171,0.239901,0.879976,-1.22896,0.185094,-0.10094,-0.090102
-0.175143,0.209992,-0.39492,0.306306,0.9861,-1.20329,0.268947,-0.166792,-0.0514713
-0.151837,0.218561,-0.41501,0.201187,0.900209,-0.838436,0.370388,-0.212939,-0.0260028
-0.133036,0.222479,-0.427041,0.0214976,0.711722,-0.393878,0.365733,-0.237131,-0.00306779
-0.119944,0.22205,-0.431748,-0.107702,0.496643,-0.0931025,0.258275,-0.207871,0.0131176
-0.111609,0.219734,-0.43282,-0.11358,0.327185,-0.0139897,0.147762,-0.131807,0.026539
-0.106035,0.218792,-0.433408,0.0336115,0.249268,-0.0344686,0.0810812,-0.088263,0.0467125
-0.10007,0.221863,-0.433851,0.278501,0.374926,-0.0315362,0.0445066,-0.0736688,0.0900547
-0.0908952,0.229665,-0.433033,0.488411,0.554494,0.0495913,0.0143205,-0.0687505,0.143398
-0.0795425,0.239731,-0.42991,0.511386,0.636501,0.174035,-0.00948364,-0.0574954,0.199806
-0.0685152,0.247811,-0.423888,0.305864,0.596652,0.361467,-0.0340937,-0.056552,0.245757
-0.0604034,0.250117,-0.414345,-0.0219171,0.432438,0.542311,-0.0802446,-0.0606497,0.249969
-0.0573936,0.245988,-0.401934,-0.301692,0.173505,0.677061,-0.121672,-0.0476076,0.208718
-0.0593871,0.237633,-0.38756,-0.423891,-0.00210386,0.758074,-0.155908,-0.0316106,0.138153
-0.0631392,0.22875,-0.372674,-0.350579,-0.00732849,0.726302,-0.228158,-0.0136728,0.0566352
-0.0659792,0.222483,-0.359272,-0.191296,0.0088351,0.614609,-0.286615,0.00631142,-0.00986278
-0.0683802,0.21884,-0.348264,-0.125742,-0.0093748,0.485476,-0.313079,0.0163982,-0.0544057
-0.07139,0.215493,-0.33984,-0.16846,-0.149588,0.362828,-0.317558,0.0215831,-0.0936407
-0.0792361,0.210027,-0.333629,-0.362722,-0.507763,0.287358,-0.308099,-0.000376433,-0.141651
-0.0923463,0.19934,-0.329596,-0.674188,-0.661323,0.199646,-0.314289,-0.0182865,-0.170494
-0.104547,0.183615,-0.327901,-0.836907,-0.497202,0.121419,-0.28378,-0.00818042,-0.258003
-0.111597,0.167629,-0.328198,-0.719822,-0.215633,0.0154338,-0.255521,0.0199944,-0.372369
-0.114186,0.15622,-0.330683,-0.432286,-0.112879,-0.147765,-0.220412,0.0893923,-0.442744
-0.116066,0.151413,-0.337075,-0.12965,-0.204914,-0.44276,-0.219519,0.140902,-0.427409
-0.12099,0.152502,-0.349413,0.0735983,-0.487356,-0.788308,-0.208434,0.167934,-0.349413
-0.131183,0.15758,-0.368171,0.187096,-0.817379,-1.11269,-0.16511,0.18943,-0.211015
-0.146123,0.165252,-0.392531,0.227675,-1.04361,-1.37179,-0.108348,0.194851,-0.0442156
-0.162338,0.174033,-0.421414,0.188174,-1.02504,-1.57482,-0.0636242,0.194213,0.109656
-0.174615,0.181833,-0.453774,0.0286306,-0.73806,-1.68978,-0.0274383,0.176835,0.215354
-0.178052,0.185683,-0.488673,-0.270472,-0.198932,-1.77031,-0.00746562,0.167025,0.260989
-0.168024,0.183969,-0.526584,-0.509969,0.51353,-1.88908,-0.00740165,0.165644,0.209225
-0.144246,0.179968,-0.567037,-0.465748,1.12151,-1.98104,0.0337892,0.189283,0.048766
-0.110968,0.178252,-0.607835,-0.190746,1.41075,-1.9751,0.0835794,0.205004,-0.130357
-0.0773082,0.181556,-0.647177,0.15018,1.19045,-1.92019,0.111759,0.213489,-0.238063
-0.0522449,0.189757,-0.685224,0.408548,0.603141,-1.87051,0.118407,0.215888,-0.257632
-0.0382905,0.200634,-0.721869,0.486268,0.164691,-1.77924,0.117317,0.216334,-0.169108
-0.0288377,0.211377,-0.756618,0.46731,0.125742,-1.65721,0.0930418,0.196806,-0.0563549
-0.0187682,0.220964,-0.787756,0.410981,0.222054,-1.39511,0.122772,0.180215,-0.00200909
-0.00766202,0.22901,-0.81273,0.365453,0.345599,-1.04683,0.149613,0.156976,0.00415164
-0.00766202,0.22901,-0.81273,0.365453,0.345599,-1.04683,0.149613,0.156976,0.00415164
0.00408668,0.236315,-0.82986,0.361944,0.44308,-0.622953,0.154474,0.147192,-0.0151054
0.0158174,0.243299,-0.838555,0.34319,0.523614,-0.226389,0.121276,0.146851,-0.0285963
0.0264382,0.249697,-0.839684,0.289396,0.500704,0.120807,0.0835308,0.163935,-0.0373328
0.0338281,0.25471,-0.834369,0.19789,0.363225,0.391913,0.0489956,0.182202,-0.0450854
0.0365763,0.258312,-0.824352,0.137852,0.171322,0.578554,0.013046,0.195391,-0.0510361
0.0345061,0.261621,-0.811161,0.159194,-0.0354411,0.701191,-0.000534151,0.215678,-0.0400351
0.0279764,0.265763,-0.795811,0.201484,-0.1965,0.797993,-0.000638783,0.225948,0.0238258
0.0183609,0.270067,-0.778213,0.180743,-0.282283,0.919303,0.00157744,0.201473,0.107145
0.006947,0.272835,-0.757747,0.0492461,-0.295443,1.06594,0.0250941,0.176308,0.178625
-0.00477577,0.27098,-0.733826,-0.258903,-0.228082,1.25286,0.0535669,0.160452,0.248868
-0.0164177,0.261616,-0.705839,-0.650493,-0.219455,1.45929,0.0671431,0.12583,0.277153
-0.0297589,0.244612,-0.674771,-0.963561,-0.360963,1.57172,0.0559989,0.111656,0.25328
-0.0457455,0.222514,-0.643545,-1.11609,-0.496637,1.53279,0.0203253,0.113626,0.216818
-0.0611558,0.198307,-0.615283,-1.1444,-0.41467,1.35048,-0.038011,0.093891,0.192787
-0.0712076,0.174193,-0.592153,-1.11759,-0.136653,1.07198,-0.0966468,0.065937,0.172068
-0.0733364,0.150926,-0.575793,-1.09139,0.187069,0.707906,-0.142894,0.0419404,0.130323
-0.067714,0.12894,-0.567367,-1.04323,0.49368,0.271102,-0.181419,0.0245183,0.0707859
-0.0555347,0.108794,-0.568056,-0.972691,0.699168,-0.207661,-0.191206,0.00474301,-0.0131973
-0.0397045,0.0908665,-0.577312,-0.854192,0.775498,-0.608201,-0.16039,-0.024676,-0.108945
-0.0230553,0.0759312,-0.592622,-0.684702,0.757554,-0.84491,-0.103463,-0.0709008,-0.191547
-0.0075129,0.0647545,-0.610705,-0.459554,0.673914,-0.922124,-0.0522564,-0.109882,-0.248737
0.00558856,0.0578416,-0.629112,-0.239103,0.51914,-0.919394,-0.0381872,-0.127127,-0.268412
0.0150412,0.0548093,-0.647556,-0.0518167,0.32865,-0.938226,-0.056522,-0.111951,-0.248654
0.0209354,0.0548327,-0.667073,0.0766407,0.165632,-1.0269,-0.0882852,-0.073567,-0.19029
0.0245689,0.0566876,-0.688656,0.154849,0.0892398,-1.1209,-0.0921998,-0.0460955,-0.122193
0.0272877,0.0601292,-0.711497,0.245488,0.0574537,-1.14466,-0.0721417,-0.0441704,-0.0815246
0.0298255,0.0652034,-0.734206,0.317203,0.0578693,-1.10751,-0.0418732,-0.0288828,-0.046804
0.0320783,0.0711528,-0.756039,0.339401,0.0153758,-1.06072,-0.0225312,-0.00898539,-0.015281
0.0334697,0.0770456,-0.777081,0.317873,-0.0268328,-1.02447,-0.00907223,0.0183146,0.00218189
0.0343001,0.0826646,-0.797496,0.31701,-0.0486893,-0.993109,0.00372653,0.0349783,-0.00636607
0.0350798,0.0883491,-0.817107,0.316244,-0.0421155,-0.94348,0.0277015,0.0484545,-0.0233729
0.0358596,0.0938191,-0.835555,0.297745,-0.0525096,-0.876448,0.0583914,0.0655137,-0.0466638
0.0360364,0.0989301,-0.852477,0.271054,-0.0946068,-0.793319,0.096899,0.076613,-0.0831876
0.0351166,0.103374,-0.86768,0.225097,-0.151669,-0.708315,0.130773,0.0962171,-0.112275
0.0332064,0.106849,-0.881389,0.174672,-0.171515,-0.655792,0.13949,0.111925,-0.129084
0.0311171,0.109865,-0.894722,0.183595,-0.176979,-0.676865,0.128805,0.135019,-0.142359
0.0283787,0.114391,-0.909538,0.335761,-0.273664,-0.795189,0.125924,0.167242,-0.15493
0.023668,0.12279,-0.927254,0.554095,-0.40455,-0.949926,0.152843,0.193496,-0.113306
0.017432,0.135254,-0.947828,0.721802,-0.462569,-1.05658,0.181336,0.183502,-0.0158905
0.01139,0.15013,-0.96955,0.782907,-0.438309,-1.06539,0.221832,0.158127,0.0973911
0.00683002,0.16536,-0.990703,0.749375,-0.346219,-0.999022,0.247963,0.126766,0.192589
0.00423253,0.178917,-1.00937,0.612824,-0.232396,-0.826273,0.274979,0.0960246,0.244755
0.00318754,0.189197,-1.02389,0.418712,-0.143793,-0.594098,0.266965,0.055441,0.264423
0.00302362,0.195017,-1.03305,0.158732,-0.0399964,-0.299475,0.256662,0.0263181,0.261725
0.00399533,0.195326,-1.0363,-0.122678,0.0736608,-0.0308911,0.223894,0.00968382,0.239644
0.00618938,0.191016,-1.03485,-0.285112,0.158286,0.16063,0.17329,0.00260049,0.151303
0.00824602,0.18515,-1.03019,-0.284992,0.131754,0.281273,0.136503,0.0166895,0.0545
0.00920462,0.180227,-1.02371,-0.209789,0.0720455,0.342827,0.0924918,0.0223615,-0.013492
0.00823208,0.17718,-1.01674,-0.102054,-0.0479214,0.342855,0.0510705,0.0182804,-0.0456265
0.00487896,0.176134,-1.00983,-0.0094666,-0.168114,0.339157,0.0233948,0.0146562,-0.0604814
-0.000523651,0.176684,-1.00299,0.0535414,-0.236218,0.336282,0.00996069,0.00759873,-0.0453838
-0.0060314,0.17765,-0.995971,0.03179,-0.178971,0.366599,0.000748448,-0.0118362,-0.00667715
-0.0101454,0.177577,-0.98808,-0.0329012,-0.0969391,0.417003,-0.00193142,-0.0372826,0.0101791
-0.0135734,0.176191,-0.978916,-0.0927291,-0.105288,0.488168,-0.00151452,-0.0419278,-0.00751561
-0.0135734,0.176191,-0.978916,-0.0927291,-0.105288,0.488168,-0.00151452,-0.0419278,-0.00751561
-0.0184265,0.173845,-0.968761,-0.124764,-0.206179,0.516007,-0.0104778,-0.0337553,-0.0346494
-0.0251332,0.171034,-0.95854,-0.135285,-0.278244,0.491185,-0.0334331,-0.0245623,-0.0385987
-0.032251,0.168248,-0.94938,-0.11403,-0.274885,0.423183,-0.0541169,-0.0209293,-0.0321807
-0.0388984,0.166207,-0.941546,-0.0602487,-0.259253,0.357408,-0.0642169,-0.0256429,-0.0304568
-0.0448816,0.165513,-0.935227,0.0148083,-0.236665,0.26899,-0.066205,-0.0222535,-0.0296281
-0.049945,0.166135,-0.930676,0.06493,-0.197081,0.17923,-0.0656619,-0.016391,-0.0204306
-0.0541774,0.167551,-0.927768,0.0880086,-0.173249,0.107028,-0.0527017,-0.0207476,-0.0122309
-0.057554,0.169106,-0.925809,0.0758493,-0.130953,0.0858939,-0.0304412,-0.0310395,-0.00881648
-0.0603968,0.170349,-0.923778,0.0642739,-0.121421,0.110467,-0.00778954,-0.0426781,-0.0174308
-0.0632836,0.171584,-0.92123,0.0790136,-0.127306,0.130845,-0.00278131,-0.0372649,-0.0311831
-0.0666916,0.173269,-0.918535,0.109213,-0.165992,0.125037,-0.000929765,-0.0214139,-0.0376101
-0.0708011,0.175363,-0.915727,0.111547,-0.191533,0.138532,0.000687271,-0.0164215,-0.0306821
-0.0753585,0.177289,-0.912594,0.0959072,-0.211287,0.159454,0.00242133,-0.013244,-0.0184835
-0.0802977,0.178974,-0.909179,0.0924603,-0.219265,0.165125,0.00146137,-0.00352883,-0.00960708
-0.0849882,0.180672,-0.905789,0.100814,-0.199734,0.149379,-0.00182289,0.00416918,-0.0047518
-0.0895121,0.182623,-0.90263,0.119046,-0.200961,0.14029,0.00242636,0.00534025,-0.00301868
-0.093824,0.184894,-0.899672,0.13131,-0.18187,0.132752,0.00766277,0.010197,0.00734955
-0.0977033,0.187393,-0.896708,0.144237,-0.158558,0.135308,0.00860573,0.00685474,0.014917
-0.101351,0.190145,-0.893598,0.1665,-0.151488,0.143202,0.0148207,0.00827627,0.0195403
-0.104878,0.19321,-0.890142,0.175852,-0.130478,0.164576,0.0203867,0.0120328,0.0241114
-0.107977,0.196186,-0.886087,0.163259,-0.10023,0.196174,0.0181143,0.00955102,0.0285566
-0.110734,0.198654,-0.88157,0.128466,-0.0879362,0.215855,0.0127537,0.0152362,0.0360506
-0.113365,0.20024,-0.876858,0.0812648,-0.0822437,0.228669,0.00455409,0.0163178,0.0417824
-0.115669,0.200699,-0.871882,0.0236013,-0.0418578,0.255762,0.00466577,0.0122508,0.0459045
-0.116972,0.20014,-0.866404,-0.00689287,0.0222673,0.285585,0.000438333,0.00906366,0.0305774
-0.117152,0.199309,-0.860644,-0.000121205,0.0731333,0.281049,-0.0102772,0.0200283,0.00925159
-0.116386,0.198992,-0.855139,0.0291639,0.110199,0.257364,-0.0193166,0.0295143,-0.00535399
-0.115167,0.199099,-0.850181,0.0327802,0.10772,0.233303,-0.0188731,0.0327467,-0.00508428
-0.114175,0.199156,-0.845564,0.0228123,0.0802756,0.224377,-0.0168951,0.029217,-0.000849187
-0.113825,0.198857,-0.841026,-0.00322697,0.0465825,0.220477,-0.01166,0.0254606,0.00695419
-0.113936,0.19793,-0.836731,-0.0325141,0.0339839,0.208029,-0.0187944,0.0237884,0.017942
-0.114211,0.196354,-0.83268,-0.0598058,0.0376491,0.205573,-0.0190101,0.0203201,0.0258016
-0.114355,0.194227,-0.828514,-0.0931082,0.0462201,0.22253,-0.0179073,0.010635,0.0317344
-0.114247,0.191317,-0.824226,-0.136357,0.0582367,0.221813,-0.0260971,0.00472757,0.0353673
-0.113851,0.18777,-0.820279,-0.164919,0.0660944,0.196493,-0.0379433,0.00624859,0.0334816
-0.113278,0.183956,-0.817073,-0.174851,0.0629858,0.157203,-0.049348,0.005216,0.0228322
-0.112519,0.180078,-0.814617,-0.180374,0.0682127,0.128216,-0.0567397,-0.00352587,0.00901097
-0.111672,0.176315,-0.812584,-0.173878,0.0610976,0.112074,-0.0530376,-0.0128904,-0.00807053
-0.111269,0.172861,-0.810884,-0.15731,0.0327566,0.0863411,-0.0508936,-0.0145217,-0.0239554
-0.111457,0.169882,-0.809954,-0.131569,-0.0057877,0.0304146,-0.05903,-0.0106371,-0.0371276
-0.111997,0.167705,-0.810121,-0.0917227,-0.0276719,-0.0203772,-0.0510442,-0.0140337,-0.0417828
-0.112612,0.166364,-0.810871,-0.0615199,-0.0234709,-0.0366888,-0.0384388,-0.0270294,-0.0433838
-0.112999,0.165448,-0.811673,-0.0440745,-0.0150067,-0.0340686,-0.0251792,-0.0332273,-0.0428951
-0.113248,0.164799,-0.812317,-0.0306986,-0.0198414,-0.0236345,-0.0134792,-0.0347074,-0.0473486
-0.113939,0.164562,-0.812901,0.000123818,-0.0563446,-0.0351311,-0.00867725,-0.0292951,-0.0539333
-0.115243,0.165059,-0.813794,0.0440598,-0.0823246,-0.0592307,-0.00438835,-0.0212971,-0.0513995
-0.116839,0.166646,-0.814984,0.097022,-0.092986,-0.0681892,0.00828415,-0.0200683,-0.0364001
-0.118416,0.168934,-0.815916,0.114584,-0.0886386,-0.0484927,0.0229361,-0.0235802,-0.0139517
-0.120303,0.171269,-0.816437,0.100415,-0.0993261,-0.0252771,0.0299697,-0.0243453,0.0177829
-0.122007,0.172748,-0.816257,0.0467971,-0.0714559,0.0253202,0.0340933,-0.0269472,0.0414222
-0.12353,0.17317,-0.815384,0.00840103,-0.0612947,0.0553618,0.0312393,-0.0237394,0.0464919
-0.124185,0.17296,-0.813931,-0.00969373,0.0226762,0.0897483,0.0269096,-0.0154471,0.0474247
-0.123535,0.172632,-0.811976,-0.000711183,0.0516595,0.0993123,0.0109009,-0.00815621,0.0269298
-0.123535,0.172632,-0.811976,-0.000711183,0.0516595,0.0993123,0.0109009,-0.00815621,0.0269298
-0.123043,0.172703,-0.81025,0.0195784,0.0239055,0.0763256,0.00909105,0.0100112,0.0150601
-0.122522,0.17306,-0.808769,0.0195134,0.0433077,0.071715,0.00311124,0.009996,0.0142076
-0.122051,0.17318,-0.807192,0.00625301,0.0186136,0.0847,0.0101857,0.00678793,0.00801814
-0.122339,0.173131,-0.805272,0.00600386,-0.00945207,0.106475,0.0146344,0.00904407,-0.000431001
-0.12282,0.172741,-0.802856,-0.0184721,-0.00632187,0.136254,0.00806312,0.00644729,0.00360596
-0.123292,0.171527,-0.800266,-0.067271,0.00655584,0.130526,-0.00345832,0.00998171,0.0101181
-0.123163,0.169659,-0.79793,-0.0777774,0.0402983,0.118509,-0.0166375,0.00960578,-0.00485611
-0.122792,0.168184,-0.796111,-0.0389973,0.00828651,0.0748465,-0.0258819,0.0189392,-0.0273463
-0.123098,0.167877,-0.795121,0.0138498,-0.0279075,0.0372748,-0.0232409,0.0192773,-0.0332529
-0.123887,0.168213,-0.794439,0.0276023,-0.0364772,0.0274979,-0.0180054,0.00608924,-0.0219908
-0.124967,0.168485,-0.793804,0.0146326,-0.051463,0.029707,-0.0070214,-0.000127032,-0.00977808
-0.126126,0.168437,-0.793133,0.00807554,-0.0330198,0.0345534,0.000537857,-0.00543839,-0.00469482
-0.126972,0.168532,-0.792309,0.0301016,-0.0311297,0.0444278,0.00798541,-0.0109296,-0.00985122
-0.127896,0.169106,-0.791168,0.0451518,-0.0397881,0.0578925,0.0164298,-0.0105622,-0.00781965
-0.129158,0.169801,-0.789725,0.0413948,-0.0583404,0.0738097,0.0195554,-0.0147751,0.00107527
-0.130702,0.170352,-0.788037,0.034626,-0.0622364,0.0843508,0.0189464,-0.0149952,0.0117568
-0.132038,0.170794,-0.786233,0.0341856,-0.0439165,0.0906696,0.0171445,-0.0157041,0.0158129
-0.132785,0.171178,-0.784327,0.027103,-0.0189665,0.0940936,0.0101753,-0.0180573,0.0200455
-0.133294,0.171441,-0.782257,0.0219108,-0.0210181,0.106994,0.0160073,-0.0206509,0.0159976
-0.134212,0.171655,-0.77977,0.0156337,-0.0424556,0.134674,0.0176464,-0.0203027,0.0158865
-0.135373,0.171586,-0.776993,0.00127882,-0.0398739,0.136082,0.00866477,-0.0203401,0.0251592
-0.13638,0.171363,-0.774306,0.00605446,-0.0194038,0.133448,0.00251146,-0.0173403,0.0232162
-0.136803,0.171346,-0.771587,0.0144825,0.00929468,0.135895,0.00139949,-0.0172509,0.0175776
-0.136901,0.171266,-0.768888,-0.00529547,0.0210175,0.134021,-0.00102052,-0.015285,0.0204008
-0.136788,0.170544,-0.766151,-0.0369599,0.0279825,0.148054,-0.00657752,-0.0185291,0.0140375
-0.136927,0.169437,-0.763168,-0.0414168,0.00531776,0.150867,-0.0110854,-0.0162177,-0.00424349
-0.137545,0.168612,-0.760564,-0.0202703,-0.0206711,0.113477,-0.0236916,-0.00328282,-0.0114527
-0.138347,0.168416,-0.75873,0.0114123,-0.0304823,0.0704754,-0.032426,0.00033927,-0.0140618
-0.139307,0.168976,-0.757567,0.0362765,-0.0319803,0.0463953,-0.0261461,-0.00133646,-0.00639707
-0.139929,0.169691,-0.756661,0.0287387,-0.0139013,0.0384913,-0.0263031,-0.0110391,0.00581908
-0.140358,0.169929,-0.755846,0.00171594,-0.00430522,0.0338152,-0.0245621,-0.0120703,0.0133647
-0.140636,0.169682,-0.755388,-0.0101763,0.00541787,0.0119245,-0.0242393,-0.00637798,0.00703526
-0.140764,0.169564,-0.755366,0.00579122,-0.00750137,-0.00949764,-0.0194119,-0.00242019,-0.0120515
-0.141253,0.170023,-0.755696,0.0267662,-0.0262409,-0.0265127,-0.0110265,-0.00161716,-0.0146068
-0.142017,0.170837,-0.75614,0.0352883,-0.0436679,-0.0310917,-0.00630294,-0.00459884,-0.00867003
-0.143169,0.17163,-0.75663,0.027849,-0.0577277,-0.0268078,0.0018211,-0.00422928,0.00461513
-0.144213,0.171885,-0.756989,-0.00461111,-0.0389139,-0.0123695,0.00260338,-0.00931948,0.0187072
-0.144741,0.171654,-0.757127,-0.013333,-0.0144195,0.00241496,0.00553498,-0.0123085,0.0144598
-0.145071,0.171372,-0.756888,-0.00977069,-0.0113044,0.0179122,0.00683999,-0.00741321,0.0101422
-0.145182,0.171096,-0.756717,-0.016218,0.00201048,0.000842237,-0.00345075,-0.0018411,0.00936413
-0.145028,0.170803,-0.756803,-0.0191288,0.00502704,-0.00254945,-0.00142777,-0.000299245,0.00623125
-0.145023,0.170516,-0.757002,-0.0224234,-0.00313829,-0.0116394,-0.00212678,-0.00145125,0.00594425
-0.144756,0.170143,-0.757295,-0.0287476,0.0109365,-0.01343,-0.00767294,-0.00404748,0.00219977
-0.144521,0.169701,-0.757778,-0.026982,0.00732324,-0.0322158,-0.00920427,-0.000622347,-0.00448298
-0.144124,0.169339,-0.75853,-0.0199615,0.0189432,-0.0354838,-0.0110773,-0.00183348,-0.0116449
-0.143635,0.169281,-0.759252,0.00220015,0.0201791,-0.0330558,-0.00749446,-0.00501911,-0.0193632
-0.14326,0.169592,-0.759889,0.015221,0.00651079,-0.0381118,-0.0056399,-0.00343001,-0.0194387
-0.143268,0.170264,-0.760751,0.0326395,-0.0113876,-0.0608283,-0.00960098,0.00151904,-0.01737
-0.143307,0.171161,-0.761924,0.0385338,0.000674333,-0.0681592,-0.000917494,0.00211318,-0.00481582
-0.143071,0.171982,-0.763065,0.0231757,0.00502,-0.0565692,0.00565374,-0.00704159,0.00582069
-0.143041,0.172349,-0.763809,-0.000909667,-0.00758597,-0.0181777,0.0192407,-0.00892277,0.0147196
-0.143307,0.172049,-0.763921,-0.0296443,-0.00747043,0.0115503,0.016349,-0.0134149,0.0225151
-0.143166,0.171193,-0.763693,-0.0403777,0.0269475,0.0171613,0.0085572,-0.00783384,0.0228779
-0.142417,0.170562,-0.763542,-0.019314,0.047042,0.00516327,0.00114344,-0.000612989,0.0119961
-0.142417,0.170562,-0.763542,-0.019314,0.047042,0.00516327,0.00114344,-0.000612989,0.0119961
-0.141453,0.170515,-0.763546,0.00430295,0.0427486,-0.000871241,0.00105834,-0.00105643,-0.00118244
-0.140591,0.170795,-0.763651,0.0041734,0.0386355,-0.00962414,-0.00302389,-0.00172633,0.00210935
-0.139703,0.170827,-0.763825,-0.0112349,0.0461944,-0.00175302,-0.00395192,-0.00711155,0.00163108
-0.138879,0.170621,-0.763712,-0.0125556,0.0340035,0.0180374,0.000406414,-0.0122274,-0.00388265
-0.138284,0.170286,-0.763326,-0.0140418,0.0344987,0.0214068,-0.00584322,-0.00970465,-0.00662911
-0.137677,0.170074,-0.763095,-0.0048414,0.0383494,0.00147202,-0.0159675,-0.00390129,-0.00854075
-0.136769,0.170219,-0.763219,0.0175259,0.0518437,-0.012252,-0.0194363,-0.00545256,-0.017552
-0.135911,0.17096,-0.763527,0.0435628,0.025079,-0.0264834,-0.0193296,-0.00551575,-0.0255421
-0.135599,0.172108,-0.764104,0.0526797,0.00243456,-0.0424456,-0.0189431,-0.00406353,-0.0194387
-0.135562,0.173195,-0.764856,0.0431336,-0.00968403,-0.0481243,-0.0159835,-0.00699085,-0.00762534
-0.135952,0.173954,-0.765707,0.0261591,-0.0391354,-0.0480694,-0.0104329,-0.00894389,0.00362164
-0.136674,0.174527,-0.766641,0.0160123,-0.0242009,-0.0534047,-0.0115275,-0.00940174,0.0179377
-0.136246,0.174845,-0.767748,0.00611949,0.0534902,-0.0635431,-0.0177813,-0.0105232,0.0266073
-0.13457,0.175264,-0.769065,0.0217223,0.0935851,-0.0710133,-0.0127126,-0.00690629,0.0150391
-0.132437,0.17616,-0.770343,0.0438628,0.0933309,-0.0703486,-0.00590351,-0.00329298,-0.00238419
-0.130878,0.177358,-0.771569,0.0433526,0.0497494,-0.0683484,-0.00140998,0.00131927,-0.00779313
-0.130121,0.178164,-0.772837,0.00517235,0.0264633,-0.0700891,0.00146469,0.002235,0.00253838
-0.129416,0.178143,-0.774211,-0.025564,0.0394563,-0.0685316,-0.000977904,0.000139117,0.00563782
-0.128337,0.177844,-0.775572,-0.0155962,0.0456799,-0.0628787,0.00253789,0.00204223,-0.00546467
-0.12734,0.178012,-0.776857,0.0146774,0.0407156,-0.0646364,0.00293426,0.00551839,-0.0091837
-0.126292,0.178523,-0.778031,0.0174364,0.039777,-0.0595897,0.00334884,0.0050607,0.0029875
-0.125215,0.178871,-0.779308,-0.000129581,0.0579272,-0.0740904,-0.00656027,0.00673053,0.01815
-0.123598,0.17895,-0.780948,-0.00858326,0.0687588,-0.0858165,-0.00934581,0.00750975,0.0152055
-0.1221,0.178913,-0.78277,-0.0147304,0.0444245,-0.0935133,-0.00452127,0.0077785,0.0143093
-0.120889,0.17863,-0.7847,-0.0346225,0.046094,-0.0905423,-0.00727042,0.00347142,0.0200122
-0.119437,0.17799,-0.786691,-0.0451236,0.0731803,-0.0987057,-0.0115283,-0.000301689,0.017458
-0.117423,0.177364,-0.788784,-0.0346518,0.0917854,-0.100533,-0.0107221,-0.0018484,0.00292474
-0.115639,0.177033,-0.790889,-0.0207448,0.0558641,-0.100408,-0.00740881,-0.00225067,-0.0141624
-0.114733,0.176952,-0.79287,-0.00809407,0.0126707,-0.0956946,-0.00475308,-0.00268078,-0.0197831
-0.11443,0.177131,-0.794777,0.00205665,0.000373211,-0.0935547,-0.00454929,-0.00538822,-0.0164387
-0.114039,0.177466,-0.796661,0.00635129,0.0181863,-0.0986334,-0.00724295,-0.00470784,-0.0101668
-0.113185,0.177998,-0.798679,0.0247386,0.0340268,-0.105402,-0.00492938,-0.0061072,-0.0109127
-0.11205,0.178926,-0.800627,0.0442977,0.0479848,-0.0978686,0.00160141,-0.00574321,-0.0141093
-0.110641,0.180056,-0.802482,0.0481381,0.0595828,-0.0981659,0.00270382,-0.00342593,-0.0131792
-0.109329,0.181359,-0.804337,0.0635625,0.04126,-0.0969085,0.0121684,-0.00171636,-0.0194655
-0.108358,0.183026,-0.806016,0.0813948,0.0298043,-0.0860681,0.0210736,0.00132692,-0.0168849
-0.107598,0.184911,-0.807408,0.0892334,0.02209,-0.0695063,0.024734,0.00107357,-0.00910568
-0.107073,0.186799,-0.808449,0.0873136,0.00874576,-0.0554495,0.0276322,0.00646907,-0.0041635
-0.106729,0.188503,-0.8094,0.0731245,0.00895773,-0.0571886,0.0204563,0.0108906,0.00968599
-0.106082,0.18977,-0.810454,0.0512116,0.0199671,-0.0565521,0.0135745,0.0100589,0.0159101
-0.105375,0.19088,-0.811387,0.0597944,0.0206985,-0.0460992,0.0159747,0.0117593,0.00866401
-0.10453,0.19218,-0.812066,0.070052,0.0345078,-0.0363335,0.00856186,0.0178733,0.0111139
-0.103666,0.19352,-0.812649,0.0611736,0.0241721,-0.0295335,0.00602922,0.01667,0.0210481
-0.10307,0.194459,-0.813071,0.0277484,0.0290975,-0.019055,0.00461935,0.015471,0.0342492
-0.102243,0.194466,-0.813226,-0.0228012,0.042093,0.00807979,0.00524715,0.0119839,0.0452562
-0.101408,0.193402,-0.812923,-0.0740853,0.0402328,0.0316317,0.0059477,0.0124196,0.0418815
-0.100697,0.191479,-0.81232,-0.104406,0.0449185,0.0425547,-0.00507043,0.0144836,0.0330253
-0.100145,0.189325,-0.811787,-0.103873,0.0220783,0.0286332,-0.0159602,0.0195405,0.0195844
-0.0998921,0.187411,-0.811641,-0.0869043,0.0111921,0.00260605,-0.0247313,0.0224521,0.0123363
-0.0994251,0.185735,-0.812127,-0.0867559,0.0348479,-0.031932,-0.0336867,0.0229409,0.014614
-0.0981531,0.184001,-0.813221,-0.0967429,0.0674683,-0.0547814,-0.0292385,0.0154993,0.0133608
-0.0964805,0.182095,-0.814651,-0.0966128,0.0690065,-0.0612349,-0.0186499,0.00730813,-0.00456679
-0.0956939,0.180457,-0.815982,-0.072258,-0.0135573,-0.0502063,0.000231147,0.00185139,-0.0303216
-0.0967162,0.179254,-0.817043,-0.058769,-0.0773116,-0.0465666,0.00802789,-0.000537187,-0.0249093
-0.0967162,0.179254,-0.817043,-0.058769,-0.0773116,-0.0465666,0.00802789,-0.000537187,-0.0249093
-0.0983001,0.178074,-0.818107,-0.0651175,-0.0725945,-0.0447433,0.0104845,-0.00700922,0.000492692
-0.0993927,0.176716,-0.81889,-0.0808089,-0.0389375,-0.0122637,0.0234345,-0.0145866,0.0180048
-0.100028,0.174793,-0.818884,-0.111516,-0.0315741,0.0314936,0.0330164,-0.0207369,0.0261811
-0.100693,0.171944,-0.818168,-0.164311,-0.0272216,0.0637253,0.030025,-0.0187972,0.0345084
-0.101313,0.168115,-0.817165,-0.207778,-0.0240836,0.0661118,0.0153783,-0.0134775,0.0321771
-0.10165,0.163773,-0.816553,-0.223896,-0.00812074,0.0347596,0.000751734,-0.00709356,0.0219011
-0.101339,0.159708,-0.81681,-0.198748,0.0261571,-0.018024,-0.0149291,-0.00629908,0.00616497
-0.100091,0.156414,-0.817987,-0.154777,0.0657759,-0.0638583,-0.0175374,-0.0097657,-0.0122229
-0.098165,0.154084,-0.820133,-0.110194,0.0849528,-0.122626,-0.0179456,-0.0115639,-0.0239137
-0.0958156,0.152797,-0.823311,-0.0556297,0.102853,-0.174298,-0.0178418,-0.0184202,-0.0352729
-0.0931974,0.1526,-0.827164,-0.00284548,0.0994963,-0.199676,-0.00994767,-0.0275718,-0.0485029
-0.0910991,0.153385,-0.831179,0.0431967,0.053467,-0.199651,0.0086825,-0.0364552,-0.0554807
-0.0901588,0.154915,-0.834794,0.0706636,-0.00908523,-0.170676,0.0204923,-0.0416727,-0.0425385
-0.0902223,0.156745,-0.837658,0.0841527,-0.0333174,-0.130363,0.0251068,-0.0422452,-0.0132708
-0.0902304,0.158675,-0.839701,0.088158,0.00809697,-0.0880933,0.0199301,-0.036387,0.0116951
-0.0893817,0.160542,-0.840895,0.0834004,0.0531735,-0.0468873,0.0120193,-0.0282111,0.0212251
-0.0881939,0.162362,-0.841398,0.0890517,0.0476736,-0.0184009,0.00502735,-0.0125605,0.0130574
-0.0875435,0.164184,-0.841531,0.0813903,0.00932426,-0.0106406,-0.00229078,0.00463405,0.00605899
-0.0873918,0.165782,-0.841728,0.0700035,0.00393271,-0.0233162,-0.0117707,0.0162196,-0.00502306
-0.0870246,0.167554,-0.842223,0.0954975,0.0291472,-0.0372299,-0.01086,0.0229417,-0.024068
-0.0859222,0.170161,-0.842771,0.152217,0.0728093,-0.0380036,-0.00398487,0.0270987,-0.0405087
-0.0841841,0.173676,-0.843138,0.188762,0.0961848,-0.0268268,0.00666317,0.0305773,-0.0417711
-0.0822914,0.177174,-0.843198,0.167631,0.0916868,-0.0103694,0.0196325,0.0295045,-0.0336185
-0.0810254,0.179849,-0.842612,0.115092,0.0481593,0.0498555,0.0367999,0.0222954,-0.0291532
-0.0809902,0.181235,-0.840682,0.0546097,-0.00967279,0.124933,0.0531484,0.0185774,-0.0233408
-0.0823161,0.181464,-0.837325,0.0062467,-0.0580256,0.199186,0.0590988,0.0191083,-0.0155995
-0.0843696,0.180753,-0.832775,-0.0297792,-0.0647948,0.248372,0.0505938,0.0250159,0.00694293
-0.0860666,0.179317,-0.827811,-0.0649646,-0.019631,0.251636,0.0300472,0.0304996,0.0322952
-0.0863748,0.17724,-0.823046,-0.0960601,0.0581971,0.231857,0.01204,0.0301496,0.0460484
-0.0851711,0.174787,-0.818879,-0.106459,0.110993,0.199015,-0.00402707,0.0311681,0.0413593
-0.0833701,0.172558,-0.815633,-0.0770264,0.107046,0.140382,-0.0100653,0.0314899,0.0193095
-0.0815976,0.171362,-0.813586,-0.0171561,0.108474,0.0719266,-0.0162444,0.0324783,0.00795382
-0.0789723,0.171475,-0.812922,0.0370331,0.167887,-0.00363519,-0.0233868,0.0243806,0.0127197
-0.0748817,0.172553,-0.813424,0.0724245,0.234681,-0.0470601,-0.0158378,0.0129149,0.0222144
-0.0696407,0.174212,-0.814262,0.0898427,0.280596,-0.0400338,0.00587861,-0.00528756,0.0218439
-0.0634513,0.17593,-0.814471,0.0808345,0.345537,0.00743008,0.0137239,-0.0220743,0.019433
-0.0561335,0.177074,-0.813541,0.0428049,0.411824,0.0725817,0.018804,-0.0321475,0.00396156
-0.0480927,0.177415,-0.811278,0.0108365,0.434732,0.143162,0.0227834,-0.0337198,-0.038075
-0.0406114,0.177452,-0.807617,0.013602,0.377187,0.22088,0.0342864,-0.0320658,-0.0883685
-0.0349823,0.17764,-0.802399,0.0221023,0.275311,0.297859,0.0440836,-0.0279434,-0.105984
-0.031195,0.177748,-0.795625,0.0167697,0.236002,0.363648,0.0290353,-0.0314692,-0.102004
-0.0282333,0.178319,-0.787942,0.0720876,0.189628,0.381763,0.0169787,-0.0161976,-0.0979445
-0.0264005,0.180418,-0.780267,0.160482,0.123304,0.373496,0.0180649,0.00127915,-0.0777923
-0.0257682,0.18392,-0.772589,0.201527,0.0913276,0.373882,0.0160534,0.00373182,-0.0207779
-0.0253213,0.187593,-0.764698,0.177688,0.106993,0.394305,0.0191981,-0.000288665,0.0486237
-0.0243717,0.190453,-0.756311,0.129438,0.147786,0.424507,0.0157042,-0.00846583,0.0932909
-0.0230016,0.19229,-0.747187,0.0756221,0.16103,0.465174,0.0149462,-0.0110415,0.116701
-0.0215012,0.192854,-0.737416,0.00106191,0.18611,0.492526,0.0020885,-0.0120749,0.131183
-0.0192799,0.191989,-0.727316,-0.0576977,0.225392,0.501292,-0.00991461,-0.0123588,0.121321
-0.016448,0.190349,-0.717111,-0.0873465,0.246375,0.505285,-0.013284,0.000389531,0.0926758
-0.0138074,0.18826,-0.707138,-0.111096,0.213299,0.486923,-0.0167562,0.00528009,0.0630484
-0.011515,0.18552,-0.697265,-0.148571,0.191235,0.486325,-0.023656,0.00402257,0.038363
-0.00986573,0.182207,-0.687884,-0.164993,0.14947,0.442238,-0.0221886,0.0137196,0.00843805
-0.00860844,0.179018,-0.67939,-0.148816,0.140039,0.398689,-0.0220468,0.0167015,-0.0156359
-0.00860844,0.179018,-0.67939,-0.148816,0.140039,0.398689,-0.0220468,0.0167015,-0.0156359
-0.00684847,0.176173,-0.671834,-0.12526,0.166762,0.343024,-0.0278798,0.0125128,-0.0262131
-0.00463239,0.173829,-0.665444,-0.108554,0.162128,0.292457,-0.0188597,0.0155609,-0.0406088
-0.00241697,0.171781,-0.659879,-0.0947539,0.136518,0.248544,-0.0142355,0.0081571,-0.0468255
-0.00136147,0.170142,-0.655412,-0.0674631,0.0483895,0.192479,-0.00518897,0.01031,-0.0471396
-0.00146058,0.16911,-0.652002,-0.038143,0.0133032,0.14199,-0.006327,0.00665303,-0.0279531
-0.00116466,0.168606,-0.649575,-0.0188657,0.064225,0.100657,-0.00849543,-0.00814082,0.00437367
0.000307554,0.16818,-0.64763,-0.0249449,0.111148,0.0945048,-0.000944104,-0.0220952,0.0233055
0.00241202,0.167517,-0.645652,-0.0386426,0.128077,0.099307,-0.00143223,-0.0331094,0.0257328
0.00442202,0.166544,-0.64374,-0.0577523,0.110025,0.0888537,-0.0113036,-0.0358395,0.0267271
0.00637954,0.165347,-0.642157,-0.063631,0.119969,0.0668731,-0.0252134,-0.037829,0.0210856
0.00888037,0.164344,-0.640928,-0.0401537,0.146582,0.0583159,-0.0320303,-0.0382383,0.00470603
0.0113319,0.164121,-0.639446,-0.0135313,0.098823,0.0902619,-0.0204872,-0.0425479,-0.0237853
0.0111643,0.163732,-0.636929,-0.0502939,-0.0887824,0.162888,0.008959,-0.0601276,-0.0429462
0.00660089,0.162979,-0.633031,-0.0156089,-0.257013,0.210829,0.0047476,-0.0506777,-0.0533123
6.79802e-05,0.164517,-0.628549,0.185789,-0.291407,0.238059,-0.0109008,-0.0409816,-0.0969833
-0.00621685,0.170392,-0.623138,0.384574,-0.238957,0.312388,-0.0140759,-0.0377978,-0.0859271
-0.0109103,0.178869,-0.615248,0.472946,-0.0895195,0.48755,0.00193166,-0.0795906,-0.0591191
-0.0153263,0.189665,-0.601639,0.650864,-0.168934,0.867091,0.0883236,-0.145317,-0.102688
-0.0246734,0.202939,-0.579832,0.629473,-0.211964,1.22136,0.15951,-0.148793,-0.0717076
-0.0305408,0.212498,-0.553322,0.448922,0.0607751,1.3324,0.218021,-0.0650684,0.0151068
-0.0359898,0.220601,-0.524573,0.436856,0.132697,1.46416,0.164016,0.0328727,0.0839294
-0.0322057,0.225169,-0.492056,0.0805348,0.966951,1.66684,0.205612,0.248616,0.258202
-0.0229986,0.223774,-0.464053,-0.0535359,0.292613,0.908639,-0.21862,0.0712306,0.322847
-0.03773,0.224085,-0.456475,0.104437,-1.03224,-0.12363,-0.374385,-0.0547173,0.0103757
-0.0578101,0.227309,-0.463377,0.205468,-1.04427,-0.391551,-1.32956e-05,0.0546262,0.114174
-0.07437,0.232368,-0.467445,0.255154,-0.621771,-0.0181085,0.260278,0.0868194,0.144552
-0.0780377,0.235391,-0.463138,0.0726359,0.536107,0.629196,0.551578,0.180168,0.203839
-0.0568788,0.236821,-0.438911,0.252726,2.01311,1.7024,0.590647,0.127649,0.252026
-0.0142339,0.239271,-0.395604,0.0490852,3.37329,2.41466,0.419757,0.151683,0.506325
0.0592073,0.231777,-0.365261,-0.695496,5.18811,0.490761,-1.39574,-0.207274,0.770352
0.167806,0.216474,-0.375107,-0.462134,4.63463,-1.53965,-0.848806,-0.195369,0.52828
0.253547,0.206212,-0.408172,0.181262,3.03775,-1.58371,-0.230114,-0.0632211,0.334879
0.308902,0.208118,-0.435117,0.683408,2.2182,-0.837646,-0.0069558,-0.0265811,0.186551
0.353182,0.221782,-0.449672,1.06961,1.84267,-0.127517,0.196095,0.157727,0.270963
0.387847,0.243767,-0.462243,1.42202,1.37212,-0.396091,0.0639232,0.190365,0.324657
0.417637,0.265743,-0.488348,1.5311,0.967097,-1.00387,0.0103999,0.169639,0.394355
0.447064,0.280454,-0.520451,1.01437,1.29854,-1.13956,0.0259464,0.204389,0.478932
0.491009,0.280889,-0.547054,0.192763,2.38852,-1.15435,0.0146296,0.227482,0.557655
0.55427,0.266806,-0.569031,-0.275596,3.31824,-1.42203,0.0121511,0.235865,0.481043
0.631351,0.242972,-0.590834,-0.540924,3.79791,-1.63479,0.0686567,0.256198,0.375973
0.714427,0.209765,-0.609449,-0.944546,4.08792,-1.9139,0.0804902,0.31263,0.339617
0.800379,0.163015,-0.6246,-1.45155,4.24561,-2.42471,0.112832,0.398073,0.333839
0.887495,0.0992735,-0.634438,-2.05765,4.34945,-3.00865,0.118676,0.470342,0.321409
0.975233,0.0199147,-0.635496,-2.6018,4.45417,-3.39577,0.170409,0.579255,0.312191
1.06554,-0.0670368,-0.623866,-2.87139,4.57771,-3.40242,0.391441,0.695846,0.194217
1.15982,-0.151633,-0.603798,-2.58794,4.61017,-3.27527,0.528894,0.700464,-0.0707124
1.25434,-0.226292,-0.584352,-1.80571,4.51643,-3.02502,0.590165,0.63948,-0.262807
1.34521,-0.288087,-0.574472,-0.763722,4.32247,-2.69226,0.616088,0.67366,-0.38838
1.42789,-0.341899,-0.57921,0.143156,4.17361,-2.81371,0.5171,0.609502,-0.44428
1.50473,-0.400732,-0.594451,0.619703,4.03033,-3.16201,0.409053,0.462644,-0.423513
1.57207,-0.464699,-0.613902,0.937885,3.48713,-3.27256,0.486309,0.30975,-0.452084
1.62293,-0.529785,-0.636432,1.23156,2.67754,-3.16082,0.577511,0.124352,-0.515109
1.65434,-0.591298,-0.66399,1.5249,1.95712,-2.7911,0.608515,-0.0103509,-0.4796
1.6651,-0.64429,-0.698514,1.72628,1.17904,-2.23612,0.625383,-0.0997159,-0.427537
1.6651,-0.64429,-0.698514,1.72628,1.17904,-2.23612,0.625383,-0.0997159,-0.427537
1.65858,-0.685966,-0.737449,1.6829,0.595944,-1.6461,0.609406,-0.0904064,-0.242219
1.63952,-0.716291,-0.77621,1.50114,-0.0495888,-1.18491,0.49642,-0.111792,-0.125185
1.60898,-0.738971,-0.810263,1.13419,-0.612873,-0.974818,0.359369,-0.0697986,-0.0844926
1.57735,-0.757117,-0.834868,0.725069,-0.903962,-0.791883,0.287967,-0.0810549,0.0363725
1.54685,-0.770723,-0.849534,0.329383,-1.11389,-0.584264,0.235404,-0.102248,0.0444728
1.52026,-0.780222,-0.854139,-0.0321495,-1.21924,-0.36489,0.208607,-0.127631,0.0726487
1.4991,-0.785487,-0.848717,-0.384416,-1.2847,-0.150411,0.185428,-0.162324,0.10518
1.48398,-0.788551,-0.833719,-0.682939,-1.28749,-0.0968001,0.156851,-0.168287,0.0937573
1.47452,-0.793124,-0.811843,-0.885162,-1.20054,-0.234318,0.0949002,-0.184976,0.0598301
1.47147,-0.801495,-0.785417,-1.02839,-0.979386,-0.415139,0.0782273,-0.19258,0.0405564
1.47566,-0.813136,-0.757038,-1.00689,-0.645192,-0.538345,0.116421,-0.205343,-0.0121905
1.4837,-0.825843,-0.73303,-0.714004,-0.319134,-0.566765,0.190324,-0.210767,-0.124332
1.48955,-0.837047,-0.71958,-0.274746,-0.100074,-0.460102,0.2724,-0.226937,-0.203987
1.48972,-0.8442,-0.719652,0.217547,0.127269,-0.245002,0.314812,-0.259678,-0.233737
1.48453,-0.845725,-0.732776,0.615943,0.328167,0.0162112,0.337492,-0.256005,-0.202292
1.47578,-0.841672,-0.755059,0.888942,0.446128,0.249319,0.333157,-0.228745,-0.15121
1.46411,-0.832664,-0.783365,1.07385,0.482475,0.464352,0.323107,-0.214581,-0.106459
1.45139,-0.818606,-0.813723,1.11269,0.475844,0.70829,0.299408,-0.205429,-0.0506272
1.44039,-0.799098,-0.841571,1.03298,0.441069,0.991096,0.274358,-0.187888,-0.0142655
1.43215,-0.774422,-0.86467,0.910667,0.370479,1.21779,0.236736,-0.1614,0.00696325
1.4264,-0.747037,-0.881921,0.697495,0.233693,1.30016,0.180348,-0.109461,0.0482457
1.42287,-0.71972,-0.891591,0.406308,0.0631745,1.29775,0.121106,-0.0594123,0.0821921
1.42141,-0.693534,-0.893433,0.128909,-0.0881623,1.27968,0.0671638,-0.0457686,0.0742715
1.42116,-0.668231,-0.889028,-0.0735751,-0.209367,1.28129,0.0252138,-0.027878,0.0438813
1.42084,-0.643183,-0.881144,-0.152631,-0.292806,1.28844,-4.23789e-05,-0.00921559,0.00385135
1.41993,-0.618693,-0.872635,-0.154532,-0.291101,1.23057,-0.0371491,0.0200809,-0.015882
1.41882,-0.596072,-0.864818,-0.135992,-0.263776,1.09373,-0.0698094,0.0675101,-0.00963461
1.41769,-0.576481,-0.858461,-0.0919711,-0.1971,0.930469,-0.0972095,0.0910468,-0.00533104
1.41706,-0.559733,-0.853729,-0.0419734,-0.116616,0.791018,-0.100052,0.10611,-0.00845189
1.41705,-0.54515,-0.851007,0.0422389,-0.0328838,0.694265,-0.105507,0.10508,-0.0242045
1.41712,-0.531832,-0.850747,0.134214,0.0211421,0.631023,-0.0995553,0.108319,-0.032667
1.41699,-0.519335,-0.852333,0.183921,0.0363497,0.581133,-0.0976468,0.117344,-0.0206843
1.41624,-0.508063,-0.854768,0.198329,0.00587784,0.499967,-0.109918,0.131297,-0.00874077
1.41462,-0.498633,-0.857558,0.1835,-0.0372358,0.398287,-0.125361,0.138184,0.00627917
1.41244,-0.491225,-0.860149,0.162031,-0.0523476,0.297503,-0.138255,0.142444,0.0221499
1.41008,-0.486031,-0.863307,0.205994,-0.0303791,0.164832,-0.150234,0.142499,0.0128489
1.40768,-0.483484,-0.868372,0.27813,0.0300026,0.0190606,-0.154268,0.14434,0.019026
1.40561,-0.483351,-0.875514,0.351307,0.0942534,-0.107919,-0.138343,0.139682,0.0316171
1.40399,-0.485288,-0.88463,0.409062,0.169069,-0.208101,-0.132075,0.118132,0.0383737
1.40303,-0.488785,-0.89499,0.435789,0.221097,-0.285326,-0.119623,0.103612,0.0507206
1.4027,-0.493449,-0.906103,0.455497,0.268191,-0.339458,-0.104558,0.0868655,0.0560829
1.40287,-0.49899,-0.917674,0.44835,0.29588,-0.378156,-0.0914539,0.075462,0.0668008
1.40364,-0.505268,-0.928684,0.394721,0.307991,-0.405925,-0.0747477,0.0669068,0.0813147
1.40509,-0.512302,-0.938141,0.297775,0.29353,-0.424305,-0.0583332,0.0601075,0.089862
1.40725,-0.519924,-0.945095,0.170499,0.26638,-0.429647,-0.0453783,0.0469021,0.0919568
1.40997,-0.528247,-0.949083,0.0405278,0.201755,-0.453169,-0.0278387,0.0481495,0.080173
1.41249,-0.537438,-0.950614,-0.0469996,0.133134,-0.47401,-0.016571,0.0379286,0.050382
1.41422,-0.547114,-0.950711,-0.0921179,0.044171,-0.484881,0.00524908,0.0317467,0.0250819
1.41488,-0.557004,-0.949944,-0.117319,-0.00700594,-0.482668,0.0190129,0.0232342,0.00575769
1.41516,-0.566694,-0.949054,-0.104674,-0.0077546,-0.461065,0.0270825,0.00976992,-0.0133542
1.41531,-0.575748,-0.948912,-0.039302,0.0239095,-0.432506,0.0386127,-0.00123465,-0.0293317
1.41544,-0.583714,-0.950787,0.064866,0.0931534,-0.38031,0.0472409,-0.0186713,-0.0430952
1.41564,-0.590484,-0.954843,0.160123,0.152468,-0.344113,0.051912,-0.017747,-0.0392961
1.41564,-0.590484,-0.954843,0.160123,0.152468,-0.344113,0.051912,-0.017747,-0.0392961
1.41611,-0.596378,-0.961018,0.252474,0.245323,-0.316987,0.0397112,-0.0347786,-0.0408643
1.41728,-0.601472,-0.969036,0.321381,0.320122,-0.290756,0.0441096,-0.0326533,-0.0320207
1.41885,-0.605942,-0.978504,0.387009,0.379974,-0.271024,0.0475045,-0.0305656,-0.0360347
1.42057,-0.609709,-0.989633,0.460132,0.422373,-0.237048,0.0467188,-0.0381138,-0.0438079
1.42182,-0.612589,-1.00202,0.501163,0.413931,-0.205508,0.0504129,-0.0322176,-0.0374523
1.42254,-0.614878,-1.015,0.511291,0.408811,-0.17469,0.0347224,-0.0404061,-0.0343108
1.42332,-0.616278,-1.02758,0.483252,0.385226,-0.120154,0.0445232,-0.0305932,-0.0204976
1.42361,-0.617068,-1.03943,0.468792,0.331055,-0.100359,0.0343648,-0.0227991,-0.0194464
1.42297,-0.617621,-1.05087,0.450743,0.263508,-0.0934878,0.0302115,-0.0163225,-0.0163955
1.42113,-0.618205,-1.06178,0.422472,0.187843,-0.0962966,0.0253974,-0.0123436,-0.00318461
1.41857,-0.618881,-1.07164,0.358486,0.133967,-0.0935448,0.0224974,-0.0219427,0.02015
1.41634,-0.619526,-1.07963,0.27743,0.112046,-0.0658311,0.0207341,-0.0256262,0.0377447
1.41515,-0.619768,-1.08556,0.196946,0.114475,-0.0299605,0.0222282,-0.0274863,0.0425419
1.41508,-0.619498,-1.08982,0.160168,0.127538,0.000263331,0.0193353,-0.023406,0.0300183
1.41517,-0.61888,-1.0939,0.182536,0.117776,0.00267018,0.0139796,-0.0138853,0.00457428
1.41461,-0.618378,-1.09882,0.218421,0.113243,-0.0141045,0.00266922,-0.00767761,-0.00486378
1.41349,-0.618167,-1.10456,0.246312,0.109943,-0.0341149,-0.0012297,-0.00601053,-0.00122236
1.41217,-0.618157,-1.11089,0.267025,0.128163,-0.0433535,-0.0019359,-0.00914562,0.00765359
1.41096,-0.618206,-1.1177,0.281606,0.148074,-0.0486262,0.00277984,-0.0063929,0.012146
1.41007,-0.618418,-1.12487,0.289929,0.182279,-0.061889,0.00326186,-0.005162,0.0214216
1.40949,-0.618683,-1.13208,0.281724,0.163517,-0.0641948,0.0201359,-0.00167006,0.033517
1.40836,-0.619257,-1.13875,0.238035,0.117084,-0.0733429,0.0162185,-0.00175607,0.0376527
1.4074,-0.619769,-1.14391,0.169919,0.0890716,-0.0391081,0.0211549,-0.0164702,0.048812
1.407,-0.619791,-1.14732,0.105892,0.0636562,-0.00962707,0.0260581,-0.0128114,0.0424479
1.40689,-0.619395,-1.14921,0.0597142,0.0381256,0.0252426,0.0193607,-0.0132977,0.0373242
1.40732,-0.618496,-1.15017,0.046367,0.0397736,0.0438245,0.0108694,-0.0156778,0.0279996
1.40806,-0.617298,-1.15074,0.03932,0.0413171,0.046905,0.00920141,-0.00698048,0.0302921
1.40898,-0.616169,-1.15126,0.0413473,0.0564119,0.0408763,-0.00477731,-0.00500679,0.0201418
1.41001,-0.61504,-1.15207,0.0503055,0.0690431,0.0455295,-0.00230604,-0.00420684,0.015464
1.41112,-0.613945,-1.15304,0.0570501,0.085472,0.0362202,-0.00798768,0.000853419,0.0154292
1.41222,-0.613039,-1.15426,0.0648209,0.077076,0.0270305,-0.00798863,0.00286043,0.0124287
1.41297,-0.612461,-1.1556,0.0578562,0.0657508,0.0177429,-0.009314,0.00400531,0.0107783
1.41365,-0.612026,-1.1566,0.0343327,0.0482597,0.0110561,-0.00359023,0.00297225,0.0178655
1.41411,-0.611995,-1.15703,0.0110368,0.0230461,-0.00331181,-0.00728363,0.00727022,0.0125495
1.41451,-0.612049,-1.1571,-0.00232205,0.021533,0.00980383,-0.0026505,-0.00192893,0.0117927
1.41503,-0.611766,-1.15665,-0.0277295,-0.00206566,0.0259552,0.00969619,0.00272769,0.01387
1.4155,-0.611254,-1.15566,-0.0363593,-0.0127839,0.0413968,0.00487572,-0.00292647,0.00329728
1.41606,-0.610411,-1.15432,-0.0552828,-0.00997683,0.0589297,0.0042814,-0.000892758,0.00890177
1.41699,-0.609512,-1.15257,-0.0617949,-0.00182573,0.0449,0.00290781,0.0136682,0.00906587
1.41791,-0.609082,-1.15125,-0.0232523,0.0148963,0.013508,-0.00498819,0.0123881,-0.00683844
1.41837,-0.609032,-1.15137,0.034469,0.0369046,-0.0128752,-0.00215918,0.0106744,-0.0111266
1.4187,-0.609197,-1.1528,0.0757953,0.0800656,-0.0197879,-0.00470084,0.00117016,-0.00238991
1.4193,-0.609352,-1.15493,0.096404,0.0942479,-0.0215783,0.00194883,-0.00374782,0.00679338
1.41978,-0.609513,-1.15739,0.0930813,0.0965239,-0.0110483,0.000913382,-0.00883895,0.0109892
1.42057,-0.609253,-1.15918,0.0461507,0.0890596,0.0215532,0.00701624,-0.015233,0.0277619
1.42173,-0.608595,-1.15966,0.00106076,0.0592599,0.0403259,0.0035575,-0.0159447,0.026069
1.42318,-0.607655,-1.15893,-0.0450754,0.0405156,0.0608436,-0.00439745,-0.0166835,0.0193884
1.42476,-0.606601,-1.15723,-0.0729449,0.0204001,0.0583295,-0.00972962,-0.0111179,0.0124692
1.42635,-0.605664,-1.15515,-0.0751739,0.0144252,0.0535721,-0.0159702,-0.00702184,-0.00394344
1.42787,-0.604712,-1.15324,-0.0629579,0.0196065,0.0573041,-0.0148089,-0.00417864,-0.0144582
1.42933,-0.603639,-1.15162,-0.0513237,0.0266639,0.0615169,-0.0145134,0.000183046,-0.0196154
1.43034,-0.602695,-1.1504,-0.0357542,0.000847892,0.0439164,-0.0140465,0.0102984,-0.0250799
1.43074,-0.602053,-1.14944,-0.0428615,-0.0154874,0.0393064,-0.0114778,0.00881374,-0.0242729
1.43079,-0.601344,-1.14799,-0.0710457,-0.0495368,0.0482185,-0.00419152,0.0118552,-0.0193498
1.43079,-0.601344,-1.14799,-0.0710457,-0.0495368,0.0482185,-0.00419152,0.0118552,-0.0193498
1.43054,-0.600675,-1.14609,-0.0748475,-0.0682827,0.0441082,-0.0144694,0.00824094,-0.0305901
1.42976,-0.600257,-1.14466,-0.0363673,-0.0758035,0.0198295,-0.0182304,0.0175732,-0.0324602
1.42828,-0.600362,-1.14462,0.0251218,-0.0552085,-0.0166404,-0.0262542,0.0145417,-0.0356383
1.42677,-0.600719,-1.14601,0.0692042,-0.0142729,-0.023286,-0.0232059,0.00644964,-0.0220426
1.42546,-0.601065,-1.148,0.0742292,0.00137327,-0.0301564,-0.0179426,0.00262433,-0.00480765
1.42425,-0.6017,-1.14982,0.050457,-0.00938618,-0.040065,-0.0117819,0.000651777,0.00300591
1.42302,-0.60251,-1.15093,0.0182256,-0.0377692,-0.0373122,-0.00129128,-0.000382602,0.00856566
1.42172,-0.603185,-1.15124,-0.00897384,-0.059868,-0.0242632,-0.000418365,-0.00721014,0.0074026
1.42043,-0.603703,-1.15106,-0.0128179,-0.0768208,-0.0237138,0.000472665,-0.00273818,0.00314258
1.41892,-0.604307,-1.15104,0.00501393,-0.0729904,-0.0311542,-0.00299889,-0.000565231,-0.00262384
1.41755,-0.604867,-1.15142,0.020835,-0.0508504,-0.0282543,0.0084275,0.00346065,0.00537127
1.4165,-0.605329,-1.15212,0.0324402,-0.0233486,-0.0311726,0.00968921,0.0009287,0.00885211
1.41575,-0.605676,-1.15289,0.0238304,-0.0160557,-0.0172974,0.0165564,0.000994325,0.0132042
1.41496,-0.605899,-1.15338,0.0122415,-0.0373013,-0.013325,0.0163854,0.00207734,0.0130749
1.41388,-0.606099,-1.15364,0.00903254,-0.0577939,-0.0128204,0.0130502,0.00227952,0.0107151
1.41259,-0.606253,-1.15391,0.0150714,-0.0563736,-0.0109277,0.00846559,0.00248879,0.0129511
1.41139,-0.606433,-1.15427,0.0154152,-0.0449399,-0.0181538,0.00284851,0.00342369,0.0252299
1.41067,-0.606848,-1.15458,0.00717087,-0.0174686,-0.02743,-0.00576442,0.00097698,0.0320696
1.41057,-0.607528,-1.15473,0.0019168,0.00455737,-0.0448108,-0.00173801,0.00376087,0.0316869
1.41079,-0.608484,-1.15496,0.00458292,0.0217139,-0.0531559,0.000177264,-0.00250208,0.0235231
1.41108,-0.609452,-1.15519,0.00435343,0.00651379,-0.0478187,0.00996286,-0.00552368,0.0195812
1.41115,-0.610409,-1.15513,-0.0140482,-0.0152093,-0.0437166,0.01463,-0.00766635,0.0191001
1.41115,-0.611332,-1.15471,-0.0220428,-0.0229872,-0.0403121,0.0159765,-0.00942975,0.0201579
1.41114,-0.612115,-1.15435,-0.00575906,-0.0103376,-0.0328578,0.0151407,-0.0113521,0.0131584
1.41131,-0.612578,-1.15443,0.0106946,0.0187517,-0.0166003,0.0175014,-0.0154693,0.0119966
1.4118,-0.612626,-1.15472,0.0117409,0.0355119,-0.00221722,0.0176787,-0.0126552,0.0173647
1.41258,-0.612456,-1.15475,-0.00453416,0.0274074,0.00608253,0.0124161,-0.0121958,0.0201253
1.41314,-0.612356,-1.15419,-0.0353244,-0.00705336,-0.0021086,0.0122257,-0.00431645,0.0192375
1.41362,-0.612429,-1.15297,-0.0598455,-0.0144454,0.00343051,0.00372189,-0.0124024,0.0162647
1.4143,-0.612412,-1.15151,-0.052244,-0.0096539,0.00182115,0.00621921,-0.00887954,0.00993025
1.41503,-0.612494,-1.15052,-0.0264046,0.0182921,-0.00245456,0.00232828,-0.0115097,-0.00117517
1.416,-0.612341,-1.14997,-0.0146155,0.0338214,0.0150199,0.00974745,-0.0151536,0.00213999
1.4169,-0.612014,-1.1495,-0.0165179,0.0212331,0.0131654,0.00517642,-0.0102779,0.00115289
1.41757,-0.611758,-1.14893,-0.0226893,0.009411,0.0159536,0.000827014,-0.0132875,-0.00543963
1.41808,-0.611229,-1.1482,-0.0317627,0.00111925,0.0373173,0.00633776,-0.0109019,-0.00420773
1.41846,-0.610604,-1.14731,-0.0307758,-0.0113508,0.0226026,-0.000532746,-0.00155509,-0.00950598
1.41855,-0.610299,-1.14663,-0.0183099,-0.0115167,0.011518,-0.00529534,-0.00429529,-0.0127291
1.41863,-0.609961,-1.14631,-0.00274229,0.00229702,0.0206832,0.000271857,-0.00847411,-0.00926696
1.41848,-0.609527,-1.14631,0.0104157,-0.0137738,0.0153197,-0.000443637,-0.00402874,-0.0133498
1.41777,-0.609157,-1.14679,0.029264,-0.024962,0.0166739,-0.00170875,-0.00868422,-0.0155485
1.417,-0.608671,-1.14735,0.0164836,-0.0126602,0.0278286,0.00230902,-0.0075537,0.00441653
1.41682,-0.608025,-1.14747,0.000281558,0.00349896,0.0328806,-0.00273275,-0.00922096,0.0112419
1.41699,-0.607326,-1.14727,-0.00611826,0.00156013,0.0340729,-0.00140905,-0.00269598,0.00652665
1.41693,-0.606651,-1.14714,0.00246427,-0.0125971,0.0350224,-0.00478876,-0.00237012,-0.00481331
1.41646,-0.605902,-1.14706,-0.00121599,-0.0389072,0.0381445,0.000846148,-0.00119001,-0.00433099
1.41583,-0.605017,-1.14672,-0.00891514,-0.0495661,0.0488412,-0.00184524,-0.000569344,0.00112528
1.41522,-0.604152,-1.1461,-0.0233764,-0.048382,0.0442747,-0.00779289,0.00578827,0.00698918
1.41485,-0.603464,-1.14541,-0.0224149,-0.0267384,0.034208,-0.0134405,0.00937527,0.00593603
1.41466,-0.603063,-1.14503,-0.00262806,-0.0136648,0.00987349,-0.0147547,0.0151987,-0.00127368
1.41441,-0.603048,-1.14521,0.0180616,-0.00117904,-0.00529273,-0.0128085,0.0109847,-0.00485204
1.41404,-0.603158,-1.14578,0.0270743,-0.00985519,-0.00608381,-0.0070231,0.00538534,-0.00498925
1.41326,-0.603337,-1.14656,0.0305909,-0.0246126,-0.0132111,-0.0073269,0.000737131,-0.00324672
1.4123,-0.603594,-1.14724,0.0237786,-0.0326154,-0.00890095,-0.00125915,-0.000191748,0.00415494
1.41126,-0.603702,-1.1478,0.0163382,-0.0347972,0.00301499,0.00114924,-0.00415629,0.00891066
1.41126,-0.603702,-1.1478,0.0163382,-0.0347972,0.00301499,0.00114924,-0.00415629,0.00891066
1.41047,-0.603516,-1.14797,0.000889793,-0.0319903,0.0191802,0.00329918,-0.00232458,0.0132113
1.40993,-0.603135,-1.14767,-0.018081,-0.0378646,0.0278603,-0.00196916,0.00116295,0.0131104
1.40945,-0.602742,-1.14702,-0.0259006,-0.0491191,0.0186967,-0.00279677,0.00891733,0.0079065
1.40875,-0.602647,-1.14648,-0.012888,-0.0529536,-0.00575533,-0.00771755,0.0169915,0.00101584
1.40791,-0.603043,-1.14633,-0.000799286,-0.042534,-0.0302622,-0.0118083,0.0177788,0.00142096
1.40724,-0.6037,-1.1466,0.0190753,-0.016489,-0.0376495,-0.00806975,0.0123706,0.00254969
1.40666,-0.604441,-1.14736,0.0354545,-0.00442101,-0.0433545,-0.00661522,0.00973076,0.00252293
1.40594,-0.605355,-1.14845,0.0428211,-0.0123887,-0.0518041,-0.00142795,0.0070563,0.00389171
1.40501,-0.606318,-1.1495,0.026179,-0.0198402,-0.0483618,0.00122249,0.00173301,0.0131476
1.40424,-0.607224,-1.15016,0.0137521,-0.0231855,-0.0483962,0.00113451,-0.000552058,0.0208875
1.40366,-0.608199,-1.15059,0.0082852,-0.0096928,-0.0487695,0.00128949,-0.00206959,0.0216309
1.4034,-0.609086,-1.15093,0.00336317,-0.00519258,-0.0403259,0.00806588,-0.00322443,0.0216656
1.4034,-0.609842,-1.15087,-0.0130959,-0.00414513,-0.0329667,0.0072872,-0.00317365,0.0201872
1.40349,-0.610503,-1.15035,-0.0339159,-0.0244246,-0.0292045,0.00955522,-0.00279921,0.0189521
1.4035,-0.611143,-1.14947,-0.0390697,-0.0311863,-0.0272004,0.00666565,-0.000256538,0.0127794
1.40356,-0.611773,-1.14859,-0.0353411,-0.0182813,-0.0261345,0.0059613,-0.00312263,0.0101974
1.40387,-0.6123,-1.14779,-0.0329826,-0.0100686,-0.0261349,0.0116963,-0.00140244,0.0100691
1.40414,-0.612823,-1.14711,-0.0277204,-0.00756565,-0.0188498,0.00843072,-0.00717086,0.00282431
1.40448,-0.613064,-1.14639,-0.0321626,-0.0082758,-0.000618479,0.012046,-0.0101599,0.00722842
1.40474,-0.613094,-1.14535,-0.0463653,-0.030425,0.00306436,0.00845724,-0.00595814,0.00522847
1.40482,-0.613045,-1.14416,-0.0461173,-0.0337345,0.0143781,0.00332254,-0.0103886,0.00195207
1.40497,-0.612768,-1.1429,-0.0525622,-0.0308579,0.0181864,0.00296158,-0.00636303,0.00820071
1.4051,-0.612761,-1.14162,-0.0478677,-0.0298591,-0.00590265,-0.00908267,0.000402153,0.000412524
1.40527,-0.613032,-1.14069,-0.0312564,-0.00473508,-0.00882239,-0.00747263,-0.0030995,-0.00108063
1.40578,-0.613187,-1.14011,-0.0189364,0.0151182,-0.00876817,-0.00266147,-0.00397408,-2.39611e-05
1.40628,-0.613472,-1.13992,-0.000677193,0.0185587,-0.021439,-0.00313222,-0.00197953,-0.0121641
1.40644,-0.613888,-1.14009,0.00404971,0.002143,-0.0161919,0.00306374,-0.00570673,-0.0128977
1.4062,-0.614173,-1.14023,-0.000851067,-0.0144064,-0.0135195,0.00303066,-0.00784767,-0.00990081
1.40585,-0.614386,-1.14021,-0.00136639,-0.0190226,-0.0110787,0.00353408,-0.0072583,-0.00727393
1.40545,-0.614561,-1.14038,0.00772828,-0.00577755,-0.00739292,0.00153553,-0.00982779,-0.00780982
1.40515,-0.614599,-1.14089,0.0222248,0.00953552,-0.00427329,0.00274247,-0.00880605,-0.00590585
1.40496,-0.614588,-1.14149,0.0210192,0.00749307,-0.006087,0.00108331,-0.0104145,-0.000808045
1.40466,-0.614529,-1.14197,0.0166607,-0.00730446,0.0010997,0.00523973,-0.0103658,-0.000548944
1.40418,-0.614384,-1.14225,0.0050932,-0.0190176,0.0068339,0.0052067,-0.00995743,0.00174153
1.40377,-0.614157,-1.14231,0.00107597,-0.0144898,0.00993654,0.00374591,-0.00865835,0.00272501
1.40355,-0.613871,-1.14239,0.00961299,-0.00226395,0.00864532,-0.00105667,-0.00471622,0.000165179
1.40333,-0.613747,-1.14285,0.0290637,0.00440138,-0.00778478,-0.0026992,-0.000342607,-0.00371987
1.40289,-0.613737,-1.14376,0.0406576,0.00376694,-0.00961953,-0.000752568,-0.00124991,-0.00223391
1.40245,-0.613748,-1.14472,0.0376577,0.00648776,-0.00884897,0.00238073,-0.00370073,0.00344203
1.4021,-0.61373,-1.14558,0.031733,0.00521422,-0.00549078,0.00568449,-0.00495243,0.00659847
1.40183,-0.613714,-1.14634,0.0279134,0.0129618,-0.00129588,0.00572699,-0.00376433,0.0070733
1.40168,-0.613536,-1.14693,0.0210478,0.00733603,0.0111431,0.00569254,-0.00454992,0.00722629
1.40158,-0.613215,-1.14722,0.0105005,-0.00207717,0.0113883,0.00320464,-0.00117457,0.00637573
1.40138,-0.613034,-1.14738,0.00982217,-0.0100799,-0.00151677,-0.0041483,0.00225461,0.000639677
1.40104,-0.613033,-1.14784,0.0311043,0.0023803,-0.00687984,-0.00343162,0.00199586,0.000693515
1.40079,-0.613025,-1.14875,0.0412798,0.0224132,-0.00559975,-0.00208795,0.00104076,0.00323683
1.40079,-0.613012,-1.14966,0.0324575,0.0268581,-0.00740513,0.000849307,0.00407284,0.00902034
1.40089,-0.613082,-1.15035,0.0199766,0.0206911,-0.00519396,0.001652,-0.000286877,0.00909495
1.40107,-0.613043,-1.15056,0.0033272,0.00606308,0.00499562,0.0029034,0.00143844,0.00793816
1.40108,-0.613043,-1.1506,0.00199115,-0.00349416,-0.0029144,-0.0016616,0.00478023,-0.00223851
1.40085,-0.613138,-1.15081,0.013231,-0.00757588,-0.0063985,-0.00160569,0.00599915,-0.00334166
1.40058,-0.613175,-1.15119,0.016265,0.0023255,-0.00300877,-0.00417107,0.00493145,0.00233972
1.40055,-0.613231,-1.15158,0.0144434,0.0133938,-0.0107775,-0.00521874,0.0089137,0.00742233
1.40075,-0.613484,-1.15196,0.012408,0.0254841,-0.0168803,-0.00662875,0.0111179,0.00812209
1.40075,-0.613484,-1.15196,0.012408,0.0254841,-0.0168803,-0.00662875,0.0111179,0.00812209
1.40105,-0.613881,-1.15236,0.0110322,0.0270172,-0.0264174,-0.00488949,0.011099,0.0069074
1.40139,-0.614432,-1.1527,0.00712347,0.0286965,-0.0326989,-0.00823981,0.00964153,0.00390947
1.4017,-0.615149,-1.15302,0.0106214,0.0172872,-0.0420918,-0.00695854,0.00992489,-0.000299439
1.4017,-0.61605,-1.15357,0.0200832,0.0137122,-0.0464522,-0.00525594,0.00767946,-0.00244641
1.40157,-0.616927,-1.15417,0.0150264,0.00940733,-0.0472077,-0.00161028,0.00548327,0.0064503
1.40164,-0.617784,-1.15441,-0.00948995,0.010194,-0.0368028,-0.00305307,-0.000998497,0.0147669
1.40208,-0.618525,-1.15402,-0.0347738,0.00821998,-0.0315248,0.000453293,-5.96046e-08,0.0177299
1.4028,-0.619332,-1.15312,-0.0515041,0.0113765,-0.0317963,-0.00240302,0.00530869,0.0119147
1.40367,-0.620205,-1.15191,-0.0597785,0.00735845,-0.0383756,-0.000236869,0.00868767,0.00479527
1.40467,-0.621277,-1.15051,-0.0659707,0.00955613,-0.0530563,-0.00440943,0.0105618,0.00195807
1.40582,-0.62266,-1.14919,-0.0557103,0.0239537,-0.0675491,-0.00326502,0.0125049,-0.00698459
1.40678,-0.624293,-1.14847,-0.0237328,0.0288737,-0.0833633,0.00401741,0.0118662,-0.0143639
1.40755,-0.626034,-1.14848,-0.00500202,0.0433824,-0.0856387,0.00717902,0.00572371,-0.0131044
1.40835,-0.627669,-1.14877,-0.00172866,0.0553656,-0.0790436,0.0103702,0.00104314,-0.00684784
1.40931,-0.62923,-1.14898,-0.00989481,0.0563839,-0.075172,0.0096702,0.000558555,-0.00271402
1.41041,-0.630696,-1.14897,-0.0188672,0.0564915,-0.0707585,0.00998414,0.000350296,-0.000950277
1.4115,-0.632068,-1.14876,-0.0239591,0.0457471,-0.0658137,0.0113762,0.00221837,-0.00392987
1.4125,-0.633383,-1.14838,-0.0352262,0.0374771,-0.061331,0.010535,0.00276035,-0.00430685
1.41363,-0.634591,-1.14776,-0.0335182,0.0419909,-0.0511175,0.00928396,0.00128281,-0.00687182
1.41484,-0.635485,-1.14721,-0.0288375,0.0467016,-0.0381855,0.00655758,0.00111264,-0.00972068
1.41591,-0.636243,-1.14678,-0.0219619,0.032743,-0.038695,0.00282556,0.00587404,-0.0106549
1.41666,-0.637084,-1.14644,-0.0196293,0.0229392,-0.0415262,-0.00830817,0.00617427,-0.00847119
1.41715,-0.637985,-1.14625,-0.0143394,0.0176996,-0.0474794,-0.00715292,0.00885326,-0.00581896
1.41765,-0.638983,-1.14607,-0.0206054,0.0269534,-0.0497975,-0.0146978,0.0052287,0.00314049
1.41865,-0.640016,-1.14542,-0.0493186,0.0379739,-0.0449813,-0.0191537,0.00325537,0.00923066
1.42001,-0.64118,-1.14427,-0.0647026,0.0336863,-0.0570654,-0.0232702,0.00773942,0.00343573
1.42122,-0.642783,-1.14296,-0.0663623,0.0118719,-0.0823535,-0.0217794,0.0121621,-0.00204624
1.42217,-0.644839,-1.14146,-0.0842986,-0.00162483,-0.0969608,-0.0149956,0.00813723,-0.000128008
1.42333,-0.647037,-1.13932,-0.112531,-0.0129264,-0.0902335,-0.0129375,-0.0071224,0.0058306
1.42473,-0.649025,-1.13652,-0.136586,-0.0176335,-0.0630746,-0.00816071,-0.0228823,0.00441124
1.42635,-0.650275,-1.13285,-0.175958,-0.0428593,-0.0104888,0.0043025,-0.0278602,0.0070231
1.42828,-0.650496,-1.12762,-0.248605,-0.0875911,0.0542347,0.0102277,-0.0272887,0.0136635
1.43088,-0.649619,-1.11936,-0.401189,-0.154889,0.131878,0.0167356,-0.0185491,0.0259898
1.43448,-0.647705,-1.10699,-0.546033,-0.242218,0.1787,0.00646651,0.00615454,0.00958617
1.43749,-0.645799,-1.09177,-0.62527,-0.381431,0.163628,-0.0128325,0.0274817,-0.0293092
1.43791,-0.644651,-1.0756,-0.645223,-0.546811,0.117897,-0.0155752,0.0418111,-0.0463503
1.4363,-0.644429,-1.05832,-0.741399,-0.641234,0.100507,-0.0206929,0.0275078,-0.00434321
1.43555,-0.644478,-1.03804,-0.859408,-0.64912,0.112881,-0.0257257,0.00549591,0.0231288
1.436,-0.644566,-1.01584,-0.889819,-0.646044,0.110185,-0.0164295,0.010904,-0.000947073
1.43645,-0.644924,-0.994037,-0.834231,-0.623429,0.0810169,-0.0181557,0.0134553,-0.0332953
1.43629,-0.645674,-0.974327,-0.743985,-0.574645,0.054668,-0.0228189,0.00586796,-0.0425997
1.43598,-0.646627,-0.956866,-0.652427,-0.506625,0.0351355,-0.0247802,-0.0040639,-0.0419732
1.43568,-0.647808,-0.941929,-0.54453,-0.427938,0.00520861,-0.0222882,-0.00518864,-0.0467927
1.43502,-0.649469,-0.930291,-0.394559,-0.346234,-0.0436423,-0.0180485,-0.000744224,-0.0542594
1.43368,-0.651485,-0.922425,-0.263571,-0.266053,-0.0665961,-0.00335807,-0.00395137,-0.0422657
1.43246,-0.653486,-0.917172,-0.188319,-0.18064,-0.0736198,0.0103999,-0.0090661,-0.0101868
1.43213,-0.655375,-0.913284,-0.14724,-0.0947448,-0.0750819,0.0140159,-0.0100762,0.00791854
1.4325,-0.657276,-0.910649,-0.073424,-0.035065,-0.0858851,0.0193657,-0.0097512,0.00456417
1.43257,-0.659022,-0.90992,-0.0163915,0.00572678,-0.0764782,0.0343166,-0.0130704,0.0118089
1.43322,-0.66034,-0.909964,-0.0018369,0.0544632,-0.0533298,0.0352443,-0.0179263,0.0322017
1.43441,-0.661277,-0.909816,-0.0270487,0.0563992,-0.0375125,0.0400654,-0.0136004,0.0409895
1.4361,-0.661888,-0.908835,-0.051785,0.0543392,-0.0219894,0.0404102,-0.00770438,0.0391781
1.43812,-0.66211,-0.907574,-0.0467039,0.0701966,0.0043008,0.0444676,-0.000829875,0.0297326
1.44064,-0.661858,-0.906333,-0.0454487,0.0996599,0.0245434,0.0402086,0.00467855,0.0303314
1.44064,-0.661858,-0.906333,-0.0454487,0.0996599,0.0245434,0.0402086,0.00467855,0.0303314
1.44391,-0.661362,-0.904752,-0.0692612,0.124176,0.03469,0.0288178,0.00858015,0.0282084
1.44782,-0.660756,-0.90251,-0.0892184,0.125293,0.0431859,0.0229681,0.0119578,0.0171857
1.45176,-0.660011,-0.899993,-0.0905609,0.112116,0.0495512,0.0242445,0.0202969,0.000186808
1.4554,-0.659222,-0.897608,-0.0908105,0.10567,0.0496602,0.0205898,0.0242015,-0.00442671
1.45914,-0.658325,-0.894953,-0.10682,0.101101,0.0600461,0.0233251,0.0277337,-0.0014618
1.4631,-0.657226,-0.891675,-0.13982,0.09272,0.0751422,0.0160131,0.0205314,0.000430107
1.46713,-0.655975,-0.8878,-0.155278,0.0734137,0.0875726,0.0134825,0.0163949,-0.000790648
1.47124,-0.654323,-0.883289,-0.191058,0.0631333,0.118535,0.0128061,0.00937396,0.00229187
1.4759,-0.652029,-0.87748,-0.25058,0.048456,0.156009,0.008237,0.00908977,0.00675768
1.48106,-0.649272,-0.870308,-0.291189,0.0383832,0.179903,-0.0043329,0.00968128,-0.0052796
1.48636,-0.646049,-0.862519,-0.297712,0.0249235,0.197407,-0.00981164,0.0178976,-0.0252814
1.49142,-0.642474,-0.854942,-0.277667,0.0264334,0.211184,-0.0149683,0.0262342,-0.0460301
1.49623,-0.638647,-0.847995,-0.249826,0.0431233,0.222016,-0.024702,0.0317134,-0.0571179
1.50095,-0.634556,-0.841936,-0.206512,0.066311,0.224931,-0.025646,0.0425709,-0.0672694
1.50514,-0.630402,-0.837083,-0.155064,0.064139,0.217431,-0.0284619,0.0536728,-0.0739843
1.50838,-0.626237,-0.833294,-0.128684,0.0320455,0.221036,-0.0292112,0.0570422,-0.0678383
1.51053,-0.621931,-0.829705,-0.150337,-0.0250867,0.230489,-0.0254514,0.0573932,-0.0359611
1.51287,-0.617302,-0.82429,-0.274989,-0.0530711,0.263935,-0.0386543,0.047994,0.00703591
1.5165,-0.612114,-0.815491,-0.412933,-0.0989676,0.292571,-0.0458061,0.0517746,0.017069
1.52028,-0.606699,-0.80412,-0.48072,-0.177267,0.294128,-0.0623233,0.0578014,-0.00560915
1.52287,-0.601557,-0.791824,-0.50871,-0.263543,0.274247,-0.0858987,0.0559604,-0.0191988
1.52409,-0.597044,-0.778946,-0.534939,-0.337155,0.234843,-0.109256,0.0516912,-0.0165457
1.52418,-0.593319,-0.76592,-0.525652,-0.383803,0.189914,-0.128604,0.0471007,-0.0128595
1.5236,-0.590617,-0.753004,-0.53452,-0.389082,0.138429,-0.146063,0.0466115,0.00215722
1.52301,-0.588884,-0.740333,-0.503401,-0.365274,0.0813504,-0.146393,0.0585955,-0.000318944
1.52236,-0.588536,-0.72917,-0.415552,-0.317922,-0.00828537,-0.153853,0.0790876,-0.00954884
1.52113,-0.590313,-0.720878,-0.283774,-0.266689,-0.145292,-0.1445,0.109058,-0.00872534
1.51919,-0.594946,-0.715701,-0.183211,-0.214597,-0.298027,-0.127934,0.123114,0.019984
1.51756,-0.602366,-0.712443,-0.132071,-0.131154,-0.427876,-0.105545,0.116329,0.0594129
1.51692,-0.611982,-0.710456,-0.0866907,-0.0574635,-0.516433,-0.0762037,0.0964529,0.0708414
1.5168,-0.622843,-0.709281,-0.0707508,-0.0370024,-0.571841,-0.031361,0.0901304,0.0785058
1.51656,-0.634862,-0.708339,-0.0750137,-0.0491135,-0.622901,-0.0312343,0.052884,0.0860801
1.51591,-0.647855,-0.706889,-0.111724,-0.110846,-0.671802,-0.0164855,0.0255354,0.10156
1.51448,-0.661756,-0.704541,-0.150759,-0.170418,-0.707414,-0.00777161,-0.00959903,0.113652
1.51288,-0.676042,-0.701024,-0.210459,-0.203177,-0.70123,0.0118864,-0.0412226,0.132018
1.51211,-0.689796,-0.695747,-0.282119,-0.203557,-0.641073,0.0383776,-0.0710873,0.141584
1.51291,-0.702018,-0.688389,-0.352777,-0.191443,-0.54659,0.0716158,-0.0890734,0.136796
1.51517,-0.712247,-0.679093,-0.412136,-0.191808,-0.428271,0.101911,-0.0984675,0.126964
1.51862,-0.719732,-0.667765,-0.487044,-0.212217,-0.270012,0.137621,-0.100421,0.114978
1.52321,-0.723809,-0.653602,-0.609621,-0.269533,-0.0786509,0.158222,-0.109753,0.107694
1.52898,-0.723854,-0.635266,-0.769472,-0.380377,0.139426,0.171059,-0.109955,0.0964932
1.53479,-0.719527,-0.61252,-0.925168,-0.556341,0.356481,0.171542,-0.0986958,0.072548
1.5391,-0.711137,-0.586007,-1.04533,-0.751537,0.547875,0.14573,-0.0796669,0.0493557
1.5413,-0.699376,-0.557153,-1.11165,-0.895047,0.690427,0.105709,-0.0508143,0.0346041
1.54147,-0.685247,-0.527518,-1.13295,-0.976339,0.786268,0.0674244,-0.0180724,0.0350294
1.54041,-0.669604,-0.497665,-1.15431,-0.998959,0.857335,0.0409401,0.0139225,0.0483549
1.53895,-0.652567,-0.467913,-1.13544,-0.980943,0.919131,0.027027,0.0487625,0.054534
1.53699,-0.634897,-0.4392,-1.11599,-0.934675,0.920081,-0.00360173,0.0804132,0.0618363
1.53539,-0.617618,-0.411233,-1.09265,-0.870491,0.885797,-0.0434786,0.0980292,0.0707734
1.53389,-0.601336,-0.384644,-1.031,-0.808196,0.829733,-0.071959,0.103811,0.0639807
1.53208,-0.586086,-0.360255,-0.93639,-0.746166,0.779898,-0.0943739,0.102306,0.0559925
1.52956,-0.571734,-0.338623,-0.825977,-0.699695,0.730962,-0.117837,0.098527,0.0538796
1.52623,-0.558349,-0.319683,-0.723602,-0.651868,0.675935,-0.142729,0.101027,0.0632988
1.52623,-0.558349,-0.319683,-0.723602,-0.651868,0.675935,-0.142729,0.101027,0.0632988
1.52239,-0.546178,-0.303179,-0.629209,-0.598968,0.607362,-0.169082,0.101958,0.0780278
1.51839,-0.535265,-0.288913,-0.547699,-0.537692,0.547769,-0.172856,0.119173,0.091383
1.51497,-0.525486,-0.275739,-0.554704,-0.486923,0.490818,-0.143518,0.178008,0.120369
1.51207,-0.517575,-0.26184,-0.609806,-0.511169,0.354424,-0.150513,0.221763,0.13751
1.50898,-0.513125,-0.246542,-0.710821,-0.551895,0.180087,-0.168165,0.216709,0.151648
1.50646,-0.511455,-0.228634,-0.840151,-0.585098,0.114142,-0.15299,0.163584,0.152911
1.50467,-0.509883,-0.207616,-0.995816,-0.630275,0.171033,-0.135481,0.100548,0.135344
1.50369,-0.507098,-0.182152,-1.21701,-0.720339,0.252066,-0.133207,0.0851581,0.121806
1.50291,-0.50337,-0.1515,-1.43222,-0.845952,0.29216,-0.155362,0.100719,0.0881485
1.50151,-0.499804,-0.116636,-1.59418,-0.975181,0.262889,-0.184897,0.132578,0.0387914
1.49898,-0.497807,-0.0786595,-1.73208,-1.09509,0.166741,-0.214471,0.151605,0.00104512
1.49574,-0.498311,-0.037661,-1.87145,-1.1884,0.0462638,-0.233523,0.156029,-0.0229409
1.49219,-0.501639,0.00607224,-1.99135,-1.26866,-0.0804866,-0.237049,0.15465,-0.0564062
1.48842,-0.507834,0.0521809,-2.08756,-1.34238,-0.212076,-0.239794,0.151272,-0.096159
1.48423,-0.517099,0.0997498,-2.12469,-1.41037,-0.370163,-0.236867,0.14869,-0.133784
1.4794,-0.530086,0.147141,-2.08136,-1.44945,-0.568746,-0.227617,0.140846,-0.170402
1.47341,-0.547517,0.192255,-1.94236,-1.45014,-0.806089,-0.234768,0.112747,-0.194688
1.46694,-0.569353,0.232825,-1.69934,-1.33779,-1.01289,-0.201894,0.0743316,-0.215269
1.46122,-0.593852,0.267125,-1.4266,-1.10871,-1.10515,-0.11804,0.0447664,-0.210176
1.45855,-0.618678,0.295813,-1.21177,-0.784822,-1.09368,-0.00570154,0.0519232,-0.17944
1.46126,-0.64238,0.320839,-1.07916,-0.424011,-1.04253,0.109995,0.0969878,-0.166637
1.46975,-0.664929,0.343977,-0.999904,-0.153013,-1.01907,0.203016,0.143082,-0.19294
1.48227,-0.686814,0.366036,-0.922996,0.000676319,-0.996242,0.255499,0.125887,-0.258954
1.49585,-0.707342,0.386773,-0.841503,-0.00164591,-0.91653,0.286994,0.0609081,-0.335739
1.50707,-0.725182,0.406185,-0.730601,-0.171046,-0.761702,0.304288,-0.0224788,-0.388161
1.51143,-0.738709,0.421992,-0.520779,-0.469875,-0.49483,0.31273,-0.103815,-0.424168
1.50545,-0.745659,0.432612,-0.32372,-0.855158,-0.145929,0.319067,-0.152959,-0.38005
1.49045,-0.74558,0.441031,-0.325946,-1.20473,0.18728,0.282965,-0.173012,-0.242669
1.47158,-0.740281,0.452548,-0.483302,-1.44903,0.405015,0.213076,-0.155422,-0.10651
1.45283,-0.732193,0.469487,-0.686223,-1.54767,0.527679,0.15309,-0.132537,-0.0230235
1.43755,-0.722958,0.492758,-0.935939,-1.52585,0.610695,0.103505,-0.114517,0.035978
1.42815,-0.712873,0.523099,-1.18772,-1.4142,0.709998,0.0722269,-0.100177,0.0582582
1.42467,-0.701641,0.559179,-1.36054,-1.28902,0.801,0.0400874,-0.0844066,0.0273681
1.42497,-0.6893,0.598532,-1.44862,-1.2227,0.854337,0.0129117,-0.0465041,-0.0316964
1.42631,-0.676797,0.639161,-1.49039,-1.22559,0.838115,-0.0190945,-0.00886732,-0.0845593
1.42662,-0.66512,0.679591,-1.47206,-1.27217,0.766668,-0.0402298,0.0266148,-0.123169
1.42429,-0.655212,0.717952,-1.38422,-1.31697,0.653537,-0.0538645,0.0478532,-0.150289
1.41937,-0.647411,0.753249,-1.28695,-1.31843,0.540684,-0.050499,0.063167,-0.148492
1.41275,-0.641522,0.78564,-1.18707,-1.29509,0.444383,-0.0429554,0.0768624,-0.138535
1.40483,-0.637138,0.814723,-1.04622,-1.24221,0.364487,-0.0290691,0.0834779,-0.130892
1.39516,-0.634024,0.839495,-0.869391,-1.20039,0.28075,-0.0247465,0.0815895,-0.118148
1.38375,-0.632005,0.859584,-0.691212,-1.14418,0.214732,-0.0235301,0.0630752,-0.0822154
1.37057,-0.630715,0.87502,-0.51168,-1.08922,0.1566,-0.0256021,0.0371852,-0.0321981
1.35628,-0.629812,0.886475,-0.390904,-1.02374,0.128266,-0.0251949,0.0132406,0.0374983
1.34224,-0.629138,0.896336,-0.393038,-0.965839,0.121501,-0.0221131,0.000846148,0.114462
1.33023,-0.628655,0.907848,-0.511711,-0.926416,0.14615,-0.0228777,-0.00790346,0.176866
1.32076,-0.628686,0.923155,-0.704151,-0.931476,0.144104,-0.0386239,-0.0126128,0.214641
1.31377,-0.630476,0.943417,-0.935649,-0.971781,0.091041,-0.0644164,-0.0110534,0.232309
1.309,-0.634782,0.968789,-1.14931,-1.00972,0.0185938,-0.0769293,-0.0026089,0.232415
1.30626,-0.641734,0.998143,-1.29992,-1.01701,-0.0776466,-0.0730295,0.00824136,0.210206
1.30526,-0.651239,1.02967,-1.37502,-0.98356,-0.180369,-0.0597398,0.0202773,0.181177
1.30588,-0.662908,1.06194,-1.39875,-0.921477,-0.269487,-0.0298437,0.0231532,0.150892
1.30972,-0.675431,1.09514,-1.48069,-0.730608,-0.227789,0.058723,0.0496929,0.141785
1.32123,-0.687179,1.13375,-1.72496,-0.596519,-0.198712,0.23289,0.235468,0.15928
1.32123,-0.687179,1.13375,-1.72496,-0.596519,-0.198712,0.23289,0.235468,0.15928
1.33685,-0.701304,1.17688,-1.81603,-0.607148,-0.384722,0.211537,0.258152,0.0712256
1.35349,-0.717929,1.22126,-1.85158,-0.637095,-0.452672,0.224107,0.179957,-0.00722122
1.37054,-0.733813,1.26722,-1.83299,-0.738732,-0.380612,0.267393,0.091021,-0.0615016
1.3845,-0.746828,1.31268,-1.7038,-0.953754,-0.244113,0.261257,-0.0282375,-0.107212
1.39203,-0.755302,1.3554,-1.51901,-1.21422,-0.0191459,0.240416,-0.13842,-0.0874762
1.39215,-0.758184,1.39388,-1.29354,-1.40454,0.231832,0.18116,-0.239606,-0.0188986
1.38681,-0.755487,1.42729,-1.06138,-1.3937,0.473222,0.131348,-0.283101,0.0620362
1.38163,-0.747115,1.45671,-0.927019,-1.10414,0.768096,0.114503,-0.283895,0.162205
1.38433,-0.732021,1.48686,-1.02338,-0.653457,1.14952,0.134806,-0.234811,0.259949
1.40049,-0.709411,1.52399,-1.35679,-0.20258,1.57851,0.165119,-0.133031,0.305828
1.42987,-0.679382,1.57201,-1.84554,0.0148519,1.95816,0.191177,0.00416446,0.271304
1.46609,-0.6431,1.63095,-2.33362,-0.0567689,2.18997,0.173579,0.156119,0.157182
1.50117,-0.603115,1.69869,-2.81511,-0.431301,2.25969,0.108507,0.263951,0.0435345
1.52824,-0.561714,1.77323,-3.14977,-0.980707,2.21785,0.0226173,0.324586,-0.0768144
1.54211,-0.520544,1.84958,-3.24484,-1.54842,2.13685,-0.0630538,0.345742,-0.172323
1.54297,-0.480314,1.92435,-3.19767,-1.94083,2.08716,-0.147646,0.333902,-0.198686
1.53295,-0.44113,1.99512,-3.02145,-2.19317,2.03724,-0.227093,0.326731,-0.184248
1.51509,-0.404298,2.06063,-2.78881,-2.273,1.9111,-0.328658,0.318403,-0.133444
1.49316,-0.371821,2.12022,-2.51095,-2.16368,1.68801,-0.435072,0.307799,-0.0686758
1.47094,-0.3454,2.17296,-2.17442,-1.9074,1.37671,-0.527592,0.282963,-0.00610738
1.45083,-0.326191,2.21723,-1.77279,-1.56339,0.988954,-0.605928,0.239499,0.0487434
1.43457,-0.314862,2.25206,-1.39899,-1.16008,0.565458,-0.655257,0.191062,0.118139
1.42402,-0.311175,2.27997,-1.21986,-0.771134,0.1884,-0.682599,0.135534,0.202027
1.4188,-0.314101,2.30502,-1.20696,-0.553167,-0.118531,-0.673096,0.0896891,0.243153
1.41636,-0.323316,2.3298,-1.28005,-0.480336,-0.439128,-0.661375,0.0668398,0.254478
1.41492,-0.33921,2.35579,-1.41154,-0.531519,-0.749877,-0.629628,0.0533969,0.245631
1.41278,-0.361724,2.38434,-1.61166,-0.674276,-1.06081,-0.577582,0.0665535,0.222428
1.40975,-0.390934,2.41725,-1.89679,-0.845901,-1.34178,-0.485908,0.108038,0.198961
1.40665,-0.426863,2.45629,-2.23563,-1.01005,-1.64027,-0.343956,0.210418,0.168583
1.40505,-0.470331,2.50203,-2.55457,-1.14177,-1.98954,-0.177755,0.326513,0.107052
1.40621,-0.522099,2.55386,-2.79087,-1.19425,-2.38152,0.00553501,0.428073,0.0161793
1.41188,-0.581684,2.60978,-2.86211,-1.16746,-2.73849,0.205385,0.460685,-0.106229
1.42376,-0.646389,2.66751,-2.80824,-0.945846,-2.91081,0.472434,0.484164,-0.212214
1.44492,-0.71178,2.72699,-2.64701,-0.715632,-2.95019,0.756054,0.548203,-0.312654
1.47016,-0.775197,2.78356,-2.1582,-0.594572,-2.86378,0.8621,0.381152,-0.455262
1.49072,-0.832811,2.82678,-1.32536,-0.447311,-2.60309,0.862133,0.103772,-0.557189
1.49922,-0.882178,2.84709,-0.38204,-0.231251,-2.20506,0.865195,-0.141479,-0.560787
1.49154,-0.919972,2.84112,0.429238,-0.0951931,-1.56691,0.875521,-0.347983,-0.471839
1.46819,-0.941315,2.81435,0.91192,-0.106333,-0.684315,0.833392,-0.506362,-0.3102
1.43812,-0.943322,2.78077,0.952744,-0.194567,0.228548,0.755964,-0.526081,-0.111575
1.41336,-0.929474,2.75714,0.595048,-0.398391,0.879265,0.628733,-0.427526,0.059255
1.39874,-0.908292,2.75172,0.0515275,-0.62363,1.10846,0.453406,-0.327731,0.15241
1.39549,-0.887473,2.76594,-0.561685,-0.806972,1.07814,0.310234,-0.240536,0.187648
1.40131,-0.870264,2.7957,-0.967628,-0.88976,0.942279,0.207644,-0.203357,0.116331
1.41059,-0.856528,2.83127,-1.04682,-0.876635,0.794625,0.145927,-0.206424,-0.00390065
1.41874,-0.845183,2.86389,-0.868161,-0.745215,0.672957,0.0978776,-0.238815,-0.102729
1.42334,-0.834737,2.88688,-0.470817,-0.497953,0.594093,0.0649171,-0.284958,-0.174552
1.42285,-0.824071,2.89544,0.0724756,-0.171336,0.551189,0.0502569,-0.319443,-0.219046
1.41715,-0.811901,2.88703,0.683582,0.220701,0.570724,0.0522711,-0.326961,-0.226641
1.4077,-0.797036,2.862,1.25617,0.641384,0.623267,0.05286,-0.31389,-0.196084
1.39736,-0.779296,2.82386,1.67297,1.02366,0.678067,0.0463043,-0.286351,-0.131184
1.38902,-0.758879,2.7779,1.93456,1.33632,0.753309,0.041932,-0.25131,-0.0702715
1.38388,-0.735825,2.72772,2.10695,1.5507,0.843346,0.0396851,-0.216136,-0.0370845
1.38172,-0.710163,2.67593,2.17962,1.64885,0.957888,0.0342643,-0.18072,-0.0107759
1.38172,-0.710163,2.67593,2.17962,1.64885,0.957888,0.0342643,-0.18072,-0.0107759
1.38246,-0.68225,2.62587,2.11162,1.63581,1.06666,0.0151865,-0.145632,0.025256
1.38603,-0.6528,2.58044,1.92877,1.53456,1.16793,-0.00428355,-0.107368,0.0540873
1.39247,-0.622519,2.54236,1.62228,1.37706,1.2615,0.00670004,-0.0344541,0.0826309
1.40092,-0.592099,2.51316,1.27436,1.13199,1.31625,0.0411666,0.0767071,0.0898355
1.4095,-0.562484,2.49249,0.911559,0.860832,1.32226,0.0659567,0.176229,0.0863407
1.4179,-0.534407,2.48107,0.48417,0.574836,1.2983,0.0795832,0.258156,0.0964438
1.42524,-0.508623,2.47932,0.0544679,0.24364,1.22949,0.0656754,0.309915,0.0807366
1.42994,-0.485834,2.48615,-0.310307,-0.100375,1.11411,0.0403657,0.334918,0.0511936
1.4306,-0.466356,2.49921,-0.546781,-0.421334,0.979604,0.0184897,0.344525,0.0267006
1.42707,-0.44987,2.51523,-0.623804,-0.626156,0.858066,-0.0229325,0.319379,0.0177917
1.42215,-0.435242,2.53205,-0.705767,-0.56064,0.831432,0.0183006,0.34189,0.0630009
1.42007,-0.421758,2.55227,-0.914871,-0.510994,0.750462,0.123532,0.488249,0.125677
1.42017,-0.411128,2.57639,-1.11949,-0.45607,0.642573,0.114078,0.486313,0.120001
1.42204,-0.402808,2.60427,-1.27384,-0.489331,0.559904,0.107194,0.45341,0.0943993
1.42257,-0.396337,2.63375,-1.31031,-0.617566,0.499189,0.0936151,0.357031,0.0549499
1.41969,-0.390377,2.66251,-1.21184,-0.770538,0.477315,0.0552995,0.221849,0.0613065
1.41309,-0.385278,2.68713,-0.939086,-0.799205,0.373277,0.00924432,0.111442,0.0772402
1.4053,-0.38068,2.7041,-0.529609,-0.577256,0.366955,0.0582877,0.00573656,0.125118
1.40141,-0.372393,2.71269,-0.134668,-0.104375,0.638709,0.20446,-0.0692588,0.168312
1.40601,-0.355132,2.71537,0.161399,0.472453,1.13215,0.342099,-0.0925718,0.182662
1.42034,-0.326541,2.71492,0.294974,0.928679,1.69304,0.444921,-0.0481704,0.153842
1.44001,-0.287479,2.7155,0.155185,0.951828,2.16148,0.475086,0.0592686,0.125367
1.45763,-0.241902,2.72182,-0.230493,0.60831,2.42272,0.406221,0.16258,0.108793
1.46792,-0.193296,2.73629,-0.646461,0.116393,2.57046,0.309915,0.227354,0.0847767
1.46983,-0.14267,2.75807,-0.962846,-0.266723,2.70486,0.212451,0.255076,0.0649759
1.46488,-0.0896684,2.7857,-1.21975,-0.523291,2.8619,0.125382,0.277258,0.0631326
1.45519,-0.0347898,2.8184,-1.42174,-0.632001,2.96151,0.0352152,0.313606,0.0601981
1.44236,0.0207612,2.85551,-1.58748,-0.677387,3.01618,-0.0330694,0.362816,0.0511938
1.42634,0.0760581,2.8964,-1.71109,-0.725665,3.01279,-0.117186,0.414455,0.049224
1.40705,0.129019,2.9402,-1.78415,-0.757221,2.89099,-0.212554,0.467574,0.0485461
1.38471,0.177674,2.98554,-1.78896,-0.781041,2.69469,-0.289348,0.488676,0.0508746
1.36023,0.221582,3.03101,-1.72083,-0.762837,2.51026,-0.340127,0.472794,0.0574347
1.33518,0.261308,3.07551,-1.61911,-0.665563,2.33003,-0.368012,0.43704,0.0737365
1.31167,0.296685,3.11827,-1.51169,-0.510644,2.12236,-0.396049,0.38955,0.0882547
1.29,0.327683,-3.12419,-1.40853,-0.426179,1.90773,-0.433926,0.341137,0.105788
1.26871,0.35377,-3.08572,-1.33381,-0.430714,1.63004,-0.456143,0.311983,0.127641
1.24674,0.373557,-3.04957,-1.27801,-0.487482,1.28691,-0.446847,0.255387,0.140278
1.22442,0.38574,-3.0167,-1.21406,-0.509656,0.86494,-0.413548,0.160257,0.139112
1.20398,0.390089,-2.98825,-1.08539,-0.447032,0.484498,-0.336598,0.0406256,0.124076
1.18845,0.389389,-2.96648,-0.796597,-0.270973,0.219242,-0.201005,-0.107529,0.0547035
1.17961,0.388875,-2.95346,-0.318524,-0.139979,0.23775,0.0280048,-0.252597,-0.0572459
1.17464,0.394514,-2.94928,0.153958,-0.236701,0.434501,0.224107,-0.412683,-0.128232
1.1688,0.405471,-2.95112,0.395044,-0.417031,0.467427,0.234903,-0.476596,-0.0925122
1.16138,0.416723,-2.9571,0.571136,-0.556985,0.353501,0.26296,-0.522099,-0.0727005
1.15521,0.428859,-2.96879,0.927711,-0.500563,0.362376,0.333405,-0.551284,-0.0955602
1.15586,0.446095,-2.98851,1.42846,-0.246661,0.508112,0.371315,-0.532406,-0.114696
1.16753,0.470976,-3.018,1.99149,0.110806,0.729528,0.335219,-0.463556,-0.118225
1.1907,0.502906,-3.05667,2.35266,0.360204,0.914102,0.216211,-0.350744,-0.0665258
1.21933,0.53847,-3.09977,2.37454,0.315991,1.06168,0.111239,-0.220239,0.0162779
1.24539,0.573928,-3.14143,2.11883,0.0701561,1.09405,0.0107082,-0.104374,0.0868782
1.26417,0.606192,3.10535,1.77555,-0.211225,1.02576,-0.0607888,-0.00678021,0.114183
1.27689,0.634218,3.07338,1.57118,-0.34807,0.8826,-0.107617,0.0458716,0.0676631
1.28894,0.658255,3.04246,1.51552,-0.281407,0.725677,-0.124424,0.0881627,0.0214645
1.30628,0.679094,3.00888,1.61184,-0.0456746,0.569163,-0.124385,0.126776,-0.0358977
1.30628,0.679094,3.00888,1.61184,-0.0456746,0.569163,-0.124385,0.126776,-0.0358977
1.33311,0.697199,2.97002,1.75124,0.256009,0.450956,-0.0976588,0.153151,-0.0811927
1.36939,0.713621,2.92614,1.87955,0.518322,0.452303,-0.0391313,0.166828,-0.119899
1.41272,0.73072,2.87857,1.92047,0.648496,0.607715,0.0265844,0.166338,-0.15166
1.45678,0.749897,2.83201,1.71593,0.581921,0.841919,0.0650914,0.185272,-0.133163
1.49293,0.772413,2.79246,1.33649,0.280367,1.13105,0.0976175,0.215428,-0.114269
1.51521,0.798329,2.76364,0.860936,-0.106901,1.29688,0.0477876,0.278706,-0.0978059
1.52078,0.824069,2.74803,0.35738,-0.446082,1.1993,-0.0331426,0.367003,-0.0701524
1.51176,0.846343,2.7449,0.0080993,-0.672843,1.02083,-0.0569576,0.427435,-0.0959073
1.49409,0.865331,2.74894,-0.109648,-0.782096,0.913494,-0.0413636,0.454593,-0.132963
1.47368,0.882459,2.75451,-0.0939626,-0.836047,0.825577,-0.037931,0.473872,-0.147937
1.45198,0.897454,2.76022,-0.124949,-0.907457,0.697456,-0.0514725,0.490589,-0.115947
1.42518,0.908896,2.76968,-0.333565,-1.04179,0.514838,-0.0582156,0.473,-0.0370524
1.38982,0.915542,2.78655,-0.573131,-1.15391,0.304937,-0.0371378,0.458863,0.0319064
1.34845,0.917006,2.80955,-0.761725,-1.12422,0.147626,0.0295449,0.412589,0.0693008
1.30761,0.916565,2.83619,-0.796092,-0.811852,0.247585,0.159719,0.331495,0.079429
1.27425,0.920184,2.86332,-0.67887,-0.355218,0.586292,0.263155,0.240736,0.0670667
1.24824,0.93112,2.89097,-0.597567,-0.117006,0.931425,0.37486,0.170164,0.0540475
1.21719,0.944273,2.9242,-0.91421,-0.36067,0.914649,0.408501,0.0900391,0.132541
1.16531,0.950516,2.975,-1.65215,-0.681358,0.790442,0.510792,-0.0174304,0.287468
1.08978,0.947867,3.05075,-2.44348,-0.632018,0.902774,0.598571,-0.164374,0.365992
1.00391,0.937642,-3.13416,-3.03622,0.0695119,1.05782,0.631128,-0.279772,0.362786
0.928999,0.920952,-3.02589,-3.10864,1.06274,1.28472,0.617169,-0.330409,0.256088
0.878907,0.907119,-2.92533,-2.55501,1.83997,1.45995,0.595022,-0.268496,0.00647929
0.8499,0.901605,-2.8384,-1.90977,1.96547,1.60332,0.609255,-0.139092,-0.0722517
0.828107,0.903893,-2.76473,-1.37647,1.644,1.60568,0.486402,-0.0111949,-0.0228048
0.809846,0.910677,-2.70256,-0.974872,1.4837,1.51002,0.341157,0.0915701,0.0741062
0.79966,0.920718,-2.65001,-0.652016,1.73053,1.46607,0.23784,0.155671,0.165267
0.800897,0.934621,-2.60322,-0.415803,2.15533,1.49014,0.186331,0.210044,0.202808
0.812616,0.950498,-2.55901,-0.40261,2.60133,1.46246,0.148894,0.251419,0.236403
0.830872,0.965335,-2.5128,-0.55462,3.01256,1.44189,0.138607,0.2813,0.230505
0.850963,0.97765,-2.46121,-0.806512,3.23975,1.43317,0.160327,0.294869,0.178078
0.866865,0.986761,-2.40215,-1.10818,3.25174,1.39915,0.188496,0.332887,0.115617
0.873979,0.991709,-2.33418,-1.44284,3.14845,1.4052,0.20751,0.376575,0.0733428
0.870435,0.993776,-2.2565,-1.66888,3.02363,1.50374,0.249265,0.408831,0.00663495
0.857329,0.994824,-2.17037,-1.84593,2.90368,1.63344,0.261928,0.446558,-0.0407197
0.834813,0.994163,-2.07637,-2.05567,2.73048,1.70655,0.227594,0.488816,-0.0481038
0.803252,0.989007,-1.97606,-2.32846,2.51205,1.65895,0.150988,0.531495,-0.0293185
0.764446,0.977049,-1.87245,-2.57976,2.2484,1.56827,0.0901402,0.574379,-0.0136124
0.72268,0.958374,-1.76992,-2.7232,2.05592,1.44644,0.0353528,0.597341,-0.00357887
0.685007,0.934365,-1.67412,-2.72288,1.97944,1.26688,-0.0272341,0.611244,-0.0064787
0.657157,0.907111,-1.58993,-2.58075,1.94475,1.02716,-0.0891391,0.593728,-0.0349338
0.639557,0.877216,-1.51943,-2.52465,1.75763,0.685411,-0.158442,0.504589,-0.0497236
0.626474,0.841386,-1.46018,-2.69522,1.4331,0.313055,-0.202902,0.396904,-0.020565
0.614905,0.797202,-1.40955,-2.91591,1.12896,-0.0735628,-0.243161,0.245509,-0.068265
0.606939,0.74582,-1.36828,-2.97109,0.994441,-0.444148,-0.235122,0.0810861,-0.185873
0.60612,0.692281,-1.33689,-2.75013,0.996276,-0.61803,-0.180237,-0.102763,-0.365779
0.608693,0.643329,-1.31107,-2.47282,0.804627,-0.478669,-0.0452488,-0.331046,-0.530167
0.604947,0.598692,-1.28427,-2.50353,0.380913,-0.300549,-0.0209962,-0.535345,-0.575853
0.593968,0.553243,-1.25554,-2.58073,0.136317,-0.307921,-0.0759294,-0.65404,-0.657356
0.583821,0.50966,-1.23113,-2.10902,0.0866534,-0.35698,-0.0983956,-0.690373,-0.874124
0.577903,0.479356,-1.21783,-1.0117,-0.0666216,-0.325422,-0.0696453,-0.635105,-1.05742
0.575021,0.469473,-1.21945,0.225744,-0.299004,-0.363479,-0.12794,-0.540244,-1.01992
0.573866,0.476543,-1.23584,1.09198,-0.562764,-0.474309,-0.216178,-0.42511,-0.759144
0.572398,0.493929,-1.26209,1.59209,-0.801983,-0.529257,-0.25111,-0.312486,-0.454554
0.572398,0.493929,-1.26209,1.59209,-0.801983,-0.529257,-0.25111,-0.312486,-0.454554
0.570187,0.51692,-1.29393,1.81723,-0.949113,-0.577962,-0.293955,-0.213986,-0.210293
0.568497,0.541317,-1.32878,1.856,-0.968542,-0.640148,-0.317414,-0.139703,-0.0357357
0.568628,0.56504,-1.36486,1.80211,-0.906145,-0.667811,-0.304496,-0.110226,0.0418821
0.570643,0.587601,-1.40082,1.73737,-0.87546,-0.655646,-0.264895,-0.0922861,0.0461665
0.57269,0.609389,-1.43648,1.70502,-0.944005,-0.643951,-0.205003,-0.0632079,-0.00302023
0.573427,0.630754,-1.47207,1.66714,-1.0559,-0.637079,-0.138259,-0.0393811,-0.0557234
0.572953,0.651828,-1.50749,1.6715,-1.09668,-0.603899,-0.0686338,-0.0112639,-0.104912
0.573293,0.674425,-1.54338,1.78327,-1.08519,-0.550094,-0.012549,0.0134099,-0.177765
0.574739,0.700139,-1.58043,1.94364,-1.13569,-0.461207,0.032892,0.0778416,-0.205056
0.576016,0.729143,-1.6186,2.05769,-1.25114,-0.385577,0.0424868,0.152666,-0.177399
0.575948,0.760044,-1.65756,2.09264,-1.39977,-0.34233,0.0394222,0.236286,-0.112261
0.574637,0.791322,-1.69728,2.07487,-1.51228,-0.345418,0.0218343,0.308375,-0.0474393
0.573343,0.821795,-1.73806,2.03504,-1.55013,-0.375511,-9.12845e-05,0.375527,0.0156444
0.574805,0.851146,-1.78059,1.97307,-1.45631,-0.429371,-0.0216449,0.416648,0.0581127
0.580529,0.878205,-1.82416,1.83788,-1.2868,-0.461914,-0.0338382,0.438173,0.10616
0.590025,0.902137,-1.86701,1.64686,-1.10974,-0.464556,-0.034526,0.436082,0.12277
0.600692,0.92202,-1.90691,1.35154,-1.00191,-0.446267,-0.0270247,0.422633,0.124616
0.60775,0.935861,-1.94047,0.908458,-1.00779,-0.424174,-0.0171846,0.385234,0.126291
0.605887,0.941686,-1.96434,0.368228,-1.1238,-0.401078,0.0119272,0.344227,0.11642
0.591933,0.938817,-1.97629,-0.208138,-1.24171,-0.334959,0.0560358,0.291143,0.0992907
0.565307,0.927601,-1.97484,-0.780378,-1.29761,-0.193365,0.115005,0.224774,0.0806975
0.527713,0.908612,-1.95967,-1.30891,-1.23926,0.00300923,0.155342,0.159287,0.0680335
0.483582,0.882923,-1.93328,-1.74659,-1.1431,0.192727,0.182006,0.102401,0.0313794
0.435337,0.850089,-1.89931,-2.17371,-1.08105,0.308533,0.222649,0.0624202,0.0338807
0.388292,0.810077,-1.86267,-2.46552,-0.903832,0.355425,0.232898,0.0229394,-0.00333029
0.348267,0.766464,-1.82696,-2.46286,-0.529963,0.42655,0.258387,-0.0505484,-0.0650513
0.321418,0.725814,-1.79525,-2.11389,-0.00013398,0.436337,0.261467,-0.129972,-0.163193
0.308726,0.692751,-1.76877,-1.67873,0.428223,0.462184,0.288532,-0.206299,-0.209806
0.302152,0.664903,-1.74536,-1.52888,0.461158,0.398487,0.274833,-0.174109,-0.158175
0.301401,0.642222,-1.72597,-1.05474,0.600495,0.44793,0.349871,-0.271293,-0.180628
0.302554,0.630978,-1.70875,-0.469119,0.534386,0.5127,0.32617,-0.214997,-0.179802
0.303322,0.627945,-1.69498,-0.215181,0.288233,0.465793,0.278993,-0.144802,-0.0872483
0.297446,0.627356,-1.68315,-0.129096,-0.163693,0.422531,0.252581,-0.107818,0.0241084
0.28646,0.628154,-1.67402,0.00895473,-0.358859,0.313162,0.194703,-0.071436,0.0834849
0.276192,0.632153,-1.66839,0.25955,-0.285655,0.248268,0.174106,-0.0418836,0.125776
0.271528,0.640869,-1.66481,0.484323,0.0378593,0.285406,0.172572,-0.0202873,0.16288
0.272254,0.653216,-1.66013,0.583629,0.31015,0.408709,0.15027,0.0100415,0.209936
0.276438,0.666427,-1.65315,0.529635,0.500243,0.46909,0.108251,0.0706809,0.248548
0.281616,0.678907,-1.64491,0.475941,0.513086,0.492571,0.0592891,0.111234,0.248106
0.286276,0.6899,-1.6361,0.376597,0.507473,0.469161,0.0245513,0.163773,0.254247
0.29051,0.698278,-1.62681,0.216838,0.516671,0.46194,-0.00725651,0.182633,0.282424
0.287371,0.700722,-1.61345,-0.355361,-0.0287839,0.62041,0.0184893,0.159601,0.313827
0.270224,0.693605,-1.59231,-0.77665,-0.345646,0.749142,0.0270314,0.156312,0.273406
0.244073,0.678548,-1.56534,-1.17669,-0.536946,0.877914,0.0314172,0.171181,0.281886
0.215571,0.65848,-1.53579,-1.26071,-0.435637,0.932299,-0.038384,0.152763,0.246082
0.191856,0.639262,-1.50617,-1.08095,-0.143306,0.986488,-0.0879191,0.153977,0.160217
0.174866,0.624062,-1.47787,-0.842401,0.0799129,0.98852,-0.115106,0.139588,0.088168
0.161097,0.612063,-1.45099,-0.7433,0.065139,0.964658,-0.120068,0.0904412,0.022131
0.147208,0.599447,-1.42609,-0.856357,-0.0179306,0.86259,-0.152857,0.0478283,0.0244818
0.134919,0.582639,-1.40341,-1.07535,0.0766645,0.781017,-0.191023,-0.0284908,0.0115073
0.126183,0.562309,-1.3821,-1.15462,0.195552,0.738387,-0.210399,-0.0912028,-0.0787603
0.12095,0.541263,-1.3622,-1.1427,0.343355,0.677544,-0.21492,-0.122904,-0.14345
0.119708,0.520787,-1.34423,-1.09094,0.371557,0.626489,-0.184324,-0.164669,-0.205934
0.119708,0.520787,-1.34423,-1.09094,0.371557,0.626489,-0.184324,-0.164669,-0.205934
0.115623,0.499628,-1.32707,-1.23936,0.0300143,0.620713,-0.161917,-0.237195,-0.231844
0.104887,0.47335,-1.30984,-1.54657,-0.268393,0.588661,-0.176176,-0.24965,-0.229667
0.091787,0.44263,-1.29361,-1.60139,-0.252192,0.576793,-0.164246,-0.301099,-0.321992
0.0829208,0.41487,-1.2781,-1.2486,-0.00466523,0.577416,-0.133371,-0.339605,-0.459176
0.0791938,0.396174,-1.26484,-0.712605,0.12043,0.467247,-0.151475,-0.308826,-0.510828
0.0777913,0.38796,-1.25658,-0.19138,0.0331284,0.215606,-0.159874,-0.249614,-0.46733
0.0760003,0.388544,-1.25508,0.222658,-0.173268,-0.0753662,-0.168672,-0.176914,-0.326768
0.0728527,0.395632,-1.26133,0.50215,-0.341389,-0.481941,-0.208996,-0.0742491,-0.192136
0.0707895,0.406853,-1.2773,0.7107,-0.458723,-0.899875,-0.249527,0.0172265,-0.0792601
0.0728641,0.421029,-1.30199,0.862225,-0.292704,-1.23154,-0.287786,0.0754476,-0.013535
0.0819814,0.437591,-1.33246,1.00319,-0.0681913,-1.39237,-0.303849,0.116981,-0.00363928
0.0974377,0.456194,-1.36643,1.12678,0.155392,-1.50563,-0.29844,0.151335,-0.0115672
0.119658,0.476383,-1.40393,1.24311,0.329093,-1.61162,-0.255877,0.194881,-0.0467722
0.14477,0.497568,-1.44561,1.3474,0.232106,-1.80156,-0.200045,0.242503,-0.0784141
0.172971,0.518977,-1.49453,1.43114,0.184501,-2.08756,-0.161242,0.318166,-0.0372845
0.203073,0.538811,-1.55083,1.38842,-0.0401303,-2.30315,-0.0970407,0.324822,0.0135795
0.229043,0.554095,-1.60875,1.18941,-0.360934,-2.16785,-0.00650509,0.264348,0.0754984
0.248833,0.566508,-1.66174,1.08374,-0.444093,-1.9233,0.0103699,0.228049,0.115461
0.266386,0.576547,-1.7106,0.925778,-0.474721,-1.83505,0.00655676,0.242063,0.165744
0.281685,0.582728,-1.75791,0.735822,-0.606763,-1.8229,-0.0337956,0.271373,0.198648
0.293511,0.584194,-1.80394,0.489534,-0.734266,-1.83315,-0.0506143,0.267866,0.206854
0.302768,0.580075,-1.84814,0.185974,-0.758917,-1.81105,-0.0594487,0.254004,0.242163
0.310457,0.569231,-1.88847,-0.188644,-0.636947,-1.82266,-0.0776652,0.284193,0.287583
0.321549,0.551401,-1.92982,-0.389952,-0.459427,-2.06724,-0.139284,0.183,0.260497
0.335876,0.529895,-1.97374,-0.395332,-0.39623,-2.17976,-0.0927297,0.149059,0.187356
0.350431,0.509507,-2.01895,-0.170386,-0.410581,-2.20647,-0.0579226,0.0916137,0.0657482
0.363282,0.494758,-2.06558,0.232536,-0.584882,-2.12754,0.0017508,0.0206254,-0.0513474
0.371621,0.488905,-2.11154,0.671552,-0.687224,-1.85713,0.0960406,-0.0331025,-0.138658
0.380372,0.491496,-2.15464,0.93707,-0.456469,-1.61057,0.112333,-0.0908752,-0.219944
0.392564,0.497556,-2.19425,0.876115,-0.192029,-1.38738,0.137291,-0.11203,-0.21263
0.404777,0.501732,-2.224,0.496216,0.0287243,-0.795307,0.189315,-0.112119,-0.129951
0.416671,0.502553,-2.23396,-0.11884,0.674367,0.0730791,0.303282,-0.255243,-0.102311
0.42494,0.498997,-2.21774,-0.770546,0.793636,1.09639,0.488346,-0.418153,-0.0361495
0.414967,0.490395,-2.17946,-1.39627,-0.032807,1.45573,0.583029,-0.432727,-0.209613
0.388788,0.472476,-2.13691,-1.68771,-0.50936,1.3016,0.37584,-0.102021,-0.249665
0.360926,0.449163,-2.09867,-1.71129,-0.563256,1.03238,0.214755,0.0192799,-0.214159
0.336394,0.424838,-2.06649,-1.5655,-0.498696,0.910212,0.160271,0.0692318,-0.106987
0.319211,0.403499,-2.03877,-1.19653,0.0474071,0.751905,0.114155,0.119613,0.0448486
0.313391,0.389968,-2.02081,-0.644215,0.0274584,0.411072,-0.0206752,0.0785692,0.126286
0.308226,0.382975,-2.01148,-0.314909,-0.23517,0.248197,0.108516,-0.00581992,0.223551
0.300022,0.380785,-2.00388,-0.128302,-0.23746,0.401136,0.268505,-0.0876862,0.24904
0.289826,0.382175,-1.99349,-0.0338368,-0.478543,0.526337,0.245544,-0.0518495,0.228285
0.272241,0.384933,-1.9827,0.0141177,-0.83734,0.521579,0.156517,0.0656829,0.219761
0.251153,0.388964,-1.97083,0.0846202,-0.820305,0.678099,0.162346,0.0684699,0.140215
0.230544,0.395429,-1.95465,0.178554,-0.578803,0.937112,0.144855,0.0678056,0.104928
0.213933,0.403882,-1.93358,0.198129,-0.29485,1.13489,0.135542,0.106858,0.0992025
0.200128,0.412171,-1.90864,0.134799,-0.117922,1.2788,0.107953,0.114955,0.12372
0.186739,0.419205,-1.88051,0.0670253,-0.0992252,1.37231,0.0941067,0.0963809,0.143749
0.17217,0.425099,-1.85137,0.054732,-0.204736,1.33752,0.048288,0.0792201,0.142539
0.155375,0.430983,-1.82404,0.134489,-0.313107,1.21336,0.0385086,0.0783175,0.119168
0.138874,0.438105,-1.79987,0.244155,-0.310835,1.0673,0.00617634,0.106155,0.118015
0.124178,0.446473,-1.7791,0.334988,-0.267523,0.906641,-0.0190357,0.120996,0.115413
0.11223,0.455922,-1.76204,0.419913,-0.183463,0.731696,-0.0283652,0.127073,0.102107
0.10371,0.466455,-1.74892,0.49461,-0.0870757,0.552074,-0.0197109,0.128785,0.0931419
0.10371,0.466455,-1.74892,0.49461,-0.0870757,0.552074,-0.0197109,0.128785,0.0931419
0.0986634,0.47724,-1.73944,0.477465,0.0183825,0.403851,-0.00560328,0.134806,0.0966535
0.09666,0.486068,-1.73277,0.313579,0.0653572,0.276719,-0.00842717,0.121389,0.119261
0.0951169,0.489578,-1.72862,-0.0224158,-0.0433424,0.122727,-0.0234381,0.0945212,0.144137
0.0917606,0.485317,-1.72693,-0.416724,-0.246945,-0.0104161,-0.0386772,0.0720642,0.112968
0.0852144,0.472836,-1.72915,-0.794098,-0.480131,-0.321383,-0.0426461,-0.00430375,0.0457107
0.0782593,0.453401,-1.7379,-1.07681,-0.578376,-0.588004,-0.0306075,-0.0135275,-0.033507
0.0738625,0.428822,-1.74948,-1.28904,-0.309227,-0.610303,-0.0080316,-0.0419184,-0.124182
0.0754161,0.400973,-1.7599,-1.41046,0.0436485,-0.548307,-0.0585347,-0.0387632,-0.189372
0.0820707,0.37182,-1.76938,-1.415,0.196998,-0.581442,-0.0971745,-0.0881658,-0.238781
0.0882611,0.343666,-1.78078,-1.2938,-0.0170691,-0.742377,-0.0895993,-0.165439,-0.29656
0.0898191,0.318251,-1.79614,-1.1112,-0.307758,-0.927751,-0.074986,-0.194174,-0.362287
0.0880369,0.29682,-1.81415,-0.865208,-0.375859,-0.939911,-0.0737788,-0.14389,-0.425774
0.08636,0.280896,-1.83044,-0.58045,-0.215778,-0.725744,-0.0637225,-0.0548146,-0.449481
0.0880526,0.272166,-1.84102,-0.194702,0.0873604,-0.35592,-0.0611118,0.00841212,-0.418135
0.0930741,0.272341,-1.84465,0.247554,0.297973,-0.00981866,-0.0812288,0.0385177,-0.33555
0.0995638,0.281981,-1.84372,0.697089,0.366381,0.15413,-0.146499,0.0266566,-0.22052
0.105699,0.299602,-1.84265,1.02427,0.248189,0.115237,-0.223728,0.0243117,-0.0947239
0.10878,0.321817,-1.84405,1.1768,0.0153205,-0.0403822,-0.256038,0.00762087,0.0218056
0.10941,0.344549,-1.8508,1.12494,-0.170453,-0.361947,-0.254599,0.021168,0.133201
0.109293,0.363752,-1.86431,0.910035,-0.294494,-0.677757,-0.212489,0.047449,0.223746
0.110285,0.377178,-1.88317,0.608882,-0.28153,-0.913417,-0.16365,0.075925,0.282412
0.113445,0.38383,-1.90572,0.296896,-0.247118,-1.08879,-0.120452,0.106881,0.31442
0.118462,0.385043,-1.93097,0.114139,-0.196621,-1.22219,-0.0885356,0.127857,0.298797
0.125602,0.38382,-1.95847,0.0941682,-0.126661,-1.32259,-0.0714947,0.149902,0.255249
0.134226,0.383022,-1.98757,0.18737,-0.105336,-1.36337,-0.0337181,0.167015,0.216468
0.143987,0.383918,-2.01716,0.269798,-0.00974534,-1.3393,0.020383,0.180357,0.200996
0.155729,0.385318,-2.0456,0.244742,0.12147,-1.25098,0.0522866,0.182098,0.195937
0.169232,0.385255,-2.07151,0.133006,0.254942,-1.12291,0.0856797,0.165682,0.178997
0.184228,0.383396,-2.09394,0.0621595,0.408582,-0.965066,0.117664,0.122195,0.14451
0.200987,0.381032,-2.1133,0.0502125,0.54111,-0.858591,0.108077,0.0780857,0.112796
0.219117,0.378654,-2.13081,0.0620174,0.613238,-0.787602,0.111858,0.0372273,0.0801185
0.237181,0.376559,-2.14715,0.0619354,0.574035,-0.753752,0.135167,-0.00360006,0.060609
0.252425,0.372995,-2.16255,-0.0903017,0.346306,-0.727532,0.155985,-0.03188,0.0660964
0.260417,0.3646,-2.17622,-0.412736,-0.0351807,-0.730743,0.203503,-0.0930098,0.0536903
0.261128,0.349582,-2.18844,-0.73076,-0.282832,-0.767872,0.224104,-0.145104,-0.0265994
0.258136,0.329644,-2.19895,-0.91432,-0.398106,-0.597762,0.236646,-0.139398,-0.12555
0.251686,0.308555,-2.20368,-1.01787,-0.344198,-0.453176,0.280074,-0.0985704,-0.196934
0.247325,0.287056,-2.20695,-0.969323,-0.311485,-0.347611,0.283135,-0.127865,-0.254536
0.236455,0.268811,-2.20654,-0.792322,-0.726086,-0.0428101,0.32306,-0.0883882,-0.295359
0.219705,0.256304,-2.20146,-0.539665,-0.787303,0.224394,0.296929,-0.0756706,-0.336147
0.203351,0.249643,-2.19298,-0.286465,-0.596368,0.440729,0.24988,-0.0282256,-0.312333
0.192355,0.248803,-2.18097,-0.0293996,-0.204911,0.699431,0.205188,0.0146766,-0.228065
0.188722,0.253723,-2.16426,0.196585,0.248544,0.984912,0.162031,0.0487083,-0.113732
0.19176,0.263155,-2.14276,0.316117,0.567215,1.22851,0.115123,0.0528684,0.0119776
0.197196,0.27396,-2.1183,0.257952,0.584431,1.2786,0.0884248,0.0244679,0.117542
0.200645,0.28236,-2.09315,0.0629692,0.394324,1.25675,0.088651,0.0077945,0.200868
0.197682,0.285377,-2.06829,-0.236353,0.0328594,1.13959,0.0910258,-0.0155848,0.223094
0.188857,0.282609,-2.04473,-0.467406,-0.300001,1.04962,0.0792474,0.0100479,0.198429
0.17293,0.27636,-2.02148,-0.523181,-0.628787,1.06169,0.111559,0.0713629,0.102003
0.152873,0.270868,-1.99732,-0.374959,-0.695564,1.16315,0.150973,0.123662,-0.0154257
0.133424,0.269391,-1.97105,-0.126312,-0.526142,1.34839,0.160816,0.191666,-0.069277
0.118235,0.2732,-1.94056,0.12919,-0.166957,1.6341,0.14728,0.23832,-0.0613273
0.108844,0.281974,-1.90387,0.330763,0.225422,1.98619,0.109589,0.266198,-0.0179084
0.103693,0.294628,-1.86074,0.484511,0.4447,2.25274,0.0585607,0.259241,0.0547061
0.103693,0.294628,-1.86074,0.484511,0.4447,2.25274,0.0585607,0.259241,0.0547061
0.0988533,0.310072,-1.81367,0.586006,0.443553,2.37431,-0.00681244,0.222089,0.131668
0.0917593,0.326605,-1.76547,0.621012,0.361043,2.32309,-0.0823464,0.160841,0.173942
