attitude_roll,attitude_pitch,attitude_yaw,rotationRate_x,rotationRate_y,rotationRate_z,acceleration_x,acceleration_y,acceleration_z
-0.0467195,0.238409,0.00559672,0.137284,-0.24097,-0.825542,-0.0236034,0.0801514,0.0493441
-0.0411825,0.244224,-0.0200261,0.200723,0.127762,-0.86244,-0.0722487,0.0489934,0.0591174
-0.0345997,0.249747,-0.0374538,0.28676,0.0910924,-0.840603,-0.044285,0.0337037,0.0560721
-0.029567,0.256178,-0.0535305,0.290202,0.00877933,-0.735162,-0.0273561,0.0116551,0.0892114
-0.0261677,0.26131,-0.0674312,0.166797,-0.00123941,-0.627628,-0.0575024,-0.0106811,0.148079
-0.0223699,0.262889,-0.0793389,-0.0481313,0.0933066,-0.531868,-0.0901558,-0.0127883,0.166238
-0.016114,0.260011,-0.089848,-0.242516,0.273214,-0.484602,-0.11335,-4.98295e-05,0.126433
-0.00723677,0.254544,-0.099802,-0.301989,0.332366,-0.488147,-0.127594,0.0227239,0.0337625
0.000680942,0.248909,-0.110889,-0.252043,0.137353,-0.604446,-0.140263,0.0406884,-0.0398821
0.00296927,0.244602,-0.12503,-0.183856,-0.254682,-0.771095,-0.116208,0.0537398,-0.0446631
-0.00058659,0.241056,-0.142192,-0.179867,-0.483455,-0.88175,-0.0730388,0.0495497,0.00937057
-0.00709317,0.237474,-0.160466,-0.183806,-0.567033,-0.885881,-0.0369902,0.00241457,0.0472587
-0.0133626,0.234234,-0.178254,-0.156072,-0.462392,-0.849998,-0.0409731,-0.0120125,0.0725203
-0.0168069,0.231408,-0.195782,-0.162879,-0.285223,-0.867023,-0.055404,0.00191608,0.095735
-0.0169241,0.227958,-0.214332,-0.216888,-0.155669,-0.945635,-0.0644776,0.0165926,0.0842046
-0.0147642,0.223384,-0.234653,-0.268479,-0.0870345,-1.03931,-0.0742262,0.0157505,0.0387679
-0.0107978,0.218469,-0.257082,-0.227455,0.00126785,-1.14995,-0.0491209,0.0146023,-0.0250624
-0.00440432,0.215845,-0.281379,-0.0351411,0.0939292,-1.21325,0.00176915,0.0089274,-0.10761
0.00210742,0.217594,-0.306038,0.191441,-0.00127435,-1.18984,0.0626395,-0.0107275,-0.149727
0.00498123,0.222274,-0.32955,0.255933,-0.237927,-1.10316,0.109475,-0.0251725,-0.114549
0.00220796,0.226937,-0.350885,0.203067,-0.508066,-0.980007,0.126297,-0.0456514,-0.0675886
-0.0047937,0.229998,-0.369696,0.0943741,-0.581225,-0.867578,0.123594,-0.0450801,-0.0246507
-0.0117485,0.230838,-0.386592,-0.0268121,-0.482,-0.789019,0.119774,-0.0328037,0.000477016
-0.0157827,0.229275,-0.402022,-0.155579,-0.263248,-0.713845,0.123096,-0.0251241,0.00315958
-0.0161129,0.225453,-0.41573,-0.246207,-0.09804,-0.621424,0.138889,-0.0294734,-0.0346041
-0.014904,0.220425,-0.427863,-0.265166,-0.0732806,-0.574766,0.135926,-0.0249624,-0.0862086
-0.0149065,0.216215,-0.440008,-0.165562,-0.212198,-0.622515,0.117739,-0.00720643,-0.111435
-0.0185512,0.214303,-0.453596,-0.0588329,-0.447122,-0.715071,0.0825027,0.000417098,-0.0779445
-0.0258149,0.213625,-0.469332,-0.0627541,-0.587837,-0.824549,0.06737,0.00721565,0.0215752
-0.033639,0.212309,-0.486942,-0.127441,-0.544255,-0.888741,0.0561776,-0.010611,0.1012
-0.0384048,0.209544,-0.505653,-0.216608,-0.29773,-0.935129,0.0486029,-0.0236757,0.145022
-0.037071,0.205506,-0.525248,-0.252321,0.0248042,-0.967954,0.0328646,-0.0446407,0.130248
-0.0302855,0.201341,-0.545291,-0.235361,0.219921,-0.990107,0.0429901,-0.0383433,0.0849712
-0.0213286,0.197317,-0.565746,-0.226834,0.252044,-1.0088,0.0594111,-0.0317285,0.0346027
-0.0129941,0.19303,-0.586197,-0.24358,0.172192,-0.996767,0.061016,-0.0482181,-0.00895071
-0.00676448,0.187917,-0.606468,-0.295754,0.0626204,-0.995437,0.0606309,-0.0418863,-0.0258514
-0.00313406,0.181722,-0.626784,-0.326317,-0.078564,-1.01186,0.0517732,-0.0513323,-0.0405797
-0.00251817,0.175542,-0.647566,-0.298244,-0.226447,-1.0384,0.046852,-0.0500134,-0.0378778
-0.00447714,0.169862,-0.669038,-0.291938,-0.320368,-1.08656,0.0361357,-0.0551052,0.00670111
-0.00720159,0.163895,-0.69138,-0.321036,-0.321314,-1.11697,0.0336248,-0.0685883,0.0610518
-0.00972758,0.157602,-0.714056,-0.323182,-0.282201,-1.12336,0.0401245,-0.0903642,0.092998
-0.0111717,0.152242,-0.736815,-0.222493,-0.224349,-1.12528,0.0398508,-0.105075,0.0944815
-0.0125025,0.149422,-0.75934,-0.0948405,-0.260355,-1.09691,0.0529818,-0.109251,0.106044
-0.0146853,0.148221,-0.781116,-0.0726084,-0.274351,-1.06652,0.0449193,-0.112713,0.144523
-0.0171654,0.14649,-0.802342,-0.144752,-0.28813,-1.03477,0.0390449,-0.119567,0.180352
-0.0191352,0.143087,-0.822908,-0.225194,-0.189002,-1.0079,0.0116295,-0.12684,0.183691
-0.0190148,0.138932,-0.843232,-0.223364,-0.094167,-1.00439,-0.0123585,-0.127613,0.129971
-0.0174319,0.135145,-0.863654,-0.187504,-0.0381167,-1.02948,-0.0223855,-0.108675,0.051263
-0.0156417,0.132766,-0.885064,-0.0762433,-0.072504,-1.08817,-0.0387721,-0.103631,-0.0552474
-0.0142854,0.132902,-0.907206,0.0588473,-0.0736942,-1.10766,-0.0390637,-0.10133,-0.139916
-0.0133136,0.135562,-0.929535,0.169561,-0.165163,-1.11188,-0.0430223,-0.106934,-0.211044
-0.0161715,0.139638,-0.951709,0.183435,-0.454445,-1.09314,-0.0485008,-0.117208,-0.263708
-0.0161715,0.139638,-0.951709,0.183435,-0.454445,-1.09314,-0.0485008,-0.117208,-0.263708
-0.0256345,0.142347,-0.973355,0.0121402,-0.755384,-1.06731,-0.0325347,-0.107981,-0.255419
-0.0369823,0.140844,-0.994701,-0.217478,-0.622236,-1.03688,0.00145148,-0.118868,-0.243062
-0.0420081,0.136917,-1.01446,-0.206981,-0.118694,-0.893067,0.0679394,-0.118531,-0.317605
-0.0371768,0.13606,-1.03075,0.0849853,0.313958,-0.725062,0.0978904,-0.0968572,-0.437325
-0.0283165,0.141647,-1.04385,0.424797,0.332507,-0.609435,0.108901,-0.0459292,-0.455374
-0.023066,0.153167,-1.05537,0.681482,-0.0246048,-0.574513,0.103009,-0.00319336,-0.351585
-0.0262499,0.168521,-1.06705,0.811123,-0.479318,-0.632912,0.0850487,0.048828,-0.153635
-0.0371591,0.185567,-1.0804,0.838967,-0.828332,-0.743573,0.052092,0.0890598,0.0594391
-0.0528338,0.20224,-1.09591,0.739123,-1.01165,-0.851531,0.0243129,0.0969827,0.243358
-0.0689852,0.215888,-1.11314,0.51134,-0.913573,-0.914762,0.0240412,0.0839657,0.381141
-0.0786993,0.225001,-1.13163,0.273495,-0.403889,-0.952204,0.00408093,0.0548338,0.425543
-0.0752546,0.230086,-1.15018,0.107173,0.330115,-0.876402,-0.0183352,0.0272551,0.367421
-0.0588905,0.232555,-1.16699,0.0356119,0.857575,-0.787689,-0.03277,0.0375019,0.227726
-0.0366167,0.233616,-1.18298,-0.00426593,0.955861,-0.786156,-0.0384368,0.0795653,0.0819247
-0.0145752,0.233457,-1.19914,-0.0587416,0.861654,-0.782686,-0.0297049,0.116474,-0.0414826
0.00403997,0.2324,-1.21495,-0.0307649,0.61698,-0.760551,-0.0305579,0.114622,-0.169058
0.01654,0.233264,-1.23031,0.153166,0.266572,-0.744662,-0.0407953,0.126418,-0.259256
0.0219659,0.238565,-1.24617,0.402789,-0.0814765,-0.810857,-0.0568798,0.154842,-0.24131
0.0221157,0.247854,-1.26419,0.541543,-0.312325,-0.919741,-0.0572505,0.179467,-0.115986
0.019864,0.258249,-1.28379,0.52087,-0.381926,-0.94707,-0.0303429,0.164949,0.0298803
0.0172903,0.267323,-1.30271,0.417596,-0.36245,-0.847561,0.0244471,0.128286,0.137708
0.0148527,0.274268,-1.31851,0.307534,-0.288034,-0.661604,0.0759129,0.10144,0.204583
0.0140311,0.279364,-1.3303,0.224478,-0.113196,-0.465977,0.0759298,0.0786162,0.238221
0.0151441,0.282827,-1.33766,0.123938,-0.00193189,-0.232076,0.0783079,0.0692782,0.248368
0.0160249,0.284006,-1.34051,-0.00392023,-0.00921004,-0.0553804,0.0706773,0.0657262,0.242166
0.0149632,0.282787,-1.34059,-0.106516,-0.10186,0.0378998,0.0506646,0.0614429,0.22142
0.0120077,0.280166,-1.339,-0.149638,-0.141288,0.104425,0.0216029,0.0438489,0.185977
0.0086716,0.276948,-1.3364,-0.178351,-0.101119,0.142576,0.0122278,0.0277088,0.165212
0.00676035,0.272922,-1.33313,-0.226633,-0.011126,0.174782,0.0179192,-0.0100559,0.127852
0.00617791,0.268247,-1.32909,-0.243491,0.0476955,0.210755,0.0279023,-0.0499613,0.0748296
0.0058574,0.263207,-1.32403,-0.27388,0.0586433,0.288839,0.0701958,-0.079559,0.0234054
0.00492642,0.25701,-1.31667,-0.360907,0.0351966,0.420634,0.0949363,-0.105323,-0.0252737
0.00360215,0.248493,-1.30625,-0.5017,0.124857,0.58759,0.0987424,-0.131864,-0.073874
0.00431313,0.237522,-1.29246,-0.586493,0.241374,0.742007,0.0977215,-0.135647,-0.158197
0.00388619,0.225676,-1.27607,-0.617571,0.0970145,0.855456,0.0895504,-0.14594,-0.259404
0.00186513,0.212621,-1.25764,-0.684666,0.111575,0.947099,0.134438,-0.0972969,-0.309554
0.000437656,0.199661,-1.23693,-0.595997,0.180842,1.09312,0.169386,-0.0859341,-0.36441
0.000641424,0.189539,-1.2135,-0.407252,0.286962,1.1899,0.161907,-0.0427343,-0.377879
0.00193144,0.184073,-1.19001,-0.134505,0.232933,1.11115,0.129861,0.00145577,-0.352085
0.000154472,0.183837,-1.16849,0.0826992,-0.0350245,1.01784,0.130662,0.0159789,-0.252629
-0.00712588,0.18601,-1.14825,0.110525,-0.313875,0.993675,0.156188,0.00410686,-0.0930501
-0.0190684,0.186957,-1.12753,-0.00448869,-0.46711,1.04983,0.188825,-0.00471276,0.0565078
-0.0322542,0.184856,-1.10553,-0.139345,-0.415332,1.12519,0.208091,-0.0061056,0.156249
-0.042779,0.180728,-1.08183,-0.165077,-0.185029,1.23378,0.208497,-0.0148346,0.176249
-0.0479747,0.176959,-1.05611,-0.0869898,0.12275,1.30212,0.19154,0.00286457,0.155981
-0.0469899,0.175117,-1.02997,0.0270036,0.438395,1.27264,0.187276,0.0515576,0.13137
-0.0395015,0.176169,-1.00439,0.196793,0.757992,1.26401,0.187028,0.079159,0.0637867
-0.0273752,0.181217,-0.977828,0.382636,0.885866,1.35328,0.197929,0.0999355,-0.0142868
-0.0155656,0.188638,-0.948906,0.384008,0.812467,1.47916,0.204589,0.130514,-0.0148066
-0.00733747,0.194215,-0.917539,0.185351,0.59293,1.60591,0.184644,0.147525,0.013949
-0.00733747,0.194215,-0.917539,0.185351,0.59293,1.60591,0.184644,0.147525,0.013949
-0.00480571,0.195083,-0.883614,-0.0769732,0.308474,1.72119,0.145156,0.16269,0.0370657
-0.00844844,0.191416,-0.848464,-0.243424,0.00802042,1.72729,0.0899133,0.17496,0.0537071
-0.0173122,0.186093,-0.814104,-0.227008,-0.233903,1.65484,0.048705,0.180093,0.0786719
-0.0289534,0.181756,-0.781601,-0.135112,-0.304899,1.56586,0.0386196,0.170838,0.147041
-0.03928,0.17908,-0.750458,-0.0274997,-0.147188,1.52605,0.0372839,0.117455,0.199558
-0.0454388,0.178147,-0.719844,0.0511949,0.0730601,1.49493,0.0265921,0.0740872,0.232746
-0.0475885,0.177715,-0.690035,0.0260812,0.219592,1.43787,0.0128095,0.0421834,0.259183
-0.0481859,0.175843,-0.661804,-0.0929322,0.194773,1.35013,-0.00532516,0.0103722,0.257866
-0.0498442,0.170974,-0.63579,-0.275927,0.0987551,1.2432,-0.0134944,-0.00826403,0.243549
-0.0518839,0.162394,-0.612061,-0.444099,0.110391,1.14493,-0.0162655,-0.0412452,0.187572
-0.0522466,0.152415,-0.59028,-0.406868,0.182061,1.0643,-0.0177185,-0.0780026,0.0689831
-0.0523397,0.145162,-0.570247,-0.20993,0.0793194,0.946813,-0.0289381,-0.0824282,-0.0392469
-0.055216,0.142063,-0.553149,-0.0133977,-0.136099,0.755169,-0.0553381,-0.085084,-0.0993664
-0.0622662,0.142403,-0.539751,0.107496,-0.354829,0.574006,-0.067417,-0.0982359,-0.10814
-0.0714633,0.144178,-0.529743,0.121512,-0.401473,0.408763,-0.0896319,-0.121457,-0.107567
-0.0797522,0.145471,-0.523022,0.0513133,-0.323997,0.249931,-0.0809638,-0.113937,-0.112615
-0.0873866,0.145287,-0.51892,-0.0449304,-0.422065,0.176348,-0.0454953,-0.137801,-0.165526
-0.0967607,0.142714,-0.515683,-0.178424,-0.392422,0.158014,-0.011718,-0.146299,-0.207561
-0.0994097,0.138331,-0.512967,-0.215962,0.244824,0.171775,0.0388345,-0.117343,-0.267265
-0.087122,0.133941,-0.508155,-0.172795,1.01436,0.364035,0.0827535,-0.12183,-0.382909
-0.0647464,0.130912,-0.499248,-0.0413427,1.20628,0.528148,0.0838466,-0.113099,-0.528487
-0.0476427,0.131643,-0.487824,0.178153,0.556002,0.58373,0.0804005,-0.056313,-0.601193
-0.0483768,0.135914,-0.476771,0.256181,-0.482595,0.467137,0.0751032,0.0154396,-0.492788
-0.0657848,0.138976,-0.469077,0.0791616,-1.05356,0.272168,0.0461674,0.0570469,-0.249195
-0.0879471,0.139327,-0.465705,0.0270918,-1.02236,0.0631891,0.00133506,0.0278995,-0.0696396
-0.103795,0.141819,-0.46591,0.261065,-0.55768,-0.0982856,-0.00410544,0.0274215,0.0176833
-0.111482,0.151119,-0.468236,0.643935,-0.292231,-0.229161,0.0168437,0.048036,0.102812
-0.115494,0.167092,-0.472009,0.851518,-0.176015,-0.310848,0.0464934,0.0719554,0.216396
-0.117009,0.183864,-0.476651,0.725997,-0.0596651,-0.337592,0.0455297,0.0582569,0.333081
-0.11481,0.196275,-0.482181,0.439857,0.221791,-0.342259,0.00179276,0.0237828,0.36657
-0.105154,0.203113,-0.488166,0.195378,0.622736,-0.31725,-0.0245164,0.0284101,0.307697
-0.0878928,0.206034,-0.49427,0.0530731,0.964436,-0.316807,-0.04103,0.0606589,0.195561
-0.0660985,0.207065,-0.500601,0.0207179,1.03709,-0.303317,-0.0226103,0.0896221,0.0607452
-0.045985,0.208428,-0.505986,0.0945231,0.845997,-0.216935,0.0128083,0.100904,-0.0627007
-0.0311283,0.21132,-0.50924,0.185224,0.558567,-0.125208,0.00111881,0.116,-0.124403
-0.0236479,0.215955,-0.51162,0.269158,0.127829,-0.136906,-0.0278069,0.140748,-0.113863
-0.0244642,0.221909,-0.51525,0.309572,-0.265587,-0.243116,-0.048892,0.161819,-0.0281087
-0.0306044,0.22823,-0.521067,0.298662,-0.44031,-0.32786,-0.0417423,0.14938,0.0915931
-0.0379206,0.233969,-0.527467,0.251416,-0.411817,-0.298555,-0.00149724,0.10356,0.193536
-0.0432706,0.238281,-0.532033,0.156215,-0.209566,-0.148361,0.0332764,0.0600529,0.267878
-0.0443193,0.240375,-0.5329,0.0445273,0.0766695,0.0556204,0.0574658,0.033279,0.302479
-0.0413711,0.240032,-0.529812,-0.0708232,0.27703,0.238931,0.0481692,0.0174735,0.28776
-0.0365855,0.237218,-0.523735,-0.180496,0.324616,0.343339,0.019104,0.0126179,0.231568
-0.0318787,0.232689,-0.516791,-0.23802,0.309768,0.332513,-0.0186683,0.0134622,0.157904
-0.027013,0.227808,-0.510845,-0.225536,0.328987,0.255128,-0.048151,-0.00126956,0.0760729
-0.0210061,0.223741,-0.506466,-0.165898,0.355986,0.19478,-0.0382959,-0.0283042,-0.00452626
-0.0152748,0.221145,-0.502345,-0.0850547,0.29642,0.234171,0.01713,-0.0650769,-0.0747598
-0.0116218,0.219727,-0.496372,-0.0723245,0.219278,0.3592,0.0598498,-0.0943686,-0.100021
-0.00892507,0.217378,-0.487764,-0.164057,0.243673,0.480225,0.0566886,-0.104841,-0.103056
-0.00614852,0.213259,-0.477314,-0.229257,0.25258,0.535874,0.0407992,-0.0972373,-0.140195
-0.00614852,0.213259,-0.477314,-0.229257,0.25258,0.535874,0.0407992,-0.0972373,-0.140195
-0.00395634,0.209358,-0.466699,-0.129508,0.175999,0.502108,0.0298557,-0.082589,-0.206383
-0.00461932,0.208512,-0.456635,0.0187737,-0.0407836,0.502643,0.0347469,-0.0820274,-0.231967
-0.00718444,0.207754,-0.445954,-0.130506,0.0838437,0.54301,0.0532183,-0.0847377,-0.170027
-0.0050757,0.203446,-0.43403,-0.280306,0.353473,0.657486,0.137005,-0.0589104,-0.182425
0.0013226,0.196687,-0.418013,-0.403713,0.628537,0.938941,0.201919,-0.0610489,-0.23797
0.0116442,0.188223,-0.396252,-0.420005,0.749555,1.1741,0.196356,-0.035802,-0.315412
0.0200322,0.182129,-0.371695,-0.210918,0.515431,1.19819,0.14978,0.0378587,-0.359221
0.0229518,0.1814,-0.349254,0.0929027,0.18447,0.982302,0.0861456,0.0998405,-0.302907
0.0204675,0.186751,-0.332489,0.399068,-0.118299,0.692462,0.071763,0.124983,-0.180542
0.0140736,0.197105,-0.320381,0.590137,-0.252874,0.54306,0.091424,0.106613,-0.013768
0.00716978,0.209622,-0.309679,0.631702,-0.207655,0.544026,0.140463,0.0777648,0.133099
0.00135962,0.221736,-0.297618,0.560965,-0.0995132,0.660804,0.186509,0.0528706,0.223563
-0.00189074,0.231324,-0.282026,0.393273,0.138765,0.872036,0.199625,0.0397062,0.257526
-0.00114847,0.237002,-0.261655,0.178446,0.406232,1.10807,0.166918,0.0383174,0.243072
0.00251156,0.238512,-0.237155,-0.0201884,0.497012,1.2646,0.133744,0.0729117,0.184319
0.00571823,0.236605,-0.210264,-0.17533,0.457216,1.35702,0.0977736,0.105772,0.106401
0.00748953,0.232175,-0.18158,-0.279392,0.381944,1.43642,0.0739035,0.112724,0.0420496
0.00752168,0.22667,-0.151641,-0.280111,0.2926,1.47531,0.0402935,0.11333,-0.000338912
0.00459591,0.222319,-0.121552,-0.160555,0.0721011,1.45594,0.00647303,0.122256,-0.0219971
-0.00287362,0.220867,-0.0927544,0.00456957,-0.181752,1.3467,-0.016758,0.137426,0.017757
-0.0137912,0.22179,-0.0669834,0.09175,-0.325009,1.16585,-0.0333305,0.133749,0.129343
-0.0254317,0.223382,-0.0449639,0.0905789,-0.344996,0.996907,-0.0414412,0.0940261,0.23906
-0.0362215,0.223938,-0.0254993,0.0159019,-0.298466,0.919521,-0.0236354,0.0408266,0.307887
-0.0456307,0.222698,-0.00692367,-0.0622864,-0.226266,0.89711,-0.00441602,-0.00728779,0.322831
-0.0524749,0.220255,0.0109156,-0.0815478,-0.0574115,0.849999,-0.014658,-0.0301333,0.294246
-0.0558769,0.218549,0.02727,0.00642181,0.0561056,0.745387,-0.0289767,-0.0423729,0.231556
-0.0567415,0.21873,0.0408503,0.070705,0.148979,0.57687,-0.0414724,-0.0469714,0.189858
-0.0551557,0.219133,0.0509972,0.0049548,0.233143,0.417866,-0.0438469,-0.0754179,0.159401
-0.0511162,0.217521,0.0583346,-0.130192,0.309158,0.31625,-0.0268923,-0.111949,0.090425
-0.0469129,0.213547,0.064329,-0.23764,0.234006,0.301855,0.0108268,-0.144564,-0.0100417
-0.0437689,0.207566,0.0705639,-0.320151,0.230654,0.336713,0.034103,-0.160987,-0.10457
-0.0402075,0.201052,0.0773472,-0.284088,0.270917,0.353147,0.0186198,-0.168967,-0.207352
-0.0369474,0.196593,0.0844477,-0.134242,0.101651,0.366557,0.000704993,-0.157591,-0.311741
-0.0405463,0.193666,0.0918797,-0.185829,-0.22143,0.354389,-0.0373711,-0.149904,-0.305283
-0.0448025,0.187713,0.0975556,-0.370196,-0.0657135,0.219465,-0.0825556,-0.111102,-0.263334
-0.0435983,0.18024,0.100675,-0.323776,0.253946,0.134251,-0.104857,-0.107554,-0.327345
-0.0365678,0.175719,0.103022,-0.113667,0.434529,0.116036,-0.0909107,-0.10471,-0.424306
-0.0304427,0.175759,0.104584,0.11466,0.132225,0.0301394,-0.0901329,-0.0779063,-0.448388
-0.0333421,0.179449,0.104207,0.217604,-0.428254,-0.0797457,-0.07897,-0.0425973,-0.368854
-0.0453196,0.183355,0.101632,0.150092,-0.762951,-0.184986,-0.0822559,-0.0306219,-0.207759
-0.0597338,0.185962,0.0970775,0.109706,-0.717126,-0.266442,-0.0837108,-0.0273731,-0.0862394
-0.0705272,0.189524,0.0911503,0.235605,-0.465997,-0.34076,-0.0713723,-0.0159538,-0.0304641
-0.0764145,0.197099,0.083848,0.474797,-0.291497,-0.438883,-0.06854,0.0145513,0.0163513
-0.0803794,0.209316,0.0746806,0.654113,-0.31058,-0.552688,-0.0680966,0.0450409,0.0893339
-0.084468,0.223399,0.063587,0.633822,-0.324675,-0.639564,-0.0637555,0.0650207,0.184335
-0.086849,0.235453,0.0507669,0.443941,-0.177649,-0.712431,-0.070286,0.0697702,0.253808
-0.0841863,0.243106,0.0360309,0.203195,0.108377,-0.7835,-0.106343,0.0622819,0.257487
-0.0750731,0.246655,0.0197069,0.0446712,0.390642,-0.822192,-0.115485,0.0708524,0.181755
-0.0613623,0.248511,0.00230833,0.0569202,0.536612,-0.886138,-0.100289,0.100224,0.0655696
-0.0454572,0.252178,-0.0164505,0.231468,0.577503,-0.942039,-0.0789052,0.128801,-0.0457974
-0.0299734,0.259819,-0.0354046,0.456139,0.480918,-0.907959,-0.0451336,0.141656,-0.11725
-0.0299734,0.259819,-0.0354046,0.456139,0.480918,-0.907959,-0.0451336,0.141656,-0.11725
-0.0174446,0.2704,-0.0530654,0.540572,0.293955,-0.828646,-0.021978,0.161755,-0.107878
-0.00965149,0.281244,-0.0698174,0.513816,0.0284844,-0.809244,-0.0329947,0.179803,-0.0450863
-0.00684517,0.290948,-0.0865836,0.439766,-0.211504,-0.818912,-0.0379982,0.199672,0.0452607
-0.00782532,0.298872,-0.103787,0.335682,-0.369981,-0.833857,-0.017897,0.199106,0.140668
-0.0104254,0.304485,-0.120701,0.211673,-0.373863,-0.77942,0.0365265,0.177915,0.225983
-0.0125932,0.307489,-0.135603,0.0694116,-0.271197,-0.634797,0.0807583,0.149209,0.288699
-0.0125232,0.307622,-0.146784,-0.0642843,-0.0623354,-0.430645,0.0997035,0.115598,0.307306
-0.00984236,0.305446,-0.153863,-0.158211,0.107853,-0.260128,0.0833155,0.0941448,0.288857
-0.00572511,0.301594,-0.158341,-0.233548,0.143978,-0.17352,0.0730021,0.0876307,0.247497
-0.00207284,0.29618,-0.161205,-0.315126,0.154222,-0.0980018,0.0614003,0.0548998,0.193334
0.00166896,0.289444,-0.162754,-0.350435,0.173621,-0.0585795,0.0494869,0.00700754,0.130978
0.00614766,0.282652,-0.1641,-0.327382,0.233907,-0.0780416,0.0451522,-0.0299192,0.0675856
0.0115425,0.276626,-0.165517,-0.272065,0.241114,-0.0439175,0.0653736,-0.0699214,0.00313234
0.0158664,0.271027,-0.165274,-0.315253,0.222163,0.0651057,0.0892208,-0.10995,-0.0221441
0.0203198,0.263456,-0.162492,-0.445066,0.311037,0.190025,0.0892083,-0.140765,-0.0446523
0.0262275,0.254368,-0.157257,-0.451036,0.411766,0.282697,0.0739388,-0.148116,-0.120584
0.0335079,0.246794,-0.150935,-0.315357,0.464779,0.296404,0.0564569,-0.134137,-0.206839
0.0391001,0.242139,-0.1448,-0.211256,0.186671,0.294372,0.0283496,-0.146405,-0.267876
0.0396387,0.236111,-0.138209,-0.461357,0.0961831,0.328976,0.0585018,-0.146509,-0.231756
0.0406843,0.224698,-0.130045,-0.666002,0.200668,0.447002,0.117774,-0.130811,-0.268117
0.0445228,0.212354,-0.117583,-0.594977,0.484786,0.733337,0.148646,-0.15287,-0.37037
0.0536649,0.203604,-0.100193,-0.331301,0.756068,0.886547,0.104817,-0.103067,-0.432634
0.0647669,0.202145,-0.0827912,0.0900902,0.656527,0.781771,0.0393947,-0.00693165,-0.426316
0.0726292,0.208638,-0.069625,0.442671,0.3906,0.545908,-0.0118945,0.0467727,-0.309589
0.0761185,0.219988,-0.0614791,0.597506,0.142429,0.356035,-0.0253689,0.0604268,-0.121225
0.075508,0.232235,-0.0558888,0.564855,-0.0722598,0.301565,0.00395088,0.0491531,0.0634602
0.0712093,0.242584,-0.0500996,0.412983,-0.201655,0.353466,0.0439559,0.0466849,0.200774
0.0656831,0.249158,-0.0423341,0.191298,-0.119472,0.441029,0.0635882,0.0551816,0.284322
0.0632453,0.251937,-0.0325669,0.0497138,0.137501,0.521085,0.0566204,0.0587135,0.287738
0.066005,0.253392,-0.0210079,0.0365861,0.403476,0.611004,0.061378,0.0720391,0.220797
0.0722663,0.254938,-0.00777496,0.0243673,0.542352,0.673381,0.0713962,0.103138,0.158329
0.0798423,0.255991,0.00658076,-0.0327701,0.563729,0.733854,0.0668845,0.1241,0.10665
0.0863362,0.255445,0.0226912,-0.164735,0.482014,0.816874,0.0671886,0.140051,0.0732764
0.0895764,0.252143,0.0405651,-0.315672,0.266538,0.8807,0.0451469,0.139327,0.0454912
0.0866716,0.246705,0.0595497,-0.374323,-0.107345,0.896944,0.0216944,0.13984,0.0272244
0.0762937,0.241083,0.0780243,-0.32906,-0.471424,0.842021,-0.0150097,0.129685,0.0550472
0.0606898,0.236201,0.0948986,-0.28774,-0.66199,0.76324,-0.0432672,0.108248,0.14354
0.0441712,0.231276,0.10984,-0.285753,-0.626779,0.668064,-0.063077,0.0745875,0.233
0.0295952,0.226293,0.122923,-0.260138,-0.525115,0.598864,-0.046323,0.0324722,0.271792
0.0185326,0.221652,0.134957,-0.233414,-0.296935,0.576166,-0.0322078,-0.0130684,0.282833
0.0131762,0.217385,0.146781,-0.208653,0.017567,0.577878,-0.045016,-0.0506652,0.257004
0.0132631,0.213584,0.158745,-0.190758,0.214792,0.589043,-0.0482091,-0.0679888,0.194202
0.0154272,0.209795,0.170343,-0.212534,0.225445,0.526433,-0.0585453,-0.0749593,0.110724
0.0169435,0.205406,0.179978,-0.234709,0.106733,0.4139,-0.0622714,-0.0823665,0.0347002
0.0159782,0.2012,0.187631,-0.189125,-0.0446786,0.339421,-0.0536648,-0.105879,-0.0517003
0.0123538,0.198508,0.194327,-0.0902262,-0.17976,0.313076,-0.0545151,-0.132657,-0.113005
0.00690171,0.197447,0.200302,-0.0295572,-0.226161,0.265565,-0.0795673,-0.143631,-0.137281
0.00225233,0.197241,0.20465,0.00616512,-0.146692,0.154915,-0.113735,-0.133457,-0.151304
-6.74645e-05,0.197607,0.206651,0.0265718,-0.0469125,0.0451971,-0.118403,-0.12817,-0.17858
-0.000503254,0.198319,0.206532,0.0463219,-0.0285583,-0.0582879,-0.1179,-0.131607,-0.219415
-0.000503254,0.198319,0.206532,0.0463219,-0.0285583,-0.0582879,-0.1179,-0.131607,-0.219415
-0.00292106,0.199641,0.204627,0.0850186,-0.304142,-0.119987,-0.100302,-0.133867,-0.254928
-0.00999637,0.200479,0.201716,-0.0183807,-0.381517,-0.177773,-0.110977,-0.133213,-0.228909
-0.0150892,0.199596,0.196985,-0.0487893,-0.205126,-0.278957,-0.102795,-0.101852,-0.221762
-0.0157032,0.199957,0.191067,0.0873877,0.014909,-0.286822,-0.0819614,-0.0973631,-0.273174
-0.013661,0.203368,0.185313,0.243218,0.024121,-0.300092,-0.080493,-0.0816007,-0.304772
-0.0148743,0.209641,0.17812,0.356531,-0.335001,-0.419086,-0.0999844,-0.0286161,-0.275329
-0.0232985,0.216507,0.168436,0.284739,-0.678447,-0.538351,-0.104826,-0.000924617,-0.156653
-0.0353236,0.22102,0.15667,0.141997,-0.741908,-0.621139,-0.120954,-0.0171486,-0.045076
-0.0459372,0.22382,0.143491,0.108654,-0.59932,-0.676266,-0.10032,-0.00443894,0.00935227
-0.052806,0.227401,0.129352,0.188215,-0.401047,-0.722343,-0.0960078,0.0105112,0.0349855
-0.0559012,0.233015,0.114177,0.287458,-0.291794,-0.796665,-0.11527,0.0376139,0.0677835
-0.0580405,0.239829,0.0971936,0.280745,-0.331894,-0.901461,-0.134311,0.069858,0.122239
-0.0605749,0.245557,0.0777285,0.172828,-0.375339,-1.02232,-0.137888,0.0866943,0.175163
-0.0617327,0.248962,0.0557762,0.0363832,-0.2502,-1.12566,-0.14167,0.0921775,0.18798
-0.0584543,0.249949,0.0319659,-0.0684007,-0.00172787,-1.18988,-0.1619,0.0848637,0.151825
-0.0497291,0.249446,0.00693612,-0.103159,0.238688,-1.25024,-0.183336,0.0925548,0.0723131
-0.0376995,0.248821,-0.0202536,-0.0647344,0.254678,-1.40168,-0.180877,0.13501,-0.0206363
-0.0263006,0.249686,-0.0509513,0.0729854,0.116855,-1.58047,-0.159851,0.161269,-0.0831791
-0.0171904,0.253888,-0.084657,0.273644,-0.0407461,-1.69162,-0.135049,0.164575,-0.0886877
-0.0103361,0.261196,-0.120115,0.386192,-0.181714,-1.75523,-0.112985,0.167172,-0.00999826
-0.00578153,0.269097,-0.156904,0.357676,-0.330636,-1.80955,-0.0831412,0.168464,0.113989
-0.0034677,0.275746,-0.194578,0.28279,-0.449053,-1.8222,-0.0421955,0.15787,0.210431
-0.00239841,0.280422,-0.231737,0.163194,-0.440161,-1.75313,0.00915592,0.13159,0.286284
0.00112834,0.282318,-0.266701,0.0270284,-0.130839,-1.60972,0.0333554,0.0921811,0.31852
0.0125884,0.282445,-0.29789,0.0370756,0.421572,-1.38786,0.0264697,0.061755,0.278721
0.0327255,0.284008,-0.324017,0.174698,0.811026,-1.12445,0.00396098,0.0507891,0.191131
0.0550124,0.287323,-0.345483,0.223557,0.741038,-0.943951,-0.0313531,0.0654446,0.125555
0.0723113,0.289832,-0.364362,0.131967,0.449138,-0.858433,-0.0720426,0.0799503,0.0865249
0.0833673,0.29003,-0.38137,0.0157343,0.193468,-0.761984,-0.100545,0.0635838,0.0406466
0.0896159,0.288054,-0.395394,-0.0860632,0.0414429,-0.593038,-0.109231,0.0351699,-0.0168964
0.0919941,0.284706,-0.405347,-0.157951,-0.0887357,-0.386776,-0.116502,0.00057146,-0.0803248
0.089655,0.280053,-0.410423,-0.281809,-0.295668,-0.138943,-0.108004,-0.0169435,-0.124789
0.0817478,0.272179,-0.410196,-0.510527,-0.478162,0.0824809,-0.10897,-0.0222461,-0.143163
0.0702875,0.260684,-0.405871,-0.639765,-0.552315,0.237207,-0.10492,-0.0173287,-0.198556
0.0554992,0.24799,-0.398768,-0.697668,-0.74048,0.362698,-0.114214,-0.0364961,-0.267268
0.0400509,0.233182,-0.390082,-0.808161,-0.560643,0.3986,-0.0795754,-0.0221905,-0.275433
0.0303852,0.217707,-0.381299,-0.732376,-0.195389,0.406476,-0.007645,-0.00751938,-0.327644
0.0272805,0.205902,-0.37245,-0.463027,0.0359897,0.433742,0.036089,-0.0614644,-0.404574
0.0260528,0.199991,-0.363341,-0.158397,-0.0376316,0.435558,0.0765506,-0.0827729,-0.422577
0.020329,0.198858,-0.355135,-0.0162422,-0.390375,0.359352,0.106446,-0.0842034,-0.335736
0.00776621,0.197805,-0.348667,-0.126273,-0.737048,0.279551,0.150527,-0.0798959,-0.193662
-0.0108702,0.194082,-0.343571,-0.220395,-1.00614,0.222106,0.188156,-0.0892537,-0.102527
-0.0320197,0.190614,-0.340068,-0.0809207,-0.996879,0.120867,0.199067,-0.0682593,-0.051208
-0.0494886,0.192024,-0.338847,0.234607,-0.7025,-0.0115026,0.199072,-0.0340995,0.000361502
-0.0589069,0.199615,-0.33995,0.496677,-0.244051,-0.132462,0.20901,-0.0073358,0.0735358
-0.0581439,0.210852,-0.342748,0.60049,0.242306,-0.198207,0.238923,0.00116357,0.123692
-0.0498121,0.223553,-0.34584,0.648211,0.485751,-0.151883,0.290343,0.00679046,0.117461
-0.0392387,0.236259,-0.346695,0.608553,0.527179,0.0185422,0.331703,0.0317207,0.110495
-0.0301715,0.247158,-0.343833,0.476947,0.445627,0.229583,0.336196,0.0570573,0.129556
-0.0238162,0.254354,-0.336518,0.256527,0.385825,0.458354,0.305732,0.0819734,0.163795
-0.0194124,0.257334,-0.325076,0.0892456,0.337421,0.633839,0.241001,0.103548,0.171495
-0.01664,0.258489,-0.310868,0.0728382,0.316942,0.720969,0.157246,0.133488,0.162902
-0.0144492,0.260397,-0.296088,0.139345,0.271519,0.696601,0.0844878,0.172717,0.180909
-0.0131468,0.263163,-0.28216,0.129685,0.217484,0.654099,0.0420822,0.190266,0.24976
-0.0130417,0.264071,-0.268491,-0.0411666,0.148825,0.676918,0.0218819,0.172313,0.329633
-0.0142065,0.260757,-0.253958,-0.265551,0.124526,0.738915,-0.00402022,0.13594,0.367465
-0.0150861,0.253491,-0.238252,-0.427035,0.196574,0.792722,-0.0377343,0.130912,0.342094
-0.0144272,0.244045,-0.221907,-0.484248,0.264626,0.802435,-0.0812156,0.11721,0.270759
-0.0128128,0.233933,-0.206046,-0.511229,0.256264,0.746667,-0.132526,0.110818,0.209072
-0.0121322,0.222932,-0.191779,-0.588468,0.113257,0.659725,-0.166895,0.0951592,0.16494
-0.0148845,0.209907,-0.179375,-0.704776,-0.118577,0.576279,-0.171096,0.0624032,0.115042
-0.0207708,0.194835,-0.168779,-0.76448,-0.234863,0.482755,-0.198603,0.0105759,0.0484033
-0.0274973,0.180062,-0.160577,-0.681374,-0.283038,0.353311,-0.226063,-0.0206623,-0.0263965
-0.033926,0.167143,-0.155554,-0.612317,-0.253477,0.17435,-0.264527,-0.0470437,-0.0620955
-0.0381787,0.154966,-0.154473,-0.610746,-0.162396,-0.0158489,-0.276955,-0.0890619,-0.0963671
-0.0398722,0.14231,-0.156915,-0.672564,-0.0166743,-0.182108,-0.267365,-0.119874,-0.140382
-0.0384473,0.129027,-0.162936,-0.665839,0.029458,-0.356989,-0.244536,-0.146615,-0.225735
-0.0361746,0.116783,-0.171827,-0.589324,0.139048,-0.477771,-0.216216,-0.188536,-0.322692
-0.029371,0.106352,-0.182776,-0.498325,0.432507,-0.564255,-0.190602,-0.192295,-0.39385
-0.0172519,0.0975449,-0.194558,-0.397972,0.617516,-0.588371,-0.169324,-0.20835,-0.491978
-0.00485944,0.0915545,-0.206999,-0.204777,0.456103,-0.661037,-0.148252,-0.177799,-0.587131
0.000842127,0.0901746,-0.221719,0.0763021,-0.0702307,-0.825992,-0.128295,-0.134145,-0.606541
-0.00534639,0.0944319,-0.240529,0.331031,-0.7034,-1.0547,-0.118609,-0.0916062,-0.506911
-0.020612,0.102604,-0.263666,0.438565,-0.980945,-1.26138,-0.129843,-0.0629202,-0.292214
-0.0368337,0.112666,-0.290526,0.495084,-0.907688,-1.44328,-0.124404,-0.0475604,-0.0971783
-0.0494899,0.124987,-0.320557,0.623369,-0.709927,-1.59791,-0.101749,-0.0139028,0.040606
-0.0494899,0.124987,-0.320557,0.623369,-0.709927,-1.59791,-0.101749,-0.0139028,0.040606
-0.0569034,0.140972,-0.353306,0.802899,-0.469134,-1.73584,-0.096905,0.0139953,0.137754
-0.0583835,0.160335,-0.388422,0.914026,-0.196229,-1.8536,-0.119293,0.0386005,0.214481
-0.0522505,0.180757,-0.426034,0.9116,0.173255,-1.97753,-0.161698,0.062282,0.251134
-0.0372389,0.200156,-0.466568,0.848932,0.566447,-2.08958,-0.194256,0.0648962,0.217332
-0.0132789,0.217415,-0.509525,0.779537,0.920524,-2.16668,-0.205052,0.0893028,0.139687
0.0163651,0.232474,-0.554433,0.738248,1.01025,-2.20734,-0.201486,0.106149,0.0250778
0.045967,0.245485,-0.59956,0.706181,0.848911,-2.13737,-0.165667,0.117569,-0.080596
0.070987,0.257046,-0.643132,0.707819,0.579647,-2.01844,-0.146325,0.127531,-0.158872
0.0908106,0.268538,-0.684886,0.785712,0.332105,-1.9332,-0.166232,0.15462,-0.193026
0.106541,0.281774,-0.726332,0.935924,0.122944,-1.93094,-0.206211,0.202087,-0.174705
0.119362,0.297173,-0.769162,1.04972,-0.0532835,-1.9876,-0.222578,0.247896,-0.0834873
0.130242,0.313222,-0.813434,1.05702,-0.177766,-1.99602,-0.205678,0.258046,0.0425314
0.140164,0.32796,-0.856814,0.956111,-0.175887,-1.88183,-0.162396,0.242492,0.15896
0.150739,0.340425,-0.896931,0.825779,-0.0677183,-1.68282,-0.144008,0.215648,0.227685
0.16355,0.350491,-0.932329,0.700721,0.145795,-1.4657,-0.155273,0.203726,0.25327
0.178186,0.358921,-0.963376,0.631835,0.215106,-1.27129,-0.176356,0.204047,0.237843
0.191104,0.36622,-0.990607,0.548959,0.073527,-1.11685,-0.204477,0.211208,0.203494
0.197873,0.371544,-1.01478,0.397253,-0.283826,-1.00274,-0.222966,0.213839,0.174389
0.196791,0.37367,-1.03587,0.19893,-0.565524,-0.87948,-0.221323,0.195006,0.16095
0.190468,0.372844,-1.05284,0.0280853,-0.655412,-0.674625,-0.215511,0.152962,0.132532
0.182084,0.369747,-1.06398,-0.136939,-0.589525,-0.407021,-0.211551,0.111746,0.0772674
0.171813,0.364603,-1.06883,-0.300212,-0.648113,-0.125546,-0.183885,0.111324,0.00685918
0.156013,0.356564,-1.06754,-0.519309,-0.916561,0.0877811,-0.157784,0.138363,-0.0400693
0.13334,0.343676,-1.0628,-0.859801,-1.12638,0.146796,-0.180164,0.125326,-0.0395066
0.110749,0.322264,-1.0567,-1.34157,-0.911589,0.181151,-0.122304,0.104923,-0.0446711
0.092314,0.292604,-1.04866,-1.64045,-0.695286,0.293364,-0.0194019,0.0110116,-0.180431
0.077906,0.260822,-1.03855,-1.55332,-0.472866,0.400811,0.0702823,-0.0919638,-0.362954
0.0677797,0.234396,-1.02807,-1.14095,-0.309153,0.409627,0.137753,-0.140577,-0.489662
0.0584952,0.216199,-1.01894,-0.769987,-0.504625,0.356908,0.18762,-0.137441,-0.48598
0.0402559,0.202926,-1.01204,-0.621975,-1.23452,0.238869,0.217218,-0.143755,-0.376781
0.00809215,0.191209,-1.00849,-0.559428,-1.86706,0.0828636,0.202978,-0.128725,-0.208259
-0.0313215,0.180945,-1.0086,-0.468894,-1.99034,-0.0896792,0.130476,-0.119555,-0.0459374
-0.0667252,0.172573,-1.01302,-0.386227,-1.56603,-0.318566,0.0815087,-0.0892995,0.0819225
-0.0885199,0.16736,-1.02276,-0.185704,-0.737411,-0.604506,0.0167956,-0.0893865,0.111333
-0.090909,0.168904,-1.03786,0.232395,0.239331,-0.899928,0.011428,-0.048985,0.0681096
-0.0744313,0.180161,-1.05854,0.708207,0.996713,-1.22027,0.0463798,0.0172461,0.0163083
-0.0462787,0.198786,-1.08394,0.948399,1.26025,-1.34985,0.134142,0.051087,0.00126052
-0.0166546,0.217751,-1.10996,0.828919,1.13515,-1.22525,0.219767,0.035431,0.0237815
0.00800519,0.232084,-1.13196,0.595026,0.817195,-0.906876,0.275687,0.00716674,0.0092603
0.024472,0.241342,-1.1469,0.362086,0.484748,-0.54548,0.253446,0.0125501,0.00390005
0.0334866,0.246502,-1.15596,0.194344,0.224688,-0.352138,0.168566,0.052637,0.0307213
0.038495,0.249429,-1.16276,0.140579,0.136119,-0.313776,0.095991,0.102915,0.070478
0.0432529,0.252354,-1.1694,0.190264,0.19657,-0.31387,0.056946,0.106205,0.108474
0.0495724,0.25667,-1.17538,0.257513,0.272155,-0.226834,0.0638418,0.0846866,0.155689
0.0556365,0.261349,-1.17848,0.198987,0.240876,-0.0339965,0.0805121,0.0584477,0.226297
0.0588088,0.263678,-1.17664,0.0150086,0.12286,0.237753,0.0806161,0.0297521,0.288308
0.0579601,0.262712,-1.16867,-0.139395,-0.00707468,0.52034,0.0547166,0.0174218,0.296373
0.0534105,0.25975,-1.1555,-0.229232,-0.0871649,0.719768,0.00330685,0.0337862,0.288791
0.0477439,0.255006,-1.13908,-0.327084,-0.0478334,0.827695,-0.0690248,0.0511713,0.285422
0.0432899,0.248492,-1.12141,-0.396019,0.0378196,0.846964,-0.127595,0.0682391,0.260368
0.0400765,0.241164,-1.10401,-0.399553,0.0432504,0.813535,-0.166836,0.0780516,0.209752
0.0356723,0.2339,-1.08732,-0.399369,-0.113406,0.784089,-0.193843,0.0652083,0.160338
0.0279268,0.225787,-1.07166,-0.474611,-0.292294,0.704963,-0.237633,0.0495722,0.139232
0.0182076,0.215099,-1.05832,-0.6407,-0.380278,0.579047,-0.263087,0.0261271,0.111941
0.0182076,0.215099,-1.05832,-0.6407,-0.380278,0.579047,-0.263087,0.0261271,0.111941
0.00732488,0.200415,-1.04709,-0.846194,-0.464771,0.511835,-0.259635,-0.0347499,0.0457385
-0.00321433,0.182383,-1.03723,-0.934284,-0.386543,0.453764,-0.23866,-0.0703504,-0.0751541
-0.0108536,0.164277,-1.02863,-0.856659,-0.225219,0.412385,-0.24152,-0.104191,-0.213686
-0.0154425,0.148399,-1.02128,-0.727343,-0.158867,0.318847,-0.265657,-0.114779,-0.308976
-0.0213835,0.134814,-1.01703,-0.640724,-0.417215,0.111899,-0.303717,-0.122521,-0.352348
-0.032823,0.121722,-1.01783,-0.695788,-0.722658,-0.159112,-0.32294,-0.119088,-0.33676
-0.0470484,0.107087,-1.02442,-0.783554,-0.714621,-0.431776,-0.319999,-0.135442,-0.322518
-0.0568837,0.0926005,-1.03596,-0.696142,-0.339031,-0.62689,-0.30008,-0.173676,-0.380452
-0.058691,0.0826211,-1.05062,-0.355061,-0.0376586,-0.777001,-0.265807,-0.1782,-0.48198
-0.0596622,0.0807135,-1.06807,0.0432419,-0.266163,-0.96512,-0.244995,-0.146913,-0.504739
-0.0679084,0.0851968,-1.08964,0.23309,-0.736573,-1.22423,-0.224733,-0.106908,-0.39368
-0.0828274,0.0921567,-1.11609,0.25437,-0.941997,-1.45227,-0.199601,-0.0860133,-0.22836
-0.098004,0.100534,-1.14613,0.338173,-0.840129,-1.60562,-0.165937,-0.078361,-0.12048
-0.109124,0.112797,-1.1786,0.568269,-0.606142,-1.73814,-0.144317,-0.071478,-0.0710726
-0.114876,0.130657,-1.21287,0.812429,-0.396359,-1.85817,-0.122925,-0.0199832,-0.0189645
-0.115855,0.152335,-1.2495,0.899187,-0.223885,-2.00691,-0.110764,0.0341774,0.0576449
-0.112209,0.174419,-1.28921,0.836589,-0.0528861,-2.14155,-0.110764,0.0664799,0.117199
-0.103532,0.19448,-1.33179,0.711329,0.146873,-2.24701,-0.102687,0.098713,0.136493
-0.0896412,0.212185,-1.37663,0.644689,0.333216,-2.29339,-0.0744433,0.126856,0.0981447
-0.0711854,0.228344,-1.42185,0.612875,0.520114,-2.23748,-0.0371052,0.154755,0.0320769
-0.0497142,0.242637,-1.4656,0.550326,0.595871,-2.10912,-0.0105998,0.174071,-0.0233809
-0.0274738,0.254619,-1.50742,0.507965,0.582565,-2.00994,-0.024929,0.209015,-0.0609719
-0.00692913,0.265828,-1.54775,0.567563,0.417105,-1.92311,-0.0401435,0.24159,-0.0837927
0.00942116,0.277922,-1.58685,0.645882,0.165628,-1.86351,-0.0522724,0.277333,-0.048028
0.0210501,0.290454,-1.62544,0.656944,-0.0653808,-1.83171,-0.0631509,0.295237,0.0466317
0.0294765,0.302353,-1.66334,0.628896,-0.188342,-1.76014,-0.0539379,0.287132,0.141083
0.0363059,0.313414,-1.69931,0.591189,-0.209878,-1.63628,-0.029769,0.275563,0.223105
0.0429376,0.323203,-1.7325,0.511944,-0.138235,-1.48835,-0.0219947,0.260919,0.287574
0.0516503,0.331489,-1.76293,0.467694,0.0226997,-1.36547,-0.0343361,0.256405,0.31736
0.0616839,0.339348,-1.79063,0.458662,0.0423375,-1.20259,-0.0385981,0.251009,0.306062
0.0691282,0.346407,-1.81481,0.376185,-0.137022,-1.03375,-0.049635,0.242414,0.296506
0.0711011,0.350489,-1.83541,0.148524,-0.366583,-0.87525,-0.058162,0.233341,0.308872
0.0672854,0.349285,-1.85191,-0.171325,-0.576719,-0.675674,-0.0706058,0.195253,0.29412
0.0577114,0.341606,-1.86308,-0.534625,-0.752424,-0.413845,-0.0402779,0.159464,0.245123
0.0441834,0.32727,-1.86794,-0.865081,-0.721863,-0.12309,-0.0197147,0.111925,0.163315
0.0320563,0.30824,-1.86749,-1.00778,-0.462214,0.0667041,-0.0455548,0.0861576,0.0210899
0.0246242,0.28852,-1.86524,-0.949642,-0.257268,0.0761667,-0.0534654,0.0870393,-0.148131
0.0190465,0.270409,-1.8634,-0.891831,-0.25925,0.0701572,0.00184938,0.0454912,-0.278822
0.013159,0.252303,-1.86086,-0.934047,-0.261571,0.164903,0.127028,-0.00134218,-0.348196
0.00755355,0.233342,-1.85566,-0.954429,-0.152916,0.328688,0.232626,-0.0940571,-0.412047
0.00462446,0.21536,-1.84697,-0.826563,0.057937,0.502433,0.319335,-0.146699,-0.485422
0.00481129,0.201478,-1.8356,-0.548041,0.158307,0.604558,0.37639,-0.189897,-0.540579
0.00352908,0.193544,-1.82192,-0.279355,-0.0720605,0.741454,0.44455,-0.207382,-0.526444
-0.00585113,0.189043,-1.80548,-0.20135,-0.584239,0.869039,0.474421,-0.211449,-0.415537
-0.0259818,0.18484,-1.78708,-0.18815,-1.04332,0.937455,0.472161,-0.179263,-0.275117
-0.0515251,0.181612,-1.76805,-0.0288732,-1.1165,0.94143,0.414684,-0.121188,-0.153265
-0.0753146,0.18284,-1.74904,0.287564,-0.900316,0.909001,0.366042,-0.0551155,-0.0529188
-0.0932696,0.190662,-1.7308,0.636498,-0.527873,0.805537,0.31833,0.00294021,0.0429493
-0.101179,0.204647,-1.71415,0.909928,0.092656,0.685338,0.285148,0.0526939,0.118611
-0.0949332,0.223685,-1.6991,1.13389,0.846485,0.612617,0.258628,0.0777049,0.138268
-0.0760449,0.246733,-1.68411,1.26187,1.33293,0.658533,0.272676,0.124181,0.12124
-0.0514605,0.270128,-1.66807,1.13543,1.50439,0.751177,0.276852,0.160928,0.126966
-0.0272433,0.289421,-1.65004,0.859176,1.38762,0.925627,0.26776,0.172406,0.129715
-0.00879971,0.3032,-1.62774,0.564539,1.10168,1.19924,0.257712,0.181083,0.127475
-0.00879971,0.3032,-1.62774,0.564539,1.10168,1.19924,0.257712,0.181083,0.127475
0.000869944,0.311573,-1.59965,0.281459,0.707714,1.47415,0.217846,0.202141,0.140695
0.000501852,0.314603,-1.56656,0.0284839,0.287888,1.66309,0.171428,0.239493,0.172629
-0.00789628,0.313511,-1.53076,-0.112708,0.00348749,1.73589,0.120976,0.272421,0.213159
-0.019545,0.310247,-1.49439,-0.152193,-0.0178934,1.73599,0.0622051,0.27647,0.265248
-0.0301772,0.306635,-1.45825,-0.118484,0.0557051,1.72513,0.0363183,0.278324,0.306818
-0.0386725,0.302967,-1.42255,-0.156189,0.168499,1.70087,0.00470595,0.266905,0.350913
-0.0443987,0.296697,-1.38725,-0.354773,0.305783,1.70766,-0.0178884,0.240575,0.382565
-0.0472447,0.285483,-1.35175,-0.603636,0.432162,1.75603,-0.0440398,0.19608,0.351064
-0.0472635,0.270072,-1.31596,-0.753514,0.545094,1.74217,-0.0795888,0.163621,0.252379
-0.0450048,0.253419,-1.28226,-0.749054,0.542528,1.57958,-0.119701,0.144544,0.124567
-0.0421608,0.237844,-1.25265,-0.675251,0.453149,1.3674,-0.148262,0.106519,0.0242834
-0.0411588,0.224229,-1.22696,-0.595627,0.217758,1.21086,-0.154768,0.0356632,-0.0589408
-0.0445194,0.21109,-1.20406,-0.652294,-0.0439189,1.07937,-0.169862,-0.0203936,-0.0765562
-0.0510863,0.195422,-1.18426,-0.83221,-0.185767,0.946109,-0.184451,-0.0715513,-0.0912368
-0.0570997,0.176697,-1.16732,-0.918382,-0.0529416,0.826161,-0.196795,-0.1299,-0.154855
-0.0589033,0.158535,-1.15258,-0.79006,0.0814276,0.748515,-0.212377,-0.181789,-0.275132
-0.0591431,0.143584,-1.13897,-0.641938,0.0904751,0.673182,-0.231188,-0.207388,-0.353803
-0.059407,0.130281,-1.12744,-0.660893,0.046884,0.557782,-0.239242,-0.203553,-0.368103
-0.0582482,0.11435,-1.11765,-0.878071,0.246199,0.515439,-0.239269,-0.219594,-0.392264
-0.0524187,0.0962359,-1.10903,-0.813009,0.372221,0.431026,-0.247805,-0.234769,-0.534833
-0.047074,0.0837757,-1.10263,-0.358263,0.18243,0.249558,-0.264525,-0.194795,-0.674716
-0.0476156,0.0823007,-1.10068,0.203652,-0.243865,-0.0716637,-0.267947,-0.12873,-0.646772
-0.0562889,0.0901768,-1.10496,0.512513,-0.623583,-0.376794,-0.23706,-0.0987728,-0.446299
-0.0698223,0.102098,-1.11385,0.617306,-0.801002,-0.573569,-0.198328,-0.106621,-0.211458
-0.0856786,0.116347,-1.12576,0.722181,-0.913968,-0.714161,-0.157864,-0.0998727,-0.0442633
-0.102921,0.132813,-1.13975,0.778316,-0.970988,-0.827381,-0.110324,-0.0822986,0.0943772
-0.119429,0.149745,-1.15568,0.718462,-0.880054,-0.928238,-0.0762648,-0.0800467,0.19722
-0.132563,0.164812,-1.17309,0.547291,-0.716738,-0.960678,-0.0587332,-0.0935778,0.235485
-0.141625,0.175799,-1.19096,0.300615,-0.474441,-0.932062,-0.0600438,-0.111436,0.226133
-0.144723,0.18268,-1.20877,0.170537,-0.158132,-0.911665,-0.0600243,-0.109045,0.14674
-0.142173,0.189924,-1.22642,0.336563,0.0763934,-0.919097,-0.0320264,-0.069593,-0.00880075
-0.134812,0.20186,-1.24392,0.631153,0.331707,-0.967378,-0.0101855,-0.0155111,-0.129246
-0.121373,0.220717,-1.26235,1.02972,0.624018,-1.06209,-0.0384326,0.0239071,-0.202275
-0.103157,0.247867,-1.28168,1.45284,0.703432,-1.10725,-0.0417895,0.0753845,-0.22851
-0.0846301,0.281229,-1.30164,1.65351,0.603321,-1.1342,-0.0267628,0.134486,-0.154357
-0.0685333,0.315486,-1.32258,1.58805,0.401475,-1.10819,-0.0089815,0.163382,-0.0313832
-0.0551768,0.346476,-1.34263,1.39306,0.302727,-0.97277,0.0214303,0.188126,0.0730551
-0.0435072,0.373024,-1.36007,1.1951,0.265075,-0.791191,0.0258998,0.206489,0.140218
-0.0330889,0.395973,-1.37408,1.06131,0.24757,-0.598081,0.0224968,0.235789,0.169446
-0.024229,0.416104,-1.38449,0.92436,0.229339,-0.429462,-0.00866334,0.268412,0.19054
-0.0165876,0.433368,-1.3925,0.800861,0.202807,-0.349356,-0.0573647,0.305916,0.194938
-0.00972129,0.44873,-1.39955,0.736142,0.182912,-0.315113,-0.10437,0.347716,0.175508
-0.00355746,0.462948,-1.40649,0.681927,0.118119,-0.326243,-0.145987,0.378152,0.164891
0.00110973,0.475496,-1.41426,0.559155,-0.00595985,-0.372358,-0.168086,0.401566,0.189679
0.00373323,0.484243,-1.42298,0.296063,-0.126085,-0.390934,-0.170098,0.40548,0.242016
0.0045563,0.486504,-1.43129,-0.0741946,-0.177941,-0.323827,-0.150039,0.378198,0.271308
0.00329983,0.481018,-1.43673,-0.472867,-0.194388,-0.152793,-0.119167,0.336187,0.260222
1.96906e-05,0.46811,-1.43807,-0.804039,-0.196853,0.0282511,-0.102007,0.306013,0.219342
-0.00534938,0.449559,-1.43564,-1.04911,-0.246997,0.18359,-0.102619,0.286466,0.158149
-0.0135999,0.426538,-1.43101,-1.24914,-0.395505,0.238762,-0.132089,0.276118,0.104136
-0.0254722,0.399771,-1.42648,-1.43742,-0.63159,0.226792,-0.157767,0.253801,0.0711505
-0.0398633,0.368185,-1.42316,-1.71905,-0.60583,0.166876,-0.160496,0.217192,0.0971274
-0.0479565,0.331622,-1.42247,-1.92012,-0.104223,0.0715338,-0.131172,0.186051,0.0573283
-0.0428695,0.293002,-1.42322,-1.92365,0.57078,0.0468999,-0.0596171,0.0847563,-0.111415
-0.0428695,0.293002,-1.42322,-1.92365,0.57078,0.0468999,-0.0596171,0.0847563,-0.111415
-0.0263321,0.255992,-1.4238,-1.76492,1.0474,0.0113041,0.00841174,-0.00817752,-0.319681
-0.00342452,0.224378,-1.42562,-1.37076,1.1328,-0.152276,0.0689057,-0.0883065,-0.521396
0.0171834,0.201886,-1.43035,-0.893983,0.765279,-0.306436,0.149701,-0.179305,-0.624657
0.0275082,0.187229,-1.43651,-0.597295,0.125764,-0.313676,0.253112,-0.234365,-0.593989
0.0242417,0.176687,-1.44149,-0.452155,-0.543049,-0.180311,0.303714,-0.30502,-0.494389
0.00822727,0.168765,-1.44266,-0.344289,-1.02992,0.0380229,0.302376,-0.312,-0.342609
-0.0139015,0.163062,-1.44116,-0.219542,-1.10269,0.0775469,0.22618,-0.260222,-0.184366
-0.0333962,0.160987,-1.44064,0.0358485,-0.803974,-0.0357013,0.141296,-0.207002,-0.0847394
-0.0449467,0.165215,-1.44266,0.379446,-0.388283,-0.179603,0.124428,-0.155146,-0.0101728
-0.0477452,0.175689,-1.44661,0.619579,0.0423536,-0.244688,0.131694,-0.130741,0.0746557
-0.0427428,0.188803,-1.45044,0.642317,0.363691,-0.17829,0.146997,-0.110717,0.158899
-0.0338486,0.200477,-1.45232,0.509083,0.45446,-0.0463367,0.145606,-0.0889031,0.198725
-0.0256816,0.209231,-1.4516,0.379494,0.35357,0.0865249,0.131961,-0.0593367,0.179849
-0.0206773,0.216252,-1.44899,0.343963,0.213159,0.143576,0.0932075,-0.0165395,0.15544
-0.0181011,0.223046,-1.44582,0.340908,0.126865,0.148156,0.0493901,0.023401,0.160661
-0.016449,0.229717,-1.44284,0.325126,0.123528,0.138568,0.0185034,0.0378981,0.176068
-0.014619,0.235703,-1.43949,0.272888,0.123072,0.18512,0.0168083,0.0409763,0.190646
-0.0133001,0.240126,-1.43483,0.163014,0.131899,0.2638,0.00293889,0.0362414,0.21283
-0.0121938,0.24178,-1.42854,0.00839984,0.111931,0.342314,-0.0204335,0.0339559,0.219743
-0.012681,0.24028,-1.42081,-0.153517,0.0223834,0.407924,-0.0300573,0.0369705,0.204042
-0.0154707,0.235756,-1.4118,-0.282563,-0.092882,0.476412,-0.0298491,0.0319481,0.168786
-0.0204849,0.229054,-1.40142,-0.36388,-0.16185,0.54317,-0.0495705,0.0213222,0.128996
-0.0269196,0.221537,-1.39045,-0.346933,-0.243025,0.533303,-0.0931415,0.0206782,0.082904
-0.0343995,0.21506,-1.38091,-0.266111,-0.300124,0.408849,-0.152007,0.0372588,0.0419831
-0.0425809,0.210467,-1.37465,-0.180965,-0.406163,0.225211,-0.188275,0.0358972,0.0159569
-0.0523856,0.206752,-1.37203,-0.195064,-0.510611,0.0488035,-0.208351,0.0162413,0.0021252
-0.0618796,0.202148,-1.3732,-0.274598,-0.423247,-0.141769,-0.226666,-0.0105149,-0.00775665
-0.0659268,0.196847,-1.37859,-0.256433,-0.0639838,-0.358962,-0.24002,-0.0309841,-0.0661201
-0.0627551,0.193902,-1.38801,-0.102509,0.151988,-0.53965,-0.272629,-0.0723402,-0.194302
-0.056981,0.193084,-1.40079,-0.0946011,0.140305,-0.713847,-0.275926,-0.0933312,-0.244419
-0.052871,0.190157,-1.41662,-0.312663,-0.0350417,-0.806425,-0.220186,-0.10951,-0.254581
-0.0511519,0.181986,-1.43311,-0.571071,-0.0492831,-0.754991,-0.150047,-0.146608,-0.287988
-0.0490512,0.17055,-1.44771,-0.60498,-0.0218066,-0.639524,-0.105748,-0.14514,-0.400139
-0.0486996,0.160706,-1.46118,-0.421515,-0.201601,-0.680701,-0.133084,-0.0911289,-0.473162
-0.0541547,0.155969,-1.47742,-0.137056,-0.620101,-0.927813,-0.182216,-0.0222296,-0.427878
-0.0666459,0.156636,-1.49951,0.0518908,-0.948662,-1.2693,-0.207656,0.0362448,-0.25383
-0.0822454,0.160925,-1.52829,0.158232,-1.02601,-1.59463,-0.19433,0.0537101,-0.0538395
-0.0959696,0.168226,-1.56241,0.266084,-0.916786,-1.8289,-0.146283,0.0658253,0.117669
-0.106184,0.17816,-1.60056,0.331301,-0.762416,-2.01011,-0.106813,0.069049,0.261648
-0.111956,0.188751,-1.64163,0.251592,-0.541582,-2.12595,-0.0907781,0.0811408,0.386201
-0.111531,0.196375,-1.68502,0.0103128,-0.24773,-2.18894,-0.106644,0.0658581,0.438752
-0.104328,0.198385,-1.72974,-0.287641,0.104616,-2.19989,-0.13028,0.039051,0.402851
-0.0887393,0.194344,-1.77554,-0.53596,0.586266,-2.26377,-0.183431,0.0427017,0.300785
-0.0625805,0.18685,-1.82399,-0.526986,1.10337,-2.44407,-0.231335,0.0822186,0.117267
-0.0272716,0.180927,-1.87561,-0.255159,1.46696,-2.60905,-0.23868,0.109309,-0.0823471
0.0132329,0.180707,-1.92985,0.214757,1.56308,-2.73429,-0.248231,0.112098,-0.254895
0.0528579,0.187747,-1.98649,0.651657,1.33443,-2.81602,-0.268427,0.124039,-0.320672
0.0860931,0.19923,-2.04531,0.85761,0.84755,-2.87921,-0.274502,0.124535,-0.282353
0.110809,0.210608,-2.10561,0.84026,0.44882,-2.88951,-0.254562,0.124094,-0.174029
0.130944,0.219925,-2.16527,0.801381,0.317243,-2.78296,-0.232574,0.0794386,-0.0918586
0.1499,0.228339,-2.22185,0.812319,0.351047,-2.56399,-0.208466,0.0405687,-0.0440965
0.169971,0.236879,-2.27374,0.843235,0.457727,-2.29686,-0.192964,0.0131881,-0.0126815
0.190513,0.246187,-2.32021,0.879066,0.467228,-1.98146,-0.188048,-0.000494331,-0.00288337
0.190513,0.246187,-2.32021,0.879066,0.467228,-1.98146,-0.188048,-0.000494331,-0.00288337
0.208583,0.25602,-2.36032,0.852525,0.334453,-1.64859,-0.188758,0.0011262,0.0136371
0.222029,0.265546,-2.39418,0.786509,0.128357,-1.36203,-0.21272,0.00703502,0.021493
0.229919,0.274861,-2.42279,0.747077,-0.0930679,-1.13427,-0.250639,0.0187427,0.0173207
0.23285,0.284438,-2.44728,0.723499,-0.286881,-0.95062,-0.282362,0.034494,0.00619739
0.230934,0.29427,-2.46797,0.681138,-0.494715,-0.753593,-0.278648,0.0456565,0.00585771
0.224015,0.303687,-2.4838,0.576415,-0.639821,-0.518815,-0.26583,0.039717,0.0162737
0.213639,0.312215,-2.49428,0.466739,-0.715075,-0.27095,-0.264679,0.0450981,0.0153933
0.199572,0.319225,-2.49876,0.279946,-0.852335,-0.0121108,-0.261736,0.0473053,0.00144935
0.180218,0.321904,-2.49715,-0.0576386,-1.00859,0.208492,-0.246224,0.0582555,-0.0123615
0.156271,0.318112,-2.48927,-0.441661,-1.08326,0.473243,-0.161148,0.0880733,-0.0584201
0.131083,0.308245,-2.47447,-0.704421,-0.955531,0.793015,-0.108724,0.0666774,-0.140161
0.107624,0.296093,-2.45328,-0.72494,-0.772939,1.03659,-0.0962725,0.0820533,-0.221047
0.0852873,0.284197,-2.43021,-0.69166,-0.86832,1.02432,-0.12794,0.120505,-0.252541
0.0554621,0.271154,-2.40926,-0.785317,-1.66013,0.873443,-0.0858789,0.143363,-0.228388
0.00710771,0.253801,-2.39401,-1.01753,-2.79089,0.511057,-0.00279059,0.155824,-0.114045
-0.0577012,0.23131,-2.38908,-1.20144,-3.43676,0.0340678,0.0681877,0.138356,0.0293641
-0.122505,0.208176,-2.39458,-1.11501,-3.03195,-0.354798,0.11683,0.082454,0.101677
-0.17001,0.191091,-2.4082,-0.754125,-1.91093,-0.698883,0.141286,0.0390212,0.114127
-0.190317,0.183721,-2.42712,-0.313296,-0.479987,-1.00024,0.1647,0.0328021,0.0884963
-0.182685,0.185114,-2.45084,-0.0304005,0.74318,-1.33484,0.162316,0.0449594,0.0522372
-0.155931,0.190364,-2.48096,0.007184,1.27423,-1.65864,0.223082,0.0846476,-0.0232793
-0.123184,0.194915,-2.51595,-0.0256792,1.29735,-1.77408,0.310396,0.0572238,-0.128589
-0.0927256,0.199159,-2.5504,0.108645,1.05403,-1.59702,0.397235,0.0016167,-0.251974
-0.070427,0.205965,-2.57916,0.340251,0.597185,-1.26404,0.407749,-0.0361951,-0.294437
-0.0582316,0.215711,-2.60139,0.472479,0.181691,-1.00245,0.320018,-0.0116356,-0.191793
-0.0530055,0.226162,-2.62024,0.455175,-0.0383738,-0.920429,0.205303,0.0417591,-0.00562477
-0.0497536,0.235741,-2.63854,0.42188,-0.0225564,-0.915865,0.133807,0.0647706,0.142662
-0.0443808,0.245225,-2.65664,0.457195,0.148717,-0.880705,0.104349,0.0603711,0.237743
-0.0352861,0.255506,-2.67326,0.502284,0.351886,-0.758646,0.0972438,0.0489844,0.307235
-0.0232427,0.265428,-2.68638,0.427498,0.509898,-0.533806,0.101208,0.0368733,0.377455
-0.0108342,0.271983,-2.6943,0.20043,0.511575,-0.226964,0.0876604,0.0165819,0.418582
-0.0011531,0.273205,-2.69525,-0.0859789,0.391773,0.137571,0.06654,-0.00103971,0.403401
0.00340765,0.268341,-2.68863,-0.401492,0.251492,0.487864,0.00756332,0.00452727,0.357136
0.00338913,0.257796,-2.6761,-0.639049,0.0710428,0.694524,-0.0674251,0.032095,0.269683
-0.000376992,0.244034,-2.66093,-0.714197,-0.0605251,0.761424,-0.139527,0.0627707,0.154392
-0.00634181,0.23036,-2.64564,-0.636868,-0.180829,0.711114,-0.200277,0.0749164,0.0502554
-0.0144965,0.218843,-2.63296,-0.501443,-0.368946,0.518892,-0.245997,0.0898118,-0.0175904
-0.0258314,0.209906,-2.62493,-0.391963,-0.594183,0.292646,-0.252799,0.0749143,-0.0495584
-0.0408663,0.202123,-2.62072,-0.396729,-0.816703,0.17575,-0.216569,0.0148061,-0.0469169
-0.0587787,0.192785,-2.61756,-0.539071,-0.884376,0.190995,-0.16622,-0.0522579,-0.0396602
-0.0757465,0.179973,-2.61401,-0.704404,-0.724408,0.250666,-0.129406,-0.101636,-0.087866
-0.0884378,0.164903,-2.60968,-0.742326,-0.477298,0.282394,-0.129901,-0.130246,-0.195079
-0.0974945,0.150712,-2.60627,-0.628259,-0.429715,0.161029,-0.159913,-0.128361,-0.30552
-0.10791,0.139991,-2.6064,-0.447267,-0.637628,-0.0708544,-0.185941,-0.134774,-0.378183
-0.121694,0.132511,-2.611,-0.391877,-0.763647,-0.282664,-0.165895,-0.123553,-0.35678
-0.134615,0.12445,-2.61892,-0.512323,-0.593569,-0.382049,-0.15902,-0.176743,-0.314349
-0.14257,0.115333,-2.62823,-0.484175,-0.320346,-0.409194,-0.132904,-0.211964,-0.370573
-0.146935,0.109695,-2.63819,-0.188611,-0.305908,-0.514161,-0.14088,-0.17768,-0.452772
-0.154282,0.111302,-2.65066,0.148326,-0.591307,-0.758474,-0.15566,-0.108104,-0.42792
-0.167482,0.119049,-2.66806,0.302469,-0.883089,-1.07693,-0.159461,-0.046958,-0.279333
-0.181742,0.129047,-2.69113,0.280602,-0.765852,-1.33646,-0.143773,-0.0529669,-0.112905
-0.189512,0.140002,-2.71769,0.336121,-0.352453,-1.44348,-0.0910053,-0.0688135,-0.0341657
-0.188796,0.153794,-2.74491,0.531784,-0.0104662,-1.47145,-0.0499512,-0.0650883,-0.0186508
-0.18344,0.171919,-2.77237,0.742992,0.0667307,-1.54918,-0.0404148,-0.0155267,0.00869048
-0.18344,0.171919,-2.77237,0.742992,0.0667307,-1.54918,-0.0404148,-0.0155267,0.00869048
-0.177274,0.193445,-2.80147,0.842267,0.0136249,-1.65913,-0.0359117,0.035609,0.0730392
-0.170985,0.21512,-2.8325,0.736993,0.0159562,-1.712,-0.0301041,0.0520576,0.147931
-0.1619,0.233091,-2.86489,0.50469,0.199434,-1.70181,-0.036937,0.0425399,0.170668
-0.147078,0.246108,-2.8974,0.316788,0.521923,-1.62931,-0.0252567,0.0391477,0.117066
-0.126285,0.256402,-2.92871,0.317681,0.754397,-1.51705,-0.00672355,0.0550091,-0.00545174
-0.103609,0.267069,-2.95745,0.423509,0.727277,-1.37592,0.00217703,0.0857746,-0.117132
-0.0841858,0.278645,-2.98385,0.490173,0.481638,-1.27991,-0.00900068,0.122145,-0.153212
-0.0710473,0.291177,-3.00873,0.583712,0.130312,-1.2106,-0.0221189,0.153154,-0.149262
-0.0645087,0.305396,-3.03242,0.678335,-0.153301,-1.16379,-0.022015,0.186535,-0.0865857
-0.0621134,0.320723,-3.05578,0.705627,-0.304971,-1.15483,-0.0211242,0.216605,0.0283544
-0.0611073,0.336149,-3.07873,0.704342,-0.312707,-1.10908,-0.00628296,0.223668,0.142129
-0.0589004,0.351479,-3.10018,0.707691,-0.170699,-0.997825,0.0168765,0.215061,0.233928
-0.0537898,0.366274,-3.1188,0.666103,0.023286,-0.831748,0.0318566,0.206635,0.310888
-0.0464079,0.379371,-3.13393,0.563551,0.142504,-0.640615,0.0389729,0.20606,0.36877
-0.0392292,0.389399,3.13834,0.373014,0.157657,-0.412687,0.0450722,0.211908,0.403872
-0.0339821,0.394763,3.13216,0.14302,0.121947,-0.17615,0.0339564,0.205665,0.401604
-0.0319065,0.395818,3.131,-0.0286657,0.0383664,0.0605755,0.0191043,0.20789,0.352723
-0.0334738,0.393868,3.13399,-0.165622,-0.0966715,0.211817,-0.0311983,0.22588,0.300295
-0.0397596,0.388544,3.13948,-0.368207,-0.320304,0.31034,-0.0658596,0.237941,0.270495
-0.0496572,0.378003,-3.1367,-0.665213,-0.380008,0.388405,-0.098948,0.224046,0.249791
-0.0600705,0.361802,-3.12868,-0.895203,-0.374006,0.451377,-0.0982864,0.202578,0.162806
-0.0701092,0.342079,-3.11949,-1.01174,-0.28752,0.551689,-0.0611586,0.17561,0.0501271
-0.0777855,0.320513,-3.10809,-1.06811,-0.119428,0.68921,-0.046932,0.112203,-0.0650874
-0.0845329,0.297014,-3.09419,-1.20818,-0.168453,0.829634,-0.0625752,0.0419342,-0.158848
-0.0940099,0.268282,-3.07784,-1.53624,-0.335124,1.00716,-0.0132005,-0.000595927,-0.236197
-0.107034,0.232733,-3.05847,-1.79123,-0.484229,1.23113,0.0418767,-0.0596146,-0.352383
-0.121974,0.193617,-3.03564,-1.81748,-0.500085,1.41619,0.0443404,-0.107349,-0.474615
-0.13491,0.156132,-3.01194,-1.56612,-0.370367,1.34338,-0.0061428,-0.109821,-0.55799
-0.143281,0.126692,-2.99178,-1.03394,-0.199956,1.02421,-0.0630955,-0.118154,-0.603385
-0.148799,0.110413,-2.97725,-0.368928,-0.196781,0.6427,-0.052817,-0.140376,-0.57559
-0.15369,0.10759,-2.96826,0.199922,-0.178133,0.302199,-0.0157531,-0.159524,-0.43962
-0.156781,0.115276,-2.96321,0.612192,-0.0747182,0.0993019,0.0379001,-0.171723,-0.253226
-0.157834,0.129674,-2.95996,0.835648,-0.00311833,0.00317799,0.0919406,-0.155251,-0.0751801
-0.157992,0.147003,-2.95767,0.88518,0.0213771,-0.0473134,0.140868,-0.122767,0.0655628
-0.157627,0.163735,-2.95601,0.77604,0.0519301,-0.0435682,0.181563,-0.0991114,0.162931
-0.155536,0.177216,-2.95378,0.590987,0.231285,0.06486,0.221468,-0.0856575,0.197813
-0.148441,0.187085,-2.94908,0.488159,0.567632,0.243983,0.239828,-0.0672395,0.140325
-0.13574,0.196152,-2.94114,0.533699,0.841965,0.39221,0.232506,-0.000782296,0.0402221
-0.119354,0.206399,-2.93093,0.610566,0.972376,0.468919,0.21124,0.0784569,-0.0436147
-0.102708,0.217817,-2.91925,0.645737,0.919258,0.545327,0.181037,0.119663,-0.0807451
-0.0894196,0.229547,-2.90593,0.643204,0.672791,0.638331,0.144484,0.144834,-0.0688478
-0.0834488,0.240895,-2.89114,0.604865,0.26327,0.690176,0.116574,0.176072,0.00541937
-0.0858079,0.250702,-2.87591,0.480819,-0.105328,0.702123,0.0903019,0.20008,0.143366
-0.0938834,0.257393,-2.86072,0.319157,-0.303224,0.707401,0.0759173,0.195844,0.281707
-0.104508,0.260758,-2.84559,0.156966,-0.338071,0.725203,0.0776439,0.181321,0.395356
-0.113732,0.260667,-2.8301,-0.0054294,-0.157556,0.782562,0.0795472,0.150975,0.475479
-0.118459,0.256824,-2.81307,-0.193257,0.145731,0.923137,0.080279,0.113522,0.509953
-0.116761,0.248501,-2.79293,-0.402782,0.512256,1.11631,0.0520198,0.0740003,0.475729
-0.110527,0.236213,-2.7701,-0.562572,0.615372,1.20836,0.00704959,0.0701887,0.360922
-0.104195,0.221262,-2.74725,-0.68327,0.511378,1.1494,-0.0407564,0.0955751,0.240914
-0.100228,0.205122,-2.72689,-0.695997,0.312016,0.998382,-0.0788407,0.0781988,0.106599
-0.0999944,0.190343,-2.70932,-0.607832,0.0804528,0.876835,-0.0943732,0.0326862,-0.00125235
-0.102825,0.176585,-2.69345,-0.636641,-0.0777704,0.83555,-0.112194,-0.0422269,-0.0437911
-0.109014,0.160711,-2.67818,-0.790904,-0.292942,0.836098,-0.112437,-0.10649,-0.0812765
-0.109014,0.160711,-2.67818,-0.790904,-0.292942,0.836098,-0.112437,-0.10649,-0.0812765
-0.118478,0.14177,-2.66385,-0.92134,-0.39191,0.780467,-0.128895,-0.136048,-0.137303
-0.12652,0.122112,-2.6517,-0.849237,-0.224828,0.650624,-0.14734,-0.152346,-0.226317
-0.129578,0.106694,-2.64241,-0.53983,-0.0234909,0.469369,-0.170362,-0.172805,-0.333984
-0.131451,0.0979546,-2.6357,-0.299211,-0.0908344,0.310502,-0.176059,-0.202571,-0.364118
-0.133161,0.0910208,-2.63179,-0.368529,-0.00895049,0.171523,-0.158798,-0.209566,-0.301591
-0.130892,0.0827622,-2.63021,-0.394234,0.247467,0.115055,-0.123163,-0.234807,-0.341965
-0.12517,0.0763917,-2.62858,-0.191012,0.284351,0.127688,-0.0734575,-0.256599,-0.457723
-0.122101,0.075775,-2.62671,0.168791,-0.00315103,0.0389227,-0.0504721,-0.230435,-0.502832
-0.126873,0.082823,-2.62661,0.506796,-0.47999,-0.105829,-0.020873,-0.198674,-0.424417
-0.139826,0.0941463,-2.62772,0.560192,-0.7769,-0.1366,0.0236566,-0.207491,-0.21904
-0.155564,0.104487,-2.62862,0.44914,-0.773486,-0.0912965,0.0646151,-0.223874,-0.04879
-0.168692,0.112694,-2.62821,0.389526,-0.483685,0.00706061,0.0928683,-0.22455,0.0270374
-0.173419,0.120733,-2.62574,0.480496,0.0409126,0.0810248,0.104202,-0.204542,0.0384384
-0.16938,0.132211,-2.62186,0.729897,0.351032,0.0956679,0.107103,-0.156199,0.0112821
-0.162876,0.148167,-2.61734,0.890872,0.336105,0.0849998,0.10525,-0.0913421,0.0334026
-0.157491,0.164895,-2.61294,0.794176,0.297912,0.0724314,0.0850572,-0.0437523,0.119979
-0.150869,0.178072,-2.60954,0.557924,0.472079,0.0669583,0.0592515,-0.0224682,0.159653
-0.138316,0.18703,-2.6061,0.416162,0.853567,0.151335,0.0649905,-0.0213487,0.0887012
-0.120013,0.195279,-2.60032,0.50097,1.04354,0.30218,0.0736571,-0.00673535,-0.0720525
-0.101979,0.205865,-2.59212,0.637095,0.884775,0.366337,0.0554325,0.0513531,-0.166689
-0.0896075,0.218468,-2.58352,0.680187,0.527783,0.351198,0.0335581,0.10179,-0.171012
-0.0839692,0.230712,-2.57537,0.587951,0.251684,0.352012,0.0409379,0.117465,-0.102711
-0.0819282,0.240228,-2.56628,0.449403,0.199685,0.458439,0.0779455,0.11709,-0.0426553
-0.0802223,0.247916,-2.55471,0.429757,0.256645,0.603561,0.102756,0.137688,-0.0320745
-0.0777966,0.256006,-2.54042,0.494516,0.33552,0.70122,0.0808616,0.164962,-0.0233405
-0.0749356,0.265367,-2.52529,0.541906,0.329321,0.679924,0.0439094,0.210124,-0.00316596
-0.0733153,0.274795,-2.5105,0.490459,0.221921,0.684383,0.0733396,0.249164,0.0301772
-0.0744206,0.282564,-2.4951,0.399241,0.0974073,0.745503,0.0973586,0.24055,0.0620403
-0.0779263,0.288855,-2.47813,0.36425,0.043981,0.829333,0.0941383,0.223576,0.0812109
-0.0826131,0.295051,-2.45986,0.406253,0.00606954,0.868004,0.099812,0.20891,0.0855739
-0.089134,0.302366,-2.44049,0.483364,-0.0857849,0.926516,0.126817,0.197102,0.08529
-0.0972409,0.310786,-2.41961,0.529652,-0.0705979,0.976526,0.131408,0.186926,0.105768
-0.104518,0.319156,-2.39799,0.508582,0.00277268,0.987741,0.117125,0.187957,0.134505
-0.110822,0.326455,-2.37605,0.424084,0.0695323,1.013,0.117236,0.195199,0.158126
-0.115572,0.330846,-2.35379,0.248299,0.185582,1.03158,0.108756,0.165083,0.17359
-0.117825,0.331878,-2.33134,0.110247,0.319711,1.08623,0.136498,0.13101,0.140324
-0.118133,0.33018,-2.30735,-0.0102366,0.424812,1.19605,0.161922,0.102565,0.0828081
-0.117608,0.325866,-2.28162,-0.130464,0.453985,1.27022,0.155153,0.0767823,0.0290864
-0.116173,0.319747,-2.25548,-0.171232,0.521281,1.24769,0.125693,0.0552475,-0.0283211
-0.113415,0.314292,-2.23032,-0.0894465,0.538328,1.21569,0.110207,0.0319216,-0.0996958
-0.110376,0.310219,-2.20472,-0.055993,0.564412,1.2657,0.146047,0.0508271,-0.105484
-0.106351,0.305546,-2.17842,-0.160074,0.652482,1.26724,0.116386,0.0787075,-0.0614101
-0.099253,0.297586,-2.1527,-0.387253,0.842684,1.28079,0.077172,0.0764008,-0.0379617
-0.0885744,0.285278,-2.12661,-0.584308,0.93947,1.32368,0.0603626,0.0465913,-0.11237
-0.0790635,0.271305,-2.10043,-0.562043,0.689252,1.30007,0.0603146,0.0416098,-0.235236
-0.0756637,0.260091,-2.0749,-0.354794,0.321609,1.24998,0.0379997,0.0291415,-0.300787
-0.0789969,0.253345,-2.05031,-0.153684,-0.00582914,1.17542,0.013789,0.0101959,-0.253201
-0.0864479,0.249677,-2.02755,-0.0404205,-0.141963,1.04727,0.00111302,0.00914586,-0.154606
-0.0924223,0.248436,-2.00704,0.110999,0.112141,0.963442,0.00374871,0.0174949,-0.0973235
-0.0909688,0.250553,-1.98693,0.265025,0.554667,0.984876,0.00132164,0.0109099,-0.0800759
-0.0807662,0.254787,-1.96582,0.328397,0.963539,1.003,-0.0244042,0.0211886,-0.0618657
-0.0664404,0.260691,-1.9454,0.413415,0.914436,0.933011,-0.0168148,0.0752536,-0.0951087
-0.0567937,0.268468,-1.92594,0.469368,0.539649,0.900962,0.0216183,0.133724,-0.108101
-0.0553303,0.276527,-1.90705,0.415924,0.145764,0.877615,0.035562,0.128485,-0.0517766
-0.0553303,0.276527,-1.90705,0.415924,0.145764,0.877615,0.035562,0.128485,-0.0517766
-0.0595198,0.282217,-1.88817,0.257365,-0.0287444,0.913759,0.0523708,0.121259,0.0275721
-0.0667176,0.284292,-1.8685,0.0691397,-0.109587,0.959573,0.0589872,0.101142,0.0767434
-0.074919,0.282677,-1.84818,-0.0862485,-0.151189,0.998742,0.0807284,0.108822,0.0933454
-0.0830558,0.278439,-1.82767,-0.163686,-0.0764239,0.99637,0.082115,0.0834644,0.0896714
-0.0888963,0.273734,-1.80738,-0.122915,0.0457317,1.00605,0.0694216,0.0490608,0.0615971
-0.0919007,0.27054,-1.78666,-0.0036705,0.194305,1.00421,0.0355158,0.0161382,0.0423392
-0.0921114,0.269934,-1.76629,0.120439,0.343218,0.95114,-0.015918,0.0066424,0.0513166
-0.08857,0.271881,-1.74758,0.238221,0.514638,0.826685,-0.065155,0.0184984,0.0721473
-0.0814655,0.276524,-1.73163,0.345069,0.604653,0.666492,-0.0929044,0.0173984,0.076053
-0.0736627,0.282615,-1.71853,0.354094,0.508089,0.556155,-0.0875571,0.0224895,0.093208
-0.068734,0.288437,-1.7072,0.302085,0.316561,0.503875,-0.0818471,-0.00714114,0.10468
-0.0664397,0.293047,-1.69642,0.232595,0.25144,0.497362,-0.086998,-0.0354245,0.11854
-0.0636832,0.296662,-1.68607,0.205851,0.336761,0.458063,-0.101402,-0.0510541,0.118411
-0.058865,0.300464,-1.67668,0.233454,0.414286,0.417127,-0.115817,-0.0654408,0.10009
-0.0531864,0.305187,-1.66813,0.281978,0.385094,0.375671,-0.121857,-0.0771988,0.074604
-0.0489531,0.310814,-1.66059,0.312896,0.270915,0.308184,-0.128628,-0.0797558,0.0688948
-0.0465459,0.317109,-1.65445,0.349576,0.161462,0.258225,-0.134364,-0.0711597,0.0561218
-0.0458488,0.324164,-1.64887,0.37428,0.0887174,0.23865,-0.133404,-0.0618699,0.0594243
-0.046509,0.330655,-1.64353,0.279648,0.0109884,0.238204,-0.12575,-0.0531904,0.0819988
-0.0490128,0.33424,-1.63825,0.101516,-0.0838452,0.242427,-0.106443,-0.0532507,0.08589
-0.0526252,0.334796,-1.63316,-0.00057686,-0.0898239,0.233493,-0.0988486,-0.0595768,0.0477842
-0.0547366,0.33472,-1.62846,0.0392147,0.042361,0.20613,-0.110421,-0.0715196,-0.0164002
-0.0539352,0.336563,-1.62443,0.17605,0.145505,0.168305,-0.112583,-0.0823684,-0.0734683
-0.0532342,0.341195,-1.62009,0.292483,0.0293527,0.232108,-0.0585465,-0.0568203,-0.102269
-0.0563734,0.346519,-1.61443,0.232939,-0.119403,0.25604,-0.041732,0.00646535,-0.0595602
-0.0608166,0.348502,-1.60891,-0.0265763,-0.112979,0.257494,-0.0703007,-0.00271726,-0.00570005
-0.0636529,0.344205,-1.60304,-0.36454,0.0338588,0.33787,-0.0989804,-0.0650788,-0.0111237
-0.0655824,0.334917,-1.59568,-0.464567,-0.0313412,0.403303,-0.0983843,-0.0896133,-0.127554
-0.0703773,0.327063,-1.58861,-0.242391,-0.206101,0.288097,-0.122968,-0.0407362,-0.227489
-0.0760528,0.325085,-1.5851,0.0569172,-0.22033,0.0631093,-0.158438,-0.00832343,-0.228517
-0.0795255,0.327811,-1.58513,0.175145,-0.12239,-0.0659285,-0.153304,-0.037098,-0.162093
-0.0808871,0.331107,-1.58688,0.127643,-0.0806345,-0.122435,-0.103476,-0.0527177,-0.0985923
-0.0808035,0.333805,-1.58985,0.146008,0.00507801,-0.183868,-0.0669129,-0.0383568,-0.0899575
-0.0781738,0.338724,-1.59408,0.335429,0.119931,-0.263083,-0.0604984,-0.0183938,-0.118005
-0.0727263,0.34842,-1.59996,0.5867,0.204724,-0.357568,-0.0578177,0.0121132,-0.11854
-0.0668458,0.362174,-1.60698,0.713112,0.113269,-0.391957,-0.0175695,0.0610953,-0.0821422
-0.0632194,0.37626,-1.61464,0.62643,-0.0142128,-0.416018,0.0149193,0.104276,-0.0049333
-0.0610328,0.387522,-1.62329,0.451446,-0.0754052,-0.457505,0.0354302,0.124996,0.0424868
-0.0587268,0.395737,-1.63274,0.323761,-0.0545324,-0.46558,0.0685764,0.118703,0.0322824
-0.0550546,0.402256,-1.64212,0.296049,0.0837211,-0.453299,0.104376,0.0992133,0.00623399
-0.047235,0.409477,-1.65116,0.394506,0.326705,-0.4142,0.152857,0.0968147,-0.0171506
-0.0358305,0.418521,-1.65946,0.444187,0.471506,-0.388646,0.211518,0.092414,-0.0111507
-0.0215163,0.42613,-1.66666,0.273809,0.64353,-0.286833,0.241316,0.081975,0.0202552
-0.00688838,0.429141,-1.67178,0.0228967,0.606893,-0.183813,0.244026,0.0625744,0.0203095
0.00529409,0.428126,-1.67457,-0.0877877,0.478923,-0.0696516,0.270773,0.066717,-0.0438501
0.0137705,0.426904,-1.675,-0.00824372,0.357118,0.0205939,0.254937,0.0757067,-0.107306
0.0189479,0.428725,-1.67404,0.202279,0.197345,0.0660426,0.236796,0.0869306,-0.138
0.0202681,0.435462,-1.67209,0.457226,0.021416,0.122344,0.206066,0.0870819,-0.125051
0.0183987,0.446026,-1.66898,0.572412,-0.0682748,0.165551,0.172718,0.100909,-0.0494156
0.0151264,0.457774,-1.66559,0.594242,-0.104666,0.159549,0.153744,0.0928615,-0.00543821
0.0108821,0.469453,-1.66179,0.557206,-0.155418,0.22339,0.166855,0.084738,0.00406778
0.0033871,0.479096,-1.65449,0.379122,-0.272681,0.443996,0.234986,0.0776156,0.0669723
-0.00958576,0.483477,-1.6419,0.044266,-0.433943,0.664019,0.228076,0.0742658,0.146375
-0.026737,0.480136,-1.62568,-0.341395,-0.523053,0.750445,0.170516,0.105805,0.194431
-0.026737,0.480136,-1.62568,-0.341395,-0.523053,0.750445,0.170516,0.105805,0.194431
-0.0449446,0.470107,-1.61027,-0.589887,-0.559673,0.645956,0.0598615,0.109018,0.173029
-0.0586307,0.456934,-1.59811,-0.628497,-0.21387,0.514563,-0.00339882,0.0906734,0.11152
-0.0621306,0.446077,-1.58878,-0.36314,0.256978,0.393528,0.0146788,0.067309,-0.00234973
-0.0571291,0.442693,-1.58147,0.0686931,0.505023,0.293806,0.0101358,0.0597376,-0.0971863
-0.0497345,0.446562,-1.5753,0.283972,0.479983,0.243686,-0.0227881,0.0624975,-0.0866809
-0.0433533,0.450699,-1.57044,0.118078,0.360618,0.180807,-0.0403948,0.049822,-0.0208689
-0.0398706,0.451017,-1.56666,-0.0389584,0.143225,0.162388,-0.0293571,0.0302718,-0.0326262
-0.0399427,0.449797,-1.56348,-0.0541004,0.0151317,0.121547,-0.0408982,0.0378403,-0.0585873
-0.0398925,0.448993,-1.56203,-0.0173965,0.0775208,0.0130477,-0.0501916,0.0363989,-0.042581
-0.0367445,0.44919,-1.56231,0.0435705,0.222867,-0.0197276,-0.0244642,0.0213029,-0.0254682
-0.0317861,0.450791,-1.56207,0.111594,0.271028,0.0504225,0.0420032,0.0164882,-0.0308939
-0.0279158,0.453061,-1.5595,0.104257,0.215854,0.175395,0.0784104,0.016013,-0.0250366
-0.0266965,0.454103,-1.55445,0.00511086,0.133055,0.257998,0.0717634,0.0176968,-0.00559592
-0.0274156,0.453144,-1.54873,-0.0652833,0.038372,0.248974,0.0564754,0.0348555,-0.0156304
-0.0303569,0.451684,-1.54337,-0.0548311,-0.0972462,0.240566,0.0611065,0.0471226,-0.0377891
-0.0348417,0.450612,-1.53836,-0.0390535,-0.121727,0.213074,0.0558937,0.045639,-0.0212182
-0.0382854,0.449657,-1.53396,-0.0382858,-0.0349409,0.20016,0.072664,0.0476323,0.0119971
-0.039609,0.448985,-1.52929,-0.000545956,0.107404,0.23917,0.0975331,0.0323026,0.00912935
-0.0387935,0.449345,-1.52354,0.0610561,0.201328,0.269055,0.0749424,0.0312076,-0.0134436
-0.0374316,0.450786,-1.51799,0.0967302,0.158393,0.21479,0.0499657,0.056828,-0.0218055
-0.0369157,0.452602,-1.51378,0.0932865,0.0914583,0.166215,0.0457797,0.0694481,-0.00961035
-0.0363997,0.453792,-1.51045,0.0498475,0.0659429,0.157868,0.0592589,0.0563734,0.0121331
-0.0366133,0.454268,-1.50677,0.0301597,0.0556205,0.18766,0.0667977,0.0408558,0.0255283
-0.0370444,0.454415,-1.50227,0.00208021,0.0947525,0.205808,0.0505046,0.0515004,0.0497877
-0.0361764,0.453574,-1.49828,-0.0675844,0.158996,0.160008,0.0263316,0.0566046,0.0653365
-0.0335591,0.451366,-1.49501,-0.134195,0.245907,0.150495,0.0141556,0.0433725,0.0621874
-0.0288875,0.448164,-1.49181,-0.178137,0.351273,0.15393,0.00215104,0.0316848,0.0445908
-0.0225722,0.444226,-1.48872,-0.201908,0.39368,0.13995,0.00130621,0.026042,0.0112799
-0.016562,0.440384,-1.48554,-0.169561,0.34105,0.152465,0.000103772,0.0266591,-0.0387428
-0.0117045,0.437751,-1.48249,-0.0848112,0.265169,0.121716,-0.000828236,0.0266106,-0.0755254
-0.00817699,0.436985,-1.48023,0.00625665,0.184071,0.0928488,0.0151753,0.0296248,-0.0845382
-0.00624456,0.437475,-1.47781,0.02998,0.117439,0.137558,0.0382187,0.0150082,-0.0642252
-0.00659995,0.437768,-1.47401,0.00241512,-0.00294235,0.212731,0.0583762,0.00410351,-0.0513964
-0.0106258,0.437295,-1.4685,-0.0381445,-0.168316,0.28143,0.0627721,0.0138069,-0.0395087
-0.0172781,0.436555,-1.46221,-0.0105299,-0.207325,0.272762,0.0206465,0.0265801,-0.022007
-0.0228678,0.437081,-1.45724,0.0783223,-0.137274,0.171319,-0.0323844,0.0478691,0.00421941
-0.0259052,0.439079,-1.45486,0.11173,-0.0738357,0.0552732,-0.0416487,0.0450709,0.0425197
-0.0275778,0.440869,-1.45369,0.0641723,-0.0542733,0.0708935,0.0026904,0.01779,0.0732267
-0.0291854,0.440977,-1.45148,-0.0508914,-0.0127315,0.118841,0.0206371,0.00702304,0.0960278
-0.0302281,0.439234,-1.44897,-0.0982282,0.00319343,0.100893,-0.00198804,0.019088,0.0807048
-0.0309702,0.43698,-1.44734,-0.120758,-0.0127956,0.0588077,-0.0167137,0.019168,0.0515496
-0.0326304,0.434121,-1.44628,-0.170508,-0.110213,0.0507261,-0.00014098,0.00305659,0.0389745
-0.0357289,0.431197,-1.44519,-0.0425447,-0.0735894,0.0762912,-0.000278458,-0.0145366,0.0345953
-0.0332247,0.430894,-1.44302,-0.0189677,0.362031,0.121738,-0.0269467,-0.0329543,0.0323892
-0.0266095,0.429682,-1.4399,-0.0892651,0.375319,0.163591,-0.00651288,-0.0323319,0.00431174
-0.0228742,0.427588,-1.43618,-0.118426,0.129237,0.161276,-0.0185547,0.0079543,-0.0583939
-0.0235134,0.424512,-1.4338,-0.187098,-0.0620954,0.0551528,-0.0405873,0.0222885,-0.0413893
-0.0246785,0.421526,-1.43329,-0.0841826,0.0360779,0.0159289,-0.0443022,0.0193371,-0.0391061
