attitude_roll,attitude_pitch,attitude_yaw,rotationRate_x,rotationRate_y,rotationRate_z,acceleration_x,acceleration_y,acceleration_z
0.0781601,0.299896,-0.0118145,-0.154534,-0.196157,-0.497205,0.0510454,0.0643267,0.182248
0.0760159,0.296782,-0.020718,-0.0812399,-0.279785,-0.366038,0.0696808,0.050867,0.145034
0.0715203,0.29607,-0.0266061,0.065731,-0.323674,-0.211016,0.091562,0.0258942,0.0862627
0.0667839,0.298853,-0.0296776,0.219568,-0.237291,-0.065153,0.0730188,0.0109614,0.0487594
0.0629457,0.303351,-0.030001,0.19776,-0.15171,0.050912,0.0732689,-0.0300921,0.0715153
0.0594009,0.305471,-0.0287426,-0.00847733,-0.185843,0.0710611,0.0497362,-0.0732505,0.0856446
0.0544909,0.302881,-0.0273624,-0.25452,-0.275076,0.0387128,0.0342121,-0.10421,0.0375218
0.0479466,0.296215,-0.0269861,-0.393256,-0.371036,-0.0477537,0.0092129,-0.138503,-0.0785559
0.0399529,0.287988,-0.0284864,-0.40828,-0.448033,-0.129647,0.0229973,-0.163013,-0.188402
0.0336221,0.280162,-0.0310824,-0.382038,-0.231488,-0.137623,0.0530221,-0.1587,-0.260556
0.0307642,0.27141,-0.0334634,-0.504468,-0.145036,-0.115516,0.0798179,-0.147025,-0.243483
0.0289059,0.259995,-0.035299,-0.627861,-0.111814,-0.107285,0.123299,-0.151311,-0.274445
0.0251471,0.246692,-0.0371622,-0.682691,-0.3286,-0.110824,0.170304,-0.15215,-0.322726
0.017379,0.233696,-0.0386435,-0.600344,-0.45039,-0.0476502,0.202363,-0.114693,-0.401903
0.00957383,0.223119,-0.0382581,-0.472038,-0.294808,0.0877409,0.183382,-0.0470078,-0.432486
0.00544346,0.214764,-0.0342478,-0.366749,-0.0243464,0.312635,0.195701,-0.00087209,-0.384392
0.00610225,0.208997,-0.0248459,-0.204096,0.302256,0.599525,0.207593,0.000524044,-0.310643
0.012436,0.206813,-0.0107259,-0.0467629,0.597161,0.765647,0.180243,-0.00757954,-0.183449
0.0220812,0.20698,0.00594909,0.0363282,0.686453,0.855617,0.159331,-0.0262755,-0.0475378
0.0307093,0.208836,0.0235521,0.0997931,0.497004,0.875247,0.144554,-0.0287479,0.046339
0.0331872,0.211941,0.0410931,0.154953,0.0922257,0.847005,0.135439,-0.0167083,0.100255
0.0268383,0.21591,0.0580548,0.182037,-0.357227,0.835989,0.120028,0.0252255,0.126348
0.0131264,0.219685,0.075494,0.155948,-0.581236,0.877687,0.110709,0.0708574,0.114585
-0.00149487,0.222585,0.0936415,0.130778,-0.443083,0.901914,0.0801781,0.107928,0.0700861
-0.0114771,0.22522,0.112511,0.158795,-0.118047,0.947334,0.0657067,0.136147,0.0480909
-0.014653,0.228815,0.132381,0.221809,0.231478,0.980891,0.0435064,0.148363,0.0714265
-0.0124232,0.233127,0.152428,0.227746,0.417027,0.964283,0.0202197,0.14339,0.14896
-0.00936203,0.237106,0.172286,0.191364,0.311482,0.973825,0.028677,0.136471,0.235788
-0.0101458,0.240703,0.192442,0.200618,0.0969627,0.986971,0.0397604,0.124905,0.260565
-0.0145209,0.244694,0.21263,0.216114,-0.0401432,0.970163,0.0342447,0.116817,0.264344
-0.0207508,0.248142,0.232139,0.154606,-0.0974281,0.916543,0.0230434,0.106275,0.2621
-0.027356,0.249988,0.250231,0.0633131,-0.119746,0.828808,0.0195596,0.0800642,0.240617
-0.0346601,0.249409,0.266172,-0.0647306,-0.21843,0.723237,0.0262568,0.0584159,0.217332
-0.0426731,0.247244,0.279909,-0.0853038,-0.229025,0.619903,0.0297051,0.0392734,0.136356
-0.0490973,0.245247,0.291871,-0.0670067,-0.104907,0.563825,0.0228135,0.037229,0.0857909
-0.0525307,0.243002,0.303398,-0.106215,0.0358666,0.571272,0.0689998,0.0144822,0.0666322
-0.0538625,0.23967,0.314761,-0.177163,0.0842577,0.543186,0.036871,0.00778249,0.0588444
-0.0548889,0.234443,0.324704,-0.297317,0.0386106,0.430468,0.00354062,-0.0220931,0.0368376
-0.056226,0.227048,0.330731,-0.412389,-0.0448989,0.180326,-0.0200598,-0.0751143,-0.0245801
-0.0589711,0.217343,0.331242,-0.564917,-0.239642,-0.0558644,-0.0191861,-0.0738697,-0.0529944
-0.0642586,0.204697,0.328502,-0.713809,-0.294502,-0.106106,0.0238418,-0.0577314,-0.123545
-0.0689733,0.188961,0.325475,-0.883269,-0.257699,-0.0855056,0.00409321,-0.0491769,-0.21322
-0.0736728,0.170387,0.322356,-0.976712,-0.264253,-0.0960707,-0.0290374,-0.0613631,-0.30315
-0.0784613,0.151099,0.318262,-0.975159,-0.301847,-0.167668,-0.0566065,-0.0770295,-0.348328
-0.0847189,0.132707,0.312801,-0.889315,-0.3799,-0.206259,-0.0502817,-0.0722719,-0.368473
-0.0900388,0.116915,0.307532,-0.735776,-0.165667,-0.174337,-0.0301425,-0.0619245,-0.405564
-0.0886796,0.104177,0.303483,-0.573602,0.272214,-0.099783,-0.0288906,-0.0371097,-0.408347
-0.0781475,0.0947512,0.301908,-0.379278,0.75972,0.0258726,-0.0437727,-0.0113935,-0.368562
-0.0591672,0.0895973,0.30283,-0.11653,1.10627,0.0875864,-0.0890843,-0.00575281,-0.30388
-0.0363452,0.0897285,0.304619,0.121254,1.14123,0.0849199,-0.128589,0.00592883,-0.199017
-0.0164999,0.0939108,0.306156,0.300386,0.813213,0.048364,-0.157295,0.000709273,-0.109736
-0.00577518,0.101782,0.306333,0.494595,0.249294,-0.0423012,-0.173591,0.0224282,-0.057087
-0.00577518,0.101782,0.306333,0.494595,0.249294,-0.0423012,-0.173591,0.0224282,-0.057087
-0.00586985,0.113639,0.304711,0.687874,-0.224434,-0.124137,-0.147595,0.0498106,-0.0291111
-0.0109345,0.128563,0.301573,0.787765,-0.256101,-0.197754,-0.124837,0.0867052,0.00247586
-0.0132037,0.144038,0.29731,0.742313,-0.00491098,-0.241877,-0.10316,0.119248,0.0783339
-0.00915603,0.157902,0.29214,0.640228,0.313662,-0.281577,-0.083472,0.130147,0.161056
-0.000398277,0.169456,0.286259,0.520243,0.435314,-0.30342,-0.0545086,0.129691,0.251897
0.00878688,0.178843,0.27993,0.42601,0.352906,-0.319733,-0.0221812,0.113483,0.312473
0.0152938,0.1866,0.273186,0.373134,0.170293,-0.34384,0.00705171,0.0967429,0.338056
0.018179,0.193908,0.266005,0.374013,0.014976,-0.34008,0.0373384,0.0923991,0.330599
0.0193862,0.200878,0.25923,0.317782,-0.0146132,-0.311595,0.0393544,0.0939995,0.344591
0.0205302,0.205652,0.25314,0.171998,0.02366,-0.281865,0.0467526,0.0654112,0.354042
0.0224945,0.207362,0.247678,0.0185029,0.036201,-0.251647,0.0429154,0.0392075,0.358426
0.0231216,0.206845,0.242852,-0.0436771,-0.0867169,-0.231529,0.0491506,-0.00208572,0.318174
0.0210253,0.205825,0.237966,-0.0441261,-0.206675,-0.259687,0.0332072,-0.0357381,0.250054
0.0178225,0.205089,0.232095,-0.00822666,-0.218472,-0.321875,0.0236439,-0.0665786,0.167929
0.0158028,0.205697,0.224999,0.0875675,-0.107185,-0.36996,0.0368381,-0.101506,0.0801151
0.0160881,0.208207,0.217579,0.170774,-0.0277013,-0.335735,0.084846,-0.110219,0.046575
0.0167222,0.211466,0.212221,0.139367,-0.0392603,-0.16458,0.136987,-0.100074,0.0635709
0.0150815,0.212906,0.210719,-0.00111108,-0.162091,-0.000104683,0.131164,-0.12218,0.0407407
0.0110807,0.21146,0.211155,-0.144403,-0.234747,0.021974,0.0990449,-0.179639,-0.0540116
0.00487059,0.207014,0.211177,-0.297332,-0.391561,-0.025202,0.0793094,-0.210585,-0.158402
-0.00381986,0.199915,0.210231,-0.406669,-0.460098,-0.0701072,0.0651299,-0.224434,-0.27975
-0.0112092,0.19125,0.207995,-0.457306,-0.284862,-0.144767,0.0778229,-0.245155,-0.405257
-0.0133246,0.181825,0.204702,-0.500554,0.000707319,-0.149591,0.111707,-0.215629,-0.454041
-0.011274,0.170967,0.202163,-0.603415,0.121901,-0.0815592,0.14438,-0.194382,-0.450967
-0.00867976,0.158128,0.200842,-0.670474,0.111992,-0.0430532,0.125988,-0.168946,-0.457429
-0.00676781,0.145232,0.200001,-0.585566,0.0700442,-0.0251451,0.105589,-0.137474,-0.486335
-0.00507777,0.136555,0.200422,-0.251471,0.156634,0.0952311,0.127116,-0.0685658,-0.491637
0.00104667,0.136525,0.20479,0.248363,0.569113,0.364264,0.159669,0.0170826,-0.413938
0.0163052,0.145696,0.215875,0.627615,1.10871,0.758982,0.166394,0.0985496,-0.203475
0.0393793,0.160689,0.234582,0.783407,1.43218,1.11125,0.136416,0.116572,0.0596247
0.0633661,0.177411,0.258306,0.752261,1.30675,1.29346,0.089007,0.0820451,0.26959
0.0794082,0.19326,0.284054,0.646243,0.705411,1.33459,0.0575432,0.0383723,0.389912
0.0799635,0.20696,0.3096,0.520741,-0.150582,1.26309,0.0253114,0.0157579,0.413247
0.0641376,0.217348,0.332878,0.336084,-0.908151,1.0815,-0.014017,0.0287666,0.37571
0.03785,0.223208,0.352653,0.1627,-1.19764,0.881565,-0.0371921,0.0580289,0.236625
0.0115802,0.225611,0.368602,0.0406156,-1.0283,0.697154,-0.0441844,0.114144,0.0980206
-0.00723591,0.225595,0.381871,-0.0336577,-0.526926,0.613991,-0.00912184,0.146981,0.00219297
-0.014642,0.224731,0.394814,-0.0227298,0.0481074,0.673482,0.0365968,0.184987,-0.0295839
-0.0135284,0.224936,0.410045,0.075104,0.346825,0.823222,0.0687902,0.208944,0.0174134
-0.0101762,0.227809,0.428171,0.230119,0.373165,0.924373,0.0712229,0.17993,0.0909039
-0.00809128,0.23297,0.447135,0.279484,0.244809,0.911195,0.0391684,0.155139,0.192771
-0.0088969,0.237917,0.465171,0.226359,0.0997013,0.833722,0.0330602,0.116446,0.262946
-0.0119231,0.241665,0.481202,0.152069,-0.0257631,0.724936,0.0217539,0.112503,0.293397
-0.0169041,0.243055,0.49474,0.00130409,-0.140502,0.581703,0.0218081,0.0894088,0.303507
-0.0220775,0.241338,0.50459,-0.143657,-0.128954,0.380234,0.0194065,0.0613284,0.263461
-0.0262822,0.23752,0.510726,-0.200453,-0.170038,0.248983,0.0254193,0.0795008,0.225053
-0.0313789,0.234168,0.515483,-0.102702,-0.204773,0.236418,0.0870361,0.0843135,0.160431
-0.0354235,0.233069,0.52046,-0.016902,-0.0639001,0.259504,0.0898326,0.110374,0.133729
-0.0363772,0.231446,0.525974,-0.152438,0.066637,0.279569,0.0802907,0.102035,0.173147
-0.0362509,0.22646,0.531097,-0.319796,0.0501977,0.222253,0.0601894,0.0624044,0.155971
-0.0376962,0.217977,0.533743,-0.544034,-0.175854,0.0539579,0.00955848,0.0457985,0.121838
-0.0376962,0.217977,0.533743,-0.544034,-0.175854,0.0539579,0.00955848,0.0457985,0.121838
-0.0441111,0.204369,0.53225,-0.817091,-0.481004,-0.139233,0.0116239,-0.0145649,0.0203968
-0.0537205,0.185863,0.526666,-1.07238,-0.549429,-0.307241,0.0118152,-0.0547993,-0.132471
-0.061837,0.162431,0.518116,-1.31491,-0.362386,-0.383985,0.00884487,-0.0244852,-0.282765
-0.065153,0.134047,0.508911,-1.58024,-0.174251,-0.31601,0.0230952,0.0379582,-0.361217
-0.0681571,0.102456,0.501647,-1.56462,-0.245462,-0.214606,-0.00306889,0.011899,-0.489258
-0.075259,0.074515,0.495671,-1.25699,-0.54112,-0.16955,0.0040564,-0.0299548,-0.59976
-0.0879652,0.0529079,0.491769,-0.928276,-0.71781,-0.0314962,0.0258697,-0.0301705,-0.652126
-0.101076,0.0380134,0.491689,-0.560516,-0.559892,0.163781,-0.0126643,0.0134374,-0.681115
-0.107975,0.0297991,0.495743,-0.231335,-0.0536948,0.305816,-0.0690095,0.0286196,-0.665948
-0.101956,0.0267806,0.502068,-0.0205981,0.659068,0.350647,-0.133441,0.0351543,-0.55276
-0.0838744,0.0276542,0.509735,0.196325,1.11154,0.406682,-0.178051,0.0214249,-0.379324
-0.0611531,0.0342077,0.518426,0.532451,1.13583,0.403278,-0.254854,0.0356047,-0.198254
-0.0407992,0.047753,0.526583,0.846203,0.917392,0.329332,-0.305908,0.051763,-0.0240048
-0.0257935,0.0663116,0.53225,1.00563,0.620183,0.161845,-0.321816,0.0550018,0.129734
-0.0162125,0.0865492,0.533228,0.990992,0.354591,-0.116202,-0.310295,0.055542,0.243791
-0.0106746,0.104689,0.528127,0.805307,0.181877,-0.414245,-0.26746,0.0561424,0.312309
-0.00551658,0.118587,0.517176,0.584368,0.239006,-0.67415,-0.233612,0.0869671,0.3251
0.0024673,0.128329,0.501849,0.400527,0.379259,-0.843249,-0.187139,0.118257,0.321913
0.0142491,0.13513,0.48344,0.311615,0.56149,-0.974759,-0.146031,0.121307,0.316101
0.0298765,0.140458,0.462583,0.272261,0.711725,-1.08093,-0.105002,0.111081,0.330622
0.048312,0.144655,0.439787,0.234058,0.802656,-1.15239,-0.0656263,0.0963905,0.35211
0.0676563,0.14743,0.416317,0.17391,0.763788,-1.13996,-0.0246198,0.0866084,0.386303
0.0842665,0.148579,0.394077,0.119613,0.553159,-1.04355,0.0198794,0.0559159,0.391769
0.095673,0.14932,0.374206,0.141585,0.295979,-0.921884,0.034793,0.0182875,0.351324
0.102382,0.150819,0.356189,0.176062,0.127019,-0.853611,0.00881988,-0.0102286,0.309048
0.105985,0.152552,0.338923,0.175299,-0.031456,-0.82927,0.00391695,-0.0576799,0.272941
0.106671,0.154649,0.322149,0.223822,-0.148598,-0.797711,0.0326038,-0.0959511,0.207883
0.105828,0.15866,0.306142,0.356071,-0.162256,-0.727804,0.0530446,-0.101878,0.116346
0.105717,0.165603,0.292258,0.458389,-0.0921158,-0.545376,0.0760994,-0.0880976,0.0753714
0.105273,0.173444,0.282916,0.400589,-0.11112,-0.293176,0.120238,-0.0913713,0.0842949
0.103915,0.17947,0.27836,0.224056,-0.107675,-0.114324,0.106999,-0.129781,0.0660027
0.102177,0.180919,0.276487,-0.0758085,-0.10546,-0.0734703,0.0439225,-0.169737,0.0426964
0.0999571,0.176104,0.274558,-0.375243,-0.17888,-0.194776,-0.0207021,-0.239417,-0.0293832
0.095346,0.165574,0.269302,-0.61171,-0.37751,-0.437505,-0.0227479,-0.299552,-0.138349
0.0878518,0.151034,0.259866,-0.743559,-0.519456,-0.593156,0.0217958,-0.281105,-0.289809
0.0786907,0.134182,0.249,-0.844781,-0.525362,-0.595516,0.111688,-0.252542,-0.433931
0.0706481,0.116905,0.239566,-0.790329,-0.383229,-0.455888,0.156333,-0.191833,-0.569896
0.0656566,0.101488,0.233143,-0.727606,-0.182721,-0.290702,0.158849,-0.138692,-0.611461
0.0644449,0.0874581,0.229555,-0.616525,0.0418255,-0.166138,0.126153,-0.111125,-0.631363
0.0680883,0.0785767,0.228415,-0.21548,0.300814,0.0272223,0.152297,-0.0484879,-0.612863
0.076131,0.0808505,0.232707,0.433578,0.564192,0.437383,0.207959,0.0197729,-0.513219
0.0905742,0.0964844,0.244451,0.980537,0.97965,0.853831,0.157559,0.107855,-0.291003
0.11016,0.120114,0.262631,1.13205,1.12666,1.16494,0.0948037,0.113142,0.0159977
0.127602,0.144482,0.284938,1.00127,0.845206,1.29966,0.0275431,0.0786563,0.241072
0.13428,0.165494,0.308167,0.786626,0.128642,1.23061,-0.0256178,0.0299895,0.343364
0.125138,0.182366,0.328678,0.632967,-0.661508,0.980308,-0.0746311,0.00447686,0.323048
0.104119,0.195728,0.344002,0.524457,-1.07391,0.682337,-0.0998868,0.0383983,0.239663
0.0801046,0.205722,0.354708,0.37236,-1.07122,0.46991,-0.0765616,0.108312,0.179403
0.0606385,0.212436,0.362283,0.250858,-0.668826,0.330327,-0.0422102,0.153392,0.107666
0.0518223,0.216541,0.367976,0.14057,-0.0893712,0.266585,-0.000906777,0.180749,0.0830168
0.0518223,0.216541,0.367976,0.14057,-0.0893712,0.266585,-0.000906777,0.180749,0.0830168
0.0531086,0.219343,0.373801,0.132681,0.296766,0.341091,0.0353617,0.208158,0.116526
0.0581072,0.223463,0.381788,0.2359,0.312054,0.454383,0.0648294,0.215077,0.192194
0.060117,0.229636,0.391538,0.321534,0.106636,0.526935,0.0790696,0.18296,0.266668
0.0578945,0.236842,0.402191,0.328959,-0.067528,0.541761,0.0605592,0.168975,0.322811
0.0531874,0.243285,0.41245,0.235727,-0.146173,0.492684,0.0471733,0.163759,0.367724
0.0479985,0.246497,0.421609,0.0300324,-0.137783,0.413568,0.0399113,0.148579,0.390287
0.0437348,0.245137,0.42924,-0.191322,-0.115185,0.324252,0.0246028,0.14723,0.383758
0.0393581,0.240154,0.435589,-0.314416,-0.192395,0.275765,0.0445907,0.138075,0.347121
0.0326072,0.233708,0.441246,-0.343178,-0.351481,0.252913,0.072365,0.133778,0.297889
0.0231011,0.226943,0.446517,-0.350668,-0.466386,0.249535,0.0845642,0.132287,0.243401
0.0126095,0.21964,0.45171,-0.404919,-0.455312,0.24215,0.0978622,0.112119,0.173896
0.00292865,0.209928,0.456624,-0.59999,-0.424437,0.234589,0.103138,0.106888,0.12857
-0.00748698,0.195247,0.461506,-0.866021,-0.520029,0.239254,0.105581,0.0652703,0.0300141
-0.0191023,0.176,0.46538,-1.04164,-0.559404,0.157076,0.0968547,-0.0147268,-0.134921
-0.0299705,0.154665,0.467587,-1.07033,-0.471243,0.132203,0.114295,-0.0551487,-0.310064
-0.0371607,0.133525,0.470352,-1.05373,-0.191015,0.248297,0.0903035,-0.00684005,-0.402728
-0.0400879,0.110482,0.476885,-1.25459,-0.0882483,0.493528,0.080711,0.0381749,-0.354567
-0.0464835,0.0839951,0.486643,-1.34977,-0.454508,0.5409,-0.0332412,0.0192448,-0.389078
-0.0583906,0.0550279,0.49266,-1.51913,-0.62346,0.193007,-0.144108,-0.0447315,-0.467266
-0.0679274,0.0246143,0.490832,-1.45805,-0.316318,-0.174215,-0.17595,-0.0992897,-0.653243
-0.0690614,0.000502673,0.48398,-0.974989,0.277346,-0.273927,-0.186059,0.0362539,-0.718738
-0.0548394,-0.0127962,0.479413,-0.436038,0.999015,-0.0614987,-0.10924,0.099295,-0.65753
-0.03023,-0.0185405,0.48201,-0.156626,1.45498,0.382494,-0.0940017,0.157013,-0.45351
0.00048158,-0.0193258,0.493492,0.111351,1.51085,0.72202,-0.183282,0.12217,-0.243168
0.0270323,-0.0133356,0.508304,0.488195,1.0865,0.707869,-0.307285,0.0811623,-0.0817072
0.043351,0.00087688,0.518825,0.872937,0.549447,0.363806,-0.378222,0.019523,0.0102448
0.0504431,0.0199275,0.52079,0.96799,0.232555,-0.0736808,-0.351529,-0.0180989,0.119501
0.0556341,0.0369422,0.514442,0.734824,0.317184,-0.460927,-0.301799,-0.011986,0.22264
0.0650876,0.0475985,0.501726,0.411229,0.59007,-0.716232,-0.269939,0.0291935,0.274417
0.079759,0.0523879,0.485581,0.21989,0.769953,-0.861315,-0.237188,0.0397906,0.277573
0.0962597,0.0551811,0.466634,0.250184,0.754335,-1.00918,-0.213152,0.0257798,0.259084
0.111197,0.0590953,0.444651,0.372542,0.604234,-1.13473,-0.171977,0.00898146,0.257028
0.123293,0.0648102,0.42059,0.47945,0.476724,-1.17416,-0.135937,-0.00119906,0.260482
0.134073,0.0729166,0.395417,0.625644,0.413847,-1.20217,-0.128022,0.0164248,0.267109
0.144147,0.0816308,0.370901,0.565973,0.442583,-1.10799,-0.0857363,-0.00331412,0.321523
0.155679,0.0885923,0.347979,0.46949,0.496437,-1.06244,-0.129144,-0.0254763,0.334633
0.166132,0.0939135,0.325422,0.434949,0.30811,-1.08367,-0.136518,-0.0907339,0.318861
0.17113,0.0991921,0.301912,0.488469,-0.0450469,-1.14311,-0.105417,-0.126724,0.270604
0.169794,0.105396,0.277593,0.524143,-0.28986,-1.1249,-0.0617486,-0.122064,0.197237
0.166723,0.111894,0.254407,0.498429,-0.244944,-1.03805,-0.050458,-0.101138,0.135515
0.164757,0.11791,0.233768,0.433926,-0.223813,-0.876817,-0.00485346,-0.089181,0.112528
0.160521,0.123628,0.216906,0.420429,-0.433614,-0.704717,0.0354183,-0.119271,0.0682484
0.150478,0.12989,0.202345,0.406233,-0.733528,-0.65596,0.0267671,-0.153708,0.00353372
0.136163,0.134488,0.187844,0.227106,-0.86847,-0.708225,0.00522314,-0.18327,-0.0536636
0.121224,0.134571,0.172916,-0.0286275,-0.792477,-0.758479,0.0225611,-0.194265,-0.14438
0.11066,0.129983,0.157463,-0.244979,-0.434855,-0.827319,0.0354563,-0.194571,-0.258184
0.107071,0.121084,0.142479,-0.496983,-0.151697,-0.722833,0.0984451,-0.178299,-0.302817
0.105794,0.106129,0.130496,-0.846405,-0.0467879,-0.745203,0.135476,-0.290479,-0.420945
0.104712,0.0867379,0.117574,-0.880308,-0.298892,-0.644192,0.201612,-0.219966,-0.548843
0.0961684,0.0730058,0.109462,-0.341061,-0.577246,-0.326828,0.235153,-0.128674,-0.72915
0.0847109,0.0733776,0.105204,0.418377,-0.558405,-0.0855376,0.221023,0.00447924,-0.71603
0.0847109,0.0733776,0.105204,0.418377,-0.558405,-0.0855376,0.221023,0.00447924,-0.71603
0.0753483,0.0878471,0.106302,0.950243,-0.342803,0.330217,0.256053,0.0826833,-0.524428
0.0734727,0.109231,0.115635,1.0594,0.307439,0.731109,0.214262,0.0972489,-0.296972
0.0846013,0.130148,0.130696,0.90715,0.970725,0.897795,0.10994,0.126958,-0.083369
0.106047,0.148946,0.148543,0.818578,1.33432,1.05234,0.071853,0.129642,0.123494
0.127035,0.167418,0.16924,0.782607,0.999545,1.19274,0.0612199,0.137431,0.290863
0.135416,0.184793,0.191544,0.617265,0.181949,1.19504,0.046755,0.109219,0.393791
0.125788,0.196926,0.213027,0.307123,-0.714165,1.03839,0.00556919,0.0709148,0.403055
0.102277,0.202676,0.230779,0.0864609,-1.2004,0.756716,-0.0502806,0.0859348,0.27614
0.0749953,0.204308,0.243434,-0.0120227,-1.21843,0.507662,-0.0566431,0.137231,0.149667
0.0529017,0.204787,0.25204,0.020111,-0.753803,0.357674,-0.0311575,0.196354,0.0438968
0.0439629,0.206331,0.259084,0.0915389,0.0210893,0.369406,0.0209635,0.247,-0.000397563
0.0496812,0.208444,0.267994,0.0645214,0.677474,0.528768,0.061491,0.276579,0.0925797
0.0634077,0.209785,0.280526,0.00518897,0.899176,0.693516,0.0719199,0.257199,0.221807
0.0777159,0.210909,0.295316,0.0257458,0.823384,0.747564,0.0490522,0.200163,0.275839
0.0897812,0.213474,0.309984,0.101336,0.684767,0.682586,0.00562102,0.159717,0.305335
0.0987685,0.216311,0.322273,0.0418969,0.463807,0.547764,-0.0153927,0.133741,0.368527
0.103223,0.216549,0.332269,-0.120096,0.173138,0.438082,-0.000627086,0.0990462,0.408305
0.100788,0.214078,0.340703,-0.183437,-0.250988,0.367006,0.0407937,0.064528,0.372665
0.0904804,0.21134,0.348237,-0.160087,-0.569675,0.342905,0.0717486,0.0526203,0.301357
0.077499,0.20855,0.355603,-0.189233,-0.542042,0.355468,0.0708625,0.0563305,0.224785
0.0677969,0.204902,0.363087,-0.228075,-0.260004,0.339176,0.0458701,0.0399887,0.129358
0.0631713,0.199817,0.369345,-0.339499,-0.112087,0.236764,0.0278179,0.00456604,0.101256
0.0599743,0.19151,0.373455,-0.522337,-0.155782,0.111621,0.0277968,-0.0308046,0.0757934
0.05469,0.179035,0.37459,-0.739582,-0.369433,-0.0889446,-0.00712764,-0.0574392,0.00204551
0.0457873,0.161871,0.371211,-0.942728,-0.572094,-0.324252,0.0259177,-0.113097,-0.109398
0.0353963,0.142512,0.364395,-0.927841,-0.507402,-0.384679,0.0772135,-0.0997307,-0.288178
0.0305247,0.125464,0.358562,-0.773356,-0.0126106,-0.231566,0.0480738,-0.0198233,-0.417044
0.0352674,0.110077,0.356104,-0.799949,0.361482,-0.0889484,-0.00394931,0.00975671,-0.364809
0.0405034,0.0925056,0.354345,-0.958941,0.0447415,-0.189626,-0.037954,-0.0683015,-0.279628
0.0343628,0.0726253,0.349089,-0.99933,-0.684164,-0.407564,-0.0197391,-0.121103,-0.330129
0.0197619,0.0507395,0.339805,-1.18073,-0.686491,-0.567568,0.0481511,-0.108645,-0.45746
0.0123019,0.0270776,0.329775,-1.09778,-0.0960854,-0.408646,0.0494705,0.0344442,-0.611587
0.0159101,0.0103238,0.325763,-0.535913,0.430464,0.00704342,0.0569827,0.143258,-0.651822
0.0272809,0.00535202,0.330417,-0.00753538,0.676735,0.433141,0.0325221,0.139644,-0.527028
0.0415066,0.00973635,0.340971,0.411975,0.72512,0.600858,-0.0878184,0.0969095,-0.363152
0.0543514,0.0222449,0.352279,0.762164,0.541537,0.578638,-0.201757,0.094478,-0.171646
0.0618796,0.0400361,0.361649,0.937915,0.248871,0.454874,-0.270271,0.0989547,0.00606006
0.0643525,0.0592028,0.367548,0.919135,0.0462415,0.240639,-0.297823,0.087824,0.137188
0.0644466,0.0762568,0.368454,0.774032,0.00780441,-0.0427097,-0.291693,0.0731921,0.207121
0.066365,0.0898984,0.363788,0.62821,0.164593,-0.331587,-0.279534,0.0794775,0.246089
0.0724285,0.100578,0.353866,0.515368,0.351254,-0.573047,-0.244882,0.0952814,0.273634
0.0828385,0.108761,0.340162,0.405436,0.532938,-0.715424,-0.200434,0.105327,0.31748
0.0959004,0.114062,0.324273,0.270056,0.568609,-0.818681,-0.174279,0.100661,0.365326
0.108651,0.117036,0.30641,0.229135,0.503898,-0.918523,-0.112594,0.0542684,0.338499
0.121064,0.119691,0.287223,0.246506,0.53144,-0.939548,-0.0843057,0.0621538,0.327025
0.134364,0.121515,0.268122,0.166849,0.564045,-0.92066,-0.0773231,0.0564427,0.365225
0.146776,0.121338,0.249521,0.0929688,0.435344,-0.919623,-0.0451228,-0.00418885,0.358973
0.155617,0.120493,0.23104,0.106149,0.220912,-0.916922,-0.0318875,-0.0486062,0.325113
0.159185,0.119855,0.212575,0.119131,-0.0946488,-0.905565,-0.00341494,-0.0799105,0.29935
0.156611,0.120095,0.194752,0.194002,-0.353314,-0.831207,0.0553416,-0.0994629,0.216594
0.156611,0.120095,0.194752,0.194002,-0.353314,-0.831207,0.0553416,-0.0994629,0.216594
0.149769,0.122757,0.17893,0.316594,-0.484718,-0.681115,0.108932,-0.0902435,0.126644
0.143035,0.128269,0.165801,0.396666,-0.327535,-0.521874,0.113994,-0.0671355,0.060453
0.140465,0.134317,0.1562,0.326644,-0.025918,-0.350875,0.115026,-0.09297,0.00879019
0.14344,0.138768,0.149462,0.221079,0.184259,-0.250269,0.120145,-0.119429,-0.0336083
0.147776,0.142297,0.145499,0.188496,0.160767,-0.0727053,0.157091,-0.117979,-0.0724707
0.148944,0.145227,0.145535,0.0854174,-0.0620292,0.108188,0.158939,-0.11067,-0.0944952
0.14472,0.146321,0.148729,-0.00592397,-0.29289,0.206744,0.103953,-0.134291,-0.165391
0.137347,0.14637,0.153006,-0.0686695,-0.330125,0.178399,0.0404213,-0.15208,-0.257742
0.132933,0.142658,0.155366,-0.365527,-0.0524785,-0.034903,-0.00593561,-0.191779,-0.309876
0.134797,0.131962,0.153341,-0.626652,0.111831,-0.287425,-0.00791566,-0.229825,-0.3846
0.135377,0.119507,0.148264,-0.512017,-0.143921,-0.345566,0.0917674,-0.19581,-0.474087
0.130917,0.110671,0.143478,-0.302469,-0.293997,-0.228155,0.160325,-0.112593,-0.518346
0.126568,0.106511,0.141545,-0.0891758,-0.127625,-0.00608978,0.153934,-0.00559865,-0.497858
0.126973,0.106829,0.14401,0.0858995,0.215436,0.245009,0.13085,0.0337347,-0.416766
0.135232,0.11149,0.149804,0.312656,0.676089,0.372461,0.0805253,0.017601,-0.323769
0.150384,0.120945,0.157198,0.508709,0.881408,0.50194,0.0602001,0.0434105,-0.13063
0.167278,0.134536,0.166912,0.667197,0.912738,0.662576,0.0450579,0.0749563,0.0555006
0.182067,0.150195,0.179022,0.636183,0.702064,0.790093,0.0183633,0.0949585,0.239474
0.189754,0.164127,0.193384,0.460346,0.266805,0.859649,0.0149365,0.0759885,0.351116
0.186995,0.17416,0.209027,0.239907,-0.282142,0.82298,-0.00282785,0.0562155,0.371573
0.174645,0.17985,0.223435,0.0775575,-0.649492,0.683141,-0.0374417,0.0624882,0.296571
0.1587,0.182372,0.235677,-0.0291147,-0.694895,0.545647,-0.03963,0.0894437,0.206089
0.143904,0.182358,0.245855,-0.116629,-0.571142,0.468997,-0.0013659,0.11537,0.144381
0.133403,0.181232,0.255586,-0.125614,-0.301463,0.475413,0.0356897,0.143467,0.0966176
0.128276,0.180287,0.26615,-0.102772,-0.0294769,0.556305,0.0567051,0.169668,0.103578
0.127566,0.180055,0.27868,-0.0775333,0.164006,0.666709,0.0700725,0.164206,0.146387
0.129487,0.180461,0.292736,-0.0597753,0.256205,0.69835,0.0536808,0.128381,0.189942
0.131463,0.181272,0.30675,-0.0430145,0.163577,0.680126,0.0169982,0.103346,0.246459
0.130155,0.182215,0.320264,-0.04258,-0.069094,0.658681,0.0130315,0.0742895,0.290251
0.123855,0.183125,0.333392,-0.0345197,-0.314891,0.638761,0.0178397,0.0586597,0.306009
0.113594,0.18362,0.346159,-0.0793372,-0.471641,0.612542,0.0262513,0.0426205,0.30571
0.101246,0.182567,0.3583,-0.150962,-0.53131,0.562164,0.0301383,0.00868736,0.263181
0.0888146,0.180369,0.369278,-0.163256,-0.520985,0.498707,0.0280974,-0.0110068,0.197902
0.0769227,0.178458,0.379301,-0.103941,-0.476314,0.477873,0.0324668,-0.0160459,0.124611
0.0663358,0.177193,0.389068,-0.110255,-0.423745,0.462104,0.0189487,-0.0223111,0.100921
0.0564771,0.174611,0.397508,-0.206524,-0.412773,0.330782,-0.0106364,-0.0640837,0.056924
0.0472383,0.169442,0.402285,-0.347497,-0.458117,0.111324,-0.0296835,-0.0871048,0.00913084
0.0361003,0.160787,0.402877,-0.520056,-0.669357,-0.0811673,-0.0193916,-0.0813451,-0.0398476
0.0222788,0.1482,0.399912,-0.744945,-0.727189,-0.229046,0.00932406,-0.065874,-0.148399
0.0100687,0.130813,0.395118,-1.01392,-0.510916,-0.286497,0.00654271,-0.0542672,-0.281131
0.0039518,0.107952,0.388829,-1.2274,-0.197148,-0.345382,-0.0176465,-0.0561978,-0.390747
0.00119123,0.0849887,0.381569,-1.01446,-0.226711,-0.370627,-0.0241667,-0.0236495,-0.477029
-0.00669377,0.0688036,0.374897,-0.62487,-0.632994,-0.268296,0.0324805,-0.00308922,-0.456108
-0.0217885,0.0586884,0.371209,-0.430046,-0.842421,-0.092995,0.0721338,0.000228621,-0.410162
-0.036094,0.0507671,0.369765,-0.383662,-0.517024,-0.0457809,0.0142501,0.017542,-0.429521
-0.0398606,0.0433168,0.368195,-0.367137,0.144143,-0.0849186,-0.0683417,0.0325304,-0.439277
-0.0310325,0.0364896,0.366053,-0.29818,0.696832,-0.102069,-0.112868,0.0521521,-0.382967
-0.0137924,0.0327692,0.363707,-0.0728055,0.970483,-0.118427,-0.130106,0.061053,-0.294119
0.0053287,0.0340433,0.361413,0.202218,0.881276,-0.101661,-0.153595,0.0778903,-0.162657
0.0194391,0.0408244,0.359522,0.481567,0.498763,-0.0848179,-0.187223,0.0992693,-0.0421292
0.0259051,0.0528072,0.356845,0.712826,0.16704,-0.17696,-0.225634,0.0956597,0.0332289
0.0283966,0.0678696,0.350944,0.776747,0.0777926,-0.385283,-0.241996,0.0848462,0.110226
0.0317364,0.0818349,0.340319,0.631259,0.214384,-0.635379,-0.205163,0.0736867,0.198712
0.039525,0.0915751,0.325327,0.396711,0.438299,-0.81635,-0.148282,0.0816356,0.268683
0.0516465,0.0967299,0.307523,0.213988,0.586617,-0.920452,-0.112127,0.104956,0.307704
0.0648223,0.0988042,0.28887,0.125381,0.522283,-0.915408,-0.0713275,0.115809,0.331793
0.0756513,0.100496,0.27059,0.193169,0.390714,-0.896325,-0.0301997,0.0967866,0.301237
0.0843719,0.103796,0.252522,0.273184,0.293207,-0.865749,-0.0120562,0.0945304,0.306296
0.0913327,0.10829,0.235419,0.326053,0.242907,-0.789366,0.00330738,0.0784306,0.318475
0.0974216,0.113481,0.219862,0.324604,0.183669,-0.712295,-0.000221625,0.0594497,0.348278
0.102029,0.118019,0.205369,0.27527,0.11741,-0.692576,-0.00499765,0.00934615,0.353618
0.105685,0.121323,0.190769,0.201349,0.0642892,-0.725313,-0.0095136,-0.0332103,0.339177
0.107478,0.122674,0.175751,0.0998059,-0.0816112,-0.745334,0.0112566,-0.0586338,0.312243
0.106532,0.123222,0.160553,0.147848,-0.183663,-0.746293,0.024099,-0.0879814,0.177221
0.104339,0.12599,0.145789,0.269461,-0.188383,-0.670401,0.0526051,-0.0850825,0.0722651
0.103581,0.129738,0.133433,0.204382,-0.0226217,-0.513906,0.0991486,-0.0861262,0.042342
0.106745,0.131754,0.124274,0.0998648,0.205819,-0.37985,0.0997644,-0.119787,-0.000866413
0.112405,0.132744,0.117172,0.0846745,0.208243,-0.323226,0.0778751,-0.156571,-0.0523911
0.115723,0.132875,0.110681,-0.0380262,0.0138263,-0.32062,0.0880522,-0.191323,-0.0657983
0.115542,0.128874,0.104138,-0.294866,-0.083481,-0.374071,0.0779469,-0.219093,-0.123181
0.115381,0.119878,0.0968718,-0.485294,0.018211,-0.439653,0.0591785,-0.221595,-0.248946
0.119326,0.10941,0.0887223,-0.449465,0.267559,-0.478108,0.0628517,-0.205902,-0.3696
0.126273,0.100038,0.080574,-0.400788,0.299096,-0.436978,0.130856,-0.19792,-0.3784
0.130219,0.0910079,0.0737543,-0.422073,-0.0068309,-0.335549,0.218388,-0.195113,-0.359753
0.126919,0.0822581,0.0702414,-0.383981,-0.322408,-0.115031,0.268412,-0.147617,-0.399856
0.118741,0.0761398,0.0714828,-0.225071,-0.454082,0.161038,0.242248,-0.0562123,-0.451141
0.118741,0.0761398,0.0714828,-0.225071,-0.454082,0.161038,0.242248,-0.0562123,-0.451141
0.110407,0.074527,0.0772386,-0.00498343,-0.304755,0.404935,0.18947,-0.00946543,-0.467908
0.10682,0.0779867,0.0874575,0.251111,0.0732682,0.635031,0.137894,0.00162885,-0.433954
0.112444,0.0878202,0.100754,0.586381,0.592984,0.7806,0.0733143,0.0142514,-0.344281
0.125771,0.103915,0.115815,0.801575,0.822511,0.915121,0.04525,0.047286,-0.117987
0.138587,0.122451,0.133478,0.779738,0.605369,1.0629,0.0431277,0.0418531,0.103419
0.143328,0.139574,0.15285,0.639169,0.0845083,1.05746,-0.00758302,0.0255044,0.208286
0.136176,0.153417,0.171177,0.481822,-0.518088,0.922808,-0.0665337,0.017943,0.208995
0.119908,0.164199,0.186478,0.415555,-0.815741,0.703754,-0.124985,0.0510508,0.123463
0.101187,0.173553,0.197693,0.395986,-0.815237,0.520528,-0.125025,0.115234,0.063176
0.0870461,0.182263,0.206046,0.393977,-0.401048,0.38822,-0.0936596,0.161175,0.0322793
0.0835844,0.190311,0.212729,0.344985,0.174694,0.365097,-0.0777835,0.226243,0.0800036
0.0899764,0.19703,0.220602,0.265051,0.561097,0.471752,-0.0405091,0.252734,0.178956
0.0997339,0.203228,0.230717,0.272257,0.572453,0.564165,-0.0264593,0.230595,0.268468
0.107073,0.210434,0.241683,0.330149,0.369203,0.569802,-0.0391428,0.201682,0.334706
0.109578,0.218181,0.252177,0.317377,0.106094,0.533518,-0.039429,0.177056,0.396417
0.106775,0.224727,0.261915,0.22106,-0.167484,0.476277,-0.0306499,0.158372,0.443638
0.099588,0.228576,0.270174,0.0711592,-0.351438,0.363814,-0.0178732,0.133588,0.445223
0.0900443,0.228521,0.27635,-0.138998,-0.460515,0.241511,-0.000777669,0.124532,0.428431
0.0783167,0.224427,0.28102,-0.284941,-0.608881,0.193333,0.0406229,0.115003,0.362406
0.0641886,0.218642,0.285231,-0.314657,-0.697814,0.176827,0.0657548,0.100373,0.261032
0.0501945,0.21278,0.289115,-0.292167,-0.598146,0.176809,0.0664366,0.100842,0.167958
0.0390551,0.206933,0.293084,-0.330083,-0.448828,0.179916,0.0725056,0.0814509,0.110732
0.0299165,0.199265,0.296553,-0.447274,-0.400808,0.123438,0.0732799,0.0465662,0.076133
0.0210947,0.189079,0.298212,-0.590355,-0.471853,0.00234574,0.0258526,0.0355036,0.0241499
0.0107352,0.175018,0.296574,-0.840272,-0.601943,-0.182986,0.0092654,0.0047687,-0.0587904
-0.00154947,0.15566,0.291795,-1.06704,-0.67665,-0.283511,0.0837298,-0.028302,-0.199012
-0.012055,0.133936,0.286069,-1.10328,-0.437118,-0.238708,0.109847,0.0013791,-0.375315
-0.0164094,0.112489,0.282866,-1.03647,-0.0374761,-0.0510434,0.0506219,0.039238,-0.480682
-0.0153328,0.0927712,0.282255,-0.960403,0.0686516,-0.0103532,-0.0296251,0.00909616,-0.457145
-0.0157182,0.0737164,0.279975,-0.973707,-0.132189,-0.212375,-0.0551565,-0.073079,-0.414521
-0.019577,0.0531858,0.273406,-1.0809,-0.244533,-0.405484,-0.0211318,-0.135545,-0.434116
-0.0227311,0.032009,0.264063,-1.02995,-0.0873031,-0.4399,-0.00245951,-0.060175,-0.508446
-0.0211878,0.0140701,0.256769,-0.747083,0.240818,-0.232304,0.0525409,0.00485319,-0.575275
-0.0122148,0.00378675,0.254834,-0.261904,0.642524,0.0750404,0.0382307,0.0545221,-0.578954
0.00309561,0.00423338,0.259812,0.304571,0.829681,0.408613,-0.0171031,0.0650242,-0.451353
0.0180118,0.014915,0.269189,0.721845,0.616954,0.505496,-0.131656,0.0513217,-0.242644
0.0258247,0.0320649,0.277921,0.957887,0.183761,0.382661,-0.226385,0.0304113,-0.0716328
0.0251792,0.0523846,0.282658,1.0449,-0.207261,0.141949,-0.262325,0.0383072,0.0446984
0.0195269,0.0729288,0.282546,0.995086,-0.301297,-0.100037,-0.237217,0.059421,0.114492
0.0156047,0.091524,0.278094,0.874749,-0.0971043,-0.30492,-0.198171,0.093807,0.159603
0.0181855,0.107451,0.270053,0.7431,0.289672,-0.469289,-0.176679,0.123678,0.198857
0.029126,0.120731,0.258861,0.619782,0.667512,-0.610783,-0.164438,0.130539,0.253973
0.0462928,0.131738,0.245065,0.534692,0.831724,-0.701359,-0.144066,0.139978,0.319832
0.0645092,0.141097,0.230258,0.503309,0.77329,-0.721674,-0.102703,0.116063,0.365231
0.0809824,0.150448,0.21465,0.553443,0.654551,-0.750183,-0.073724,0.102014,0.386144
0.0958814,0.160487,0.198474,0.582114,0.605541,-0.760993,-0.0621252,0.0881587,0.412852
0.110587,0.169905,0.181732,0.508377,0.595035,-0.792765,-0.0603415,0.0522211,0.446698
0.124784,0.176416,0.164437,0.335055,0.519561,-0.827218,-0.0470887,0.00388642,0.473651
0.136107,0.17894,0.147001,0.155263,0.283321,-0.848333,-0.0119389,-0.0573192,0.460894
0.141681,0.178866,0.12936,0.095046,-0.0254488,-0.876013,0.0138319,-0.0833474,0.380848
0.142696,0.178193,0.111668,0.0852871,-0.155668,-0.850414,0.0331358,-0.0871682,0.28294
0.142259,0.177307,0.0951901,0.04795,-0.163315,-0.770255,0.0636746,-0.0888793,0.199644
0.141825,0.175805,0.0808385,0.000404919,-0.147793,-0.646473,0.104023,-0.0835227,0.124344
0.139802,0.173359,0.0696414,-0.0935485,-0.271365,-0.48684,0.1132,-0.0808189,0.0764597
0.139802,0.173359,0.0696414,-0.0935485,-0.271365,-0.48684,0.1132,-0.0808189,0.0764597
0.133487,0.168636,0.0616357,-0.2949,-0.526446,-0.377558,0.0984263,-0.104242,0.0298095
0.121393,0.158718,0.0548335,-0.608423,-0.774491,-0.441153,0.0497386,-0.144255,-0.0785059
0.10651,0.14344,0.0462849,-0.78084,-0.809239,-0.571483,0.034203,-0.176677,-0.273645
0.0937517,0.12688,0.0358801,-0.756238,-0.564363,-0.594791,0.0747101,-0.165117,-0.444142
0.0876089,0.111278,0.026654,-0.724182,-0.153297,-0.438832,0.109364,-0.120611,-0.512011
0.0883508,0.0963523,0.0208852,-0.726716,0.120088,-0.28719,0.129291,-0.127918,-0.510794
0.0903079,0.0805907,0.0175093,-0.810641,-0.0232022,-0.203021,0.144025,-0.167513,-0.468565
0.0864073,0.0651155,0.0154147,-0.677981,-0.402701,-0.13436,0.13892,-0.137171,-0.494642
0.0770118,0.0541267,0.0143957,-0.405912,-0.473863,-0.0705114,0.136525,-0.0980453,-0.537856
0.0711248,0.0492674,0.0144044,-0.058111,-0.0261826,0.0555978,0.148016,-0.0411915,-0.53534
0.0789966,0.0522828,0.0174917,0.319217,0.842135,0.298498,0.143514,0.0187048,-0.438166
0.10202,0.0622705,0.0260938,0.584626,1.42982,0.658647,0.124108,0.0795183,-0.180574
0.130137,0.0773122,0.0408041,0.718191,1.40853,0.950776,0.096616,0.0639751,0.0819051
0.152042,0.0946899,0.0590654,0.734717,0.867392,1.08727,0.0495845,0.0299732,0.25082
0.158827,0.112454,0.0785773,0.716909,0.00466636,1.0954,0.0154462,0.000766829,0.317221
0.14868,0.129322,0.097313,0.649237,-0.735294,0.994475,-0.0372307,0.0160929,0.309002
0.128009,0.143311,0.114215,0.498807,-1.04917,0.867063,-0.0903862,0.0591413,0.254996
0.104669,0.153252,0.129056,0.319802,-1.03069,0.707133,-0.100538,0.0889779,0.186744
0.0842975,0.159394,0.140793,0.196209,-0.796563,0.514811,-0.0837559,0.0980507,0.116707
0.0711435,0.163118,0.149432,0.0926996,-0.353897,0.392584,-0.0519209,0.139904,0.0892407
0.0682252,0.164357,0.156697,-0.0202962,0.149329,0.349574,-0.0212177,0.160887,0.0930392
0.0721396,0.164502,0.164443,0.0273376,0.322019,0.41774,0.0260182,0.167407,0.12343
0.0762479,0.167183,0.173236,0.153547,0.23186,0.481723,0.0506204,0.157815,0.16996
0.0788496,0.171442,0.183026,0.196941,0.189117,0.49908,0.0399405,0.128138,0.220087
0.0803037,0.176565,0.192554,0.235253,0.116164,0.484386,0.0200745,0.116048,0.249454
0.0796318,0.182012,0.201033,0.221385,-0.0514399,0.381574,0.0248853,0.0887083,0.280337
0.0755577,0.185494,0.207644,0.0451159,-0.223799,0.305267,0.0544102,0.0718372,0.31343
0.0696632,0.183758,0.212995,-0.259787,-0.25072,0.207397,0.0667731,0.0580917,0.28536
0.064258,0.176874,0.216995,-0.402667,-0.209662,0.148934,0.0631919,0.0527228,0.168219
0.0594004,0.170438,0.220342,-0.216497,-0.233549,0.154109,0.0791595,0.0560427,0.0341876
0.0536602,0.169574,0.224263,0.100909,-0.278007,0.234059,0.0998601,0.0584105,-0.0310054
0.0468898,0.173193,0.229911,0.177941,-0.316745,0.335272,0.0952471,0.059306,0.0147187
0.0383242,0.175254,0.237071,-0.0224144,-0.409565,0.368777,0.0743784,0.0251274,0.0532342
0.0285102,0.172727,0.243811,-0.242049,-0.462634,0.264894,0.018213,-0.018072,-0.00232589
0.0177846,0.166702,0.247184,-0.353663,-0.558952,0.050806,-0.00577262,-0.0630731,-0.0974078
0.0068651,0.159149,0.246459,-0.402593,-0.526828,-0.118836,0.00132414,-0.0993497,-0.193523
-0.00113101,0.149739,0.242862,-0.560246,-0.297262,-0.236413,-0.0236467,-0.0971576,-0.243002
-0.0050004,0.137205,0.235806,-0.713439,-0.131505,-0.512524,-0.0628872,-0.126913,-0.29742
-0.00512987,0.120016,0.223822,-0.970163,0.0028989,-0.657402,0.013821,-0.164757,-0.305134
-0.00242573,0.102187,0.20939,-0.787116,0.0650726,-0.768299,-0.0232675,-0.0824244,-0.407273
0.000583173,0.0879622,0.193606,-0.671495,0.118503,-0.809465,0.0286854,-0.0634727,-0.388113
0.00757301,0.0736201,0.176558,-0.80246,0.500588,-0.887604,-0.0067437,0.00131835,-0.329138
0.0237574,0.056366,0.159837,-0.836102,1.00709,-0.80055,0.0285134,0.0183721,-0.32148
0.0471238,0.0421132,0.146455,-0.49657,1.20505,-0.540011,0.058099,0.0943924,-0.321576
0.0700872,0.0369865,0.140699,0.0280927,1.01101,-0.0372888,0.084437,0.156622,-0.265649
0.0859275,0.0437308,0.144308,0.626446,0.589921,0.42676,0.0316766,0.189469,-0.211246
0.0934525,0.0628031,0.153886,1.16392,0.250294,0.659875,-0.0595632,0.180148,-0.126901
0.096517,0.0900887,0.164373,1.39906,0.170269,0.612643,-0.113234,0.135087,0.00105989
0.100267,0.118262,0.172241,1.2835,0.309925,0.44624,-0.128681,0.106115,0.146185
0.107467,0.14146,0.177585,0.966525,0.487536,0.315621,-0.0970644,0.0830965,0.252916
0.118089,0.157891,0.180853,0.650114,0.601922,0.195941,-0.0927129,0.0700013,0.283906
0.13006,0.169482,0.18232,0.524086,0.624211,0.0970826,-0.0977455,0.0419319,0.226966
0.142723,0.180475,0.182227,0.593183,0.644955,0.0456566,-0.0993249,0.0301737,0.176072
0.155926,0.193466,0.180987,0.713183,0.658243,0.0274549,-0.0898826,0.0248572,0.178758
0.155926,0.193466,0.180987,0.713183,0.658243,0.0274549,-0.0898826,0.0248572,0.178758
0.169344,0.208176,0.178753,0.750159,0.628963,0.0138382,-0.0783339,0.0193124,0.214857
0.182099,0.222962,0.176798,0.752603,0.609782,0.0509254,-0.0623688,0.000400543,0.231293
0.194039,0.238073,0.175075,0.776003,0.555824,0.0720852,-0.0675878,0.000631347,0.227315
0.205061,0.253949,0.173652,0.807626,0.484858,0.109664,-0.0655958,-0.00905588,0.234102
0.213671,0.270094,0.173132,0.7889,0.372995,0.186487,-0.03862,-0.0244382,0.246227
0.22007,0.28591,0.174366,0.727563,0.305694,0.274618,-0.0246063,-0.031355,0.23331
0.226113,0.300615,0.177264,0.646758,0.428413,0.311598,-0.0434372,-0.0542186,0.193933
0.235705,0.313287,0.180696,0.506116,0.628825,0.304193,-0.0608455,-0.0763036,0.178836
0.247937,0.322718,0.184992,0.302319,0.689061,0.326076,-0.0308772,-0.101357,0.198734
0.257326,0.328018,0.190965,0.0718222,0.385495,0.356551,0.0252325,-0.13993,0.214585
0.257024,0.328779,0.198308,-0.179669,-0.196395,0.319633,0.0219245,-0.15897,0.178806
0.246518,0.324125,0.205371,-0.432632,-0.575523,0.20846,-0.0203693,-0.159914,0.046393
0.231568,0.315241,0.210896,-0.507074,-0.668086,0.0940632,-0.0237206,-0.127607,-0.148218
0.220812,0.306958,0.214673,-0.404483,-0.199562,0.0777769,0.0290238,-0.0974981,-0.311679
0.222996,0.298959,0.218244,-0.514483,0.478231,0.104667,0.0580815,-0.0586849,-0.287257
0.232378,0.286238,0.224642,-0.873554,0.545492,0.189375,0.174891,-0.0897859,-0.157353
0.237253,0.267837,0.233193,-1.09177,0.108987,0.166367,0.181977,-0.126971,-0.193039
0.233547,0.247062,0.241138,-1.05087,-0.338064,0.152324,0.191064,-0.0581328,-0.294176
0.219599,0.232243,0.25016,-0.585307,-0.725495,0.375531,0.216904,0.0825323,-0.393983
0.205361,0.226654,0.262509,-0.216101,-0.292216,0.691515,0.219416,0.144808,-0.397065
0.204393,0.229327,0.280986,0.0735081,0.609076,1.14098,0.151859,0.239789,-0.2681
0.216711,0.237594,0.307124,0.19364,1.12221,1.4779,0.116675,0.190397,-0.0401295
0.230753,0.24858,0.336788,0.20722,0.904804,1.57445,0.0655359,0.120051,0.178847
0.235833,0.25893,0.367392,0.0997933,0.358388,1.52091,0.0445983,0.0312081,0.289837
0.230011,0.265945,0.395992,-0.0743907,-0.175062,1.33221,0.00369047,0.000888467,0.302029
0.216551,0.268111,0.421445,-0.243472,-0.446333,1.13063,-0.0240652,0.00638068,0.226801
0.20117,0.267051,0.443825,-0.301975,-0.485807,0.960626,-0.0505362,0.0489528,0.103259
0.186623,0.264388,0.463453,-0.310464,-0.434516,0.874905,-0.00363402,0.0637624,0.0157533
0.174385,0.262687,0.482137,-0.158341,-0.300703,0.894671,0.00202037,0.114748,-0.059296
0.16562,0.265109,0.501594,0.090113,-0.0458275,1.00704,-0.00099282,0.144338,-0.0870972
0.162808,0.272732,0.522307,0.324003,0.31431,1.07705,-0.0622263,0.152069,-0.0424792
0.165862,0.283397,0.542724,0.389627,0.513381,1.0205,-0.118264,0.117342,0.0878346
0.170786,0.294111,0.560986,0.370438,0.446001,0.882958,-0.149491,0.0856957,0.198279
0.171308,0.304224,0.577807,0.344384,0.0551977,0.933514,-0.093292,0.15821,0.31545
0.164333,0.314116,0.595854,0.332864,-0.174158,0.878487,-0.138195,0.104783,0.306756
0.15524,0.320784,0.610703,0.0688818,-0.214954,0.605054,-0.145204,0.036441,0.308594
0.150029,0.32024,0.620089,-0.253666,-0.0191309,0.284221,-0.151771,0.000494063,0.245093
0.149481,0.313879,0.625246,-0.419452,0.120314,0.136313,-0.0718857,-0.00606915,0.151749
0.151081,0.306222,0.629036,-0.338262,0.138287,0.126363,0.00477934,-0.0228213,0.0412204
0.151937,0.302803,0.632846,-0.0481676,0.0512043,0.159489,-0.00800778,-0.0453089,-0.0462378
0.151124,0.302596,0.634922,-0.0941164,-0.0659071,0.0309228,0.0041025,-0.0884148,-0.00377738
0.149041,0.297471,0.63514,-0.428966,-0.144499,-0.0939908,0.031143,-0.11922,0.00622684
0.14518,0.285832,0.633667,-0.674558,-0.276116,-0.199561,0.0276115,-0.0937768,-0.0953588
0.140231,0.271409,0.631332,-0.686751,-0.217083,-0.228057,0.0330386,-0.0656666,-0.262127
0.140078,0.258275,0.628805,-0.594292,0.124559,-0.192758,0.0300038,-0.0439183,-0.357564
0.145802,0.246053,0.626176,-0.595411,0.356579,-0.259176,0.011174,-0.0537554,-0.352833
0.154272,0.232474,0.621001,-0.684353,0.304062,-0.455867,-0.0139991,-0.0934668,-0.325262
0.159835,0.217158,0.611726,-0.654391,0.0499942,-0.666099,-0.000677779,-0.0979296,-0.354827
0.162577,0.203579,0.599347,-0.498266,0.0155209,-0.707923,0.0094192,-0.0386537,-0.401225
0.166791,0.192822,0.588292,-0.390449,0.223173,-0.524523,0.0125345,0.0322514,-0.381381
0.1753,0.185528,0.580414,-0.17445,0.47436,-0.38779,-0.0569544,0.03702,-0.367475
0.187559,0.183774,0.573111,0.14407,0.590917,-0.366769,-0.121463,0.00491476,-0.30906
0.2005,0.188411,0.564292,0.465318,0.505027,-0.388511,-0.172213,0.0159726,-0.200629
0.2005,0.188411,0.564292,0.465318,0.505027,-0.388511,-0.172213,0.0159726,-0.200629
0.210279,0.197954,0.554021,0.656739,0.261089,-0.412821,-0.210318,0.0432823,-0.0774878
0.215354,0.209746,0.542094,0.744809,0.0175998,-0.496146,-0.242046,0.0638634,0.00175548
0.217489,0.222543,0.527347,0.809168,-0.0883911,-0.647479,-0.273506,0.0854411,0.0427558
0.220485,0.234448,0.508953,0.71045,-0.00566041,-0.849755,-0.260404,0.102148,0.109711
0.226856,0.241832,0.487514,0.473298,0.111745,-1.00451,-0.210589,0.10972,0.176036
0.233686,0.245126,0.465305,0.376911,-0.00320405,-0.998047,-0.143909,0.125522,0.187208
0.236993,0.248986,0.443821,0.517869,-0.192859,-0.938373,-0.11339,0.14141,0.142803
0.237994,0.256459,0.42262,0.677936,-0.192918,-0.894709,-0.121751,0.141993,0.12199
0.241309,0.265426,0.40148,0.65855,0.00794057,-0.894479,-0.137527,0.128973,0.164057
0.24985,0.272952,0.380196,0.573488,0.265967,-0.91578,-0.155189,0.115431,0.215305
0.261961,0.278858,0.358725,0.537916,0.320214,-0.944086,-0.15986,0.100148,0.266082
0.273049,0.284118,0.336342,0.542137,0.162564,-1.00468,-0.151146,0.0728676,0.296052
0.281019,0.288216,0.312837,0.452569,-0.0268745,-1.04115,-0.0903736,0.0524611,0.313417
0.286096,0.290262,0.29038,0.369879,-0.0738735,-0.960564,-0.04079,0.0594576,0.25545
0.291391,0.292655,0.270625,0.416395,0.0261821,-0.771358,-0.00952128,0.0698214,0.155538
0.297346,0.297484,0.254918,0.469544,0.101219,-0.545439,0.0156313,0.0434514,0.123076
0.302517,0.303583,0.242849,0.451771,0.0365414,-0.37895,0.020647,-0.0155582,0.13599
0.305013,0.309885,0.233868,0.393343,-0.0569046,-0.26293,0.0393463,-0.0636269,0.123101
0.304947,0.314593,0.227676,0.228956,-0.140434,-0.150206,0.0707853,-0.0935402,0.109229
0.301753,0.316809,0.225068,0.0607509,-0.271857,-0.0320849,0.0839744,-0.125827,0.0590335
0.294441,0.316828,0.224883,-0.0371646,-0.472835,0.0101085,0.0779076,-0.162979,-0.0291873
0.284203,0.316017,0.225319,-0.0533328,-0.501145,0.00400091,0.0534844,-0.164055,-0.124803
0.275179,0.313351,0.225375,-0.245057,-0.395081,-0.105082,0.0310624,-0.18191,-0.154508
0.269058,0.303182,0.223399,-0.691812,-0.320243,-0.341031,0.0351341,-0.209987,-0.164327
0.261726,0.285173,0.219477,-0.888297,-0.588708,-0.476139,0.0994501,-0.201815,-0.29641
0.247346,0.266837,0.214191,-0.726262,-0.950532,-0.457008,0.175789,-0.121801,-0.468953
0.228997,0.253372,0.209081,-0.464688,-0.937424,-0.335934,0.184208,-0.0136436,-0.56579
0.215286,0.245911,0.205562,-0.186556,-0.470436,-0.154927,0.14241,0.0669262,-0.574248
0.213166,0.244911,0.204771,0.0937673,0.247848,0.0749381,0.134876,0.124016,-0.458431
0.223585,0.249214,0.208095,0.226378,0.823095,0.328433,0.125501,0.154723,-0.225182
0.240786,0.255731,0.215308,0.228883,1.02436,0.480962,0.116075,0.12223,0.012108
0.258056,0.261903,0.224329,0.148452,0.906533,0.512688,0.0941234,0.0899886,0.177416
0.270927,0.266284,0.233944,0.025199,0.610885,0.494614,0.0965286,0.0584208,0.265441
0.276553,0.268154,0.243812,-0.104333,0.210355,0.482156,0.117332,0.0440652,0.285029
0.273973,0.267779,0.254486,-0.20291,-0.161035,0.506731,0.127145,0.0588713,0.24953
0.265554,0.266116,0.266569,-0.271307,-0.322924,0.587949,0.122588,0.097825,0.17387
0.255419,0.263953,0.280942,-0.279279,-0.310664,0.706407,0.107952,0.125507,0.101085
0.245694,0.263338,0.297452,-0.157071,-0.235217,0.821138,0.078403,0.136038,0.0403207
0.237441,0.265961,0.315289,-0.0070161,-0.110596,0.913803,0.0479104,0.128101,0.0284072
0.231842,0.271142,0.334144,0.0752335,0.0462516,0.970773,0.00684991,0.112116,0.0750477
0.228687,0.277384,0.353284,0.110531,0.149572,0.964517,-0.0294198,0.0812896,0.139372
0.226954,0.284115,0.372004,0.140239,0.192002,0.940887,-0.0543838,0.059544,0.192802
0.225655,0.291171,0.390072,0.161377,0.185103,0.914247,-0.0760213,0.043834,0.226973
0.224036,0.297842,0.40762,0.11034,0.170709,0.867866,-0.072965,0.0174565,0.257643
0.222607,0.303027,0.424141,0.0449561,0.155575,0.785037,-0.0790159,-0.0110991,0.263697
0.220233,0.306677,0.439013,0.0042256,0.042202,0.682336,-0.0695157,-0.0365174,0.24747
0.215097,0.308956,0.452554,-0.0631123,-0.137922,0.645829,-0.026853,-0.0380993,0.226444
0.20703,0.309786,0.466394,-0.134259,-0.234911,0.668208,0.00228928,-0.0319216,0.172677
0.197709,0.309257,0.480884,-0.191765,-0.261052,0.672469,0.0210556,-0.0538336,0.098844
0.187861,0.307957,0.495429,-0.189799,-0.292497,0.675438,0.0400917,-0.0781596,0.00793558
0.176298,0.307299,0.509991,-0.127684,-0.437494,0.681374,0.0329638,-0.0860797,-0.0643668
0.162124,0.307238,0.523957,-0.113423,-0.543249,0.618775,0.0130746,-0.101427,-0.107423
0.147028,0.306617,0.535968,-0.124457,-0.594599,0.513298,-0.0323667,-0.0925128,-0.161021
0.13429,0.305537,0.545477,-0.125337,-0.349344,0.35035,-0.0672463,-0.121848,-0.235946
0.13429,0.305537,0.545477,-0.125337,-0.349344,0.35035,-0.0672463,-0.121848,-0.235946
0.129637,0.301983,0.550772,-0.332626,0.0141159,0.0907343,-0.127865,-0.16563,-0.227014
0.1307,0.292093,0.550396,-0.641181,0.00195458,-0.280971,-0.170203,-0.203956,-0.188784
0.12932,0.276172,0.542249,-0.810006,-0.399222,-0.694338,-0.127293,-0.225036,-0.222395
0.123238,0.258061,0.527239,-0.79254,-0.509402,-0.936933,-0.080984,-0.147504,-0.350856
0.120607,0.24059,0.509914,-0.732356,-0.125492,-0.900748,-0.0080852,-0.0263725,-0.421539
0.126884,0.22574,0.49573,-0.549839,0.402923,-0.632789,0.0396,0.0579496,-0.455432
0.139711,0.217192,0.4868,-0.15093,0.635392,-0.367916,0.0296179,0.0690039,-0.459965
0.153297,0.218461,0.480813,0.36789,0.567852,-0.21285,-0.00191206,0.0578836,-0.387923
0.163757,0.229802,0.475628,0.814461,0.351848,-0.111102,-0.0415381,0.102021,-0.228188
0.168598,0.248086,0.471008,1.00281,-0.00863897,-0.0298412,-0.103108,0.153584,-0.0198703
0.164112,0.264893,0.468501,0.712029,-0.354941,-6.15083e-05,-0.160364,0.120051,0.124562
0.155454,0.277974,0.464402,0.683185,-0.67281,-0.191282,-0.286321,0.139795,0.0938623
0.142024,0.291376,0.455602,0.789722,-0.851687,-0.487757,-0.318259,0.11831,0.0371795
0.12965,0.306641,0.439087,0.923356,-0.839493,-0.857313,-0.310939,0.144158,0.00315213
0.126602,0.32112,0.414209,0.723237,-0.191654,-1.32713,-0.248075,0.164506,0.0558667
0.139191,0.325866,0.382326,0.143371,0.39034,-1.547,-0.151353,0.220993,0.191141
0.161176,0.319697,0.350222,-0.226791,0.745986,-1.54206,-0.0595593,0.243417,0.203018
0.185432,0.310611,0.320317,-0.124071,0.702211,-1.40655,-0.0273246,0.252067,0.151888
0.204652,0.306156,0.293966,0.199947,0.421632,-1.14452,0.000224009,0.233524,0.147331
0.218012,0.308872,0.27125,0.490613,0.246905,-0.935351,-0.00166252,0.202269,0.175991
0.228405,0.316127,0.250839,0.627193,0.186024,-0.822166,-0.0515382,0.138906,0.219311
0.237647,0.323993,0.231236,0.545299,0.118211,-0.819867,-0.0527576,0.0924932,0.290912
0.245398,0.328833,0.211823,0.373317,0.0460387,-0.856916,-0.0362763,0.0441451,0.310186
0.251715,0.330591,0.192711,0.26341,-0.0352123,-0.853478,-0.0129524,0.0298018,0.274061
0.256815,0.331564,0.174273,0.289878,-0.0385378,-0.811667,-0.000130817,0.0103518,0.196583
0.261878,0.333841,0.156564,0.35926,-0.0349146,-0.745267,0.0318263,-0.0144275,0.152523
0.266464,0.337269,0.140472,0.34879,-0.0226396,-0.630313,0.0879693,-0.0404117,0.142063
0.270333,0.340381,0.1273,0.286468,-0.0508194,-0.490535,0.122079,-0.075562,0.124091
0.271395,0.343399,0.117088,0.27363,-0.199574,-0.367406,0.145067,-0.118266,0.0858005
0.26827,0.346746,0.108781,0.251098,-0.382428,-0.322462,0.16569,-0.163945,0.0416548
0.262499,0.348605,0.100659,0.0949588,-0.470621,-0.382202,0.161861,-0.212017,0.000215173
0.256151,0.345208,0.0918535,-0.2153,-0.428644,-0.521301,0.147833,-0.255068,-0.0635441
0.253954,0.335716,0.0813583,-0.4147,-0.0803239,-0.680038,0.146718,-0.266944,-0.192798
0.263291,0.324486,0.0685801,-0.341764,0.626079,-0.752377,0.166714,-0.238353,-0.301507
0.28516,0.314758,0.0560697,-0.30727,1.09561,-0.642927,0.231548,-0.196151,-0.219028
0.308818,0.30431,0.0467123,-0.443308,0.87544,-0.525577,0.293833,-0.245607,-0.0982964
0.321798,0.29252,0.039961,-0.439245,0.211661,-0.457099,0.36034,-0.26539,-0.130617
0.321801,0.28357,0.0349942,-0.245787,-0.295008,-0.249583,0.393057,-0.154053,-0.240633
0.315683,0.280708,0.0341944,0.00557628,-0.225491,0.104354,0.371364,-0.0218379,-0.298673
0.315741,0.285496,0.0393881,0.298756,0.437091,0.530828,0.285743,0.0870228,-0.281026
0.328106,0.297975,0.0514342,0.499068,1.08057,0.947382,0.216013,0.135443,-0.128341
0.345891,0.315198,0.0693502,0.534649,1.15445,1.21951,0.188898,0.103233,0.0956595
0.358153,0.333351,0.0917883,0.41892,0.725635,1.39912,0.156759,0.0721757,0.248149
0.356395,0.34928,0.117912,0.206722,-0.0537795,1.44705,0.118229,0.0443543,0.310994
0.338608,0.360638,0.145173,-0.00504766,-0.730304,1.32933,0.0402828,0.0378843,0.24529
0.311587,0.36672,0.170813,-0.175702,-0.989115,1.14467,-0.00522482,0.0750622,0.105874
0.285121,0.368445,0.193692,-0.268699,-0.748866,0.954091,-0.0311651,0.124447,-0.040016
0.269494,0.367949,0.213418,-0.277222,-0.0714138,0.82836,-0.0536904,0.185523,-0.119379
0.268565,0.367066,0.231903,-0.265381,0.59811,0.835331,-0.0615602,0.223533,-0.0851671
0.275975,0.367207,0.251305,-0.181812,0.769136,0.940597,-0.0340593,0.21927,-0.000589073
0.281884,0.371927,0.273027,0.104613,0.570362,1.13921,-0.0448532,0.225182,0.0524377
0.282215,0.383972,0.29598,0.450607,0.323463,1.22668,-0.111538,0.21744,0.0983457
0.278179,0.401341,0.317881,0.628544,0.127032,1.1899,-0.153694,0.185804,0.177279
0.27178,0.41918,0.33757,0.567888,0.0384347,1.02103,-0.174283,0.148512,0.260617
0.27178,0.41918,0.33757,0.567888,0.0384347,1.02103,-0.174283,0.148512,0.260617
0.266162,0.432837,0.35395,0.334808,0.0846232,0.781932,-0.184926,0.120863,0.311651
0.262973,0.439809,0.366779,0.0376237,0.12709,0.532647,-0.175796,0.0977938,0.319024
0.261024,0.440487,0.376465,-0.179979,0.0765759,0.343396,-0.14556,0.0830569,0.287906
0.258303,0.43774,0.383623,-0.230187,-0.0441848,0.22656,-0.110292,0.0811356,0.214776
0.253817,0.434542,0.388803,-0.202121,-0.199823,0.146959,-0.0936086,0.0831042,0.159587
0.246511,0.430901,0.39165,-0.23278,-0.417617,0.000857767,-0.0853634,0.0436358,0.129627
0.236123,0.424838,0.390986,-0.35289,-0.64359,-0.209773,-0.0598645,0.00729674,0.0955259
0.223728,0.415162,0.386557,-0.500542,-0.748897,-0.394161,-0.0291756,0.00308505,0.0310086
0.211828,0.401791,0.379755,-0.678263,-0.698261,-0.48823,0.0122761,0.0102995,-0.0327201
0.201945,0.385084,0.372667,-0.805715,-0.534649,-0.481575,0.0474053,0.00823534,-0.112803
0.197114,0.367147,0.366682,-0.839453,-0.159426,-0.419766,0.0472074,-0.000909328,-0.181459
0.198204,0.348732,0.361837,-0.875711,0.0474396,-0.410709,-0.000378951,-0.00587353,-0.149119
0.19985,0.329146,0.355733,-0.958439,-0.169452,-0.57557,-0.04399,-0.0639725,-0.0729129
0.192442,0.305719,0.345847,-1.17107,-0.939825,-0.803722,0.0109407,-0.100709,-0.026467
0.170243,0.277845,0.333069,-1.33004,-1.61356,-0.856521,0.0733124,-0.0683064,-0.119804
0.136787,0.24971,0.321725,-1.24521,-1.96184,-0.644783,0.123713,0.0150824,-0.286985
0.100875,0.226126,0.313479,-1.00638,-1.7697,-0.447072,0.0751993,0.0585542,-0.423066
0.0727055,0.207511,0.307208,-0.815947,-1.12756,-0.338052,0.001152,0.071732,-0.464712
0.0603598,0.191649,0.301613,-0.757964,-0.224768,-0.32221,-0.0778497,0.0748165,-0.423829
0.0633397,0.175974,0.2962,-0.772089,0.316669,-0.29777,-0.108264,0.0816827,-0.293632
0.070483,0.161315,0.291599,-0.621291,0.245426,-0.257415,-0.0946415,0.0629445,-0.20449
0.0727465,0.152412,0.286757,-0.199026,-0.101749,-0.292653,-0.120805,0.0694401,-0.195206
0.0696035,0.152927,0.280346,0.271232,-0.262606,-0.331267,-0.145503,0.119327,-0.159373
0.0657397,0.160125,0.272952,0.436542,-0.211639,-0.352474,-0.148958,0.148242,-0.0366079
0.0645953,0.167347,0.264843,0.312351,-0.0076986,-0.409977,-0.135685,0.12958,0.0847123
0.068684,0.171044,0.255255,0.117321,0.235546,-0.524452,-0.137163,0.109969,0.180228
0.0769606,0.170883,0.24328,-0.0301089,0.401481,-0.653483,-0.126409,0.095284,0.236974
0.0891036,0.16855,0.229537,-0.0787824,0.562764,-0.709932,-0.0920888,0.0911536,0.285629
0.102516,0.165899,0.215527,-0.0393086,0.527653,-0.682718,-0.0596259,0.0976641,0.338667
0.114243,0.164786,0.202839,0.0704411,0.436648,-0.56815,-0.0298236,0.0776612,0.368832
0.122897,0.165334,0.192356,0.0905415,0.246484,-0.467542,-0.0294093,0.0467225,0.414929
0.127543,0.165067,0.182842,-0.0162098,0.0694975,-0.487795,-0.0376697,-0.0272105,0.41855
0.128285,0.161664,0.172384,-0.196897,-0.186289,-0.586094,-0.0279379,-0.0789385,0.394836
0.123678,0.154471,0.160487,-0.369482,-0.448567,-0.674724,-0.0155856,-0.104169,0.323548
0.115258,0.144225,0.147448,-0.470464,-0.548441,-0.720509,0.0326295,-0.131986,0.179173
0.107816,0.133939,0.134529,-0.393594,-0.347555,-0.642766,0.0942993,-0.127646,0.0294937
0.105262,0.126351,0.12439,-0.248132,-0.0157666,-0.424093,0.129382,-0.117515,-0.05312
0.108943,0.12235,0.118718,-0.0999128,0.281557,-0.188928,0.130717,-0.143595,-0.0937886
0.115274,0.121028,0.116685,-0.0283215,0.270235,-0.0410772,0.110371,-0.189555,-0.101672
0.118014,0.120561,0.116519,-0.0136023,-0.0290821,0.00320042,0.0917478,-0.240082,-0.121494
0.113226,0.120151,0.116091,-0.0317078,-0.463235,-0.065847,0.0529767,-0.268733,-0.192613
0.100935,0.118643,0.11354,-0.091784,-0.740137,-0.209574,0.0435453,-0.291563,-0.318648
0.0886642,0.116114,0.107834,-0.0872001,-0.464795,-0.378584,0.0285186,-0.288032,-0.484527
0.0867182,0.11452,0.0991449,-0.000493546,0.18163,-0.467866,0.0227835,-0.217075,-0.566069
0.0949362,0.114021,0.0910671,0.00937587,0.447557,-0.306661,0.107589,-0.155956,-0.491772
0.102518,0.114027,0.0869841,0.0455469,0.216997,-0.113944,0.172221,-0.154958,-0.425025
0.104025,0.116268,0.0853409,0.21355,-0.0516248,-0.038525,0.142667,-0.134223,-0.443197
0.102405,0.122683,0.0844063,0.444426,-0.0879483,0.0172662,0.0954422,-0.0705264,-0.456029
0.102496,0.13416,0.0845398,0.703145,0.128859,0.126924,0.0889716,0.00746047,-0.390743
0.10812,0.150833,0.0872831,0.920846,0.480845,0.335053,0.0931602,0.0911796,-0.234
0.119957,0.171244,0.0943195,1.00632,0.806295,0.58791,0.0817118,0.154936,-0.0231418
0.135459,0.192303,0.105911,0.922051,0.915127,0.802662,0.054563,0.17348,0.18159
0.149065,0.211185,0.120978,0.735932,0.697666,0.91585,0.0270421,0.155313,0.31275
0.154119,0.226447,0.137833,0.528079,0.133596,0.932158,0.0182562,0.127073,0.373809
0.154119,0.226447,0.137833,0.528079,0.133596,0.932158,0.0182562,0.127073,0.373809
0.146461,0.237605,0.154706,0.324064,-0.496672,0.848417,0.0182113,0.108468,0.36517
0.128353,0.2438,0.170185,0.0801467,-0.882609,0.734577,0.0119842,0.117842,0.302045
0.106604,0.244649,0.18448,-0.15503,-0.921379,0.658557,0.012519,0.152525,0.19732
0.0863862,0.241211,0.197714,-0.289353,-0.763424,0.598659,0.036855,0.163302,0.093283
0.070719,0.236105,0.210331,-0.294698,-0.503108,0.605621,0.0671645,0.182373,0.0155264
0.0604643,0.232346,0.224219,-0.147537,-0.195642,0.741704,0.0964544,0.209433,-0.0257503
0.0552868,0.232664,0.24155,0.0879576,0.0534053,0.951093,0.0964225,0.235621,0.00603843
0.052991,0.237818,0.262458,0.306483,0.186637,1.09604,0.0836716,0.206545,0.0943459
0.0515908,0.246027,0.284914,0.37891,0.194441,1.11865,0.0461305,0.164649,0.21048
0.0499124,0.254266,0.307145,0.323478,0.190385,1.07341,0.0214451,0.121332,0.29605
0.0482461,0.260473,0.327919,0.187411,0.146638,0.962654,-0.0129702,0.0946347,0.353053
0.0452055,0.263272,0.346026,0.0108734,0.0168467,0.80023,-0.0185018,0.0431233,0.36243
0.039764,0.262306,0.360796,-0.166592,-0.200192,0.624499,-0.0166957,0.0122684,0.346074
0.0301758,0.258186,0.37236,-0.260103,-0.428715,0.488278,0.00522209,-0.0176373,0.264388
0.0187766,0.253105,0.381319,-0.271425,-0.469622,0.36151,0.0101277,-0.0203871,0.153272
0.00868199,0.247859,0.387394,-0.25719,-0.359559,0.225128,0.0128084,-0.0469228,0.0502902
0.00266837,0.243038,0.390503,-0.242728,-0.186694,0.070683,0.0156443,-0.0668883,-0.0305976
-0.000918551,0.237474,0.390594,-0.330817,-0.203418,-0.0516999,0.0430375,-0.0722318,-0.0496257
-0.0053297,0.229741,0.388766,-0.451872,-0.279338,-0.12393,0.0790116,-0.0884829,-0.100034
-0.0114007,0.219454,0.385659,-0.581966,-0.396426,-0.158906,0.0768924,-0.0800326,-0.171691
-0.0187284,0.207635,0.382572,-0.575577,-0.34191,-0.119587,0.069915,-0.0898133,-0.303648
-0.0212239,0.197498,0.380417,-0.45224,0.0664475,-0.0845551,0.0212828,-0.102078,-0.410102
-0.0162027,0.188524,0.378006,-0.489376,0.324172,-0.157892,-0.0178528,-0.123901,-0.366358
-0.00992541,0.176654,0.372834,-0.721124,0.145111,-0.348391,-0.00910436,-0.186706,-0.293672
-0.00906232,0.160303,0.36308,-0.901086,-0.19677,-0.60899,-0.0125231,-0.197637,-0.329146
-0.0111786,0.14275,0.348575,-0.842392,-0.179534,-0.776755,-0.00983993,-0.128258,-0.453852
-0.0102176,0.12827,0.333327,-0.602004,0.113481,-0.683548,0.0209672,0.00734301,-0.510632
-0.00200226,0.119715,0.322341,-0.248914,0.576909,-0.377015,0.0528302,0.103438,-0.485522
0.0140743,0.119237,0.319214,0.214028,0.955701,0.0772675,0.0604585,0.171674,-0.388867
0.0327238,0.128456,0.325186,0.693714,0.913073,0.530548,0.0108255,0.210333,-0.221554
0.0454913,0.146923,0.338344,1.08443,0.517579,0.812135,-0.111896,0.218782,-0.0553914
0.0487627,0.171931,0.354049,1.32481,0.0619898,0.830704,-0.240987,0.201404,0.0566712
0.0438769,0.200099,0.368059,1.41359,-0.242662,0.642988,-0.320118,0.174795,0.134377
0.0370763,0.228339,0.376438,1.34942,-0.218199,0.28006,-0.352909,0.165233,0.207932
0.0345456,0.252638,0.377451,1.05204,0.0144116,-0.0829784,-0.31515,0.160451,0.298733
0.0395487,0.268974,0.37197,0.591108,0.343146,-0.377351,-0.271057,0.160807,0.375705
0.0515113,0.27579,0.361434,0.155686,0.528518,-0.593573,-0.230207,0.161284,0.414929
0.065125,0.275174,0.347461,-0.100577,0.413141,-0.749322,-0.178613,0.142061,0.401149
0.0750568,0.271444,0.330886,-0.126374,0.140375,-0.863425,-0.123632,0.132183,0.352777
0.0813067,0.268564,0.31273,-0.0218113,0.0418237,-0.893241,-0.0835852,0.132642,0.300232
0.0873951,0.267082,0.294807,0.00393098,0.111196,-0.838368,-0.0605076,0.136735,0.308566
0.0947151,0.264763,0.278153,-0.106261,0.179091,-0.799189,-0.0432129,0.100548,0.342619
0.102866,0.259196,0.261923,-0.296274,0.206134,-0.823444,-0.0395164,0.0477007,0.348007
0.11033,0.24998,0.245488,-0.430616,0.116696,-0.860695,-0.0174199,-6.79493e-06,0.289717
0.115018,0.239469,0.229169,-0.411303,-0.0449743,-0.815288,0.0399082,-0.024791,0.185626
0.116281,0.230653,0.21505,-0.301614,-0.139562,-0.640364,0.0812063,-0.018503,0.0783018
0.116194,0.224753,0.204952,-0.16792,-0.0835012,-0.409913,0.113866,-0.0367782,-0.0055095
0.116505,0.222135,0.198669,-0.0138975,-0.0305055,-0.249221,0.100497,-0.0930421,-0.077051
0.116794,0.222866,0.194473,0.116839,-0.0553161,-0.156498,0.0947273,-0.139524,-0.103901
0.115249,0.224818,0.191497,0.0740327,-0.175275,-0.119351,0.0933592,-0.176378,-0.0989082
0.110775,0.223858,0.188967,-0.149378,-0.315103,-0.143361,0.0920083,-0.221169,-0.121855
0.104819,0.218321,0.185898,-0.355793,-0.318848,-0.223308,0.0604387,-0.244667,-0.225568
0.101376,0.209755,0.181043,-0.417868,-0.0683835,-0.341675,0.0352774,-0.263139,-0.371773
0.106611,0.201909,0.173507,-0.263788,0.466979,-0.46049,0.0269783,-0.247458,-0.471159
0.106611,0.201909,0.173507,-0.263788,0.466979,-0.46049,0.0269783,-0.247458,-0.471159
0.121767,0.197587,0.164846,-0.0938894,0.775743,-0.405116,0.0892708,-0.184922,-0.386474
0.135836,0.19494,0.158473,-0.117124,0.432314,-0.253234,0.174215,-0.176883,-0.229134
0.139755,0.191358,0.154763,-0.170893,-0.0771044,-0.17098,0.190177,-0.192971,-0.213814
0.136754,0.188357,0.152126,-0.0711959,-0.21274,-0.123955,0.141031,-0.137157,-0.313723
0.134039,0.188619,0.150513,0.13695,-0.0447848,-0.0170644,0.107395,-0.0483986,-0.349987
0.137463,0.194008,0.151103,0.382914,0.428587,0.15119,0.106645,0.0221848,-0.289613
0.150231,0.203772,0.154899,0.513241,0.89125,0.362984,0.0878658,0.0834066,-0.116162
0.168469,0.215767,0.162774,0.5378,1.04123,0.58678,0.079043,0.100602,0.0841077
0.184519,0.22848,0.174768,0.503202,0.758462,0.786757,0.063009,0.101345,0.238758
0.189972,0.240963,0.19029,0.438904,0.117042,0.91136,0.0522961,0.0860805,0.312586
0.181437,0.251706,0.206982,0.297644,-0.542532,0.849882,0.000947505,0.065981,0.308732
0.162894,0.257733,0.221551,0.0461867,-0.873044,0.639632,-0.0654786,0.0618804,0.234825
0.143462,0.257473,0.232583,-0.231512,-0.745519,0.413953,-0.0960363,0.101226,0.123972
0.130124,0.252032,0.239899,-0.376833,-0.371721,0.228426,-0.0928511,0.138884,0.0216982
0.125808,0.245183,0.245183,-0.344988,0.0498301,0.225257,-0.0395404,0.191174,-0.0228952
0.127849,0.240643,0.252167,-0.180469,0.282235,0.411679,0.0186134,0.246109,0.00834823
0.131063,0.240508,0.263294,0.0175385,0.275695,0.655603,0.042324,0.253973,0.0984008
0.131809,0.24409,0.277879,0.130819,0.142141,0.774565,-0.00372191,0.223317,0.202648
0.129502,0.24895,0.293201,0.140002,-0.00691778,0.750138,-0.0572426,0.170947,0.28294
0.12425,0.252879,0.307188,0.0751632,-0.167982,0.632621,-0.0705505,0.118997,0.334115
0.117263,0.254319,0.318317,-0.0796077,-0.249614,0.454584,-0.0672723,0.0839991,0.364417
0.109585,0.251156,0.326482,-0.332605,-0.310819,0.309796,-0.039986,0.052448,0.366899
0.101696,0.242721,0.332597,-0.555506,-0.335089,0.192993,-0.0229525,0.0290105,0.312596
0.093736,0.230959,0.336824,-0.639065,-0.356304,0.111831,0.0173765,0.00747581,0.203595
0.085746,0.218458,0.339754,-0.62573,-0.387916,0.0694899,0.057523,-0.0246087,0.103429
0.0769216,0.207094,0.341997,-0.523482,-0.460537,0.0629177,0.0960761,-0.0526075,0.00968957
0.065768,0.197277,0.344075,-0.48233,-0.626153,0.0690528,0.108421,-0.0582269,-0.040437
0.0524251,0.187911,0.345561,-0.475633,-0.647913,0.00393768,0.0773971,-0.0865996,-0.138002
0.0403281,0.177486,0.344548,-0.59112,-0.591297,-0.157022,0.0521589,-0.110065,-0.205749
0.030577,0.163515,0.340319,-0.781337,-0.419557,-0.294452,0.0645468,-0.142861,-0.291113
0.0269679,0.147054,0.334277,-0.82536,-0.024071,-0.332944,0.0880724,-0.148794,-0.40277
0.0299496,0.130986,0.328733,-0.75549,0.202327,-0.250268,0.0963947,-0.124089,-0.435418
0.0341665,0.116636,0.324814,-0.672403,0.109891,-0.201007,0.0841448,-0.147575,-0.409657
0.0338869,0.103782,0.32067,-0.60499,-0.180074,-0.27854,0.0653314,-0.197384,-0.390427
0.0302029,0.0922057,0.314044,-0.533154,-0.188537,-0.416073,0.0269521,-0.186306,-0.432269
0.0294079,0.082017,0.305533,-0.46552,0.0569534,-0.441819,0.0234905,-0.113174,-0.443139
0.0341983,0.0738056,0.298012,-0.299695,0.378428,-0.314566,0.0458422,-0.0363079,-0.433878
0.0453871,0.0711529,0.294197,0.0791635,0.685619,-0.0532712,0.0590371,0.0484029,-0.398745
0.0604353,0.0780732,0.296926,0.605996,0.818361,0.381133,0.0546079,0.136435,-0.284575
0.0746552,0.0959499,0.307908,1.09614,0.650727,0.81849,-0.0194485,0.192925,-0.104113
0.0819384,0.122935,0.324698,1.4379,0.230683,1.01696,-0.133948,0.183127,0.0419797
0.0791625,0.154398,0.341867,1.53836,-0.250784,0.894422,-0.254805,0.155693,0.13569
0.0696343,0.185269,0.354186,1.42536,-0.448387,0.517391,-0.336149,0.126609,0.186529
0.060288,0.211021,0.358091,1.09722,-0.372157,0.0291552,-0.350984,0.120545,0.233442
0.0565711,0.227948,0.353185,0.612637,-0.0858972,-0.392003,-0.301264,0.136303,0.272455
0.0607524,0.234908,0.341863,0.181205,0.227014,-0.638898,-0.231991,0.173915,0.277581
0.0701849,0.235445,0.327515,0.00705299,0.355428,-0.739321,-0.166749,0.209334,0.254151
0.0809518,0.234671,0.311942,0.0514184,0.351589,-0.775163,-0.113376,0.215479,0.23677
0.0913333,0.23536,0.295968,0.153173,0.308676,-0.762306,-0.077614,0.20852,0.257653
0.100257,0.237706,0.280664,0.216559,0.228032,-0.696631,-0.0438846,0.18483,0.300176
0.107795,0.240861,0.266544,0.238355,0.209956,-0.644391,-0.0297738,0.148466,0.333141
0.115726,0.244154,0.253312,0.228968,0.268974,-0.599501,-0.0319651,0.112081,0.366272
0.124008,0.24641,0.240963,0.117075,0.248402,-0.566651,-0.0232593,0.079709,0.420981
0.130358,0.245146,0.229781,-0.118931,0.101762,-0.526786,0.00915118,0.0328897,0.457492
0.130358,0.245146,0.229781,-0.118931,0.101762,-0.526786,0.00915118,0.0328897,0.457492
0.132708,0.238961,0.219903,-0.360382,-0.109933,-0.519946,0.0324522,-0.0323647,0.419539
0.13044,0.228811,0.210085,-0.501436,-0.329754,-0.569068,0.0335984,-0.078082,0.307841
0.124859,0.216723,0.199855,-0.574053,-0.461719,-0.564885,0.0558689,-0.0965385,0.169627
0.116167,0.204208,0.190789,-0.537607,-0.573151,-0.454953,0.107358,-0.118757,0.00461984
0.10638,0.194471,0.18385,-0.343318,-0.52116,-0.338795,0.120783,-0.125447,-0.171918
0.0990198,0.18886,0.178254,-0.184286,-0.312207,-0.274831,0.103705,-0.145696,-0.285166
0.0958517,0.184583,0.173391,-0.227119,-0.101217,-0.248302,0.100409,-0.190106,-0.327011
0.0966016,0.178229,0.168839,-0.364891,0.0842723,-0.266006,0.0780654,-0.218679,-0.364149
0.10138,0.169877,0.163847,-0.387142,0.339394,-0.314793,0.0576449,-0.24813,-0.440369
0.113106,0.162984,0.157407,-0.222423,0.692821,-0.385141,0.0410809,-0.245848,-0.496029
0.127572,0.15892,0.15033,-0.123734,0.569653,-0.334163,0.113848,-0.224026,-0.402446
0.136004,0.156008,0.145332,-0.098114,0.180869,-0.191524,0.167819,-0.216587,-0.352749
0.13653,0.15473,0.14284,0.0212797,-0.135475,-0.0819139,0.143718,-0.181824,-0.395485
0.132753,0.157228,0.141773,0.259696,-0.224335,0.0227268,0.0899872,-0.112797,-0.44261
0.129675,0.165811,0.142283,0.596291,-0.0120621,0.144374,0.069605,-0.0430628,-0.413948
0.133935,0.181262,0.144655,0.878551,0.492393,0.298509,0.0447085,0.0399052,-0.255447
0.147597,0.200372,0.149838,0.908748,0.955517,0.472314,0.027435,0.089598,-0.00337988
0.167539,0.218269,0.157928,0.717975,1.15567,0.584917,0.0060537,0.0884882,0.21561
0.186495,0.232234,0.168355,0.482912,0.901159,0.656121,-0.0040164,0.0719182,0.353421
0.195391,0.242247,0.180247,0.290267,0.22366,0.663104,-0.00439873,0.0584574,0.401502
0.188817,0.248675,0.192175,0.115764,-0.582995,0.592059,-0.00914775,0.0661577,0.381167
0.168707,0.250977,0.203209,-0.0792773,-1.07253,0.510341,-0.0228919,0.0967391,0.291115
0.14374,0.249022,0.213122,-0.256607,-1.13066,0.402925,-0.0411096,0.133862,0.171607
0.121796,0.243757,0.221008,-0.350999,-0.821702,0.296394,-0.0322865,0.147066,0.056694
0.108543,0.23749,0.227768,-0.332781,-0.36005,0.317383,0.0107541,0.184009,0.00206995
0.102479,0.232868,0.236831,-0.208772,-0.0765562,0.536554,0.0675301,0.223185,0.0220573
0.0984503,0.23197,0.250796,-0.0106522,-0.0403068,0.803315,0.0979297,0.217001,0.0815857
0.0925151,0.235346,0.268723,0.164547,-0.151845,0.945606,0.0812603,0.168955,0.159559
0.0834979,0.240926,0.28788,0.201264,-0.30482,0.948408,0.041124,0.112092,0.241675
0.0718296,0.245554,0.306263,0.107889,-0.417969,0.865795,0.0228533,0.049719,0.282489
0.0588793,0.247452,0.322364,-0.0184358,-0.478534,0.700784,0.0145719,-0.00851478,0.268931
0.0461122,0.246752,0.335094,-0.103325,-0.476947,0.53634,0.0148248,-0.0515054,0.207007
0.0342362,0.244807,0.344754,-0.121233,-0.500581,0.403001,0.0364932,-0.0881825,0.135021
0.0213742,0.242903,0.352183,-0.0863907,-0.614597,0.322729,0.0774757,-0.119709,0.0665984
0.00645309,0.241964,0.358227,-0.0107584,-0.732161,0.259531,0.0978609,-0.151504,-0.0205296
-0.00954941,0.242602,0.362516,0.0679941,-0.758581,0.145348,0.0814895,-0.165609,-0.100495
-0.0247807,0.244199,0.363696,0.0804266,-0.724915,-0.0466871,0.0266981,-0.171169,-0.168211
-0.0376234,0.245339,0.360386,0.0164477,-0.653009,-0.282218,-0.0076708,-0.163304,-0.209312
-0.048887,0.245016,0.352726,-0.0815712,-0.674408,-0.441476,0.0011281,-0.122052,-0.232838
-0.0594389,0.243224,0.343075,-0.136069,-0.579965,-0.469734,0.0317155,-0.0874749,-0.288685
-0.0649901,0.241515,0.333958,-0.0858898,-0.157459,-0.393963,0.0286967,-0.0447164,-0.343237
-0.0624332,0.239982,0.326819,-0.139739,0.182368,-0.290415,-0.00957052,-0.0161448,-0.298708
-0.0568166,0.235961,0.320918,-0.299075,0.201861,-0.288446,-0.0221953,-0.0754273,-0.238675
-0.0528318,0.228604,0.312603,-0.480954,-0.018574,-0.509596,-0.0527689,-0.125403,-0.229722
-0.0523536,0.218596,0.298892,-0.566433,-0.206118,-0.759976,-0.0703755,-0.112273,-0.29224
-0.0530826,0.209026,0.281636,-0.449326,-0.20379,-0.856973,-0.0572128,-0.0177276,-0.358731
-0.0514703,0.203503,0.264409,-0.180205,0.0417873,-0.774078,-0.0416551,0.0955033,-0.350546
-0.0437602,0.203482,0.251089,0.111131,0.478715,-0.498679,-0.0349304,0.198388,-0.250573
-0.0297033,0.208333,0.245349,0.348209,0.758181,-0.0758382,-0.0484121,0.258953,-0.0762843
-0.0155749,0.217566,0.247583,0.582264,0.630715,0.267049,-0.115469,0.274219,0.0631298
-0.00860553,0.231276,0.256086,0.799011,0.264325,0.516568,-0.165665,0.22983,0.140911
-0.00861059,0.249066,0.266785,0.985,0.0084742,0.457279,-0.229082,0.186776,0.169501
-0.0124239,0.269058,0.273239,0.978165,-0.213588,0.127998,-0.263994,0.160339,0.202473
-0.0124239,0.269058,0.273239,0.978165,-0.213588,0.127998,-0.263994,0.160339,0.202473
-0.0167305,0.286393,0.273056,0.732678,-0.172129,-0.154877,-0.216938,0.123604,0.264768
-0.0162691,0.297417,0.267734,0.354886,0.0632543,-0.372103,-0.187434,0.125174,0.307182
-0.0103315,0.300708,0.258308,-0.0202595,0.229532,-0.519107,-0.140157,0.139931,0.334867
-0.00182835,0.297867,0.24679,-0.23932,0.267648,-0.575845,-0.0843575,0.126185,0.316513
0.00754131,0.292129,0.234187,-0.316729,0.32638,-0.639034,-0.0531354,0.106641,0.27801
0.0187322,0.285181,0.220423,-0.357636,0.392368,-0.684152,-0.0406796,0.0872695,0.262787
0.0300529,0.277718,0.206773,-0.346292,0.344119,-0.637289,-0.00845021,0.069236,0.25756
0.038517,0.271241,0.19487,-0.248765,0.170223,-0.535652,0.00747137,0.0596906,0.243288
0.0429011,0.267389,0.184794,-0.0939756,0.0191499,-0.467258,0.0153226,0.0282216,0.208755
0.0457141,0.266317,0.175339,0.0102169,0.0336465,-0.457665,0.016414,-0.00303978,0.181451
0.0492592,0.265928,0.166086,-0.0258121,0.0803293,-0.432484,0.0331037,-0.0267922,0.18046
0.0536964,0.264069,0.157829,-0.119922,0.149113,-0.36829,0.0588924,-0.0529547,0.157686
0.0586327,0.260904,0.151462,-0.146214,0.169817,-0.252961,0.0741366,-0.0730398,0.113957
0.0625735,0.258563,0.148064,-0.0579646,0.116688,-0.0826507,0.099565,-0.0850987,0.0637587
0.0633123,0.258539,0.148323,0.0461305,-0.0484063,0.104134,0.117147,-0.107231,0.00887972
0.0591803,0.259809,0.151596,0.0484142,-0.272344,0.199664,0.087752,-0.136537,-0.0521289
0.0522907,0.260472,0.155208,-0.0140996,-0.292939,0.129496,0.00590798,-0.173295,-0.141543
0.047343,0.259018,0.156173,-0.15202,-0.156642,-0.0546684,-0.0514991,-0.200625,-0.216921
0.0480172,0.25418,0.153076,-0.315604,0.17854,-0.261311,-0.0465481,-0.207807,-0.268582
0.0562402,0.246341,0.146754,-0.43108,0.428844,-0.368027,-0.00986641,-0.173394,-0.280883
0.0659825,0.236525,0.140001,-0.511936,0.3397,-0.33769,0.0651431,-0.134327,-0.265126
0.0695275,0.224735,0.134386,-0.640382,-0.186508,-0.294373,0.121988,-0.131294,-0.275427
0.0604959,0.210787,0.129495,-0.694748,-0.768827,-0.282457,0.119209,-0.100326,-0.352017
0.0444667,0.198013,0.124488,-0.518618,-0.855745,-0.273145,0.0750994,-0.0173445,-0.456697
0.0331125,0.191003,0.12019,-0.147761,-0.263018,-0.147224,0.0919921,0.0696194,-0.474473
0.0372265,0.191541,0.120105,0.173556,0.6738,0.172036,0.115059,0.16199,-0.312883
0.0574937,0.197404,0.128273,0.357725,1.46271,0.66257,0.142613,0.185855,-0.0395195
0.0856675,0.206456,0.145273,0.40597,1.58754,1.04256,0.11114,0.181616,0.183121
0.108777,0.216561,0.167313,0.384311,1.12818,1.18522,0.0779177,0.125502,0.307952
0.118591,0.226652,0.190992,0.347091,0.349526,1.20807,0.0637437,0.0467988,0.35259
0.112162,0.234951,0.213273,0.197905,-0.468093,1.0177,0.0164382,0.0130836,0.344787
0.0930329,0.237857,0.230791,-0.107163,-0.941308,0.711269,-0.0431335,-0.00115071,0.28086
0.0716276,0.232766,0.242892,-0.503451,-0.869819,0.441901,-0.0759077,0.0307188,0.172823
0.0553428,0.219775,0.250867,-0.8128,-0.560178,0.27534,-0.051207,0.0656208,0.0635331
0.0470592,0.20311,0.257018,-0.836409,-0.142422,0.272391,0.00931463,0.0948744,-0.0436588
0.0466352,0.189101,0.264856,-0.562149,0.239834,0.463147,0.068379,0.138599,-0.09264
0.0514531,0.182567,0.27771,-0.149735,0.442359,0.771617,0.0966564,0.160619,-0.0388861
0.0575406,0.184177,0.29579,0.188307,0.468464,0.986944,0.0753913,0.121171,0.0765989
0.062256,0.190606,0.316178,0.30249,0.373502,1.03649,0.0295177,0.0675665,0.191093
0.064891,0.197411,0.336461,0.229471,0.295504,0.984636,0.00282019,0.0147195,0.278929
0.0663397,0.201221,0.354939,0.0219692,0.212548,0.844264,-0.0300109,-0.032831,0.321098
0.0663731,0.200319,0.370507,-0.217002,0.0727365,0.683762,-0.0309863,-0.0768817,0.329011
0.061992,0.19491,0.383477,-0.373478,-0.276956,0.562302,-0.00627482,-0.11548,0.276056
0.0516124,0.188526,0.394278,-0.305469,-0.521658,0.462563,0.0159597,-0.128873,0.152864
0.0386148,0.183779,0.403135,-0.21535,-0.590113,0.396862,0.0129788,-0.105202,0.0614982
0.0262924,0.180552,0.411207,-0.138003,-0.479658,0.381831,0.0343034,-0.113747,-0.0304045
0.0168862,0.178262,0.418184,-0.120913,-0.337727,0.288876,-0.0128947,-0.104831,-0.0801806
0.0104968,0.175259,0.422434,-0.211991,-0.254687,0.114676,-0.05274,-0.1156,-0.103492
0.00489193,0.168934,0.422844,-0.425678,-0.308359,-0.0694792,-0.0249181,-0.135762,-0.133174
0.000227764,0.158904,0.420213,-0.561435,-0.136214,-0.18386,0.00702301,-0.131544,-0.243495
0.00117901,0.146714,0.415733,-0.674932,0.135587,-0.248447,-0.00597288,-0.0935578,-0.303133
0.00554639,0.132025,0.410666,-0.780479,0.184208,-0.260905,-0.0128681,-0.0724293,-0.309865
0.00686398,0.116261,0.40481,-0.788538,-0.187379,-0.343969,-0.0115631,-0.0634291,-0.309524
-0.000603182,0.100646,0.396943,-0.78278,-0.591582,-0.445841,-0.00556444,-0.0320009,-0.360285
-0.000603182,0.100646,0.396943,-0.78278,-0.591582,-0.445841,-0.00556444,-0.0320009,-0.360285
-0.010871,0.0852546,0.387432,-0.759624,-0.436764,-0.477488,0.00278994,0.0148692,-0.45323
-0.0130267,0.0714361,0.378499,-0.617057,0.195242,-0.37255,-0.000465115,0.0933937,-0.493663
-0.00232653,0.062221,0.373326,-0.272235,0.794733,-0.11655,0.0119656,0.148286,-0.455017
0.0158969,0.0619725,0.374077,0.252367,0.953559,0.194307,-0.0309414,0.192105,-0.328645
0.0313276,0.0720384,0.379865,0.719837,0.562144,0.37692,-0.134467,0.20105,-0.157456
0.0361066,0.0897978,0.386578,0.999446,-0.0158979,0.309275,-0.23386,0.156175,-0.03898
0.031825,0.110519,0.38906,1.03715,-0.333979,-0.0182972,-0.309869,0.112262,0.035037
0.0259018,0.12996,0.38409,0.910563,-0.272844,-0.410284,-0.32193,0.122255,0.092324
0.0248041,0.145686,0.372672,0.682718,0.0286929,-0.660541,-0.265368,0.167617,0.152783
0.0315175,0.156365,0.357718,0.434884,0.415455,-0.779911,-0.194412,0.194547,0.210591
0.0448031,0.162586,0.341132,0.270672,0.602501,-0.834052,-0.150414,0.200918,0.27081
0.0594804,0.166403,0.323581,0.211071,0.553044,-0.881944,-0.105499,0.178697,0.311652
0.072129,0.169088,0.305049,0.176129,0.386622,-0.925816,-0.067163,0.155558,0.345694
0.0806566,0.170966,0.286336,0.165313,0.163925,-0.8853,-0.01456,0.134627,0.355722
0.0859065,0.173479,0.269426,0.224059,0.0976608,-0.763094,0.00397266,0.127261,0.342732
0.0908293,0.177076,0.254304,0.263735,0.152941,-0.703702,-0.00534751,0.0969134,0.338933
0.0967586,0.180765,0.240054,0.227028,0.158596,-0.66265,0.0110455,0.0472897,0.361643
0.101072,0.183222,0.226594,0.148391,0.0348704,-0.639261,0.0239734,0.000283062,0.356799
0.102798,0.184019,0.213399,0.0617481,-0.110822,-0.652461,0.0387942,-0.0448624,0.325934
0.101591,0.183142,0.199875,-0.00134931,-0.230601,-0.677863,0.0798599,-0.0844511,0.250225
0.0996393,0.181403,0.186414,-0.0482025,-0.210484,-0.650932,0.106397,-0.0939126,0.171157
0.0975731,0.178216,0.174524,-0.165235,-0.209675,-0.533757,0.143642,-0.0932038,0.116337
0.0950792,0.173005,0.165608,-0.260523,-0.196246,-0.402562,0.156664,-0.117377,0.026216
0.0917243,0.166476,0.158346,-0.320126,-0.270463,-0.391479,0.129733,-0.160922,-0.0731312
0.087812,0.159102,0.150245,-0.349482,-0.22317,-0.484524,0.11072,-0.212525,-0.184006
0.0862757,0.1506,0.13994,-0.413265,-0.0657555,-0.601455,0.103726,-0.226694,-0.276242
0.0897535,0.140558,0.127892,-0.480587,0.264999,-0.670017,0.111111,-0.224452,-0.360481
0.101561,0.129535,0.11516,-0.498417,0.752275,-0.681815,0.130649,-0.213586,-0.404967
0.120291,0.117619,0.103254,-0.578759,0.871881,-0.61355,0.178069,-0.19329,-0.352892
0.135011,0.103639,0.0938018,-0.681254,0.452167,-0.507188,0.248872,-0.21689,-0.328077
0.139561,0.0891785,0.0864116,-0.617219,-0.0625769,-0.423279,0.249689,-0.191549,-0.413759
0.13662,0.0784826,0.0805328,-0.340388,-0.196317,-0.306035,0.214169,-0.107069,-0.513756
0.136397,0.0747816,0.0765613,0.0316339,0.218323,-0.109571,0.182703,-0.0205336,-0.518496
0.14772,0.0792716,0.077393,0.3861,0.933443,0.281346,0.184288,0.070613,-0.37534
0.170615,0.0907396,0.0858165,0.598091,1.35898,0.724986,0.172845,0.114022,-0.126102
0.196388,0.106864,0.101114,0.69726,1.30133,1.05355,0.12526,0.102755,0.106393
0.215731,0.125635,0.121209,0.722838,0.82307,1.27414,0.0817544,0.0835869,0.260503
0.222448,0.145147,0.144144,0.674953,0.147408,1.35576,0.0467926,0.0660552,0.338914
0.215099,0.162743,0.167875,0.512093,-0.491945,1.30676,0.00026767,0.0610123,0.357693
0.197316,0.175118,0.191048,0.222733,-0.840082,1.19472,-0.0527354,0.0796041,0.321449
0.175613,0.181287,0.213631,-0.00559334,-0.889853,1.11279,-0.0789536,0.114927,0.222177
0.155267,0.183482,0.235056,-0.10675,-0.747992,1.01439,-0.0790806,0.137822,0.134503
0.139304,0.184078,0.255099,-0.107025,-0.463583,0.960089,-0.0634639,0.14944,0.0722148
0.129786,0.185332,0.27471,-0.013441,-0.141889,0.983007,-0.053246,0.167976,0.0492854
0.125224,0.189203,0.295009,0.14941,0.0214819,1.05039,-0.0376154,0.177441,0.0828929
0.121357,0.196338,0.316062,0.292911,-0.0270832,1.08433,-0.0262198,0.158671,0.162524
0.115546,0.20522,0.336947,0.327774,-0.13255,1.05378,-0.0377055,0.138459,0.241272
0.107989,0.213219,0.35686,0.234254,-0.207428,0.967485,-0.0373759,0.105574,0.2982
0.0997719,0.218262,0.374821,0.0798699,-0.222657,0.828269,-0.0448446,0.0734059,0.316879
0.0919568,0.219274,0.389827,-0.130482,-0.246009,0.642186,-0.0485824,0.0394353,0.307106
0.0837714,0.215528,0.401461,-0.331352,-0.327379,0.457528,-0.0345727,0.00384106,0.260837
0.0745803,0.208511,0.409512,-0.408313,-0.425411,0.280164,-0.00722348,-0.0272959,0.153706
0.0637688,0.20097,0.414626,-0.36465,-0.549386,0.187238,0.0454518,-0.0327259,0.0341868
0.05193,0.195148,0.418492,-0.23319,-0.527863,0.158326,0.056653,-0.0152707,-0.0829561
0.05193,0.195148,0.418492,-0.23319,-0.527863,0.158326,0.056653,-0.0152707,-0.0829561
0.0424153,0.191687,0.421186,-0.139548,-0.366873,0.0758066,0.0531769,-0.0311036,-0.159473
0.0371528,0.188785,0.421537,-0.179955,-0.155175,-0.0489738,0.0457605,-0.0379964,-0.18765
0.0359641,0.183421,0.419972,-0.361611,-0.0137698,-0.110267,0.0503707,-0.0273986,-0.186997
0.0370337,0.174621,0.417887,-0.492217,0.0950122,-0.131012,0.0587679,-0.0469684,-0.24124
0.040163,0.16415,0.414919,-0.553903,0.118361,-0.216282,0.0178674,-0.0600209,-0.300676
0.0418371,0.151692,0.409298,-0.685564,-0.0605409,-0.404756,-0.0196008,-0.0764743,-0.326862
0.0402003,0.135996,0.399378,-0.83847,-0.22632,-0.646092,-0.00344143,-0.0996682,-0.387918
0.0377959,0.118011,0.385396,-0.878118,-0.149276,-0.778493,0.0266848,-0.069244,-0.493535
0.0386182,0.101413,0.371201,-0.693952,0.0908775,-0.6562,0.0786857,0.00767225,-0.560872
0.0443322,0.0906953,0.361539,-0.325835,0.406171,-0.332294,0.101281,0.0940498,-0.560112
0.05656,0.0883301,0.358906,0.106404,0.794096,0.0641446,0.0606644,0.151325,-0.483549
0.0744427,0.0954239,0.36388,0.568496,1.00079,0.470853,-0.00288384,0.181217,-0.319486
0.0926453,0.112123,0.375182,0.991066,0.896475,0.780721,-0.109541,0.201396,-0.127103
0.105453,0.136938,0.39064,1.31603,0.561835,0.969886,-0.225717,0.203725,0.0360085
0.110997,0.167417,0.406789,1.52745,0.252104,0.911733,-0.371091,0.209452,0.155167
0.111752,0.199968,0.419056,1.54692,0.0712775,0.625014,-0.459746,0.196044,0.258093
0.111611,0.229483,0.4242,1.30039,0.0467693,0.191142,-0.475754,0.166287,0.361143
0.11417,0.250586,0.420521,0.820295,0.127988,-0.314542,-0.439313,0.133531,0.44476
0.120735,0.260025,0.407762,0.271925,0.200253,-0.789679,-0.37625,0.120233,0.485609
0.12946,0.258186,0.387707,-0.182881,0.117172,-1.13967,-0.295108,0.123949,0.484399
0.135258,0.248595,0.363332,-0.411036,-0.146708,-1.30335,-0.184182,0.133799,0.4099
0.136376,0.236623,0.337875,-0.408536,-0.323737,-1.29899,-0.096719,0.15947,0.313069
0.135525,0.226165,0.313521,-0.30783,-0.296784,-1.18835,-0.0366227,0.169692,0.253943
0.135458,0.217952,0.291694,-0.225731,-0.179943,-1.04179,0.0108352,0.132673,0.232291
0.137119,0.210966,0.272595,-0.229052,-0.073049,-0.922146,0.027367,0.079308,0.239907
0.139946,0.203252,0.255352,-0.312946,-0.0221821,-0.865888,0.0380033,0.0161249,0.252662
0.141917,0.193731,0.239297,-0.391022,-0.0949199,-0.832572,0.0527024,-0.0362382,0.221443
0.142604,0.183804,0.224128,-0.373634,-0.12469,-0.787314,0.0606055,-0.0620569,0.150742
0.142548,0.174921,0.210057,-0.306151,-0.105988,-0.704782,0.0945838,-0.0846213,0.0848597
0.143924,0.16772,0.197842,-0.240645,0.0538404,-0.590497,0.124851,-0.104336,0.0208635
0.148391,0.161975,0.188069,-0.187389,0.216391,-0.438709,0.145379,-0.121416,-0.0155887
0.154244,0.157752,0.181513,-0.145094,0.227725,-0.276727,0.151345,-0.14086,-0.0331749
0.157569,0.153749,0.177328,-0.195884,0.0138832,-0.204531,0.129235,-0.178475,-0.0556087
0.155558,0.148872,0.174031,-0.232276,-0.269439,-0.209197,0.0958819,-0.209801,-0.13137
0.148112,0.143117,0.169717,-0.278173,-0.50356,-0.321544,0.0658209,-0.226069,-0.233875
0.140534,0.135864,0.162108,-0.339177,-0.277824,-0.549118,0.0406322,-0.249961,-0.369447
0.140383,0.126202,0.150113,-0.465519,0.0707031,-0.739431,0.0627282,-0.223147,-0.423138
0.14439,0.113784,0.136941,-0.557543,0.135394,-0.698914,0.157945,-0.167513,-0.438161
0.147506,0.101796,0.12636,-0.448404,0.0495298,-0.510623,0.209884,-0.115726,-0.490818
0.148999,0.0945059,0.11916,-0.15125,0.0760068,-0.314559,0.182933,-0.0704756,-0.53922
0.153444,0.0939388,0.114461,0.15535,0.343695,-0.158117,0.131828,-0.0380354,-0.504449
0.163526,0.0987948,0.11213,0.34365,0.639962,0.00528604,0.108518,-0.0101307,-0.363916
0.179001,0.107116,0.112568,0.465911,0.910101,0.180142,0.0928562,0.0100945,-0.185329
0.198689,0.11807,0.116165,0.535322,1.0829,0.386273,0.0706983,0.0413039,-0.006037
0.219444,0.130892,0.12383,0.557212,1.054,0.631116,0.0536145,0.0566508,0.143603
0.23618,0.1449,0.135909,0.538623,0.754938,0.838416,0.0321035,0.0542446,0.24356
0.244433,0.159112,0.150695,0.489745,0.281574,0.905215,0.00783104,0.0420623,0.292903
0.24232,0.171872,0.166239,0.358205,-0.247776,0.891674,-0.0102847,0.0388092,0.316268
0.229748,0.180318,0.182133,0.0699964,-0.698202,0.823103,-0.0391183,0.046209,0.312185
0.211027,0.181653,0.197638,-0.257116,-0.852797,0.692349,-0.0693752,0.0486361,0.221066
0.192283,0.176839,0.211057,-0.460508,-0.769523,0.513834,-0.0690408,0.0614781,0.0948178
0.177176,0.169251,0.221975,-0.453341,-0.534203,0.438931,-0.0232807,0.0953539,-0.0110582
0.168005,0.16363,0.232986,-0.267015,-0.199911,0.573917,0.0398973,0.145033,-0.0494812
0.164634,0.163373,0.247665,0.00509973,0.0721592,0.869003,0.0701787,0.193271,0.0065459
0.164634,0.163373,0.247665,0.00509973,0.0721592,0.869003,0.0701787,0.193271,0.0065459
0.163469,0.169295,0.267451,0.248834,0.103649,1.1359,0.0643776,0.173782,0.122511
0.16042,0.179443,0.290236,0.371816,-0.021183,1.22505,0.0150886,0.116058,0.235531
0.154313,0.190427,0.313262,0.339236,-0.160099,1.17232,-0.0232374,0.0603875,0.318049
0.146204,0.199075,0.334304,0.18817,-0.23582,0.987102,-0.0615531,0.0178312,0.358891
0.137544,0.202953,0.351297,-0.0462221,-0.294296,0.718108,-0.0738105,-0.0263886,0.362864
0.128213,0.201261,0.363368,-0.265347,-0.408893,0.440085,-0.0500855,-0.0531621,0.325044
0.117427,0.195684,0.370948,-0.358924,-0.500723,0.245841,-0.00408112,-0.047063,0.233788
0.107044,0.189079,0.375803,-0.338049,-0.426959,0.16903,0.0519095,-0.027591,0.13009
0.0991398,0.183792,0.379924,-0.226545,-0.294399,0.178936,0.0996194,-0.0167501,0.0469185
0.0927221,0.180437,0.384067,-0.171895,-0.301181,0.190534,0.121087,-0.0174857,0.0218827
0.0849198,0.17664,0.38785,-0.258671,-0.413502,0.130939,0.112745,-0.0496957,2.68817e-05
0.0754246,0.170199,0.389578,-0.406677,-0.50964,-0.022617,0.0951998,-0.0786226,-0.0631036
0.0650031,0.160368,0.388168,-0.564145,-0.520363,-0.175467,0.0869687,-0.0819418,-0.168313
0.0573528,0.147729,0.384456,-0.672809,-0.270488,-0.261842,0.0915269,-0.0930273,-0.290076
0.0554426,0.133086,0.37916,-0.766843,-0.0331995,-0.348333,0.05706,-0.0765198,-0.353856
0.0567907,0.116705,0.372149,-0.831981,0.0624798,-0.448531,0.0463176,-0.0829768,-0.381466
0.0586671,0.0991023,0.362987,-0.875801,0.0134534,-0.558041,0.0552559,-0.0903911,-0.391018
0.0603192,0.081447,0.352327,-0.806649,0.0841433,-0.589079,0.0667025,-0.0756714,-0.43718
0.0644276,0.0667313,0.342342,-0.5899,0.246975,-0.473928,0.0750425,-0.00916979,-0.454903
0.0707986,0.0569836,0.335881,-0.345058,0.350883,-0.22407,0.0618369,0.0696632,-0.413716
0.0790941,0.0524152,0.334505,-0.105327,0.46592,0.049381,0.00404367,0.123665,-0.351923
0.0887039,0.0533152,0.337925,0.181056,0.509058,0.286232,-0.0669315,0.154852,-0.28263
0.0977742,0.0610391,0.344559,0.529624,0.401523,0.434551,-0.162393,0.179486,-0.194999
0.102946,0.0753287,0.352674,0.793449,0.169103,0.502274,-0.259578,0.205018,-0.0822576
0.104354,0.0933289,0.360148,0.899954,0.0569135,0.396903,-0.359891,0.204674,0.0198033
0.104916,0.111662,0.363666,0.877967,0.0486755,0.127219,-0.405845,0.180079,0.112362
0.106842,0.127835,0.36116,0.74267,0.119569,-0.210678,-0.385035,0.147796,0.200861
0.111601,0.139229,0.352162,0.478509,0.24397,-0.543336,-0.334337,0.132386,0.283098
0.119401,0.14408,0.337982,0.175826,0.324997,-0.777309,-0.257608,0.129955,0.341891
0.12832,0.143384,0.321115,-0.00804177,0.306739,-0.873442,-0.171897,0.130091,0.352847
0.13609,0.140824,0.303651,0.0132235,0.240771,-0.868454,-0.102284,0.132516,0.320668
0.142949,0.139854,0.286806,0.120029,0.206013,-0.794041,-0.0607652,0.129022,0.317111
0.148145,0.140851,0.271691,0.19578,0.111962,-0.672824,-0.0250023,0.0995993,0.342426
0.151144,0.143124,0.258867,0.209819,-0.00807727,-0.560932,-0.00318597,0.0602227,0.379859
0.150931,0.145067,0.247845,0.141959,-0.180572,-0.4956,0.0100338,0.021191,0.391516
0.146981,0.145388,0.2382,0.0284502,-0.350206,-0.450028,0.0202232,-0.0165011,0.366705
0.140164,0.143431,0.229514,-0.0899224,-0.434597,-0.438499,0.0117539,-0.0443469,0.293654
0.133091,0.139648,0.22089,-0.16319,-0.389055,-0.465134,0.00732671,-0.079022,0.198137
0.127425,0.13499,0.211737,-0.162771,-0.290547,-0.494514,0.00816998,-0.0979334,0.092778
0.124558,0.13131,0.202191,-0.0825557,-0.136057,-0.48574,0.0247821,-0.105594,0.00183803
0.123244,0.128804,0.193316,-0.0736925,-0.124608,-0.411235,0.0553324,-0.0994271,-0.0213141
0.120667,0.125604,0.186145,-0.171867,-0.243626,-0.345932,0.0652971,-0.12462,-0.0404062
0.115446,0.120054,0.179567,-0.303219,-0.337894,-0.386527,0.044224,-0.161439,-0.122403
0.109509,0.11168,0.171592,-0.44976,-0.346237,-0.501839,0.00377154,-0.177385,-0.234351
0.104498,0.100138,0.16135,-0.57407,-0.226278,-0.637822,0.0103654,-0.199316,-0.365647
0.103573,0.0869772,0.148559,-0.593823,0.00905853,-0.755407,0.0281985,-0.191972,-0.470468
0.106197,0.073911,0.134728,-0.555675,0.122749,-0.727439,0.105367,-0.167016,-0.522142
0.108739,0.0622509,0.122796,-0.481494,-0.00983319,-0.572976,0.174355,-0.138076,-0.538807
0.105377,0.0527807,0.11435,-0.350784,-0.35356,-0.371723,0.198965,-0.104989,-0.563389
0.0981318,0.048007,0.108965,-0.0527731,-0.334329,-0.227699,0.13334,-0.0565191,-0.60369
0.095031,0.0503607,0.105616,0.335984,0.0535525,-0.0690368,0.0897263,-0.00138803,-0.554694
0.101735,0.0613095,0.105529,0.739577,0.612256,0.170109,0.103878,0.0416482,-0.367757
0.118259,0.0791396,0.109305,0.957021,1.05493,0.403829,0.0952912,0.0797587,-0.0802066
0.141348,0.0992809,0.117081,0.909088,1.28546,0.623421,0.0700209,0.096127,0.193892
0.141348,0.0992809,0.117081,0.909088,1.28546,0.623421,0.0700209,0.096127,0.193892
0.164573,0.117454,0.128911,0.699706,1.09803,0.809298,0.0591914,0.0820739,0.388337
0.179398,0.132288,0.144145,0.519954,0.541644,0.923753,0.0547651,0.0517938,0.469098
0.180289,0.144375,0.161015,0.371014,-0.242675,0.930356,0.0351522,0.0445392,0.472061
0.165646,0.153281,0.177947,0.202046,-0.929626,0.869463,0.0163655,0.0426505,0.406145
0.140874,0.157529,0.194076,-0.0260225,-1.23698,0.777836,-0.0107552,0.0699798,0.273901
0.114718,0.156853,0.208787,-0.213522,-1.11257,0.659754,-0.00925616,0.0785893,0.128967
0.0938563,0.152761,0.221526,-0.312379,-0.755813,0.571119,0.0199064,0.095923,0.0158651
0.0810106,0.147557,0.233863,-0.285771,-0.365322,0.629734,0.0870716,0.113178,-0.0480005
0.0744356,0.144903,0.248959,-0.0708629,-0.11145,0.865325,0.140264,0.145999,-0.0600341
0.0699014,0.147987,0.268928,0.242273,-0.0851156,1.12323,0.154704,0.143754,-0.00586861
0.0635948,0.157048,0.2924,0.492129,-0.195374,1.22971,0.110128,0.0950013,0.0824223
0.0548743,0.169487,0.316199,0.583845,-0.2808,1.17276,0.0506449,0.0424401,0.166424
0.0458825,0.181634,0.33778,0.503712,-0.228649,1.01285,0.0122154,-0.000516042,0.231493
0.0388104,0.190822,0.356206,0.340031,-0.141307,0.84606,-0.00236025,-0.0201727,0.269134
0.0332746,0.196731,0.371769,0.200928,-0.140851,0.707159,-0.00513038,-0.0345316,0.271489
0.0273075,0.200371,0.384578,0.138971,-0.207311,0.55894,0.000189155,-0.0644255,0.236387
0.0197072,0.203441,0.394439,0.163795,-0.375268,0.418681,0.00952429,-0.0852671,0.185486
0.00869277,0.207765,0.402081,0.260472,-0.573569,0.348464,0.048852,-0.0856269,0.128741
-0.00577825,0.213516,0.40912,0.285156,-0.724896,0.339034,0.0719006,-0.0694289,0.0800283
-0.0228319,0.217836,0.415539,0.140578,-0.8302,0.267368,0.039487,-0.0739675,0.0206838
-0.040606,0.219005,0.419188,-0.00139582,-0.888211,0.0700664,-0.00906565,-0.108426,-0.0990007
-0.0590095,0.218238,0.417973,-0.0785894,-0.946148,-0.180927,-0.0151623,-0.10748,-0.224104
-0.0740988,0.216028,0.411998,-0.200079,-0.656799,-0.373843,-0.0132763,-0.0881082,-0.342162
-0.0805181,0.210884,0.402586,-0.394492,-0.157747,-0.499403,-0.0252478,-0.0509904,-0.417503
-0.0762157,0.201993,0.390676,-0.574936,0.289323,-0.592313,-0.0630404,-0.0104831,-0.460935
-0.0658706,0.191224,0.377095,-0.554609,0.444294,-0.655302,-0.0592782,-0.011722,-0.498186
-0.05344,0.183535,0.363043,-0.265566,0.578054,-0.677297,-0.0331302,-0.0117536,-0.543437
-0.0371513,0.182482,0.349876,0.0975397,0.837188,-0.586054,-0.0117375,0.0428443,-0.489191
-0.0204189,0.186415,0.340476,0.192511,0.472977,-0.319347,0.0380386,0.0883525,-0.242597
-0.0115808,0.191189,0.337461,0.307051,0.471157,-0.0159243,0.00210747,0.124947,-0.210136
-0.00135407,0.199503,0.338464,0.549613,0.576809,0.0863832,-0.136154,0.174332,-0.1949
0.0104932,0.213577,0.340309,0.844145,0.603998,0.0970979,-0.221314,0.178555,-0.104592
0.0195325,0.231301,0.341831,0.880094,0.297546,0.0769217,-0.289626,0.195415,0.088555
0.0216282,0.24706,0.342537,0.689766,-0.0580904,0.0190207,-0.314015,0.204332,0.225756
0.0184391,0.258792,0.34121,0.500749,-0.267023,-0.145657,-0.343447,0.194206,0.260267
0.0147976,0.267173,0.334985,0.357693,-0.235483,-0.454863,-0.34583,0.16818,0.245193
0.0142688,0.272662,0.322505,0.205618,-0.163155,-0.726098,-0.284173,0.159966,0.251915
0.0158614,0.275172,0.30571,0.0790801,-0.134857,-0.868916,-0.201528,0.179427,0.259651
0.0184028,0.275571,0.287452,-0.00399917,-0.119295,-0.879253,-0.127723,0.21248,0.269785
0.0209608,0.274818,0.269786,-0.028257,-0.0927613,-0.820639,-0.0698096,0.213845,0.267103
0.024059,0.273863,0.253647,-0.0265211,-0.0494544,-0.736893,-0.0293553,0.194845,0.278998
0.0270163,0.27326,0.239364,0.00824846,-0.0214878,-0.646696,-0.0107672,0.163808,0.291448
0.0301031,0.273254,0.226724,0.0185976,-0.0283861,-0.578759,-0.00494924,0.132873,0.324354
0.0313535,0.272594,0.215145,-0.0590896,-0.158941,-0.550047,-0.00869119,0.0965312,0.353029
0.03075,0.270226,0.203561,-0.149826,-0.195199,-0.583068,-0.024121,0.0518913,0.329191
0.0299798,0.265446,0.191011,-0.303099,-0.226088,-0.645887,-0.0427346,0.0293381,0.31261
0.0283328,0.257471,0.177284,-0.440227,-0.281706,-0.701509,-0.0199641,-0.0170009,0.252232
0.0270838,0.248086,0.162991,-0.454193,-0.190411,-0.704852,0.000115789,-0.041347,0.150166
0.0268613,0.238592,0.149238,-0.463363,-0.192036,-0.647043,0.0218764,-0.0504387,0.0903854
0.024273,0.229245,0.137546,-0.426592,-0.342216,-0.515456,0.078873,-0.0894541,0.0138957
0.0187335,0.221539,0.128359,-0.333235,-0.407496,-0.404313,0.0783135,-0.115077,-0.0763228
0.012247,0.214988,0.121001,-0.334957,-0.390987,-0.329761,0.064375,-0.138792,-0.127174
0.00661829,0.207474,0.114622,-0.424229,-0.286448,-0.316431,0.0481197,-0.173497,-0.184858
0.00661829,0.207474,0.114622,-0.424229,-0.286448,-0.316431,0.0481197,-0.173497,-0.184858
0.00422137,0.197762,0.107607,-0.548109,-0.0887771,-0.393735,0.0127829,-0.215955,-0.244537
0.00648209,0.18576,0.0983307,-0.637905,0.154289,-0.532489,0.0222092,-0.267852,-0.291776
0.0154414,0.173274,0.086295,-0.57977,0.547831,-0.656331,0.0639836,-0.280351,-0.331559
0.0308934,0.162219,0.0731306,-0.523577,0.710281,-0.647656,0.143177,-0.24932,-0.26366
0.0450678,0.150695,0.0618393,-0.61043,0.483769,-0.508935,0.224638,-0.25292,-0.190636
0.0511346,0.137146,0.0535476,-0.687959,-0.00502677,-0.377811,0.27438,-0.276034,-0.222446
0.0472573,0.124252,0.048181,-0.528909,-0.407889,-0.208495,0.283721,-0.234802,-0.356779
0.0403186,0.117568,0.0462598,-0.107377,-0.22959,-0.0151226,0.253641,-0.167066,-0.476399
0.0420365,0.120229,0.0481676,0.34652,0.473123,0.233094,0.220349,-0.078791,-0.442559
0.0572734,0.130529,0.0557122,0.61478,1.08474,0.569484,0.220909,-0.0173638,-0.245942
0.0787256,0.144669,0.0690694,0.6783,1.16102,0.831777,0.216535,-0.0201567,0.00429577
0.0961645,0.159333,0.0864849,0.620585,0.787995,1.00408,0.194217,-0.0398729,0.161223
0.101804,0.172593,0.106298,0.504466,0.0789931,1.06184,0.159998,-0.0472113,0.210145
0.0928679,0.183461,0.126493,0.378046,-0.575281,1.01682,0.112847,-0.0267949,0.178444
0.0745747,0.190917,0.145745,0.204567,-0.823476,0.932836,0.0557696,0.0298471,0.0691134
0.0557599,0.194777,0.16344,0.0858415,-0.67614,0.832913,0.0292614,0.0698904,-0.0612512
0.0429504,0.197224,0.179673,0.10338,-0.261102,0.798394,0.0357608,0.128473,-0.150997
0.039529,0.201273,0.196847,0.251143,0.254635,0.933348,0.0733092,0.195065,-0.160143
0.0443884,0.209239,0.218072,0.465073,0.621448,1.19103,0.0795188,0.252698,-0.0708393
0.0525641,0.221808,0.244144,0.658045,0.71278,1.40276,0.0563675,0.248833,0.0787988
0.0595945,0.237567,0.273016,0.733906,0.640178,1.47778,0.00662774,0.222475,0.217411
0.0641951,0.253545,0.302206,0.671337,0.521558,1.44755,-0.0307585,0.181226,0.322832
0.0654661,0.267773,0.330488,0.572028,0.336346,1.37582,-0.045342,0.153302,0.3826
0.0631802,0.279506,0.357053,0.418499,0.142029,1.24919,-0.0494269,0.124453,0.419845
0.0567748,0.287201,0.380649,0.217137,-0.121994,1.06744,-0.0473248,0.0885971,0.418585
0.0466445,0.290725,0.400722,0.0358667,-0.319076,0.87933,-0.0541162,0.0760448,0.375177
0.0338736,0.290702,0.417273,-0.0908814,-0.474181,0.716358,-0.0392669,0.0712006,0.29453
0.0196574,0.288322,0.430582,-0.18527,-0.562411,0.557068,-0.0131533,0.0515408,0.200023
0.0052075,0.283994,0.440494,-0.253266,-0.575185,0.387611,-0.00722669,0.0319462,0.0928657
-0.00646681,0.278476,0.446235,-0.309161,-0.425361,0.156823,-0.0219654,0.00883803,-0.0152443
-0.013385,0.271248,0.446863,-0.424336,-0.24231,-0.0817838,-0.0134262,-0.0040085,-0.0685245
-0.0151961,0.261462,0.4432,-0.55652,-0.0406384,-0.244881,0.0121919,0.00380832,-0.122233
-0.012626,0.249484,0.437274,-0.650124,0.137447,-0.289207,0.030942,0.0266123,-0.164124
-0.00684394,0.236002,0.43166,-0.711516,0.297095,-0.239236,0.0592359,-0.000817224,-0.189378
4.68174e-05,0.220479,0.426461,-0.86952,0.232423,-0.29449,0.00933845,-0.0229868,-0.17118
0.00397874,0.200819,0.418354,-1.09877,-0.0322271,-0.527481,-0.0617449,-0.078314,-0.199502
0.00298322,0.177331,0.404518,-1.23423,-0.296307,-0.846353,-0.0790625,-0.10767,-0.294342
2.71842e-05,0.152189,0.384922,-1.2717,-0.278757,-1.05854,-0.0601465,-0.0445501,-0.384208
-3.04146e-05,0.127262,0.363746,-1.21399,0.00650048,-0.99536,-0.0159611,0.0581927,-0.41156
0.00615476,0.104308,0.346373,-1.07092,0.412245,-0.72756,0.0024389,0.140755,-0.399482
0.0191148,0.0852777,0.3353,-0.801637,0.758229,-0.392533,0.0117023,0.168991,-0.35016
0.0361415,0.0729743,0.331419,-0.402416,0.86959,-0.0205776,-0.00315474,0.17908,-0.271776
0.0514984,0.0699305,0.335095,0.0845275,0.648985,0.376768,-0.0655253,0.194416,-0.188139
0.0595211,0.0768677,0.345663,0.533388,0.21728,0.691826,-0.192367,0.200922,-0.0860936
0.0587339,0.0914606,0.359297,0.809139,-0.160925,0.692172,-0.358702,0.167215,-0.000479817
0.052551,0.109083,0.369156,0.86729,-0.308211,0.343615,-0.480346,0.100719,0.0633933
0.0469178,0.125102,0.369963,0.694611,-0.230718,-0.197942,-0.516291,0.0474895,0.150837
0.0455744,0.134887,0.359798,0.308186,-0.0207581,-0.753586,-0.461374,0.0247064,0.24033
0.0501496,0.135514,0.340074,-0.143406,0.2023,-1.17195,-0.371416,0.0407238,0.295006
0.0591641,0.128256,0.314545,-0.396468,0.350951,-1.36738,-0.27483,0.0809841,0.281875
0.0699765,0.118878,0.287208,-0.320804,0.375169,-1.38902,-0.188216,0.114418,0.243823
0.0797834,0.112948,0.260525,-0.057299,0.282931,-1.29072,-0.102537,0.114615,0.238163
0.0866921,0.11244,0.236158,0.195203,0.146894,-1.13509,-0.0590134,0.08843,0.266611
0.090731,0.115408,0.214363,0.263364,0.0141996,-1.0089,-0.0545271,0.0615329,0.33228
0.090731,0.115408,0.214363,0.263364,0.0141996,-1.0089,-0.0545271,0.0615329,0.33228
0.0921573,0.118199,0.194679,0.178874,-0.084304,-0.935965,-0.0569762,0.0128365,0.366555
0.0922171,0.118435,0.17542,0.0166915,-0.144728,-0.990239,-0.0832931,-0.0428827,0.35578
0.0905588,0.115418,0.154605,-0.118212,-0.276926,-1.10352,-0.065938,-0.0911067,0.295719
0.0864693,0.11038,0.131933,-0.178765,-0.36958,-1.17946,-0.0398918,-0.0976231,0.203244
0.0809696,0.104438,0.108758,-0.208627,-0.410313,-1.1531,0.0223886,-0.0888515,0.104406
0.0761943,0.0991683,0.0874424,-0.138545,-0.253903,-0.99791,0.0903606,-0.0854425,-0.00320733
0.0752431,0.0965126,0.0699484,0.00961201,-0.0136392,-0.754928,0.142982,-0.0864681,-0.0805138
0.0781593,0.0973546,0.0574227,0.159878,0.162873,-0.48951,0.165103,-0.106764,-0.105323
0.0820126,0.100321,0.0495133,0.166005,0.0925112,-0.290301,0.148136,-0.138541,-0.0758923
0.0817879,0.101866,0.0445417,0.0189834,-0.167216,-0.216282,0.119243,-0.198313,-0.0815226
0.0767519,0.100525,0.0394195,-0.10314,-0.353028,-0.335845,0.042958,-0.254243,-0.195584
0.071023,0.0969451,0.0305759,-0.194706,-0.264862,-0.582054,0.00488569,-0.285363,-0.322924
0.0683702,0.0907192,0.0175165,-0.357612,-0.172217,-0.729673,0.0507079,-0.261181,-0.382034
0.0636669,0.080895,0.00416138,-0.526565,-0.446326,-0.63428,0.162643,-0.204655,-0.431452
0.0522418,0.0699825,-0.00583876,-0.460947,-0.727815,-0.42576,0.192829,-0.152304,-0.578836
0.0391382,0.0635369,-0.0122795,-0.126635,-0.541684,-0.260727,0.121763,-0.0816171,-0.724248
0.0341691,0.0648061,-0.0161835,0.264727,0.0432472,-0.12571,0.0556615,-0.0271126,-0.722317
0.0412153,0.0738304,-0.0171733,0.635189,0.648167,0.0711592,0.0556646,0.0173514,-0.560349
0.0585884,0.0894888,-0.0143916,0.896219,1.06951,0.286933,0.0718675,0.0511765,-0.288532
0.0815937,0.109095,-0.00758034,0.995952,1.26926,0.535631,0.0647028,0.0929483,-0.00963354
0.105216,0.130213,0.00375755,0.997511,1.18584,0.77571,0.0401847,0.106164,0.199842
0.122679,0.1514,0.0184612,0.936395,0.708533,0.895501,0.0100713,0.0878798,0.332221
0.126969,0.17101,0.0341655,0.80043,-0.0410342,0.869623,-0.013529,0.0564386,0.388553
0.116603,0.186446,0.048434,0.542541,-0.696434,0.696364,-0.038288,0.0287822,0.379546
0.0975702,0.194924,0.0593578,0.180935,-0.943308,0.471101,-0.059453,0.0434083,0.304338
0.0782559,0.195996,0.0670984,-0.120973,-0.795978,0.306498,-0.0530129,0.0890304,0.179742
0.064273,0.192531,0.0725645,-0.229802,-0.485311,0.224305,-0.00963619,0.126448,0.0674177
0.0569568,0.188964,0.0780776,-0.133489,-0.155142,0.327647,0.0582994,0.173559,0.00616515
0.0545377,0.189066,0.087095,0.106359,0.0743293,0.574149,0.109241,0.212721,0.00621742
0.0545959,0.194375,0.101069,0.33845,0.174169,0.814467,0.108965,0.219337,0.0753031
0.0544389,0.203351,0.118471,0.446439,0.140771,0.92067,0.0675282,0.180208,0.180368
0.0525887,0.213478,0.136701,0.460001,0.045177,0.909392,0.0238241,0.138663,0.259854
0.0485685,0.223042,0.153901,0.405732,-0.0665208,0.814721,0.0132916,0.100088,0.307697
0.0429159,0.230847,0.168865,0.299817,-0.158558,0.677971,0.00910821,0.0822409,0.331982
0.0358879,0.235453,0.18126,0.0995454,-0.263995,0.551857,0.00858206,0.0623389,0.345745
0.026885,0.235315,0.191293,-0.134996,-0.401079,0.421551,0.0263188,0.0239664,0.302961
0.0169707,0.231475,0.198597,-0.244298,-0.394471,0.287519,0.0412678,-0.000750124,0.195357
0.00882697,0.226711,0.203582,-0.21456,-0.281219,0.209039,0.0627033,-0.00871649,0.0768816
0.00417936,0.223541,0.207638,-0.107351,-0.109572,0.188753,0.0783221,-0.00669435,0.00422382
0.0016876,0.221955,0.211469,-0.0653304,-0.0759073,0.184551,0.0777148,-0.0149247,-0.0122033
-0.00135486,0.220298,0.214747,-0.123943,-0.165584,0.124563,0.0656837,-0.0424665,-0.0169815
-0.00596258,0.21618,0.21621,-0.29306,-0.249669,0.0173831,0.0524699,-0.067086,-0.0433281
-0.0108129,0.208575,0.215367,-0.463408,-0.242647,-0.0932428,0.0371134,-0.0812034,-0.113588
-0.0142734,0.198297,0.212674,-0.556715,-0.14426,-0.145233,0.0337992,-0.0779789,-0.200528
-0.0146322,0.187242,0.209801,-0.533266,0.0851832,-0.108679,0.0343192,-0.0772022,-0.278311
-0.0101336,0.177532,0.207793,-0.469394,0.247557,-0.0914401,0.0109813,-0.0934034,-0.286276
-0.00767866,0.166888,0.205057,-0.625297,-0.0828548,-0.191545,-0.0301173,-0.118111,-0.214942
-0.0115212,0.152396,0.198739,-0.836234,-0.397999,-0.440011,-0.0458483,-0.172427,-0.266203
-0.0192359,0.134459,0.186898,-0.955155,-0.484739,-0.688651,-0.0451936,-0.142496,-0.394738
-0.024484,0.116268,0.171672,-0.856192,-0.194916,-0.752651,-0.00429395,-0.0615602,-0.522506
-0.0213664,0.103087,0.158104,-0.461794,0.39531,-0.517078,0.0586964,0.0657646,-0.569821
-0.00654545,0.0990447,0.152465,0.0509976,0.989965,-0.0101476,0.0999124,0.169287,-0.45646
0.0151744,0.105062,0.158088,0.536431,1.15109,0.556725,0.0843057,0.197657,-0.231016
0.0335656,0.11983,0.172743,0.88012,0.802228,0.894002,-0.00637161,0.165472,-0.0190065
0.0335656,0.11983,0.172743,0.88012,0.802228,0.894002,-0.00637161,0.165472,-0.0190065
0.0421509,0.139956,0.190828,1.03462,0.300819,0.939279,-0.128412,0.118931,0.102502
0.0417817,0.161152,0.207087,0.993682,-0.0597289,0.728208,-0.234298,0.0815363,0.163809
0.0373366,0.179923,0.217727,0.836989,-0.164234,0.388358,-0.28494,0.0645129,0.193179
0.0343902,0.194726,0.221392,0.627518,-0.0323696,0.033675,-0.296459,0.0880293,0.217932
0.0364983,0.204896,0.218861,0.399587,0.193151,-0.228455,-0.258032,0.106832,0.244833
0.0431384,0.210731,0.212296,0.230218,0.306292,-0.38063,-0.201869,0.118644,0.279108
0.0506748,0.214309,0.203262,0.193495,0.240561,-0.484958,-0.149348,0.114924,0.29371
0.0566235,0.217897,0.192154,0.225492,0.105857,-0.584342,-0.109912,0.103765,0.302976
0.0599571,0.221655,0.1791,0.213257,-0.0462733,-0.660842,-0.057555,0.0871388,0.326428
0.0615506,0.224283,0.165079,0.13053,-0.0726302,-0.690616,-0.0232279,0.0700792,0.334253
0.0643131,0.224937,0.150665,0.0212708,0.0397328,-0.715184,-0.0129976,0.0527867,0.32521
0.0690307,0.223262,0.135893,-0.0876617,0.0905956,-0.735006,0.0025451,0.0265111,0.316181
0.0736565,0.219769,0.120974,-0.153009,0.0251489,-0.745645,0.0186495,-0.000685126,0.285466
0.0761828,0.215331,0.106129,-0.174959,-0.0959246,-0.725487,0.0548143,-0.0303478,0.217297
0.0761784,0.211312,0.0923422,-0.111436,-0.177076,-0.641321,0.0960898,-0.0496563,0.118323
0.0752431,0.209359,0.0806987,0.00835103,-0.137679,-0.507079,0.122835,-0.0605231,0.026422
0.0754402,0.209931,0.0720162,0.102913,-0.0232102,-0.333198,0.145982,-0.0786716,-0.0371113
0.0771014,0.21199,0.0669048,0.135473,0.0797809,-0.160102,0.148607,-0.10626,-0.0701051
0.0796905,0.214419,0.0645331,0.109513,0.111351,-0.0643803,0.121466,-0.13564,-0.0831143
0.0811267,0.215569,0.0635135,0.00282588,-0.0137653,-0.0354636,0.102463,-0.173243,-0.0861114
0.0792432,0.21427,0.0627539,-0.119826,-0.170126,-0.0525517,0.0895811,-0.208082,-0.137613
0.0761578,0.211102,0.0614437,-0.175759,-0.13399,-0.105347,0.0569372,-0.223614,-0.242914
0.0772882,0.207658,0.0587881,-0.134719,0.247843,-0.186338,0.043405,-0.231667,-0.336554
0.0874339,0.205348,0.054202,-0.0818231,0.624007,-0.269029,0.0529398,-0.214275,-0.33229
0.10205,0.202824,0.0491561,-0.151146,0.678208,-0.231595,0.131157,-0.197887,-0.23464
0.112653,0.197773,0.0456222,-0.306153,0.252403,-0.170525,0.16744,-0.193422,-0.197873
0.11257,0.191135,0.0432632,-0.293039,-0.26053,-0.137946,0.16869,-0.16812,-0.301494
0.106056,0.186943,0.0413402,-0.0795169,-0.348767,-0.0907615,0.14614,-0.0928455,-0.434855
0.103352,0.188628,0.0405408,0.262109,0.135852,0.0607435,0.14062,0.0197256,-0.451583
0.112339,0.197216,0.0442202,0.518094,0.807978,0.414936,0.161936,0.129228,-0.291404
0.128976,0.209468,0.0551586,0.549258,1.00277,0.786609,0.172472,0.153404,-0.024062
0.143069,0.222194,0.0722418,0.48024,0.711623,1.02428,0.145454,0.115466,0.169308
0.146629,0.233802,0.0927011,0.370895,0.0779509,1.09999,0.116141,0.0793642,0.257276
0.136368,0.24255,0.113762,0.195203,-0.57028,1.04206,0.0814433,0.0601095,0.266023
0.117372,0.24681,0.133649,-0.0227753,-0.776461,0.93048,0.0280626,0.0835604,0.187024
0.0983839,0.246037,0.151879,-0.241035,-0.658998,0.829931,-0.000769511,0.133744,0.0996404
0.0834532,0.241465,0.168841,-0.333156,-0.415885,0.783283,0.0234931,0.148961,0.0173685
0.0743511,0.237081,0.185691,-0.197249,-0.0980342,0.84763,0.0577849,0.185245,-0.035388
0.0705837,0.237308,0.205235,0.0956319,0.169864,1.07804,0.0866944,0.235133,7.17044e-05
0.0697034,0.243776,0.229782,0.366301,0.291109,1.34853,0.0809108,0.255727,0.122359
0.0674485,0.254588,0.258708,0.5035,0.185343,1.50835,0.049628,0.222641,0.256231
0.0619958,0.267087,0.289516,0.536952,0.0569783,1.53243,0.0023134,0.183127,0.344298
0.0533245,0.279127,0.319687,0.485565,-0.118654,1.43348,-0.0260136,0.136066,0.393325
0.0414545,0.289072,0.347315,0.369352,-0.295629,1.27094,-0.0299575,0.0956704,0.405363
0.0272323,0.295282,0.37183,0.157757,-0.419844,1.10827,-0.0268744,0.073465,0.400595
0.0111046,0.296368,0.393564,-0.0777228,-0.566551,0.981745,-0.00497454,0.0492653,0.354904
-0.00687996,0.293521,0.412394,-0.193351,-0.664306,0.810271,-0.00626226,0.00862354,0.235254
-0.0239587,0.288994,0.426564,-0.229377,-0.622978,0.550528,-0.0123765,-0.0436707,0.107731
-0.0375554,0.283763,0.434953,-0.287248,-0.502728,0.274608,0.00760259,-0.0786422,0.0125393
-0.0470627,0.27639,0.437712,-0.452824,-0.368916,0.0321883,0.0311912,-0.0878946,-0.0578935
-0.052705,0.265518,0.435706,-0.651737,-0.272242,-0.172004,0.0356673,-0.0802575,-0.129614
-0.0562406,0.251144,0.429474,-0.809777,-0.243804,-0.345178,0.0470776,-0.0758438,-0.221761
-0.0583631,0.235109,0.420416,-0.817614,-0.161293,-0.425819,0.073342,-0.0670845,-0.334648
-0.0565862,0.220987,0.411364,-0.617424,0.178752,-0.34788,0.0954791,-0.0368501,-0.431657
-0.0565862,0.220987,0.411364,-0.617424,0.178752,-0.34788,0.0954791,-0.0368501,-0.431657
-0.0476296,0.211612,0.405758,-0.375623,0.536848,-0.14692,0.0756633,-0.0055704,-0.404046
-0.0368531,0.204671,0.4037,-0.37072,0.44229,-0.0591083,0.0341988,-0.035952,-0.251365
-0.0302723,0.19561,0.400875,-0.568058,0.140142,-0.227584,-0.033954,-0.125062,-0.166951
-0.0288287,0.182029,0.392379,-0.808652,-0.112915,-0.581168,-0.0883355,-0.170614,-0.185097
-0.0276226,0.16524,0.377051,-0.888728,0.028026,-0.847915,-0.117716,-0.107865,-0.292608
-0.0210081,0.148498,0.359016,-0.817328,0.355702,-0.865322,-0.109169,0.0185731,-0.342095
-0.00817976,0.134084,0.342688,-0.643285,0.678931,-0.718781,-0.0793266,0.0953527,-0.319327
0.00787678,0.123887,0.330934,-0.357529,0.731505,-0.429975,-0.0351906,0.140904,-0.25684
0.0206998,0.121022,0.326172,0.0967541,0.447334,-0.0349971,-0.014596,0.174163,-0.193333
0.0248583,0.128187,0.329402,0.601368,0.0190544,0.355042,-0.0726407,0.214217,-0.12222
0.0209602,0.144008,0.338327,0.922571,-0.270505,0.522241,-0.196187,0.205965,-0.0246219
0.0123287,0.163649,0.34785,0.997882,-0.418098,0.41751,-0.27756,0.138719,0.0795972
0.00331815,0.182546,0.353148,0.856231,-0.365173,0.0994279,-0.31143,0.0916286,0.175961
-0.00126932,0.196805,0.351295,0.55741,-0.0932416,-0.273134,-0.286322,0.0695757,0.24365
0.0019687,0.204382,0.342547,0.2098,0.214832,-0.569593,-0.230489,0.0733235,0.29173
0.0100034,0.206132,0.329306,0.0107196,0.279944,-0.705968,-0.149425,0.0956355,0.30918
0.0172048,0.205911,0.314544,0.0185917,0.105227,-0.733728,-0.0696512,0.107993,0.299424
0.0197483,0.207161,0.299914,0.145746,-0.141564,-0.694928,-0.00369979,0.107629,0.274311
0.0184104,0.211172,0.286239,0.266865,-0.241569,-0.640935,0.0159352,0.102947,0.253758
0.0167424,0.216341,0.273253,0.257217,-0.18271,-0.63829,0.00490414,0.0803955,0.253255
0.0177371,0.220058,0.259268,0.123479,-0.0184704,-0.73847,-0.0107625,0.0380188,0.261589
0.0220804,0.220145,0.242974,-0.084791,0.0738059,-0.845954,0.0139614,0.00624338,0.27734
0.0274694,0.216575,0.225475,-0.206413,0.0848278,-0.856696,0.0617682,-0.00490206,0.228315
0.0330962,0.212325,0.208908,-0.153923,0.132891,-0.770581,0.0935227,0.00711963,0.151554
0.0395724,0.209458,0.194431,-0.0890265,0.209933,-0.650367,0.123763,-0.0133228,0.107246
0.0464165,0.207524,0.18268,-0.0582439,0.223736,-0.5095,0.153036,-0.050814,0.0850037
0.0522728,0.206187,0.173604,-0.0266444,0.165848,-0.39137,0.163228,-0.0986618,0.0501441
0.055619,0.205753,0.166899,0.0196543,0.0174413,-0.270999,0.187892,-0.130413,0.0140454
0.0554693,0.205567,0.162214,-0.0415797,-0.116772,-0.192544,0.171663,-0.140513,-0.017357
0.0531733,0.202497,0.158957,-0.263379,-0.165305,-0.146039,0.144349,-0.153529,-0.058194
0.0504702,0.194898,0.156237,-0.467811,-0.149792,-0.179658,0.0918332,-0.180266,-0.155344
0.0493792,0.184627,0.151953,-0.505694,-0.00417321,-0.29362,0.0499905,-0.197921,-0.299535
0.0547199,0.175566,0.145431,-0.345044,0.469824,-0.388723,0.0530208,-0.193102,-0.413635
0.0690625,0.169875,0.138033,-0.204558,0.740274,-0.335576,0.112619,-0.142907,-0.352834
0.0825534,0.165373,0.133972,-0.242353,0.479461,-0.0940943,0.201533,-0.116188,-0.207783
0.0868278,0.15953,0.134429,-0.32873,-0.0483207,0.0709136,0.200653,-0.138555,-0.192244
0.0826587,0.153716,0.136742,-0.249603,-0.2575,0.0926953,0.12631,-0.134837,-0.330564
0.0787489,0.150841,0.138786,-0.0344061,-0.0474621,0.104813,0.0977476,-0.092315,-0.416625
0.0816271,0.153567,0.142223,0.284389,0.442176,0.283062,0.120839,-0.0134181,-0.3804
0.0943686,0.161957,0.149988,0.447292,0.885461,0.571745,0.117896,0.0682165,-0.204825
0.110548,0.172725,0.163493,0.486713,0.898037,0.852938,0.114097,0.058098,-0.0100749
0.122032,0.185167,0.18112,0.559496,0.526232,0.99334,0.0671957,0.0437758,0.0974527
0.123973,0.199588,0.199989,0.634896,0.0334786,1.00462,0.0202479,0.0351332,0.138245
0.117377,0.214076,0.217959,0.559576,-0.277462,0.919628,-0.0243314,0.044277,0.156286
0.107149,0.224856,0.234953,0.315767,-0.352083,0.86568,-0.0614812,0.0865976,0.153058
0.0969627,0.230694,0.251665,0.12222,-0.263681,0.805925,-0.0768359,0.106064,0.101565
0.0904963,0.233474,0.266487,0.0336136,-0.0415487,0.659648,-0.0851132,0.104039,0.0432742
0.088641,0.23519,0.279137,0.0406054,0.129235,0.611455,-0.0507485,0.114833,0.0378354
0.0884932,0.237918,0.292259,0.131102,0.143977,0.707474,0.00395557,0.144249,0.0768537
0.0871791,0.243297,0.307807,0.273469,0.0955498,0.841707,0.0175768,0.156507,0.122884
0.0840396,0.251187,0.325203,0.357846,0.00798283,0.899222,0.00223541,0.137515,0.181676
0.078983,0.260024,0.343062,0.373913,-0.0620279,0.88928,-0.0182193,0.108819,0.227196
0.0729787,0.268588,0.36012,0.352088,-0.0763009,0.816737,-0.0291926,0.0812423,0.249437
0.0677349,0.27621,0.37559,0.300219,-0.0330464,0.726826,-0.0416497,0.0710513,0.264074
0.0677349,0.27621,0.37559,0.300219,-0.0330464,0.726826,-0.0416497,0.0710513,0.264074
0.0636843,0.282328,0.389282,0.223328,-0.014734,0.633509,-0.0402171,0.0590793,0.27554
0.0594643,0.2867,0.401079,0.145266,-0.0961955,0.5231,-0.0326505,0.0383574,0.26898
0.0539007,0.289373,0.410304,0.0663209,-0.203074,0.373062,-0.0126332,0.00313979,0.241516
0.0474725,0.290191,0.416398,-0.00819888,-0.26064,0.2279,0.0202948,-0.0191017,0.182818
0.0413329,0.28999,0.42051,-0.0263845,-0.221434,0.180449,0.0624244,-0.0080485,0.0968479
0.0358451,0.289247,0.424322,-0.071673,-0.246798,0.187184,0.0693805,0.0114112,0.0410343
0.029007,0.287313,0.428203,-0.134886,-0.326178,0.164193,0.0702694,-0.0188241,-0.020902
0.0213999,0.283922,0.430383,-0.215389,-0.363425,0.0218153,0.0437132,-0.0444778,-0.0861845
0.0151052,0.278183,0.429085,-0.369484,-0.277382,-0.150373,0.028933,-0.0530436,-0.141566
0.0132963,0.269301,0.425098,-0.50436,0.0206904,-0.230773,0.0467536,-0.0545755,-0.207087
0.0178711,0.258296,0.420591,-0.597732,0.270264,-0.213957,0.0488695,-0.02629,-0.218432
0.0234928,0.244441,0.416341,-0.809738,0.133681,-0.247512,0.0335126,-0.0429138,-0.166729
0.0237716,0.225173,0.410003,-1.09011,-0.284579,-0.424644,0.0101711,-0.12696,-0.207328
0.0178233,0.202325,0.399843,-1.14137,-0.477955,-0.612799,0.00210289,-0.131603,-0.395126
0.0121888,0.181088,0.386927,-0.935892,-0.275279,-0.664117,0.010075,-0.0608061,-0.572546
0.0137089,0.165431,0.37508,-0.615273,0.241181,-0.486322,-0.00139055,0.0701033,-0.630368
0.0246507,0.156603,0.368743,-0.245631,0.736878,-0.149444,-0.0262845,0.155002,-0.575007
0.0420499,0.156082,0.36901,0.199908,0.93449,0.166364,-0.083946,0.191292,-0.439787
0.0581382,0.164835,0.374457,0.63865,0.729525,0.396977,-0.185339,0.204998,-0.259575
0.067894,0.181274,0.382366,0.922358,0.384108,0.449217,-0.312977,0.20932,-0.0898182
0.071561,0.201238,0.388614,1.00575,0.132476,0.26492,-0.416294,0.184105,0.0423604
0.0730612,0.220829,0.389117,0.921712,0.0402368,-0.078687,-0.456172,0.165465,0.154357
0.0754285,0.236492,0.382882,0.670104,0.078707,-0.403228,-0.406496,0.150858,0.255718
0.0815254,0.245811,0.37127,0.352182,0.270295,-0.639939,-0.350609,0.155391,0.32028
0.0924057,0.248852,0.356167,0.0988,0.421265,-0.784614,-0.30156,0.166931,0.359531
0.104066,0.247697,0.339552,-0.0332731,0.291878,-0.828494,-0.237061,0.157372,0.381944
0.111121,0.245178,0.322448,-0.0123181,-0.00636154,-0.852961,-0.174898,0.121635,0.360778
0.112867,0.244292,0.304767,0.12044,-0.218808,-0.862142,-0.124649,0.100054,0.324304
0.112062,0.245529,0.28715,0.182222,-0.264891,-0.822652,-0.0914904,0.0987517,0.328839
0.11108,0.246713,0.2705,0.101018,-0.239118,-0.775348,-0.0524416,0.0660561,0.358626
0.109651,0.245714,0.254932,-0.0326317,-0.296769,-0.741631,-0.0125167,0.0219506,0.366513
0.106386,0.242364,0.240127,-0.146967,-0.399858,-0.736116,-0.00763812,-0.0120315,0.342574
0.100135,0.23669,0.225193,-0.271077,-0.568652,-0.769735,0.0056027,-0.0531731,0.290111
0.0911725,0.228843,0.209853,-0.353319,-0.664764,-0.795726,0.0265923,-0.0896015,0.190817
0.0819673,0.220634,0.194165,-0.311773,-0.573673,-0.796339,0.0437817,-0.0910122,0.0611212
0.0761798,0.214427,0.178954,-0.192932,-0.326466,-0.724777,0.0575338,-0.0736963,-0.0323424
0.0744609,0.210301,0.165701,-0.125849,-0.15407,-0.59657,0.0913399,-0.0835281,-0.0658641
0.0741024,0.207835,0.155415,-0.0336162,-0.116757,-0.422837,0.139824,-0.109393,-0.107961
0.0728212,0.207586,0.148425,0.0415571,-0.162778,-0.273338,0.133441,-0.12192,-0.141173
0.0697854,0.20737,0.143443,-0.0494251,-0.244712,-0.23346,0.0793939,-0.143631,-0.156497
0.0658511,0.204661,0.138215,-0.182351,-0.235191,-0.323354,0.0224686,-0.188153,-0.225675
0.0642673,0.199473,0.129863,-0.27329,-0.035469,-0.532597,-0.0158152,-0.199965,-0.302675
0.0713885,0.192821,0.117722,-0.317559,0.523386,-0.687533,0.00180195,-0.190284,-0.339407
0.0867415,0.184368,0.10463,-0.428734,0.685837,-0.628229,0.0915781,-0.145243,-0.244398
0.100284,0.174459,0.0947758,-0.452415,0.434962,-0.435149,0.16558,-0.147576,-0.192292
0.104806,0.165006,0.0884025,-0.427556,-0.105982,-0.301607,0.184328,-0.16344,-0.19705
0.0995812,0.156063,0.0840398,-0.422024,-0.402272,-0.229043,0.158948,-0.164227,-0.280398
0.0933412,0.147684,0.0807079,-0.362693,-0.190626,-0.178897,0.0938136,-0.115487,-0.375268
0.0953461,0.142399,0.0786381,-0.106754,0.406966,-0.0500588,0.078171,-0.050816,-0.395233
0.109847,0.144202,0.0801016,0.255048,1.01522,0.230662,0.0854202,0.034373,-0.266435
0.131224,0.152626,0.0870294,0.475769,1.15407,0.557179,0.0878214,0.0625259,-0.0221059
0.149694,0.164846,0.0993192,0.547819,0.828007,0.801394,0.0495266,0.0560683,0.181116
0.157577,0.178234,0.114867,0.529247,0.198387,0.895816,0.0146892,0.0281673,0.275218
0.157577,0.178234,0.114867,0.529247,0.198387,0.895816,0.0146892,0.0281673,0.275218
0.151324,0.190011,0.131105,0.364078,-0.524321,0.856796,-0.0150534,0.0116537,0.303483
0.132298,0.196703,0.146822,0.0711217,-1.02369,0.766885,-0.0422561,0.0186637,0.244943
0.107081,0.196762,0.161303,-0.232376,-1.1669,0.636131,-0.0969716,0.0586536,0.104162
0.0827136,0.191149,0.173021,-0.400508,-0.987698,0.454957,-0.103804,0.0630793,-0.0537354
0.0665049,0.1843,0.181449,-0.301892,-0.443543,0.347273,-0.0745467,0.0922247,-0.186604
0.0621472,0.181682,0.189576,0.0041075,0.126295,0.482902,-0.01038,0.165898,-0.186113
0.0655966,0.185763,0.202462,0.312995,0.396592,0.824199,0.0433358,0.219288,-0.041077
0.0697268,0.195759,0.221611,0.544956,0.350172,1.09557,0.0400435,0.184684,0.134996
0.0709474,0.209552,0.24392,0.660242,0.215157,1.15829,-0.0147565,0.12509,0.274049
0.0690491,0.224128,0.265717,0.627098,0.0686052,1.05068,-0.0565111,0.0625879,0.371499
0.0650997,0.236178,0.284266,0.436494,-0.0395339,0.826798,-0.0763398,0.0130412,0.439678
0.0592841,0.242729,0.298301,0.124587,-0.225999,0.582908,-0.0670645,-0.0230756,0.471132
0.050031,0.242666,0.307893,-0.166888,-0.4683,0.350798,-0.043128,-0.0576368,0.424213
0.0376248,0.237907,0.31327,-0.316307,-0.62811,0.169752,-0.0287287,-0.0550416,0.289917
0.0236556,0.231487,0.316003,-0.30136,-0.678242,0.0945833,0.0133393,-0.0457523,0.136079
0.0107186,0.227158,0.317642,-0.126168,-0.580078,0.0551042,0.025232,-0.0366775,-0.00622946
-0.000505676,0.225891,0.318409,-0.0272671,-0.532631,0.0220798,0.0391586,-0.0336705,-0.0675498
-0.0103362,0.224967,0.318384,-0.0844731,-0.441017,-0.0366883,0.0359087,-0.0458165,-0.103772
