rotationRate_x,rotationRate_y,rotationRate_z,acceleration_x,acceleration_y,acceleration_z,relativeAltitude
0.413088,-0.403128,0.320586,0.0523395,-0.0372857,-0.1424,0
0.562685,-0.772382,0.49712,0.0707548,-0.0182176,-0.0852216,0
0.508616,-0.920939,0.453549,-0.00590566,-0.0760399,-0.159148,0
0.671764,-0.832215,0.375677,-0.0397057,-0.148198,-0.335788,0
0.86596,-0.366412,0.237763,-0.104992,-0.197429,-0.461065,0
0.712733,-0.14251,0.117139,-0.161244,-0.12245,-0.375795,0
0.289851,-0.069617,-0.0735723,-0.187717,-0.125472,-0.303858,0
-0.220813,-0.209084,-0.286641,-0.203152,-0.123935,-0.307615,0
-0.471982,-0.152872,-0.326136,-0.212297,-0.0853452,-0.396433,0
-0.335983,0.0455759,-0.265209,-0.235666,-0.000154644,-0.465348,0
0.0428895,0.248533,-0.223597,-0.276704,0.0508012,-0.414433,0
0.282129,0.131192,-0.168085,-0.259378,0.114852,-0.198993,0
0.159603,-0.18952,-0.193151,-0.25699,0.132621,0.0445055,0
-0.100498,-0.326678,-0.250311,-0.256963,0.12541,0.166654,0
-0.282497,-0.255851,-0.298984,-0.245421,0.14287,0.201231,0
-0.303727,-0.172365,-0.335921,-0.19751,0.152909,0.233765,0
-0.14746,-0.158949,-0.379138,-0.140518,0.161007,0.263844,0
0.0714386,-0.257192,-0.433997,-0.0992411,0.187926,0.311473,0
0.243766,-0.334181,-0.496668,-0.0649176,0.207757,0.362959,0
0.309648,-0.289017,-0.556602,-0.0201915,0.222109,0.422698,0
0.252038,-0.189131,-0.60083,0.0195316,0.23987,0.488254,0
0.105292,-0.143522,-0.611637,0.0502737,0.254058,0.543327,0
-0.105454,-0.198092,-0.576118,0.0893458,0.243132,0.555745,0
-0.263077,-0.368876,-0.490868,0.140109,0.217346,0.510167,0
-0.239137,-0.520134,-0.323101,0.180824,0.175175,0.374637,0
-0.123868,-0.475229,-0.173085,0.16265,0.106869,0.188427,0
-0.118525,-0.325948,-0.154536,0.0906897,-0.00439137,0.0412305,0
-0.309736,-0.33406,-0.176933,0.104457,-0.114316,-0.041325,0
-0.630876,-0.16172,-0.221983,0.135837,-0.179209,-0.126694,0
-0.917048,0.171907,-0.181598,0.148697,-0.202219,-0.223243,0
-0.972411,0.428699,0.0431516,0.155861,-0.20931,-0.326043,0
-0.696879,0.647869,0.247427,0.146926,-0.258479,-0.441208,0
-0.43339,0.495374,0.266255,0.104452,-0.298089,-0.454447,0
-0.384645,0.0552238,0.0188307,0.0173068,-0.329854,-0.449574,0
-0.533402,-0.447505,-0.393268,0.00673801,-0.325579,-0.475205,0
-0.643932,-0.335535,-0.594776,0.089608,-0.215412,-0.560765,0
-0.44951,0.402292,-0.217656,0.21778,-0.0240059,-0.606125,0
-0.0524654,1.08858,0.437825,0.282386,0.0854947,-0.498793,0
0.17157,1.15281,0.844675,0.257226,0.0546914,-0.236825,0
0.115994,0.756625,0.91512,0.206027,-0.0438376,-0.00800914,0
-0.124378,0.130896,0.742375,0.181424,-0.108384,0.104253,0
-0.341803,-0.336085,0.524753,0.167342,-0.118206,0.0670828,0
-0.477809,-0.483249,0.460701,0.15608,-0.0502809,-0.0320576,0
-0.418767,-0.329286,0.617071,0.165088,0.0436853,-0.130574,0
-0.152392,0.0775623,0.902016,0.17012,0.106087,-0.17606,0
0.229705,0.535053,1.19132,0.132856,0.132633,-0.130448,0
0.558436,0.813895,1.40348,0.0808664,0.127647,0.0227205,0
0.767762,0.86926,1.48591,0.0119338,0.11059,0.209328,0
0.906489,0.756825,1.42845,-0.0635524,0.110278,0.355876,0
1.04105,0.556504,1.34716,-0.0963495,0.128317,0.433792,0
1.0896,0.321151,1.26257,-0.0998978,0.152624,0.482437,0
0.989857,0.126769,1.1551,-0.0796988,0.166782,0.513158,0
0.989857,0.126769,1.1551,-0.0796988,0.166782,0.513158,0
0.764881,-0.094972,1.02461,-0.0480639,0.168723,0.520888,0
0.507633,-0.331227,0.866766,-0.0361037,0.17769,0.456147,0
0.305472,-0.497043,0.714094,-0.0389557,0.194841,0.350037,0
0.200201,-0.524337,0.581912,-0.0225791,0.195345,0.211855,0
0.0129333,-0.490841,0.439009,-0.0261087,0.207687,0.131631,0
-0.272932,-0.304354,0.263529,-0.0527515,0.197622,0.0416188,0
-0.606787,-0.0431275,0.11423,-0.0671184,0.183682,-0.0288104,0
-0.949494,0.0849211,0.0350725,-0.0485421,0.161488,-0.08277,0
-1.07701,0.405192,0.0349443,-0.0417696,0.0899581,-0.24147,0
-1.17592,0.652776,0.00413937,-0.101128,0.0781183,-0.333982,0
-1.44243,0.619616,-0.126367,-0.141134,0.0192736,-0.341389,0
-1.63647,0.542737,-0.341656,-0.179739,-0.0780484,-0.438399,0
-1.4714,0.528891,-0.485039,-0.183485,-0.133793,-0.592998,0
-1.03075,0.470942,-0.389044,-0.145122,-0.0991211,-0.668242,0
-0.545331,0.287842,-0.105222,-0.140434,-0.0423976,-0.632573,0
-0.228086,-0.0677719,0.0839468,-0.198271,-0.0153293,-0.52411,0
-0.0955757,-0.298426,0.0849602,-0.272013,-0.0480984,-0.420007,0
-0.0130631,-0.233602,-0.0635514,-0.332741,-0.0751773,-0.336294,0
0.112099,0.0541652,-0.313617,-0.374728,-0.0642426,-0.241744,0
0.294436,0.388125,-0.536296,-0.350089,-0.0368353,-0.0895231,0
0.393487,0.48538,-0.674829,-0.2745,0.0117668,0.134929,0
0.433913,0.526758,-0.776186,-0.219297,0.0498622,0.343035,0
0.545783,0.311948,-0.80752,-0.181139,0.0735592,0.480956,0
0.644352,-0.00696105,-0.876495,-0.126599,0.107902,0.589312,0
0.622668,-0.311995,-0.953849,-0.0934534,0.119745,0.661328,0
0.447665,-0.451297,-1.05671,-0.0628178,0.137966,0.704716,0
0.138439,-0.496895,-1.16783,-0.017318,0.137863,0.698603,0
-0.163794,-0.56224,-1.17226,0.0610836,0.127196,0.62768,0
-0.332203,-0.639193,-1.07424,0.13163,0.103462,0.493286,0
-0.314612,-0.576635,-0.905314,0.191039,0.0590726,0.321125,0
-0.151273,-0.566063,-0.732561,0.219294,0.00612074,0.167371,0
0.0817012,-0.485636,-0.519383,0.26599,-0.0423667,0.0515062,0
0.115767,-0.4585,-0.308201,0.296562,-0.068158,0.00825387,0
-0.116895,-0.193782,-0.193103,0.274351,-0.115745,-0.0408792,0
-0.365815,0.0510728,-0.191557,0.233194,-0.164153,-0.121646,0
-0.444547,0.343474,-0.205698,0.230244,-0.209526,-0.276088,0
-0.474431,0.535341,-0.176012,0.23432,-0.237599,-0.368098,0
-0.54313,0.418765,-0.0633364,0.241339,-0.243354,-0.418432,0
-0.37928,-0.0667979,0.0311379,0.237858,-0.268756,-0.586765,0
-0.0585549,-0.427551,-0.0193738,0.174379,-0.258106,-0.758841,0
0.0984591,-0.287159,-0.151331,0.0987791,-0.170057,-0.816756,0
0.206127,0.28985,-0.0991227,0.109189,-0.0518204,-0.79099,0
0.373104,0.933784,0.17289,0.174489,0.0462928,-0.650939,0
0.48391,1.17187,0.454032,0.204977,0.0884898,-0.386437,0
0.432366,0.930351,0.689776,0.203973,0.077534,-0.114415,0
0.254639,0.442173,0.833099,0.182208,0.0640491,0.0622573,0
0.0993231,0.101588,0.844242,0.132511,0.0504624,0.113287,0
0.0432617,0.00372476,0.818727,0.102252,0.0726949,0.110485,0
0.0695003,0.0505809,0.87121,0.108125,0.129545,0.124293,0
0.151015,0.205378,1.03311,0.133459,0.183023,0.15589,0
0.151015,0.205378,1.03311,0.133459,0.183023,0.15589,0
0.214911,0.375976,1.26065,0.140028,0.222302,0.213931,0
0.301382,0.50795,1.49255,0.117157,0.23883,0.27426,0
0.420252,0.544538,1.67713,0.0751962,0.238909,0.336407,0
0.533113,0.43218,1.77272,0.0181459,0.234583,0.401187,0
0.617467,0.246321,1.79097,-0.0338821,0.223361,0.450349,0
0.629298,-0.0219035,1.72275,-0.0739732,0.210269,0.48243,0
0.565418,-0.278621,1.53931,-0.116685,0.174283,0.475325,0
0.424495,-0.44571,1.22819,-0.157738,0.134535,0.432778,0
0.120226,-0.659449,0.855292,-0.150499,0.109706,0.393908,0
-0.148455,-0.767977,0.549089,-0.0966064,0.0699424,0.286127,0
-0.204055,-0.660028,0.335993,-0.0411623,0.0511205,0.123748,0
-0.195731,-0.381675,0.23498,0.00699968,0.0718611,0.0147002,0
-0.282663,-0.162592,0.195875,0.0391252,0.0789039,-0.0489079,0
-0.345227,0.00567098,0.116934,0.0359508,0.0303732,-0.132876,0
-0.446809,0.152024,0.0340339,0.0332986,-0.0240257,-0.203797,0
-0.652556,0.185623,-0.0205457,0.0162132,-0.0717002,-0.27219,0
-0.888653,0.218586,-0.207172,-0.0560438,-0.0740798,-0.371934,0
-1.1807,0.0427335,-0.481886,-0.0810031,-0.115623,-0.433146,0
-1.34378,-0.190352,-0.678273,-0.123862,-0.122674,-0.541641,0
-1.10769,-0.165848,-0.559181,-0.128261,-0.0684848,-0.712567,0
-0.609163,0.134788,-0.250944,-0.143131,0.0285033,-0.782043,0
-0.144773,0.517297,0.0935668,-0.176565,0.0925798,-0.697011,0
0.205375,0.706205,0.287946,-0.244395,0.0905555,-0.517992,0
0.440993,0.692858,0.278095,-0.318895,0.0669229,-0.302119,0
0.565343,0.601761,0.178113,-0.349719,0.0651047,-0.0903538,0
0.588198,0.55519,0.00964505,-0.36953,0.0836814,0.0889763,0
0.513403,0.530488,-0.235812,-0.364204,0.100885,0.254242,0
0.425662,0.451114,-0.488859,-0.310013,0.105345,0.383655,0
0.373478,0.371297,-0.674487,-0.238091,0.128023,0.473976,0
0.334956,0.26869,-0.762202,-0.17708,0.16225,0.539665,0
0.296359,0.120398,-0.770628,-0.131306,0.190012,0.590651,0
0.242833,-0.0327873,-0.777129,-0.101145,0.199824,0.61279,0
0.176618,-0.195839,-0.821453,-0.0721761,0.192489,0.595682,0
0.0405566,-0.3262,-0.852246,-0.0294535,0.178648,0.555328,0
-0.179614,-0.339631,-0.809057,0.0316915,0.14461,0.491016,0
-0.373223,-0.353999,-0.671631,0.0872117,0.108737,0.404051,0
-0.387858,-0.351923,-0.506724,0.106754,0.0336902,0.260577,0
-0.243524,-0.318746,-0.448916,0.091182,-0.051526,0.128287,0
-0.0982287,-0.304426,-0.421239,0.120088,-0.133348,0.0256958,0
-0.11914,-0.339677,-0.379095,0.168567,-0.194467,-0.0225047,0
-0.27326,-0.295056,-0.322365,0.214963,-0.24491,-0.109817,0
-0.549334,-0.154483,-0.190721,0.241019,-0.241128,-0.204493,0
-0.690789,0.150651,0.00145959,0.227734,-0.239428,-0.349094,0
-0.513547,0.570637,0.109789,0.183898,-0.281192,-0.50394,0
-0.2359,0.651621,0.148869,0.162061,-0.319662,-0.530496,0
-0.132227,0.132643,0.153314,0.15758,-0.321755,-0.484795,0
-0.0532101,-0.422903,0.10801,0.139875,-0.3021,-0.531012,0
0.124041,-0.442771,0.0829939,0.122373,-0.215427,-0.648499,0
0.347121,0.158438,0.178727,0.125971,-0.105709,-0.678875,0
0.470314,0.854688,0.408323,0.131781,-0.00757658,-0.539971,0
0.429056,0.966177,0.610714,0.139184,0.0214444,-0.27318,0
0.429056,0.966177,0.610714,0.139184,0.0214444,-0.27318,0
0.283345,0.565825,0.688517,0.109219,-0.000172466,-0.057206,0
0.155275,0.0695273,0.581116,0.0439621,-0.0190018,0.0322844,0
0.144307,-0.163445,0.359826,-0.028912,-0.00460899,0.0359327,0
0.219769,-0.150642,0.234606,-0.0302607,0.0713337,0.0506408,0
0.288194,0.0304317,0.2889,0.0195952,0.152167,0.111748,0
0.343256,0.323606,0.460604,0.0477772,0.209055,0.182789,0
0.42114,0.643206,0.637124,0.0255931,0.239207,0.247131,0
0.497654,0.748457,0.795787,-0.011889,0.252731,0.338645,0
0.549378,0.598538,0.923212,-0.0478996,0.249975,0.420914,0
0.535915,0.222383,1.0125,-0.0782419,0.243215,0.482284,0
0.491977,-0.189255,1.04044,-0.0998138,0.239858,0.497303,0
0.421116,-0.501692,0.966396,-0.126177,0.21784,0.471375,0
0.290872,-0.656364,0.808033,-0.145382,0.186281,0.403455,0
0.152261,-0.702851,0.609001,-0.158286,0.160926,0.308415,0
0.11247,-0.685406,0.36912,-0.17132,0.131316,0.191739,0
0.113162,-0.564825,0.152999,-0.12997,0.103632,0.0988219,0
0.0601294,-0.372591,0.0075139,-0.0792692,0.0938148,0.0505515,0
-0.166099,-0.229457,-0.142917,-0.0736142,0.084743,0.0448177,0
-0.433628,-0.192634,-0.341158,-0.0707467,0.033141,0.00173438,0
-0.644386,-0.268017,-0.582324,-0.0458546,-0.0120186,-0.0804793,0
-0.79655,-0.203532,-0.617527,0.0383855,-0.0717238,-0.18638,0
-0.900367,-0.0738687,-0.501961,0.0689682,-0.0816163,-0.266506,0
-1.01108,-0.176435,-0.558359,-0.0392933,-0.0913829,-0.342775,0
-1.06242,-0.621884,-0.803915,-0.0927668,-0.159393,-0.426726,0
-1.04679,-0.816726,-0.997626,-0.111174,-0.160238,-0.554448,0
-0.87989,-0.523697,-0.987977,-0.0945582,-0.0793371,-0.677099,0
-0.585864,-0.0105354,-0.749439,-0.0635313,0.0139585,-0.694839,0
-0.233602,0.324951,-0.396425,-0.0527593,0.0798774,-0.602279,0
0.107252,0.328422,-0.112611,-0.0905131,0.0775796,-0.443236,0
0.441009,0.0739445,0.0562521,-0.102753,0.0466737,-0.281409,0
0.741339,-0.13667,0.1042,-0.136104,0.0553274,-0.139084,0
0.900562,-0.135371,0.0400954,-0.178744,0.0879687,0.0125921,0
0.863003,-0.0286652,-0.0923832,-0.178123,0.109468,0.189574,0
0.749258,0.0795145,-0.253981,-0.147653,0.115449,0.336611,0
0.601088,0.109851,-0.442068,-0.119314,0.1242,0.448364,0
0.429943,0.0134354,-0.618844,-0.086495,0.132598,0.542028,0
0.26734,-0.138563,-0.800032,-0.0661995,0.143055,0.586804,0
0.116767,-0.322804,-0.929002,-0.0173879,0.151729,0.589718,0
0.0265056,-0.435783,-0.931807,0.0627819,0.173185,0.541945,0
-0.0428797,-0.476227,-0.812327,0.12386,0.181158,0.484769,0
-0.0740503,-0.458822,-0.628669,0.167938,0.149742,0.396236,0
-0.0615102,-0.467362,-0.497083,0.178889,0.0853563,0.306968,0
-0.0237207,-0.355457,-0.477073,0.148424,0.00897306,0.196551,0
-0.0585632,-0.147832,-0.442564,0.1877,-0.0537187,0.12905,0
-0.18296,0.0454209,-0.343331,0.241898,-0.100481,0.0740854,0
-0.333045,0.0457405,-0.219454,0.242542,-0.134132,0.00821149,0
-0.312473,-0.0918177,-0.0884579,0.234157,-0.166514,-0.123098,0
-0.135514,-0.0982176,0.0394046,0.220669,-0.174713,-0.274275,0
0.0632871,0.323526,0.126753,0.201748,-0.189335,-0.388532,0
0.0420225,0.708218,0.170023,0.191647,-0.226241,-0.373166,0
0.0420225,0.708218,0.170023,0.191647,-0.226241,-0.373166,0
-0.261123,0.562279,0.139605,0.179695,-0.239157,-0.290952,0
-0.382422,0.142944,0.0205919,0.161376,-0.25716,-0.35345,0
-0.205258,-0.0519472,-0.0531004,0.15795,-0.182411,-0.484216,0
0.107223,0.250517,0.0801374,0.195915,-0.064247,-0.5325,0
0.210775,0.713696,0.409931,0.228058,0.0443967,-0.402191,0
0.0331129,0.75163,0.710604,0.244423,0.0572674,-0.172423,0
-0.211505,0.374359,0.799565,0.21663,-0.0255225,-0.0373284,0
-0.347343,-0.0932853,0.638237,0.11503,-0.103033,-0.0667942,0
-0.395402,-0.211718,0.471062,0.0596824,-0.0881334,-0.164928,0
-0.381614,-0.0856776,0.462502,0.0376828,0.0106385,-0.207028,0
-0.248263,0.20719,0.598334,0.0412742,0.0835253,-0.180771,0
-0.0653504,0.48939,0.822422,0.0613063,0.125783,-0.0715932,0
0.0994903,0.610706,1.06343,0.0621398,0.142199,0.0925288,0
0.259477,0.556567,1.24932,0.0162127,0.145689,0.232687,0
0.405285,0.363159,1.30765,-0.048638,0.134459,0.342118,0
0.469973,0.0547686,1.29007,-0.0773045,0.127953,0.430699,0
0.51517,-0.203867,1.2853,-0.0706342,0.131679,0.459303,0
0.555501,-0.366099,1.2654,-0.0653171,0.149546,0.454867,0
0.564979,-0.513259,1.16891,-0.0724841,0.154809,0.431356,0
0.521485,-0.619432,0.990878,-0.0687868,0.148931,0.389143,0
0.477538,-0.69072,0.761071,-0.0535309,0.135078,0.319691,0
0.448042,-0.643367,0.507873,-0.0391982,0.119308,0.226171,0
0.289734,-0.532148,0.297824,-0.0130087,0.129313,0.176142,0
0.0392309,-0.405347,0.133111,0.0442907,0.107235,0.12775,0
-0.263261,-0.165408,-0.108236,0.0369434,0.074833,0.0369173,0
-0.555726,0.112782,-0.375851,0.0248897,0.0555527,-0.0583062,0
-0.721666,0.281579,-0.511433,0.0609512,0.0217032,-0.161668,0
-0.784176,0.371737,-0.392073,0.133926,0.0184593,-0.234238,0
-1.03353,0.204473,-0.287967,0.106389,0.0481544,-0.261823,0
-1.50965,0.0114912,-0.431295,-0.0322287,-0.00173384,-0.323802,0
-1.70062,0.0501281,-0.667084,-0.137413,-0.108479,-0.533499,0
-1.2861,0.21613,-0.721874,-0.137003,-0.108436,-0.758731,0
-0.527061,0.420831,-0.379527,-0.058349,-0.00147898,-0.810632,0
0.0294325,0.474482,0.182207,-0.0690621,0.125241,-0.646958,0
0.262587,0.23868,0.572341,-0.167837,0.13977,-0.414491,0
0.359014,-0.0136095,0.533097,-0.314281,0.0646974,-0.261215,0
0.398281,-0.0313755,0.145488,-0.437123,0.0112222,-0.159041,0
0.361261,0.161048,-0.380303,-0.45447,-0.00353429,-0.038031,0
0.279386,0.406426,-0.751762,-0.333907,0.0270712,0.108759,0
0.197361,0.56709,-0.850939,-0.19092,0.0979268,0.263799,0
0.21427,0.588843,-0.754583,-0.0751632,0.131348,0.374836,0
0.339052,0.439632,-0.622145,-0.0264524,0.136959,0.460928,0
0.417003,0.134749,-0.575759,-0.0309346,0.127005,0.54582,0
0.36882,-0.154972,-0.62357,-0.0264652,0.0988857,0.593381,0
0.207073,-0.2778,-0.651892,0.0254689,0.0816753,0.593229,0
0.00643135,-0.283342,-0.562405,0.0920025,0.0701569,0.559779,0
-0.128863,-0.297478,-0.43185,0.117038,0.053665,0.479601,0
-0.168175,-0.237845,-0.289842,0.131906,0.0193069,0.358255,0
-0.0291147,-0.140714,-0.168251,0.14696,-0.0606171,0.208377,0
0.233341,-0.134299,-0.09652,0.145621,-0.136788,0.0800913,0
0.331827,-0.295026,-0.0603572,0.149913,-0.17682,0.0263709,0
0.331827,-0.295026,-0.0603572,0.149913,-0.17682,0.0263709,0
0.199584,-0.39889,-0.0208303,0.180883,-0.205468,-0.0203403,0
-0.0729558,-0.337594,-0.00220628,0.178713,-0.220522,-0.118017,0
-0.244763,-0.0770477,0.0319343,0.159585,-0.232208,-0.272459,0
-0.0975418,0.399235,0.116606,0.142684,-0.230564,-0.44639,0
0.284183,1.03898,0.163578,0.121495,-0.224376,-0.538419,0
0.395327,1.15057,0.244438,0.167218,-0.224971,-0.377993,0
0.0875617,0.400584,0.247615,0.202214,-0.227506,-0.19606,0
-0.200868,-0.55618,0.0998125,0.186064,-0.241003,-0.236786,0
-0.125339,-0.6465,-0.0380719,0.146053,-0.165743,-0.472677,0
0.238448,0.110987,0.0893658,0.160188,-0.0257387,-0.607025,0
0.41032,0.746657,0.503721,0.187744,0.111514,-0.467927,0
0.243029,0.686592,0.875116,0.216837,0.120416,-0.181786,0
-0.0220955,0.199606,0.933241,0.14509,0.0505517,-0.021979,0
-0.230082,-0.210943,0.685717,-0.0360929,0.0288674,-0.0235326,0
-0.273109,-0.328691,0.433255,-0.127202,0.06433,-0.0707829,0
-0.118756,-0.194052,0.325911,-0.106754,0.128846,-0.0677032,0
0.11366,0.0693655,0.413049,-0.0376739,0.18176,0.0236197,0
0.271267,0.3162,0.611005,-0.00446963,0.229619,0.182826,0
0.32026,0.521433,0.810767,-0.0120635,0.24635,0.344938,0
0.318816,0.596469,0.930638,-0.0511994,0.228674,0.466415,0
0.351827,0.411964,0.99608,-0.0792372,0.209961,0.538648,0
0.448609,0.0112779,1.0082,-0.105111,0.195102,0.557958,0
0.588569,-0.441426,0.989147,-0.110598,0.187932,0.530415,0
0.594508,-0.799482,0.923917,-0.110324,0.194331,0.484246,0
0.434859,-0.85522,0.766508,-0.132527,0.177375,0.400348,0
0.184682,-0.688879,0.5374,-0.142762,0.141694,0.303666,0
-0.152486,-0.522192,0.260029,-0.139835,0.096989,0.202815,0
-0.449262,-0.560689,0.0673353,-0.104892,0.0656444,0.0828614,0
-0.661295,-0.669794,-0.0707493,-0.0493836,0.0397767,-0.0465799,0
-0.89135,-0.690934,-0.213289,-0.0123092,0.0293307,-0.164254,0
-1.03315,-0.419399,-0.296983,0.0137871,0.0111517,-0.314463,0
-1.05894,0.0600632,-0.25161,0.0654685,-0.0275967,-0.447734,0
-1.04996,0.273674,-0.125829,0.0912429,-0.0619121,-0.469286,0
-1.05495,0.0417514,-0.180828,-0.00468878,-0.0926889,-0.469066,0
-1.01415,-0.38361,-0.375276,-0.0811019,-0.157266,-0.530548,0
-0.724416,-0.402915,-0.583439,-0.101189,-0.193347,-0.686777,0
-0.255817,0.000885582,-0.601261,-0.116394,-0.0740947,-0.75539,0
0.017302,0.499773,-0.350215,-0.0891477,0.065913,-0.61845,0
0.0234547,0.695145,-0.0541635,-0.115207,0.149337,-0.381156,0
0.00723722,0.638021,-0.0471992,-0.231713,0.11267,-0.200107,0
-0.0269973,0.492589,-0.360868,-0.325158,0.060405,-0.0614703,0
-0.070067,0.461521,-0.715103,-0.313557,0.0296761,0.0685917,0
-0.0667693,0.500728,-0.911169,-0.223233,0.0447256,0.192892,0
0.0254437,0.537512,-0.912475,-0.121896,0.0847695,0.310976,0
0.21948,0.490046,-0.789404,-0.0552594,0.10063,0.408766,0
0.442673,0.372726,-0.671351,-0.0486671,0.117304,0.486027,0
0.601368,0.251349,-0.621749,-0.0595198,0.127063,0.556161,0
0.564968,0.149937,-0.671471,-0.0662311,0.123549,0.627345,0
0.33068,0.0632036,-0.757114,-0.0541934,0.120489,0.67366,0
0.0513504,0.0254788,-0.775737,-0.0078323,0.118398,0.645696,0
-0.23558,-0.0905607,-0.74146,0.057569,0.104877,0.578442,0
-0.440712,-0.251229,-0.615219,0.122159,0.0660307,0.43822,0
-0.395216,-0.525359,-0.364953,0.170423,0.0139864,0.193456,0
-0.0441884,-0.690019,-0.119101,0.19916,-0.0450359,-0.0669013,0
0.315799,-0.555378,0.0736862,0.212092,-0.094895,-0.232254,0
0.160657,-0.380104,0.225713,0.212597,-0.107371,-0.212307,0
-0.326241,-0.100544,0.281402,0.182392,-0.152863,-0.213277,0
-0.734469,0.200821,0.198173,0.138579,-0.223071,-0.3343,0
-0.998922,0.3083,0.107209,0.088746,-0.271992,-0.470195,0
-0.944051,0.181918,0.070596,0.0892396,-0.30505,-0.630634,0
-0.621305,0.0431283,0.0645179,0.103235,-0.281663,-0.750661,0
-0.304821,0.0320444,0.161492,0.126296,-0.238314,-0.77297,0
-0.116473,0.129644,0.34052,0.134499,-0.15618,-0.693365,0
-0.0989281,0.322933,0.484182,0.112696,-0.0609696,-0.555221,0
-0.0533225,0.71698,0.608986,0.0796719,-0.0159252,-0.436909,0
0.182928,1.05954,0.703801,0.0526771,0.00693527,-0.314606,0
0.485825,0.978595,0.829765,0.0438904,0.0390947,-0.128806,0
0.690697,0.490608,0.979929,0.0444403,0.0614339,0.0354205,0
0.671273,-0.175895,1.08312,0.0373851,0.0709535,0.143653,0
0.462757,-0.688275,1.03083,-0.0161303,0.0667077,0.148415,0
0.16861,-0.891273,0.803806,-0.108415,0.0732616,0.0462185,0
-0.0844371,-0.771375,0.432113,-0.190315,0.0946421,-0.0845609,0
-0.17133,-0.272315,0.162652,-0.17968,0.123567,-0.173947,0
-0.077616,0.342549,0.109863,-0.0891705,0.165396,-0.157658,0
0.11216,0.684476,0.243793,-0.000256531,0.201775,-0.0257348,0
0.11216,0.684476,0.243793,-0.000256531,0.201775,-0.0257348,0
0.303382,0.654885,0.454879,0.0450177,0.205895,0.149028,0
0.461759,0.406063,0.625808,0.0418904,0.188066,0.303251,0
0.577122,0.0725744,0.731898,0.0250036,0.173328,0.424485,0
0.609403,-0.153909,0.754393,0.00562988,0.163092,0.499139,0
0.544134,-0.212405,0.70182,-0.0093772,0.155737,0.544308,0
0.405089,-0.148254,0.609229,-0.0219948,0.15452,0.57469,0
0.244389,-0.12563,0.511064,-0.0212579,0.152562,0.58481,0
0.139362,-0.269059,0.45786,0.0156437,0.146766,0.566591,0
0.144824,-0.398845,0.401843,0.044195,0.118055,0.476408,0
0.144481,-0.439186,0.35041,0.0724759,0.102179,0.381184,0
0.0794142,-0.450561,0.344182,0.124161,0.0712517,0.294668,0
-0.0106995,-0.439227,0.379626,0.160758,0.0278014,0.171492,0
-0.0811422,-0.445444,0.453182,0.151186,-0.00322628,0.0291926,0
-0.0370743,-0.410875,0.503506,0.117412,-0.0465853,-0.138143,0
0.0508089,-0.241298,0.508788,0.0992929,-0.0862205,-0.272954,0
-0.00547957,0.0817233,0.44489,0.0747799,-0.123333,-0.335229,0
-0.232849,0.466277,0.343356,0.044478,-0.154168,-0.353153,0
-0.602954,0.486357,0.15028,0.00972992,-0.175993,-0.34981,0
-0.959366,0.177738,-0.0386305,-0.0437116,-0.155503,-0.367635,0
-0.98515,0.0397209,-0.132132,-0.10827,-0.162286,-0.511284,0
-0.718585,0.0496291,-0.285786,-0.184482,-0.106997,-0.656645,0
-0.434722,0.132957,-0.387366,-0.198692,-0.0360385,-0.68943,0
-0.334633,0.366638,-0.375141,-0.185317,0.0566242,-0.627292,0
-0.287054,0.690965,-0.355606,-0.227956,0.178033,-0.528702,0
-0.0607147,0.850559,-0.282175,-0.25825,0.255321,-0.407607,0
0.300873,0.677133,-0.205927,-0.285862,0.273377,-0.245093,0
0.531768,0.288721,-0.161416,-0.314958,0.285679,-0.0434695,0
0.546484,-0.103854,-0.200831,-0.33915,0.266466,0.140741,0
0.465094,-0.348547,-0.366078,-0.345977,0.219113,0.244661,0
0.402663,-0.371069,-0.597887,-0.317762,0.181004,0.300394,0
0.377751,-0.167065,-0.823909,-0.274186,0.180275,0.347063,0
0.332802,0.170214,-1.00486,-0.232011,0.189889,0.40716,0
0.256319,0.360825,-1.1281,-0.179692,0.191699,0.480919,0
0.141033,0.25955,-1.17415,-0.0986568,0.180978,0.557571,0
0.029345,0.0115604,-1.13331,-0.03009,0.169694,0.589907,0
-0.0388729,-0.26204,-1.06884,0.0191115,0.148828,0.563253,0
-0.0639841,-0.49462,-1.00156,0.0548952,0.123394,0.504534,0
-0.0956105,-0.711703,-0.897335,0.099216,0.0929587,0.42457,0
-0.16821,-0.651115,-0.812659,0.0992226,0.0606412,0.327533,0
-0.302602,-0.348576,-0.822849,0.0797217,0.0111203,0.241614,0
-0.479061,0.0917607,-0.848282,0.0876151,-0.0665762,0.175864,0
-0.585609,0.377899,-0.784493,0.133726,-0.153853,0.124087,0
-0.557303,0.405815,-0.662607,0.164587,-0.251626,0.0606033,0
-0.466749,0.1935,-0.46698,0.214377,-0.343948,-0.000350773,0
-0.303915,0.0167011,-0.224082,0.26701,-0.429867,-0.0835798,0
-0.230018,0.000415145,0.0255716,0.284999,-0.450208,-0.125953,0
-0.329991,0.0206346,0.228778,0.267865,-0.452665,-0.133121,0
-0.474083,-0.0723908,0.355669,0.197258,-0.429287,-0.167506,0
-0.511077,-0.210929,0.410876,0.112629,-0.37433,-0.275144,0
-0.469503,-0.208828,0.45852,0.0565868,-0.306427,-0.39802,0
-0.393208,0.0495813,0.49326,0.0315164,-0.263765,-0.504854,0
-0.282027,0.339425,0.501371,0.0447566,-0.233112,-0.555456,0
-0.25537,0.641107,0.483561,0.0788366,-0.185589,-0.533736,0
-0.286551,0.820191,0.499113,0.0722995,-0.0852241,-0.497157,0
-0.286551,0.820191,0.499113,0.0722995,-0.0852241,-0.497157,0
-0.180933,0.706963,0.631416,0.0647917,0.0247952,-0.489,0
0.230127,0.56639,0.806578,0.0498479,0.0889924,-0.528391,0
0.706043,0.389434,0.853871,-0.0396263,0.150733,-0.483169,0
1.07627,0.321835,0.716683,-0.138957,0.220364,-0.349859,0
1.06879,0.275945,0.486484,-0.1186,0.236462,-0.134373,0
0.651221,0.155205,0.250574,-0.032177,0.214618,0.052798,0
0.0210505,-0.00152192,-0.00177005,0.0277645,0.188074,0.136563,0
-0.400566,-0.100185,-0.11344,0.0733005,0.194092,0.0765392,0
-0.373267,-0.117658,-0.0981618,0.10245,0.225779,-0.0589522,0
-0.0519765,0.0400985,0.0309204,0.129364,0.250987,-0.128022,0
0.198561,0.293215,0.243721,0.147694,0.268856,-0.0725104,0
0.200015,0.471359,0.443835,0.157255,0.258486,0.0851371,0
0.0519065,0.576842,0.583887,0.146734,0.211601,0.231564,0
-0.0693554,0.551684,0.658569,0.104452,0.165321,0.310143,0
-0.138472,0.383654,0.654915,0.0609176,0.129319,0.35287,0
-0.113857,0.105658,0.640986,0.0499757,0.102211,0.355478,0
0.0339186,-0.151287,0.670635,0.0605925,0.10463,0.336495,0
0.225893,-0.307089,0.730719,0.0665852,0.125893,0.322523,0
0.362523,-0.269587,0.811437,0.0826898,0.14206,0.324067,0
0.359838,-0.161746,0.866259,0.0764805,0.151133,0.350102,0
0.292297,-0.0671844,0.908035,0.0787507,0.131367,0.371254,0
0.212392,-0.105476,0.906227,0.0734262,0.109131,0.383412,0
0.133853,-0.249555,0.853386,0.0667685,0.0765227,0.367019,0
0.0940492,-0.377579,0.800243,0.0904383,0.0412194,0.308487,0
-0.00649973,-0.447247,0.775136,0.11081,0.041324,0.258512,0
-0.113172,-0.42669,0.760231,0.121769,0.0147285,0.174642,0
-0.170319,-0.245052,0.684887,0.115864,-0.0462428,0.0646921,0
-0.260801,-0.111434,0.563983,0.0992744,-0.0852669,0.00251991,0
-0.376211,-0.0792449,0.444,0.084106,-0.125421,-0.0536438,0
-0.455858,-0.131687,0.380016,0.097205,-0.149617,-0.122373,0
-0.518474,-0.234002,0.397224,0.108691,-0.148219,-0.194049,0
-0.513598,-0.295457,0.439859,0.0969242,-0.148665,-0.287569,0
-0.353125,-0.170413,0.461004,0.0732735,-0.15198,-0.392245,0
-0.273971,-0.0145385,0.431621,0.0296514,-0.150481,-0.408197,0
-0.450686,-0.0769044,0.306972,-0.0115114,-0.140054,-0.326656,0
-0.705411,-0.201696,0.100631,-0.0390287,-0.14287,-0.302799,0
-0.791143,-0.10899,-0.152808,-0.0854983,-0.126793,-0.37815,0
-0.614253,0.190379,-0.306028,-0.0673494,-0.0807301,-0.445603,0
-0.247601,0.558636,-0.204608,0.00224731,-0.00549908,-0.441963,0
0.201138,0.798326,0.0996561,0.0372178,0.0846219,-0.361291,0
0.614023,0.799391,0.418762,-0.0168637,0.158631,-0.234227,0
0.900044,0.56268,0.591503,-0.109468,0.176804,-0.0964357,0
0.992318,0.20172,0.534076,-0.19775,0.15479,0.0253304,0
0.90828,-0.0788305,0.269074,-0.281046,0.139362,0.0996848,0
0.741531,-0.171566,-0.104784,-0.333561,0.145388,0.128549,0
0.59427,-0.0489269,-0.432699,-0.293102,0.150434,0.144318,0
0.450273,0.196146,-0.598963,-0.186615,0.169444,0.19293,0
0.331472,0.566897,-0.657229,-0.116511,0.186439,0.242839,0
0.271577,0.78519,-0.642549,-0.0787183,0.187474,0.311023,0
0.28359,0.770136,-0.580332,-0.058923,0.175602,0.376365,0
0.307728,0.616546,-0.519263,-0.0509646,0.155501,0.434714,0
0.288689,0.345192,-0.453877,-0.0326674,0.125774,0.478952,0
0.263111,0.046072,-0.364184,0.00499148,0.0879489,0.490663,0
0.177035,-0.178167,-0.301266,0.0176671,0.0495903,0.479822,0
0.177035,-0.178167,-0.301266,0.0176671,0.0495903,0.479822,0
-0.00554358,-0.316948,-0.27787,0.0200731,0.013804,0.465437,0
-0.174304,-0.488583,-0.256427,0.0557488,-0.0410047,0.406296,0
-0.273344,-0.635878,-0.213615,0.0717152,-0.0718699,0.292298,0
-0.311891,-0.687876,-0.151551,0.0750412,-0.0961607,0.15232,0
-0.255617,-0.633309,-0.0931075,0.1206,-0.158095,-0.00401622,0
-0.204571,-0.499259,-0.0596869,0.1438,-0.197963,-0.127142,0
-0.227353,-0.322886,-0.027128,0.130256,-0.200387,-0.218797,0
-0.283325,-0.21836,0.00087612,0.124172,-0.214412,-0.308987,0
-0.276575,-0.130041,0.0225241,0.11103,-0.221003,-0.406736,0
-0.172679,0.0724011,0.0621177,0.116486,-0.219323,-0.486305,0
0.0409057,0.437126,0.106729,0.114888,-0.218578,-0.538525,0
0.142142,0.486742,0.170318,0.123488,-0.189818,-0.460612,0
0.11881,0.267057,0.229214,0.139648,-0.196594,-0.367633,0
0.116482,0.16362,0.193766,0.105209,-0.177182,-0.375378,0
0.225171,0.284589,0.172274,0.0693116,-0.113253,-0.419768,0
0.459731,0.553189,0.205588,0.057711,-0.0344321,-0.411845,0
0.651582,0.777692,0.336238,0.0740154,0.0411583,-0.275319,0
0.727552,0.874873,0.512982,0.0906092,0.0940922,-0.0871848,0
0.690268,0.772035,0.681432,0.0924511,0.115688,0.0942686,0
0.523887,0.439535,0.796043,0.0874215,0.121102,0.228566,0
0.276205,-0.0023777,0.797444,0.0593571,0.119249,0.294298,0
0.071815,-0.28115,0.722579,0.0318877,0.118906,0.266966,0
0.00420636,-0.246366,0.649475,0.0128162,0.149279,0.178219,0
0.00795938,-0.0418686,0.660321,0.023016,0.204817,0.134919,0
0.0731853,0.229305,0.766272,0.0461077,0.235078,0.144335,0
0.171863,0.38411,0.911045,0.0594134,0.245984,0.193339,0
0.283619,0.356467,1.02498,0.04915,0.241953,0.25457,0
0.408375,0.202579,1.1178,0.0384281,0.228756,0.294831,0
0.490519,0.0277081,1.18674,0.0277351,0.210484,0.327074,0
0.437849,-0.159294,1.23793,0.0339782,0.187495,0.373703,0
0.266284,-0.308986,1.23334,0.0254606,0.152942,0.394182,0
0.0365368,-0.448304,1.09702,-0.0266929,0.101818,0.362779,0
-0.19673,-0.590359,0.790353,-0.0928264,0.0261402,0.26571,0
-0.36694,-0.691125,0.421486,-0.110811,-0.0344371,0.136503,0
-0.454071,-0.487208,0.0671787,-0.0944216,-0.0732569,-0.027403,0
-0.540265,-0.0259573,-0.156819,-0.0348228,-0.0742842,-0.139803,0
-0.60958,0.336178,-0.188065,0.018647,-0.0457161,-0.189198,0
-0.540826,0.297216,-0.0688429,0.0527219,-0.0126543,-0.222236,0
-0.295486,-0.0862893,0.0601467,0.0559209,-0.0314783,-0.267645,0
-0.123387,-0.330683,0.0494488,0.0124251,-0.0852356,-0.30045,0
-0.276402,-0.348,-0.0754806,-0.0519659,-0.0953602,-0.266319,0
-0.690758,-0.307123,-0.323619,-0.116883,-0.0919537,-0.247692,0
-1.03561,-0.250592,-0.652167,-0.142263,-0.118816,-0.302773,0
-0.992546,-0.0368782,-0.873034,-0.106447,-0.111728,-0.447392,0
-0.606169,0.252362,-0.821536,-0.0370268,-0.0286136,-0.534235,0
-0.0922698,0.534564,-0.496596,0.022668,0.0742145,-0.497211,0
0.323772,0.6032,-0.0552712,0.00534047,0.174754,-0.362692,0
0.519027,0.340932,0.22521,-0.0702704,0.190467,-0.184032,0
0.540359,-0.0049106,0.235346,-0.17569,0.14175,-0.0610775,0
0.487113,-0.176578,0.0425635,-0.269821,0.114458,-0.00255823,0
0.457091,-0.034917,-0.273793,-0.318805,0.111968,0.0299072,0
0.453026,0.298888,-0.560072,-0.293455,0.123509,0.0968679,0
0.382027,0.604189,-0.741391,-0.228381,0.142378,0.223542,0
0.275123,0.696324,-0.822667,-0.176633,0.153849,0.355715,0
0.275123,0.696324,-0.822667,-0.176633,0.153849,0.355715,0
0.233314,0.600468,-0.874786,-0.155472,0.155934,0.438371,0
0.261337,0.396785,-0.933851,-0.147045,0.152312,0.474299,0
0.289418,0.188716,-1.00229,-0.131563,0.146094,0.492628,0
0.223114,-0.00683523,-1.03197,-0.0999923,0.134009,0.518502,0
0.0946415,-0.222053,-1.01844,-0.0599862,0.109215,0.524437,0
-0.0777649,-0.441711,-0.942421,-0.0143649,0.0784497,0.494417,0
-0.302306,-0.529863,-0.857909,0.00805216,0.0398933,0.405188,0
-0.426012,-0.597091,-0.758021,0.0531885,-0.0270436,0.269759,0
-0.316918,-0.657449,-0.707989,0.0715055,-0.105243,0.0889829,0
-0.122425,-0.73994,-0.609219,0.114119,-0.131599,-0.0494211,0
-0.00974637,-0.634848,-0.470061,0.165463,-0.160976,-0.147773,0
-0.158816,-0.389251,-0.365552,0.196447,-0.18215,-0.184086,0
-0.454727,-0.13425,-0.258923,0.211782,-0.216717,-0.212311,0
-0.589201,-0.0183558,-0.236009,0.163325,-0.251013,-0.307644,0
-0.39572,0.0503409,-0.219393,0.148172,-0.284431,-0.441437,0
-0.0324763,0.125923,-0.150191,0.172065,-0.28039,-0.500591,0
0.0390737,0.0566659,-0.017289,0.208524,-0.24219,-0.411511,0
-0.200644,-0.177664,0.0839946,0.23392,-0.250775,-0.317187,0
-0.353491,-0.267345,0.0655155,0.191665,-0.232313,-0.379627,0
-0.216455,-0.0345247,-0.0060315,0.117863,-0.159295,-0.498766,0
0.151472,0.477607,0.0367117,0.104933,-0.0677921,-0.51822,0
0.469932,0.945403,0.234515,0.141976,0.0331332,-0.366385,0
0.521126,1.02598,0.471167,0.17312,0.0817809,-0.0908214,0
0.328823,0.750445,0.665571,0.161999,0.0810028,0.137577,0
0.105516,0.268721,0.750763,0.148546,0.0550627,0.231285,0
0.0251112,-0.156882,0.760162,0.111151,0.05557,0.20682,0
0.0377695,-0.249617,0.802866,0.0765236,0.115807,0.128587,0
0.0756891,-0.112984,0.849224,0.047443,0.177693,0.0874706,0
0.13197,0.116312,0.95041,0.0581162,0.206271,0.0946638,0
0.205111,0.318668,1.11536,0.0677866,0.233462,0.132116,0
0.315607,0.433815,1.28565,0.0530112,0.251031,0.184437,0
0.448621,0.422615,1.41764,0.0116945,0.256079,0.240249,0
0.573856,0.326207,1.48327,-0.0437455,0.251065,0.295307,0
0.602236,0.136251,1.46443,-0.0778338,0.235617,0.359678,0
0.495011,-0.0435044,1.33609,-0.0979244,0.202,0.410432,0
0.271671,-0.148407,1.13617,-0.109224,0.169653,0.421474,0
-0.0779307,-0.26321,0.933326,-0.0935873,0.143377,0.418893,0
-0.404506,-0.381775,0.752258,-0.0710478,0.115581,0.339524,0
-0.546651,-0.370116,0.574449,-0.0655435,0.0815926,0.190242,0
-0.562601,-0.300162,0.381068,-0.0607467,0.0310402,0.0472611,0
-0.458777,-0.303664,0.226153,-0.0595965,-0.0171087,-0.0755309,0
-0.287794,-0.366496,0.0958024,-0.0516175,-0.0249925,-0.171738,0
-0.318878,-0.399565,-0.0473283,-0.0517033,-0.0135164,-0.199206,0
-0.575154,-0.318287,-0.153726,-0.0499535,-0.0283258,-0.221232,0
-0.73111,-0.0413,-0.184501,-0.0359683,-0.0668349,-0.314905,0
-0.70948,0.19461,-0.210905,-0.0749432,-0.0632082,-0.388743,0
-0.716561,0.0948002,-0.331981,-0.143275,-0.064851,-0.375549,0
-0.755779,-0.248185,-0.606538,-0.188997,-0.127289,-0.36228,0
-0.714965,-0.307136,-0.850042,-0.197212,-0.107633,-0.439518,0
-0.566767,-0.0846186,-0.920983,-0.18555,-0.00373442,-0.499992,0
-0.306548,0.312331,-0.760372,-0.149965,0.0968315,-0.485096,0
-0.0387574,0.603471,-0.408476,-0.118637,0.175369,-0.38575,0
0.241091,0.5632,-0.0870205,-0.125698,0.180217,-0.23395,0
0.516135,0.290559,0.00777597,-0.212297,0.145008,-0.11334,0
0.516135,0.290559,0.00777597,-0.212297,0.145008,-0.11334,0
0.707874,0.0562276,-0.127575,-0.298571,0.108502,-0.0216014,0
0.790275,-0.0340397,-0.374878,-0.338421,0.106467,0.0652717,0
0.814326,0.0069859,-0.627795,-0.315544,0.11741,0.153275,0
0.745566,0.145241,-0.816736,-0.258958,0.139799,0.25583,0
0.630044,0.329773,-0.954737,-0.213128,0.155634,0.347358,0
0.486595,0.440173,-1.08942,-0.196676,0.166617,0.430288,0
0.338717,0.381021,-1.22059,-0.177471,0.158242,0.495144,0
0.209749,0.164608,-1.32646,-0.156928,0.142633,0.53006,0
0.131554,-0.0865951,-1.39477,-0.123781,0.134317,0.526526,0
0.0882076,-0.290331,-1.34571,-0.0582064,0.128848,0.490302,0
-0.0107793,-0.388124,-1.20521,-0.00142292,0.111268,0.449492,0
-0.155622,-0.496031,-1.10241,0.0121441,0.0594678,0.3928,0
-0.24736,-0.633194,-0.998547,0.0600998,-0.00637826,0.293352,0
-0.262504,-0.76644,-0.926117,0.0837866,-0.0699862,0.160964,0
-0.264512,-0.841059,-0.85687,0.126068,-0.110327,0.0220995,0
-0.347336,-0.827022,-0.668537,0.199629,-0.129553,-0.0898601,0
-0.42422,-0.633503,-0.436638,0.249597,-0.152367,-0.222426,0
-0.525987,-0.290656,-0.173586,0.251374,-0.148345,-0.322494,0
-0.585352,-0.00494874,0.0700098,0.229031,-0.172791,-0.390308,0
-0.561547,0.0371653,0.109063,0.145367,-0.233938,-0.445934,0
-0.559132,-0.280207,0.0828173,0.104128,-0.271564,-0.447803,0
-0.517997,-0.675231,0.055842,0.104604,-0.272974,-0.488647,0
-0.414316,-0.724597,-0.00138038,0.0901468,-0.23567,-0.584974,0
-0.235193,-0.412232,-0.0703414,0.053168,-0.166727,-0.626449,0
0.00310201,0.157084,-0.0992968,0.0277555,-0.0898716,-0.603577,0
0.290048,0.760986,-0.0137381,0.0562033,-0.0241357,-0.471497,0
0.49874,1.06947,0.135416,0.0901933,0.0172586,-0.223333,0
0.515847,0.960731,0.301934,0.0968577,0.044635,0.0455453,0
0.43322,0.530249,0.453224,0.100012,0.0464123,0.217464,0
0.318246,-0.0349913,0.484273,0.0915479,0.0369718,0.288369,0
0.213592,-0.384834,0.469456,0.0923832,0.0333845,0.26948,0
0.159628,-0.332829,0.470695,0.0809089,0.067829,0.188522,0
0.141833,-0.0948835,0.483146,0.0762144,0.110462,0.141847,0
0.16946,0.156524,0.570277,0.106468,0.126477,0.136938,0
0.247635,0.302015,0.71242,0.127824,0.141479,0.153848,0
0.366839,0.306799,0.866104,0.125534,0.150994,0.194782,0
0.502933,0.23136,0.992716,0.107793,0.156496,0.227499,0
0.606484,0.152159,1.07726,0.0794276,0.160412,0.260037,0
0.588422,0.0382941,1.11027,0.0481949,0.15951,0.303919,0
0.46265,-0.100884,1.10697,0.018861,0.141049,0.326842,0
0.365374,-0.166624,1.10346,0.00359263,0.101774,0.291184,0
0.337346,-0.207053,1.00688,-0.0541788,0.0845551,0.233545,0
0.246456,-0.287999,0.813844,-0.113327,0.065046,0.197627,0
0.140676,-0.314845,0.585787,-0.129129,0.0177358,0.144404,0
0.124882,-0.272902,0.326583,-0.144685,-0.0215049,0.0516843,0
0.0447391,-0.23983,0.0227443,-0.17151,-0.0288591,-0.00556564,0
-0.184713,-0.261652,-0.242176,-0.160879,-0.0190665,-0.0157121,0
-0.423087,-0.219033,-0.465348,-0.148227,-0.00484693,-0.0687562,0
-0.587776,-0.123165,-0.561425,-0.116383,0.013064,-0.147674,0
-0.720864,-0.0695112,-0.532137,-0.0779907,0.0129115,-0.188837,0
-0.956561,-0.167705,-0.604836,-0.122744,0.0324199,-0.198663,0
-1.28979,-0.431138,-0.828539,-0.168682,-0.00271806,-0.23679,0
-1.39937,-0.513854,-1.13061,-0.199622,-0.0420777,-0.41046,0
-1.12601,-0.165543,-1.26917,-0.162802,-0.0224505,-0.605572,0
-1.12601,-0.165543,-1.26917,-0.162802,-0.0224505,-0.605572,0
-0.612582,0.378064,-1.10775,-0.086977,0.06709,-0.66553,0
-0.138718,0.704765,-0.700697,-0.048728,0.173086,-0.537203,0
0.117388,0.55114,-0.279239,-0.0572686,0.21846,-0.312749,0
0.248115,0.151122,-0.101959,-0.140585,0.186677,-0.152554,0
0.332652,-0.042378,-0.18035,-0.240645,0.136852,-0.0887547,0
0.40361,0.145827,-0.397311,-0.303194,0.12513,-0.0455906,0
0.440964,0.41333,-0.611914,-0.288112,0.126142,0.0662726,0
0.428577,0.569825,-0.737964,-0.230128,0.129816,0.217436,0
0.40901,0.55664,-0.815725,-0.181038,0.127521,0.343593,0
0.390073,0.366297,-0.869012,-0.151204,0.125277,0.43035,0
0.389134,0.140829,-0.934784,-0.137959,0.115295,0.470131,0
0.398346,-0.0339687,-1.03011,-0.13591,0.110725,0.485769,0
0.366415,-0.149896,-1.11952,-0.114831,0.106418,0.503088,0
0.228711,-0.248487,-1.189,-0.0896359,0.10279,0.524623,0
-0.018032,-0.426946,-1.19684,-0.0483776,0.0875712,0.524619,0
-0.206042,-0.616531,-1.11957,0.0069377,0.0502806,0.443447,0
-0.292971,-0.753016,-1.01698,0.0208156,0.028762,0.311466,0
-0.22465,-0.775388,-0.947854,0.0330703,-0.0357905,0.151631,0
0.0081966,-0.605844,-0.940224,0.0298934,-0.106246,-0.0196187,0
0.0430461,-0.596821,-0.911359,0.0550459,-0.126826,-0.0581555,0
-0.177481,-0.614208,-0.866494,0.131206,-0.179056,-0.0753232,0
-0.489019,-0.530231,-0.848027,0.15913,-0.207977,-0.148508,0
-0.702988,-0.304282,-0.752881,0.172897,-0.222223,-0.276196,0
-0.699914,-0.0608649,-0.595477,0.195175,-0.227753,-0.404364,0
-0.473825,0.210994,-0.423765,0.186898,-0.232325,-0.500423,0
-0.154664,0.421138,-0.335501,0.163841,-0.252181,-0.513047,0
-0.0726439,0.269411,-0.22963,0.212239,-0.253785,-0.357136,0
-0.244197,-0.101106,-0.128488,0.249208,-0.250608,-0.250247,0
-0.357112,-0.283653,-0.0722342,0.235823,-0.244441,-0.300637,0
-0.131426,-0.115765,-0.00185759,0.186891,-0.177416,-0.454961,0
0.358186,0.356436,0.206136,0.186428,-0.0797032,-0.492737,0
0.645746,0.746122,0.528527,0.210056,0.014821,-0.314329,0
0.596972,0.694438,0.789822,0.199803,0.0378994,-0.0535302,0
0.384316,0.308024,0.914512,0.160105,0.0076894,0.109241,0
0.220139,-0.1035,0.880776,0.10992,-0.0144278,0.130108,0
0.155122,-0.242805,0.786286,0.0448082,0.0184544,0.0660682,0
0.155431,-0.0674073,0.759655,0.0355403,0.0818108,0.00358963,0
0.21245,0.250458,0.830043,0.054179,0.134844,0.0110906,0
0.331477,0.48353,0.977045,0.070751,0.170318,0.0636084,0
0.470096,0.537178,1.16437,0.0736952,0.189824,0.154699,0
0.596734,0.445759,1.32887,0.0498949,0.201109,0.248798,0
0.691081,0.25328,1.43004,0.0172036,0.202481,0.320608,0
0.711912,0.0685227,1.45617,-0.0151311,0.195017,0.364601,0
0.640361,-0.0407345,1.40907,-0.0458284,0.184885,0.384661,0
0.493339,-0.107563,1.29783,-0.0678984,0.168135,0.388874,0
0.3019,-0.249119,1.11988,-0.0914038,0.149723,0.376564,0
0.108855,-0.42118,0.943685,-0.0906925,0.132605,0.325269,0
0.00431443,-0.414138,0.7969,-0.0713356,0.11626,0.208625,0
-0.0640822,-0.279605,0.649018,-0.0631716,0.0922108,0.10617,0
-0.105746,-0.163471,0.477366,-0.081444,0.0518405,0.027909,0
-0.201129,-0.22017,0.255537,-0.107325,0.0286901,-0.00930536,0
-0.375065,-0.311361,0.0212366,-0.108437,0.0149204,-0.0452331,0
-0.586329,-0.321263,-0.208263,-0.107261,0.0121418,-0.122327,0
-0.586329,-0.321263,-0.208263,-0.107261,0.0121418,-0.122327,0
-0.778298,-0.165222,-0.226971,-0.0663355,0.0205559,-0.214994,0
-0.792614,0.156601,-0.124071,-0.0537697,-0.00143191,-0.3245,0
-0.811268,0.118798,-0.158299,-0.119051,-0.00822827,-0.328299,0
-0.944559,-0.310708,-0.373435,-0.193043,-0.0739658,-0.314646,0
-0.973135,-0.539455,-0.688392,-0.254375,-0.10202,-0.438694,0
-0.778445,-0.218281,-0.908455,-0.264697,-0.0401093,-0.600687,0
-0.401772,0.379059,-0.873568,-0.204325,0.0589516,-0.644841,0
-0.105946,0.699856,-0.514361,-0.144308,0.174537,-0.496856,0
0.140973,0.533772,-0.100911,-0.128324,0.213189,-0.292829,0
0.374448,0.164822,0.0744772,-0.192952,0.180972,-0.145247,0
0.453345,-0.0311834,0.040947,-0.246788,0.141332,-0.0176479,0
0.44016,0.0240085,-0.111204,-0.267186,0.121943,0.0942037,0
0.419594,0.195142,-0.324592,-0.270497,0.11653,0.196971,0
0.440218,0.352422,-0.549081,-0.242659,0.104599,0.293496,0
0.474417,0.433454,-0.736334,-0.195835,0.104795,0.39741,0
0.438629,0.389518,-0.871179,-0.146853,0.119303,0.506003,0
0.316538,0.207248,-0.96872,-0.105826,0.124737,0.591525,0
0.146957,-0.0558098,-1.02825,-0.0731629,0.116628,0.627085,0
0.029075,-0.289376,-1.06091,-0.0285101,0.102128,0.59328,0
-0.049727,-0.387677,-1.07843,-0.000600912,0.0825936,0.508806,0
-0.0937258,-0.4025,-1.09885,0.00323901,0.0522238,0.41892,0
-0.117983,-0.454483,-1.04025,0.0730473,0.00583184,0.32811,0
-0.175666,-0.421957,-0.95334,0.115176,-0.02588,0.237042,0
-0.327131,-0.342157,-0.831965,0.157695,-0.0648898,0.162509,0
-0.492402,-0.287513,-0.648737,0.190139,-0.0963941,0.0623276,0
-0.545875,-0.196362,-0.469627,0.174635,-0.114523,-0.0808627,0
-0.492971,-0.109897,-0.349959,0.143107,-0.13916,-0.20419,0
-0.421986,-0.0787967,-0.288786,0.120899,-0.179447,-0.297274,0
-0.414743,-0.0367665,-0.196874,0.126932,-0.195736,-0.359625,0
-0.418115,0.12734,-0.0579665,0.123975,-0.194562,-0.418439,0
-0.311272,0.451254,0.0275199,0.0972597,-0.214787,-0.477359,0
-0.241399,0.401237,0.0644098,0.091602,-0.224945,-0.419788,0
-0.25185,0.0400726,0.103023,0.111057,-0.235539,-0.367108,0
-0.210239,-0.173981,0.106679,0.0948002,-0.205596,-0.412601,0
-0.0682158,-0.115265,0.128397,0.0849516,-0.158941,-0.492559,0
0.2077,0.113918,0.192005,0.0673373,-0.077711,-0.497004,0
0.460036,0.469682,0.304243,0.0627824,-0.00434028,-0.393657,0
0.493264,0.654916,0.394782,0.0750408,0.0281393,-0.175459,0
0.373158,0.588165,0.448918,0.0754676,0.0334477,0.00773704,0
0.237394,0.285093,0.477176,0.0745652,0.0252255,0.104323,0
0.196066,-0.0736236,0.498236,0.100612,0.0271049,0.113918,0
0.211816,-0.253218,0.584286,0.106454,0.0684317,0.080016,0
0.215936,-0.202914,0.703681,0.0989878,0.129304,0.0501468,0
0.255895,-0.00704395,0.802022,0.0880954,0.146706,0.0339034,0
0.365892,0.219419,0.884484,0.0788716,0.151833,0.0490345,0
0.464606,0.357595,0.970469,0.0677182,0.165489,0.129057,0
0.511996,0.386413,1.04846,0.0506746,0.174541,0.226462,0
0.532078,0.316419,1.09624,0.0224735,0.183551,0.303859,0
0.510371,0.163691,1.09124,-0.00490826,0.182585,0.364918,0
0.448023,-0.00842315,1.00626,-0.0274598,0.16726,0.393677,0
0.338664,-0.142907,0.855891,-0.0404563,0.149998,0.393226,0
0.188133,-0.19544,0.709594,-0.0236567,0.13647,0.379471,0
0.0466574,-0.203313,0.655909,0.0146926,0.144147,0.332324,0
-0.00368407,-0.201927,0.660457,0.034111,0.142406,0.248837,0
-0.00368407,-0.201927,0.660457,0.034111,0.142406,0.248837,0
0.0279544,-0.231705,0.647249,0.0417213,0.107802,0.173041,0
-0.0173024,-0.240007,0.582803,0.0363069,0.0706798,0.131135,0
-0.249139,-0.26836,0.425172,0.00210076,0.0379673,0.092153,0
-0.457263,-0.326416,0.196433,-0.0286754,-0.005373,-0.00734591,0
-0.521073,-0.341971,-0.0509085,-0.0298676,-0.0308882,-0.134969,0
-0.581263,-0.197034,-0.141394,-0.00967004,-0.00473058,-0.240859,0
-0.600062,0.113617,0.00306581,0.0428658,-0.00107169,-0.319185,0
-0.649033,0.225055,0.11052,-0.00252326,0.00499278,-0.312784,0
-0.845404,-0.151609,-0.0567423,-0.110902,-0.0657878,-0.270039,0
-0.954399,-0.49728,-0.502594,-0.200913,-0.16048,-0.371898,0
-0.929621,-0.358289,-0.875616,-0.203153,-0.145393,-0.517496,0
-0.641028,0.107692,-0.875099,-0.115949,-0.0317793,-0.602386,0
-0.22693,0.629642,-0.557004,-0.0421777,0.0804161,-0.564293,0
0.0921707,0.783355,-0.133057,-0.0437249,0.153346,-0.388382,0
0.295656,0.488908,0.0727354,-0.123899,0.129748,-0.189262,0
0.431195,0.134728,-0.0470806,-0.247324,0.0641171,-0.0795796,0
0.525814,0.037477,-0.321603,-0.301947,0.0270735,-0.0206192,0
0.564912,0.213777,-0.543479,-0.280356,0.0576866,0.0642424,0
0.500032,0.522922,-0.63982,-0.210992,0.0958461,0.190433,0
0.417548,0.721987,-0.646967,-0.154145,0.102215,0.316621,0
0.395106,0.656161,-0.630747,-0.119355,0.0875724,0.416435,0
0.455073,0.378298,-0.651757,-0.105801,0.0618915,0.469457,0
0.530806,0.0106742,-0.723211,-0.0865504,0.0375884,0.494495,0
0.536132,-0.293517,-0.805741,-0.0610977,0.0231266,0.503174,0
0.398589,-0.412847,-0.843764,-0.0328902,0.0312537,0.497191,0
0.209931,-0.392566,-0.830101,0.00420142,0.0267174,0.459851,0
0.0343923,-0.393268,-0.765534,0.0512559,0.00973195,0.408907,0
-0.100415,-0.358121,-0.690926,0.0769928,-0.0193975,0.333757,0
-0.132567,-0.258628,-0.673651,0.0670243,-0.0592175,0.205193,0
-0.122138,-0.233441,-0.644538,0.074121,-0.104535,0.084489,0
-0.131563,-0.313363,-0.508515,0.143531,-0.136066,0.00152719,0
-0.0349758,-0.369247,-0.228672,0.249681,-0.139692,-0.107664,0
0.0366137,-0.208523,0.0820879,0.280238,-0.138578,-0.197348,0
-0.11348,-0.0816805,0.287489,0.253027,-0.169898,-0.212,0
-0.261699,-0.0502261,0.28801,0.185563,-0.232526,-0.268863,0
-0.262158,0.0438499,0.201421,0.139694,-0.263444,-0.379774,0
-0.252455,-0.0683065,0.226289,0.155007,-0.242987,-0.41561,0
-0.223947,-0.20025,0.343018,0.183078,-0.200921,-0.444395,0
-0.171353,-0.257325,0.406199,0.168233,-0.151742,-0.458974,0
-0.030835,-0.201994,0.42242,0.13478,-0.0836226,-0.466579,0
0.221317,0.118741,0.518683,0.155612,-0.0166838,-0.442358,0
0.419913,0.495318,0.69526,0.19328,0.0509312,-0.32968,0
0.440392,0.586422,0.905759,0.220345,0.0878855,-0.12243,0
0.341737,0.314968,1.10216,0.231816,0.0830028,0.0471249,0
0.192923,-0.101239,1.1818,0.201792,0.067118,0.121238,0
0.0295021,-0.352185,1.1449,0.158464,0.0481254,0.11686,0
-0.0833241,-0.308244,1.01717,0.108819,0.0606818,0.0543276,0
-0.133286,-0.101865,0.907743,0.10105,0.0904953,0.0123806,0
-0.124047,0.104258,0.883755,0.114639,0.12152,0.0177448,0
-0.0361338,0.306632,0.915496,0.118559,0.149159,0.0425754,0
0.114659,0.408134,1.02464,0.132204,0.17144,0.106984,0
0.343731,0.475438,1.19804,0.128615,0.208004,0.17195,0
0.582555,0.511682,1.37431,0.0983093,0.250933,0.255121,0
0.690554,0.461771,1.48623,0.0554334,0.272898,0.361253,0
0.690554,0.461771,1.48623,0.0554334,0.272898,0.361253,0
0.668647,0.352842,1.49424,0.0214986,0.268033,0.451209,0
0.537406,0.171867,1.39154,-0.0191955,0.226256,0.493428,0
0.268576,-0.139256,1.23572,-0.0138537,0.182705,0.514711,0
-0.0353939,-0.403053,1.08359,0.0120472,0.122558,0.440426,0
-0.205355,-0.4104,0.949688,0.0193093,0.0815336,0.274079,0
-0.185641,-0.347736,0.764745,-0.00297922,0.0423534,0.0905316,0
-0.157999,-0.348624,0.577544,0.0122921,-0.000745028,-0.018407,0
-0.307431,-0.421533,0.427423,0.0327997,-0.00282267,-0.0622169,0
-0.566987,-0.442049,0.266163,0.0155227,0.00184619,-0.141097,0
-0.782944,-0.320931,0.143042,0.00824336,-0.0238431,-0.270988,0
-0.804501,-0.0499855,0.0935893,0.000675343,-0.0488171,-0.41417,0
-0.699124,0.271688,0.084296,-0.0473109,-0.0636782,-0.493447,0
-0.670457,0.18735,-0.0311747,-0.119093,-0.0608207,-0.427387,0
-0.667466,-0.167457,-0.29359,-0.163954,-0.115648,-0.376775,0
-0.527687,-0.248779,-0.567346,-0.15814,-0.137287,-0.447204,0
-0.241887,0.0463897,-0.684099,-0.117763,-0.0587472,-0.515572,0
0.018172,0.457486,-0.534745,-0.0412076,0.0376482,-0.455707,0
0.17903,0.712456,-0.223079,-0.0149813,0.13552,-0.315999,0
0.31142,0.65735,0.0602051,-0.0550591,0.174836,-0.171896,0
0.398324,0.365736,0.187362,-0.132567,0.163833,-0.0492448,0
0.39637,0.070331,0.105075,-0.215403,0.138818,0.0390602,0
0.339119,-0.0287227,-0.0935661,-0.252532,0.1118,0.0944421,0
0.287287,0.113601,-0.247433,-0.216967,0.108512,0.142103,0
0.230836,0.301857,-0.338753,-0.156216,0.12086,0.214239,0
0.203331,0.417956,-0.368671,-0.103139,0.112397,0.289996,0
0.236954,0.367398,-0.405506,-0.0574252,0.0911778,0.357647,0
0.263791,0.208248,-0.429477,-0.0266954,0.0826075,0.418144,0
0.231261,0.0123124,-0.454926,0.00217322,0.0836072,0.467273,0
0.0931024,-0.161192,-0.466218,0.0314247,0.0727919,0.49051,0
-0.0766107,-0.19457,-0.466852,0.0518727,0.0548721,0.456494,0
-0.182283,-0.16636,-0.431643,0.0562635,0.0214445,0.375716,0
-0.203535,-0.114123,-0.443988,0.0502259,-0.0240206,0.271325,0
-0.209491,-0.0361848,-0.451131,0.0745512,-0.0662959,0.171418,0
-0.192467,0.138091,-0.438423,0.0656038,-0.0885623,0.0506499,0
-0.147505,0.263745,-0.426383,0.0444525,-0.115272,-0.0597784,0
0.0681272,0.190633,-0.341205,0.0834159,-0.163913,-0.181813,0
0.36014,-0.07771,-0.137086,0.135333,-0.144571,-0.235241,0
0.398784,-0.199909,0.0991936,0.162603,-0.116925,-0.220078,0
0.148881,-0.0924901,0.249032,0.136826,-0.127624,-0.204174,0
-0.0579226,0.227955,0.229668,0.0724524,-0.167901,-0.26552,0
-0.0801791,0.667985,0.0745172,0.025539,-0.206436,-0.31995,0
-0.15293,0.616739,0.000480385,0.0721939,-0.214397,-0.225585,0
-0.258544,0.190634,-0.00383569,0.133092,-0.199134,-0.166628,0
-0.32796,-0.212825,0.0168131,0.175157,-0.184948,-0.210232,0
-0.245775,-0.161042,0.105367,0.180805,-0.114123,-0.337284,0
0.0328406,0.359578,0.287027,0.187378,-0.0278823,-0.393725,0
0.244613,0.848713,0.563509,0.201556,0.0536426,-0.276832,0
0.22552,0.839746,0.831128,0.216012,0.0605336,-0.0379805,0
0.144734,0.420257,1.04323,0.216342,0.0222177,0.114929,0
0.0699795,-0.115211,1.0985,0.184792,-0.00807491,0.152824,0
-0.0269622,-0.439088,1.00032,0.135162,-0.0233501,0.122408,0
-0.15602,-0.400733,0.915486,0.102601,0.0195842,0.0454785,0
-0.237541,-0.181036,0.883362,0.0998622,0.0783116,-0.015752,0
-0.150442,0.137926,0.934715,0.119127,0.114521,-0.0479192,0
-0.150442,0.137926,0.934715,0.119127,0.114521,-0.0479192,0
0.0484425,0.397732,1.03377,0.113209,0.155297,-0.0217944,0
0.258315,0.523012,1.16015,0.0932269,0.17362,0.0644473,0
0.476625,0.543586,1.28156,0.0774478,0.181107,0.15577,0
0.659685,0.445644,1.38159,0.042751,0.197175,0.235952,0
0.730928,0.262052,1.46054,0.029925,0.200579,0.31759,0
0.704956,0.0537477,1.49911,0.0133396,0.191397,0.363708,0
0.576716,-0.121979,1.46705,-0.0174982,0.179137,0.379022,0
0.403131,-0.227068,1.37191,-0.0567535,0.154983,0.356418,0
0.275374,-0.317871,1.21844,-0.093445,0.116008,0.294623,0
0.208465,-0.36143,0.937784,-0.143767,0.0785141,0.204414,0
0.151263,-0.324263,0.588563,-0.154953,0.0326149,0.123172,0
-0.0433431,-0.382974,0.255264,-0.123362,0.00740609,0.0890146,0
-0.353506,-0.434808,0.022529,-0.070781,0.0149319,0.0424142,0
-0.558557,-0.274154,-0.164365,-0.0431704,0.0195157,-0.0852267,0
-0.670745,-0.0908062,-0.366675,-0.0581808,0.0228713,-0.189224,0
-0.795079,0.0213187,-0.383479,0.0103387,-0.00443736,-0.220806,0
-0.932456,-0.0521284,-0.256327,0.0503299,-0.000449657,-0.229198,0
-1.0247,-0.290629,-0.202324,0.00365985,-0.0116783,-0.284262,0
-0.988635,-0.575319,-0.330917,-0.0739986,-0.0849132,-0.400305,0
-0.741722,-0.434051,-0.461529,-0.088097,-0.123255,-0.5491,0
-0.296683,0.0432479,-0.489652,-0.072146,-0.0808785,-0.63634,0
0.0580849,0.471257,-0.299144,-0.0448586,0.0155608,-0.555406,0
0.171372,0.558889,-0.0291913,-0.0578642,0.0929944,-0.350111,0
0.267119,0.336874,0.0609064,-0.133364,0.096362,-0.220463,0
0.326636,0.0879711,-0.0420242,-0.226351,0.0876121,-0.145409,0
0.342572,0.0480187,-0.190095,-0.26677,0.0989084,-0.0899797,0
0.399915,0.281204,-0.370081,-0.274817,0.114818,-0.0422882,0
0.483327,0.59625,-0.504707,-0.234481,0.130433,0.057273,0
0.532215,0.763285,-0.58075,-0.187769,0.147356,0.214027,0
0.595076,0.760962,-0.644286,-0.158495,0.147361,0.353169,0
0.657365,0.600486,-0.74027,-0.151676,0.143678,0.453778,0
0.646486,0.357722,-0.847101,-0.136475,0.144565,0.533421,0
0.554932,0.0652535,-0.930563,-0.0864427,0.151084,0.587378,0
0.428158,-0.130667,-0.962804,-0.0398729,0.145195,0.590475,0
0.278318,-0.220088,-1.00966,-0.0189879,0.132001,0.555457,0
0.0880135,-0.388345,-1.01427,0.0196567,0.110875,0.512883,0
-0.0923085,-0.64866,-0.897623,0.074634,0.0766631,0.435913,0
-0.22703,-0.823036,-0.808322,0.0878862,0.0176238,0.29253,0
-0.260917,-0.822154,-0.804298,0.10851,-0.0504058,0.116684,0
-0.327864,-0.586728,-0.720281,0.157119,-0.0827312,-0.00936824,0
-0.560772,-0.286937,-0.597419,0.161447,-0.0780448,-0.0685014,0
-0.709717,-0.0354355,-0.544824,0.132085,-0.130299,-0.169233,0
-0.695003,-0.0406248,-0.468881,0.141384,-0.163198,-0.266548,0
-0.637849,-0.171371,-0.318497,0.167123,-0.179532,-0.341344,0
-0.49823,-0.0842018,-0.195207,0.151035,-0.203833,-0.455634,0
-0.378645,0.00447596,-0.103656,0.141618,-0.217869,-0.505463,0
-0.341273,-0.00101963,-0.0273634,0.154228,-0.235549,-0.485182,0
-0.301628,0.00555215,0.00895139,0.130378,-0.214513,-0.479968,0
-0.150152,0.0554503,0.0532449,0.105622,-0.160809,-0.500583,0
0.171732,0.318341,0.137658,0.0962691,-0.0945774,-0.487742,0
0.422794,0.697972,0.276894,0.12304,-0.0308378,-0.349525,0
0.397042,0.799647,0.465232,0.149354,0.0148867,-0.0964933,0
0.247373,0.537042,0.659685,0.163372,0.0076794,0.0871658,0
0.103259,0.0267284,0.767379,0.154144,-0.0108547,0.163113,0
0.103259,0.0267284,0.767379,0.154144,-0.0108547,0.163113,0
0.0291072,-0.331213,0.74616,0.121875,-0.022581,0.13535,0
-0.00989503,-0.2533,0.713603,0.0807344,0.0168829,0.0553151,0
-0.0196041,-0.00618542,0.739135,0.0885322,0.0716857,0.0280315,0
0.031425,0.204195,0.859497,0.118513,0.106865,0.0476025,0
0.146713,0.301402,1.04298,0.130451,0.137187,0.107185,0
0.303622,0.30437,1.23217,0.122622,0.154125,0.183442,0
0.427426,0.23148,1.36625,0.091574,0.164006,0.265159,0
0.493464,0.079454,1.42334,0.0505635,0.163986,0.338451,0
0.471495,-0.17402,1.43208,0.0295602,0.165461,0.389329,0
0.438251,-0.349451,1.39218,0.0254474,0.14631,0.380735,0
0.424702,-0.334843,1.29321,0.0106765,0.13329,0.327599,0
0.353968,-0.319385,1.18571,0.0130628,0.126553,0.296859,0
0.245318,-0.377131,1.09172,0.031689,0.0971609,0.250639,0
0.152376,-0.363602,0.923989,0.0219012,0.0599823,0.169527,0
0.0046632,-0.273626,0.716909,0.0179638,0.0327235,0.0880012,0
-0.23853,0.0506724,0.428954,-0.000270385,-0.0227194,-0.0184565,0
-0.424239,0.299025,0.173555,-0.0130257,-0.0541583,-0.13645,0
-0.418146,0.244537,0.0978212,0.0235978,-0.0261149,-0.216955,0
-0.267237,-0.00526601,0.150232,0.0485088,0.010221,-0.271296,0
-0.0991937,0.0173426,0.197551,0.0333645,-0.0072698,-0.334613,0
-0.226104,0.232307,0.16654,-0.0380988,-0.0214379,-0.290935,0
-0.577698,0.193321,-0.0585732,-0.135764,-0.0417597,-0.217663,0
-0.926861,-0.0992028,-0.503942,-0.240785,-0.0847129,-0.236309,0
-0.83626,-0.288201,-0.778579,-0.21246,-0.105705,-0.392562,0
-0.308984,-0.186228,-0.770926,-0.139766,-0.0108032,-0.541532,0
0.196932,0.233481,-0.454599,-0.0894249,0.0943367,-0.519115,0
0.372286,0.441425,-0.0851887,-0.105271,0.178247,-0.331978,0
0.319183,0.286674,0.0036359,-0.176165,0.148408,-0.15164,0
0.198424,-0.00880317,-0.136303,-0.256376,0.0932916,-0.0542016,0
0.189935,-0.062021,-0.374247,-0.305634,0.0831672,-0.0486863,0
0.290379,0.194441,-0.62977,-0.306081,0.118252,-0.0231729,0
0.330277,0.460387,-0.74551,-0.226823,0.153854,0.106552,0
0.274002,0.555975,-0.734853,-0.152868,0.184241,0.277526,0
0.259739,0.455927,-0.697045,-0.119841,0.180972,0.396613,0
0.300601,0.222381,-0.735542,-0.113628,0.158458,0.465626,0
0.31332,0.0358921,-0.846357,-0.117239,0.148705,0.51245,0
0.249298,-0.0650207,-0.979806,-0.108314,0.150734,0.544657,0
0.0967067,-0.113324,-1.05436,-0.0662183,0.154981,0.566205,0
-0.0946936,-0.19312,-1.04584,-0.0172849,0.14839,0.563362,0
-0.282747,-0.320751,-1.00205,0.0270447,0.118978,0.515435,0
-0.429445,-0.453118,-0.912422,0.0445631,0.0781182,0.418283,0
-0.519535,-0.737474,-0.806748,0.0557591,0.0273454,0.296684,0
-0.427952,-0.962158,-0.721245,0.0631545,-0.0467337,0.0995255,0
-0.253454,-0.894401,-0.725149,0.0806574,-0.129742,-0.099825,0
-0.315592,-0.524186,-0.671616,0.134791,-0.15964,-0.189876,0
-0.586222,-0.0903371,-0.536313,0.165169,-0.176082,-0.225777,0
-0.724772,0.187439,-0.430372,0.152999,-0.215182,-0.301573,0
-0.650331,0.154368,-0.389268,0.127695,-0.263364,-0.401251,0
-0.378406,0.091615,-0.387917,0.101746,-0.307302,-0.512094,0
-0.0979521,0.136923,-0.328371,0.128513,-0.305882,-0.549346,0
-0.0794075,0.09467,-0.189856,0.18849,-0.276388,-0.458931,0
-0.211427,-0.0239492,-0.0788533,0.211616,-0.279101,-0.401561,0
-0.236474,-0.0589224,-0.0249092,0.189639,-0.262946,-0.453387,0
-0.0369639,0.0929013,0.0221807,0.131396,-0.180882,-0.528655,0
-0.0369639,0.0929013,0.0221807,0.131396,-0.180882,-0.528655,0
0.234298,0.46511,0.146025,0.140648,-0.0880378,-0.491072,0
0.460351,0.800454,0.369689,0.187684,-0.0219356,-0.320189,0
0.531071,0.807309,0.628637,0.20398,0.0371017,-0.0835144,0
0.511773,0.520496,0.88028,0.214181,0.0433732,0.0980064,0
0.457641,0.116061,1.05072,0.191024,0.0523135,0.191995,0
0.385773,-0.169654,1.1326,0.151872,0.0857536,0.214879,0
0.31892,-0.157269,1.20837,0.113341,0.127751,0.18792,0
0.309622,0.00317813,1.2334,0.0746919,0.163631,0.158251,0
0.335013,0.139652,1.25849,0.0664013,0.183258,0.168284,0
0.35294,0.221947,1.31597,0.0665354,0.208065,0.212216,0
0.38731,0.248662,1.4132,0.0695691,0.233652,0.252696,0
0.447227,0.148767,1.50742,0.0508107,0.24929,0.290091,0
0.554423,0.0210713,1.54039,0.030107,0.241212,0.30533,0
0.544875,-0.108049,1.4813,0.0146076,0.227273,0.338186,0
0.387925,-0.167644,1.33811,-0.00209414,0.204455,0.356374,0
0.163234,-0.175151,1.16358,-0.00716829,0.175702,0.328982,0
0.00754981,-0.112074,0.9662,-0.0065639,0.147752,0.251899,0
-0.102831,-0.014765,0.830966,0.0107116,0.139406,0.174881,0
-0.20866,0.0884039,0.767618,0.0322627,0.128824,0.118026,0
-0.296184,0.233072,0.708337,0.0215761,0.0953524,0.0613923,0
-0.321147,0.255149,0.58815,-0.0141382,0.0624292,-0.00247818,0
-0.35325,0.069125,0.466349,-0.0468824,0.0457965,-0.0485798,0
-0.385978,-0.112618,0.332649,-0.0623818,0.00340223,-0.125476,0
-0.474972,-0.0702805,0.21094,-0.0784886,-0.0146625,-0.213429,0
-0.651878,0.0757522,0.168556,-0.095311,-0.029026,-0.24619,0
-0.899893,0.0576645,0.0601236,-0.159375,-0.0248415,-0.261198,0
-1.07117,-0.0879756,-0.167628,-0.205718,-0.0662691,-0.3345,0
-1.09544,-0.142317,-0.445065,-0.22714,-0.0831299,-0.446364,0
-0.880218,0.12089,-0.617352,-0.222353,-0.0485393,-0.567826,0
-0.457168,0.522004,-0.607617,-0.203418,0.0246653,-0.616243,0
-0.122866,0.641815,-0.374473,-0.170142,0.117733,-0.492643,0
0.0942693,0.40866,-0.151053,-0.179578,0.144948,-0.336363,0
0.26685,0.131646,-0.163927,-0.25859,0.118086,-0.253437,0
0.392988,0.156177,-0.33583,-0.328875,0.0882295,-0.204048,0
0.545273,0.485015,-0.531408,-0.338583,0.0974552,-0.128387,0
0.683238,0.849701,-0.644286,-0.300337,0.128475,0.0231919,0
0.805425,0.991652,-0.671267,-0.247246,0.150615,0.208481,0
0.925174,0.879958,-0.682616,-0.21994,0.153754,0.370794,0
0.948308,0.594442,-0.732556,-0.212111,0.150617,0.5044,0
0.853069,0.272583,-0.859246,-0.20474,0.14461,0.593168,0
0.662015,-0.0233215,-1.02851,-0.18092,0.127949,0.641225,0
0.411742,-0.247454,-1.19882,-0.145809,0.109709,0.637089,0
0.154637,-0.29867,-1.31884,-0.10347,0.0960028,0.589065,0
-0.0783723,-0.402999,-1.32174,-0.0456851,0.0833667,0.52028,0
-0.209401,-0.608521,-1.26922,0.00461236,0.0376382,0.418258,0
-0.161942,-0.8646,-1.18019,0.0617124,-0.0309655,0.258867,0
-0.011219,-0.878953,-1.0198,0.126415,-0.0678388,0.0895526,0
0.0662573,-0.69106,-0.768194,0.174621,-0.0776528,-0.00890172,0
0.0144904,-0.354306,-0.549762,0.179098,-0.108497,-0.0763463,0
-0.205877,-0.112033,-0.434426,0.153594,-0.156482,-0.10127,0
-0.389535,0.00939384,-0.406734,0.124832,-0.226729,-0.162369,0
-0.427395,0.0631507,-0.430429,0.10639,-0.265569,-0.257514,0
-0.342347,0.0410755,-0.424949,0.0979038,-0.289109,-0.353451,0
-0.342347,0.0410755,-0.424949,0.0979038,-0.289109,-0.353451,0
-0.298517,-0.262461,-0.313234,0.136244,-0.265323,-0.377051,0
-0.3162,-0.725113,-0.173513,0.160686,-0.253694,-0.433265,0
-0.28226,-0.879114,-0.161797,0.104927,-0.233666,-0.565893,0
-0.0920199,-0.546224,-0.264722,0.0484323,-0.159317,-0.704817,0
0.113032,0.106868,-0.281568,0.0382147,-0.0504981,-0.703943,0
0.230884,0.690045,-0.107664,0.0874618,0.0485345,-0.549521,0
0.320001,0.921824,0.127104,0.148706,0.0925119,-0.296867,0
0.377815,0.788646,0.320825,0.163532,0.0942937,-0.0635761,0
0.298181,0.574902,0.439762,0.14933,0.0769077,0.104461,0
0.128884,0.282041,0.447699,0.116791,0.0727247,0.20962,0
-0.00950496,-0.0953957,0.452994,0.110785,0.0746391,0.239752,0
0.0251329,-0.24349,0.535232,0.118711,0.111968,0.181238,0
0.144211,-0.11703,0.634402,0.109232,0.168206,0.124052,0
0.240517,0.128787,0.768642,0.119044,0.192322,0.142476,0
0.300133,0.33857,0.961155,0.108272,0.226272,0.202116,0
0.380092,0.414178,1.10771,0.0682056,0.23886,0.270944,0
0.442953,0.324484,1.18553,0.0231258,0.230192,0.343741,0
0.447651,0.128855,1.19628,-0.0138299,0.217631,0.401162,0
0.412014,-0.0682646,1.15306,-0.0299887,0.195395,0.415812,0
0.305197,-0.16369,1.07459,-0.0293934,0.158472,0.401138,0
0.0642891,-0.12204,0.902362,-0.0470427,0.125154,0.379947,0
-0.331733,-0.0414142,0.650514,-0.0517655,0.0767331,0.346744,0
-0.702122,0.0830587,0.419454,-0.0431873,0.0140046,0.244095,0
-0.83618,0.321165,0.223627,-0.0253562,-0.049354,0.0714942,0
-0.776763,0.517045,0.0823678,-0.0141965,-0.0733575,-0.0744823,0
-0.503675,0.468396,0.0762801,0.00923316,-0.0804964,-0.175126,0
-0.359593,0.0680106,0.0775468,0.0233253,-0.0554869,-0.165713,0
-0.399592,-0.386746,0.0746729,0.0195619,-0.0781154,-0.165795,0
-0.36883,-0.538205,0.0373311,0.00168769,-0.0951993,-0.283742,0
-0.316684,-0.212159,-0.0312945,-0.00935505,-0.121213,-0.410475,0
-0.453062,0.157274,-0.19558,-0.0749234,-0.0906624,-0.407619,0
-0.693147,0.164719,-0.459869,-0.0927448,-0.10835,-0.344671,0
-0.740689,0.060348,-0.664127,-0.0677807,-0.0984186,-0.3808,0
-0.497641,0.0401489,-0.6328,-0.0281088,0.0126975,-0.482921,0
-0.0260607,0.194128,-0.449753,-0.0165916,0.119615,-0.522699,0
0.423244,0.490304,-0.100326,-0.0300692,0.225816,-0.449079,0
0.647483,0.480201,0.181638,-0.0629749,0.268814,-0.247509,0
0.71718,0.219476,0.220509,-0.121034,0.221935,-0.0561284,0
0.684643,-0.0122891,0.0923531,-0.212688,0.184561,0.0527135,0
0.637506,-0.0685051,-0.117027,-0.247872,0.154071,0.118641,0
0.548459,-0.00861477,-0.342833,-0.243786,0.147696,0.19538,0
0.398573,0.136818,-0.47542,-0.203041,0.146443,0.281825,0
0.209088,0.31313,-0.596778,-0.183927,0.140775,0.36047,0
0.0208588,0.382506,-0.750195,-0.185711,0.119624,0.426463,0
-0.0849925,0.282561,-0.910922,-0.183865,0.0965302,0.460353,0
-0.0945822,0.0783604,-1.02543,-0.162493,0.0969649,0.46531,0
-0.0524844,-0.0678326,-1.03406,-0.11799,0.0997657,0.443733,0
-0.0693665,-0.143154,-0.961838,-0.073675,0.107333,0.450488,0
-0.230077,-0.273246,-0.842266,-0.0317744,0.0823827,0.467365,0
-0.354525,-0.38152,-0.743444,-0.0298418,0.0212365,0.410208,0
-0.392226,-0.477762,-0.734758,-0.0255321,-0.0404819,0.297965,0
-0.413934,-0.419705,-0.820468,-0.0401126,-0.0992117,0.156246,0
-0.415586,-0.491821,-0.861574,0.000373885,-0.148569,0.0385011,0
-0.32937,-0.585411,-0.72662,0.117727,-0.161075,-0.110851,0
-0.32937,-0.585411,-0.72662,0.117727,-0.161075,-0.110851,0
-0.328127,-0.578521,-0.43967,0.217518,-0.142666,-0.2141,0
-0.406647,-0.393964,-0.132373,0.25762,-0.153626,-0.289444,0
-0.442061,-0.144633,0.0171749,0.201228,-0.18526,-0.378333,0
-0.319846,0.0694826,-0.0219191,0.115045,-0.228395,-0.468026,0
-0.119197,0.310022,-0.132333,0.107599,-0.265341,-0.502797,0
-0.0810466,0.308079,-0.165046,0.177449,-0.259166,-0.40221,0
-0.278481,0.126149,-0.163244,0.232738,-0.248411,-0.329472,0
-0.37146,0.0323651,-0.14934,0.211696,-0.224575,-0.387663,0
-0.055059,0.182957,-0.0807331,0.188912,-0.152817,-0.520621,0
0.43371,0.515609,0.121415,0.20192,-0.0613766,-0.500066,0
0.660683,0.753388,0.414873,0.199058,0.0316624,-0.276903,0
0.600238,0.688742,0.618195,0.172311,0.046408,-0.0216283,0
0.46878,0.290004,0.676446,0.152197,-0.0100132,0.117619,0
0.362638,-0.133172,0.664386,0.149909,-0.045044,0.143784,0
0.312168,-0.323544,0.666527,0.140769,-0.0234013,0.0807679,0
0.308744,-0.305677,0.683072,0.146447,2.25604e-05,0.0060069,0
0.328359,-0.243636,0.677973,0.133779,0.0180757,-0.0175731,0
0.408702,-0.276765,0.72203,0.133265,0.0442267,-0.0144471,0
0.606189,-0.389605,0.863963,0.13988,0.0717708,-0.000304341,0
0.945682,-0.563595,1.05702,0.118642,0.111397,0.0301273,0
1.26817,-0.709592,1.18904,0.094319,0.15252,0.103181,0
1.39873,-0.645901,1.20337,0.054749,0.156601,0.190899,0
1.30341,-0.398557,1.11931,0.0290041,0.166115,0.286071,0
1.00023,-0.0709243,0.982255,0.0034541,0.163441,0.365178,0
0.633699,0.0550251,0.855608,-0.0252271,0.152597,0.398482,0
0.470264,-0.0718649,0.762394,-0.0405734,0.130253,0.346064,0
0.545086,-0.306026,0.658979,-0.028732,0.100639,0.253587,0
0.650263,-0.484957,0.593612,-0.00755464,0.0757394,0.174961,0
0.67102,-0.518521,0.540796,-0.00158071,0.0618164,0.10567,0
0.600712,-0.51908,0.425482,-0.0260959,0.0365292,0.0358512,0
0.460196,-0.510785,0.214351,-0.0549562,0.0127058,-0.0475692,0
0.288857,-0.467638,0.0582738,-0.0581216,0.0184635,-0.133338,0
0.267029,-0.270939,-0.045793,-0.0443287,0.0123122,-0.241236,0
0.269254,0.16552,-0.121131,-0.0333877,-0.00722775,-0.306804,0
0.0551657,0.456868,-0.125747,-0.019333,0.00644082,-0.260939,0
-0.361431,0.249028,-0.17968,-0.0459074,0.0240512,-0.190694,0
-0.637202,-0.164122,-0.337485,-0.0826315,-0.0508287,-0.256667,0
-0.520153,-0.249954,-0.497751,-0.119553,-0.0705246,-0.428105,0
-0.0221993,-0.0697417,-0.39532,-0.075112,-0.0112406,-0.537139,0
0.647113,0.198992,-0.122498,-0.0367143,0.0830665,-0.512727,0
0.968404,0.333792,0.127675,-0.0374321,0.174456,-0.295639,0
0.729204,0.307187,0.248711,-0.0740683,0.207941,-0.0192196,0
0.198318,0.197705,0.14132,-0.159221,0.194492,0.150696,0
-0.118355,0.216847,-0.160504,-0.238358,0.145254,0.147836,0
-0.059935,0.33399,-0.449181,-0.252799,0.141199,0.0815413,0
-0.00524191,0.40356,-0.592667,-0.19955,0.179075,0.160872,0
-0.095973,-0.00220404,-0.632222,-0.101339,0.189961,0.328638,0
-0.0514388,-0.28473,-0.619944,-0.0603136,0.192237,0.339625,0
-0.0583671,-0.35911,-0.612154,-0.0770025,0.206375,0.352998,0
-0.198221,-0.522152,-0.59001,-0.0455836,0.202799,0.423892,0
-0.320301,-0.559672,-0.588788,-0.0264527,0.181199,0.434858,0
-0.356262,-0.476436,-0.569226,-0.0239848,0.164991,0.398238,0
-0.355166,-0.48046,-0.505143,-0.00301573,0.131915,0.361668,0
-0.290969,-0.493303,-0.444887,0.0148198,0.0729148,0.304475,0
-0.290969,-0.493303,-0.444887,0.0148198,0.0729148,0.304475,0
-0.297256,-0.628834,-0.404432,0.0483715,0.0242371,0.268509,0
-0.378078,-0.684333,-0.310386,0.061709,-0.0438878,0.20498,0
-0.505997,-0.676053,-0.239187,0.0496591,-0.0951211,0.121244,0
-0.565579,-0.553831,-0.269583,0.0114759,-0.147321,-0.0196714,0
-0.498442,-0.351083,-0.342115,-0.00287325,-0.188769,-0.172415,0
-0.336507,-0.172205,-0.317658,0.050543,-0.213599,-0.279709,0
-0.125767,-0.0295967,-0.21272,0.113833,-0.211798,-0.342551,0
0.0184644,0.20336,-0.0537779,0.14275,-0.185247,-0.365557,0
0.0270731,0.45559,0.0308549,0.140186,-0.178149,-0.331121,0
0.0234646,0.471982,0.00883383,0.175797,-0.205361,-0.300142,0
-0.083946,0.358238,-0.0438628,0.182519,-0.169832,-0.261323,0
-0.361827,-0.0382731,-0.0748971,0.15203,-0.108598,-0.226582,0
-0.511191,-0.167019,-0.0429987,0.163727,-0.05451,-0.301744,0
-0.24292,0.257676,0.0393401,0.167734,0.00854045,-0.431056,0
0.118317,0.784446,0.264131,0.186265,0.0828593,-0.369559,0
0.268267,0.890619,0.551982,0.212925,0.120669,-0.140528,0
0.192673,0.533328,0.733097,0.196134,0.0987982,0.0749086,0
-0.0357736,0.0132644,0.776335,0.16355,0.0663553,0.189174,0
-0.282458,-0.19387,0.669548,0.104774,0.0443709,0.184034,0
-0.40834,-0.139107,0.570457,0.065064,0.0681034,0.116491,0
-0.368608,0.026817,0.562242,0.0582744,0.0952458,0.070852,0
-0.26558,0.117854,0.63599,0.0487281,0.12838,0.084344,0
-0.119302,0.144764,0.745798,0.0418698,0.137862,0.129015,0
0.0528652,0.132852,0.843319,0.0357768,0.135126,0.174798,0
0.236804,0.108112,0.946905,0.0462689,0.133263,0.219319,0
0.367065,0.137546,0.960304,0.0207769,0.120525,0.252281,0
0.341387,0.151693,0.931231,0.00128797,0.108807,0.302644,0
0.209886,0.00541531,0.911558,0.0033799,0.0978085,0.33304,0
0.140093,-0.177995,0.858952,0.00204648,0.0695487,0.287811,0
0.106054,-0.352665,0.756671,-0.0148218,0.0369174,0.200454,0
0.0676739,-0.37419,0.602072,-0.0278791,0.0113962,0.102877,0
0.0653884,-0.226591,0.459635,-0.016158,-0.021076,0.00177616,0
0.0826955,-0.040442,0.408915,0.00607094,-0.0434954,-0.0696421,0
0.0475932,0.0251552,0.42974,0.00714583,-0.0201997,-0.0999225,0
-0.0202829,0.0316751,0.478355,0.00360925,-0.0114262,-0.129406,0
-0.0625787,0.00176575,0.433607,-0.0376428,-0.037559,-0.193974,0
-0.116778,0.144368,0.391418,-0.0549267,-0.0503717,-0.244974,0
-0.174453,0.352985,0.430281,-0.0386611,-0.0588926,-0.265188,0
-0.277494,0.442987,0.428868,-0.0791944,-0.0135666,-0.25525,0
-0.532107,0.19826,0.331403,-0.139945,0.0304807,-0.208732,0
-0.963073,-0.146115,0.133264,-0.197923,0.0579588,-0.174874,0
-1.14388,-0.223002,-0.115488,-0.258608,0.0596553,-0.290853,0
-0.894937,0.0265258,-0.278758,-0.27603,0.115387,-0.435208,0
-0.502179,0.394359,-0.226868,-0.249893,0.209088,-0.41863,0
-0.240687,0.632041,0.0544862,-0.222062,0.266673,-0.25578,0
-0.104384,0.536268,0.282879,-0.247573,0.250269,-0.0624827,0
-0.0833809,0.234712,0.256714,-0.324553,0.180972,0.0837228,0
-0.0778875,0.0755989,-0.0207045,-0.413089,0.0830845,0.143288,0
-0.0605763,0.108237,-0.459508,-0.424989,0.0095875,0.186536,0
-0.117492,0.214438,-0.858925,-0.355904,-0.00321066,0.261582,0
-0.245182,0.289269,-1.09968,-0.250803,0.0179245,0.353835,0
-0.33372,0.230109,-1.20579,-0.159798,0.0448738,0.410855,0
-0.333972,0.0246648,-1.21042,-0.0871399,0.0668805,0.434012,0
-0.258046,-0.185747,-1.12887,-0.0323401,0.0647666,0.422128,0
-0.258046,-0.185747,-1.12887,-0.0323401,0.0647666,0.422128,0
-0.192648,-0.301774,-1.08059,-0.0229509,0.0579709,0.398897,0
-0.155928,-0.290993,-1.04411,-0.0185873,0.0279875,0.355678,0
-0.145888,-0.176632,-1.04031,-0.0174459,-0.00700197,0.321557,0
-0.16807,-0.0609469,-1.03488,-0.00392648,-0.0343861,0.297978,0
-0.189001,-0.0288107,-0.990895,0.0146547,-0.0509825,0.264283,0
-0.174765,-0.0925359,-0.897715,0.029238,-0.0806612,0.197544,0
-0.242236,-0.354243,-0.868073,0.0223767,-0.106133,0.125486,0
-0.353692,-0.538404,-0.829502,0.067937,-0.133903,0.0190506,0
-0.458322,-0.448316,-0.738071,0.113248,-0.158337,-0.106439,0
-0.581657,-0.202801,-0.582658,0.129305,-0.158729,-0.218326,0
-0.681404,0.0538882,-0.468007,0.0819725,-0.146759,-0.322306,0
-0.638522,0.364753,-0.460384,0.0187945,-0.172618,-0.448697,0
-0.46596,0.508247,-0.525379,0.00161376,-0.219386,-0.512365,0
-0.305985,0.276826,-0.524231,0.0460462,-0.223662,-0.477529,0
-0.227499,-0.0772492,-0.469558,0.0661111,-0.180086,-0.440641,0
-0.224597,-0.293971,-0.430128,0.0664488,-0.126788,-0.449803,0
-0.129729,-0.197954,-0.373032,0.0517428,-0.0602333,-0.50168,0
0.204534,0.161978,-0.222156,0.066545,0.0038954,-0.497514,0
0.555291,0.51903,-0.040997,0.111101,0.0324001,-0.355026,0
0.57198,0.580137,0.147215,0.117842,0.0659142,-0.103353,0
0.318655,0.347115,0.353021,0.122227,0.0532651,0.0830075,0
0.0317604,-0.100846,0.421794,0.0918942,0.0307475,0.145249,0
-0.0732704,-0.44269,0.297309,0.0458291,-0.013849,0.084563,0
-0.0313427,-0.500943,0.178336,0.0317568,-0.00867645,-0.00462884,0
0.0619502,-0.381471,0.228638,0.0589008,0.0696174,-0.0394525,0
0.153571,-0.158405,0.392165,0.113601,0.107923,-0.00722706,0
0.242023,0.0667791,0.582296,0.128219,0.123995,0.0518823,0
0.371432,0.215211,0.703152,0.101376,0.116751,0.125587,0
0.500844,0.23633,0.744479,0.0635179,0.105609,0.214244,0
0.595402,0.163141,0.773408,0.0415883,0.111063,0.29397,0
0.629531,-0.00813042,0.801787,0.0223685,0.12567,0.361283,0
0.624921,-0.15776,0.816053,0.00593459,0.134772,0.389193,0
0.593073,-0.225427,0.770657,-0.0106173,0.131877,0.395319,0
0.515888,-0.259225,0.689425,-0.0241674,0.122164,0.402251,0
0.348081,-0.375362,0.59547,-0.0363218,0.121374,0.40181,0
0.179741,-0.456193,0.500309,-0.0487122,0.100995,0.339831,0
0.0738039,-0.494629,0.351834,-0.0740988,0.0599572,0.214854,0
-0.0381663,-0.602634,0.143752,-0.100635,0.0209807,0.09286,0
-0.143391,-0.694856,-0.0302598,-0.0825497,0.00857475,-0.0300468,0
-0.245725,-0.50973,-0.166969,-0.0853244,0.0274282,-0.159829,0
-0.419156,-0.216386,-0.264997,-0.0869404,0.0419441,-0.223541,0
-0.614817,-0.0127571,-0.31265,-0.0670348,0.00847,-0.246026,0
-0.940925,-0.255703,-0.370559,-0.0846122,0.0132711,-0.251303,0
-1.24774,-0.509505,-0.544332,-0.169172,0.00419608,-0.343406,0
-1.33853,-0.487309,-0.813696,-0.186716,-0.0517546,-0.500381,0
-1.08624,-0.0340757,-1.00397,-0.144464,-0.0520267,-0.644395,0
-0.516266,0.61662,-0.829098,-0.0348348,0.0147554,-0.682421,0
0.144839,1.06175,-0.408835,0.0357883,0.105639,-0.541819,0
0.573904,0.98495,0.000540892,-0.00527042,0.150259,-0.271978,0
0.670911,0.479658,0.212448,-0.107488,0.136717,-0.0282781,0
0.515618,-0.0629613,0.130682,-0.233275,0.0880392,0.111659,0
0.287592,-0.301812,-0.252002,-0.347055,0.0355815,0.136205,0
0.0863017,-0.225636,-0.723682,-0.364749,0.019399,0.132489,0
-0.0218233,0.0302607,-1.0066,-0.271205,0.0565469,0.148341,0
-0.0218233,0.0302607,-1.0066,-0.271205,0.0565469,0.148341,0
-0.0766951,0.379864,-1.0779,-0.17464,0.111352,0.200882,0
-0.0812776,0.584359,-1.03833,-0.113231,0.129338,0.283975,0
-0.00228448,0.529502,-0.990283,-0.070183,0.104002,0.373207,0
0.0792605,0.350072,-0.951882,-0.0457802,0.0833722,0.441269,0
0.14015,0.0968007,-0.925368,-0.0192142,0.0830027,0.488763,0
0.122944,-0.116569,-0.899975,0.0133787,0.0737732,0.515429,0
-0.00702107,-0.271206,-0.81548,0.057815,0.0598673,0.536816,0
-0.181236,-0.329118,-0.718495,0.0633453,0.0579003,0.50707,0
-0.269523,-0.368217,-0.641592,0.0600192,0.0239769,0.417929,0
-0.237375,-0.472781,-0.538343,0.114061,-0.0240471,0.303608,0
-0.187788,-0.539381,-0.420005,0.149289,-0.0555837,0.193771,0
-0.231727,-0.591471,-0.351062,0.139858,-0.0818743,0.092166,0
-0.378334,-0.578124,-0.306804,0.157357,-0.10734,-0.0133422,0
-0.487158,-0.417371,-0.271613,0.177102,-0.140701,-0.167971,0
-0.597109,-0.217161,-0.188667,0.204978,-0.140521,-0.294623,0
-0.659235,0.0516356,0.0053237,0.229994,-0.136061,-0.419098,0
-0.537823,0.398019,0.116305,0.202351,-0.156068,-0.556699,0
-0.483479,0.468913,0.209496,0.212507,-0.18362,-0.561165,0
-0.544549,0.297767,0.237601,0.211729,-0.210083,-0.542844,0
-0.525306,0.0891922,0.229882,0.171436,-0.209598,-0.601155,0
-0.222361,0.200515,0.249295,0.108329,-0.127587,-0.714287,0
0.304158,0.705239,0.391982,0.139311,-0.0621498,-0.691172,0
0.66718,1.12273,0.684864,0.181319,0.0115684,-0.454817,0
0.767114,1.15505,0.999891,0.169963,0.0435206,-0.157003,0
0.717326,0.767416,1.21545,0.129291,0.0224016,0.0518966,0
0.602145,0.237176,1.28639,0.0829215,-0.0171198,0.130531,0
0.464762,-0.212628,1.17709,0.0328956,-0.0429906,0.136316,0
0.245554,-0.331733,1.03082,-0.00560524,-0.0323009,0.119178,0
0.0832837,-0.277233,0.922342,-0.0276327,0.0253441,0.0772746,0
0.114006,-0.162121,0.872773,-0.00787494,0.0536505,0.0428362,0
0.24883,-0.0380014,0.937804,0.0262128,0.0910362,0.0633292,0
0.423338,0.0713654,1.03638,0.0280322,0.127668,0.133991,0
0.551108,0.139095,1.12673,0.00819448,0.146834,0.229696,0
0.683646,0.0835745,1.12822,-0.0215771,0.146907,0.321158,0
0.79766,-0.0498139,1.07412,-0.0359227,0.143644,0.392471,0
0.802403,-0.162829,1.04468,-0.0238271,0.157747,0.450032,0
0.711631,-0.243516,1.02678,-0.0119043,0.175524,0.478645,0
0.553139,-0.26898,0.94325,-0.0222382,0.169521,0.473336,0
0.311181,-0.391809,0.75799,-0.0351908,0.14918,0.441853,0
0.0597912,-0.526928,0.532969,-0.0254136,0.11964,0.350763,0
-0.123717,-0.539786,0.336428,0.0144862,0.0958403,0.211357,0
-0.298872,-0.442027,0.186603,0.0715719,0.0793611,0.0811951,0
-0.397772,-0.310017,0.141159,0.130261,0.0871872,-0.058892,0
-0.400862,-0.137746,0.178938,0.132166,0.129529,-0.200419,0
-0.529276,0.00666161,0.25108,0.0860742,0.163085,-0.26441,0
-0.723304,0.13723,0.304209,0.0637567,0.0897605,-0.304313,0
-0.99323,0.135234,0.185769,-0.0224227,0.0276642,-0.34593,0
-1.33227,0.269983,-0.0900641,-0.123138,-0.012508,-0.395855,0
-1.54941,0.513242,-0.396427,-0.188797,-0.0682129,-0.480131,0
-1.35078,0.836937,-0.530306,-0.165543,-0.0752781,-0.587945,0
-0.77109,1.08759,-0.397744,-0.136561,-0.0265833,-0.611975,0
-0.129446,1.05573,-0.130102,-0.134098,0.0321172,-0.493162,0
0.255,0.673386,0.111991,-0.187859,0.0778613,-0.273743,0
0.255,0.673386,0.111991,-0.187859,0.0778613,-0.273743,0
0.406761,0.143765,0.195411,-0.274679,0.0814419,-0.108144,0
0.381513,-0.224304,0.0838635,-0.351581,0.0571794,-0.0242463,0
0.275808,-0.233402,-0.221449,-0.417325,0.0448252,0.00319856,0
0.245622,-0.0359354,-0.559234,-0.39066,0.03673,0.0333058,0
0.254103,0.227114,-0.723803,-0.283782,0.0547567,0.107671,0
0.210806,0.459871,-0.764049,-0.221911,0.0821114,0.228628,0
0.224009,0.52973,-0.777312,-0.187802,0.0732005,0.336219,0
0.309522,0.361858,-0.832847,-0.168292,0.0593122,0.42687,0
0.346398,0.128354,-0.904202,-0.141034,0.0596342,0.505797,0
0.301531,-0.0718635,-0.982,-0.119086,0.0641465,0.555435,0
0.175608,-0.206027,-1.0485,-0.0914202,0.0701415,0.567854,0
0.0252902,-0.313064,-1.07157,-0.0628854,0.0706889,0.541233,0
-0.0612281,-0.36543,-1.02275,-0.0260073,0.0610545,0.469218,0
-0.140493,-0.518369,-0.940586,0.00364054,0.0402738,0.393578,0
-0.144911,-0.855888,-0.873409,0.0431997,-0.00358346,0.287475,0
0.0264834,-1.05154,-0.833962,0.052903,-0.0563229,0.0933826,0
0.131003,-1.07814,-0.760563,0.0624008,-0.0549815,-0.0442125,0
-0.0520799,-0.85211,-0.697387,0.0983571,-0.0803163,-0.105347,0
-0.47681,-0.411065,-0.724033,0.0919201,-0.10939,-0.159269,0
-0.878495,-0.0859367,-0.757324,0.100677,-0.142163,-0.239948,0
-0.973571,0.0301874,-0.733371,0.118307,-0.171783,-0.366439,0
-0.7821,0.108956,-0.665634,0.133214,-0.181533,-0.493297,0
-0.556412,0.0581495,-0.506953,0.197203,-0.182795,-0.545556,0
-0.490583,-0.0478643,-0.35147,0.228064,-0.18239,-0.535935,0
-0.3854,-0.190379,-0.244463,0.229737,-0.189273,-0.562447,0
-0.0941914,-0.00573479,-0.153811,0.20327,-0.136054,-0.623406,0
0.324684,0.506245,0.0210634,0.21961,-0.0717883,-0.604694,0
0.609123,0.829105,0.288622,0.265753,-0.0105839,-0.386924,0
0.685353,0.799665,0.586647,0.281498,0.00980079,-0.139813,0
0.599812,0.396352,0.872981,0.285553,0.00454168,0.0400965,0
0.452262,-0.107854,1.02767,0.250275,0.0023606,0.104311,0
0.301225,-0.38642,1.04271,0.189013,-0.0178694,0.0821375,0
0.24433,-0.322102,1.02941,0.130252,0.0105921,0.00106078,0
0.269071,-0.173801,1.00167,0.0913354,0.0631078,-0.0359715,0
0.33677,-0.00566018,1.0585,0.0999747,0.0929551,-0.0118341,0
0.47101,0.149433,1.15369,0.102042,0.120408,0.0353835,0
0.634603,0.236865,1.26254,0.0932945,0.144769,0.11581,0
0.746462,0.247116,1.35409,0.0665237,0.159946,0.224312,0
0.820728,0.187681,1.39393,0.0240994,0.173226,0.309868,0
0.839816,0.0970111,1.37867,-0.0266215,0.182058,0.371929,0
0.803154,0.0540264,1.2716,-0.0720024,0.183768,0.406204,0
0.73283,-0.0186722,1.08071,-0.0901437,0.162532,0.421715,0
0.633947,-0.140387,0.893044,-0.0766553,0.154541,0.426677,0
0.453794,-0.293705,0.742001,-0.0714925,0.177057,0.414176,0
0.303547,-0.400148,0.589491,-0.0635292,0.173756,0.340062,0
0.228647,-0.445946,0.413213,-0.0498033,0.145707,0.225346,0
0.166066,-0.421372,0.256567,-0.0373099,0.122239,0.119438,0
0.0581871,-0.338335,0.140901,-0.0132048,0.106035,0.0264345,0
-0.132479,-0.216709,0.108197,0.00551319,0.107872,-0.0350058,0
-0.379558,-0.14299,0.0511912,-0.0147626,0.0979817,-0.096222,0
-0.587861,0.0265256,-0.0775918,-0.06305,0.0320339,-0.208432,0
-0.865781,0.122416,-0.268493,-0.1138,-0.0202896,-0.276994,0
-1.17138,0.154577,-0.502851,-0.174328,-0.0423633,-0.335338,0
-1.28936,0.197617,-0.735038,-0.196,-0.0682756,-0.44183,0
-1.28936,0.197617,-0.735038,-0.196,-0.0682756,-0.44183,0
-1.1599,0.370024,-0.853187,-0.186012,-0.0840142,-0.562645,0
-0.741182,0.628283,-0.832939,-0.159701,-0.0697829,-0.642032,0
-0.227242,0.845588,-0.653357,-0.122804,-0.00857836,-0.601122,0
0.18665,0.826597,-0.423414,-0.139673,0.0650677,-0.450761,0
0.432615,0.580243,-0.190164,-0.200473,0.0965257,-0.28953,0
0.555982,0.243646,-0.14629,-0.279941,0.0980888,-0.16357,0
0.582694,0.0870572,-0.286394,-0.354661,0.0701245,-0.0731984,0
0.607373,0.218585,-0.467073,-0.381909,0.0612287,-0.000460744,0
0.651855,0.458108,-0.691437,-0.377444,0.0801701,0.101347,0
0.653087,0.636281,-0.87581,-0.334991,0.099334,0.247192,0
0.627934,0.616657,-1.00987,-0.27336,0.111348,0.400104,0
0.578119,0.426487,-1.11302,-0.2233,0.130067,0.524118,0
0.51524,0.181605,-1.2012,-0.188855,0.141772,0.598567,0
0.405175,-0.0712204,-1.26347,-0.145949,0.142522,0.637281,0
0.277338,-0.351216,-1.21089,-0.0661983,0.137974,0.643014,0
0.199217,-0.529826,-1.07011,-0.00371367,0.118635,0.583762,0
0.113118,-0.729682,-0.966994,0.0192649,0.0834059,0.507671,0
-0.0462131,-0.95992,-0.868743,0.0810376,0.0179319,0.411877,0
-0.0958173,-1.1115,-0.801921,0.139079,-0.0459109,0.2591,0
-0.113262,-1.03077,-0.760156,0.176186,-0.0946699,0.0884037,0
-0.205645,-0.670095,-0.716303,0.197065,-0.13316,-0.0470884,0
-0.429311,-0.286689,-0.639635,0.247752,-0.156519,-0.114876,0
-0.678154,0.0108207,-0.554539,0.274695,-0.180013,-0.192371,0
-0.900506,0.176425,-0.462886,0.289669,-0.202531,-0.284996,0
-0.928813,0.332794,-0.381349,0.276628,-0.218234,-0.406982,0
-0.726324,0.301443,-0.235119,0.294889,-0.235955,-0.521184,0
-0.48152,-0.0757285,0.0172074,0.328447,-0.209596,-0.540139,0
-0.278061,-0.320259,0.215809,0.287238,-0.183239,-0.58093,0
-0.171817,-0.118837,0.289389,0.20008,-0.137591,-0.619789,0
0.0323475,0.29208,0.406044,0.170219,-0.0870235,-0.600521,0
0.407459,0.658479,0.63281,0.185891,-0.0343882,-0.509273,0
0.728639,0.751682,0.884833,0.174774,0.0187017,-0.313527,0
0.819396,0.553266,1.10037,0.135808,0.059037,-0.0862238,0
0.778725,0.16699,1.19385,0.101138,0.0504241,0.0558991,0
0.671641,-0.185247,1.13239,0.0394871,0.0407697,0.0988842,0
0.551383,-0.387123,1.0189,-0.00191454,0.0501605,0.0910639,0
0.473351,-0.356131,0.917373,-0.0173996,0.0953347,0.0585504,0
0.451002,-0.192941,0.867542,-0.0108211,0.152159,0.0457469,0
0.484386,0.0455233,0.879859,0.0063726,0.180554,0.0783069,0
0.541444,0.276886,0.926826,-0.000587333,0.220638,0.139169,0
0.602951,0.490011,0.978443,-0.0192735,0.243104,0.228008,0
0.630086,0.623237,1.01983,-0.0400469,0.255108,0.332121,0
0.619143,0.577257,1.02305,-0.0553009,0.263095,0.43152,0
0.558932,0.431966,1.01897,-0.0600577,0.255355,0.501664,0
0.406323,0.102129,1.00285,-0.0552991,0.234838,0.556386,0
0.196463,-0.2197,0.964963,-0.0436213,0.19065,0.547375,0
0.00901271,-0.453952,0.878706,-0.0445884,0.142808,0.468484,0
-0.133957,-0.582106,0.746063,-0.0452227,0.096849,0.335395,0
-0.220667,-0.622944,0.587025,-0.0228838,0.0481604,0.187384,0
-0.266325,-0.503449,0.427319,-0.00987513,0.0129634,0.0362557,0
-0.297136,-0.367547,0.362678,0.0389125,-0.0148143,-0.079043,0
-0.387191,-0.222984,0.391878,0.0739541,-0.020157,-0.141911,0
-0.570467,-0.117974,0.345222,0.0253981,-0.0359398,-0.201308,0
-0.736884,-0.0580852,0.163712,-0.0604575,-0.079076,-0.294119,0
-0.736884,-0.0580852,0.163712,-0.0604575,-0.079076,-0.294119,0
-0.821925,0.126841,-0.0574433,-0.0854276,-0.147062,-0.405965,0
-0.926457,0.268928,-0.234408,-0.0897086,-0.150688,-0.458758,0
-1.0197,0.248757,-0.361782,-0.0956139,-0.128274,-0.478085,0
-0.934842,0.0919893,-0.51044,-0.120086,-0.114408,-0.526852,0
-0.577585,0.124431,-0.560529,-0.110914,-0.0738233,-0.611222,0
-0.037649,0.410983,-0.419279,-0.0827909,0.016311,-0.610795,0
0.407219,0.708835,-0.109068,-0.072489,0.124194,-0.457265,0
0.555889,0.655245,0.15505,-0.10433,0.170408,-0.191889,0
0.470161,0.43025,0.12763,-0.222661,0.150191,0.00394469,0
0.253338,0.212029,-0.158596,-0.320942,0.115916,0.12121,0
0.0769817,0.172564,-0.518929,-0.34827,0.0968047,0.168266,0
0.0330195,0.23987,-0.72747,-0.284571,0.13029,0.20353,0
0.0496899,0.325296,-0.732096,-0.186599,0.169498,0.277799,0
0.0899821,0.327291,-0.663686,-0.124942,0.179898,0.367493,0
0.123727,0.161981,-0.637853,-0.0954118,0.170542,0.447868,0
0.132904,-0.0792364,-0.684853,-0.0852868,0.148547,0.50646,0
0.110244,-0.304798,-0.75749,-0.063255,0.14021,0.523467,0
0.0394107,-0.411145,-0.788831,-0.0212428,0.148028,0.517547,0
-0.0675815,-0.459708,-0.740919,0.0300689,0.160044,0.497154,0
-0.206492,-0.542712,-0.625663,0.0931168,0.148071,0.45145,0
-0.386366,-0.540807,-0.525642,0.117143,0.109969,0.371112,0
-0.607488,-0.621762,-0.455223,0.143325,0.0503983,0.282044,0
-0.726018,-0.557142,-0.446966,0.135583,-0.04618,0.109944,0
-0.616668,-0.379658,-0.491298,0.151522,-0.14049,-0.100252,0
-0.433559,-0.0718255,-0.428266,0.19938,-0.194267,-0.257191,0
-0.3752,0.165253,-0.247633,0.242649,-0.194087,-0.322326,0
-0.389554,0.292552,-0.0074363,0.272004,-0.212492,-0.347643,0
-0.414116,0.22169,0.170676,0.229315,-0.236675,-0.380318,0
-0.348177,0.196583,0.217951,0.1518,-0.26439,-0.458267,0
-0.0632899,0.461062,0.130841,0.100398,-0.313188,-0.562695,0
0.146449,0.582002,0.103972,0.126019,-0.305587,-0.510702,0
0.0523083,0.376308,0.20313,0.15458,-0.237337,-0.361559,0
-0.0711171,0.196709,0.264099,0.139353,-0.206003,-0.346048,0
0.0886448,0.284847,0.271969,0.0919555,-0.170625,-0.459857,0
0.456222,0.489117,0.423075,0.128278,-0.0962308,-0.472197,0
0.74351,0.649349,0.652835,0.137925,-0.00435142,-0.348419,0
0.736093,0.564431,0.82212,0.11372,0.0502245,-0.123878,0
0.504432,0.256855,0.890244,0.0873121,0.0528876,0.0474331,0
0.305559,-0.0346517,0.819759,0.0361075,0.0444872,0.0902507,0
0.250986,-0.0921457,0.71153,0.00204021,0.0727544,0.0489064,0
0.259596,0.0794954,0.720722,0.00382758,0.156428,0.0396096,0
0.302322,0.301338,0.813812,0.0215263,0.215308,0.0946372,0
0.35933,0.476153,0.961249,0.0277365,0.24065,0.182754,0
0.4416,0.54443,1.10238,0.0195326,0.260396,0.276288,0
0.547182,0.496162,1.24433,-0.00196069,0.266605,0.356401,0
0.615517,0.294667,1.3555,-0.0350194,0.267917,0.428088,0
0.595762,-0.00937646,1.37811,-0.0804621,0.2615,0.476225,0
0.507563,-0.28776,1.33318,-0.092273,0.230657,0.49217,0
0.423651,-0.419474,1.20868,-0.108134,0.185941,0.440094,0
0.293132,-0.419676,1.02909,-0.132701,0.146367,0.363599,0
0.0882428,-0.442799,0.856339,-0.135933,0.106198,0.29717,0
-0.0362539,-0.450831,0.679796,-0.140005,0.0555361,0.183444,0
-0.0549816,-0.453346,0.456364,-0.138867,0.000446975,0.0499689,0
-0.077551,-0.412506,0.19686,-0.13005,-0.0430721,-0.0479046,0
-0.077551,-0.412506,0.19686,-0.13005,-0.0430721,-0.0479046,0
-0.0917523,-0.321641,-0.0106503,-0.0909558,-0.0655398,-0.135405,0
-0.248841,-0.227039,-0.14809,-0.075461,-0.0491886,-0.178179,0
-0.594274,-0.168555,-0.242445,-0.0774618,-0.0359334,-0.181808,0
-0.794036,-0.0629038,-0.268923,-0.0707901,-0.0689017,-0.267275,0
-0.653289,0.104734,-0.276424,-0.0737394,-0.111987,-0.402271,0
-0.530373,0.183623,-0.336906,-0.123122,-0.0836252,-0.413823,0
-0.67347,-0.0283275,-0.480003,-0.150662,-0.0739888,-0.332934,0
-0.833482,-0.32013,-0.713401,-0.190297,-0.0763743,-0.344429,0
-0.655694,-0.203794,-0.862268,-0.188022,-0.0372553,-0.507923,0
-0.237984,0.232639,-0.803321,-0.162168,0.0819457,-0.572221,0
0.156356,0.555258,-0.545722,-0.127723,0.1847,-0.456724,0
0.337466,0.461082,-0.31832,-0.135211,0.216535,-0.214692,0
0.268587,0.119438,-0.2673,-0.207886,0.20592,-0.00751758,0
0.0441154,-0.137849,-0.410433,-0.2706,0.174519,0.123864,0
-0.0927532,-0.13538,-0.620473,-0.274405,0.12964,0.162312,0
-0.0617799,-0.00961826,-0.791982,-0.233556,0.115837,0.185926,0
0.025836,0.114802,-0.889336,-0.181989,0.108469,0.261403,0
0.146497,0.160664,-0.965276,-0.145984,0.099732,0.349155,0
0.260647,0.0888878,-1.04154,-0.119621,0.105764,0.440929,0
0.304286,-0.0192437,-1.09185,-0.0891475,0.118495,0.52128,0
0.236132,-0.142866,-1.13376,-0.0598319,0.12715,0.582789,0
0.111575,-0.18641,-1.17203,-0.0439439,0.124817,0.59052,0
-0.0314952,-0.254602,-1.12685,-0.0110922,0.125959,0.579733,0
-0.238649,-0.415112,-0.996636,0.0363788,0.104328,0.555461,0
-0.376923,-0.572369,-0.878135,0.0464498,0.0435067,0.453372,0
-0.325687,-0.758828,-0.885488,0.0189266,-0.0340249,0.267261,0
-0.208558,-0.915359,-1.01621,0.0152302,-0.115649,0.0683923,0
-0.320108,-0.792382,-1.05253,0.0995451,-0.142871,-0.0534562,0
-0.615474,-0.35989,-0.889439,0.212983,-0.150793,-0.132679,0
-0.816962,0.139412,-0.567848,0.269202,-0.14137,-0.241085,0
-0.803602,0.335248,-0.336347,0.23125,-0.170683,-0.338028,0
-0.702509,0.247873,-0.253673,0.177729,-0.235308,-0.376169,0
-0.446748,0.171295,-0.313982,0.0966911,-0.292762,-0.464672,0
-0.232404,0.00444558,-0.36259,0.0987394,-0.293151,-0.480696,0
-0.318279,-0.151574,-0.316708,0.157577,-0.259846,-0.430258,0
-0.445701,-0.144903,-0.256414,0.175381,-0.229986,-0.475303,0
-0.350964,0.0127163,-0.171678,0.152851,-0.158854,-0.577733,0
0.0118937,0.348081,0.0202718,0.145424,-0.073509,-0.635593,0
0.484678,0.726586,0.263946,0.140068,0.00343347,-0.56621,0
0.693285,0.812176,0.470682,0.136864,0.0415189,-0.306961,0
0.579672,0.585491,0.600717,0.108195,0.0516791,-0.0564828,0
0.331401,0.199539,0.615608,0.0733378,0.0348465,0.0860925,0
0.147709,-0.0803532,0.565782,0.0423607,0.0288104,0.110605,0
0.106314,-0.0849119,0.525547,0.0230738,0.0582239,0.0618982,0
0.14255,0.0372763,0.54712,0.0424854,0.101553,0.0531564,0
0.212934,0.156796,0.648184,0.0744051,0.133143,0.0926358,0
0.320512,0.261422,0.803699,0.077997,0.15883,0.146216,0
0.48474,0.274209,0.974736,0.0634431,0.180215,0.202929,0
0.667754,0.215588,1.10092,0.0266196,0.18073,0.263385,0
0.782098,0.121817,1.1835,-0.0139823,0.192474,0.335726,0
0.731254,-0.0337428,1.21347,-0.0556499,0.205558,0.413318,0
0.568112,-0.156633,1.17468,-0.0806618,0.199202,0.456602,0
0.421912,-0.240395,1.03752,-0.101798,0.162907,0.435872,0
0.311619,-0.284364,0.842753,-0.113896,0.127775,0.380936,0
0.311619,-0.284364,0.842753,-0.113896,0.127775,0.380936,0
0.164665,-0.360337,0.676416,-0.115632,0.109596,0.327434,0
0.0283719,-0.501398,0.512543,-0.104516,0.0904455,0.251755,0
-0.0831994,-0.557049,0.389576,-0.0813705,0.0738536,0.145944,0
-0.166539,-0.465786,0.249314,-0.0524193,0.0380585,0.0249625,0
-0.285717,-0.310267,0.108576,-0.0396149,0.0193453,-0.0645284,0
-0.418081,-0.131015,0.0366284,-0.0287802,0.00821725,-0.138141,0
-0.553318,-0.0602759,-0.00556232,-0.038953,-0.013881,-0.18623,0
-0.608794,-0.0521146,-0.0829145,-0.0765982,-0.0749704,-0.259263,0
-0.63516,-0.0202421,-0.203823,-0.120936,-0.137033,-0.335513,0
-0.859237,-0.21889,-0.437985,-0.180745,-0.136437,-0.341462,0
-1.08853,-0.381019,-0.740295,-0.229479,-0.185643,-0.420772,0
-0.996323,-0.232767,-1.05015,-0.254573,-0.177509,-0.600834,0
-0.503934,0.24787,-1.08081,-0.190647,-0.107197,-0.745536,0
0.170422,0.698932,-0.757911,-0.0822812,0.0103231,-0.718924,0
0.604915,0.693978,-0.309515,-0.0577838,0.098228,-0.487954,0
0.810295,0.276318,-0.0495215,-0.136849,0.0794391,-0.266709,0
0.953036,-0.166062,-0.144319,-0.248506,0.00450909,-0.168961,0
1.04455,-0.345186,-0.457101,-0.290285,-0.0442186,-0.113505,0
1.01842,-0.249753,-0.742488,-0.270771,-0.0101271,-0.024705,0
0.985135,-0.0876343,-0.84579,-0.198248,0.0556446,0.0795337,0
1.05515,0.0137492,-0.820545,-0.137386,0.115704,0.171403,0
1.17139,0.0272904,-0.779654,-0.105707,0.163629,0.271977,0
1.2104,-0.0260608,-0.784332,-0.0890154,0.196427,0.392693,0
1.12827,-0.127411,-0.832097,-0.0741575,0.227134,0.509248,0
0.907004,-0.175666,-0.847165,-0.0518211,0.250385,0.606673,0
0.600658,-0.159008,-0.797318,-0.0150662,0.269491,0.670465,0
0.280215,-0.170121,-0.665182,0.036915,0.26799,0.701024,0
-0.0141804,-0.269239,-0.497038,0.0621667,0.227343,0.683548,0
-0.236576,-0.464677,-0.361096,0.079108,0.159067,0.614348,0
-0.266291,-0.656826,-0.282443,0.0780893,0.0652804,0.440945,0
-0.172578,-0.750317,-0.271143,0.0682208,-0.0317485,0.232884,0
-0.187654,-0.845912,-0.223629,0.100683,-0.0920253,0.079524,0
-0.224645,-0.662961,-0.248755,0.0984681,-0.154346,-0.096094,0
-0.285848,-0.272383,-0.339127,0.0973754,-0.203146,-0.250797,0
-0.329679,0.166199,-0.369874,0.112783,-0.220419,-0.375208,0
-0.351391,0.563453,-0.306673,0.144078,-0.196896,-0.437032,0
-0.385609,0.823107,-0.149793,0.201338,-0.217177,-0.427856,0
-0.433445,0.590679,-0.0123811,0.19253,-0.208277,-0.394198,0
-0.388005,0.0217144,-0.0355204,0.129777,-0.200033,-0.447729,0
-0.206831,-0.375144,-0.13829,0.0815678,-0.168935,-0.571937,0
0.110494,-0.0894102,-0.110023,0.0951843,-0.0591204,-0.656994,0
0.566325,0.583918,0.108053,0.155163,0.029158,-0.596548,0
0.759927,1.08231,0.416979,0.161366,0.114765,-0.337823,0
0.648688,1.09439,0.597547,0.120577,0.13081,-0.0395279,0
0.373826,0.599834,0.568897,0.0898089,0.0761575,0.162931,0
0.0202251,-0.018714,0.420564,0.0837603,0.0313809,0.241718,0
-0.297383,-0.255007,0.320206,0.0786258,0.0558731,0.19974,0
-0.432791,-0.217229,0.23723,0.0539641,0.119174,0.116501,0
-0.407057,0.0178158,0.285257,0.0517886,0.143683,0.0843632,0
-0.259931,0.256652,0.409018,0.0439125,0.177641,0.0994185,0
-0.0154757,0.399694,0.570464,0.0384,0.196671,0.15408,0
0.193231,0.364642,0.73381,0.0290416,0.204083,0.259608,0
0.295403,0.181214,0.858742,-0.000353433,0.188984,0.353382,0
0.323044,-0.0154309,0.871594,-0.0250656,0.155024,0.395084,0
0.323044,-0.0154309,0.871594,-0.0250656,0.155024,0.395084,0
0.314582,-0.114305,0.856969,-0.0264553,0.129593,0.392517,0
0.306283,-0.0604116,0.795818,-0.0492628,0.116437,0.356988,0
0.198912,0.00268486,0.726521,-0.0517523,0.0871614,0.332733,0
-0.0272539,-0.0757749,0.634108,-0.037699,0.0380143,0.308602,0
-0.0557998,-0.242924,0.592372,-0.0127491,-0.015617,0.187456,0
0.140081,-0.391997,0.561371,0.0154939,-0.0611826,0.00275469,0
0.263722,-0.385121,0.576964,0.0527308,-0.0833017,-0.109009,0
0.205926,-0.263521,0.57118,0.0560353,-0.10398,-0.152397,0
-0.0227923,-0.180974,0.447597,-0.00166482,-0.100486,-0.19669,0
-0.273858,-0.217668,0.298696,-0.0132832,-0.126523,-0.249536,0
-0.28902,0.00332007,0.212797,-0.0313801,-0.147667,-0.388939,0
-0.0208478,0.457816,0.219935,-0.0397677,-0.191265,-0.535046,0
0.188591,0.581315,0.223243,-0.0733855,-0.122823,-0.491797,0
0.12055,0.294559,0.125673,-0.147168,-0.0854818,-0.386782,0
-0.107411,-0.0882801,-0.108171,-0.207694,-0.079528,-0.334167,0
-0.104691,-0.161664,-0.323173,-0.223849,-0.0763466,-0.400877,0
0.168783,0.0564036,-0.319941,-0.198558,0.0295096,-0.44376,0
0.418086,0.245294,-0.111428,-0.149443,0.147077,-0.308315,0
0.501263,0.341368,0.0511106,-0.187335,0.206128,-0.13509,0
0.401472,0.305335,-0.0539749,-0.298024,0.195781,0.0217771,0
0.19909,0.0636282,-0.385817,-0.362891,0.159716,0.135316,0
0.0618807,-0.0785312,-0.705534,-0.314332,0.155847,0.177149,0
0.100212,0.0353723,-0.83373,-0.230656,0.190131,0.164154,0
0.282615,0.162012,-0.768193,-0.136557,0.244621,0.210219,0
0.338091,-0.130486,-0.593175,-0.0355182,0.248473,0.385265,0
0.298315,-0.214503,-0.547371,-0.0532901,0.213632,0.428634,0
0.211848,-0.240144,-0.630861,-0.0993882,0.196707,0.464483,0
0.0787029,-0.375706,-0.660394,-0.0390938,0.149109,0.500531,0
-0.000470801,-0.507131,-0.665649,-0.0159607,0.120696,0.461667,0
0.0168806,-0.562806,-0.646863,-0.0158713,0.10178,0.360402,0
0.115998,-0.510537,-0.566189,0.0302365,0.0449517,0.271884,0
0.196511,-0.495519,-0.468243,0.0677169,0.00278836,0.221547,0
0.120027,-0.579881,-0.361054,0.0796916,-0.0622852,0.206014,0
-0.0667848,-0.676198,-0.357612,0.048959,-0.135969,0.148939,0
-0.206943,-0.583522,-0.439858,0.0108319,-0.2067,0.00943094,0
-0.272397,-0.36356,-0.569436,-0.0144816,-0.237047,-0.136891,0
-0.302162,-0.0945051,-0.642722,-0.00780484,-0.244766,-0.2476,0
-0.267165,0.0398046,-0.619446,0.0417549,-0.229594,-0.307904,0
-0.186569,0.0739653,-0.501655,0.107331,-0.211719,-0.333086,0
-0.0576343,0.297626,-0.357056,0.14833,-0.207186,-0.363746,0
0.00837438,0.293219,-0.297159,0.156151,-0.189887,-0.323905,0
-0.0789355,0.260924,-0.275557,0.142641,-0.121479,-0.262529,0
-0.169164,0.14661,-0.209326,0.178437,-0.0808181,-0.237366,0
-0.12668,0.0421915,-0.0481958,0.21042,-0.0182418,-0.244511,0
0.006519,0.197234,0.196123,0.191395,0.0476936,-0.226757,0
0.100568,0.502259,0.323341,0.128916,0.0785728,-0.145253,0
0.0635145,0.567681,0.306592,0.113852,0.0644995,0.00287199,0
-0.114739,0.297576,0.209294,0.135783,0.0298454,0.136106,0
-0.346444,-0.00707593,0.103714,0.137153,0.0244187,0.160443,0
-0.515648,-0.0830469,0.095743,0.146563,0.0689211,0.0893601,0
-0.541376,-0.0278782,0.197175,0.165867,0.121456,0.00997138,0
-0.456798,0.119276,0.403678,0.169123,0.15177,-0.0226294,0
-0.283019,0.306748,0.633898,0.139946,0.183086,-0.0156352,0
-0.283019,0.306748,0.633898,0.139946,0.183086,-0.0156352,0
-0.11633,0.365315,0.785067,0.101209,0.176561,0.0583761,0
-0.00968234,0.346578,0.835403,0.0591883,0.151177,0.156909,0
0.0709843,0.312376,0.843998,0.0177908,0.142431,0.228493,0
0.150399,0.296888,0.885832,-0.000340704,0.147587,0.274411,0
0.208658,0.228669,0.947168,-0.0100922,0.148423,0.313612,0
0.179387,0.0440912,0.935852,-0.0293305,0.125581,0.357991,0
0.00298902,-0.144978,0.830289,-0.0501848,0.0806008,0.376492,0
-0.199976,-0.242356,0.672859,-0.054834,0.0236474,0.304784,0
-0.207533,-0.361593,0.568778,-0.025045,-0.0110844,0.159463,0
-0.0197147,-0.361629,0.503773,-0.0266984,-0.0306085,-0.00640804,0
0.156768,-0.297328,0.420933,-0.0405153,-0.0609404,-0.111691,0
0.190195,-0.3268,0.336608,-0.0103038,-0.109259,-0.144092,0
0.122332,-0.380937,0.267305,0.0107122,-0.104823,-0.174428,0
-0.0937197,-0.387279,0.240024,-0.00485986,-0.0743988,-0.203909,0
-0.255459,-0.319204,0.191581,-0.0392027,-0.0916717,-0.273442,0
-0.16791,-0.0320522,0.146309,-0.0679329,-0.130201,-0.400385,0
-0.159432,0.0807078,0.14492,-0.0999879,-0.109785,-0.384512,0
-0.294865,0.049305,0.0861961,-0.148856,-0.0701251,-0.305552,0
-0.502459,-0.135813,-0.175553,-0.21981,-0.0639135,-0.252646,0
-0.606691,-0.21449,-0.396424,-0.200867,-0.0549315,-0.273342,0
-0.410892,-0.0757346,-0.420664,-0.144709,0.00830486,-0.364174,0
-0.102769,0.121301,-0.255801,-0.099412,0.10175,-0.343904,0
0.135048,0.214755,0.018154,-0.0830778,0.161207,-0.22449,0
0.205751,0.147584,0.132291,-0.15204,0.179113,-0.0760477,0
0.04567,-0.0404028,0.0226248,-0.242394,0.155131,0.0673881,0
-0.106678,-0.0325782,-0.215421,-0.295372,0.123902,0.108022,0
-0.13933,0.108553,-0.423424,-0.272634,0.125081,0.123649,0
-0.0708252,0.223426,-0.514507,-0.200929,0.135378,0.180914,0
0.0374485,0.281279,-0.557305,-0.155871,0.135622,0.255996,0
0.0798357,0.21132,-0.615071,-0.118018,0.121588,0.362671,0
0.0402713,0.0599807,-0.719665,-0.0985401,0.0960817,0.444403,0
-0.0535824,-0.154145,-0.820473,-0.0785117,0.0833654,0.469092,0
-0.100211,-0.217061,-0.821406,-0.0271615,0.0751368,0.420021,0
-0.0288668,-0.11061,-0.736794,0.0227512,0.0661883,0.329167,0
0.10377,0.0304582,-0.620125,0.0452938,0.0399493,0.273549,0
0.176222,0.0124612,-0.5353,0.0351844,0.0185836,0.272973,0
0.145681,-0.0615216,-0.477611,0.0356773,-0.0323769,0.266754,0
0.0597978,-0.0774866,-0.460275,0.0504082,-0.0912467,0.215569,0
-0.102361,-0.0643104,-0.47216,0.0414993,-0.122828,0.140328,0
-0.259253,-0.128321,-0.48946,0.017487,-0.135204,0.0245182,0
-0.306671,-0.292329,-0.452344,0.0471422,-0.145437,-0.111362,0
-0.16672,-0.292502,-0.368428,0.0913667,-0.153705,-0.26958,0
0.000553725,-0.00908829,-0.245984,0.112387,-0.138669,-0.375145,0
0.0255027,0.436176,-0.0953237,0.122255,-0.127885,-0.376929,0
-0.108115,0.461303,0.0240904,0.147831,-0.165099,-0.283711,0
-0.265534,0.121556,-0.0192166,0.0989151,-0.165998,-0.24654,0
-0.342198,-0.26579,-0.260356,0.0422085,-0.180174,-0.338434,0
-0.36651,-0.269032,-0.414442,0.0596031,-0.113992,-0.450313,0
-0.220546,0.130361,-0.259588,0.140009,0.0022909,-0.490266,0
0.0388754,0.69617,0.102824,0.191661,0.0826189,-0.408169,0
0.147851,0.898136,0.395978,0.173039,0.0957969,-0.172072,0
0.0977039,0.650499,0.449177,0.134061,0.031379,0.054583,0
-0.0840268,0.144388,0.343438,0.102103,-0.00257632,0.192716,0
-0.38949,-0.298111,0.237133,0.101428,0.00168252,0.232897,0
-0.38949,-0.298111,0.237133,0.101428,0.00168252,0.232897,0
-0.63678,-0.501155,0.237543,0.126191,0.0352091,0.159079,0
-0.638611,-0.464769,0.284624,0.126422,0.0840932,0.0432894,0
-0.463593,-0.254266,0.400565,0.111206,0.119169,-0.0203887,0
-0.228559,0.060825,0.506738,0.0489358,0.123855,-0.00427091,0
0.0658144,0.224664,0.597687,0.00689956,0.110758,0.0718747,0
0.355319,0.287539,0.663428,-0.0147699,0.103904,0.175081,0
0.498259,0.263758,0.715062,-0.0281534,0.101718,0.294908,0
0.505768,0.170081,0.772707,-0.0205485,0.0879483,0.386604,0
0.445089,-0.0542768,0.758494,-0.0167615,0.063397,0.421892,0
0.317996,-0.37343,0.667251,-0.0318565,0.041186,0.419069,0
0.126968,-0.674493,0.522547,-0.0381978,0.0138701,0.369623,0
-0.0189685,-0.711521,0.398015,-0.0113773,-0.00511229,0.246655,0
-0.103214,-0.730043,0.353962,0.0231574,0.00212392,0.115963,0
-0.0910137,-0.647682,0.32815,0.0384043,-0.00229934,-0.0183385,0
-0.0834892,-0.459178,0.316546,0.0458534,-0.00731227,-0.108228,0
-0.0304355,-0.313195,0.275519,0.021499,-0.0250606,-0.180896,0
0.0523988,-0.2857,0.134424,-0.0318863,-0.0383783,-0.236795,0
-0.0390199,-0.209293,0.00537032,-0.0344615,-0.041759,-0.250752,0
-0.222931,0.0356941,0.0174391,0.000971869,-0.0497146,-0.268629,0
-0.362799,0.187941,0.0824232,0.00542181,-0.0535597,-0.284932,0
-0.446899,0.0885755,0.122142,-0.04182,-0.0190219,-0.294888,0
-0.471497,-0.0282445,0.0149151,-0.107917,-0.019886,-0.328588,0
-0.417352,-0.00794287,-0.124965,-0.131066,-0.0279528,-0.379877,0
-0.151846,0.180401,-0.112988,-0.104482,-0.0249877,-0.443424,0
0.17456,0.316704,-0.0327595,-0.122108,0.0212788,-0.405692,0
0.422458,0.278004,0.0507679,-0.156327,0.0448123,-0.280964,0
0.466789,0.0636499,-0.0338735,-0.243951,0.0556214,-0.146433,0
0.269002,-0.0565342,-0.322409,-0.342835,0.0505551,-0.0476384,0
0.0404497,0.0820786,-0.653891,-0.357651,0.0514789,-0.023769,0
-0.0652089,0.349028,-0.822035,-0.274351,0.080782,-0.00523692,0
0.00467495,0.478301,-0.826371,-0.189818,0.115445,0.0481289,0
0.175076,0.441107,-0.80268,-0.143501,0.123671,0.144581,0
0.3307,0.213881,-0.826672,-0.126457,0.106535,0.251313,0
0.466431,0.00749539,-0.891226,-0.107537,0.0920803,0.307747,0
0.498002,-0.0710309,-0.946791,-0.0802943,0.0958422,0.345021,0
0.491397,-0.0877418,-0.900574,-0.0149799,0.0949708,0.367573,0
0.477939,-0.0384137,-0.815237,0.0234948,0.0895049,0.366077,0
0.400751,-0.0175629,-0.731825,0.0419167,0.0678406,0.386751,0
0.359513,-0.0857759,-0.640637,0.0573596,0.0225332,0.370823,0
0.353364,-0.192941,-0.61875,0.0544849,-0.0092189,0.321284,0
0.266162,-0.195658,-0.631777,0.0499077,-0.0456844,0.256144,0
0.0822312,-0.253165,-0.607399,0.0944366,-0.0922789,0.191875,0
-0.110273,-0.365824,-0.591954,0.0716842,-0.101887,0.0873691,0
-0.0877078,-0.428302,-0.621737,0.0504218,-0.127331,-0.0857111,0
0.131866,-0.361006,-0.627759,0.0819045,-0.135416,-0.230585,0
0.275609,-0.132653,-0.568996,0.128607,-0.118908,-0.254837,0
0.0834421,0.00343939,-0.405233,0.182229,-0.0793238,-0.160478,0
-0.138013,0.239926,-0.221098,0.225729,-0.0927709,-0.150409,0
-0.238263,0.359955,-0.174039,0.250492,-0.145599,-0.176719,0
-0.367788,0.338811,-0.212936,0.24096,-0.125623,-0.162811,0
-0.633216,0.0514458,-0.292639,0.198264,-0.0729077,-0.157258,0
-0.61813,-0.11423,-0.286299,0.208253,-0.00309941,-0.309116,0
-0.253666,0.209801,-0.0452445,0.287569,0.066469,-0.436051,0
0.112815,0.798371,0.370851,0.303927,0.14952,-0.360152,0
0.112815,0.798371,0.370851,0.303927,0.14952,-0.360152,0
0.154708,0.925916,0.665864,0.249502,0.172857,-0.1002,0
-0.0453313,0.575795,0.711554,0.20626,0.114304,0.120418,0
-0.299058,0.0938869,0.676094,0.208141,0.0844317,0.188485,0
-0.48518,-0.111429,0.712404,0.189973,0.117769,0.12962,0
-0.516721,-0.0481186,0.854937,0.185059,0.162848,0.0247536,0
-0.477182,0.0522492,0.984134,0.137663,0.191188,-0.0116265,0
-0.416336,0.160589,1.06087,0.0640479,0.183044,0.00755876,0
-0.253467,0.313018,1.08945,0.013652,0.166995,0.0267173,0
-0.0448821,0.430367,1.12305,-0.0077342,0.158041,0.0832151,0
0.117643,0.448428,1.20035,-0.026664,0.166024,0.169377,0
0.287731,0.396348,1.29824,-0.0275136,0.161528,0.244475,0
0.389536,0.351454,1.33871,-0.0596086,0.153716,0.307897,0
0.359416,0.212441,1.32783,-0.0781682,0.126522,0.373458,0
0.264571,-0.0379729,1.23709,-0.10529,0.0889631,0.390758,0
0.15836,-0.340336,1.05616,-0.121958,0.0439492,0.353754,0
0.101287,-0.481782,0.841972,-0.128266,0.00987515,0.236053,0
0.131974,-0.450055,0.661047,-0.0996331,-0.0149592,0.0906152,0
0.158081,-0.376899,0.584812,-0.0263477,-0.0267777,-0.00470674,0
0.0373152,-0.388579,0.584762,0.005534,-0.0216417,-0.0392132,0
-0.13666,-0.339095,0.551185,-0.0354081,-0.0320126,-0.108251,0
-0.17974,-0.26457,0.4301,-0.0724351,-0.0727287,-0.227915,0
-0.174256,-0.0473855,0.292889,-0.0815452,-0.0994617,-0.31372,0
-0.363291,0.0655851,0.241945,-0.0676828,-0.110019,-0.28604,0
-0.558266,0.000836659,0.144697,-0.145512,-0.0695041,-0.274338,0
-0.648931,-0.281193,-0.0823767,-0.21902,-0.0700848,-0.33363,0
-0.521539,-0.394663,-0.278136,-0.24428,-0.0880224,-0.466026,0
-0.0715634,-0.151023,-0.364267,-0.267638,-0.0528761,-0.60263,0
0.474392,0.32058,-0.364961,-0.276428,0.0105747,-0.588602,0
0.659192,0.565623,-0.386008,-0.275168,0.0680632,-0.336697,0
0.403109,0.512751,-0.465033,-0.302445,0.112298,-0.0347171,0
-0.120871,0.255622,-0.630696,-0.331415,0.147581,0.16366,0
-0.584977,-0.0467652,-0.806966,-0.316612,0.16102,0.202214,0
-0.679376,-0.17942,-0.900894,-0.264579,0.181921,0.0788257,0
-0.466471,-0.175776,-0.794836,-0.154234,0.2152,-0.00764972,0
-0.142073,-0.130348,-0.54181,-0.0546291,0.212581,0.00367212,0
0.0947951,-0.099525,-0.396973,-0.0404631,0.186518,0.109761,0
0.12103,-0.0800529,-0.484869,-0.0904784,0.131792,0.246773,0
0.0161734,0.017848,-0.673465,-0.115637,0.0811915,0.344607,0
-0.0761265,0.0805072,-0.756052,-0.0611488,0.0806569,0.402167,0
-0.0789325,0.101172,-0.704112,-0.00823909,0.09977,0.415518,0
0.0302012,0.0350558,-0.584051,0.0306373,0.087186,0.395785,0
0.123754,-0.0623304,-0.513953,0.0234372,0.0476568,0.380106,0
0.172914,-0.13273,-0.471162,0.0387454,-0.00949758,0.355254,0
0.144549,-0.114378,-0.422454,0.0572929,-0.0543882,0.300388,0
0.0920547,-0.100901,-0.390567,0.0652445,-0.105835,0.219841,0
0.0777782,-0.224681,-0.433094,0.0689739,-0.159175,0.100725,0
0.0672328,-0.535752,-0.428836,0.120421,-0.16843,-0.00730246,0
-0.0608883,-0.669312,-0.298899,0.179484,-0.142269,-0.113188,0
-0.23215,-0.409911,-0.152686,0.17367,-0.141181,-0.25315,0
-0.32952,-0.0561179,-0.0421012,0.134895,-0.14978,-0.369083,0
-0.336507,0.233072,0.0646275,0.10157,-0.157806,-0.410321,0
-0.35223,0.331941,0.0141362,0.0872603,-0.211319,-0.368302,0
-0.376124,-0.0306892,-0.0768144,0.0724652,-0.19399,-0.298317,0
-0.251056,-0.376773,-0.163943,0.0946734,-0.168001,-0.348989,0
-0.251056,-0.376773,-0.163943,0.0946734,-0.168001,-0.348989,0
-0.0456144,-0.316731,-0.0948093,0.137553,-0.094183,-0.432085,0
0.252031,0.17473,0.208782,0.177554,-0.0122149,-0.442892,0
0.473091,0.736274,0.521126,0.147512,0.0323237,-0.30634,0
0.403519,0.888216,0.574326,0.0956606,0.00682926,-0.0455831,0
0.178397,0.552203,0.488199,0.0698309,-0.017177,0.153417,0
-0.031442,-0.00626414,0.347008,0.0861913,-0.0113026,0.198184,0
-0.124698,-0.263641,0.286499,0.131115,0.00868064,0.103228,0
-0.123084,-0.17565,0.40343,0.163509,0.0848359,-0.00690103,0
-0.0626754,0.0425415,0.651985,0.174413,0.144864,-0.0448561,0
0.0150421,0.164043,0.84015,0.116191,0.156662,-0.0116978,0
0.113784,0.193285,0.869401,0.0308353,0.118079,0.0543952,0
0.22422,0.227943,0.82698,-0.0272559,0.0974689,0.120579,0
0.294916,0.293927,0.77048,-0.0594888,0.103859,0.196374,0
0.315904,0.384715,0.758702,-0.0418451,0.115959,0.272305,0
0.276795,0.511845,0.761116,-0.0365522,0.127977,0.336929,0
0.16091,0.469818,0.766477,-0.0468048,0.127668,0.410844,0
0.0970113,0.219436,0.75487,-0.0560088,0.102412,0.435032,0
0.0855792,-0.179818,0.681023,-0.0652115,0.071104,0.396639,0
0.0840549,-0.410968,0.565436,-0.0728611,0.0329024,0.295816,0
0.0781782,-0.474501,0.425704,-0.0662474,0.00257728,0.154033,0
0.11387,-0.482538,0.34906,-0.030251,-0.00550348,0.00709575,0
0.170877,-0.427694,0.444217,0.055496,-0.00522858,-0.101595,0
0.17388,-0.233715,0.581589,0.0673495,0.000935882,-0.159854,0
0.0706407,-0.129119,0.637176,-0.000890646,-0.0265985,-0.165076,0
-0.101033,-0.112273,0.512231,-0.0661553,-0.0912882,-0.178189,0
-0.240035,-0.0588975,0.261964,-0.114943,-0.15064,-0.229639,0
-0.346807,-0.0728925,0.075367,-0.108288,-0.160933,-0.277999,0
-0.490778,-0.204625,0.00902235,-0.0931455,-0.0936702,-0.291403,0
-0.617494,-0.275972,-0.100459,-0.15018,-0.0547138,-0.346725,0
-0.54169,-0.128931,-0.249461,-0.182481,-0.0350277,-0.451441,0
-0.176607,0.319009,-0.287579,-0.189673,0.0260141,-0.537856,0
0.242488,0.82446,-0.197361,-0.202125,0.116002,-0.469098,0
0.491804,0.994415,-0.130503,-0.21149,0.161071,-0.252408,0
0.497885,0.706456,-0.139866,-0.24148,0.178063,-0.019895,0
0.323824,0.284381,-0.290394,-0.307051,0.200395,0.124853,0
-0.0473412,-0.128656,-0.539972,-0.359324,0.209753,0.202186,0
-0.370836,-0.239721,-0.748162,-0.366832,0.209251,0.173773,0
-0.438953,-0.102166,-0.903807,-0.330568,0.204089,0.101666,0
-0.365568,0.0857403,-0.95115,-0.251924,0.196825,0.107715,0
-0.273689,0.156205,-0.948611,-0.171896,0.176661,0.187153,0
-0.244659,0.172621,-0.992797,-0.135746,0.158928,0.2885,0
-0.321707,0.164229,-1.03078,-0.10977,0.136297,0.391577,0
-0.339039,0.00865744,-0.957367,-0.0521283,0.0942623,0.419558,0
-0.202329,-0.147152,-0.88295,-0.022602,0.0500784,0.37999,0
-0.0776514,-0.178901,-0.859708,-0.0218003,0.00902376,0.34256,0
-0.0385433,-0.170124,-0.853729,0.0032248,-0.0468259,0.324968,0
0.0157966,-0.21245,-0.834452,0.0395999,-0.0852633,0.293432,0
0.0453166,-0.298732,-0.809796,0.0544519,-0.11354,0.249083,0
-0.0342717,-0.424295,-0.779803,0.0620002,-0.147109,0.180794,0
-0.092349,-0.334091,-0.794741,0.0659524,-0.194495,0.0269754,0
-0.100359,-0.0221491,-0.791312,0.0689423,-0.222545,-0.124436,0
-0.16056,0.201292,-0.684325,0.108615,-0.20874,-0.17477,0
-0.00262893,-0.0472234,-0.539234,0.141266,-0.178595,-0.19176,0
-0.169293,-0.31776,-0.296525,0.212137,-0.218557,-0.186732,0
-0.169293,-0.31776,-0.296525,0.212137,-0.218557,-0.186732,0
-0.357607,-0.293036,-0.266585,0.0845451,-0.218001,-0.276386,0
-0.428823,0.0199649,-0.427522,0.0351252,-0.282629,-0.40197,0
-0.380396,-0.0117346,-0.515612,0.0672076,-0.258214,-0.467206,0
-0.163904,-0.354528,-0.450878,0.0890584,-0.170137,-0.517132,0
