attitude_roll,attitude_pitch,attitude_yaw,rotationRate_x,rotationRate_y,rotationRate_z,acceleration_x,acceleration_y,acceleration_z
0.00181299,0.519449,0.199666,0.60094,0.947731,1.15023,-0.0409263,0.237307,0.423817
0.0051475,0.529843,0.225144,0.433652,0.636486,1.06448,-0.0311598,0.219219,0.443014
0.000894841,0.537204,0.248766,0.314008,0.122025,0.976258,-0.0249387,0.196627,0.414059
-0.0138096,0.543073,0.270312,0.293295,-0.488938,0.864763,-0.0321687,0.177627,0.341471
-0.0383306,0.547957,0.288851,0.229285,-0.95029,0.709166,-0.0354809,0.159128,0.248822
-0.0653747,0.550915,0.303708,0.123373,-0.912144,0.547193,-0.0367905,0.156372,0.120504
-0.0866248,0.551329,0.314967,-0.0164268,-0.609422,0.420372,-0.0128658,0.165375,0.0270715
-0.0993762,0.548138,0.32355,-0.257576,-0.210079,0.349745,-0.00570015,0.173031,-0.0186805
-0.103202,0.53856,0.330123,-0.659186,0.143189,0.309702,-0.0319099,0.166739,-0.0373393
-0.100502,0.520662,0.334615,-1.07394,0.337408,0.244125,-0.0709976,0.107638,-0.074555
-0.0936039,0.49579,0.33554,-1.38332,0.364795,0.0569215,-0.122804,0.0353732,-0.152288
-0.0851435,0.466462,0.331512,-1.55917,0.297259,-0.139991,-0.177936,0.0435709,-0.231622
-0.0769377,0.434658,0.324236,-1.67405,0.196893,-0.242793,-0.177386,0.0455659,-0.277233
-0.0716434,0.400474,0.315567,-1.80374,-0.0429239,-0.296562,-0.145736,0.00194576,-0.304264
-0.0714328,0.364384,0.305945,-1.84579,-0.269734,-0.338671,-0.153651,-0.0455273,-0.370255
-0.0738988,0.329644,0.29552,-1.6639,-0.297117,-0.392027,-0.184706,-0.070764,-0.471769
-0.0750751,0.300624,0.284377,-1.30408,-0.146956,-0.449784,-0.205779,-0.0756339,-0.506431
-0.0730208,0.279377,0.273153,-0.899111,0.03612,-0.456422,-0.201662,-0.0571591,-0.463942
-0.0684745,0.266313,0.263309,-0.48297,0.12521,-0.394891,-0.171815,-0.0460123,-0.374031
-0.0639743,0.260908,0.255539,-0.121181,0.126759,-0.320252,-0.171753,-0.0253364,-0.262322
-0.0599305,0.26155,0.249452,0.129905,0.112338,-0.286751,-0.184772,-0.0117921,-0.132286
-0.0561289,0.266059,0.243073,0.278892,0.122362,-0.377777,-0.21359,-0.0118032,-0.0145491
-0.050589,0.272968,0.233644,0.355746,0.175216,-0.580188,-0.2084,-0.00686836,0.09747
-0.0434296,0.280782,0.219902,0.355751,0.154364,-0.775252,-0.154238,0.0112231,0.208697
-0.0360145,0.287956,0.20256,0.284681,0.0988915,-0.908268,-0.106589,0.0507773,0.299483
-0.0292662,0.293236,0.183133,0.186883,0.0150425,-0.965427,-0.0651267,0.0761149,0.35438
-0.023698,0.29675,0.162863,0.117995,-0.0449928,-0.990948,-0.0310204,0.089335,0.37828
-0.0189904,0.299076,0.142004,0.0750997,-0.0905441,-1.01753,-0.00754946,0.0931455,0.388741
-0.0145521,0.300456,0.120349,0.0269937,-0.0902176,-1.05835,0.012618,0.102795,0.392616
-0.0094133,0.300166,0.0983264,-0.0825905,-0.0534816,-1.03599,0.0551196,0.103052,0.396041
-0.00416462,0.297802,0.0778046,-0.162333,-0.0434452,-0.921947,0.101485,0.0808804,0.369061
-0.000807273,0.294003,0.060013,-0.222649,-0.151718,-0.786293,0.115748,0.0530301,0.330993
-0.00112265,0.288866,0.0449193,-0.292161,-0.321609,-0.670985,0.110405,0.0089711,0.265101
-0.00551548,0.282662,0.0319236,-0.321278,-0.475529,-0.5833,0.109407,-0.0453359,0.139425
-0.0124357,0.276962,0.0205846,-0.244791,-0.514123,-0.501801,0.143935,-0.0975215,-0.00873441
-0.0197137,0.273353,0.0112206,-0.134086,-0.457703,-0.388421,0.194106,-0.124875,-0.124154
-0.0254036,0.271707,0.00488644,-0.0660738,-0.264949,-0.21509,0.223795,-0.143886,-0.200784
-0.027769,0.269753,0.00243729,-0.1504,-0.0320724,-0.0103844,0.230939,-0.155229,-0.242757
-0.0259385,0.265856,0.00396706,-0.226706,0.261729,0.147554,0.184021,-0.195059,-0.328486
-0.0192434,0.261275,0.00731856,-0.20798,0.467809,0.170562,0.139622,-0.260777,-0.396575
-0.010274,0.257699,0.0102077,-0.152689,0.463204,0.109431,0.11136,-0.302303,-0.43656
-0.00462136,0.254859,0.0121419,-0.123771,0.101744,0.0903105,0.138475,-0.328503,-0.471292
-0.00764355,0.253854,0.0139567,0.0444462,-0.324658,0.084965,0.14398,-0.309975,-0.55855
-0.0168418,0.257103,0.0159593,0.297877,-0.498402,0.126685,0.128409,-0.209756,-0.597612
-0.0263536,0.266047,0.0200521,0.61332,-0.290574,0.260999,0.130755,-0.107137,-0.559138
-0.0289914,0.281437,0.0276187,0.93948,0.266379,0.424621,0.131897,-0.0322921,-0.437924
-0.0211185,0.301441,0.038251,1.0423,0.797872,0.535996,0.116524,0.0149752,-0.209579
-0.00596811,0.320658,0.0505093,0.879854,1.04166,0.601651,0.104907,0.0162256,-0.000436306
0.00999569,0.3362,0.0635456,0.684013,0.925271,0.632681,0.0769899,0.00424933,0.0974866
0.020387,0.348494,0.0766633,0.540913,0.540168,0.625125,0.0594378,0.0116644,0.132381
0.0225621,0.358559,0.0898154,0.448622,0.151785,0.637951,0.0614246,0.0388374,0.125115
0.0225621,0.358559,0.0898154,0.448622,0.151785,0.637951,0.0614246,0.0388374,0.125115
0.0179501,0.367029,0.103623,0.371882,-0.0986432,0.679586,0.0675054,0.0860011,0.10468
0.00918523,0.374077,0.118787,0.331561,-0.201419,0.751662,0.0782879,0.124065,0.075078
-0.000866903,0.381199,0.135809,0.386917,-0.16705,0.840442,0.0749777,0.159723,0.0571863
-0.0103622,0.389627,0.15483,0.469224,-0.0658972,0.918127,0.0542021,0.19654,0.0843333
-0.0179497,0.399485,0.175472,0.556669,0.128472,0.973448,0.019694,0.215345,0.119493
-0.0213752,0.411593,0.197212,0.699217,0.373906,0.992811,-0.00445925,0.225387,0.168076
-0.0212164,0.42621,0.219007,0.798751,0.50484,0.970083,-0.0124519,0.234163,0.251872
-0.0204109,0.442119,0.240547,0.825403,0.450741,0.956802,-0.0160988,0.236419,0.327914
-0.0223062,0.457846,0.261537,0.788051,0.270803,0.902832,-0.0409059,0.248353,0.371713
-0.0274483,0.472452,0.280991,0.707187,0.100158,0.793209,-0.0538545,0.247064,0.379469
-0.0339215,0.484624,0.297138,0.557965,0.0119092,0.600845,-0.052052,0.236124,0.362994
-0.039499,0.493622,0.308796,0.374822,-0.040495,0.407525,-0.0165559,0.229647,0.339042
-0.0451229,0.498749,0.317087,0.169789,-0.105767,0.321358,0.0176553,0.240305,0.284285
-0.0505811,0.500061,0.323869,-0.000669107,-0.115868,0.265276,0.0147056,0.235933,0.193402
-0.055324,0.498331,0.32885,-0.151579,-0.115956,0.176904,0.00284022,0.211435,0.113991
-0.0587749,0.493032,0.331337,-0.382383,-0.114315,0.0709633,0.00210826,0.177843,0.0388809
-0.0605854,0.482552,0.330914,-0.676508,-0.0820502,-0.0529361,0.021408,0.139365,-0.0527321
-0.0597559,0.466212,0.327254,-0.967729,0.0241236,-0.162321,0.0371878,0.0972411,-0.16601
-0.0539045,0.444747,0.321826,-1.19742,0.336727,-0.198804,0.0183941,0.0553977,-0.285817
-0.0418664,0.419472,0.315774,-1.35418,0.590854,-0.230679,-0.0171181,0.0156924,-0.354037
-0.0275627,0.39127,0.308926,-1.49207,0.514265,-0.308879,-0.0495052,-0.0444644,-0.371473
-0.0173781,0.360806,0.300714,-1.5514,0.172692,-0.388295,-0.0773543,-0.120681,-0.410873
-0.0144516,0.331774,0.291421,-1.32038,-0.162179,-0.434561,-0.0821622,-0.173363,-0.518683
-0.0168879,0.310109,0.282425,-0.833397,-0.34986,-0.358686,-0.0701306,-0.139951,-0.575393
-0.0224519,0.29905,0.276964,-0.296459,-0.339282,-0.127075,-0.0579684,-0.0799449,-0.544532
-0.0279949,0.297399,0.277379,0.110629,-0.19047,0.176643,-0.0827346,-0.0212509,-0.441825
-0.0322607,0.302247,0.283937,0.374364,-0.0636019,0.414331,-0.147521,-0.00882179,-0.298329
-0.0363643,0.311097,0.293719,0.535824,-0.0594497,0.459821,-0.219738,-0.0213501,-0.15384
-0.040034,0.322688,0.302562,0.64521,-0.0186794,0.313912,-0.273215,-0.0192017,-0.0199333
-0.0408951,0.335353,0.307105,0.617626,0.0866785,0.0579216,-0.286803,0.0108501,0.134423
-0.0373833,0.346126,0.306087,0.439827,0.232979,-0.187824,-0.24832,0.0463181,0.287952
-0.029758,0.352822,0.300509,0.215364,0.330626,-0.350544,-0.194247,0.0740173,0.39372
-0.0196198,0.355625,0.291817,0.0571767,0.371869,-0.466942,-0.156704,0.0939806,0.451958
-0.00879593,0.355975,0.280946,-0.0289518,0.318617,-0.553508,-0.116618,0.0971156,0.486572
0.000976715,0.354988,0.268214,-0.0670467,0.225236,-0.648476,-0.102249,0.0983728,0.48332
0.0101944,0.353254,0.253265,-0.102602,0.184654,-0.759823,-0.0810674,0.0961053,0.463579
0.019022,0.349968,0.236698,-0.222194,0.134861,-0.7842,-0.0202635,0.0935387,0.458669
0.0260425,0.343692,0.221015,-0.349291,0.0217564,-0.69808,0.0352062,0.0755064,0.413091
0.0300131,0.336701,0.206626,-0.252776,-0.172105,-0.777685,-0.0818209,0.0484847,0.271595
0.0344773,0.333956,0.187195,-0.03225,-0.0240011,-0.984072,0.0550804,-0.00499588,0.206734
0.0398621,0.330503,0.168777,-0.264171,-0.036456,-0.762185,0.0855047,-0.100149,0.192183
0.0434656,0.323628,0.154352,-0.322417,-0.0633039,-0.661764,0.108599,-0.0735326,0.0610232
0.0467831,0.318499,0.141595,-0.114871,0.0131452,-0.545698,0.158375,-0.103485,-0.068163
0.0519489,0.317323,0.132475,-0.00397474,0.198093,-0.324235,0.210722,-0.129992,-0.0838614
0.0576335,0.315565,0.128235,-0.186413,0.229593,-0.0915764,0.232734,-0.157069,-0.0675129
0.0610759,0.309387,0.128652,-0.412407,0.117296,0.0715024,0.185207,-0.2079,-0.154114
0.0620733,0.301308,0.130661,-0.36589,0.0933361,0.0475967,0.0822407,-0.255019,-0.339706
0.0626656,0.296161,0.130723,-0.118999,0.000325363,-0.0821965,0.0772936,-0.309483,-0.471301
0.0657372,0.29659,0.127746,0.150211,0.250525,-0.187698,0.125701,-0.316382,-0.496609
0.0730014,0.299692,0.123884,0.144316,0.301514,-0.128792,0.207231,-0.275896,-0.402311
0.0769653,0.300687,0.12267,-0.0464123,0.0239574,0.0232385,0.228349,-0.256833,-0.380809
0.0769653,0.300687,0.12267,-0.0464123,0.0239574,0.0232385,0.228349,-0.256833,-0.380809
0.073443,0.298959,0.124372,-0.0911064,-0.272982,0.105005,0.14846,-0.223312,-0.473858
0.0683469,0.29975,0.126638,0.197538,-0.0982651,0.121478,0.0981273,-0.150016,-0.529028
0.070256,0.307852,0.129641,0.581881,0.407513,0.240585,0.109341,-0.0489923,-0.417162
0.081394,0.321924,0.135891,0.729731,0.846937,0.4728,0.128012,0.0360118,-0.17495
0.0943305,0.33638,0.147322,0.583924,0.71975,0.726504,0.134782,0.0295807,0.0515602
0.0978871,0.3473,0.163077,0.37182,0.132554,0.829229,0.0955279,-0.0215931,0.115619
0.0887622,0.355249,0.178814,0.30788,-0.461772,0.68588,0.0130045,-0.0474398,0.04596
0.072313,0.36257,0.190397,0.344784,-0.73418,0.469342,-0.0338615,0.0176266,-0.0319478
0.0549256,0.370657,0.198501,0.420008,-0.665978,0.364496,0.00347193,0.0955352,-0.0487168
0.0418206,0.380279,0.205929,0.508024,-0.345508,0.392911,0.0514035,0.176202,-0.00560021
0.0358667,0.391706,0.215384,0.600827,0.116575,0.542593,0.0855704,0.235236,0.0705305
0.0373276,0.404996,0.228896,0.682226,0.533521,0.754098,0.0851458,0.27135,0.175208
0.0434176,0.420082,0.24681,0.768933,0.764329,0.944572,0.0436523,0.291472,0.278299
0.0501317,0.437247,0.268065,0.852754,0.75991,1.06249,-0.012239,0.297257,0.373334
0.0532929,0.455505,0.291183,0.845619,0.525594,1.11106,-0.038437,0.294927,0.461476
0.049863,0.472409,0.314955,0.725963,0.200189,1.09785,-0.0449326,0.278947,0.501337
0.040301,0.486087,0.338231,0.543291,-0.0755809,1.02718,-0.0521485,0.260123,0.500195
0.0264507,0.495054,0.359553,0.282297,-0.295963,0.885573,-0.0607633,0.243237,0.454251
0.0104504,0.498381,0.377997,0.0382775,-0.400399,0.749064,-0.0691613,0.215919,0.344023
-0.00497042,0.49785,0.393227,-0.0824996,-0.416716,0.588341,-0.0575684,0.180479,0.241531
-0.0191021,0.495017,0.40423,-0.205877,-0.482616,0.380124,-0.0811075,0.161525,0.169
-0.0324995,0.488769,0.410358,-0.419938,-0.565441,0.185282,-0.0699131,0.150325,0.106444
-0.0453559,0.477904,0.412443,-0.661406,-0.624001,0.042719,-0.0574416,0.137501,0.00527281
-0.057396,0.4626,0.410915,-0.868301,-0.651943,-0.0990812,-0.0599319,0.117801,-0.115688
-0.0675135,0.443988,0.40634,-1.01152,-0.516682,-0.17658,-0.0474007,0.0663849,-0.257993
-0.0722993,0.422798,0.40067,-1.15142,-0.195165,-0.177372,-0.0583463,0.0316824,-0.342483
-0.0707301,0.398842,0.3948,-1.2798,0.0911253,-0.198972,-0.102555,-0.0117337,-0.392011
-0.0656661,0.372503,0.387465,-1.39668,0.0805885,-0.324576,-0.160485,-0.110784,-0.410767
-0.0622448,0.345053,0.376014,-1.38504,-0.141194,-0.594895,-0.202494,-0.226512,-0.476017
-0.0609806,0.320402,0.358344,-1.15295,-0.296138,-0.918345,-0.206548,-0.251885,-0.554944
-0.0605349,0.302061,0.336226,-0.806549,-0.295012,-1.03071,-0.167629,-0.15492,-0.583446
-0.0586388,0.290352,0.315299,-0.501135,-0.109838,-0.876657,-0.107483,-0.0581319,-0.521104
-0.0538158,0.283629,0.29914,-0.265719,0.127492,-0.637833,-0.106349,-0.000172466,-0.422737
-0.0464609,0.28094,0.287778,-0.0578718,0.269311,-0.460572,-0.134896,0.00810945,-0.307026
-0.0383339,0.282306,0.278991,0.167322,0.289739,-0.421697,-0.171826,-0.0091337,-0.184638
-0.0300802,0.288322,0.269641,0.399111,0.279254,-0.515594,-0.198934,-0.00523692,-0.048639
-0.0208817,0.29824,0.257657,0.547041,0.29959,-0.655671,-0.174194,0.030578,0.110218
-0.0103185,0.309911,0.243271,0.591947,0.326036,-0.721185,-0.114136,0.0779993,0.260858
0.000860089,0.322008,0.228489,0.615295,0.319427,-0.68172,-0.0572429,0.122121,0.373391
0.0111287,0.334392,0.214757,0.629654,0.263982,-0.618863,-0.0425097,0.149026,0.4527
0.0199757,0.346477,0.201644,0.594318,0.182228,-0.612434,-0.0453682,0.157411,0.511875
0.0275722,0.357195,0.187746,0.506269,0.100376,-0.679145,-0.0308487,0.143746,0.539965
0.0340876,0.365627,0.171972,0.380834,-0.0149204,-0.7716,-0.0077499,0.136985,0.546837
0.0382523,0.370968,0.154734,0.210097,-0.194211,-0.80134,0.0367766,0.117279,0.52326
0.0389635,0.372819,0.138205,0.0362334,-0.323354,-0.720829,0.0848161,0.0785518,0.457422
0.036729,0.371502,0.12443,-0.11019,-0.392108,-0.566555,0.114954,0.0311978,0.351427
0.0328259,0.367856,0.113977,-0.21672,-0.369578,-0.423721,0.127991,-0.0274997,0.215587
0.0292417,0.362861,0.106425,-0.243096,-0.242091,-0.306385,0.107905,-0.0801081,0.0712348
0.0276148,0.358413,0.100938,-0.16951,-0.139781,-0.220278,0.0996163,-0.108104,0.0158248
0.0257749,0.356148,0.0971911,-0.0562392,-0.188531,-0.137688,0.103943,-0.149563,-0.0845336
0.0217619,0.354993,0.0951733,-0.0826912,-0.277095,-0.0499698,0.100187,-0.186123,-0.159161
0.0217619,0.354993,0.0951733,-0.0826912,-0.277095,-0.0499698,0.100187,-0.186123,-0.159161
0.0164836,0.352317,0.0949625,-0.1804,-0.238354,0.0156783,0.113787,-0.223912,-0.217893
0.0137045,0.348344,0.0952597,-0.198041,0.0213863,-0.0120837,0.0873997,-0.265805,-0.325774
0.0186549,0.344825,0.0938683,-0.156099,0.406733,-0.125044,0.0437388,-0.303295,-0.413277
0.0289544,0.34124,0.0906681,-0.214876,0.419538,-0.161061,0.0486924,-0.303208,-0.404826
0.0337712,0.336169,0.0878031,-0.253129,-0.0521704,-0.133662,0.0981148,-0.297644,-0.379923
0.0302262,0.332192,0.0846646,-0.116937,-0.343347,-0.172828,0.104915,-0.280055,-0.467837
0.0251761,0.332056,0.0812549,0.135818,-0.188663,-0.124129,0.0994469,-0.187791,-0.545648
0.0270639,0.338275,0.0804505,0.483769,0.385684,0.082534,0.146989,-0.0865355,-0.522868
0.0389317,0.349965,0.0847796,0.636843,0.893044,0.364169,0.168668,0.0125728,-0.350786
0.0543488,0.362791,0.0944882,0.581384,0.914996,0.596857,0.175273,0.0190088,-0.110767
0.0635913,0.373859,0.108132,0.440699,0.450349,0.723062,0.17955,-0.0185935,0.0595364
0.0606144,0.382266,0.123124,0.319348,-0.194802,0.710419,0.16404,-0.0508191,0.11908
0.0468195,0.388601,0.137253,0.248036,-0.582448,0.634053,0.125755,-0.0424624,0.074603
0.0289702,0.393839,0.149986,0.253858,-0.683621,0.582734,0.107025,0.00945359,-0.00017786
0.0111757,0.400403,0.16286,0.397897,-0.574994,0.635993,0.120659,0.0723916,-0.0535799
-0.00392561,0.410259,0.177957,0.586215,-0.327881,0.771806,0.140776,0.146375,-0.046765
-0.0148446,0.423465,0.196845,0.755129,0.00923603,0.95109,0.140715,0.209704,0.0163216
-0.0206555,0.43961,0.219497,0.899691,0.354062,1.06987,0.105833,0.249378,0.102006
-0.021522,0.458174,0.244173,1.0063,0.609854,1.10594,0.0619949,0.26508,0.195772
-0.0194134,0.478409,0.269171,1.05916,0.70784,1.08936,0.0244501,0.269145,0.286395
-0.0175093,0.498955,0.29413,1.02914,0.62283,1.08525,-0.00110562,0.280815,0.368824
-0.0194453,0.518141,0.319077,0.922503,0.392065,1.05823,-0.0176998,0.286327,0.429155
-0.0261254,0.534588,0.342822,0.776911,0.138115,0.94952,-0.0171035,0.264735,0.4424
-0.0362186,0.548066,0.363348,0.619979,-0.0909479,0.759545,-0.029121,0.226329,0.390282
-0.0482645,0.557742,0.378953,0.402679,-0.290312,0.536452,-0.0380605,0.204915,0.334464
-0.0611675,0.563663,0.390115,0.261645,-0.381641,0.38829,0.00847526,0.181579,0.235141
-0.0719566,0.567858,0.397964,0.193031,-0.237694,0.253211,0.0330079,0.179765,0.107551
-0.0769991,0.568967,0.403179,-0.0916697,0.00717478,0.187434,0.0453189,0.188161,0.0564533
-0.076132,0.562881,0.406249,-0.486858,0.239611,0.105717,0.0461358,0.15713,0.0487156
-0.0699447,0.550154,0.405673,-0.769032,0.316925,-0.0635991,0.00574237,0.107322,-0.0127079
-0.0615422,0.533287,0.401454,-0.929049,0.320174,-0.169016,-0.00929277,0.046956,-0.0938281
-0.0514744,0.513623,0.395223,-1.08332,0.376525,-0.273048,-0.0325187,0.00113228,-0.182658
-0.0386553,0.489706,0.385922,-1.36911,0.459908,-0.445756,-0.106399,-0.0237432,-0.253854
-0.023057,0.459613,0.372201,-1.66789,0.446923,-0.694289,-0.133924,-0.103395,-0.32931
-0.00744286,0.425701,0.353861,-1.69466,0.321186,-0.88989,-0.153073,-0.179066,-0.458096
0.00549139,0.395127,0.334303,-1.32363,0.197324,-0.871808,-0.143099,-0.179161,-0.632303
0.0143856,0.37398,0.317746,-0.769149,0.0841813,-0.658376,-0.151681,-0.090106,-0.732149
0.0196367,0.363715,0.307731,-0.266336,0.0954523,-0.28205,-0.182978,0.0141194,-0.721803
0.0227653,0.362015,0.305575,0.0803238,0.130058,0.0493938,-0.222307,0.0706814,-0.607431
0.0242352,0.366239,0.308036,0.326338,0.100293,0.142096,-0.276379,0.0644972,-0.436406
0.0259923,0.374599,0.309113,0.486367,0.129876,-0.0558868,-0.343645,0.0246365,-0.257404
0.0312758,0.384374,0.304265,0.478907,0.22667,-0.361483,-0.374494,0.0219209,-0.0472359
0.0408273,0.392529,0.293675,0.375667,0.32577,-0.571638,-0.333702,0.0583988,0.167102
0.0528868,0.398845,0.279814,0.331034,0.331038,-0.663241,-0.270728,0.108096,0.325724
0.0646491,0.404916,0.264709,0.371472,0.240824,-0.68928,-0.229226,0.148198,0.430689
0.074205,0.412432,0.248942,0.490221,0.0763925,-0.712496,-0.208622,0.164495,0.494423
0.0806686,0.422339,0.231766,0.610261,-0.124202,-0.794151,-0.190505,0.166364,0.53583
0.0849053,0.433087,0.212004,0.582335,-0.264346,-0.91693,-0.171105,0.167462,0.572755
0.0875206,0.441165,0.189881,0.390681,-0.419471,-1.01022,-0.124358,0.164176,0.614402
0.0869676,0.445194,0.167011,0.206198,-0.622334,-0.997543,-0.0531232,0.15538,0.596412
0.0869676,0.445194,0.167011,0.206198,-0.622334,-0.997543,-0.0531232,0.15538,0.596412
0.0814883,0.446283,0.14593,0.0644675,-0.846684,-0.88267,0.0198511,0.137549,0.526567
0.069724,0.444971,0.128272,-0.0695727,-1.07756,-0.718387,0.0735605,0.100247,0.43754
0.0536409,0.442295,0.114492,-0.100884,-1.09032,-0.558079,0.118811,0.0271363,0.308691
0.0382461,0.44003,0.103334,-0.0877978,-0.923659,-0.468259,0.128385,-0.0413033,0.154779
0.0255269,0.436734,0.0939088,-0.255757,-0.754663,-0.3964,0.155567,-0.0848149,0.0535783
0.0151715,0.427883,0.0861018,-0.629239,-0.609578,-0.344364,0.193564,-0.15053,0.00161457
0.00767732,0.412225,0.0787135,-0.895657,-0.433256,-0.358376,0.184448,-0.217042,-0.159006
0.00440158,0.393555,0.0713598,-0.935576,-0.184511,-0.312632,0.186105,-0.271906,-0.397426
0.00623547,0.37686,0.0660382,-0.695555,0.22913,-0.187436,0.219712,-0.318292,-0.596515
0.017744,0.366649,0.0633665,-0.335144,0.836233,-0.0755307,0.22953,-0.338197,-0.705849
0.0388252,0.361927,0.0635485,-0.181254,1.19612,0.0878694,0.245636,-0.330051,-0.629774
0.0586384,0.358236,0.0678866,-0.204524,0.830606,0.301553,0.275545,-0.328103,-0.46736
0.0649551,0.356035,0.0764941,-0.0108691,0.133626,0.482745,0.273588,-0.311977,-0.423806
0.0611506,0.36111,0.0881907,0.468096,0.00462035,0.648223,0.214283,-0.231069,-0.514165
0.0592989,0.375691,0.103462,0.859658,0.408975,0.875037,0.174239,-0.0983252,-0.47731
0.0646558,0.394869,0.123354,0.88204,0.834279,1.07024,0.160561,-0.00961515,-0.256067
0.0727905,0.411357,0.1465,0.586598,0.805823,1.16159,0.126273,0.00138587,0.00449902
0.0744667,0.421165,0.171277,0.249269,0.314966,1.14703,0.100393,-0.0432479,0.150151
0.0651228,0.425868,0.1937,0.106968,-0.307141,0.900344,0.0228433,-0.0799005,0.132429
0.0483849,0.428913,0.209603,0.130391,-0.665456,0.575022,-0.0545746,-0.0606341,0.0293409
0.0302714,0.432598,0.219316,0.21075,-0.682506,0.354244,-0.0553106,0.0307425,-0.025291
0.0168108,0.437894,0.226318,0.308311,-0.323377,0.32199,-0.00986807,0.127799,-0.0147236
0.0122204,0.444962,0.234399,0.38375,0.221598,0.441232,0.0221577,0.228825,0.042742
0.0163012,0.453533,0.246545,0.465191,0.689132,0.679029,0.0321003,0.301593,0.1358
0.0247253,0.464492,0.264245,0.610741,0.892797,0.926996,0.0262059,0.327547,0.227669
0.031414,0.4788,0.286544,0.761724,0.745239,1.09287,0.0148782,0.316229,0.313716
0.0313119,0.495568,0.311644,0.840369,0.411311,1.16632,-0.00376733,0.292716,0.389918
0.0236758,0.512868,0.337266,0.812527,0.0769097,1.11078,-0.0402353,0.267702,0.413272
0.0103948,0.528285,0.36092,0.683707,-0.217306,0.966876,-0.0572106,0.251443,0.416406
-0.00644678,0.540046,0.381384,0.486649,-0.403583,0.804824,-0.0551549,0.224472,0.372071
-0.0241343,0.547303,0.398702,0.273434,-0.448836,0.676941,-0.039421,0.214295,0.307051
-0.0402334,0.550438,0.413336,0.0905477,-0.390712,0.562701,-0.0319416,0.191884,0.209287
-0.0530864,0.550509,0.425042,-0.0248648,-0.265416,0.431351,-0.0297901,0.160053,0.108489
-0.0609624,0.548864,0.433338,-0.0902743,-0.0958716,0.2856,-0.0526078,0.1397,0.00540251
-0.0650601,0.546386,0.438671,-0.134322,-0.0758793,0.195597,-0.0527735,0.129374,-0.0758207
-0.0694398,0.54261,0.442225,-0.229954,-0.180702,0.13362,-0.0290372,0.112503,-0.119836
-0.0747243,0.536478,0.44471,-0.369604,-0.186941,0.138374,-0.0395624,0.0987431,-0.165483
-0.0784771,0.527214,0.447336,-0.542043,-0.0438673,0.145404,-0.0402352,0.053192,-0.215566
-0.0783624,0.513923,0.448591,-0.801783,0.111181,0.0523788,-0.080939,0.0517626,-0.230269
-0.0753915,0.494014,0.445823,-1.23258,-0.011134,-0.169667,-0.132752,-0.00233796,-0.208246
-0.075209,0.465227,0.435429,-1.68737,-0.458343,-0.555097,-0.190218,-0.097654,-0.219174
-0.0779086,0.431462,0.415659,-1.75248,-0.604702,-0.948192,-0.230679,-0.158202,-0.35917
-0.078438,0.401238,0.389734,-1.41393,-0.4496,-1.1427,-0.241266,-0.0829526,-0.53347
-0.0740424,0.378844,0.363886,-1.02631,-0.0924799,-1.03214,-0.197552,0.0211529,-0.559537
-0.0658681,0.362174,0.343588,-0.799764,0.146087,-0.728984,-0.151386,0.109481,-0.446629
-0.0573772,0.348362,0.330138,-0.652355,0.216423,-0.477439,-0.142281,0.117527,-0.304106
-0.0497231,0.337985,0.319905,-0.420947,0.198802,-0.463549,-0.168014,0.0573868,-0.19031
-0.0423405,0.33285,0.308784,-0.147223,0.180773,-0.573053,-0.184879,0.0124525,-0.067405
-0.0342119,0.332416,0.295703,0.0376735,0.212375,-0.65231,-0.177369,0.025241,0.0838944
-0.0248232,0.334536,0.281759,0.124509,0.263472,-0.666633,-0.14045,0.0549091,0.246182
-0.0151562,0.337542,0.267652,0.14654,0.218396,-0.673222,-0.102735,0.0759045,0.386517
-0.00752515,0.340636,0.253296,0.141568,0.0512098,-0.698822,-0.0702236,0.0837354,0.492031
-0.00367177,0.343049,0.237887,0.0833157,-0.185527,-0.76392,-0.0461485,0.0808825,0.55098
-0.00383625,0.343686,0.220775,-0.0349213,-0.391074,-0.856441,-0.00606218,0.0689695,0.571426
-0.00727419,0.341532,0.201918,-0.186792,-0.582581,-0.904789,0.0534391,0.0587771,0.544208
-0.0135827,0.336722,0.182976,-0.323476,-0.666852,-0.880313,0.117037,0.0647091,0.468582
-0.020915,0.329349,0.165115,-0.43327,-0.630805,-0.777053,0.149321,0.046755,0.364625
-0.0277786,0.320442,0.150384,-0.490439,-0.536501,-0.602773,0.198496,0.0178063,0.227432
-0.033243,0.310746,0.13862,-0.505341,-0.349003,-0.504252,0.213377,-0.0510271,0.105281
-0.0343375,0.301314,0.128096,-0.473289,-0.0841822,-0.471078,0.215813,-0.135552,-0.020942
-0.0309905,0.292707,0.118384,-0.412916,0.137977,-0.432152,0.202107,-0.184508,-0.111887
-0.0239666,0.285463,0.109614,-0.342163,0.283383,-0.382656,0.181716,-0.215087,-0.187824
-0.0162533,0.278829,0.102311,-0.337551,0.274527,-0.30132,0.205154,-0.249184,-0.217551
-0.00996899,0.272643,0.0971991,-0.280818,0.207142,-0.174275,0.217135,-0.267251,-0.290174
-0.006283,0.268385,0.0953951,-0.115486,0.139907,0.0062814,0.211335,-0.262169,-0.371314
-0.00161674,0.269434,0.0973221,0.234324,0.438735,0.16794,0.192843,-0.253299,-0.489098
0.0097356,0.276709,0.101567,0.447283,0.793609,0.240428,0.179615,-0.271456,-0.502044
0.0251156,0.285264,0.107274,0.355324,0.822902,0.322187,0.188457,-0.260993,-0.380879
0.0351286,0.290717,0.113961,0.208027,0.329904,0.318814,0.16815,-0.254132,-0.307704
0.0359706,0.296247,0.119865,0.374817,0.00766658,0.271771,0.106336,-0.217497,-0.402624
0.03565,0.307394,0.125357,0.73069,0.207165,0.313887,0.0799046,-0.101339,-0.510966
0.0422868,0.325009,0.133247,0.964001,0.7033,0.522563,0.0940027,0.0333826,-0.435295
0.0555952,0.344641,0.145596,0.899921,0.975522,0.727487,0.110054,0.119261,-0.211945
0.0681219,0.360777,0.16145,0.605313,0.763836,0.855277,0.0968659,0.119573,0.0183067
0.0716384,0.371026,0.179298,0.321499,0.193114,0.853084,0.0713395,0.0819933,0.132904
0.063933,0.377239,0.195406,0.225565,-0.328484,0.679061,0.0142265,0.0495985,0.103689
0.063933,0.377239,0.195406,0.225565,-0.328484,0.679061,0.0142265,0.0495985,0.103689
0.0498318,0.382555,0.208276,0.252043,-0.58174,0.565731,-0.00189904,0.0827338,0.0148498
0.0337736,0.389228,0.220122,0.37823,-0.533248,0.571636,0.0270624,0.148228,-0.030251
0.0204013,0.398514,0.233079,0.518712,-0.290664,0.668687,0.0514043,0.209812,-0.0114452
0.0116319,0.410152,0.249232,0.619673,0.0462867,0.848866,0.0727071,0.262655,0.0637726
0.00693466,0.423341,0.269632,0.681287,0.289087,1.02794,0.0609688,0.296185,0.157076
0.00410677,0.437307,0.293546,0.704126,0.407637,1.14557,0.016345,0.312188,0.249455
0.000939011,0.451398,0.319197,0.702647,0.355127,1.16231,-0.0333004,0.304297,0.318798
-0.00473106,0.46522,0.344335,0.686662,0.175389,1.08447,-0.073851,0.28001,0.369589
-0.0141182,0.47858,0.367504,0.66357,-0.0536888,0.966048,-0.0786854,0.261453,0.399265
-0.026297,0.490704,0.388045,0.580834,-0.187914,0.832062,-0.0642263,0.257792,0.406233
-0.0389048,0.500128,0.405924,0.407928,-0.20521,0.724593,-0.0428189,0.271103,0.381694
-0.0498359,0.505763,0.421901,0.225348,-0.10079,0.658336,-0.012711,0.2763,0.328446
-0.0573487,0.507784,0.436139,0.0335173,0.0343017,0.575321,-0.000451878,0.265967,0.273022
-0.0621343,0.50525,0.447981,-0.241596,0.0270788,0.470342,0.00318842,0.229327,0.242689
-0.0673684,0.496293,0.456663,-0.60732,-0.143703,0.343397,-0.0190817,0.191288,0.201822
-0.074049,0.481027,0.461414,-0.864177,-0.283639,0.174098,-0.035885,0.135267,0.105954
-0.0800676,0.461986,0.460965,-1.05707,-0.333935,-0.0727051,-0.067288,0.0867483,-0.0218985
-0.0842107,0.438502,0.455086,-1.33309,-0.295961,-0.234058,-0.0771059,0.0506826,-0.109889
-0.0842834,0.410551,0.447109,-1.48486,-0.0301847,-0.246566,-0.0729584,0.00282851,-0.228001
-0.0793188,0.381912,0.439039,-1.42001,0.178571,-0.272734,-0.126836,-0.0224612,-0.337034
-0.0734921,0.355291,0.430051,-1.31363,0.0245405,-0.380555,-0.159477,-0.0982124,-0.35327
-0.0716194,0.330402,0.417157,-1.29522,-0.276826,-0.691805,-0.182022,-0.184061,-0.318109
-0.0733785,0.304282,0.396436,-1.47609,-0.509575,-1.07591,-0.190202,-0.226118,-0.28845
-0.0763502,0.275167,0.368815,-1.60353,-0.546745,-1.33062,-0.150654,-0.205877,-0.343677
-0.0775125,0.24589,0.337908,-1.51481,-0.340656,-1.38674,-0.107283,-0.132145,-0.454729
-0.0749436,0.220366,0.309198,-1.2273,-0.061851,-1.16884,-0.0604516,-0.0443066,-0.51531
-0.0696447,0.201224,0.287961,-0.813856,0.121347,-0.751002,-0.0261608,0.0283142,-0.47551
-0.0645564,0.191178,0.276445,-0.244397,0.14251,-0.333001,-0.00801384,0.0388008,-0.393555
-0.0607825,0.192916,0.272226,0.371808,0.15247,-0.132281,-0.0473154,0.0170387,-0.302574
-0.0575683,0.204257,0.270699,0.694209,0.141018,-0.103093,-0.0905101,0.00900742,-0.118113
-0.0542246,0.218421,0.269096,0.686037,0.168336,-0.140029,-0.106117,0.0157917,0.108473
-0.0495,0.231355,0.266164,0.597427,0.243503,-0.217466,-0.112422,0.0249511,0.265591
-0.043004,0.242631,0.260985,0.509174,0.273484,-0.346693,-0.105012,0.0203779,0.373056
-0.0358955,0.252055,0.252527,0.400932,0.224696,-0.517541,-0.0955868,0.0200699,0.457417
-0.0292719,0.259118,0.240086,0.260979,0.10078,-0.706013,-0.0827628,0.0147122,0.494416
-0.0254161,0.263128,0.224415,0.105989,-0.112017,-0.803319,-0.0295079,0.0231642,0.505705
-0.0247113,0.264486,0.207843,0.0096385,-0.22465,-0.790426,0.0242921,0.0370629,0.457684
-0.0249499,0.264997,0.192243,0.0130254,-0.203319,-0.70513,0.0580579,0.0410197,0.359126
-0.0258679,0.265936,0.179307,0.0533793,-0.230199,-0.545937,0.0974503,0.0225327,0.272904
-0.0282105,0.267806,0.169561,0.113566,-0.263502,-0.404546,0.111094,-0.0188459,0.17445
-0.0310851,0.271004,0.162509,0.183051,-0.196456,-0.291836,0.126519,-0.0627146,0.0721374
-0.0320756,0.275074,0.157335,0.191031,-0.0287831,-0.224233,0.128261,-0.102497,-0.00111777
-0.0297922,0.278134,0.153488,0.0874034,0.134928,-0.158996,0.140795,-0.131017,-0.0322806
-0.0253698,0.2785,0.150952,-0.0489196,0.234521,-0.0773075,0.157187,-0.150196,-0.0664894
-0.020215,0.277065,0.150315,-0.077179,0.255116,0.00631494,0.162677,-0.180064,-0.161762
-0.0152705,0.275865,0.15067,-0.0404376,0.260053,0.0220484,0.151732,-0.207891,-0.257359
-0.00841126,0.275622,0.15123,0.0298361,0.493514,0.0285503,0.147925,-0.230982,-0.323346
0.00572801,0.276788,0.151466,0.0563043,0.934131,-0.00780534,0.142851,-0.243639,-0.365516
0.0253951,0.275728,0.151287,-0.199635,0.900992,-0.00804953,0.16061,-0.233322,-0.311551
0.0378001,0.269039,0.150901,-0.411674,0.30468,-0.075691,0.169501,-0.263766,-0.308925
0.0399623,0.262259,0.148441,-0.188804,-0.100008,-0.166691,0.111988,-0.23764,-0.491492
0.0388103,0.263368,0.145684,0.328923,0.0184203,-0.0614184,0.111814,-0.116619,-0.630942
0.0442152,0.274568,0.147017,0.741521,0.577828,0.265975,0.136303,0.03549,-0.574531
0.0570007,0.290869,0.155809,0.792109,0.876366,0.643289,0.132038,0.150127,-0.32655
0.0570007,0.290869,0.155809,0.792109,0.876366,0.643289,0.132038,0.150127,-0.32655
0.0689504,0.305833,0.170326,0.601027,0.686403,0.802567,0.0966547,0.131272,-0.0561308
0.073562,0.316532,0.185835,0.372854,0.22752,0.713548,0.0292156,0.0713436,0.0947689
0.0696903,0.323438,0.197843,0.261112,-0.201403,0.472623,-0.0532974,0.0447417,0.137726
0.0612505,0.32915,0.205231,0.285034,-0.3717,0.284089,-0.106236,0.0851408,0.121774
0.0524576,0.335793,0.210132,0.353091,-0.318474,0.247089,-0.0872401,0.161366,0.138163
0.0458243,0.343178,0.215943,0.346964,-0.134177,0.354128,-0.0426489,0.216792,0.205121
0.0428129,0.350235,0.224883,0.330657,0.140646,0.519406,-0.0295967,0.256388,0.277268
0.0435428,0.357628,0.237151,0.362263,0.325983,0.662294,-0.0381504,0.262499,0.3243
0.0447694,0.36614,0.252097,0.433885,0.294291,0.767813,-0.0582064,0.257184,0.359035
0.0428086,0.376312,0.268501,0.514482,0.083235,0.798036,-0.0843566,0.241044,0.382558
0.035146,0.387575,0.285122,0.542419,-0.24541,0.790255,-0.0772254,0.225799,0.403391
0.02103,0.397974,0.301553,0.445713,-0.499886,0.757173,-0.0506198,0.217629,0.402021
0.00467153,0.405367,0.317076,0.271389,-0.50344,0.675176,-0.0388693,0.209481,0.354464
-0.00982153,0.408491,0.330369,0.0420128,-0.42901,0.55174,-0.0477189,0.197366,0.280943
-0.0224538,0.407323,0.341334,-0.119454,-0.392495,0.461752,-0.0349422,0.180683,0.201507
-0.0324852,0.404125,0.349967,-0.175896,-0.257378,0.334682,-0.0434705,0.149852,0.102464
-0.038097,0.39923,0.35551,-0.323935,-0.0892123,0.200296,-0.0377682,0.132224,0.0594706
-0.0400623,0.390085,0.358833,-0.575888,0.00434277,0.159314,0.00203916,0.118717,0.0589306
-0.0407863,0.376842,0.361616,-0.716798,0.0191473,0.149191,0.0282399,0.101369,-0.00685489
-0.0417723,0.361664,0.363974,-0.800379,-0.0408842,0.13279,0.0137291,0.0769449,-0.0879064
-0.0423543,0.344698,0.365635,-0.897503,0.0763394,0.0900961,0.00574757,0.028312,-0.149312
-0.0385016,0.325502,0.365969,-1.03003,0.326861,0.0141129,-0.0178046,-0.0337924,-0.196934
-0.0299388,0.303167,0.364467,-1.22662,0.41671,-0.0839922,-0.044551,-0.0668422,-0.217739
-0.0235548,0.27668,0.360379,-1.43694,0.0458448,-0.257917,-0.0673853,-0.126083,-0.229415
-0.0259031,0.24667,0.351733,-1.56015,-0.479562,-0.503839,-0.0810696,-0.199321,-0.306046
-0.0346008,0.217655,0.338987,-1.32194,-0.618033,-0.637607,-0.095098,-0.206697,-0.483895
-0.041671,0.196567,0.324854,-0.828299,-0.337065,-0.631966,-0.116202,-0.12716,-0.651731
-0.0420165,0.185143,0.313655,-0.382985,0.0899259,-0.394071,-0.10587,-0.031184,-0.655363
-0.0358133,0.180931,0.308589,-0.0801329,0.388478,-0.101314,-0.0972862,0.0262289,-0.53084
-0.0277178,0.181324,0.307887,0.106351,0.381986,-0.0103371,-0.150749,0.0215792,-0.357623
-0.020592,0.184834,0.306572,0.234817,0.308409,-0.161158,-0.237664,-0.0180446,-0.207366
-0.0137445,0.190639,0.300803,0.34084,0.280304,-0.42254,-0.293588,-0.040357,-0.0655116
-0.00604367,0.198632,0.290126,0.448493,0.285583,-0.61263,-0.272624,-0.0196825,0.0741001
0.00237304,0.20858,0.277054,0.543885,0.291126,-0.658013,-0.190905,0.0241634,0.216986
0.0109026,0.219774,0.263609,0.578459,0.274792,-0.648702,-0.13474,0.0699379,0.348279
0.0189215,0.230751,0.25,0.53054,0.218269,-0.673142,-0.113573,0.091578,0.458108
0.0256715,0.239771,0.235344,0.406344,0.109283,-0.730866,-0.0937973,0.0859302,0.531924
0.0297443,0.246152,0.219792,0.280864,-0.0802709,-0.758258,-0.0534559,0.0830905,0.559089
0.0303556,0.250161,0.204281,0.170657,-0.23559,-0.728322,-0.0146357,0.0895551,0.532757
0.027123,0.251987,0.189859,0.0576202,-0.439249,-0.665332,0.0278749,0.0681455,0.47406
0.020452,0.252134,0.177132,-0.00682805,-0.535639,-0.565912,0.0640126,0.041814,0.361246
0.0117084,0.251308,0.166563,-0.054035,-0.581811,-0.461742,0.0794799,0.0162801,0.227799
0.00334994,0.250059,0.158205,-0.0506678,-0.43673,-0.355748,0.102727,-0.0252285,0.0850576
-0.000899221,0.249769,0.151818,0.0304139,-0.130117,-0.267289,0.135988,-0.0738498,-0.0225621
0.000939723,0.250926,0.146894,0.0583567,0.174048,-0.21508,0.13532,-0.101629,-0.0428379
0.00657647,0.250559,0.142973,-0.129894,0.250649,-0.166153,0.146125,-0.126078,-0.0241516
0.0110944,0.245219,0.140262,-0.385779,0.118981,-0.101557,0.158717,-0.16136,-0.109367
0.0128708,0.237226,0.138862,-0.358861,0.0702684,-0.0441172,0.141833,-0.195199,-0.296931
0.0163677,0.232626,0.138405,-0.0988767,0.303041,-0.0127797,0.145298,-0.219234,-0.425015
0.0243555,0.231652,0.138347,-0.0636059,0.400806,0.00527393,0.167902,-0.230634,-0.39167
0.0277768,0.228017,0.138361,-0.310247,-0.125375,-0.0286744,0.144576,-0.242139,-0.400023
0.0202553,0.220842,0.137034,-0.342833,-0.554773,-0.126389,0.0971203,-0.213565,-0.587551
0.0114198,0.216595,0.133638,-0.0345795,-0.286984,-0.186795,0.0828719,-0.0932306,-0.700339
0.0114198,0.216595,0.133638,-0.0345795,-0.286984,-0.186795,0.0828719,-0.0932306,-0.700339
0.014372,0.220238,0.131619,0.387317,0.582865,0.037753,0.154646,0.019182,-0.598474
0.0322843,0.229849,0.135735,0.497274,1.18918,0.379038,0.190296,0.0755019,-0.278928
0.0527,0.238415,0.146031,0.290081,0.97998,0.64697,0.186546,0.00389358,-0.0182525
0.0621489,0.24264,0.160201,0.0691178,0.262834,0.711153,0.135191,-0.0754838,0.0462255
0.056289,0.244157,0.173652,0.0450911,-0.467061,0.58976,0.0682731,-0.112037,-0.0417544
0.0416788,0.246571,0.183812,0.139059,-0.687569,0.404229,0.0390918,-0.0613553,-0.135442
0.0271343,0.250009,0.190858,0.171156,-0.564797,0.321891,0.0769383,0.00400442,-0.12509
0.0166717,0.253673,0.198293,0.187051,-0.28571,0.429546,0.11283,0.0783381,-0.074633
0.0113602,0.258361,0.209184,0.282433,0.030635,0.638737,0.110401,0.131442,-0.00418431
0.0107589,0.265829,0.224653,0.459517,0.29785,0.872997,0.0821027,0.163695,0.0840056
0.0130102,0.277458,0.244815,0.681735,0.44693,1.08103,0.0521544,0.173845,0.194416
0.0151341,0.293146,0.268422,0.847078,0.407327,1.20375,0.0145953,0.182581,0.316712
0.0142452,0.311454,0.294015,0.940008,0.254806,1.26282,-0.0168859,0.189042,0.406092
0.00899329,0.330737,0.320329,0.951381,0.0493307,1.25642,-0.0434484,0.197559,0.458735
-0.00062113,0.349141,0.346179,0.874499,-0.137992,1.18601,-0.0557823,0.199208,0.484451
-0.0128357,0.364856,0.370109,0.697218,-0.219884,1.04068,-0.0713683,0.205112,0.472779
-0.0237674,0.375525,0.390331,0.39835,-0.11929,0.832693,-0.0796213,0.20543,0.429121
-0.0304632,0.379761,0.40604,0.0789974,0.036793,0.613773,-0.0938429,0.178728,0.345284
-0.0321105,0.378993,0.416477,-0.0929807,0.15663,0.357383,-0.0989421,0.147329,0.245545
-0.0317931,0.376747,0.421519,-0.103592,0.0207196,0.128541,-0.0922679,0.131173,0.157088
-0.0347579,0.374801,0.42285,-0.0935436,-0.286607,0.0242507,-0.0459696,0.153594,0.0941266
-0.0424799,0.372582,0.423024,-0.143729,-0.423553,0.00583094,-0.00571938,0.171028,0.019921
-0.0497696,0.36808,0.42259,-0.334981,-0.277338,-0.0269059,0.00431791,0.15287,-0.0428058
-0.0503507,0.358885,0.421422,-0.584812,0.201439,-0.0336748,-0.0027276,0.103397,-0.144213
-0.0421105,0.344497,0.419242,-0.890378,0.46984,-0.133266,-0.0643793,0.0726784,-0.194599
-0.0319217,0.322614,0.412827,-1.33382,0.289292,-0.419327,-0.115055,-0.010208,-0.227382
-0.0249001,0.292217,0.398723,-1.73045,0.00364744,-0.864687,-0.118645,-0.107142,-0.337764
-0.0196526,0.255816,0.375744,-1.93105,-0.0358214,-1.2233,-0.112595,-0.0778825,-0.50325
-0.011792,0.218584,0.349244,-1.78645,0.231264,-1.24875,-0.0926301,0.0211234,-0.632795
0.00055399,0.187216,0.326329,-1.33514,0.526673,-0.936149,-0.0597789,0.116422,-0.639987
0.0148752,0.166563,0.312712,-0.715718,0.618902,-0.416549,-0.0739492,0.153023,-0.564226
0.0259482,0.158345,0.309169,-0.110823,0.385844,0.0226412,-0.119783,0.1203,-0.424632
0.02957,0.161439,0.312198,0.392309,0.047444,0.253043,-0.187018,0.0622282,-0.287253
0.0277463,0.172665,0.31738,0.688517,-0.12164,0.263878,-0.25725,0.0417574,-0.117528
0.0245607,0.187893,0.321138,0.800444,-0.0999136,0.131266,-0.281618,0.030951,0.0609307
0.0238287,0.203417,0.321453,0.735083,0.0457177,-0.0636746,-0.262654,0.0373747,0.231927
0.027155,0.216478,0.317843,0.573911,0.19955,-0.26222,-0.227736,0.0328449,0.366727
0.033517,0.225723,0.31001,0.377785,0.252022,-0.476909,-0.211875,0.0257823,0.463236
0.0408687,0.2312,0.297959,0.225974,0.192709,-0.68167,-0.185629,0.0108078,0.501403
0.0466968,0.233885,0.281854,0.127403,0.0187177,-0.872441,-0.141936,0.0108567,0.506823
0.0497669,0.235196,0.262838,0.10763,-0.143035,-0.95243,-0.0803287,0.0219287,0.475064
0.0503464,0.236505,0.243504,0.118567,-0.238046,-0.914037,-0.0226639,0.0381695,0.442168
0.0495189,0.237856,0.225418,0.105465,-0.263904,-0.847622,0.00729963,0.0208669,0.390896
0.0487694,0.239585,0.208113,0.161208,-0.206433,-0.848213,0.00101276,-0.0411738,0.30216
0.0500626,0.242095,0.189712,0.150308,-0.123972,-0.937815,0.0152146,-0.0592588,0.255312
0.0521033,0.242258,0.169872,-0.0535617,-0.158615,-0.962173,0.101541,-0.0734595,0.213668
0.0531204,0.238053,0.152215,-0.2716,-0.130367,-0.75054,0.201881,-0.087889,0.0948331
0.054245,0.23072,0.140595,-0.377645,-0.0258476,-0.41009,0.206877,-0.0622915,-0.0687472
0.0551744,0.223731,0.136358,-0.260732,-0.0174789,-0.0537268,0.187271,-0.109368,-0.216074
0.0531522,0.221237,0.137478,0.00175749,-0.158907,0.11388,0.138933,-0.190903,-0.308481
0.048798,0.22312,0.139942,0.152026,-0.194394,0.122594,0.118156,-0.254725,-0.346551
0.0460102,0.226948,0.141851,0.220973,0.00190643,0.076196,0.0970464,-0.260865,-0.38054
0.0506807,0.232014,0.142621,0.269573,0.499332,0.0300421,0.11235,-0.250286,-0.369887
0.0633693,0.23637,0.143585,0.135181,0.709162,0.111577,0.166995,-0.237581,-0.270327
0.0633693,0.23637,0.143585,0.135181,0.709162,0.111577,0.166995,-0.237581,-0.270327
0.0734862,0.237315,0.146778,-0.0566638,0.28747,0.170974,0.120578,-0.247481,-0.264736
0.071612,0.235057,0.148881,-0.151092,-0.38266,0.00503835,0.0607268,-0.24429,-0.386849
0.0619462,0.232807,0.147531,-0.0278146,-0.508224,-0.13391,0.0837302,-0.183703,-0.552205
0.0572239,0.235561,0.14476,0.337314,0.0323076,-0.083134,0.149358,-0.0682469,-0.581195
0.0644914,0.245229,0.145322,0.573677,0.670323,0.230453,0.195935,0.065304,-0.384108
0.0780534,0.256895,0.153331,0.502365,0.787764,0.615796,0.205362,0.0690959,-0.114191
0.0862289,0.266201,0.16759,0.313232,0.331043,0.797912,0.162425,-0.00441819,0.0436817
0.0821357,0.272345,0.183137,0.190794,-0.306686,0.710692,0.0689144,-0.0473849,0.0508229
0.0685641,0.276629,0.19544,0.160635,-0.671068,0.51112,-0.001239,-0.0102561,-0.00649583
0.0512951,0.280483,0.204498,0.186362,-0.766905,0.410056,0.0170458,0.0618237,-0.00834441
0.0351845,0.285365,0.213092,0.276529,-0.585099,0.455066,0.0533577,0.124632,0.0443534
0.0235426,0.292498,0.223775,0.409602,-0.262734,0.604129,0.0703397,0.179016,0.134553
0.0177065,0.302147,0.23822,0.531642,0.0970131,0.807298,0.0652804,0.208673,0.251013
0.0168413,0.31427,0.256872,0.655108,0.3643,0.982133,0.0336364,0.210657,0.355489
0.0180723,0.328728,0.278436,0.75581,0.398703,1.0868,9.2946e-05,0.210718,0.454341
0.0167843,0.344701,0.301817,0.801633,0.2233,1.14977,-0.0282322,0.210016,0.522831
0.0103154,0.360922,0.326342,0.780301,-0.0284486,1.17311,-0.0492319,0.205142,0.549352
-0.00153798,0.375635,0.350669,0.678681,-0.26261,1.09051,-0.070133,0.176723,0.526297
-0.0164062,0.38748,0.372227,0.51391,-0.418304,0.899069,-0.0625238,0.138842,0.472813
-0.0330398,0.394655,0.389528,0.228729,-0.586771,0.693284,-0.0430072,0.137297,0.396579
-0.0505207,0.395693,0.402874,-0.0612023,-0.622722,0.546355,-0.0368227,0.151134,0.245451
-0.0658767,0.392486,0.412998,-0.170504,-0.527624,0.405918,-0.0284252,0.127207,0.0613001
-0.0781447,0.38857,0.419583,-0.182331,-0.453073,0.236089,-0.0213976,0.11823,-0.0543926
-0.0875022,0.383886,0.422681,-0.27613,-0.340837,0.0971817,-0.021677,0.104934,-0.124396
-0.0918604,0.376703,0.422494,-0.453356,-0.0921683,-0.0620312,-0.0181095,0.0563183,-0.183032
-0.0895683,0.366014,0.417782,-0.652302,0.136812,-0.278067,-0.0131103,0.0324718,-0.220479
-0.0811124,0.352561,0.409549,-0.733674,0.462126,-0.339098,0.0161186,0.000652075,-0.274265
-0.0658843,0.33805,0.401762,-0.77517,0.757337,-0.291033,-0.0201801,-0.0224169,-0.270207
-0.0491859,0.322534,0.394509,-0.817756,0.599653,-0.334663,-0.0958404,-0.0441132,-0.257622
-0.039337,0.305411,0.384405,-0.959172,0.0541005,-0.581016,-0.175384,-0.0820818,-0.253008
-0.0381497,0.285229,0.368056,-1.09375,-0.330703,-0.906962,-0.166876,-0.141536,-0.35032
-0.0387025,0.264925,0.346266,-0.969491,-0.282102,-1.06539,-0.149806,-0.074986,-0.485241
-0.0367938,0.249934,0.324557,-0.600859,-0.0664759,-0.946731,-0.124834,0.0307719,-0.512577
-0.0321053,0.241596,0.307868,-0.31768,0.123573,-0.618449,-0.140418,0.128031,-0.422548
-0.0262483,0.237417,0.29883,-0.132335,0.221546,-0.273581,-0.190174,0.125803,-0.315419
-0.0215081,0.236791,0.294465,0.0561045,0.131345,-0.20091,-0.268919,0.0746269,-0.211998
-0.0189178,0.239112,0.288892,0.140783,0.00409273,-0.36968,-0.321221,0.0351492,-0.0910031
-0.0167055,0.24173,0.278681,0.0875333,-0.00015933,-0.631824,-0.307283,0.0301843,0.0262251
-0.012054,0.242742,0.263806,-0.00146397,0.124978,-0.803068,-0.231677,0.0327387,0.12909
-0.00385722,0.24278,0.24663,0.00277236,0.272981,-0.858508,-0.159342,0.0468446,0.217614
0.00635414,0.243511,0.229159,0.0792496,0.313462,-0.826489,-0.100969,0.0598368,0.308872
0.0161562,0.246092,0.212859,0.203346,0.266367,-0.755002,-0.0685557,0.0608761,0.38219
0.0242466,0.251154,0.197744,0.331198,0.167373,-0.710553,-0.0590366,0.0658281,0.450474
0.0299509,0.257832,0.182926,0.360516,0.0193789,-0.719375,-0.0528671,0.0630141,0.50536
0.0326011,0.263918,0.167626,0.291291,-0.148463,-0.741071,-0.00551148,0.0446331,0.532291
0.0321347,0.268104,0.1523,0.175706,-0.295537,-0.722027,0.0268037,0.0413164,0.518678
0.0287951,0.269927,0.137999,0.0555636,-0.412645,-0.644629,0.0565714,0.0345137,0.4539
0.0233317,0.270073,0.1259,-0.00596623,-0.451043,-0.523636,0.0814285,0.00245893,0.357822
0.0165178,0.269519,0.116102,-0.0239007,-0.501679,-0.432139,0.0923099,-0.0522898,0.263633
0.0080342,0.26914,0.107756,-0.00117862,-0.555498,-0.380138,0.108725,-0.10661,0.155055
-0.000602612,0.26924,0.100089,-0.00155005,-0.511569,-0.35964,0.138261,-0.139122,0.0645134
-0.00838617,0.268303,0.0930566,-0.109217,-0.441434,-0.31952,0.158248,-0.145809,-0.0325463
-0.0142791,0.264657,0.0867247,-0.262796,-0.315506,-0.29296,0.160785,-0.166202,-0.147221
-0.017819,0.258152,0.0803299,-0.397417,-0.184677,-0.327358,0.139252,-0.187226,-0.278865
-0.017819,0.258152,0.0803299,-0.397417,-0.184677,-0.327358,0.139252,-0.187226,-0.278865
-0.0161849,0.249525,0.0729579,-0.460478,0.196856,-0.362231,0.157422,-0.203328,-0.409256
-0.00735626,0.240399,0.0654503,-0.476276,0.419565,-0.335622,0.207584,-0.202782,-0.440649
-0.00104671,0.230134,0.0601312,-0.543744,0.00978051,-0.16428,0.266873,-0.207271,-0.462751
-0.00614886,0.220494,0.0584337,-0.385348,-0.499582,-0.0191728,0.217731,-0.205742,-0.632963
-0.0178371,0.215283,0.0585221,-0.135982,-0.605221,0.0226986,0.114287,-0.12416,-0.741272
-0.0270195,0.215204,0.0593292,0.125037,-0.221935,0.0648914,0.0730849,-0.0389099,-0.727724
-0.0248925,0.219265,0.0621051,0.26303,0.52023,0.214495,0.120318,0.019591,-0.576445
-0.00959984,0.22444,0.0686846,0.245156,1.09661,0.417429,0.159322,0.0333061,-0.324076
0.0113742,0.228361,0.0791105,0.140006,1.15522,0.598926,0.155105,0.0235009,-0.098412
0.0280049,0.23057,0.0928872,0.0653397,0.775758,0.738882,0.146736,0.00345039,0.0236153
0.0343077,0.232378,0.108428,0.0866082,0.219097,0.775182,0.117637,0.00858247,0.063125
0.0311215,0.235434,0.124693,0.167386,-0.100879,0.832596,0.108597,0.0534404,0.0665926
0.0243176,0.239828,0.142986,0.219518,-0.116928,0.973768,0.111543,0.115175,0.0838084
0.0176263,0.245347,0.164644,0.289406,-0.0128796,1.14591,0.112343,0.139454,0.120522
0.012813,0.252149,0.189878,0.358045,0.150137,1.31118,0.0945109,0.151921,0.176322
0.00995344,0.260363,0.218266,0.441688,0.271648,1.44953,0.0588484,0.156571,0.233781
0.007812,0.27056,0.249141,0.550942,0.300746,1.53841,0.0141855,0.159284,0.295105
0.00428655,0.28252,0.281468,0.62436,0.222588,1.58324,-0.0337034,0.159545,0.342565
-0.00167906,0.295795,0.314541,0.708961,0.129811,1.59057,-0.0737265,0.156873,0.356929
-0.00948491,0.310661,0.347314,0.798261,0.0748054,1.52856,-0.107699,0.164682,0.375383
-0.0181121,0.326355,0.378109,0.791896,0.0310214,1.36684,-0.132396,0.153708,0.398173
-0.0264351,0.339743,0.404474,0.576456,-0.00808481,1.08769,-0.13139,0.122338,0.427954
-0.0342673,0.347427,0.424218,0.252661,-0.126827,0.74667,-0.109495,0.0869551,0.386431
-0.0428555,0.349847,0.436724,0.0697682,-0.296117,0.433896,-0.0750176,0.0888782,0.261088
-0.0512029,0.350871,0.443495,0.0763303,-0.280284,0.210694,-0.0304441,0.103573,0.126365
-0.056535,0.3525,0.446407,0.0873116,-0.134749,0.0654704,0.038489,0.0992735,0.067964
-0.0578051,0.353271,0.446837,-0.03361,0.00802309,-0.0212397,0.0886748,0.114676,0.0491362
-0.0564353,0.350471,0.445954,-0.261231,0.093826,-0.041876,0.0960063,0.138644,0.00311494
-0.0543604,0.342941,0.444196,-0.49997,0.0428747,-0.092517,0.0663065,0.128266,-0.0751701
-0.0532032,0.331184,0.440728,-0.675092,-0.0166705,-0.157803,0.0459701,0.0830671,-0.200913
-0.050552,0.31779,0.437255,-0.647811,0.220174,-0.0828038,0.0418205,0.0414718,-0.364975
-0.0424388,0.305909,0.435953,-0.582131,0.504957,-0.00287352,-0.0243172,0.0502145,-0.407393
-0.0322926,0.292774,0.435079,-0.761277,0.437164,-0.0565068,-0.107881,-0.019069,-0.397514
-0.0254727,0.275906,0.431083,-0.903194,0.125855,-0.314266,-0.177627,-0.114941,-0.480394
-0.022321,0.259127,0.421073,-0.747431,-0.0369152,-0.578281,-0.18004,-0.107792,-0.603527
-0.0206516,0.248126,0.409004,-0.356329,-0.0761415,-0.528228,-0.154177,0.0158209,-0.63212
-0.0195726,0.245055,0.400975,0.0103525,-0.022698,-0.215844,-0.155177,0.114603,-0.533815
-0.0198379,0.247855,0.400498,0.261479,-0.0264172,0.145821,-0.189876,0.122736,-0.406818
-0.0217807,0.25521,0.405226,0.483594,-0.0449772,0.25122,-0.265334,0.0637894,-0.285351
-0.0236536,0.266375,0.409486,0.623353,-0.0202887,0.116442,-0.310221,0.0281745,-0.123811
-0.0228749,0.278945,0.410022,0.621856,0.140124,-0.10191,-0.332076,0.0391359,0.0495348
-0.0164429,0.290556,0.405453,0.526873,0.377852,-0.361219,-0.332697,0.0577253,0.222695
-0.00387273,0.300087,0.395704,0.426221,0.581802,-0.576565,-0.292306,0.0712844,0.378247
0.0126872,0.307717,0.38168,0.354613,0.633378,-0.756559,-0.24906,0.0819819,0.495355
0.0296566,0.313927,0.36407,0.309876,0.510871,-0.904285,-0.214879,0.0942574,0.580547
0.0442259,0.319071,0.343689,0.269962,0.298593,-1.01974,-0.182758,0.0971315,0.632803
0.0543745,0.322342,0.321009,0.16071,0.00365459,-1.11789,-0.137517,0.0946976,0.647106
0.0594336,0.322914,0.29701,0.02901,-0.241011,-1.15266,-0.0799187,0.0782564,0.597092
0.0601848,0.321031,0.273096,-0.0679287,-0.432873,-1.11266,-0.0171128,0.0688414,0.487293
0.0574538,0.318104,0.251058,-0.0957311,-0.527635,-0.996473,0.0172207,0.0513986,0.373708
0.0521666,0.314866,0.231602,-0.125908,-0.607873,-0.869989,0.0649072,-0.00387883,0.258779
0.0450894,0.311506,0.215092,-0.121126,-0.580509,-0.722872,0.120547,-0.0690875,0.122857
0.0394641,0.308888,0.201318,-0.0968348,-0.401052,-0.606391,0.15327,-0.113084,0.0134692
0.0394641,0.308888,0.201318,-0.0968348,-0.401052,-0.606391,0.15327,-0.113084,0.0134692
0.0366429,0.305704,0.189681,-0.194145,-0.227073,-0.521818,0.159324,-0.16365,-0.0508501
0.037352,0.299494,0.179417,-0.404408,-0.015316,-0.49569,0.163568,-0.216544,-0.122466
0.0415697,0.289058,0.169208,-0.587657,0.121477,-0.530168,0.180488,-0.260895,-0.221179
0.0467862,0.276088,0.158529,-0.637303,0.0752509,-0.540705,0.200074,-0.266239,-0.334776
0.0508701,0.264209,0.14889,-0.470602,0.116046,-0.423284,0.2141,-0.263512,-0.397995
0.05594,0.25761,0.142776,-0.158208,0.20344,-0.18738,0.27084,-0.260352,-0.5023
0.058261,0.256722,0.142168,0.045615,-0.0454072,0.125188,0.312912,-0.23498,-0.485463
0.052412,0.259322,0.146845,0.189834,-0.387214,0.304605,0.272713,-0.214538,-0.467136
0.0413048,0.26462,0.152735,0.31238,-0.532477,0.276284,0.155182,-0.19114,-0.516741
0.0312082,0.272656,0.157857,0.495324,-0.262609,0.261492,0.113275,-0.126874,-0.527995
0.0300755,0.285469,0.163795,0.764468,0.334927,0.35589,0.12053,-0.0479212,-0.480708
0.0390938,0.301945,0.17177,0.802026,0.714954,0.456505,0.104362,0.0393058,-0.308451
0.0496274,0.316008,0.181267,0.540292,0.553312,0.505034,0.0933828,0.0591266,-0.0555694
0.0531261,0.324436,0.191027,0.280326,0.0843528,0.438367,0.0714495,0.0239893,0.0762848
0.0475044,0.32926,0.197895,0.196011,-0.403252,0.233298,0.0217605,0.00191653,0.0611659
0.0352856,0.333707,0.20117,0.254761,-0.683408,0.125454,-0.00255516,0.0521574,-0.00460613
0.0199627,0.340167,0.203387,0.385325,-0.722731,0.116376,0.0148586,0.132854,-0.0234923
0.00670937,0.348908,0.206341,0.469596,-0.473522,0.190858,0.0411193,0.193297,0.0218635
-0.000261457,0.358463,0.211979,0.487973,-0.0072932,0.355619,0.0596473,0.254675,0.103032
0.00130302,0.368645,0.221745,0.546526,0.499948,0.558868,0.0557151,0.283844,0.187454
0.00971077,0.380608,0.235455,0.637193,0.787803,0.711149,0.0254844,0.282938,0.277074
0.0192246,0.393768,0.251354,0.645808,0.734867,0.782854,-0.0185152,0.278569,0.398336
0.0248586,0.406539,0.268464,0.599957,0.466384,0.825513,-0.0450775,0.26729,0.473936
0.024109,0.418691,0.286407,0.57857,0.193578,0.845783,-0.0461943,0.249918,0.48431
0.0187263,0.429373,0.304334,0.428695,0.00740915,0.810967,-0.0572324,0.249858,0.481059
0.00942701,0.435024,0.321609,0.113032,-0.21947,0.760022,-0.0496103,0.245941,0.488576
-0.00379708,0.435127,0.3374,-0.0669457,-0.438625,0.668548,-0.0455222,0.203462,0.393474
-0.0204063,0.433365,0.351087,-0.0830767,-0.635796,0.590315,-0.0286463,0.181249,0.242375
-0.0386996,0.431092,0.363873,-0.11934,-0.617243,0.583348,0.0106141,0.163179,0.148766
-0.0537823,0.427488,0.376231,-0.191841,-0.35493,0.546363,0.0281058,0.130727,0.0632965
-0.0621549,0.421572,0.38654,-0.383323,-0.0744408,0.414787,0.0154778,0.0969704,-0.00490367
-0.0639188,0.409669,0.392294,-0.797612,0.118969,0.173005,-0.0170938,0.0561882,-0.0108135
-0.061181,0.38938,0.391201,-1.2163,0.0543108,-0.141797,-0.0561202,-0.00858384,-0.0404536
-0.0589172,0.363458,0.383803,-1.36356,-0.0739681,-0.367252,-0.0417195,-0.0792757,-0.165368
-0.0565716,0.337693,0.373738,-1.26333,0.00579544,-0.405564,-0.0316892,-0.092975,-0.325047
-0.0516863,0.312639,0.363962,-1.34474,0.137156,-0.393904,-0.0534564,-0.0607766,-0.390001
-0.0462794,0.284066,0.353123,-1.56916,0.0707554,-0.553574,-0.0757541,-0.129301,-0.387707
-0.0417566,0.251728,0.336765,-1.70896,-0.0266508,-0.889422,-0.130607,-0.207481,-0.46568
-0.0366066,0.219416,0.314908,-1.55558,0.0638201,-1.07377,-0.155884,-0.19332,-0.591829
-0.0290006,0.193514,0.292728,-1.07787,0.251203,-0.970153,-0.123126,-0.0973338,-0.674138
-0.0193239,0.17821,0.27633,-0.497795,0.402842,-0.577109,-0.0703388,-0.000130355,-0.624297
-0.00982431,0.173439,0.269424,-0.00471665,0.405078,-0.103041,-0.0495731,0.0700169,-0.481054
-0.00296376,0.17727,0.271211,0.371712,0.305172,0.238875,-0.0695925,0.0773594,-0.302617
0.000714768,0.187421,0.27728,0.630604,0.184859,0.324442,-0.141861,0.0398867,-0.125743
0.00266136,0.201548,0.282871,0.770559,0.131811,0.210369,-0.215544,0.0177214,0.0397215
0.00471085,0.217422,0.285261,0.80335,0.122691,0.0235334,-0.24578,0.0177304,0.189001
0.0074502,0.232721,0.283673,0.722903,0.117309,-0.165695,-0.238512,0.0366104,0.331475
0.0108643,0.245961,0.278505,0.61248,0.0971964,-0.327136,-0.206414,0.0443159,0.437422
0.0142555,0.256823,0.269888,0.485389,0.023704,-0.495955,-0.176522,0.0551108,0.508119
0.0171111,0.265085,0.257816,0.366154,-0.0407127,-0.663588,-0.146533,0.0563025,0.540628
0.0204117,0.270905,0.242257,0.239193,-0.0347133,-0.825335,-0.123197,0.061198,0.539332
0.0242037,0.273757,0.22413,0.0905946,-0.0913036,-0.897233,-0.0718384,0.0758621,0.5403
0.02591,0.27401,0.206102,-0.0116945,-0.224942,-0.825869,0.0172499,0.0708112,0.510054
0.0242318,0.272692,0.190462,-0.0807899,-0.36022,-0.683693,0.0687985,0.0572122,0.433546
0.0194126,0.270028,0.17794,-0.158018,-0.463333,-0.532708,0.0947869,0.0259597,0.334798
0.0194126,0.270028,0.17794,-0.158018,-0.463333,-0.532708,0.0947869,0.0259597,0.334798
0.0121096,0.266687,0.168486,-0.134068,-0.50355,-0.399713,0.122764,-0.0421576,0.200952
0.00499516,0.265401,0.161077,0.0150067,-0.374212,-0.315836,0.144487,-0.103518,0.047678
0.00121413,0.266211,0.155902,0.0284084,-0.141799,-0.168767,0.173816,-0.118041,-0.0317929
0.000832659,0.264916,0.154226,-0.182206,0.0539699,-0.00452001,0.17481,-0.122541,-0.049107
0.00283055,0.258822,0.155003,-0.411619,0.158028,0.0571367,0.159922,-0.164697,-0.106935
0.00628936,0.249522,0.155867,-0.498436,0.195246,0.0141444,0.141076,-0.219658,-0.22302
0.0114872,0.240139,0.15572,-0.416634,0.355615,-0.0321357,0.117184,-0.24405,-0.345623
0.0199192,0.233158,0.155133,-0.295589,0.40194,-0.0166928,0.111465,-0.2487,-0.438598
0.023396,0.227183,0.15607,-0.315083,-0.0912231,0.105745,0.148304,-0.208573,-0.403953
0.0157796,0.221186,0.159081,-0.265491,-0.54601,0.14199,0.144563,-0.201176,-0.456994
0.0036234,0.217527,0.160605,-0.0963005,-0.557198,-0.0132844,0.021639,-0.155172,-0.632932
-0.00274532,0.218144,0.159398,0.17008,-0.0349333,-0.0697847,-0.0109001,-0.0854774,-0.702826
0.00461536,0.224564,0.159693,0.456399,0.781358,0.132302,0.0324268,0.0122931,-0.638797
0.0239868,0.234962,0.165179,0.547897,1.18542,0.41624,0.0490622,0.108767,-0.403382
0.043332,0.245453,0.175284,0.444944,0.882035,0.579886,0.0284755,0.0985103,-0.127731
0.0507098,0.253178,0.186936,0.276121,0.106355,0.549314,-0.00799552,0.0455721,0.0329625
0.0427999,0.257817,0.195724,0.158024,-0.605893,0.309781,-0.0626739,0.00361237,0.0542439
0.0269967,0.260646,0.199791,0.132756,-0.811499,0.118785,-0.0782515,0.015182,-0.0275214
0.0112828,0.26472,0.20164,0.293345,-0.649249,0.0925325,-0.0397134,0.0858728,-0.0827776
0.00106137,0.272617,0.204645,0.489909,-0.278689,0.222697,0.00859086,0.150967,-0.0507708
-0.00236675,0.284042,0.211857,0.648672,0.122986,0.4851,0.0473006,0.208217,0.0657476
-0.000822392,0.298076,0.224774,0.758363,0.381261,0.738597,0.0483935,0.233715,0.205323
0.00278962,0.31389,0.241613,0.82217,0.451542,0.849492,0.0101946,0.223632,0.336588
0.00553782,0.330733,0.259462,0.849531,0.374233,0.84299,-0.032734,0.198043,0.438329
0.00577607,0.347521,0.276475,0.814641,0.198648,0.770409,-0.0665117,0.192222,0.512287
0.00189932,0.362964,0.291853,0.71937,-0.0573874,0.680718,-0.0791529,0.186635,0.554506
-0.00670596,0.375807,0.305225,0.562961,-0.309424,0.56861,-0.0775939,0.181797,0.563995
-0.0190441,0.384776,0.31613,0.335847,-0.512663,0.430696,-0.0659065,0.169175,0.533358
-0.0336127,0.388414,0.323958,0.0475377,-0.630693,0.281935,-0.0600682,0.163344,0.465088
-0.0477175,0.386879,0.328243,-0.174218,-0.600416,0.125757,-0.0488741,0.128047,0.34151
-0.0598334,0.381965,0.329539,-0.298762,-0.564544,0.033578,0.00922367,0.0909609,0.21056
-0.0703455,0.375155,0.329125,-0.391621,-0.500753,-0.0216007,0.048767,0.0704268,0.0757326
-0.0790422,0.365994,0.327866,-0.546526,-0.417647,-0.0199018,0.0731657,0.0694565,-0.026926
-0.0861845,0.352714,0.326135,-0.806078,-0.374288,-0.0462598,0.0689075,0.063097,-0.105022
-0.0924987,0.334452,0.322536,-1.02433,-0.353537,-0.129861,0.0218955,0.0194744,-0.221008
-0.0949286,0.314226,0.317453,-0.992226,-0.00171958,-0.151323,0.0144461,-0.0675062,-0.398186
-0.0891518,0.296757,0.312418,-0.798374,0.368362,-0.170075,-0.0177174,-0.130904,-0.534096
-0.0810609,0.281713,0.307467,-0.778716,0.212229,-0.178854,-0.0670103,-0.123778,-0.471406
-0.0809448,0.265902,0.301491,-0.844122,-0.392014,-0.317186,-0.100421,-0.163566,-0.409382
-0.0908607,0.249807,0.290509,-0.836223,-0.805321,-0.602924,-0.149706,-0.191855,-0.469287
-0.103159,0.235889,0.275081,-0.668414,-0.716952,-0.730894,-0.155735,-0.126522,-0.590342
-0.109291,0.22701,0.259706,-0.376666,-0.217361,-0.623876,-0.111193,-0.0133684,-0.626364
-0.105428,0.223176,0.249625,-0.118379,0.367792,-0.290694,-0.0646435,0.0979609,-0.526248
-0.093567,0.223462,0.247708,0.135976,0.723692,0.0829084,-0.0432614,0.148685,-0.345154
-0.0794076,0.228716,0.251971,0.424614,0.750248,0.244891,-0.0863311,0.114606,-0.149152
-0.0668156,0.239343,0.257612,0.664463,0.629222,0.214863,-0.161059,0.0751533,0.0284693
-0.0570877,0.253652,0.261933,0.769795,0.451818,0.116683,-0.190344,0.0694372,0.199259
-0.0500963,0.268988,0.263883,0.763895,0.311221,-0.014672,-0.184056,0.0767457,0.34694
-0.0443651,0.283719,0.262621,0.702506,0.237716,-0.175385,-0.163889,0.0817319,0.449555
-0.0386877,0.297107,0.257813,0.621039,0.19741,-0.342709,-0.135365,0.0896756,0.517194
-0.0325734,0.308672,0.249235,0.504498,0.151565,-0.513522,-0.115212,0.102851,0.558022
-0.0264812,0.317526,0.237191,0.344532,0.0881561,-0.65164,-0.0822674,0.114738,0.574311
-0.0210736,0.322917,0.222839,0.176468,-0.0034778,-0.719827,-0.0396026,0.122175,0.560469
-0.0210736,0.322917,0.222839,0.176468,-0.0034778,-0.719827,-0.0396026,0.122175,0.560469
-0.017785,0.325623,0.207532,0.0822145,-0.163638,-0.730988,0.00177382,0.113814,0.494207
-0.0181355,0.326839,0.192717,0.010284,-0.34675,-0.667011,0.0388573,0.0965178,0.401664
-0.0219923,0.32628,0.179949,-0.0892256,-0.426301,-0.542081,0.0702231,0.0646314,0.294409
-0.026451,0.324201,0.169795,-0.135103,-0.317877,-0.427578,0.0888519,0.0145966,0.152408
-0.0274869,0.321719,0.161607,-0.129343,-0.0243737,-0.34324,0.0814628,-0.0316109,0.0245373
-0.0235288,0.318921,0.155247,-0.186973,0.183367,-0.254133,0.0836653,-0.0765337,-0.0456225
-0.0180666,0.313968,0.150533,-0.316939,0.19251,-0.192112,0.0773479,-0.121615,-0.0627419
-0.0136972,0.306624,0.1465,-0.41731,0.120135,-0.192784,0.0701563,-0.183037,-0.116785
-0.0106298,0.29761,0.142259,-0.480637,0.0743043,-0.201288,0.0717926,-0.221809,-0.191826
-0.00780717,0.287779,0.138286,-0.489681,0.120455,-0.164794,0.0673157,-0.238744,-0.266922
-0.0023573,0.279404,0.135507,-0.324592,0.366665,-0.102856,0.0521774,-0.237783,-0.360178
0.00738027,0.275119,0.133791,-0.132943,0.510017,-0.0636999,0.0681995,-0.257712,-0.401952
0.0150091,0.271938,0.132969,-0.212879,0.160871,-0.0284916,0.0751121,-0.249559,-0.326132
0.0130812,0.266657,0.132136,-0.282084,-0.335978,-0.0767759,0.0586553,-0.24258,-0.331766
0.00495326,0.262174,0.129829,-0.141448,-0.473454,-0.14678,0.032417,-0.191884,-0.470325
-0.00104305,0.261864,0.126898,0.124795,-0.132765,-0.11247,0.0410771,-0.0878742,-0.538379
0.0026579,0.267104,0.126675,0.380045,0.501998,0.111061,0.075836,0.0198595,-0.479937
0.0155394,0.275435,0.131273,0.41888,0.846019,0.322586,0.104127,0.0998155,-0.263349
0.0296847,0.282537,0.139225,0.258539,0.729838,0.439004,0.0977325,0.0940092,-0.00984424
0.0385747,0.285888,0.148035,0.0519527,0.380305,0.392076,0.0612667,0.0536466,0.135913
0.0401708,0.285831,0.154499,-0.0621453,-0.0255021,0.22779,0.0259225,0.0319851,0.175664
0.0363849,0.284737,0.158232,-0.0409645,-0.189499,0.153306,0.0203246,0.0568303,0.142236
0.0324642,0.284893,0.162072,0.0501556,-0.0712285,0.236013,0.0299003,0.14606,0.0972934
0.0314042,0.287062,0.168849,0.144062,0.163744,0.43952,0.0604925,0.200173,0.124073
0.0330059,0.290875,0.180631,0.198554,0.311491,0.704379,0.0744501,0.230669,0.195036
0.0344835,0.296166,0.197701,0.281667,0.306169,0.934743,0.054381,0.232224,0.263954
0.0330642,0.303624,0.218344,0.397817,0.140639,1.0464,0.00292357,0.207321,0.31177
0.0264227,0.31303,0.24013,0.473969,-0.152786,1.05792,-0.0470627,0.177572,0.350197
0.0136459,0.322938,0.261846,0.463868,-0.42795,1.02017,-0.0642554,0.158663,0.372932
-0.0030228,0.331157,0.282011,0.331591,-0.570949,0.882889,-0.0732675,0.139026,0.371184
-0.0199254,0.335362,0.298347,0.103963,-0.566606,0.648647,-0.0856781,0.109812,0.335629
-0.0339677,0.335021,0.308909,-0.103247,-0.493133,0.349364,-0.0899515,0.0627981,0.262126
-0.0449675,0.331041,0.313266,-0.271157,-0.466008,0.0948219,-0.0572046,0.0349886,0.172852
-0.0536495,0.324635,0.313475,-0.356064,-0.390591,-0.0202103,0.000316247,0.0300221,0.0750048
-0.0597431,0.317626,0.312539,-0.339173,-0.237071,-0.0141265,0.0680583,0.0228376,-0.0259889
-0.0634028,0.311318,0.312919,-0.288643,-0.141881,0.104464,0.108029,0.0163662,-0.0966434
-0.0675801,0.305934,0.316364,-0.233909,-0.185463,0.239243,0.114152,0.00667423,-0.138485
-0.0733295,0.300967,0.320847,-0.252114,-0.264659,0.196025,0.0417419,-0.0252419,-0.170212
-0.08011,0.294229,0.322886,-0.429192,-0.335748,0.0434567,-0.0104813,-0.0722719,-0.16964
-0.0857969,0.283551,0.321183,-0.64647,-0.266047,-0.117146,-0.0512598,-0.124836,-0.212317
-0.0886607,0.269391,0.315689,-0.801228,-0.18097,-0.285539,-0.0932225,-0.128036,-0.281766
-0.0897609,0.253274,0.306801,-0.875501,-0.172922,-0.4263,-0.105831,-0.123296,-0.344821
-0.0904581,0.2368,0.295266,-0.846597,-0.155228,-0.535674,-0.0957494,-0.131954,-0.406957
-0.0891072,0.223154,0.282406,-0.59228,0.0195815,-0.580912,-0.0896851,-0.117545,-0.493844
-0.0837022,0.216497,0.270458,-0.169035,0.267184,-0.491396,-0.0812195,-0.0425144,-0.536346
-0.0747467,0.217448,0.263321,0.185514,0.444885,-0.191035,-0.0570101,0.0646919,-0.461471
-0.0661674,0.223346,0.263256,0.387241,0.380796,0.123447,-0.0809699,0.147672,-0.315058
-0.061241,0.232285,0.26783,0.52289,0.208139,0.224684,-0.170147,0.155067,-0.195414
-0.0597434,0.24289,0.271882,0.541379,0.0562108,0.0708822,-0.270566,0.136383,-0.0949734
-0.0585073,0.252944,0.270985,0.451997,0.0671626,-0.237527,-0.335278,0.116527,0.00128275
-0.0537127,0.261595,0.263163,0.38697,0.228899,-0.558968,-0.333607,0.102631,0.0802166
-0.0436967,0.269842,0.249422,0.373413,0.404773,-0.789306,-0.259198,0.108788,0.161822
-0.0296808,0.277744,0.232375,0.355895,0.53121,-0.864427,-0.178004,0.1485,0.272074
-0.0133737,0.285088,0.214604,0.34704,0.58983,-0.852088,-0.117736,0.174888,0.374514
-0.0133737,0.285088,0.214604,0.34704,0.58983,-0.852088,-0.117736,0.174888,0.374514
0.00255109,0.292057,0.197526,0.346362,0.498935,-0.781174,-0.0792558,0.191091,0.461175
0.0151106,0.298685,0.182093,0.328118,0.302741,-0.69869,-0.0560517,0.188398,0.528567
0.0235366,0.304432,0.1677,0.263218,0.121062,-0.678453,-0.0604161,0.164879,0.560229
0.0284751,0.307674,0.153225,0.0856482,-0.0388866,-0.698004,-0.0410197,0.122133,0.569689
0.0308148,0.306779,0.13877,-0.129958,-0.173247,-0.674141,-0.00344681,0.0814692,0.54107
0.02971,0.302338,0.125885,-0.253225,-0.290756,-0.564343,0.0457842,0.0546344,0.45204
0.0275016,0.296539,0.115355,-0.293744,-0.251318,-0.462439,0.0481955,0.024512,0.316191
0.0245181,0.290581,0.106875,-0.269014,-0.289824,-0.365888,0.0675766,-0.0261744,0.197429
0.0200161,0.286059,0.100538,-0.1678,-0.357463,-0.243852,0.0850161,-0.0859295,0.0771675
0.0128219,0.283424,0.0973791,-0.108821,-0.440168,-0.0679171,0.12447,-0.106479,-0.0272647
0.00396378,0.280301,0.097618,-0.226216,-0.416598,0.0808176,0.12409,-0.130277,-0.10857
-0.0034293,0.274219,0.10007,-0.373475,-0.255688,0.139526,0.0889488,-0.167941,-0.210281
-0.00716687,0.266277,0.102355,-0.393211,-0.0484095,0.0706864,0.0396596,-0.233638,-0.332112
-0.00487491,0.259596,0.102162,-0.258318,0.293305,-0.0918502,0.00097315,-0.287194,-0.44964
0.00442612,0.255827,0.0987098,-0.145153,0.484099,-0.221365,-0.0047856,-0.305014,-0.476693
0.0127297,0.252412,0.0939693,-0.213269,0.158316,-0.233693,0.0436127,-0.273316,-0.387173
0.0125045,0.247655,0.0888926,-0.221249,-0.247262,-0.277222,0.0572743,-0.24637,-0.385002
0.00874584,0.244601,0.0826727,-0.0641361,-0.214941,-0.317455,0.0410751,-0.198642,-0.508502
0.00992044,0.245499,0.076784,0.171903,0.260612,-0.231852,0.0787256,-0.113969,-0.532198
0.0218699,0.25099,0.0736812,0.350563,0.831208,-0.0602571,0.129269,-0.0337716,-0.425028
0.0405051,0.257952,0.0743797,0.326241,0.971781,0.149383,0.152328,0.010152,-0.182515
0.0555664,0.263592,0.0789346,0.20985,0.584977,0.308284,0.160858,-0.00881308,0.0294762
0.058852,0.266985,0.0859615,0.0998459,-0.101295,0.369823,0.143995,-0.0277712,0.123576
0.0488101,0.268739,0.0930287,0.0450047,-0.650348,0.305567,0.102466,-0.0342425,0.0997685
0.0324224,0.269768,0.0982414,0.0484052,-0.820549,0.206815,0.0449123,0.00288227,-0.00156343
0.0154369,0.272152,0.102225,0.199822,-0.717988,0.20554,0.0616394,0.0594388,-0.0582213
0.00283599,0.27802,0.107653,0.381699,-0.368361,0.349111,0.0946392,0.129738,-0.051007
-0.00239634,0.287083,0.117442,0.516246,0.12694,0.603185,0.118112,0.197844,0.0360364
0.000336161,0.297863,0.132387,0.546945,0.543005,0.818035,0.094863,0.231939,0.170749
0.00764719,0.308765,0.150581,0.544429,0.697626,0.911161,0.0490042,0.226124,0.312453
0.0149621,0.320185,0.169723,0.586088,0.581633,0.92553,-0.00854019,0.192855,0.411916
0.0166748,0.332393,0.189268,0.598413,0.191312,0.96181,-0.0355673,0.199582,0.482791
0.00897992,0.344322,0.210423,0.567453,-0.252412,1.05874,-0.022384,0.205113,0.512723
-0.00723676,0.355513,0.233404,0.549522,-0.539753,1.08782,-0.00505663,0.189426,0.467473
-0.0270367,0.365036,0.255753,0.420663,-0.619555,0.980754,-0.0243999,0.159275,0.391961
-0.0456295,0.370643,0.274931,0.201252,-0.552031,0.781777,-0.013804,0.104951,0.311343
-0.0611904,0.371393,0.288901,-0.0666438,-0.502682,0.513616,-0.0181055,0.0510697,0.217844
-0.0733625,0.366331,0.296771,-0.395336,-0.419509,0.27002,0.0213295,0.00438702,0.144775
-0.0812868,0.355378,0.300091,-0.647773,-0.245794,0.149891,0.0989814,-0.0269633,0.0346543
-0.0851078,0.341429,0.301859,-0.705483,-0.0964274,0.144511,0.127202,-0.0145316,-0.103904
-0.0871957,0.327493,0.303839,-0.662878,-0.0787147,0.156809,0.121229,-0.0196075,-0.215483
-0.090236,0.314456,0.305355,-0.627653,-0.169578,0.0897015,0.103304,-0.0615958,-0.273775
-0.0929148,0.302082,0.305328,-0.61274,-0.0617005,0.0312109,0.0820645,-0.105735,-0.345252
-0.0913557,0.289579,0.304392,-0.662434,0.196042,-0.00157,0.0467503,-0.116612,-0.398125
-0.0852359,0.274801,0.302312,-0.857888,0.332273,-0.0826247,-0.00741702,-0.0989142,-0.378585
-0.0773803,0.255492,0.296958,-1.08972,0.31426,-0.300647,-0.0602008,-0.137232,-0.363573
-0.067551,0.234134,0.286596,-1.07815,0.438257,-0.528333,-0.112168,-0.170008,-0.456367
-0.054188,0.215985,0.274225,-0.765151,0.625234,-0.525339,-0.118819,-0.115463,-0.541529
-0.0383384,0.206116,0.264911,-0.253867,0.745816,-0.315133,-0.110462,-0.01232,-0.553396
-0.0230662,0.206197,0.262019,0.238095,0.707155,0.0489195,-0.127556,0.105526,-0.45667
-0.0114091,0.214945,0.266936,0.62723,0.54409,0.397985,-0.172051,0.175223,-0.297078
-0.00521128,0.230398,0.276893,0.9122,0.305685,0.524316,-0.251762,0.186404,-0.126078
-0.00366441,0.25003,0.286974,1.03226,0.0968353,0.424686,-0.317067,0.164959,0.0429035
-0.00452559,0.270023,0.293635,0.938392,0.0150504,0.203195,-0.343752,0.155212,0.210398
-0.00452559,0.270023,0.293635,0.938392,0.0150504,0.203195,-0.343752,0.155212,0.210398
-0.00424967,0.286349,0.295327,0.685842,0.0705337,-0.0465005,-0.328382,0.151531,0.352965
-0.000753407,0.297012,0.291911,0.383741,0.175674,-0.286778,-0.278729,0.1382,0.448479
0.00596533,0.3019,0.283177,0.115114,0.224523,-0.544297,-0.238285,0.12427,0.51071
0.0135555,0.302106,0.269451,-0.0646174,0.0992568,-0.761462,-0.19214,0.110779,0.540806
0.0187034,0.299714,0.252003,-0.123535,-0.0928916,-0.900918,-0.138993,0.111058,0.518837
0.0209368,0.296939,0.232884,-0.109114,-0.237705,-0.913193,-0.0630641,0.128089,0.47858
0.0202788,0.29476,0.214767,-0.0712581,-0.347991,-0.818876,-0.00241989,0.14659,0.43545
0.017223,0.292906,0.198682,-0.106643,-0.432149,-0.737225,0.0286011,0.122002,0.394172
0.0120792,0.289081,0.183962,-0.268818,-0.491078,-0.680885,0.0484961,0.0757061,0.363588
0.00615525,0.281775,0.170442,-0.435651,-0.48136,-0.621251,0.0633624,0.0250399,0.274937
0.000465744,0.272347,0.158541,-0.482282,-0.398673,-0.51608,0.0949036,-0.0299723,0.0629345
-0.00343323,0.263423,0.149789,-0.393504,-0.226026,-0.315694,0.141544,-0.0682412,-0.0610822
-0.00535788,0.257019,0.145504,-0.249933,-0.0998121,-0.104113,0.135767,-0.113675,-0.145243
-0.00704264,0.253079,0.144786,-0.165028,-0.10334,0.0212571,0.0840582,-0.168529,-0.192629
-0.0104488,0.249908,0.145525,-0.15411,-0.22122,0.0356692,0.0471419,-0.231934,-0.251821
-0.0154394,0.247283,0.145439,-0.107677,-0.261398,-0.0528241,0.0206454,-0.268367,-0.339067
-0.0188728,0.245137,0.143301,-0.120272,-0.0833269,-0.144525,0.00668027,-0.269121,-0.399377
-0.0154695,0.242923,0.139331,-0.0997995,0.318265,-0.248354,0.0100403,-0.269347,-0.429257
-0.00629507,0.241441,0.133502,-0.0526321,0.38114,-0.291283,0.0687193,-0.253848,-0.376666
-0.00107941,0.241027,0.128248,0.00867492,-0.0448503,-0.217709,0.105022,-0.22001,-0.35781
-0.00566696,0.242109,0.124341,0.101534,-0.444186,-0.168394,0.0876245,-0.172816,-0.438971
-0.0143026,0.24529,0.121367,0.233518,-0.4236,-0.120258,0.0813636,-0.101736,-0.491397
-0.0176812,0.252504,0.11996,0.49379,0.0984381,-0.0206229,0.104751,-0.0195494,-0.455308
-0.0097711,0.263688,0.121313,0.573848,0.68368,0.142864,0.137256,0.0387805,-0.236668
0.00503241,0.273386,0.125831,0.373775,0.844696,0.28437,0.142615,0.0316055,0.00694788
0.0170825,0.278049,0.132696,0.0812219,0.489752,0.371472,0.137887,-0.00835633,0.138912
0.0188419,0.277419,0.140141,-0.132246,-0.129653,0.320784,0.0965647,-0.0364285,0.129274
0.00959808,0.274381,0.145298,-0.155101,-0.583846,0.176427,0.0641711,-0.0175776,0.0163513
-0.00300234,0.271701,0.148269,-0.113964,-0.547323,0.138396,0.109093,0.0555718,-0.0540836
-0.0114632,0.270325,0.152258,-0.00146327,-0.155296,0.277294,0.159911,0.125992,-0.0574057
-0.0119146,0.271893,0.160843,0.16988,0.338884,0.569691,0.194475,0.18721,0.0238802
-0.00551983,0.276599,0.176395,0.313134,0.681361,0.927703,0.179138,0.205214,0.163025
0.00313323,0.284572,0.198537,0.497887,0.782963,1.1786,0.113784,0.176407,0.277923
0.0109238,0.296572,0.224198,0.680396,0.697912,1.27845,0.0371302,0.157127,0.387699
0.0142397,0.311452,0.251262,0.768405,0.426494,1.33116,0.00205556,0.154632,0.473476
0.0101561,0.327247,0.279433,0.771496,0.0420451,1.37179,-0.0171395,0.158931,0.510496
-0.0021446,0.342121,0.308459,0.695542,-0.297708,1.37495,-0.0259338,0.151145,0.49757
-0.019877,0.354102,0.336846,0.525743,-0.484342,1.27287,-0.0355872,0.120781,0.436751
-0.0395248,0.361771,0.36206,0.307844,-0.610287,1.05435,-0.0415802,0.0877259,0.348024
-0.0599887,0.364763,0.381736,0.0886691,-0.728972,0.772639,-0.0232305,0.0519032,0.236529
-0.0793942,0.363937,0.395161,-0.0732396,-0.706414,0.494127,0.00558895,0.0273119,0.100245
-0.0938795,0.360725,0.402813,-0.180064,-0.451409,0.261916,0.0427562,0.0267654,-0.0190556
-0.101259,0.35549,0.406481,-0.324227,-0.168564,0.1658,0.0921103,0.0436524,-0.0747113
-0.103432,0.34687,0.409409,-0.510622,0.0198875,0.196085,0.107962,0.0352374,-0.11503
-0.10355,0.334449,0.411607,-0.700185,0.0291358,0.120534,0.0449184,-0.00222635,-0.186979
-0.102659,0.319457,0.411396,-0.780327,0.0686121,0.0114429,0.0194743,-0.0760548,-0.304341
-0.0998143,0.303665,0.408403,-0.827213,0.118888,-0.138059,-0.0411563,-0.0691135,-0.371395
-0.0954591,0.287079,0.402313,-0.884085,0.129689,-0.281051,-0.077547,-0.0701957,-0.41695
-0.0907957,0.269966,0.393497,-0.88499,0.105075,-0.394652,-0.0764009,-0.0736334,-0.468641
-0.0855266,0.254202,0.383835,-0.738939,0.176456,-0.374704,-0.0726419,-0.0401075,-0.535322
-0.0790715,0.243446,0.376261,-0.368811,0.297747,-0.248639,-0.104294,0.0403035,-0.575488
-0.0716548,0.240661,0.373304,0.0586167,0.369334,-0.00384738,-0.145893,0.138247,-0.524476
-0.0647304,0.244903,0.376587,0.360405,0.383661,0.28752,-0.215916,0.197693,-0.406367
-0.0647304,0.244903,0.376587,0.360405,0.383661,0.28752,-0.215916,0.197693,-0.406367
-0.0599745,0.253248,0.385071,0.511893,0.293148,0.448875,-0.310244,0.192658,-0.279136
-0.057292,0.263957,0.394132,0.603689,0.231098,0.320524,-0.392309,0.143471,-0.167154
-0.0527585,0.276102,0.398101,0.621152,0.355425,-0.0256387,-0.420546,0.109033,-0.0340253
-0.0423331,0.287845,0.394258,0.512248,0.587416,-0.389702,-0.374002,0.111721,0.138541
-0.0255475,0.29628,0.383715,0.298526,0.773624,-0.627402,-0.284193,0.123629,0.303239
-0.00535196,0.300794,0.369112,0.156392,0.795864,-0.767495,-0.218124,0.127333,0.41128
0.0147605,0.303561,0.35218,0.148869,0.701536,-0.8477,-0.176072,0.121522,0.47662
0.0326385,0.306711,0.333555,0.210974,0.514882,-0.92817,-0.145429,0.110885,0.530751
0.0465494,0.310432,0.313292,0.222237,0.259067,-0.986701,-0.114529,0.104145,0.578169
0.0552406,0.312945,0.292278,0.128071,-0.040594,-0.994479,-0.0659891,0.0958867,0.60153
0.0575902,0.313624,0.271893,0.0576654,-0.338604,-0.943491,-0.0187248,0.0737819,0.556746
0.0548988,0.313118,0.252759,-0.00601143,-0.499501,-0.883204,-0.00482474,0.0608647,0.468865
0.0498553,0.311573,0.234919,-0.051472,-0.551721,-0.816789,0.0297437,0.0156326,0.356081
0.0427173,0.309872,0.218988,-0.0431449,-0.652775,-0.70419,0.0780888,-0.00841808,0.24905
0.0335864,0.308729,0.205507,-0.0310409,-0.634882,-0.586124,0.0891471,-0.0330661,0.138157
0.0261609,0.307513,0.194498,-0.0660231,-0.425051,-0.473338,0.124209,-0.0848989,0.0422101
0.0227093,0.305481,0.185596,-0.127598,-0.21183,-0.391439,0.144924,-0.119673,-0.0269666
0.0216599,0.301354,0.178201,-0.284293,-0.125036,-0.332693,0.136743,-0.148438,-0.083588
0.0218706,0.293589,0.171451,-0.476922,-0.0491288,-0.339758,0.110537,-0.184197,-0.180057
0.0233119,0.282525,0.16431,-0.599278,-0.0256109,-0.368108,0.101455,-0.215436,-0.304204
0.0253421,0.27067,0.156731,-0.546459,0.041093,-0.38904,0.121671,-0.235034,-0.42751
0.0288008,0.260889,0.149231,-0.421793,0.0583021,-0.338281,0.163141,-0.224742,-0.48178
0.0287317,0.253449,0.144343,-0.298246,-0.2046,-0.148296,0.179923,-0.188053,-0.509382
0.0231938,0.249195,0.142889,-0.11857,-0.344061,-0.0364623,0.12851,-0.162342,-0.566138
0.0183116,0.248609,0.142233,0.0575728,-0.0942636,-0.0334009,0.0933974,-0.118034,-0.572167
0.0215327,0.251059,0.142057,0.185852,0.431517,0.0429309,0.144503,-0.0489794,-0.469166
0.0344334,0.255777,0.144738,0.262253,0.872776,0.243525,0.182727,0.0105347,-0.270411
0.0509854,0.261402,0.152185,0.263246,0.916776,0.505157,0.189934,0.0161414,-0.0686741
0.0631645,0.267271,0.164562,0.256657,0.580021,0.709138,0.172975,-0.00916907,0.0514237
0.0650844,0.272991,0.180275,0.209696,0.0141684,0.815465,0.147758,-0.0324039,0.0914993
0.0554662,0.277096,0.196328,0.0934072,-0.504115,0.725597,0.0946262,-0.0475114,0.0722826
0.0395899,0.277856,0.209657,-0.0689727,-0.671285,0.575344,0.0567872,-0.00433069,-0.00735432
0.0236033,0.276863,0.221198,-0.0168255,-0.579654,0.551218,0.0827665,0.0604035,-0.0994008
0.0116595,0.279329,0.233343,0.253387,-0.248521,0.648659,0.114571,0.130829,-0.0954043
0.00679188,0.286692,0.249042,0.447608,0.204866,0.88237,0.135041,0.194249,0.0229442
0.00899489,0.296323,0.269738,0.487057,0.58025,1.09469,0.106647,0.207136,0.178104
0.0152042,0.306218,0.293515,0.473919,0.706703,1.17678,0.0376735,0.194628,0.306459
0.0208685,0.316019,0.318212,0.474082,0.586487,1.19804,-0.00106531,0.183146,0.38907
0.0220086,0.326382,0.343259,0.519943,0.295752,1.20814,-0.0250717,0.181581,0.427356
0.0154584,0.337781,0.368658,0.583851,-0.128785,1.22312,-0.026776,0.175602,0.429708
0.000852322,0.350337,0.394264,0.646889,-0.448829,1.18524,-0.0251688,0.15193,0.39667
-0.018311,0.362534,0.418334,0.572021,-0.606286,1.06269,-0.0151372,0.140945,0.36032
-0.0386822,0.371535,0.440017,0.378362,-0.64022,0.928769,-0.00142633,0.1262,0.285154
-0.0579059,0.376108,0.458092,0.168314,-0.628415,0.734065,0.0181685,0.0981384,0.185592
-0.0750158,0.377323,0.471928,0.0524234,-0.561873,0.5473,0.0531634,0.0473883,0.0632549
-0.0879947,0.377376,0.481692,0.0348258,-0.358017,0.367049,0.0659046,0.0435615,-0.050143
-0.094836,0.376989,0.488635,-0.0343742,-0.0960846,0.302126,0.0843059,0.0649764,-0.0772694
-0.098211,0.373753,0.494753,-0.248287,-0.0346067,0.292597,0.0818083,0.047027,-0.066778
-0.100717,0.365946,0.499004,-0.487807,-0.0834899,0.157532,0.0362263,-0.0163587,-0.105767
-0.103233,0.354213,0.498912,-0.66936,-0.151047,-0.0354096,0.0155824,-0.0676523,-0.189724
-0.104137,0.340213,0.495813,-0.741549,-0.0226944,-0.0901257,0.0203849,-0.0858071,-0.289214
-0.101633,0.325357,0.492063,-0.785524,0.126924,-0.110883,-0.0131327,-0.0687194,-0.332393
-0.0984352,0.308603,0.487361,-0.941873,-0.00422608,-0.18015,-0.0317021,-0.110822,-0.329304
-0.0985875,0.289482,0.480117,-0.988193,-0.181657,-0.330422,-0.0572331,-0.142935,-0.431134
-0.0985875,0.289482,0.480117,-0.988193,-0.181657,-0.330422,-0.0572331,-0.142935,-0.431134
-0.0982354,0.272499,0.47036,-0.750774,-0.0151673,-0.408251,-0.0383845,-0.107494,-0.550728
-0.0924756,0.262877,0.462122,-0.264551,0.37583,-0.269005,-0.00535673,-0.0140052,-0.570676
-0.0805695,0.262259,0.459596,0.14869,0.725208,0.0662329,0.00982881,0.0945745,-0.429004
-0.0669717,0.26723,0.465746,0.367552,0.730524,0.476575,-0.0524122,0.141304,-0.244397
-0.0586039,0.275199,0.478579,0.495774,0.403176,0.665736,-0.18872,0.121531,-0.128163
-0.0588126,0.285151,0.492312,0.572261,-0.0269625,0.54811,-0.297339,0.0703195,-0.0747244
-0.0643944,0.296816,0.501303,0.646798,-0.214905,0.221112,-0.332507,0.0537224,-0.0372711
-0.0674814,0.310127,0.503221,0.677741,0.0178554,-0.114533,-0.292644,0.094685,0.0389487
-0.0620171,0.322941,0.499217,0.561608,0.419294,-0.328592,-0.190296,0.145421,0.186519
-0.0473666,0.332939,0.491957,0.406799,0.789898,-0.407157,-0.126989,0.173227,0.324214
-0.0269623,0.340212,0.483068,0.303656,0.919287,-0.464735,-0.109291,0.173012,0.439244
-0.00555164,0.345935,0.472562,0.256607,0.85271,-0.545132,-0.104061,0.157329,0.516626
0.0140911,0.35079,0.459575,0.23131,0.662697,-0.679122,-0.100635,0.148159,0.564207
0.0300823,0.354222,0.443853,0.134503,0.393758,-0.787079,-0.0691803,0.153944,0.605461
0.0410699,0.354295,0.426873,-0.0851518,0.116266,-0.789358,-0.00344358,0.149786,0.60571
0.0462015,0.349584,0.411383,-0.301231,-0.125224,-0.672594,0.0434767,0.124001,0.520086
0.0465353,0.342475,0.398967,-0.32792,-0.251322,-0.535739,0.0519624,0.0747875,0.359898
0.0429574,0.336078,0.388972,-0.266524,-0.443721,-0.445776,0.0537881,0.0189499,0.234612
0.0357623,0.330887,0.380168,-0.220077,-0.546193,-0.420479,0.048155,-0.0504382,0.117071
0.027558,0.326585,0.371285,-0.193616,-0.554667,-0.437907,0.0831854,-0.103902,0.00957358
0.0194249,0.321908,0.362034,-0.28373,-0.53994,-0.436609,0.126395,-0.118239,-0.0564739
0.0126917,0.313583,0.353979,-0.556537,-0.367727,-0.339585,0.141873,-0.132098,-0.130263
0.00965229,0.299682,0.34775,-0.809311,-0.124907,-0.284546,0.116358,-0.170131,-0.251188
0.0105293,0.282963,0.34232,-0.812467,0.0315359,-0.248623,0.105704,-0.213382,-0.396678
0.0132322,0.269412,0.338147,-0.502578,0.150766,-0.162246,0.111513,-0.23266,-0.515329
0.0199217,0.263723,0.335972,-0.0760387,0.464572,-0.0585579,0.121363,-0.225042,-0.503103
0.0300778,0.264183,0.336361,0.0540157,0.49918,0.108681,0.167091,-0.209018,-0.306661
0.0361304,0.263892,0.340827,-0.111803,0.167356,0.305884,0.176889,-0.22848,-0.216751
0.0324514,0.260836,0.347397,-0.171144,-0.336248,0.286493,0.101754,-0.257981,-0.329485
0.0226187,0.259854,0.352383,0.100431,-0.445081,0.200208,0.0464103,-0.20145,-0.503134
0.016243,0.266055,0.356604,0.515872,-0.00675665,0.247909,0.0920715,-0.0974545,-0.502139
0.0207564,0.278968,0.363231,0.700216,0.612331,0.429604,0.132483,0.0182222,-0.277835
0.0329497,0.291504,0.373908,0.48581,0.827039,0.620514,0.139528,0.0322511,-0.0129678
0.0426093,0.298269,0.38797,0.151957,0.481219,0.734692,0.100367,-0.000323653,0.117302
0.0418384,0.299849,0.403314,-0.0207148,-0.12134,0.718025,0.0538358,-0.0200389,0.0930187
0.0307893,0.299963,0.417066,0.00168854,-0.493404,0.601344,0.00376278,0.0132885,-0.0160677
0.0179839,0.300766,0.42878,0.0407108,-0.402306,0.540512,0.00551419,0.0954001,-0.0643163
0.0094844,0.301875,0.440219,0.0661224,-0.0826715,0.570725,0.0317008,0.15017,-0.0303544
0.00800988,0.304065,0.453399,0.152885,0.33764,0.699282,0.0513939,0.181985,0.0385997
0.0128286,0.308464,0.469476,0.273586,0.597032,0.84546,0.0326533,0.209617,0.165354
0.0193352,0.315377,0.488807,0.392437,0.610139,1.00858,0.0096347,0.209009,0.297273
0.0228888,0.324777,0.510743,0.504143,0.412092,1.08766,-0.0488357,0.200918,0.38891
0.0206206,0.336277,0.533559,0.592134,0.0837868,1.09929,-0.0726258,0.188633,0.456805
0.0112012,0.348537,0.556362,0.588917,-0.254665,1.06594,-0.0781545,0.183793,0.490352
-0.00340144,0.359488,0.57816,0.489041,-0.420892,0.97513,-0.0716604,0.168018,0.483496
-0.0189458,0.367292,0.597443,0.297747,-0.440294,0.814773,-0.0670815,0.148198,0.444778
-0.0337356,0.370211,0.612884,0.0352838,-0.509369,0.625289,-0.0396161,0.123561,0.381168
-0.0494745,0.368591,0.624493,-0.129841,-0.643563,0.478801,-0.0107825,0.104366,0.248604
-0.0658771,0.364857,0.633238,-0.193847,-0.675096,0.358772,0.0114169,0.075886,0.113682
-0.0805645,0.360174,0.639162,-0.233048,-0.559814,0.229482,0.0262413,0.0510304,-0.0199435
-0.0907562,0.354399,0.642326,-0.328991,-0.335521,0.129241,0.0522845,0.039761,-0.0934858
-0.0952914,0.345935,0.643296,-0.527608,-0.0943662,0.0344999,0.0459468,0.00782365,-0.134417
-0.0950099,0.332824,0.641165,-0.805004,0.0263099,-0.11025,0.0140385,-0.0215376,-0.186642
-0.0919084,0.314941,0.635896,-0.989877,0.146642,-0.209839,-0.000839397,-0.0634086,-0.299139
-0.0919084,0.314941,0.635896,-0.989877,0.146642,-0.209839,-0.000839397,-0.0634086,-0.299139
-0.0845958,0.295499,0.629098,-0.990903,0.359911,-0.262202,-0.0470054,-0.0745821,-0.39471
-0.0757268,0.277167,0.621879,-0.883798,0.253383,-0.2754,-0.0846578,-0.0830876,-0.396116
-0.0729154,0.261677,0.614842,-0.726968,-0.175142,-0.297316,-0.111178,-0.110699,-0.376712
-0.0786072,0.248175,0.606807,-0.691245,-0.563329,-0.378519,-0.151083,-0.118241,-0.423341
-0.0882496,0.236237,0.597396,-0.542435,-0.55994,-0.435247,-0.201254,-0.0759823,-0.56618
-0.093809,0.229533,0.586963,-0.199325,-0.198259,-0.505058,-0.23482,-0.00485353,-0.623099
-0.090757,0.229948,0.577099,0.13279,0.276306,-0.446422,-0.255778,0.0955108,-0.540568
-0.0799411,0.235191,0.569772,0.309735,0.597906,-0.306684,-0.301264,0.164624,-0.361141
-0.066318,0.243098,0.564625,0.449327,0.596204,-0.291314,-0.377772,0.168781,-0.175732
-0.0540341,0.253816,0.55743,0.57814,0.453678,-0.492278,-0.410644,0.152559,-0.00781679
-0.0429248,0.266165,0.545069,0.57595,0.361644,-0.764697,-0.379818,0.156771,0.16034
-0.0308537,0.277033,0.527265,0.436349,0.374148,-0.981599,-0.309515,0.177037,0.298831
-0.0169886,0.284452,0.505678,0.261023,0.412301,-1.10775,-0.244315,0.181403,0.399313
-0.00235345,0.288532,0.481997,0.144996,0.362821,-1.177,-0.197924,0.175185,0.45454
0.0106458,0.290972,0.456842,0.123572,0.205867,-1.23659,-0.166997,0.163562,0.484187
0.0199175,0.293464,0.430344,0.176941,-0.0376319,-1.30587,-0.142127,0.159234,0.49815
0.0250904,0.296805,0.402427,0.210252,-0.242294,-1.3672,-0.105427,0.164186,0.515133
0.0274244,0.299619,0.373424,0.12299,-0.366098,-1.39698,-0.0658417,0.167379,0.52792
0.0278267,0.29957,0.344349,-0.0545488,-0.458485,-1.37356,-0.0171388,0.148137,0.505661
0.0252891,0.296217,0.316983,-0.195856,-0.614404,-1.23767,0.0281678,0.121525,0.422252
0.0185353,0.291534,0.293114,-0.205019,-0.744893,-1.07531,0.0250487,0.0746383,0.288526
0.00870137,0.287646,0.2718,-0.153784,-0.835455,-0.99043,0.0324582,0.000232995,0.170487
-0.0018438,0.284742,0.251813,-0.145647,-0.767142,-0.933564,0.060348,-0.0560047,0.0729223
-0.0106152,0.281049,0.232927,-0.250252,-0.622239,-0.8779,0.10491,-0.0912431,0.0189385
-0.0163113,0.274485,0.215758,-0.441883,-0.425092,-0.770372,0.135542,-0.130667,-0.0522879
-0.0192967,0.264077,0.200893,-0.611448,-0.276176,-0.648884,0.1412,-0.175032,-0.14886
-0.0208222,0.251442,0.188391,-0.668542,-0.220299,-0.545871,0.129938,-0.217034,-0.248162
-0.0229514,0.238087,0.177607,-0.688946,-0.243926,-0.4886,0.107766,-0.260876,-0.352592
-0.0246678,0.224934,0.167323,-0.649026,-0.160325,-0.489851,0.0967978,-0.291515,-0.408636
-0.0255062,0.212727,0.156915,-0.600994,-0.182087,-0.475332,0.105236,-0.308099,-0.487184
-0.0296408,0.201751,0.14823,-0.503212,-0.422493,-0.333587,0.158506,-0.306176,-0.53202
-0.0390175,0.193827,0.142813,-0.295585,-0.591381,-0.176544,0.175454,-0.268291,-0.601367
-0.0500904,0.190237,0.140528,-0.070321,-0.515528,-0.0352055,0.137927,-0.198893,-0.636826
-0.0567111,0.191814,0.141221,0.260197,-0.0774543,0.0905272,0.121956,-0.134738,-0.610403
-0.0524196,0.200598,0.144817,0.612918,0.573135,0.209823,0.133468,-0.0975127,-0.522192
-0.0380834,0.213901,0.150763,0.705198,0.906028,0.312781,0.127279,-0.0426095,-0.271042
-0.0231122,0.22689,0.159023,0.606214,0.693772,0.452516,0.133617,-0.032818,-0.00794524
-0.0172982,0.23789,0.169625,0.528662,0.106307,0.553631,0.138713,-0.0436445,0.122388
-0.0237053,0.248136,0.181379,0.529454,-0.406947,0.559984,0.131559,-0.0524682,0.126952
-0.0358102,0.258483,0.192987,0.537196,-0.44479,0.539898,0.0972657,-0.0149241,0.0491516
-0.0456997,0.2687,0.204631,0.537519,-0.231941,0.551453,0.085701,0.0407316,-0.00208443
-0.0508659,0.279274,0.216992,0.585015,0.0362833,0.593352,0.107804,0.0803457,0.00583458
-0.051404,0.290943,0.230972,0.656047,0.287989,0.701958,0.126416,0.1229,0.0574774
-0.0492334,0.304061,0.247582,0.746249,0.402505,0.823682,0.118733,0.16805,0.13501
-0.0470235,0.319234,0.266872,0.863355,0.395833,0.937212,0.101669,0.195889,0.209535
-0.0470046,0.336437,0.288461,0.948386,0.295618,1.02498,0.0751911,0.220736,0.285851
-0.0501203,0.354506,0.311595,0.948059,0.176451,1.05899,0.0479454,0.241216,0.351222
-0.0559901,0.371523,0.335151,0.865301,0.0785863,1.05031,0.0224494,0.244963,0.395556
-0.0637965,0.386173,0.357949,0.722067,-0.0220016,0.977545,0.0104591,0.238828,0.412449
-0.0731706,0.397366,0.378567,0.517733,-0.128067,0.842371,-0.00821333,0.198514,0.400604
-0.0838758,0.403969,0.395462,0.267972,-0.292699,0.656547,0.008278,0.161748,0.349305
-0.0960108,0.406605,0.408076,0.121268,-0.396979,0.48304,0.0282026,0.139283,0.219308
-0.107094,0.407343,0.41766,0.0344517,-0.318529,0.404582,0.0565783,0.137077,0.100767
-0.115443,0.405873,0.426238,-0.097625,-0.1654,0.399272,0.0729308,0.113098,0.020919
-0.115443,0.405873,0.426238,-0.097625,-0.1654,0.399272,0.0729308,0.113098,0.020919
-0.120308,0.401839,0.434411,-0.213084,-0.0116211,0.398979,0.0734857,0.0666178,-0.0435539
-0.122869,0.395886,0.442094,-0.293684,0.0342621,0.368559,0.0357342,0.0251066,-0.0888631
-0.124409,0.388382,0.448038,-0.394926,0.0452742,0.270671,-0.00639948,-0.0106974,-0.127224
-0.124486,0.378271,0.45188,-0.580539,0.103589,0.209785,-0.0314786,-0.0335332,-0.152609
-0.122921,0.3634,0.453322,-0.90547,0.0753356,0.0877968,-0.108037,-0.0395191,-0.188341
-0.122585,0.341669,0.450074,-1.27434,-0.185636,-0.136763,-0.167565,-0.108421,-0.286935
-0.126181,0.316253,0.441,-1.29431,-0.425769,-0.401716,-0.192238,-0.146771,-0.503133
-0.13009,0.295051,0.427733,-0.933607,-0.286919,-0.541552,-0.185255,-0.0680221,-0.691922
-0.128133,0.283045,0.415289,-0.409316,0.152332,-0.470224,-0.199278,0.0601345,-0.728158
-0.117938,0.280484,0.407138,0.0292653,0.609254,-0.264847,-0.262879,0.166591,-0.613442
-0.103716,0.284133,0.404001,0.277154,0.663776,-0.1029,-0.34276,0.206045,-0.410945
-0.0923475,0.29133,0.402316,0.416303,0.400246,-0.161787,-0.417285,0.186808,-0.245636
-0.0857877,0.300727,0.397599,0.477708,0.158777,-0.400962,-0.449443,0.154338,-0.114324
-0.0791028,0.311347,0.386896,0.488194,0.216153,-0.70122,-0.409093,0.155798,0.014863
-0.0674964,0.32158,0.370767,0.411005,0.466375,-0.884008,-0.316933,0.177318,0.173246
-0.0494551,0.329745,0.351605,0.299136,0.713759,-0.979592,-0.248699,0.179331,0.327308
-0.0271563,0.335461,0.33018,0.203846,0.779345,-1.07842,-0.213527,0.161113,0.454683
-0.00539081,0.339382,0.306418,0.162413,0.577343,-1.17618,-0.173994,0.143192,0.543502
0.0115362,0.34242,0.280619,0.150446,0.252258,-1.25539,-0.133944,0.137404,0.589404
0.0217588,0.344696,0.253555,0.11873,-0.137759,-1.28455,-0.0674286,0.136403,0.615073
0.024976,0.346028,0.227086,0.0770743,-0.404197,-1.19996,-0.00712052,0.137153,0.588993
0.0237952,0.346402,0.202643,0.0193019,-0.533623,-1.10968,0.00966377,0.127571,0.534359
0.0197217,0.345413,0.180152,-0.0800063,-0.63529,-1.01061,0.0472097,0.0845871,0.467135
0.0130327,0.342191,0.159844,-0.21082,-0.713999,-0.921738,0.0681981,0.0192218,0.374483
0.00456082,0.336715,0.140764,-0.321912,-0.763044,-0.89888,0.0830977,-0.0568488,0.258853
-0.00438541,0.329219,0.121734,-0.42848,-0.739565,-0.906228,0.0955653,-0.113784,0.116193
-0.0115424,0.320239,0.102956,-0.475598,-0.55136,-0.853452,0.126678,-0.139399,-0.0271299
-0.015159,0.311045,0.0863742,-0.467341,-0.337505,-0.702118,0.168133,-0.163261,-0.129043
-0.016835,0.30204,0.0733868,-0.450195,-0.243105,-0.531621,0.18372,-0.207552,-0.207971
-0.0184758,0.29363,0.0634648,-0.40779,-0.234268,-0.425609,0.161147,-0.254028,-0.291636
-0.0212385,0.285996,0.0547447,-0.385452,-0.294527,-0.402373,0.135426,-0.292274,-0.374881
-0.0248797,0.278454,0.0463572,-0.38582,-0.26325,-0.386184,0.141091,-0.305774,-0.448636
-0.0249593,0.271761,0.0384386,-0.287617,0.0688326,-0.360128,0.166054,-0.293156,-0.503584
-0.0185405,0.267425,0.0317193,-0.180968,0.351464,-0.266192,0.216001,-0.259555,-0.447836
-0.0109365,0.264176,0.0275842,-0.156227,0.248224,-0.128597,0.227125,-0.256952,-0.387655
-0.00822362,0.261575,0.0260028,-0.0969501,-0.0125292,-0.0287652,0.191568,-0.217442,-0.391852
-0.0100571,0.260933,0.0264806,0.0593803,-0.127164,0.0833163,0.193829,-0.147017,-0.42283
-0.0112303,0.265635,0.0300171,0.444104,0.14173,0.256539,0.193469,-0.0701503,-0.415033
-0.00617671,0.277879,0.0375031,0.734031,0.559556,0.469891,0.207661,0.0266663,-0.235461
0.00357438,0.292041,0.0500233,0.643926,0.722378,0.729186,0.221095,0.0547686,0.0069685
0.0111762,0.303078,0.067342,0.460919,0.491378,0.921353,0.197875,0.0147981,0.109545
0.00989729,0.311445,0.0874469,0.366157,-0.0353845,0.98695,0.147317,-0.00363985,0.108965
-0.00197349,0.31851,0.107899,0.345157,-0.458484,0.952886,0.090482,0.0099749,0.0132236
-0.0177377,0.325407,0.127204,0.364329,-0.463931,0.877971,0.0537017,0.0676807,-0.0947275
-0.0314778,0.332813,0.145754,0.446884,-0.287145,0.877724,0.0741639,0.126187,-0.125455
-0.039689,0.342497,0.165576,0.590458,0.141024,0.969033,0.0842337,0.186273,-0.0910339
-0.0396447,0.354286,0.187916,0.662727,0.614285,1.08967,0.070437,0.240323,0.0384453
-0.0333864,0.367002,0.212803,0.694493,0.849237,1.19041,0.0382222,0.253197,0.189433
-0.0259977,0.380489,0.239191,0.726263,0.820299,1.22489,-0.00506958,0.264151,0.321892
-0.0217702,0.394249,0.265922,0.703605,0.591892,1.22872,-0.0291568,0.272207,0.429353
-0.0235398,0.40726,0.292998,0.659382,0.296899,1.24431,-0.0380799,0.280479,0.47365
-0.0311005,0.41927,0.320121,0.605197,0.050427,1.20371,-0.0479833,0.276754,0.483974
-0.0423465,0.429158,0.345884,0.452664,-0.106111,1.10902,-0.0398895,0.258101,0.48304
-0.0554648,0.43474,0.369365,0.208682,-0.201991,0.996841,-0.0218639,0.223589,0.432959
-0.0554648,0.43474,0.369365,0.208682,-0.201991,0.996841,-0.0218639,0.223589,0.432959
-0.068226,0.4355,0.389849,-0.0176166,-0.217457,0.85352,-0.0114476,0.184223,0.331537
-0.0798188,0.432216,0.406829,-0.182415,-0.208791,0.719763,0.00298946,0.124939,0.200894
-0.089821,0.426993,0.421005,-0.210896,-0.214059,0.614534,0.0453764,0.0696837,0.0773833
-0.0998418,0.421767,0.433119,-0.217127,-0.278439,0.55261,0.061217,0.0492502,-0.00898558
-0.10989,0.415364,0.444673,-0.32917,-0.245406,0.568887,0.0470753,0.0352523,-0.0827675
-0.118321,0.405852,0.455305,-0.511179,-0.167586,0.48401,-0.0194284,-0.0156601,-0.177425
-0.123262,0.393152,0.461727,-0.688258,-0.072642,0.240187,-0.0656141,-0.087632,-0.267613
-0.123205,0.377792,0.462224,-0.822208,0.119356,0.0238092,-0.0730901,-0.114758,-0.348011
-0.117266,0.361281,0.4596,-0.842133,0.364992,-0.0492401,-0.103446,-0.0856594,-0.386562
-0.108068,0.34449,0.455896,-0.892212,0.375914,-0.11473,-0.147563,-0.0672672,-0.338413
-0.101198,0.32587,0.450109,-1.01801,0.0856968,-0.257193,-0.186076,-0.11256,-0.33996
-0.0988386,0.30691,0.439816,-0.917163,-0.102494,-0.52793,-0.242695,-0.113412,-0.487264
-0.0954889,0.293082,0.425656,-0.569528,0.065387,-0.654105,-0.252106,-0.00888646,-0.580237
-0.0871248,0.287685,0.411857,-0.0987751,0.385675,-0.583698,-0.244961,0.113262,-0.522853
-0.0744345,0.289992,0.402334,0.217921,0.568154,-0.335473,-0.259947,0.219538,-0.328007
-0.0631266,0.296053,0.397948,0.335126,0.385287,-0.158377,-0.300362,0.225753,-0.121597
-0.0581993,0.302746,0.394942,0.288932,0.00631298,-0.203913,-0.35317,0.18683,0.0293213
-0.0592265,0.307038,0.388675,0.0960142,-0.243147,-0.440469,-0.379383,0.132452,0.103966
-0.059688,0.307906,0.375963,-0.0638582,-0.137565,-0.768753,-0.345146,0.10856,0.126963
-0.0540017,0.306804,0.357023,-0.140277,0.138996,-1.00811,-0.262235,0.122601,0.181681
-0.0425677,0.304776,0.334788,-0.152471,0.31774,-1.08507,-0.163554,0.137451,0.273256
-0.0293635,0.303138,0.311969,-0.0731724,0.303449,-1.09507,-0.108011,0.131449,0.348845
-0.0178793,0.303615,0.288905,0.0732947,0.140321,-1.11939,-0.0675341,0.121085,0.413567
-0.0102883,0.306372,0.265492,0.152539,-0.0914977,-1.12753,-0.0199609,0.129498,0.478637
-0.00733987,0.309068,0.242174,0.0835056,-0.286125,-1.09677,0.0364873,0.135027,0.525697
-0.00617014,0.309265,0.219605,-0.0954219,-0.2596,-1.06668,0.0748013,0.121604,0.512857
-0.00350845,0.305542,0.197343,-0.279979,-0.145841,-1.06341,0.0895123,0.1015,0.457951
0.000869829,0.298976,0.175496,-0.363802,-0.112467,-1.01794,0.113015,0.0472888,0.372218
0.00194561,0.291611,0.155489,-0.354357,-0.396958,-0.892622,0.141203,-0.00504616,0.273515
-0.004633,0.285558,0.138627,-0.232241,-0.725008,-0.720509,0.17072,-0.0588374,0.14347
-0.0169229,0.282619,0.125549,-0.0890548,-0.830212,-0.545446,0.192688,-0.100462,0.0271465
-0.0292819,0.281441,0.115658,-0.0864842,-0.652226,-0.407157,0.187351,-0.138107,-0.0462559
-0.037658,0.278208,0.107694,-0.287528,-0.410096,-0.370131,0.146278,-0.18899,-0.110055
-0.0419174,0.270007,0.0991954,-0.570993,-0.290964,-0.436516,0.115613,-0.249161,-0.190261
-0.0456068,0.256804,0.0883475,-0.765342,-0.361831,-0.545136,0.108061,-0.296425,-0.334138
-0.0497867,0.242331,0.0761869,-0.691938,-0.312633,-0.549832,0.124057,-0.297585,-0.524654
-0.0498224,0.231941,0.0652946,-0.374138,0.112717,-0.443032,0.148673,-0.274543,-0.649766
-0.0405279,0.228731,0.0578561,-0.0118169,0.614203,-0.261574,0.188525,-0.249882,-0.594487
-0.0267481,0.229482,0.0549115,0.0264552,0.592785,-0.0295522,0.220258,-0.253316,-0.390166
-0.0195331,0.229393,0.0559467,-0.0138021,0.124887,0.0982834,0.16555,-0.268158,-0.343856
-0.021041,0.230524,0.0575495,0.173729,-0.154305,0.0389174,0.0597437,-0.234922,-0.478909
-0.0231711,0.237332,0.0582261,0.525552,0.0129334,0.0486427,0.0701575,-0.108548,-0.505419
-0.0186925,0.251284,0.0615778,0.852885,0.537973,0.270252,0.161369,0.0125487,-0.3458
-0.00549777,0.269338,0.0706136,0.924674,0.997325,0.578694,0.186589,0.0965836,-0.0915941
0.012252,0.286413,0.0853663,0.757035,1.09961,0.835961,0.158291,0.0986754,0.124093
0.0249317,0.299648,0.104595,0.531495,0.668764,1.0396,0.147156,0.0677517,0.234059
0.0242885,0.309034,0.127273,0.374842,-0.0535161,1.12549,0.104077,0.0674591,0.223908
0.0109532,0.316763,0.150546,0.374886,-0.473753,1.10431,0.0516036,0.0832821,0.110394
-0.00546163,0.324595,0.173343,0.408599,-0.402314,1.07496,0.0345953,0.140351,0.0205656
-0.0183381,0.33286,0.196503,0.451685,-0.121444,1.12785,0.0680508,0.181209,0.0104282
-0.0251379,0.341758,0.221424,0.486751,0.256318,1.22066,0.07341,0.218155,0.0559744
-0.0270116,0.3511,0.249023,0.522509,0.457882,1.35612,0.0552221,0.234556,0.152489
-0.0282406,0.361572,0.279324,0.613471,0.448443,1.44631,0.0175,0.221863,0.231218
-0.0282406,0.361572,0.279324,0.613471,0.448443,1.44631,0.0175,0.221863,0.231218
-0.0316074,0.373931,0.310442,0.70554,0.332662,1.41263,-0.0349279,0.208021,0.301741
-0.0377033,0.387365,0.340223,0.723962,0.163264,1.31005,-0.0529128,0.193668,0.360705
-0.0465805,0.39992,0.367827,0.627823,0.0128482,1.18767,-0.0374634,0.188295,0.402607
-0.0570126,0.40969,0.392681,0.458358,-0.0537548,1.03921,-0.0240888,0.177622,0.399305
-0.0672214,0.415154,0.413858,0.205375,-0.133248,0.88026,-0.00356802,0.151332,0.377786
-0.0782137,0.416073,0.43204,0.0377164,-0.223514,0.787689,0.0117755,0.125607,0.266501
-0.0898183,0.415571,0.448474,0.0596442,-0.272904,0.724369,0.00555551,0.109049,0.131993
-0.101834,0.416146,0.463816,0.136229,-0.313161,0.671999,0.0130103,0.0559875,0.0318786
-0.113384,0.418257,0.477625,0.192289,-0.279184,0.55147,-0.010473,0.0184575,-0.0382056
-0.122636,0.420019,0.488233,0.0540359,-0.21189,0.393115,-0.0306988,0.0153062,-0.0381275
-0.128999,0.417014,0.494874,-0.295898,-0.162629,0.247087,-0.0473608,0.0126979,-0.0401784
-0.132763,0.407667,0.497263,-0.567199,-0.103804,0.0942241,-0.0679742,-0.0204324,-0.13602
-0.13295,0.395479,0.495937,-0.647763,0.0385978,-0.0531651,-0.0903961,-0.0501292,-0.227024
-0.129922,0.381767,0.491256,-0.80214,0.0438591,-0.192578,-0.127481,-0.0309728,-0.222636
-0.12818,0.363725,0.483333,-1.08149,-0.168568,-0.309056,-0.146677,-0.0625316,-0.265441
-0.128911,0.342173,0.471954,-1.14521,-0.251995,-0.493528,-0.165367,-0.115087,-0.424248
-0.127232,0.322909,0.456711,-0.923756,-0.043262,-0.675632,-0.156525,-0.10702,-0.546135
-0.119521,0.309938,0.44048,-0.54373,0.324555,-0.671114,-0.122406,-0.0209888,-0.551161
-0.106672,0.303833,0.42753,-0.235145,0.51099,-0.472022,-0.138336,0.0975503,-0.425632
-0.095398,0.301935,0.420062,-0.0285283,0.379779,-0.229644,-0.173902,0.124929,-0.303485
-0.0895,0.304109,0.416894,0.226105,0.103439,-0.124063,-0.23131,0.1218,-0.229514
-0.089481,0.311526,0.41483,0.496486,-0.146856,-0.150564,-0.277595,0.119149,-0.149323
-0.0925187,0.323647,0.41164,0.665214,-0.222977,-0.267252,-0.273936,0.127978,-0.0161932
-0.0942031,0.337716,0.406171,0.652583,-0.102253,-0.382424,-0.230952,0.156361,0.149413
-0.0915536,0.349338,0.397884,0.407785,0.0895006,-0.509599,-0.189045,0.157125,0.307903
-0.0836187,0.355351,0.385796,0.0899917,0.272226,-0.683488,-0.164342,0.140568,0.41426
-0.0722148,0.35572,0.369327,-0.150388,0.258387,-0.861915,-0.145057,0.127593,0.464433
-0.0611925,0.353068,0.34894,-0.211069,0.132425,-1.0297,-0.129492,0.114165,0.453039
-0.0523469,0.350546,0.325718,-0.150585,-0.0395985,-1.13201,-0.081871,0.107403,0.447481
-0.0463691,0.349261,0.301406,-0.101635,-0.185393,-1.14027,-0.0291541,0.102518,0.455767
-0.0426878,0.347656,0.277673,-0.174733,-0.227635,-1.08639,0.00794103,0.0814785,0.448717
-0.0392285,0.344244,0.255347,-0.237097,-0.193008,-0.998825,0.0414952,0.0497505,0.406045
-0.0361156,0.34049,0.235292,-0.204821,-0.172946,-0.887805,0.051613,0.0166423,0.357107
-0.0340051,0.336998,0.216973,-0.223532,-0.241071,-0.844,0.0341766,-0.0330983,0.328155
-0.0341634,0.331927,0.198613,-0.353277,-0.392112,-0.882557,0.0294848,-0.0946665,0.263712
-0.0375685,0.32464,0.179524,-0.414862,-0.558182,-0.889161,0.0772848,-0.127077,0.142241
-0.0442318,0.317444,0.161622,-0.377783,-0.649739,-0.762867,0.140183,-0.105418,0.0146133
-0.0525969,0.310477,0.148051,-0.394541,-0.595849,-0.475283,0.201594,-0.0898731,-0.0927383
-0.0608191,0.302577,0.140768,-0.432692,-0.437426,-0.195516,0.195929,-0.136253,-0.217695
-0.067162,0.293861,0.137655,-0.454528,-0.301641,-0.0711583,0.139674,-0.193871,-0.334301
-0.0712407,0.284856,0.135556,-0.448,-0.165615,-0.075545,0.0914444,-0.233247,-0.438271
-0.0711633,0.276941,0.133244,-0.344535,0.149691,-0.0961534,0.0981333,-0.255531,-0.509548
-0.0638167,0.271124,0.130552,-0.286891,0.487071,-0.114447,0.144085,-0.256356,-0.463234
-0.0540304,0.264483,0.128533,-0.403383,0.362379,-0.0238886,0.19594,-0.239765,-0.386477
-0.0510046,0.255859,0.12895,-0.420979,-0.0540567,0.107079,0.164115,-0.211996,-0.45912
-0.0556938,0.249724,0.132206,-0.132514,-0.254622,0.238524,0.140715,-0.158671,-0.59107
-0.059599,0.251442,0.138536,0.355725,0.103885,0.366967,0.170255,-0.105676,-0.592461
-0.0534561,0.261731,0.147982,0.65297,0.721994,0.491286,0.182211,-0.0280208,-0.371359
-0.0395205,0.273123,0.160347,0.493105,0.932794,0.660295,0.198995,-0.00299525,-0.0708541
-0.0273467,0.279707,0.17589,0.224304,0.64302,0.805337,0.196691,-0.0425597,0.0639721
-0.0251809,0.282424,0.193385,0.123434,0.0361714,0.864574,0.169582,-0.0578028,0.0494339
-0.0344591,0.285448,0.211655,0.260743,-0.368876,0.877491,0.112282,-0.0307754,-0.0793946
-0.0466462,0.292075,0.229903,0.461919,-0.277059,0.852621,0.101036,0.0253211,-0.140256
-0.0543288,0.301768,0.248409,0.591602,0.0631295,0.889758,0.112502,0.0988747,-0.0932575
-0.0543288,0.301768,0.248409,0.591602,0.0631295,0.889758,0.112502,0.0988747,-0.0932575
-0.0559527,0.313258,0.268657,0.665594,0.404294,0.990339,0.117106,0.153695,0.0134597
-0.0525963,0.326188,0.291845,0.762572,0.627421,1.13486,0.10583,0.196014,0.130791
-0.047519,0.341682,0.317806,0.913218,0.718038,1.23872,0.0641644,0.223759,0.245862
-0.0429644,0.359859,0.34562,1.00719,0.685811,1.2943,0.0246208,0.24675,0.374994
-0.0411263,0.378809,0.374465,0.988241,0.523564,1.31663,-0.00437214,0.263781,0.478018
-0.0441308,0.396605,0.403682,0.907648,0.279483,1.31532,-0.0168336,0.264493,0.528581
-0.0525518,0.412776,0.43271,0.836297,0.0235806,1.27032,-0.0234936,0.254074,0.526731
-0.0655523,0.426805,0.46033,0.699711,-0.196098,1.1703,-0.0140251,0.237649,0.49957
-0.0819715,0.436614,0.485312,0.436114,-0.391996,1.02227,-0.00298048,0.213417,0.441705
-0.0999169,0.441155,0.506795,0.212433,-0.478074,0.882754,0.0240536,0.175351,0.301055
-0.11753,0.442316,0.52531,0.0955361,-0.494459,0.778054,0.0330528,0.170664,0.154471
-0.134073,0.441295,0.541602,-0.0119313,-0.446588,0.699605,0.046083,0.140764,0.0321169
-0.14731,0.437991,0.555522,-0.145555,-0.270363,0.586071,0.0349615,0.104633,-0.0597538
-0.154902,0.431355,0.565266,-0.398018,-0.0812453,0.381548,-0.0182661,0.0864066,-0.110869
-0.156658,0.419743,0.569474,-0.679692,0.0754646,0.18325,-0.0356565,0.0552613,-0.168515
-0.153581,0.404049,0.56934,-0.869715,0.223113,0.0566928,-0.0291404,0.0300615,-0.220298
-0.147255,0.384772,0.566474,-1.10951,0.283952,-0.0287181,-0.0580504,0.0156675,-0.229647
-0.140434,0.35985,0.560974,-1.42562,0.171996,-0.129637,-0.110188,-0.0109184,-0.256187
-0.136383,0.330974,0.552179,-1.51551,-0.0524966,-0.317816,-0.146504,-0.0678275,-0.355322
-0.133848,0.303002,0.538906,-1.42112,-0.067394,-0.545488,-0.145671,-0.0891557,-0.46556
-0.128621,0.278405,0.522997,-1.19046,0.177863,-0.625462,-0.117304,-0.0606577,-0.545654
-0.117737,0.259801,0.508156,-0.830575,0.503348,-0.543807,-0.091769,0.0195076,-0.53407
-0.10299,0.247906,0.49774,-0.481023,0.677733,-0.309828,-0.0948384,0.0986006,-0.427295
-0.0886241,0.241707,0.493579,-0.17984,0.614395,-0.0508424,-0.154162,0.138881,-0.313077
-0.0791681,0.240812,0.494102,0.0950807,0.326573,0.0920346,-0.236994,0.128704,-0.210822
-0.0757598,0.244987,0.496134,0.326684,0.0985747,0.0425393,-0.292082,0.0923824,-0.124531
-0.0741337,0.252877,0.495851,0.440497,0.0925804,-0.146476,-0.305228,0.0735699,-0.00998753
-0.0696423,0.261726,0.490982,0.38655,0.245497,-0.389205,-0.282195,0.0670218,0.130595
-0.0604163,0.268285,0.48101,0.201044,0.399779,-0.60911,-0.233986,0.0615872,0.278233
-0.0482698,0.271444,0.466781,0.0572448,0.413605,-0.776161,-0.183862,0.0574753,0.372724
-0.0364511,0.272725,0.449421,0.0190126,0.283254,-0.898087,-0.14743,0.0689178,0.425551
-0.0274534,0.274071,0.430104,0.0640959,0.0909774,-0.969302,-0.109942,0.0713885,0.450061
-0.0220056,0.276376,0.409527,0.116345,-0.0890156,-1.0215,-0.0676984,0.0761244,0.468974
-0.0189974,0.278605,0.388153,0.038248,-0.20103,-1.03156,-0.0145731,0.0856836,0.498574
-0.0180894,0.278103,0.367171,-0.118498,-0.261258,-0.983807,0.026564,0.0644643,0.471354
-0.0175822,0.275165,0.347277,-0.19606,-0.238902,-0.933847,0.0515116,0.0444722,0.396756
-0.0176323,0.271507,0.328602,-0.192764,-0.276047,-0.862439,0.0717493,0.0133924,0.312385
-0.0192724,0.268398,0.311565,-0.146354,-0.349478,-0.780212,0.0783042,-0.021159,0.219847
-0.0226984,0.266328,0.296306,-0.0918844,-0.400515,-0.684287,0.105392,-0.0688104,0.130984
-0.0265627,0.265218,0.283317,-0.0668255,-0.306587,-0.560328,0.13937,-0.103374,0.0543708
-0.0291574,0.263468,0.273262,-0.162899,-0.21349,-0.399459,0.185176,-0.119925,0.0152379
-0.0314849,0.257967,0.266925,-0.427591,-0.201069,-0.209045,0.192258,-0.153362,-0.0422661
-0.0351057,0.247112,0.263397,-0.641494,-0.25805,-0.125947,0.142812,-0.203363,-0.183532
-0.0397838,0.234055,0.26017,-0.64634,-0.274991,-0.137992,0.108849,-0.245814,-0.366293
-0.0430613,0.222714,0.256782,-0.479279,-0.0833793,-0.143866,0.103234,-0.250741,-0.512648
-0.0406916,0.215374,0.253781,-0.291855,0.228787,-0.104233,0.140876,-0.229921,-0.527361
-0.0355863,0.209943,0.252809,-0.286266,0.181281,0.0470734,0.197975,-0.20221,-0.44172
-0.0361158,0.203751,0.255494,-0.296464,-0.172411,0.227246,0.192542,-0.173403,-0.458809
-0.0421356,0.199173,0.26096,-0.123428,-0.269916,0.318576,0.131592,-0.115313,-0.554239
-0.045928,0.199139,0.268493,0.178509,0.12493,0.435185,0.125449,-0.0441023,-0.561736
-0.0390888,0.205938,0.280006,0.530214,0.783049,0.685362,0.147323,0.0617547,-0.396985
-0.0235582,0.217642,0.297541,0.656387,1.07001,0.995983,0.16628,0.110032,-0.092282
-0.00888322,0.229748,0.320823,0.564222,0.8389,1.239,0.133894,0.0938365,0.1379
-0.0040346,0.238538,0.347412,0.308469,0.240716,1.3272,0.0817097,0.0562133,0.237164
-0.0040346,0.238538,0.347412,0.308469,0.240716,1.3272,0.0817097,0.0562133,0.237164
-0.0126013,0.24134,0.37394,-0.000116447,-0.436454,1.23265,-0.00261101,0.0450193,0.199991
-0.0307868,0.239219,0.397698,-0.122069,-0.744784,1.08186,-0.0631732,0.0719507,0.0319913
-0.049664,0.236319,0.418158,-0.076937,-0.624811,0.934586,-0.022888,0.102458,-0.0680245
-0.0634845,0.234604,0.437065,0.0156532,-0.299427,0.940194,0.0528539,0.145421,-0.0681253
-0.0700231,0.234804,0.457916,0.138386,0.112632,1.11268,0.0995402,0.188035,0.000862122
-0.0712177,0.237115,0.483227,0.269806,0.343331,1.32364,0.113158,0.183492,0.118009
-0.0698334,0.241658,0.511974,0.379123,0.449288,1.41656,0.0789339,0.139307,0.231546
-0.0681545,0.248378,0.541471,0.492386,0.430561,1.3919,0.0366692,0.101682,0.320959
-0.0676302,0.257142,0.570016,0.560713,0.323044,1.3099,0.0260348,0.0901939,0.400136
-0.0699837,0.266842,0.596721,0.575666,0.133711,1.19864,0.0252002,0.0811912,0.443189
-0.0753213,0.276006,0.620776,0.485531,-0.000419999,1.05535,0.0377646,0.07824,0.471692
-0.0815763,0.282013,0.641808,0.262621,-0.0286909,0.92027,0.0628251,0.0693356,0.447705
-0.086499,0.283697,0.65939,0.0647859,0.0464173,0.743881,0.047629,0.0350797,0.336702
-0.0883969,0.283291,0.672642,0.0404601,0.110583,0.539229,0.0606235,-0.00701264,0.198869
-0.0904576,0.284282,0.682827,0.147923,-0.0783297,0.454999,0.0851064,-0.00761798,0.11286
-0.0979815,0.28688,0.692318,0.169488,-0.398076,0.424831,0.047318,0.023638,0.0436119
-0.110181,0.288327,0.700265,0.0389404,-0.552674,0.298266,0.000790171,-0.00620887,-0.071522
-0.122192,0.287006,0.7038,-0.126461,-0.514509,0.0459173,-0.0331834,-0.034179,-0.197729
-0.129051,0.283469,0.701443,-0.246394,-0.204061,-0.215959,-0.0370112,-0.0418762,-0.31602
-0.126099,0.278389,0.694413,-0.337623,0.340792,-0.359409,-0.0393246,-0.0251049,-0.379234
-0.110832,0.271727,0.685745,-0.443647,0.908788,-0.401115,-0.0821279,-0.0227575,-0.343276
-0.0887386,0.261716,0.67495,-0.677447,0.925964,-0.56053,-0.151044,-0.0442557,-0.228222
-0.069642,0.246731,0.659468,-0.928863,0.539439,-0.841215,-0.216518,-0.0898556,-0.242214
-0.058099,0.228418,0.63709,-0.990223,0.165667,-1.2011,-0.212225,-0.129779,-0.385818
-0.0490469,0.21157,0.609834,-0.809813,0.183959,-1.31579,-0.17431,-0.0430418,-0.531011
-0.0388525,0.199978,0.584513,-0.424905,0.330273,-1.06762,-0.110933,0.0641871,-0.574776
-0.0278097,0.197274,0.566762,0.0893598,0.41262,-0.645986,-0.116547,0.15193,-0.511947
-0.018669,0.20343,0.558151,0.472251,0.312105,-0.243811,-0.203473,0.181842,-0.368386
-0.0147471,0.214918,0.555242,0.65025,0.0108555,-0.106845,-0.299191,0.152293,-0.212642
-0.0164585,0.228823,0.552612,0.737676,-0.21198,-0.188748,-0.330895,0.112971,-0.0977616
-0.019918,0.244291,0.547381,0.793525,-0.210394,-0.353654,-0.312004,0.11992,0.0117883
-0.0201364,0.259796,0.538925,0.721426,1.19489e-05,-0.491476,-0.250057,0.136049,0.164717
-0.0143647,0.272387,0.527928,0.514644,0.286142,-0.589309,-0.185415,0.133335,0.323796
-0.00327599,0.280726,0.51494,0.32757,0.440734,-0.670468,-0.135433,0.121597,0.438556
0.00923324,0.286166,0.500474,0.242895,0.374639,-0.719946,-0.104362,0.112003,0.516665
0.0189835,0.290685,0.485238,0.245961,0.148822,-0.730077,-0.0653967,0.110812,0.566274
0.0232846,0.295882,0.470292,0.310878,-0.145677,-0.690108,-0.0372396,0.122226,0.590029
0.0218641,0.302101,0.456027,0.323234,-0.39746,-0.675481,-0.0263197,0.131892,0.606692
0.0166646,0.306728,0.441619,0.128191,-0.541348,-0.69889,0.00349262,0.132065,0.616784
0.00963133,0.305988,0.426561,-0.173176,-0.606788,-0.740101,0.0305196,0.097576,0.54753
0.00232924,0.300412,0.410836,-0.356229,-0.594493,-0.757113,0.0710936,0.0593264,0.403912
-0.00419608,0.292332,0.395358,-0.455562,-0.497998,-0.716824,0.0939991,0.0294579,0.26323
-0.00905217,0.282563,0.381672,-0.522119,-0.387321,-0.577759,0.140987,-0.00975665,0.130822
-0.0130724,0.272299,0.3713,-0.504904,-0.286748,-0.416031,0.140566,-0.0564323,-0.0108041
-0.0165984,0.262873,0.363995,-0.451194,-0.273722,-0.276771,0.138418,-0.101502,-0.128373
-0.0209822,0.254662,0.359154,-0.384562,-0.280265,-0.189814,0.127421,-0.15688,-0.231042
-0.0254877,0.246997,0.355294,-0.420055,-0.255323,-0.167145,0.120109,-0.184996,-0.302652
-0.0286997,0.237471,0.351823,-0.542746,-0.125311,-0.147561,0.116346,-0.218933,-0.397528
-0.0276293,0.226686,0.348892,-0.508104,0.199896,-0.108229,0.124148,-0.243375,-0.508362
-0.0193328,0.218508,0.346865,-0.33115,0.56759,-0.0625697,0.130139,-0.244469,-0.517842
-0.00804175,0.211978,0.346496,-0.36291,0.461233,0.0292113,0.152256,-0.241373,-0.39891
-0.00413151,0.203933,0.347475,-0.407764,-0.0669702,0.0471226,0.127566,-0.254081,-0.423837
-0.00904772,0.197972,0.348051,-0.146344,-0.303147,0.0267391,0.101187,-0.20023,-0.591838
-0.0125123,0.198977,0.349783,0.263617,0.0815336,0.172416,0.160214,-0.0900072,-0.610841
-0.0125123,0.198977,0.349783,0.263617,0.0815336,0.172416,0.160214,-0.0900072,-0.610841
-0.00547822,0.207738,0.356248,0.573192,0.736448,0.460201,0.192159,0.0157866,-0.41838
0.00991042,0.219441,0.368456,0.568631,0.988882,0.730582,0.196031,0.0269947,-0.12904
0.023802,0.229992,0.385387,0.454836,0.704502,0.922093,0.17423,-0.00790021,0.0618628
0.0276499,0.238221,0.405064,0.328032,0.106545,0.999513,0.144292,-0.0123773,0.13188
0.0188525,0.244339,0.425054,0.255005,-0.43883,0.94386,0.109409,-0.0319956,0.0892809
0.0044543,0.249503,0.443266,0.244729,-0.488022,0.834906,0.0747547,0.0168501,-0.00112808
-0.00744555,0.254568,0.460068,0.284579,-0.269737,0.82425,0.116931,0.074154,-0.0269751
-0.0145356,0.261249,0.478149,0.419638,0.0439078,0.933917,0.154972,0.125185,0.00434202
-0.0161129,0.270886,0.499016,0.571926,0.344471,1.07638,0.143302,0.170234,0.10263
-0.0142765,0.282858,0.523245,0.657458,0.471556,1.23437,0.117789,0.191973,0.232686
-0.0127285,0.296257,0.55032,0.722837,0.432896,1.33871,0.077054,0.192593,0.332152
-0.0140461,0.310752,0.578955,0.764754,0.281598,1.38044,0.0374512,0.199253,0.403624
-0.0191082,0.325623,0.608187,0.76431,0.120887,1.36582,0.00821535,0.202559,0.451216
-0.0274588,0.339783,0.636474,0.706794,-0.0216237,1.27189,-0.0217828,0.198578,0.466428
-0.0378172,0.351653,0.662314,0.546694,-0.148475,1.12041,-0.0292028,0.197492,0.465538
-0.0496004,0.35979,0.684774,0.367157,-0.233029,0.945552,-0.0164302,0.171322,0.405965
-0.0615531,0.364761,0.703262,0.231097,-0.315609,0.760271,0.0219752,0.150565,0.316671
-0.074001,0.366963,0.718193,0.0768884,-0.4002,0.640385,0.0511583,0.158511,0.225621
-0.0871809,0.365549,0.731116,-0.124003,-0.43996,0.582603,0.0559727,0.14091,0.105491
-0.100153,0.360339,0.742403,-0.281725,-0.437395,0.509311,0.0401429,0.113075,-0.0375552
-0.110637,0.352957,0.751062,-0.359414,-0.289846,0.367472,0.00213435,0.0786759,-0.170898
-0.115522,0.34422,0.755807,-0.480136,-0.0248604,0.170515,-0.0295275,0.0436091,-0.231592
-0.113126,0.332536,0.756116,-0.696956,0.25354,-0.00288817,-0.0369603,0.0197848,-0.223666
-0.105674,0.316127,0.752874,-0.978353,0.365486,-0.111234,-0.0374146,-0.00434372,-0.207779
-0.0967275,0.294113,0.746992,-1.27532,0.322454,-0.239004,-0.0812306,-0.0319318,-0.237783
-0.0897627,0.267161,0.737276,-1.46451,0.0853847,-0.446145,-0.109812,-0.100035,-0.333975
-0.0869823,0.239679,0.723188,-1.35842,-0.124116,-0.664187,-0.0990671,-0.120076,-0.465501
-0.0855969,0.216503,0.706782,-1.0711,-0.0606906,-0.695378,-0.0532375,-0.0651375,-0.553975
-0.0810898,0.200512,0.692633,-0.619497,0.235565,-0.532654,-0.0165691,-0.00718836,-0.567598
-0.0708991,0.193799,0.684177,-0.124097,0.619345,-0.236412,-0.0316216,0.0634075,-0.490897
-0.0563215,0.194797,0.682303,0.175536,0.749562,0.0461453,-0.0782568,0.0997715,-0.296058
-0.0437285,0.199724,0.685441,0.328857,0.536898,0.205557,-0.154298,0.0761148,-0.136859
-0.0368853,0.207461,0.689657,0.457751,0.23418,0.157187,-0.229951,0.0452549,-0.0422959
-0.034561,0.21735,0.691655,0.542755,0.0768905,-0.00200837,-0.253139,0.0335141,0.0265331
-0.0320156,0.228766,0.690142,0.583321,0.169921,-0.183378,-0.236646,0.0549008,0.114729
-0.0252568,0.23979,0.685059,0.488402,0.389289,-0.337957,-0.186436,0.0731004,0.24299
-0.0138958,0.24803,0.677079,0.321501,0.536022,-0.454999,-0.147998,0.0682031,0.352407
-0.000488522,0.253093,0.666573,0.196076,0.516573,-0.56496,-0.124649,0.0542633,0.419131
0.0110107,0.256765,0.653954,0.198051,0.300027,-0.661684,-0.0931996,0.0379798,0.440867
0.0178382,0.260874,0.639257,0.234707,0.00818105,-0.747685,-0.0621099,0.0435694,0.457817
0.0199351,0.265006,0.623356,0.185868,-0.190786,-0.785552,-0.0433468,0.0612923,0.461435
0.0195446,0.266788,0.606829,0.0124354,-0.263616,-0.807137,-0.0221936,0.0525442,0.438743
0.0190483,0.265155,0.589989,-0.122307,-0.219913,-0.83066,-0.00945509,0.0157211,0.352084
0.0201258,0.262422,0.572443,-0.098528,-0.1429,-0.86388,0.0131725,-0.0145821,0.250985
0.0219345,0.260679,0.555081,-0.0467702,-0.122738,-0.809266,0.0434445,-0.0339811,0.190073
0.0237738,0.259339,0.539385,-0.0678961,-0.104489,-0.708946,0.0738556,-0.0505341,0.14341
0.0251322,0.257523,0.526257,-0.068654,-0.0808282,-0.558088,0.115119,-0.0846087,0.0599344
0.0261537,0.256462,0.516406,-0.00995529,-0.0620955,-0.399611,0.140568,-0.103289,-0.0244467
0.0263119,0.256733,0.510089,0.0475286,-0.0954619,-0.211692,0.149022,-0.122543,-0.083876
0.0244221,0.257702,0.507345,0.0426193,-0.170056,-0.0638625,0.141822,-0.148888,-0.138855
0.0202817,0.257728,0.506594,-0.0526946,-0.246301,-0.0107943,0.14111,-0.190153,-0.203836
0.0161308,0.255611,0.506571,-0.156434,-0.121085,-0.00504286,0.125523,-0.202654,-0.308831
0.0172596,0.252282,0.506306,-0.169059,0.238546,-0.0312396,0.12556,-0.215382,-0.398635
0.0241102,0.248194,0.505825,-0.262385,0.342182,-0.0196893,0.166282,-0.211637,-0.372278
0.0241102,0.248194,0.505825,-0.262385,0.342182,-0.0196893,0.166282,-0.211637,-0.372278
0.0270926,0.241364,0.505996,-0.401333,-0.0884745,0.0220268,0.172716,-0.201937,-0.396485
0.0202914,0.233862,0.507221,-0.307531,-0.543892,0.0790118,0.149253,-0.148513,-0.535676
0.00871783,0.230877,0.50947,0.0388619,-0.442438,0.141964,0.149427,-0.0733537,-0.632146
0.00526682,0.23639,0.51368,0.486939,0.253599,0.296767,0.18267,0.0194576,-0.530006
0.0147613,0.247487,0.522791,0.548384,0.812503,0.607486,0.215547,0.0993081,-0.197414
0.0273341,0.256866,0.537804,0.346053,0.738752,0.846492,0.219126,0.0482095,0.0609306
0.0321503,0.26214,0.55629,0.124268,0.172039,0.936933,0.192617,-0.0105356,0.163367
0.0238936,0.263397,0.575504,-0.0264017,-0.456805,0.914215,0.133335,-0.0201861,0.117411
0.00784326,0.263332,0.593365,0.0122999,-0.610066,0.809609,0.089229,0.0119321,-0.0324723
-0.00754778,0.264745,0.609624,0.138199,-0.489091,0.790967,0.127722,0.070883,-0.0678731
-0.0194872,0.268915,0.627201,0.309136,-0.229185,0.910173,0.167055,0.137955,-0.0259764
-0.0258829,0.27614,0.648065,0.444659,0.165331,1.09999,0.168164,0.186585,0.073777
-0.0262743,0.284837,0.673025,0.490174,0.461228,1.27738,0.142355,0.208796,0.204219
-0.023798,0.29467,0.70126,0.572411,0.55851,1.39987,0.119175,0.198871,0.317177
-0.0224898,0.306264,0.731349,0.651974,0.437644,1.44934,0.0776701,0.205109,0.407235
-0.0256085,0.318855,0.762381,0.673401,0.185944,1.4895,0.0527574,0.213519,0.470142
-0.0351898,0.331225,0.794714,0.65604,-0.115406,1.54623,0.0540222,0.222327,0.488409
-0.0507553,0.342683,0.828049,0.620682,-0.307605,1.53504,0.0480736,0.20865,0.45636
-0.0682632,0.35254,0.860003,0.533176,-0.342032,1.40291,0.0280808,0.18418,0.401142
-0.085042,0.35934,0.888349,0.32897,-0.361441,1.18715,0.00836268,0.166949,0.333976
-0.100431,0.361216,0.910893,0.0656948,-0.372715,0.904671,0.000911616,0.135395,0.216994
-0.113314,0.359297,0.927305,-0.0729159,-0.326253,0.650524,0.0334638,0.0950854,0.0676833
-0.122958,0.355764,0.938348,-0.157395,-0.243416,0.437626,0.0857632,0.0894872,-0.0492192
-0.128183,0.350508,0.945981,-0.288014,0.0164824,0.357826,0.105671,0.123985,-0.137065
-0.12676,0.342252,0.952245,-0.458662,0.329538,0.32974,0.0792475,0.112999,-0.186803
-0.119742,0.330822,0.956689,-0.628176,0.483331,0.214144,0.0407592,0.0478122,-0.203163
-0.110331,0.316458,0.958296,-0.775512,0.505571,0.113785,0.0282542,-0.0259405,-0.234573
-0.100062,0.299729,0.957893,-0.899375,0.494516,0.0180591,-0.0225238,-0.041195,-0.28035
-0.0903212,0.280336,0.955051,-1.07226,0.377222,-0.110763,-0.0787737,-0.0754484,-0.330064
-0.0831515,0.25797,0.948845,-1.18459,0.170743,-0.307537,-0.109451,-0.135064,-0.412606
-0.0781275,0.23595,0.93833,-1.06823,0.124124,-0.513101,-0.114575,-0.132139,-0.536273
-0.0708519,0.218468,0.926309,-0.723844,0.359456,-0.479555,-0.0981264,-0.0541852,-0.61742
-0.0590113,0.209647,0.91823,-0.206512,0.627979,-0.231657,-0.0969468,0.0424193,-0.571892
-0.045621,0.209809,0.917044,0.176157,0.648873,0.130675,-0.107952,0.109808,-0.392332
-0.0358467,0.215039,0.923311,0.351519,0.431768,0.423676,-0.195165,0.119284,-0.23298
-0.0325205,0.222784,0.932884,0.454868,0.122951,0.451687,-0.29559,0.0859665,-0.135917
-0.0336256,0.232275,0.941158,0.522888,-0.00854832,0.305382,-0.347426,0.0670449,-0.0633698
-0.0334843,0.243098,0.945321,0.567341,0.162978,0.0605114,-0.358955,0.0695072,0.0289975
-0.0269363,0.254398,0.943947,0.540857,0.466754,-0.229261,-0.332759,0.0775293,0.17184
-0.0136671,0.264056,0.936712,0.4068,0.63803,-0.480957,-0.257361,0.0756499,0.342935
0.00192988,0.27085,0.925025,0.282265,0.583272,-0.640499,-0.180616,0.0781284,0.460704
0.0156464,0.275732,0.910628,0.230499,0.391149,-0.733927,-0.127085,0.0880929,0.519832
0.0248954,0.280062,0.894848,0.239989,0.0918184,-0.771157,-0.0811434,0.0997491,0.551393
0.0285727,0.284723,0.87864,0.266095,-0.1591,-0.779323,-0.0500016,0.114068,0.549497
0.0281762,0.289037,0.86203,0.191445,-0.344722,-0.802522,-0.0152698,0.116893,0.545495
0.0244219,0.290767,0.845466,0.0155514,-0.501922,-0.769579,0.0532658,0.0870865,0.494497
0.0178954,0.289478,0.830184,-0.0979374,-0.564089,-0.703145,0.0799113,0.0446526,0.361911
0.0114487,0.286712,0.816218,-0.162563,-0.474434,-0.638159,0.115682,0.00237355,0.238627
0.00677543,0.2827,0.804064,-0.217976,-0.312642,-0.532722,0.144983,-0.0469634,0.112261
0.00562115,0.278398,0.794097,-0.203029,-0.0847555,-0.427241,0.168759,-0.0860239,0.0129648
0.00756996,0.274714,0.786585,-0.173785,0.0519663,-0.299793,0.187126,-0.111129,-0.0332828
0.00978217,0.27011,0.781767,-0.298198,0.00444412,-0.166548,0.190203,-0.129815,-0.0616951
0.00896041,0.262799,0.779541,-0.416027,-0.140351,-0.0513275,0.187911,-0.165005,-0.163202
0.00896041,0.262799,0.779541,-0.416027,-0.140351,-0.0513275,0.187911,-0.165005,-0.163202
0.00562917,0.254123,0.779666,-0.454059,-0.172321,0.052591,0.161239,-0.171653,-0.303722
0.0023042,0.24516,0.781577,-0.42858,-0.0800276,0.126152,0.15081,-0.196207,-0.436597
0.0035479,0.23854,0.784838,-0.203814,0.322449,0.184279,0.156938,-0.213041,-0.549303
0.0128369,0.237488,0.789556,0.068908,0.663376,0.294626,0.185934,-0.19647,-0.505077
0.0233017,0.239066,0.797569,0.0351272,0.469898,0.496291,0.19622,-0.176062,-0.361376
0.0246743,0.239843,0.809121,0.0687613,-0.0611817,0.597877,0.100943,-0.180251,-0.430043
0.0180434,0.244433,0.820703,0.381223,-0.255234,0.543327,0.0496173,-0.134916,-0.559852
0.0119335,0.255726,0.832539,0.74393,0.0133838,0.654396,0.099249,-0.0427519,-0.526653
0.0140239,0.273671,0.847863,0.973713,0.563498,0.850046,0.105074,0.0612828,-0.314333
0.0227474,0.292059,0.866873,0.783574,0.781356,1.00344,0.0947491,0.0602026,-0.0121229
