attitude_roll,attitude_pitch,attitude_yaw,rotationRate_x,rotationRate_y,rotationRate_z,acceleration_x,acceleration_y,acceleration_z
-0.0397663,0.234716,0.00468904,-0.357472,0.0247089,0.64731,-0.0825043,0.0457682,0.299799
-0.0399184,0.227657,0.0163731,-0.300083,0.217235,0.522966,-0.10962,0.0296048,0.259631
-0.0364085,0.221947,0.0259137,-0.240565,0.336892,0.433885,-0.0985408,0.0191249,0.210939
-0.0310627,0.216779,0.0338545,-0.27557,0.354868,0.359117,-0.103596,-0.000353962,0.166462
-0.0260027,0.209717,0.039711,-0.423658,0.265962,0.221659,-0.118063,-0.0195089,0.128547
-0.02271,0.200172,0.0423134,-0.503982,0.124466,0.0510795,-0.125573,-0.0424495,0.0610633
-0.0208706,0.190941,0.0412248,-0.391184,0.0391386,-0.137529,-0.141925,-0.0671444,-0.0219126
-0.020295,0.185526,0.0364765,-0.156168,-0.0605084,-0.317897,-0.141584,-0.093353,-0.0835252
-0.0205072,0.184793,0.0284289,0.0595515,-0.0935076,-0.464799,-0.12439,-0.118228,-0.113698
-0.0201884,0.187384,0.0185185,0.151019,-0.0406907,-0.495216,-0.0943021,-0.154821,-0.123281
-0.0179878,0.189687,0.00911755,0.0313467,0.0895848,-0.423819,-0.0730951,-0.199098,-0.129042
-0.0141225,0.187846,0.00177568,-0.238427,0.121095,-0.280527,-0.0454525,-0.226572,-0.154927
-0.0125081,0.180175,-0.00176918,-0.541084,-0.0225604,-0.0459583,-0.0206995,-0.251172,-0.228774
-0.0132143,0.16648,-0.000400019,-0.822467,0.021885,0.176051,-0.0188596,-0.210951,-0.30949
-0.0107048,0.148329,0.00356697,-0.963001,0.305892,0.209276,-0.0679957,-0.156795,-0.412176
-0.00211404,0.130026,0.00683294,-0.828718,0.579965,0.115857,-0.10441,-0.0865881,-0.534338
0.00865979,0.117512,0.0075489,-0.394948,0.433557,-0.0643909,-0.100504,-0.0118021,-0.633933
0.0137955,0.114803,0.00371751,0.129174,0.0129468,-0.338072,-0.0921955,0.0544309,-0.59765
0.0101322,0.121902,-0.00580016,0.560915,-0.47461,-0.572192,-0.0873883,0.0582611,-0.441386
-0.00163804,0.135427,-0.0183202,0.768514,-0.860655,-0.662006,-0.0803167,0.0465883,-0.210299
-0.0194446,0.151529,-0.0324458,0.802772,-1.09514,-0.754198,-0.075445,0.0676981,0.00861824
-0.0390136,0.166715,-0.0478591,0.648009,-1.05929,-0.81345,-0.0851333,0.0755052,0.182055
-0.0546114,0.177729,-0.0641341,0.367754,-0.755061,-0.838759,-0.104204,0.0525577,0.280144
-0.0622029,0.182919,-0.0805682,0.0530531,-0.278297,-0.798225,-0.111817,0.0337992,0.291596
-0.0591297,0.182016,-0.0959522,-0.227041,0.307167,-0.714824,-0.125627,0.0406627,0.236691
-0.0465154,0.176652,-0.110568,-0.359385,0.638518,-0.714757,-0.128221,0.0838613,0.11176
-0.0303937,0.170048,-0.125978,-0.334273,0.671352,-0.783093,-0.109332,0.139459,-0.0259106
-0.0159209,0.165354,-0.143054,-0.145587,0.453528,-0.905899,-0.116224,0.153432,-0.127916
-0.00785966,0.165946,-0.163356,0.198557,0.000625107,-1.11179,-0.113052,0.17692,-0.166356
-0.00829999,0.173721,-0.18821,0.549803,-0.443682,-1.3469,-0.0863685,0.20451,-0.100107
-0.0149375,0.187622,-0.217008,0.784041,-0.701854,-1.4953,-0.0568889,0.182983,0.0539656
-0.0239809,0.204853,-0.2478,0.866319,-0.79784,-1.55757,-0.00914607,0.159523,0.201206
-0.0335472,0.22295,-0.279034,0.848663,-0.812967,-1.53614,0.0304829,0.133079,0.305939
-0.0424816,0.240279,-0.308686,0.766111,-0.746699,-1.41667,0.0699352,0.110807,0.37901
-0.0490613,0.255626,-0.33557,0.645687,-0.569935,-1.26204,0.0798119,0.0811744,0.421572
-0.0529969,0.268068,-0.358899,0.472591,-0.422544,-1.05355,0.0856107,0.0531382,0.440012
-0.0547813,0.276476,-0.377961,0.266308,-0.26933,-0.83465,0.0811322,0.0359367,0.43258
-0.0540175,0.280641,-0.393214,0.0737871,-0.0537492,-0.66837,0.0617514,0.0278871,0.39687
-0.0486128,0.281547,-0.405996,-0.0344225,0.236453,-0.57272,0.0308418,0.0142767,0.306996
-0.0382461,0.28061,-0.416799,-0.113636,0.495184,-0.452199,0.0157451,0.000391871,0.190454
-0.0249359,0.276927,-0.424195,-0.307217,0.611788,-0.230737,0.0523189,-0.0237177,0.0818708
-0.0116973,0.267217,-0.425762,-0.696343,0.675348,0.115709,0.109671,-0.0631007,-0.0276523
0.000665403,0.248674,-0.419054,-1.15951,0.726507,0.5404,0.114437,-0.100591,-0.166228
0.0110086,0.222164,-0.404392,-1.46268,0.599662,0.841565,0.0682722,-0.0808977,-0.342034
0.014805,0.19285,-0.386157,-1.45327,0.143756,0.851456,-1.88882e-05,-0.054696,-0.52748
0.0110589,0.166647,-0.370916,-1.15582,-0.229142,0.603607,-0.0133926,0.0174237,-0.628935
0.00305384,0.147525,-0.360727,-0.797731,-0.334312,0.430717,0.0091406,-0.00336921,-0.625964
-0.0023187,0.133355,-0.351995,-0.6547,-0.0525454,0.452221,0.040262,-0.0839432,-0.553696
-0.00245195,0.121287,-0.342121,-0.543702,0.112945,0.53429,0.0806505,-0.0935182,-0.522577
-0.00278258,0.112228,-0.331253,-0.336468,-0.0614386,0.519116,0.0837892,-0.0258399,-0.485634
-0.00890895,0.109322,-0.322911,0.0811544,-0.493814,0.285814,0.0400141,0.0261114,-0.414853
-0.00890895,0.109322,-0.322911,0.0811544,-0.493814,0.285814,0.0400141,0.0261114,-0.414853
-0.0236942,0.115969,-0.32044,0.584972,-0.925343,-0.0573001,0.0354805,0.0704364,-0.26966
-0.043232,0.13221,-0.324325,1.01181,-1.02038,-0.369801,0.0873207,0.087834,-0.0744878
-0.0604965,0.155898,-0.332425,1.2936,-0.780885,-0.525342,0.178043,0.0792329,0.0857052
-0.0704255,0.18341,-0.340737,1.37363,-0.346936,-0.440299,0.27959,0.0820266,0.207032
-0.0721941,0.210378,-0.345163,1.26977,0.0661606,-0.164311,0.329177,0.0715921,0.293474
-0.0687404,0.233259,-0.342997,1.01412,0.312016,0.210735,0.326073,0.0682464,0.351022
-0.0637798,0.249479,-0.333742,0.655029,0.359534,0.575378,0.289302,0.07742,0.388824
-0.0618852,0.257375,-0.318216,0.227283,0.199218,0.860252,0.234262,0.0955002,0.415497
-0.0653777,0.256962,-0.298363,-0.12969,-0.0391034,1.05271,0.174713,0.10946,0.409055
-0.0734409,0.250596,-0.275565,-0.328178,-0.181433,1.18862,0.11454,0.118922,0.382734
-0.0834815,0.241641,-0.251088,-0.364666,-0.208184,1.25043,0.0646809,0.127373,0.359869
-0.0926632,0.232515,-0.226234,-0.322579,-0.124478,1.22541,-0.00230555,0.119448,0.341871
-0.0994645,0.224144,-0.202827,-0.305321,-0.0138821,1.12686,-0.0578923,0.113156,0.345227
-0.103186,0.215264,-0.181994,-0.386536,0.0850316,0.988402,-0.0970828,0.0905428,0.341521
-0.104503,0.204472,-0.164538,-0.506632,0.140741,0.831997,-0.124011,0.0441914,0.300502
-0.104598,0.192233,-0.150163,-0.558249,0.111413,0.70972,-0.113351,0.00872438,0.226688
-0.105869,0.179826,-0.138143,-0.552294,-0.0101638,0.592826,-0.119086,-0.02802,0.148135
-0.108171,0.16806,-0.128944,-0.513509,-0.0525663,0.436173,-0.14527,-0.0664485,0.0832828
-0.110739,0.158024,-0.122704,-0.418191,-0.106691,0.292634,-0.158687,-0.116055,0.0208436
-0.114047,0.150055,-0.118981,-0.347991,-0.166904,0.161048,-0.180127,-0.156125,-0.0172027
-0.118379,0.14351,-0.118005,-0.29982,-0.259991,0.0161963,-0.18699,-0.182956,-0.0527291
-0.124059,0.137648,-0.119453,-0.318983,-0.309445,-0.0794694,-0.184711,-0.213067,-0.0904203
-0.128522,0.130593,-0.12263,-0.437164,-0.134091,-0.149368,-0.189161,-0.234173,-0.128616
-0.127164,0.121486,-0.127588,-0.507782,0.178956,-0.208294,-0.168257,-0.246946,-0.238209
-0.121643,0.112602,-0.132489,-0.426719,0.319551,-0.157919,-0.138046,-0.272233,-0.41634
-0.112767,0.105784,-0.136207,-0.294418,0.52693,-0.135882,-0.151696,-0.247853,-0.557179
-0.100254,0.101754,-0.139598,-0.15199,0.689741,-0.170902,-0.166224,-0.197631,-0.672887
-0.0854944,0.101091,-0.144048,0.0635305,0.715061,-0.277958,-0.131354,-0.102344,-0.767711
-0.072722,0.106195,-0.151114,0.401609,0.455894,-0.466335,-0.0947131,-0.0138469,-0.80889
-0.0666923,0.118781,-0.161504,0.793098,0.00909859,-0.649288,-0.0674174,0.0390954,-0.755256
-0.0702705,0.139582,-0.174401,1.19073,-0.534369,-0.756178,-0.0184371,0.0731348,-0.583962
-0.0834895,0.167135,-0.187885,1.4339,-0.966668,-0.781949,0.024476,0.107719,-0.311269
-0.1032,0.197676,-0.201019,1.45648,-1.21447,-0.792247,0.0441109,0.145762,-0.0231347
-0.125141,0.226635,-0.213644,1.2623,-1.21499,-0.757197,0.0451462,0.159682,0.206188
-0.144629,0.250466,-0.225096,0.943934,-0.974761,-0.663748,0.0439252,0.152381,0.339618
-0.157501,0.26731,-0.235005,0.582527,-0.547634,-0.539117,0.0217937,0.139535,0.390886
-0.161211,0.27689,-0.243398,0.240179,-0.0492603,-0.417466,0.00681636,0.151616,0.380758
-0.155772,0.279685,-0.250975,-0.0657952,0.351587,-0.368376,-0.0181674,0.180182,0.330822
-0.144746,0.277413,-0.259282,-0.253118,0.484086,-0.392704,-0.0317298,0.206349,0.234974
-0.133116,0.273267,-0.268451,-0.25224,0.410372,-0.434943,-0.0327089,0.222851,0.137191
-0.123907,0.270734,-0.279004,-0.112297,0.205224,-0.565771,-0.0464238,0.242704,0.0791581
-0.119301,0.272178,-0.292824,0.103593,-0.118864,-0.78926,-0.0521268,0.257279,0.0658843
-0.120305,0.278561,-0.310661,0.312971,-0.461584,-0.971911,-0.0193767,0.256128,0.109471
-0.125612,0.2883,-0.330587,0.403425,-0.585482,-1.04224,0.0328612,0.221304,0.21561
-0.130798,0.299209,-0.351273,0.417694,-0.50607,-1.05551,0.0673034,0.171321,0.304936
-0.13246,0.309887,-0.371595,0.38553,-0.2448,-1.00935,0.0894663,0.129033,0.357783
-0.128441,0.319552,-0.390646,0.328587,0.0470401,-0.910593,0.108222,0.092721,0.374509
-0.12028,0.327148,-0.40759,0.21761,0.212275,-0.771414,0.125544,0.0588316,0.36871
-0.1111,0.331713,-0.421411,0.084333,0.247692,-0.580169,0.134826,0.0225781,0.325506
-0.102624,0.333311,-0.43153,-0.0247156,0.274968,-0.397983,0.113209,-0.00955778,0.268408
-0.0936061,0.332325,-0.438626,-0.147263,0.421079,-0.268827,0.0585855,-0.0235816,0.209504
-0.0936061,0.332325,-0.438626,-0.147263,0.421079,-0.268827,0.0585855,-0.0235816,0.209504
-0.0814618,0.328335,-0.44368,-0.297416,0.631579,-0.170357,0.0202316,-0.0446739,0.120291
-0.0661042,0.320818,-0.44618,-0.488308,0.81467,0.00876033,0.030627,-0.0749009,-0.00287807
-0.0499182,0.30849,-0.443763,-0.740513,0.84737,0.305126,0.0674395,-0.103332,-0.14219
-0.0371085,0.290993,-0.434679,-0.956298,0.683226,0.623003,0.0726802,-0.116447,-0.290137
-0.0302887,0.270991,-0.420781,-0.957344,0.351243,0.739395,0.0142863,-0.0886214,-0.425196
-0.0322342,0.25385,-0.407072,-0.700601,-0.203939,0.623134,-0.0237206,-0.0754973,-0.531116
-0.043304,0.24207,-0.396093,-0.453847,-0.568983,0.501643,0.0419367,-0.0180536,-0.497107
-0.0567826,0.233813,-0.386047,-0.359541,-0.462767,0.545408,0.0872513,-0.079789,-0.386368
-0.0643719,0.22493,-0.373448,-0.474342,0.00659606,0.75696,0.112588,-0.140075,-0.30263
-0.0639718,0.213164,-0.356319,-0.581531,0.349931,0.969793,0.128002,-0.124094,-0.31307
-0.0604555,0.200692,-0.336818,-0.502893,0.366747,0.98227,0.127062,-0.0206847,-0.362727
-0.0592215,0.192747,-0.319126,-0.158439,0.0615652,0.774133,0.0884101,0.0539211,-0.372
-0.0644502,0.19318,-0.306757,0.282117,-0.349811,0.422407,0.0824642,0.111353,-0.293832
-0.0753755,0.202452,-0.301167,0.66529,-0.582978,0.0779195,0.128957,0.130241,-0.132382
-0.0861461,0.2186,-0.300515,0.938536,-0.431342,-0.115933,0.205925,0.12473,0.0379355
-0.0907967,0.239259,-0.301682,1.09396,-0.0368196,-0.15593,0.293411,0.119017,0.168318
-0.0872304,0.261852,-0.301435,1.14772,0.391685,0.00397636,0.3748,0.132634,0.260335
-0.0765616,0.283479,-0.296572,1.02614,0.781355,0.306443,0.419732,0.152561,0.323609
-0.062443,0.300397,-0.284926,0.713643,0.941236,0.692506,0.406928,0.160127,0.381946
-0.0493419,0.309308,-0.266015,0.267507,0.915649,1.05575,0.348327,0.168032,0.413742
-0.0400578,0.30907,-0.240692,-0.167784,0.781711,1.35187,0.264651,0.176594,0.403559
-0.0347737,0.30168,-0.210422,-0.435094,0.645477,1.56563,0.180383,0.196951,0.344108
-0.0331424,0.290558,-0.17639,-0.558329,0.526663,1.72241,0.104211,0.210437,0.293602
-0.0334022,0.277782,-0.140645,-0.592292,0.461406,1.73697,-0.00281162,0.201744,0.258386
-0.0341135,0.265108,-0.105621,-0.561127,0.405782,1.69246,-0.0749643,0.183202,0.226633
-0.0353382,0.252929,-0.0713646,-0.551502,0.355103,1.66318,-0.134403,0.146023,0.212773
-0.0367691,0.240175,-0.0384148,-0.62108,0.303388,1.57909,-0.197082,0.102161,0.217756
-0.0385014,0.225641,-0.00787731,-0.718266,0.235551,1.45005,-0.230367,0.062995,0.204321
-0.0396861,0.209989,0.0194544,-0.728161,0.246141,1.28544,-0.264861,0.0143416,0.159224
-0.0393662,0.195317,0.0433889,-0.639465,0.257452,1.12157,-0.288541,-0.0361467,0.105989
-0.0382969,0.182776,0.0638666,-0.544709,0.218692,0.940903,-0.303094,-0.0684692,0.0697191
-0.0382918,0.171732,0.0807762,-0.51548,0.0670488,0.768282,-0.31514,-0.114252,0.0460916
-0.0407453,0.160539,0.0943332,-0.569233,-0.0848368,0.625451,-0.330868,-0.153016,0.0248047
-0.0447368,0.147475,0.105039,-0.706974,-0.126113,0.486239,-0.355452,-0.20688,-0.00963187
-0.0471545,0.131382,0.112832,-0.872965,0.0412273,0.373635,-0.349372,-0.253212,-0.0980686
-0.0433388,0.112368,0.119075,-0.977204,0.417266,0.345733,-0.322869,-0.300054,-0.268104
-0.0337581,0.0933425,0.125213,-0.866088,0.54797,0.338478,-0.334666,-0.33732,-0.503456
-0.024857,0.0783461,0.130737,-0.601866,0.34731,0.226014,-0.382693,-0.317593,-0.712268
-0.0217649,0.0697031,0.132553,-0.260191,-0.0259121,-0.0520251,-0.421954,-0.277338,-0.830332
-0.0250454,0.068057,0.127889,0.0813882,-0.307519,-0.406637,-0.395181,-0.240879,-0.877216
-0.0317452,0.0733548,0.117224,0.4215,-0.418111,-0.651226,-0.31504,-0.225692,-0.875384
-0.0396455,0.0858587,0.103265,0.778395,-0.488709,-0.777991,-0.226411,-0.184648,-0.829936
-0.0490131,0.105914,0.0874922,1.17201,-0.622454,-0.889442,-0.149935,-0.0996364,-0.729881
-0.0621558,0.134737,0.0699978,1.61929,-0.930998,-1.01005,-0.0983593,-0.0145198,-0.581335
-0.0813841,0.172213,0.0510951,1.96043,-1.28369,-1.1291,-0.0662706,0.0820079,-0.340044
-0.105739,0.21476,0.0308532,2.06077,-1.52712,-1.25291,-0.0465406,0.159677,-0.0724662
-0.131826,0.257642,0.00912189,1.93059,-1.55619,-1.35543,-0.0307157,0.194254,0.13649
-0.154115,0.296903,-0.0138414,1.63555,-1.26109,-1.38568,-0.0132603,0.198612,0.25868
-0.166835,0.329949,-0.0369584,1.27947,-0.703349,-1.31241,-0.0159603,0.183324,0.294709
-0.167506,0.356119,-0.0594003,0.971512,-0.145632,-1.21921,-0.0251027,0.192863,0.246923
-0.167506,0.356119,-0.0594003,0.971512,-0.145632,-1.21921,-0.0251027,0.192863,0.246923
-0.15937,0.377238,-0.0812064,0.810904,0.126868,-1.1421,-0.000380889,0.247032,0.11874
-0.149108,0.396154,-0.101873,0.784205,0.0778164,-1.05333,0.0336262,0.306573,-0.00148785
-0.142059,0.414996,-0.121799,0.833625,-0.188956,-1.0539,0.0301679,0.35596,-0.0686335
-0.141025,0.435725,-0.142805,0.972533,-0.589781,-1.14962,0.0415481,0.422754,-0.0888246
-0.146966,0.460121,-0.166026,1.14137,-0.99464,-1.27884,0.0763826,0.472865,-0.0456364
-0.157584,0.487517,-0.191125,1.2168,-1.18528,-1.33525,0.114205,0.481617,0.0717701
-0.169697,0.515548,-0.216073,1.18433,-1.22604,-1.27055,0.178701,0.472198,0.189344
-0.182391,0.541772,-0.239252,1.04291,-1.19673,-1.16808,0.215893,0.467193,0.292612
-0.193883,0.564688,-0.261025,0.86494,-1.11028,-1.09348,0.233392,0.461529,0.368143
-0.203657,0.583961,-0.281871,0.683104,-0.997994,-1.00896,0.242649,0.441652,0.416455
-0.211229,0.59955,-0.301718,0.517563,-0.859665,-0.937635,0.243636,0.400758,0.44196
-0.215026,0.612186,-0.320912,0.380798,-0.593929,-0.887365,0.222978,0.348828,0.448503
-0.211725,0.621483,-0.340024,0.178435,-0.151192,-0.842252,0.197892,0.297299,0.450821
-0.197701,0.625414,-0.359718,-0.1286,0.405368,-0.79574,0.184583,0.227706,0.417381
-0.172727,0.622322,-0.378991,-0.471189,0.973344,-0.671662,0.189652,0.141242,0.321891
-0.1402,0.611221,-0.39454,-0.830702,1.31329,-0.383225,0.205032,0.0530086,0.179321
-0.109483,0.591164,-0.402379,-1.26055,1.27626,-0.0161658,0.203041,-0.0308682,0.0480235
-0.0872995,0.561858,-0.402369,-1.63983,0.882304,0.28696,0.161889,-0.104417,-0.109074
-0.0793038,0.526942,-0.396183,-1.76986,0.242467,0.516652,0.125222,-0.161186,-0.289765
-0.0850822,0.49102,-0.384891,-1.72681,-0.212044,0.772485,0.126651,-0.179704,-0.403824
-0.0961023,0.456405,-0.368395,-1.58424,-0.0316173,0.991598,0.0857208,-0.219035,-0.442483
-0.100489,0.424746,-0.347877,-1.40474,0.465595,1.18044,0.0123045,-0.279363,-0.482354
-0.0975074,0.395715,-0.324143,-1.27365,0.717701,1.25364,-0.0422809,-0.250396,-0.530911
-0.0933594,0.370377,-0.300091,-1.00748,0.524365,1.1916,-0.0576898,-0.192858,-0.582718
-0.0953698,0.353008,-0.278468,-0.504441,0.0222374,0.967403,-0.0466482,-0.123211,-0.580209
-0.106175,0.347682,-0.261854,0.132913,-0.529226,0.643204,-0.0339866,-0.0703672,-0.484563
-0.124152,0.354739,-0.250294,0.660284,-0.806198,0.374539,-0.00437579,-0.044882,-0.283546
-0.142771,0.37041,-0.241715,0.9704,-0.718883,0.230396,0.0436167,-0.0408348,-0.0676922
-0.157607,0.390182,-0.233925,1.06745,-0.456504,0.205252,0.102846,-0.0214221,0.0977031
-0.166787,0.409961,-0.225347,0.998204,-0.126984,0.268622,0.135061,0.000136107,0.205664
-0.170651,0.427077,-0.214976,0.844672,0.144112,0.386367,0.156875,0.0306822,0.259798
-0.171317,0.440328,-0.202615,0.651831,0.288102,0.488384,0.166212,0.0736666,0.283856
-0.170979,0.449405,-0.189206,0.455169,0.313726,0.549912,0.167931,0.115567,0.295653
-0.170996,0.454812,-0.175195,0.305905,0.286164,0.609565,0.172474,0.136894,0.296451
-0.172885,0.457731,-0.159856,0.22606,0.200892,0.702895,0.172184,0.142307,0.303195
-0.177345,0.458882,-0.142469,0.155923,0.119348,0.824886,0.165887,0.150679,0.330439
-0.184294,0.457548,-0.122657,0.0203847,0.0760614,0.947266,0.140995,0.147637,0.380726
-0.191492,0.452348,-0.101457,-0.176182,0.149013,1.02128,0.0977567,0.140798,0.418719
-0.196576,0.443154,-0.0799531,-0.350996,0.284622,1.06012,0.0434806,0.129673,0.423069
-0.198567,0.430487,-0.0589643,-0.522869,0.395651,1.05068,-0.00158031,0.109955,0.40293
-0.197862,0.414392,-0.0395831,-0.709919,0.477365,0.99913,-0.044124,0.0831293,0.369822
-0.194374,0.394981,-0.0224038,-0.889614,0.547571,0.938403,-0.0767094,0.0451609,0.304747
-0.189108,0.372313,-0.00710118,-1.06626,0.543827,0.888106,-0.103323,0.0114149,0.222331
-0.184056,0.347038,0.00620132,-1.17735,0.415137,0.805453,-0.146175,-0.0300798,0.10872
-0.181145,0.320846,0.0171597,-1.21016,0.237978,0.683789,-0.194409,-0.067397,-0.00285262
-0.179745,0.294944,0.0252445,-1.20773,0.188004,0.542868,-0.236168,-0.116861,-0.105471
-0.176072,0.269613,0.0308487,-1.19185,0.374295,0.44879,-0.256396,-0.182174,-0.232623
-0.166034,0.245829,0.0350376,-1.06681,0.74725,0.348547,-0.297704,-0.223086,-0.373237
-0.149845,0.226616,0.0376158,-0.775515,0.862059,0.207311,-0.315286,-0.219472,-0.527652
-0.135621,0.214079,0.0384884,-0.467426,0.537523,0.0407334,-0.3039,-0.207062,-0.633409
-0.135621,0.214079,0.0384884,-0.467426,0.537523,0.0407334,-0.3039,-0.207062,-0.633409
-0.128579,0.207235,0.0361832,-0.262326,0.153862,-0.173644,-0.291725,-0.201182,-0.65211
-0.125602,0.204062,0.030433,-0.124023,0.0823288,-0.330665,-0.269982,-0.21825,-0.637807
-0.121831,0.20459,0.0227431,0.100007,0.138879,-0.423976,-0.229515,-0.201742,-0.63349
-0.117684,0.210919,0.013961,0.444453,0.0400914,-0.512001,-0.184491,-0.140892,-0.610788
-0.118676,0.224785,0.00395066,0.806113,-0.39338,-0.626244,-0.138075,-0.0674172,-0.505922
-0.1289,0.244593,-0.00755871,0.999745,-0.887436,-0.727933,-0.0929031,-0.00774746,-0.302309
-0.146737,0.267213,-0.0202037,1.06205,-1.18576,-0.797823,-0.0764917,0.0282809,-0.0838339
-0.167202,0.290444,-0.0339243,1.01468,-1.19774,-0.877874,-0.0776071,0.0649416,0.105552
-0.183983,0.312362,-0.0493769,0.874824,-0.903671,-0.954561,-0.0833825,0.0836746,0.238223
-0.191512,0.330911,-0.0663277,0.629612,-0.355079,-0.970361,-0.0927038,0.0860286,0.312917
-0.186572,0.343634,-0.0842618,0.298939,0.239033,-0.933783,-0.0991566,0.0877349,0.326854
-0.170996,0.349973,-0.10281,0.0369276,0.649714,-0.906073,-0.0896781,0.118827,0.248405
-0.149968,0.352105,-0.121465,-0.0828232,0.777396,-0.862322,-0.0617401,0.170848,0.121747
-0.128899,0.352932,-0.139665,-0.054592,0.669773,-0.858556,-0.0717784,0.204324,0.0230621
-0.112448,0.355093,-0.15843,0.0720783,0.283235,-0.930811,-0.0700513,0.25553,-0.0357757
-0.1049,0.36052,-0.179226,0.263729,-0.256693,-1.08386,-0.0499424,0.30938,-0.0247218
-0.105857,0.37007,-0.203475,0.436267,-0.665723,-1.27579,-0.0323526,0.34099,0.0620627
-0.1107,0.382617,-0.231008,0.518907,-0.803826,-1.39106,-0.00518006,0.335141,0.185486
-0.116143,0.395908,-0.259701,0.482592,-0.815533,-1.39516,0.0466311,0.317393,0.295978
-0.120251,0.407402,-0.288201,0.343752,-0.696601,-1.34286,0.0897269,0.30893,0.378152
-0.121615,0.415605,-0.315491,0.171006,-0.515404,-1.24288,0.111049,0.289501,0.426044
-0.119333,0.420159,-0.340683,0.00953823,-0.273371,-1.09477,0.124625,0.271004,0.44509
-0.113341,0.421114,-0.362477,-0.145898,-0.0298444,-0.895807,0.12078,0.247324,0.44517
-0.105145,0.418093,-0.380335,-0.344612,0.114575,-0.706291,0.0971932,0.209943,0.431248
-0.0951644,0.410457,-0.395342,-0.552469,0.288982,-0.602022,0.0393835,0.186107,0.381326
-0.0823602,0.398242,-0.408639,-0.790248,0.469999,-0.507717,0.0191429,0.175396,0.288569
-0.0673372,0.380376,-0.419369,-1.07932,0.627774,-0.328192,0.0283431,0.127053,0.146331
-0.051612,0.355746,-0.42442,-1.41376,0.745046,0.0260348,0.0539589,0.0440295,-0.0178103
-0.0382591,0.32408,-0.420952,-1.74172,0.660056,0.429786,0.063816,-0.00150964,-0.185409
-0.0317925,0.28632,-0.410432,-1.98688,0.262972,0.671006,0.0183013,0.00614804,-0.341702
-0.035281,0.245387,-0.397563,-2.04423,-0.265156,0.678096,-0.0517357,-0.00668712,-0.483594
-0.0464536,0.205441,-0.38655,-1.89273,-0.532263,0.553232,-0.069011,-0.000286192,-0.561025
-0.0572842,0.169681,-0.378049,-1.64332,-0.337069,0.48697,-0.0546686,-0.0682082,-0.584414
-0.0618102,0.138863,-0.36979,-1.39314,-0.00592598,0.53064,-0.0344506,-0.1497,-0.595471
-0.0616749,0.112849,-0.360143,-1.14799,0.112145,0.569428,-0.00717667,-0.162598,-0.609294
-0.0609656,0.0921978,-0.350956,-0.848925,0.0111375,0.450103,-0.0245055,-0.141926,-0.593744
-0.0643784,0.0787583,-0.345066,-0.442239,-0.333874,0.201944,-0.0544873,-0.120191,-0.532204
-0.0753058,0.0743619,-0.34461,0.00485666,-0.756385,-0.136586,-0.0396736,-0.0957811,-0.405813
-0.0930171,0.0794566,-0.350513,0.449889,-1.01814,-0.486767,0.0232998,-0.0871462,-0.243365
-0.11179,0.0937618,-0.36157,0.850426,-0.904375,-0.738511,0.114516,-0.0953252,-0.0848715
-0.124882,0.115571,-0.374998,1.1425,-0.523882,-0.824768,0.222375,-0.103497,0.0404183
-0.128966,0.141962,-0.38761,1.29885,-0.0485815,-0.720149,0.303524,-0.104364,0.132674
-0.124255,0.169405,-0.395959,1.30227,0.370746,-0.428789,0.358673,-0.0850812,0.199109
-0.11337,0.194537,-0.398471,1.1469,0.655949,-0.121169,0.371553,-0.0569009,0.241425
-0.100194,0.215023,-0.395298,0.922046,0.691266,0.214237,0.37145,-0.0141539,0.262569
-0.0895925,0.230142,-0.385816,0.674094,0.565966,0.566186,0.354204,0.0120054,0.254336
-0.0846463,0.239883,-0.369593,0.436447,0.292974,0.923022,0.318941,0.0358978,0.247856
-0.0875668,0.244633,-0.347056,0.23346,-0.0383247,1.20364,0.266949,0.0708898,0.258883
-0.0973672,0.245588,-0.320536,0.116159,-0.277687,1.33926,0.201917,0.117791,0.285041
-0.110883,0.244785,-0.292161,0.103234,-0.366654,1.41263,0.147259,0.140908,0.317106
-0.125531,0.243691,-0.262629,0.117719,-0.374861,1.44794,0.102643,0.148193,0.36478
-0.125531,0.243691,-0.262629,0.117719,-0.374861,1.44794,0.102643,0.148193,0.36478
-0.139477,0.241756,-0.233108,0.0533174,-0.297591,1.42243,0.0632661,0.147336,0.430424
-0.15041,0.237149,-0.20477,-0.133251,-0.10387,1.3715,0.0333598,0.140374,0.482186
-0.155483,0.227638,-0.178614,-0.425101,0.211018,1.29758,-0.00300762,0.103989,0.488619
-0.153316,0.212553,-0.154655,-0.697851,0.523677,1.25898,-0.0158975,0.0649449,0.419811
-0.14509,0.193202,-0.131904,-0.872652,0.741009,1.23129,-0.045227,0.0318609,0.286207
-0.133451,0.171738,-0.110935,-0.960686,0.770649,1.10127,-0.117803,0.00887758,0.1255
-0.123062,0.1497,-0.0930689,-1.00611,0.530346,0.943769,-0.151235,-0.0118542,-0.0442358
-0.117372,0.127435,-0.077884,-1.01912,0.258242,0.83813,-0.159223,-0.0611419,-0.214457
-0.116165,0.105788,-0.0637797,-0.973706,0.0476825,0.818619,-0.168481,-0.129226,-0.374002
-0.117205,0.0852548,-0.049867,-0.899457,-0.00464464,0.782404,-0.198765,-0.161369,-0.479782
-0.118771,0.0674455,-0.0381162,-0.71166,-0.0922966,0.57536,-0.256122,-0.161915,-0.560801
-0.124154,0.0554044,-0.0308276,-0.388095,-0.425427,0.287599,-0.278897,-0.15135,-0.611728
-0.134304,0.0504151,-0.0287675,-0.112342,-0.500945,0.0023165,-0.281659,-0.166876,-0.572337
-0.141152,0.0495541,-0.0307461,-0.0186557,-0.136078,-0.170821,-0.276131,-0.243771,-0.498023
-0.138202,0.0511094,-0.0346931,0.148542,0.364135,-0.223413,-0.238439,-0.270232,-0.527536
-0.130104,0.057863,-0.038432,0.495692,0.352289,-0.255177,-0.169857,-0.208893,-0.598475
-0.126454,0.0729892,-0.0429868,0.950071,-0.0701602,-0.401343,-0.152615,-0.12193,-0.549536
-0.132992,0.0962003,-0.0496883,1.22601,-0.626408,-0.558001,-0.123536,-0.0551015,-0.345658
-0.148308,0.122733,-0.0584913,1.25902,-0.95312,-0.672446,-0.102019,-0.029919,-0.0944517
-0.166252,0.148834,-0.0687345,1.15194,-0.930938,-0.733587,-0.0725635,-0.0238188,0.0887429
-0.179973,0.172453,-0.0797157,0.99325,-0.578866,-0.731301,-0.0635358,-0.0233312,0.193208
-0.184542,0.192681,-0.0903181,0.802823,-0.0742824,-0.658068,-0.0698837,-0.0136791,0.232529
-0.180092,0.208007,-0.100424,0.519366,0.286938,-0.615106,-0.0878178,0.0223063,0.233082
-0.170264,0.21747,-0.111909,0.23112,0.425743,-0.664525,-0.0997618,0.0778507,0.163865
-0.158674,0.222661,-0.125233,0.105495,0.428814,-0.701015,-0.0895898,0.117295,0.0395076
-0.147975,0.227601,-0.139529,0.199204,0.29445,-0.761629,-0.0965251,0.147668,-0.0762918
-0.141542,0.236129,-0.155265,0.444811,-0.0412536,-0.899491,-0.0898952,0.202004,-0.133267
-0.142241,0.250985,-0.174091,0.772672,-0.486538,-1.12818,-0.0669191,0.259039,-0.11399
-0.149425,0.272439,-0.196503,1.02226,-0.773099,-1.31556,-0.0203782,0.289574,0.00336486
-0.15862,0.298119,-0.221088,1.14369,-0.80838,-1.40117,0.03464,0.289374,0.153882
-0.166305,0.325508,-0.246254,1.16457,-0.725616,-1.40589,0.0904251,0.292507,0.276335
-0.171494,0.352429,-0.270788,1.09434,-0.614016,-1.3243,0.143289,0.298517,0.364589
-0.174432,0.376848,-0.293474,0.944012,-0.498065,-1.18518,0.166437,0.295833,0.433984
-0.175667,0.39724,-0.313542,0.739096,-0.384189,-1.00336,0.179146,0.286472,0.477689
-0.175781,0.412562,-0.330455,0.490899,-0.302235,-0.804069,0.182818,0.273882,0.498888
-0.175693,0.421669,-0.344452,0.172304,-0.266883,-0.622363,0.164226,0.248837,0.496414
-0.175801,0.423508,-0.35618,-0.16732,-0.199795,-0.479791,0.143881,0.21809,0.453372
-0.173102,0.419478,-0.366386,-0.373198,0.0797818,-0.361283,0.144107,0.191463,0.34791
-0.164877,0.411339,-0.373492,-0.55051,0.460901,-0.125327,0.141315,0.146343,0.233777
-0.151286,0.39768,-0.375095,-0.856703,0.817054,0.205325,0.127749,0.0955473,0.134591
-0.135457,0.375351,-0.370402,-1.31209,0.887202,0.534205,0.132615,0.0657417,0.0103574
-0.123474,0.343141,-0.360738,-1.75351,0.593854,0.76491,0.1024,0.042181,-0.159492
-0.121099,0.303561,-0.348175,-2.01077,0.036102,0.887816,0.0925591,0.0353858,-0.344748
-0.128381,0.260742,-0.334636,-2.06511,-0.315593,0.934758,0.107847,0.0424044,-0.467091
-0.136806,0.217841,-0.320041,-2.00471,-0.0978714,1.05973,0.108636,-0.0399054,-0.535747
-0.136736,0.176497,-0.302629,-1.84219,0.433181,1.19262,0.0635595,-0.120973,-0.617864
-0.12898,0.140423,-0.283219,-1.45636,0.576941,1.1646,0.0367954,-0.0943058,-0.71985
-0.121691,0.114796,-0.265572,-0.844441,0.300045,0.850992,-0.00839021,-0.0267521,-0.746091
-0.12244,0.103909,-0.254977,-0.115753,-0.261586,0.320523,-0.0407864,-0.00487429,-0.65879
-0.131907,0.107367,-0.252793,0.447993,-0.591591,-0.115411,0.0207973,-0.00605931,-0.436209
-0.142429,0.120482,-0.256056,0.77931,-0.43812,-0.371396,0.120212,-0.0569182,-0.197355
-0.146488,0.139045,-0.262135,0.962216,-0.0206142,-0.470266,0.229242,-0.0781839,-0.0291082
-0.141516,0.160497,-0.267554,1.08517,0.430781,-0.337984,0.334819,-0.0683712,0.0684815
-0.129282,0.183326,-0.268577,1.15756,0.743316,-0.0644169,0.380607,-0.0452688,0.146653
-0.113654,0.205729,-0.264246,1.10341,0.862713,0.217805,0.388926,-0.000233069,0.217867
-0.0994428,0.225302,-0.254598,0.933449,0.759648,0.509694,0.365157,0.0445984,0.296327
-0.0892037,0.240245,-0.239705,0.690183,0.615867,0.795021,0.328241,0.0664926,0.358012
-0.0828285,0.249767,-0.219504,0.431052,0.528436,1.07751,0.285855,0.0844131,0.403301
-0.0788911,0.253998,-0.194091,0.199889,0.507615,1.34429,0.241884,0.10348,0.420807
-0.0759781,0.253982,-0.164018,0.0318413,0.535744,1.56342,0.194518,0.132867,0.420343
-0.0731565,0.251018,-0.130268,-0.0769427,0.59128,1.72074,0.134369,0.153633,0.399129
-0.0701356,0.246153,-0.0938837,-0.164745,0.597969,1.83545,0.0831788,0.179588,0.377705
-0.0676752,0.239036,-0.0560221,-0.302397,0.56338,1.87897,0.0311854,0.189342,0.368665
-0.0654172,0.228933,-0.018037,-0.465599,0.553819,1.88394,-0.0170541,0.188777,0.343179
-0.0623876,0.215727,0.0194773,-0.616006,0.589081,1.8604,-0.0601612,0.169365,0.294775
-0.0578316,0.200189,0.0561557,-0.712901,0.615001,1.82501,-0.094539,0.137575,0.224408
-0.0528668,0.183541,0.0918292,-0.753596,0.551295,1.76933,-0.135988,0.107027,0.138538
-0.0492605,0.166526,0.125642,-0.781251,0.395363,1.64571,-0.182459,0.0791792,0.0591432
-0.0477162,0.149117,0.156872,-0.819887,0.265628,1.54069,-0.214382,0.0234579,-0.0149541
-0.0467424,0.130139,0.186494,-0.972584,0.257143,1.49261,-0.24026,-0.0364271,-0.0815148
-0.044594,0.10667,0.215036,-1.2571,0.296654,1.45661,-0.268556,-0.0807732,-0.172535
-0.0410522,0.0780311,0.242525,-1.46103,0.287621,1.40727,-0.301339,-0.128042,-0.333854
-0.0396646,0.0479249,0.268435,-1.41616,-0.0158437,1.28676,-0.337207,-0.147711,-0.537487
-0.04385,0.0207736,0.290644,-1.19929,-0.291101,1.03181,-0.379635,-0.133067,-0.67798
-0.0497222,-0.00123294,0.306932,-0.927486,-0.21741,0.701638,-0.429501,-0.165494,-0.736283
-0.0508871,-0.0169844,0.316826,-0.58206,0.096391,0.370885,-0.450378,-0.204972,-0.787144
-0.0508871,-0.0169844,0.316826,-0.58206,0.096391,0.370885,-0.450378,-0.204972,-0.787144
-0.0474463,-0.0236118,0.320554,-0.0347472,0.168087,0.0418043,-0.414133,-0.179814,-0.855011
-0.0477465,-0.0177138,0.318437,0.610114,-0.258915,-0.292896,-0.356042,-0.124677,-0.831207
-0.0591238,0.000348364,0.30977,1.1196,-0.862458,-0.666246,-0.281761,-0.0645473,-0.642632
-0.0802817,0.0269991,0.295501,1.41839,-1.22196,-0.920308,-0.219699,-0.0483063,-0.359556
-0.104642,0.0583268,0.27852,1.51727,-1.24943,-1.05382,-0.162038,-0.0507456,-0.111257
-0.126149,0.0901736,0.260424,1.41691,-0.995179,-1.0997,-0.125185,-0.0467283,0.0758528
-0.139542,0.118832,0.242285,1.17353,-0.521966,-1.06325,-0.123977,-0.0598835,0.173024
-0.142758,0.141872,0.224885,0.868794,-0.0438042,-0.97455,-0.135386,-0.0606599,0.174386
-0.138156,0.15927,0.20813,0.653319,0.196338,-0.925348,-0.128599,-0.0182514,0.0823209
-0.131142,0.174076,0.191491,0.634015,0.209771,-0.911448,-0.105203,0.0661735,-0.0516616
-0.124705,0.190411,0.174438,0.79867,0.114278,-0.978024,-0.118055,0.129219,-0.142856
-0.120802,0.211253,0.155552,1.06362,-0.124832,-1.13372,-0.12799,0.200896,-0.177214
-0.122116,0.238307,0.133333,1.3608,-0.525572,-1.35406,-0.103371,0.281437,-0.143652
-0.129956,0.270675,0.107254,1.51544,-0.889948,-1.55381,-0.0489101,0.339541,-0.00956166
-0.140922,0.30547,0.078014,1.55889,-0.996822,-1.69621,-0.000262752,0.361593,0.146125
-0.150084,0.341398,0.0466406,1.57056,-0.905766,-1.76951,0.0444567,0.376431,0.25657
-0.154914,0.377495,0.0142489,1.53843,-0.712283,-1.78283,0.0916582,0.399965,0.343065
-0.154345,0.412641,-0.018399,1.46586,-0.490005,-1.73874,0.113959,0.407057,0.405892
-0.148657,0.445227,-0.0503689,1.31543,-0.287674,-1.6289,0.128178,0.410917,0.450344
-0.13974,0.47366,-0.0806824,1.10551,-0.181685,-1.47662,0.125614,0.404648,0.475392
-0.129781,0.496569,-0.108888,0.82342,-0.149833,-1.31642,0.113618,0.396516,0.492815
-0.11971,0.512371,-0.135272,0.444481,-0.100053,-1.19018,0.08265,0.378673,0.506628
-0.107766,0.519537,-0.160751,0.0197228,0.0590696,-1.09243,0.0541961,0.338336,0.487479
-0.0931761,0.517942,-0.184058,-0.378466,0.240409,-0.888222,0.0823181,0.283088,0.404439
-0.0780849,0.507545,-0.201809,-0.803993,0.389821,-0.54749,0.0962484,0.210764,0.309785
-0.0653847,0.487502,-0.210921,-1.26066,0.417463,-0.105252,0.100146,0.137732,0.199977
-0.0584032,0.457605,-0.210856,-1.73021,0.248907,0.272057,0.069729,0.0910926,0.0807949
-0.0604236,0.418356,-0.204318,-2.15461,-0.219896,0.545559,0.0281709,0.0332269,-0.0755802
-0.0733471,0.371066,-0.193206,-2.49752,-0.558744,0.793245,0.0599474,0.0123279,-0.215477
-0.0878564,0.317481,-0.178777,-2.72049,-0.330487,0.997609,0.0503079,-0.0755056,-0.366963
-0.093889,0.261293,-0.1611,-2.68533,0.239684,1.20793,-0.00983393,-0.176363,-0.567876
-0.0912165,0.20951,-0.140437,-2.24782,0.393159,1.23993,-0.0478036,-0.190122,-0.796868
-0.090393,0.169526,-0.120462,-1.54692,0.0211803,1.02621,-0.0617656,-0.12227,-0.917545
-0.0981546,0.145045,-0.106937,-0.778363,-0.597489,0.506474,-0.110109,-0.0972078,-0.871907
-0.114916,0.135991,-0.103093,-0.0974653,-0.962207,-0.0107454,-0.0959903,-0.103288,-0.693807
-0.134175,0.140645,-0.106675,0.497341,-0.964793,-0.375108,0.00794008,-0.121202,-0.480352
-0.149741,0.156408,-0.114605,0.932061,-0.685852,-0.610931,0.124275,-0.112829,-0.272192
-0.157939,0.180029,-0.124981,1.23695,-0.305536,-0.757291,0.230394,-0.0874521,-0.102534
-0.158205,0.209223,-0.136322,1.46948,0.0417062,-0.768452,0.314816,-0.0535148,0.0278204
-0.152894,0.241747,-0.145638,1.58067,0.2658,-0.620029,0.372846,-0.0176501,0.140686
-0.145997,0.27402,-0.15104,1.51727,0.264491,-0.365796,0.392127,0.0174906,0.262019
-0.141465,0.302323,-0.151329,1.27024,0.166409,-0.0632572,0.388277,0.0429622,0.370969
-0.141123,0.323833,-0.146059,0.93204,0.0465413,0.256453,0.357023,0.0661584,0.45938
-0.144327,0.337526,-0.135393,0.575366,-0.00683632,0.54871,0.313766,0.0876238,0.517506
-0.149282,0.343663,-0.119975,0.255754,0.0403231,0.791821,0.266909,0.111673,0.546778
-0.153803,0.343389,-0.101169,-0.0136362,0.146787,0.961483,0.210965,0.13679,0.547386
-0.15652,0.337688,-0.0801835,-0.240899,0.277201,1.08326,0.155882,0.148766,0.526899
-0.15752,0.327514,-0.05785,-0.431845,0.356818,1.15847,0.103701,0.153599,0.479526
-0.156127,0.313866,-0.0355385,-0.576152,0.510302,1.13973,0.0443966,0.151527,0.419513
-0.149912,0.298174,-0.014472,-0.662941,0.751061,1.08937,0.000426576,0.137617,0.335168
-0.138572,0.281864,0.00502573,-0.67556,0.919967,0.993141,-0.0441258,0.117578,0.223426
-0.125276,0.266655,0.0224526,-0.603922,0.843467,0.886838,-0.0701106,0.0944543,0.100469
-0.115228,0.253298,0.0384458,-0.557964,0.541905,0.81648,-0.0751123,0.0719935,0.0110033
-0.115228,0.253298,0.0384458,-0.557964,0.541905,0.81648,-0.0751123,0.0719935,0.0110033
-0.112259,0.240179,0.0533735,-0.600948,0.122436,0.795363,-0.0751062,0.0202857,-0.0390449
-0.116698,0.224752,0.0685756,-0.786576,-0.164421,0.862751,-0.0662593,-0.0484675,-0.0615508
-0.123428,0.204366,0.0846155,-1.0478,-0.13229,0.951096,-0.0848455,-0.104457,-0.0978395
-0.127254,0.179662,0.101823,-1.16581,0.108853,1.03615,-0.107279,-0.138854,-0.217563
-0.125054,0.15486,0.119477,-1.04338,0.364143,0.995352,-0.175516,-0.150797,-0.374632
-0.121521,0.134308,0.13598,-0.81276,0.163508,0.872333,-0.227205,-0.155371,-0.489657
-0.123283,0.117542,0.149681,-0.723212,-0.137381,0.684542,-0.256372,-0.152138,-0.516055
-0.126766,0.101478,0.15993,-0.746077,-0.0226006,0.540448,-0.279512,-0.206114,-0.520741
-0.123681,0.0865383,0.167619,-0.608002,0.407859,0.400853,-0.312841,-0.239879,-0.593078
-0.114076,0.0774542,0.17253,-0.206708,0.521002,0.179044,-0.317955,-0.179917,-0.686556
-0.105767,0.0792015,0.173384,0.407978,0.259393,-0.129458,-0.298631,-0.0972577,-0.677361
-0.105482,0.0936527,0.168816,0.934953,-0.285907,-0.466339,-0.251102,-0.0394798,-0.513425
-0.114564,0.115743,0.159569,1.11842,-0.676213,-0.669064,-0.199271,-0.0226687,-0.225116
-0.127659,0.139238,0.147856,1.04803,-0.737328,-0.765792,-0.170764,-0.0403196,0.0244235
-0.138579,0.159965,0.13453,0.823628,-0.522132,-0.811121,-0.159999,-0.0419039,0.191193
-0.142856,0.175774,0.120389,0.555411,-0.127727,-0.793661,-0.154806,-0.0416975,0.26129
-0.138583,0.186659,0.105832,0.336028,0.271635,-0.787048,-0.163561,-0.0291907,0.240497
-0.128111,0.193987,0.0905894,0.206533,0.447647,-0.800826,-0.158555,0.0244677,0.147458
-0.116256,0.199846,0.0744646,0.20321,0.409207,-0.856217,-0.166603,0.0730456,0.0455486
-0.105496,0.206616,0.0564524,0.29122,0.29192,-0.99215,-0.19444,0.115168,-0.0265885
-0.0971592,0.216328,0.0351378,0.479467,0.0862832,-1.19658,-0.200207,0.167205,-0.0699521
-0.0924953,0.230923,0.00950752,0.750752,-0.190939,-1.44187,-0.172906,0.222926,-0.0739186
-0.0913983,0.251394,-0.0205748,1.01525,-0.397667,-1.64972,-0.120598,0.260351,-0.0153039
-0.0912326,0.276517,-0.0537628,1.18363,-0.427631,-1.76707,-0.0660719,0.265941,0.0952948
-0.0894926,0.303993,-0.0884149,1.25312,-0.384258,-1.78743,-0.00409535,0.267716,0.194883
-0.0859345,0.332252,-0.123083,1.27433,-0.347357,-1.73724,0.0431404,0.273256,0.268238
-0.0815606,0.360065,-0.156118,1.23086,-0.340101,-1.5919,0.0880103,0.286478,0.336327
-0.0771051,0.385683,-0.186215,1.09103,-0.30008,-1.41319,0.101217,0.290407,0.401267
-0.0719694,0.407137,-0.212874,0.856139,-0.210196,-1.20609,0.107594,0.29828,0.44942
-0.0660786,0.422574,-0.235586,0.520829,-0.101295,-0.983841,0.102474,0.300704,0.477322
-0.0588817,0.429853,-0.253889,0.0917615,0.060411,-0.732455,0.0951811,0.289524,0.470181
-0.0499663,0.427776,-0.267632,-0.373422,0.286506,-0.514601,0.0755506,0.276054,0.412783
-0.0372183,0.416117,-0.277043,-0.83314,0.601796,-0.293835,0.0734326,0.259161,0.28125
-0.0212515,0.395422,-0.281544,-1.24509,0.778637,-0.0572672,0.0820491,0.233251,0.0890685
-0.00676302,0.367313,-0.280397,-1.5529,0.670292,0.202874,0.0880684,0.196191,-0.12355
0.000350413,0.334685,-0.273567,-1.69756,0.221717,0.439569,0.0766801,0.160716,-0.310109
-0.00485371,0.299789,-0.262969,-1.80036,-0.415695,0.551266,0.0571274,0.130859,-0.423259
-0.0214492,0.262935,-0.251604,-1.87454,-0.862269,0.598258,0.0691265,0.105833,-0.447021
-0.0416188,0.224863,-0.239245,-1.89792,-0.788563,0.739593,0.0867324,-0.00310184,-0.4285
-0.0570943,0.186258,-0.224202,-1.87954,-0.443584,0.938404,0.0811923,-0.102995,-0.44445
-0.0652279,0.149398,-0.205992,-1.65322,-0.0964793,1.05586,0.0500666,-0.140174,-0.519468
-0.0688806,0.119183,-0.187407,-1.2238,-0.0587904,0.956934,0.00214523,-0.11938,-0.575519
-0.0733153,0.0993969,-0.172516,-0.620343,-0.263286,0.635449,-0.0618165,-0.0909981,-0.557383
-0.0830164,0.0930128,-0.164581,0.0258446,-0.638117,0.204198,-0.0838192,-0.0747696,-0.4534
-0.0985691,0.0984085,-0.163908,0.484953,-0.870904,-0.172637,-0.0356573,-0.0698716,-0.251795
-0.115168,0.112006,-0.168786,0.802712,-0.797409,-0.435196,0.0621915,-0.0900562,-0.0690472
-0.126854,0.131232,-0.176585,0.999482,-0.435079,-0.542734,0.157485,-0.105274,0.0586154
-0.129849,0.153268,-0.184484,1.07157,0.0258174,-0.495049,0.240194,-0.100688,0.141518
-0.124052,0.175121,-0.190171,1.01276,0.443334,-0.322548,0.294907,-0.0895663,0.189388
-0.112026,0.194185,-0.191629,0.859351,0.706196,-0.0347347,0.338771,-0.0604662,0.209659
-0.0980469,0.209246,-0.187345,0.685122,0.752235,0.294093,0.332403,-0.0469163,0.197092
-0.086846,0.220126,-0.176917,0.497657,0.554529,0.626381,0.322589,-0.00825569,0.177514
-0.0830592,0.227064,-0.160415,0.336504,0.17771,0.911571,0.279214,0.0295457,0.177012
-0.0881569,0.230675,-0.13948,0.209227,-0.202577,1.07322,0.216311,0.0693026,0.205175
-0.0881569,0.230675,-0.13948,0.209227,-0.202577,1.07322,0.216311,0.0693026,0.205175
-0.0998978,0.232127,-0.116696,0.157788,-0.418038,1.11555,0.15594,0.101202,0.255818
-0.113703,0.233158,-0.0936456,0.193037,-0.408648,1.10717,0.114493,0.107729,0.311218
-0.126124,0.234884,-0.0708523,0.230415,-0.306383,1.08418,0.0982731,0.104236,0.370792
-0.135996,0.236195,-0.0484001,0.163988,-0.157773,1.07538,0.0898364,0.0945393,0.433077
-0.142801,0.234779,-0.0261356,-0.0209163,0.00569234,1.09579,0.074264,0.0678786,0.470067
-0.146134,0.228837,-0.00391391,-0.253757,0.168795,1.14034,0.0610079,0.031746,0.465381
-0.146241,0.218381,0.0188654,-0.444138,0.323386,1.2127,0.0333882,0.00748181,0.396539
-0.144138,0.205297,0.0421529,-0.505367,0.360487,1.22268,-0.0230579,-0.020126,0.258613
-0.141754,0.191648,0.0648689,-0.544548,0.327199,1.17747,-0.0814763,-0.0293871,0.140256
-0.139812,0.176918,0.0860128,-0.635219,0.24503,1.08566,-0.162043,-0.0800459,0.0306172
-0.139292,0.160038,0.105215,-0.791606,0.139478,1.04689,-0.198305,-0.13166,-0.086229
-0.139598,0.138899,0.123781,-1.05975,0.131853,1.07029,-0.227719,-0.160101,-0.206124
-0.138915,0.113132,0.141716,-1.21329,0.170765,1.05157,-0.266882,-0.190896,-0.378666
-0.137055,0.0879144,0.158533,-0.991328,0.129664,0.948097,-0.316874,-0.186399,-0.576436
-0.139291,0.0706188,0.173357,-0.513675,-0.248669,0.732738,-0.370584,-0.163845,-0.712715
-0.147676,0.0631831,0.183702,-0.123074,-0.478358,0.384688,-0.42403,-0.130981,-0.684626
-0.156492,0.0617773,0.187819,0.0197048,-0.327748,0.0514522,-0.452949,-0.159804,-0.590917
-0.160306,0.0640073,0.186238,0.216903,-0.100256,-0.225477,-0.417978,-0.16739,-0.584545
-0.162656,0.0731679,0.181115,0.626715,-0.216673,-0.428872,-0.321206,-0.107607,-0.614915
-0.168568,0.0913922,0.173096,1.02262,-0.452141,-0.664986,-0.267179,-0.0465981,-0.494881
-0.178863,0.116294,0.162049,1.22071,-0.692812,-0.850694,-0.218692,-0.0134079,-0.284197
-0.192505,0.144321,0.148539,1.27597,-0.832343,-0.984451,-0.165025,0.0224371,-0.0875904
-0.206743,0.172942,0.13303,1.21642,-0.807487,-1.08113,-0.122282,0.0450522,0.0767301
-0.217819,0.199932,0.115973,1.05996,-0.595215,-1.12252,-0.0981097,0.0560088,0.19499
-0.222948,0.223243,0.0981035,0.823521,-0.286341,-1.09344,-0.0875889,0.0619541,0.26245
-0.221009,0.241209,0.0797231,0.529584,0.0516365,-1.05436,-0.0824198,0.0800024,0.283521
-0.212559,0.253409,0.0604369,0.274664,0.303821,-1.05101,-0.0850818,0.116337,0.248202
-0.199701,0.261724,0.0399169,0.157741,0.448439,-1.0711,-0.0826711,0.166003,0.156144
-0.184409,0.269152,0.0185767,0.20232,0.494903,-1.10693,-0.0778593,0.206084,0.0721332
-0.16973,0.278346,-0.00380012,0.33253,0.342096,-1.19305,-0.0826722,0.24585,0.0414295
-0.159398,0.290392,-0.0281642,0.47597,-0.0197069,-1.32383,-0.0614683,0.291943,0.0556045
-0.15581,0.305126,-0.0551928,0.565158,-0.387861,-1.46166,-0.0277228,0.321181,0.128015
-0.156096,0.32111,-0.0843657,0.58198,-0.499579,-1.53086,0.00307631,0.311927,0.229433
-0.155277,0.337197,-0.114588,0.566236,-0.362725,-1.5507,0.0301764,0.298357,0.313863
-0.150059,0.352682,-0.144855,0.529109,-0.13308,-1.50149,0.070486,0.296832,0.361955
-0.139827,0.366723,-0.174042,0.461579,0.130752,-1.41194,0.0868765,0.284843,0.387089
-0.125351,0.378471,-0.201309,0.354355,0.312418,-1.26041,0.0963079,0.273507,0.391987
-0.109932,0.386735,-0.225387,0.198853,0.297453,-1.0567,0.103531,0.259445,0.377967
-0.0979026,0.390767,-0.245602,0.0025084,0.138419,-0.857301,0.0891877,0.243736,0.357278
-0.0897,0.389871,-0.262287,-0.25214,0.0694585,-0.676098,0.0663475,0.223529,0.339407
-0.0830073,0.382516,-0.275662,-0.599762,0.124172,-0.4979,0.0464786,0.184916,0.304951
-0.0747727,0.368008,-0.285541,-0.900511,0.35544,-0.294883,0.0212241,0.127396,0.187275
-0.0637079,0.348479,-0.290347,-1.07269,0.553034,-0.00475996,0.0462731,0.0901718,0.00568962
-0.0536769,0.325521,-0.288549,-1.22018,0.452174,0.297606,0.0659093,0.0826506,-0.144121
-0.0509837,0.29919,-0.281543,-1.39582,-0.00105942,0.483711,0.0413582,0.0621108,-0.256619
-0.0576097,0.268597,-0.272157,-1.62712,-0.338315,0.580695,0.0416126,0.0441878,-0.300227
-0.0667632,0.232828,-0.261212,-1.87989,-0.242191,0.720139,0.0692623,0.000810996,-0.328115
-0.0711534,0.192536,-0.24743,-2.03306,0.101617,0.926949,0.0883497,-0.0902368,-0.424389
-0.0697161,0.150623,-0.229653,-2.01754,0.295587,1.08708,0.0841298,-0.109834,-0.54859
-0.0675875,0.110647,-0.210727,-1.80643,0.10736,1.03947,0.0824581,-0.0727908,-0.650627
-0.0719078,0.0782585,-0.19434,-1.27452,-0.407712,0.780903,0.0670636,-0.0486219,-0.708045
-0.0858839,0.0594042,-0.184366,-0.527982,-0.866616,0.35178,0.0336861,-0.0543851,-0.641292
-0.10395,0.0560241,-0.182039,0.196007,-0.854873,-0.0862041,0.0430379,-0.0747426,-0.454728
-0.116712,0.0664862,-0.186248,0.774181,-0.402999,-0.427709,0.119623,-0.0913692,-0.259898
-0.116712,0.0664862,-0.186248,0.774181,-0.402999,-0.427709,0.119623,-0.0913692,-0.259898
-0.118358,0.087173,-0.194308,1.16297,0.167413,-0.576792,0.246952,-0.0858805,-0.112299
-0.10894,0.113734,-0.202292,1.37514,0.665354,-0.471466,0.343495,-0.0777187,0.00597531
-0.0923796,0.142286,-0.205874,1.40794,0.906618,-0.146659,0.399681,-0.0584349,0.0898148
-0.0756745,0.168692,-0.202457,1.22993,0.770543,0.267453,0.396657,-0.031295,0.18411
-0.0655566,0.189203,-0.191595,0.879017,0.415283,0.6518,0.360163,0.00374997,0.268955
-0.064522,0.201676,-0.174118,0.487539,0.0509007,0.973208,0.300109,0.0338081,0.33423
-0.0700181,0.206781,-0.151264,0.202813,-0.0898536,1.21442,0.232533,0.0615575,0.366069
-0.0764435,0.2078,-0.124768,0.12116,0.0162975,1.35821,0.162113,0.0903108,0.356504
-0.0804327,0.208491,-0.0960237,0.181519,0.173683,1.4373,0.0970844,0.124922,0.338905
-0.0819743,0.210491,-0.0662553,0.246007,0.261818,1.44585,0.0331697,0.149034,0.345998
-0.0831262,0.212795,-0.0368647,0.197336,0.224596,1.40637,-0.00531383,0.160838,0.375345
-0.0851151,0.212818,-0.00852263,0.0211976,0.178543,1.35978,-0.0486194,0.147326,0.402292
-0.0872,0.208939,0.0181461,-0.174434,0.17564,1.27844,-0.087946,0.10264,0.391344
-0.0888139,0.202127,0.0429369,-0.27971,0.17009,1.20543,-0.100517,0.0800254,0.340374
-0.0900545,0.193927,0.0659537,-0.335216,0.147354,1.11983,-0.119334,0.0469921,0.287795
-0.0922681,0.185074,0.0870916,-0.360177,0.0139554,1.03567,-0.148953,-9.36091e-05,0.227857
-0.0963598,0.175496,0.106452,-0.434071,-0.0439599,0.954293,-0.181573,-0.0450839,0.189942
-0.0994935,0.16346,0.123265,-0.613665,0.0314172,0.817734,-0.239183,-0.0859394,0.144282
-0.0989848,0.14777,0.136927,-0.824805,0.262989,0.694283,-0.28502,-0.140213,0.0344312
-0.0921367,0.127729,0.148373,-1.06644,0.578373,0.637535,-0.285239,-0.167113,-0.109216
-0.0803741,0.103912,0.158782,-1.18125,0.659982,0.593846,-0.270564,-0.201847,-0.328337
-0.0703878,0.0811936,0.168344,-0.960638,0.367337,0.521395,-0.272798,-0.194118,-0.572062
-0.0697436,0.0662804,0.176029,-0.462591,-0.265649,0.318641,-0.318588,-0.177329,-0.721189
-0.0787297,0.0616583,0.178307,-0.0152093,-0.503087,-0.0632825,-0.362846,-0.14355,-0.685259
-0.086078,0.0640929,0.174435,0.183739,-0.203322,-0.314655,-0.343831,-0.177635,-0.573543
-0.0860761,0.0692679,0.167647,0.267418,0.129967,-0.372986,-0.2759,-0.220811,-0.55141
-0.0827604,0.0762043,0.161332,0.389204,0.103241,-0.325892,-0.154696,-0.155116,-0.600645
-0.0832385,0.0868121,0.155506,0.629192,-0.236869,-0.354889,-0.129207,-0.0702183,-0.601072
-0.0922556,0.102118,0.148638,0.82825,-0.737325,-0.480277,-0.140975,0.00709224,-0.47317
-0.110274,0.121076,0.138987,0.957947,-1.13833,-0.669435,-0.136757,0.0567851,-0.277373
-0.132625,0.142507,0.12647,1.01045,-1.20614,-0.822498,-0.11088,0.0892301,-0.0787663
-0.151715,0.164709,0.111649,0.967588,-0.896513,-0.943469,-0.102758,0.0913178,0.0734932
-0.161853,0.185655,0.0951925,0.839383,-0.39632,-0.989095,-0.0923387,0.104879,0.154358
-0.161797,0.203539,0.0773605,0.644976,0.0242494,-1.03812,-0.0895174,0.132282,0.167616
-0.155127,0.218059,0.0573249,0.502511,0.184119,-1.12832,-0.0637228,0.188687,0.109142
-0.14691,0.231121,0.0355934,0.489962,0.129477,-1.16289,-0.0170256,0.226048,0.0297887
-0.140912,0.244507,0.0136107,0.538688,-0.0709325,-1.15706,0.0104292,0.244581,-0.0071488
-0.139354,0.259131,-0.00869527,0.619713,-0.332966,-1.21302,0.0178716,0.276627,0.0111824
-0.142081,0.275961,-0.0328279,0.727791,-0.56433,-1.35095,0.0334777,0.318996,0.0708462
-0.147107,0.295356,-0.0598273,0.825523,-0.672754,-1.49375,0.0589162,0.340213,0.160126
-0.151658,0.316963,-0.0889894,0.898941,-0.649025,-1.57767,0.102612,0.339499,0.253184
-0.154255,0.339874,-0.119108,0.929522,-0.58051,-1.58826,0.146869,0.335566,0.331596
-0.154945,0.362575,-0.148955,0.871095,-0.524526,-1.52848,0.186742,0.326607,0.397556
-0.154388,0.382733,-0.177381,0.69651,-0.440162,-1.39674,0.208155,0.292296,0.458545
-0.151599,0.397546,-0.2032,0.387138,-0.256863,-1.19212,0.225453,0.253871,0.502031
-0.146203,0.404705,-0.225698,0.0154642,-0.0721022,-0.968305,0.216403,0.204004,0.499256
-0.138257,0.403952,-0.24491,-0.332418,0.0857182,-0.784118,0.182572,0.160816,0.42867
-0.129745,0.3967,-0.262289,-0.585728,0.0761392,-0.736986,0.146631,0.148126,0.3097
-0.121331,0.38567,-0.280194,-0.700387,0.113142,-0.765568,0.129005,0.133428,0.190685
-0.110681,0.373302,-0.297773,-0.711448,0.304151,-0.697562,0.140842,0.0829691,0.083176
-0.0972744,0.360331,-0.312227,-0.743916,0.514684,-0.499409,0.162982,0.0150447,-0.00295472
-0.0828855,0.34437,-0.321244,-0.958305,0.587998,-0.188675,0.172901,-0.0414249,-0.0551987
-0.0716014,0.322179,-0.323207,-1.27376,0.436868,0.173891,0.163135,-0.0955669,-0.127094
-0.0686787,0.29349,-0.318174,-1.55106,-0.0233396,0.490533,0.115663,-0.144314,-0.243778
-0.0686787,0.29349,-0.318174,-1.55106,-0.0233396,0.490533,0.115663,-0.144314,-0.243778
-0.0762837,0.260251,-0.308315,-1.66175,-0.412273,0.679526,0.0898787,-0.127229,-0.346238
-0.0873251,0.22702,-0.295226,-1.55068,-0.289889,0.880423,0.0722963,-0.161109,-0.424574
-0.091397,0.195541,-0.277862,-1.44157,0.279116,1.08734,0.0330424,-0.216057,-0.473423
-0.0845695,0.166923,-0.257342,-1.204,0.689119,1.15698,-0.0247224,-0.197132,-0.586149
-0.074353,0.145915,-0.236482,-0.680112,0.603224,1.03397,-0.0588597,-0.109104,-0.689126
-0.0691307,0.138636,-0.219171,0.0833057,0.120894,0.70563,-0.0854873,-0.0406253,-0.696973
-0.0738949,0.146114,-0.208361,0.682974,-0.418248,0.325984,-0.0562772,0.0158792,-0.53336
-0.085506,0.162254,-0.202943,0.932524,-0.601505,0.111965,0.00716218,0.00372159,-0.273637
-0.0973653,0.181485,-0.199366,1.00065,-0.490672,0.0779976,0.0994755,-0.0173704,-0.0774324
-0.105661,0.201195,-0.195351,1.00245,-0.26218,0.124022,0.180516,-0.000263751,0.0480641
-0.110224,0.2206,-0.189645,0.989431,-0.0947668,0.22921,0.223897,0.0333135,0.132809
-0.113507,0.239405,-0.181388,0.971229,-0.0717782,0.364777,0.240191,0.0613741,0.203646
-0.118643,0.256998,-0.170045,0.896924,-0.177532,0.526662,0.24317,0.0897648,0.284013
-0.12771,0.27176,-0.155607,0.73281,-0.360851,0.673875,0.229852,0.111719,0.369869
-0.141086,0.282321,-0.138783,0.533737,-0.502778,0.787033,0.215282,0.124442,0.44504
-0.15654,0.288399,-0.120449,0.338093,-0.51039,0.861807,0.19707,0.123636,0.499255
-0.171088,0.290351,-0.100931,0.168553,-0.376275,0.959703,0.182751,0.114261,0.523516
-0.182506,0.288238,-0.0798535,-0.022225,-0.145803,1.07491,0.157024,0.100089,0.538603
-0.188769,0.281893,-0.0577552,-0.199173,0.14356,1.1219,0.110679,0.0791847,0.51349
-0.189227,0.272717,-0.0359277,-0.29601,0.401226,1.11383,0.0679431,0.0790263,0.442099
-0.185418,0.262619,-0.0150176,-0.313638,0.503247,1.05533,0.0281336,0.0709053,0.34624
-0.180418,0.252366,0.00437866,-0.372486,0.478749,0.980611,-0.0152233,0.0551614,0.28
-0.176173,0.240343,0.021741,-0.525381,0.372325,0.900844,-0.0479297,0.0177141,0.221787
-0.173461,0.225349,0.0373681,-0.679637,0.261587,0.873058,-0.0688164,-0.0363645,0.131247
-0.1728,0.208091,0.0522704,-0.768455,0.115893,0.858532,-0.110424,-0.089291,0.0128822
-0.174824,0.189346,0.0663244,-0.856124,-0.0246297,0.827861,-0.150417,-0.113404,-0.0878507
-0.177664,0.168283,0.0791514,-1.01156,-0.00631439,0.792549,-0.162603,-0.142218,-0.181927
-0.178359,0.144339,0.0911182,-1.1111,0.136043,0.791028,-0.173292,-0.176306,-0.3196
-0.175793,0.121121,0.102416,-0.939067,0.230107,0.713448,-0.209373,-0.176172,-0.501385
-0.173158,0.103757,0.112477,-0.602182,0.144892,0.562425,-0.239033,-0.156744,-0.626484
-0.171128,0.0931551,0.119795,-0.339334,0.163068,0.335891,-0.267105,-0.136136,-0.646488
-0.166901,0.0876668,0.123518,-0.142426,0.285104,0.138435,-0.275306,-0.151825,-0.644697
-0.161849,0.0871764,0.124446,0.127198,0.202837,-0.0442848,-0.241752,-0.127259,-0.650743
-0.159684,0.0941044,0.122553,0.537137,-0.0079059,-0.259504,-0.211753,-0.0772075,-0.599549
-0.160714,0.109367,0.117509,0.863011,-0.130758,-0.477129,-0.189444,-0.0472996,-0.410142
-0.163374,0.129911,0.10949,1.02536,-0.246383,-0.637247,-0.15841,-0.0402995,-0.182092
-0.168548,0.153073,0.0993021,1.08659,-0.418801,-0.731968,-0.109738,-0.0156762,0.0128003
-0.17612,0.1765,0.088046,1.00361,-0.509824,-0.758996,-0.08395,-0.00631525,0.187009
-0.183315,0.196292,0.0762456,0.711131,-0.400521,-0.735353,-0.0789928,-0.0166667,0.331245
-0.185718,0.208888,0.063916,0.30123,-0.0556255,-0.68761,-0.0987048,-0.0377908,0.393035
-0.178736,0.213437,0.0512049,-0.0594107,0.499398,-0.629786,-0.136841,-0.0445428,0.351891
-0.161997,0.212444,0.0380439,-0.229568,0.855489,-0.63001,-0.156165,-0.00126258,0.206358
-0.141226,0.209826,0.0243413,-0.210841,0.899962,-0.655134,-0.161586,0.0526047,0.0311348
-0.120886,0.208857,0.00989576,-0.0475558,0.820458,-0.760226,-0.196681,0.0993093,-0.0854807
-0.103186,0.212603,-0.0075322,0.254252,0.56325,-0.997931,-0.260308,0.140189,-0.169423
-0.091044,0.223956,-0.030324,0.670246,0.132931,-1.33851,-0.26644,0.208508,-0.194768
-0.0863844,0.243205,-0.0595395,0.972727,-0.310575,-1.65071,-0.208941,0.258133,-0.0968295
-0.0863111,0.267103,-0.0935312,1.11237,-0.513157,-1.81384,-0.142668,0.239418,0.0640985
-0.0870259,0.29288,-0.129194,1.15212,-0.530302,-1.81821,-0.0688694,0.225295,0.198956
-0.0865599,0.318391,-0.164427,1.08188,-0.484119,-1.75965,-0.0170906,0.223943,0.308688
-0.0843168,0.341246,-0.198334,0.90816,-0.384506,-1.64044,0.0179442,0.220495,0.393031
-0.0789339,0.359731,-0.230166,0.685834,-0.164499,-1.50222,0.0334147,0.213442,0.439623
-0.0693074,0.373189,-0.259201,0.454471,0.096784,-1.31047,0.0467393,0.198724,0.445307
-0.0560586,0.381608,-0.28413,0.24837,0.294226,-1.05991,0.0479858,0.169562,0.404164
-0.0560586,0.381608,-0.28413,0.24837,0.294226,-1.05991,0.0479858,0.169562,0.404164
-0.0420695,0.385815,-0.304185,0.0831109,0.341257,-0.833306,0.037104,0.162554,0.334104
-0.029501,0.386604,-0.319959,-0.0473794,0.322677,-0.640182,0.023917,0.169419,0.260814
-0.0184796,0.384868,-0.331726,-0.158975,0.345292,-0.447942,-0.0118191,0.157801,0.173272
-0.00920965,0.380156,-0.338994,-0.339784,0.284955,-0.210931,-0.0140005,0.133745,0.095926
-0.00461412,0.370366,-0.340492,-0.674324,0.125327,0.0758711,-0.0160998,0.104601,0.0350142
-0.00547372,0.352368,-0.335904,-1.13448,-0.0554327,0.366932,-0.0197497,0.0690745,-0.0419858
-0.0125429,0.3254,-0.325312,-1.55101,-0.313884,0.651869,-0.0259422,0.0135351,-0.174347
-0.0258405,0.291144,-0.310301,-1.8254,-0.551916,0.831005,-0.0225062,0.00883472,-0.312255
-0.0429055,0.253628,-0.293127,-1.84957,-0.669633,0.960159,-0.0108938,-0.017561,-0.448257
-0.0602395,0.216633,-0.274133,-1.75888,-0.589348,1.07058,-0.00884628,-0.072533,-0.531202
-0.0740063,0.181385,-0.254327,-1.62699,-0.403016,1.09928,-0.00921389,-0.0989814,-0.583581
-0.0845909,0.149827,-0.234972,-1.35026,-0.369242,1.04497,0.00847028,-0.0807894,-0.646865
-0.096314,0.125434,-0.218065,-0.916703,-0.615193,0.807608,-0.00818229,-0.0307937,-0.665928
-0.114121,0.110843,-0.207605,-0.426497,-1.04318,0.353191,-0.0446314,0.00424732,-0.595136
-0.137289,0.107462,-0.206356,0.10997,-1.20248,-0.176016,-0.0173888,0.0174117,-0.452501
-0.158358,0.116067,-0.213086,0.63303,-0.909347,-0.594448,0.0913435,0.0229567,-0.284598
-0.169433,0.135412,-0.224966,1.06717,-0.337858,-0.859774,0.21249,0.0144393,-0.142621
-0.168964,0.162371,-0.238608,1.3389,0.152163,-0.895829,0.330958,0.0267098,-0.0201416
-0.161427,0.192546,-0.250228,1.42922,0.350585,-0.701905,0.419811,0.0462622,0.0855808
-0.153019,0.221855,-0.25702,1.34083,0.326551,-0.410871,0.44338,0.0575032,0.188687
-0.148229,0.247061,-0.258111,1.12134,0.112218,-0.0645215,0.428358,0.0639068,0.288241
-0.149074,0.266063,-0.253014,0.834258,-0.0514227,0.268958,0.383988,0.0654863,0.372433
-0.153716,0.278826,-0.242226,0.600596,-0.0958922,0.563731,0.32748,0.0723771,0.423173
-0.159191,0.286875,-0.226444,0.448657,-0.011038,0.801065,0.268436,0.087537,0.439666
-0.164343,0.292017,-0.206857,0.370588,0.0531607,0.963358,0.210374,0.119336,0.441801
-0.169246,0.295401,-0.18475,0.312664,0.0802232,1.07197,0.160029,0.140062,0.441338
-0.174978,0.296749,-0.160926,0.195801,0.0417142,1.15499,0.111332,0.14541,0.445932
-0.181636,0.294522,-0.136489,-0.00673149,0.0168691,1.1981,0.0715269,0.124526,0.45043
-0.187551,0.287596,-0.111832,-0.238584,0.121357,1.25727,0.0492173,0.0875267,0.432881
-0.190161,0.276387,-0.0869967,-0.391653,0.319378,1.30302,0.0146529,0.0527579,0.3633
-0.189005,0.26347,-0.0617906,-0.394549,0.438669,1.32357,-0.00439265,0.0304976,0.238704
-0.187487,0.25177,-0.0366769,-0.303975,0.33257,1.2753,-0.055219,0.0236854,0.123422
-0.188474,0.241576,-0.0132646,-0.291265,0.130179,1.14101,-0.122875,0.0137849,0.0654162
-0.192599,0.230899,0.0065638,-0.413161,-0.0633302,0.961104,-0.179285,-0.036345,0.0282615
-0.199044,0.216593,0.0226507,-0.708387,-0.201036,0.897462,-0.195788,-0.106996,-0.016326
-0.205424,0.195913,0.0374732,-1.0151,-0.0969374,0.955968,-0.206383,-0.186227,-0.106098
-0.208668,0.170482,0.0527272,-1.13588,0.0243945,1.03717,-0.23008,-0.233785,-0.262605
-0.210348,0.144412,0.0685748,-1.07752,0.0506745,1.01952,-0.271553,-0.232371,-0.422618
-0.210576,0.120845,0.0829972,-0.924013,0.144959,0.862472,-0.342031,-0.213815,-0.534501
-0.206367,0.101713,0.0940815,-0.715649,0.417939,0.593412,-0.42358,-0.209116,-0.624223
-0.196496,0.0889202,0.0999812,-0.412054,0.59355,0.248763,-0.454234,-0.166888,-0.708055
-0.185818,0.0845497,0.100847,0.0128673,0.417625,-0.0867854,-0.419456,-0.118264,-0.762974
-0.181212,0.0906173,0.0962718,0.508776,-0.0226822,-0.478804,-0.349448,-0.0443638,-0.716165
-0.185962,0.107758,0.0860045,0.960451,-0.533776,-0.824944,-0.261524,0.00269121,-0.548912
-0.19778,0.132677,0.071969,1.19205,-0.773734,-0.999631,-0.185483,0.00506015,-0.282888
-0.211189,0.160746,0.056448,1.22289,-0.772945,-1.07774,-0.126103,0.0108844,-0.0388971
-0.222012,0.187959,0.0396443,1.0604,-0.587752,-1.12806,-0.0881741,0.0239211,0.147516
-0.22726,0.211163,0.0217147,0.806756,-0.288883,-1.09893,-0.058184,0.0293912,0.25712
-0.225731,0.228735,0.0040567,0.519812,0.0422602,-0.978695,-0.0293102,0.0287631,0.288204
-0.218871,0.239996,-0.0121643,0.239983,0.24957,-0.821108,-0.0267204,0.0490541,0.26886
-0.209599,0.245822,-0.0271836,0.036567,0.29677,-0.751689,-0.0575871,0.0931464,0.200663
-0.20014,0.248714,-0.0425555,-0.0343083,0.269886,-0.790858,-0.0994248,0.152194,0.13514
-0.190913,0.251984,-0.0596098,0.0559852,0.21712,-0.918911,-0.135879,0.196423,0.0831645
-0.182601,0.258745,-0.0797073,0.260657,0.10233,-1.1431,-0.144739,0.246239,0.0730003
-0.182601,0.258745,-0.0797073,0.260657,0.10233,-1.1431,-0.144739,0.246239,0.0730003
-0.175902,0.270626,-0.104423,0.48298,-0.0726137,-1.42513,-0.130156,0.286545,0.108723
-0.170276,0.287093,-0.133947,0.641211,-0.14825,-1.64809,-0.094577,0.294076,0.188564
-0.163386,0.306402,-0.166767,0.73541,-0.113286,-1.7649,-0.0472779,0.282267,0.273003
-0.154281,0.326683,-0.201124,0.743529,-0.0392181,-1.78197,0.00711487,0.27708,0.34727
-0.142904,0.345933,-0.235574,0.670486,0.0463791,-1.71912,0.0440303,0.261255,0.397112
-0.129388,0.362391,-0.268866,0.530156,0.164675,-1.60024,0.0597188,0.237491,0.427358
-0.114364,0.374905,-0.299686,0.359943,0.216345,-1.40744,0.0752283,0.217625,0.429697
-0.10034,0.383008,-0.326805,0.173181,0.177628,-1.19834,0.0691404,0.18728,0.405317
-0.0885551,0.386143,-0.35,-0.0786361,0.144822,-0.975746,0.0464203,0.161515,0.370981
-0.0783104,0.382747,-0.368876,-0.420725,0.179737,-0.73839,0.0353231,0.125301,0.301325
-0.0683366,0.372164,-0.382657,-0.720571,0.348117,-0.446558,0.0351817,0.0638583,0.147386
-0.0563366,0.35631,-0.389244,-0.886386,0.597344,-0.055107,0.0469108,0.026721,-0.0453299
-0.0456258,0.337474,-0.387038,-0.99223,0.467541,0.346611,0.0347518,0.0146068,-0.217056
-0.0439786,0.315835,-0.377765,-1.15039,-0.0258477,0.610234,0.0205801,0.0326871,-0.329908
-0.0531554,0.28987,-0.364615,-1.40777,-0.449445,0.760128,0.042674,0.0842589,-0.346646
-0.0668888,0.258024,-0.349539,-1.67989,-0.437604,0.893025,0.0457206,0.0167061,-0.352496
-0.076142,0.222177,-0.332205,-1.73596,-0.0756454,1.04392,0.0426283,-0.0452562,-0.434892
-0.0795232,0.187869,-0.313155,-1.51275,0.0741326,1.05012,0.0172811,-0.0477011,-0.54751
-0.0828223,0.159746,-0.295338,-1.1425,-0.155778,0.900498,-0.00229476,-0.00853488,-0.594135
-0.0931985,0.139902,-0.282453,-0.721022,-0.723331,0.516894,-0.0192959,0.00825112,-0.555633
-0.113556,0.129483,-0.277822,-0.276047,-1.18534,0.0502085,0.00806967,0.0215313,-0.421328
-0.136767,0.128794,-0.281053,0.159275,-1.10067,-0.345622,0.0622745,0.00247653,-0.231059
-0.152669,0.137109,-0.289923,0.524297,-0.564531,-0.635474,0.14041,-0.0196156,-0.0789512
-0.155292,0.152229,-0.302453,0.756961,0.117559,-0.805887,0.227923,-0.0329742,0.0217529
-0.145606,0.170496,-0.316122,0.83147,0.569054,-0.766366,0.332533,-0.0362314,0.0713096
-0.130791,0.188569,-0.32632,0.812191,0.708221,-0.458326,0.432932,-0.0315557,0.0916969
-0.116067,0.204498,-0.32972,0.720654,0.676879,-0.0602695,0.46102,-0.0150794,0.123423
-0.105162,0.216917,-0.325212,0.553824,0.500589,0.356776,0.408737,-0.00159241,0.173411
-0.100116,0.224437,-0.313543,0.307875,0.257256,0.68449,0.318267,0.0227588,0.222189
-0.100905,0.226756,-0.296985,0.104935,0.05385,0.885428,0.2364,0.0581158,0.251717
-0.104767,0.226204,-0.277577,0.0623459,0.0223827,1.00071,0.169615,0.0808932,0.250691
-0.108487,0.22601,-0.256206,0.1492,0.0897682,1.07388,0.112845,0.0955509,0.255719
-0.111299,0.227244,-0.233447,0.206659,0.122307,1.11698,0.0718822,0.106199,0.291795
-0.114337,0.228498,-0.210135,0.155202,0.0896847,1.1307,0.0444873,0.1107,0.345563
-0.118265,0.22745,-0.186769,-0.0111837,0.0527436,1.14175,0.0262823,0.102996,0.395479
-0.122274,0.22251,-0.163878,-0.210294,0.067244,1.13927,0.011678,0.0724541,0.409196
-0.125238,0.213831,-0.141318,-0.379011,0.132824,1.16468,0.0207786,0.0530711,0.38429
-0.126399,0.201843,-0.118949,-0.532574,0.214867,1.15529,0.000822589,0.030569,0.338185
-0.125624,0.187358,-0.0974201,-0.626143,0.273578,1.12815,-0.0316841,-0.00990354,0.254161
-0.123821,0.172174,-0.0765841,-0.622977,0.24982,1.1104,-0.0678051,-0.0493479,0.140132
-0.124275,0.156916,-0.0555604,-0.653754,0.0445395,1.1522,-0.0763136,-0.101539,0.0435272
-0.12824,0.139922,-0.0335974,-0.776549,-0.100461,1.22849,-0.0849393,-0.148071,-0.026022
-0.133611,0.119684,-0.0108199,-0.944105,-0.103223,1.28126,-0.136065,-0.182039,-0.108837
-0.136417,0.0961485,0.0117194,-1.07167,0.0823694,1.2367,-0.202479,-0.196556,-0.224682
-0.133694,0.0723506,0.0313566,-0.981885,0.356989,1.00351,-0.288699,-0.192315,-0.399685
-0.126963,0.0545384,0.0458104,-0.558141,0.315107,0.664221,-0.33693,-0.182686,-0.601443
-0.125807,0.0477018,0.0550354,-0.025315,-0.183087,0.346724,-0.325397,-0.174072,-0.698912
-0.133846,0.0498783,0.0596046,0.219521,-0.517788,0.0992977,-0.313603,-0.190117,-0.606002
-0.143001,0.0532557,0.0610773,0.102979,-0.307078,0.0215029,-0.288352,-0.246818,-0.45735
-0.144325,0.0545148,0.0611394,0.0787786,0.144374,-0.0267008,-0.277623,-0.267305,-0.47845
-0.139966,0.059078,0.0605462,0.40633,0.214233,-0.125744,-0.237626,-0.167488,-0.596254
-0.137684,0.0727317,0.0572714,0.924497,-0.063859,-0.405802,-0.240662,-0.0471444,-0.576749
-0.143621,0.0971927,0.0492474,1.34979,-0.588121,-0.712376,-0.188404,0.0294738,-0.406934
-0.143621,0.0971927,0.0492474,1.34979,-0.588121,-0.712376,-0.188404,0.0294738,-0.406934
-0.157362,0.127677,0.0377994,1.45163,-0.876252,-0.845377,-0.125064,0.0525169,-0.128595
-0.17347,0.157704,0.0252515,1.27479,-0.876087,-0.871889,-0.0835841,0.0337295,0.0989129
-0.186334,0.182623,0.0124033,0.949882,-0.589644,-0.807537,-0.061598,0.0222926,0.223749
-0.191034,0.200676,0.000339043,0.613932,-0.0989722,-0.694009,-0.064516,0.0237794,0.24212
-0.186341,0.212711,-0.0108634,0.383243,0.292444,-0.637286,-0.0763569,0.0578205,0.168244
-0.176813,0.221129,-0.0226469,0.249,0.361461,-0.654585,-0.0574849,0.145403,0.052587
-0.16814,0.228155,-0.0353313,0.253511,0.19858,-0.685568,-0.0529304,0.17723,-0.0551848
-0.163858,0.236686,-0.0487681,0.39058,-0.0857442,-0.746486,-0.0502084,0.199372,-0.115562
-0.165327,0.249026,-0.063293,0.609035,-0.405882,-0.858728,-0.0362565,0.241684,-0.107966
-0.171667,0.266358,-0.0800045,0.833187,-0.631397,-1.03356,-0.0223175,0.280584,-0.0378782
-0.179508,0.288648,-0.0994866,1.03724,-0.663214,-1.19935,0.0118729,0.306339,0.068516
-0.185511,0.315098,-0.12109,1.17976,-0.569364,-1.30787,0.0618273,0.322315,0.182393
-0.188419,0.343682,-0.143723,1.22353,-0.459061,-1.32226,0.121711,0.334804,0.281974
-0.189041,0.372127,-0.165878,1.17328,-0.388379,-1.24866,0.168967,0.332561,0.356183
-0.188465,0.398136,-0.186545,1.01546,-0.339616,-1.1189,0.198195,0.324285,0.417136
-0.18784,0.41967,-0.204723,0.782006,-0.32054,-0.925082,0.222123,0.308078,0.461735
-0.187509,0.435147,-0.219805,0.482508,-0.251466,-0.726884,0.214236,0.271352,0.487501
-0.18566,0.444076,-0.232048,0.196481,-0.0713527,-0.528457,0.196018,0.226896,0.471657
-0.180733,0.446918,-0.240917,-0.0614195,0.201233,-0.317802,0.166262,0.189222,0.419536
-0.170869,0.444345,-0.246636,-0.277973,0.532948,-0.152621,0.131966,0.153606,0.332066
-0.156034,0.437313,-0.250056,-0.467209,0.800917,-0.0482101,0.0879513,0.132323,0.227575
-0.138411,0.426058,-0.251888,-0.689876,0.830293,0.0477005,0.0505011,0.0995334,0.128105
-0.123993,0.409041,-0.252363,-1.02988,0.559434,0.128845,0.0201347,0.059885,0.0468264
-0.117402,0.38455,-0.252044,-1.40133,0.100968,0.192315,0.00590201,-0.00641933,-0.039283
-0.120597,0.352846,-0.250422,-1.7383,-0.311976,0.367158,0.0262538,-0.111507,-0.14731
-0.12784,0.314303,-0.244304,-2.00752,-0.120792,0.722302,0.132386,-0.141514,-0.267534
-0.128237,0.270154,-0.229907,-2.19727,0.556392,1.21413,0.115237,-0.212734,-0.402277
-0.115619,0.22289,-0.207964,-2.20411,1.14668,1.42623,-0.00217696,-0.198659,-0.592162
-0.0975704,0.179127,-0.184168,-1.84367,1.03283,1.312,-0.0753162,-0.0756898,-0.815236
-0.0863556,0.147573,-0.165064,-1.09013,0.332858,0.815529,-0.142427,0.0179941,-0.933683
-0.0897648,0.133909,-0.15616,-0.203191,-0.525219,0.177209,-0.159175,0.0435279,-0.848819
-0.104964,0.137726,-0.157725,0.52946,-0.910733,-0.334037,-0.103542,0.0362926,-0.587202
-0.120867,0.154414,-0.165782,1.00368,-0.755852,-0.613801,0.0202617,0.00701155,-0.297946
-0.131028,0.178626,-0.176237,1.24185,-0.42538,-0.685416,0.12952,-0.00146045,-0.0663084
-0.134208,0.205796,-0.18582,1.31545,-0.0767565,-0.594775,0.202134,0.021989,0.105243
-0.131222,0.232996,-0.192987,1.27658,0.196378,-0.460439,0.218772,0.046247,0.232513
-0.125247,0.257849,-0.197603,1.12532,0.252872,-0.299155,0.226518,0.0773428,0.32338
-0.120732,0.278447,-0.199125,0.897082,0.141464,-0.0944489,0.22426,0.0870574,0.391008
-0.120474,0.293314,-0.196683,0.605435,-0.0542313,0.148035,0.219176,0.0853757,0.446721
-0.12489,0.301671,-0.189836,0.31251,-0.152995,0.40054,0.208723,0.0912144,0.492296
-0.130785,0.30416,-0.178649,0.0813482,-0.0899927,0.624328,0.174277,0.0873642,0.507489
-0.136035,0.302133,-0.163634,-0.0867268,0.0130078,0.823997,0.141741,0.0961722,0.504432
-0.140194,0.296511,-0.145456,-0.233578,0.101785,0.967103,0.0934919,0.105006,0.490069
-0.143131,0.287506,-0.125869,-0.39499,0.168607,1.00627,0.0226215,0.107627,0.465033
-0.144513,0.275514,-0.107153,-0.53168,0.215385,0.945553,-0.0192426,0.106758,0.411804
-0.143874,0.261369,-0.090291,-0.628947,0.305645,0.874097,-0.0372274,0.0712088,0.333558
-0.140637,0.246325,-0.074888,-0.642894,0.401585,0.824893,-0.0559516,0.00972587,0.219441
-0.136348,0.232,-0.060019,-0.576789,0.347547,0.811902,-0.0397438,-0.0214792,0.0959206
-0.134282,0.2189,-0.0454701,-0.549589,0.182513,0.757213,-0.0902781,-0.0637738,0.021152
-0.134374,0.205749,-0.0331174,-0.595613,0.0804837,0.612511,-0.146886,-0.100326,-0.0269254
-0.135233,0.19176,-0.0238273,-0.679513,0.0307923,0.492413,-0.152211,-0.144358,-0.0910284
-0.136178,0.175488,-0.0167766,-0.861089,0.00741792,0.426689,-0.151835,-0.196078,-0.154204
-0.136858,0.15536,-0.010996,-1.03594,0.0281839,0.41478,-0.144356,-0.247867,-0.263134
-0.136658,0.134174,-0.00593877,-0.946094,0.0479318,0.368108,-0.151704,-0.271578,-0.428033
-0.136658,0.134174,-0.00593877,-0.946094,0.0479318,0.368108,-0.151704,-0.271578,-0.428033
-0.13818,0.117593,-0.00122575,-0.628696,-0.18535,0.319963,-0.160178,-0.265322,-0.560912
-0.145298,0.106826,0.00291835,-0.423941,-0.451226,0.232694,-0.18256,-0.24761,-0.563663
-0.154692,0.0978643,0.00549571,-0.450618,-0.400776,0.161233,-0.199353,-0.256174,-0.494147
-0.159927,0.0890305,0.00653065,-0.368459,-0.0850892,0.0687546,-0.237411,-0.271622,-0.52012
-0.158687,0.0849805,0.00572507,-0.0134463,0.146018,-0.0915868,-0.251438,-0.201316,-0.59912
-0.157052,0.0898858,0.00216281,0.449236,-0.0668405,-0.351935,-0.230653,-0.089175,-0.593657
-0.161408,0.104891,-0.00565996,0.886597,-0.464052,-0.657089,-0.190288,-0.010002,-0.459569
-0.173035,0.127431,-0.0172919,1.11469,-0.807877,-0.835152,-0.139358,0.0147057,-0.227816
-0.188852,0.153105,-0.0304335,1.1597,-0.928895,-0.898481,-0.0813251,0.0311695,-0.00928032
-0.204498,0.178231,-0.0439813,1.02538,-0.815154,-0.895925,-0.0478217,0.0406767,0.168089
-0.214825,0.199337,-0.0573815,0.753676,-0.447337,-0.830435,-0.0510546,0.0391299,0.27946
-0.216192,0.214079,-0.070365,0.415254,0.0504392,-0.730684,-0.0708876,0.0495603,0.31496
-0.20834,0.221877,-0.0834247,0.0952831,0.409037,-0.702465,-0.0951399,0.0860586,0.28273
-0.195526,0.224493,-0.097878,-0.0949363,0.530986,-0.742179,-0.109909,0.145356,0.18773
-0.181368,0.225165,-0.113998,-0.107891,0.510374,-0.824997,-0.124242,0.182206,0.0880417
-0.167986,0.227489,-0.132033,0.0545968,0.400529,-0.962476,-0.143889,0.196983,0.0216334
-0.157263,0.234649,-0.15258,0.336176,0.189371,-1.13352,-0.130071,0.23093,0.00812501
-0.150659,0.247592,-0.175898,0.587413,-0.0767792,-1.29432,-0.096873,0.254759,0.0592008
-0.147311,0.26444,-0.200943,0.697577,-0.197981,-1.34402,-0.0602883,0.238633,0.179257
-0.144709,0.281944,-0.226153,0.667196,-0.213065,-1.30783,-0.0197385,0.211557,0.284889
-0.141569,0.297966,-0.250397,0.578211,-0.15709,-1.22633,0.00850604,0.19296,0.352622
-0.136789,0.311352,-0.273268,0.440075,-0.0470792,-1.12627,0.0219881,0.17953,0.395192
-0.129707,0.321429,-0.29465,0.286972,0.106751,-1.03169,0.0185017,0.165089,0.414372
-0.119745,0.328399,-0.314566,0.177176,0.253004,-0.931289,0.0208819,0.161136,0.388375
-0.108146,0.333209,-0.332612,0.110089,0.309122,-0.822641,0.0265285,0.163762,0.339105
-0.0973409,0.33644,-0.348338,0.0537799,0.244122,-0.691684,0.0239132,0.15627,0.285842
-0.0890045,0.337914,-0.361605,-0.0298356,0.163734,-0.575544,0.00744428,0.142158,0.23575
-0.0818808,0.336841,-0.372707,-0.183238,0.207088,-0.455863,-0.0103619,0.131044,0.190123
-0.0733428,0.33154,-0.381436,-0.414543,0.36369,-0.327687,-0.0299413,0.0941305,0.114768
-0.0632626,0.321361,-0.387043,-0.642202,0.450064,-0.111324,0.0139024,0.061235,-0.0229708
-0.0543803,0.306088,-0.386681,-0.892814,0.426728,0.248433,0.0460898,0.0268556,-0.157494
-0.0505156,0.284952,-0.379127,-1.19928,0.140545,0.56725,0.0332297,-0.0143908,-0.283263
-0.0548048,0.257123,-0.366497,-1.51892,-0.202343,0.779488,0.0464153,0.00426823,-0.382791
-0.063606,0.223835,-0.351121,-1.69272,-0.254046,0.898427,0.0257684,-0.0100084,-0.468172
-0.0701018,0.189206,-0.334455,-1.6273,-0.0372105,0.966672,0.00586706,-0.0488897,-0.566004
-0.0722667,0.157783,-0.316742,-1.36201,0.114502,0.989955,-0.000302561,-0.0487272,-0.643448
-0.0723462,0.134014,-0.299867,-0.85884,0.0766826,0.818383,-0.0346425,-0.0252459,-0.677498
-0.0756524,0.122139,-0.287594,-0.232072,-0.293675,0.461461,-0.0615947,0.00881336,-0.632985
-0.0868291,0.12281,-0.282628,0.303086,-0.744183,0.0255727,-0.0527729,0.0400427,-0.469721
-0.103516,0.132234,-0.284653,0.589386,-0.895253,-0.300236,0.0105711,0.0296452,-0.238112
-0.118698,0.146388,-0.291303,0.734634,-0.671509,-0.498046,0.11465,0.0127332,-0.0623649
-0.126315,0.163186,-0.300216,0.821692,-0.216035,-0.561316,0.209984,-0.00120272,0.0422689
-0.124973,0.181337,-0.308502,0.87767,0.171354,-0.453131,0.295487,0.00514346,0.101146
-0.119094,0.199816,-0.313266,0.896331,0.285858,-0.234711,0.337839,0.0170013,0.143433
-0.114079,0.217757,-0.313745,0.881938,0.187821,-0.0223319,0.32144,0.0293181,0.199118
-0.112534,0.234746,-0.310233,0.845572,0.0489607,0.163535,0.281458,0.0416323,0.26763
-0.11431,0.250303,-0.303233,0.771203,-0.0599978,0.344407,0.247668,0.0549488,0.344976
-0.119116,0.263233,-0.292389,0.629067,-0.135924,0.553828,0.231059,0.060863,0.415758
-0.126018,0.272311,-0.277463,0.445512,-0.150075,0.77032,0.209036,0.0637573,0.467767
-0.133726,0.276722,-0.258724,0.221959,-0.0897426,0.973173,0.162664,0.0674691,0.503203
-0.140129,0.275889,-0.236824,-0.010332,0.0370155,1.11328,0.108617,0.067843,0.505776
-0.144989,0.270462,-0.213763,-0.212793,0.0917463,1.16034,0.0683978,0.078624,0.476211
-0.148515,0.261148,-0.191082,-0.381573,0.161406,1.14278,0.0454644,0.0788079,0.423553
-0.149542,0.24913,-0.169426,-0.487551,0.295609,1.11703,0.0146254,0.0480131,0.333815
-0.149542,0.24913,-0.169426,-0.487551,0.295609,1.11703,0.0146254,0.0480131,0.333815
-0.147599,0.23597,-0.148714,-0.5037,0.373639,1.06479,-0.0178848,0.022635,0.222672
-0.145293,0.223468,-0.129319,-0.455969,0.275771,0.983811,-0.0432967,0.0216157,0.111131
-0.145235,0.212183,-0.112201,-0.432398,0.095365,0.82524,-0.0910648,0.0215534,0.0335962
-0.147423,0.201043,-0.0989691,-0.49925,-0.0203236,0.621029,-0.128072,0.00537106,-0.0156789
-0.14895,0.188426,-0.0902186,-0.626402,0.0851038,0.424486,-0.144861,-0.0306285,-0.0831569
-0.145421,0.174436,-0.0855336,-0.676486,0.350368,0.236347,-0.177175,-0.0918583,-0.211102
-0.13658,0.161139,-0.0838863,-0.611633,0.507021,0.122054,-0.179588,-0.128696,-0.359854
-0.128822,0.149898,-0.0834935,-0.510114,0.22118,0.081158,-0.157917,-0.160615,-0.480741
-0.127819,0.139218,-0.0830438,-0.583786,-0.0544932,0.105066,-0.146498,-0.186915,-0.508736
-0.127666,0.125376,-0.0827763,-0.779262,0.152012,0.0932076,-0.19355,-0.219038,-0.514459
-0.120127,0.109974,-0.0834003,-0.702007,0.590216,0.024972,-0.233623,-0.218967,-0.636175
-0.107037,0.100483,-0.085281,-0.21349,0.589624,-0.105633,-0.239059,-0.148343,-0.78265
-0.100667,0.103654,-0.0887312,0.499124,-0.0573791,-0.296516,-0.223849,-0.0793626,-0.777889
-0.109183,0.120388,-0.0961306,1.03999,-0.860955,-0.61514,-0.193611,-0.00723682,-0.529491
-0.129532,0.145279,-0.107667,1.25133,-1.24553,-0.787093,-0.152907,-0.000510633,-0.171442
-0.152176,0.171914,-0.120458,1.17519,-1.16222,-0.82643,-0.102111,-0.0348487,0.111095
-0.168695,0.195121,-0.132639,0.911151,-0.664312,-0.706058,-0.0796749,-0.0783472,0.28291
-0.173269,0.211614,-0.141824,0.553884,0.0257501,-0.456381,-0.0936042,-0.114395,0.338405
-0.165895,0.220025,-0.147353,0.195195,0.521073,-0.251911,-0.120981,-0.0842976,0.297699
-0.153377,0.222279,-0.151623,0.00207519,0.59994,-0.208391,-0.124268,0.0241186,0.161365
-0.14143,0.223386,-0.156262,0.0761061,0.481919,-0.278697,-0.143107,0.0994167,0.0239797
-0.132749,0.228091,-0.163231,0.316985,0.211178,-0.47348,-0.179174,0.161177,-0.0613869
-0.130066,0.238854,-0.174266,0.607736,-0.217582,-0.744601,-0.173864,0.223222,-0.0816257
-0.134609,0.255428,-0.190373,0.817771,-0.596398,-1.01333,-0.1328,0.261219,-0.0112443
-0.142777,0.276083,-0.210198,0.961013,-0.714842,-1.15871,-0.0734691,0.254141,0.0998321
-0.150351,0.29916,-0.231743,1.01492,-0.636598,-1.22316,-0.00521344,0.265085,0.217082
-0.154866,0.322847,-0.254162,0.99321,-0.497258,-1.24694,0.0467002,0.26757,0.307241
-0.155538,0.345407,-0.276924,0.900131,-0.321814,-1.22279,0.0835521,0.267596,0.373213
-0.152787,0.36542,-0.299064,0.754226,-0.184007,-1.13472,0.122369,0.253673,0.411345
-0.147937,0.381591,-0.319642,0.548105,-0.0830495,-1.01257,0.144609,0.230643,0.433973
-0.141652,0.392662,-0.338158,0.299101,0.0435159,-0.850051,0.144564,0.20548,0.441084
-0.132311,0.398204,-0.354323,0.0458784,0.288257,-0.715752,0.128149,0.172981,0.419501
-0.118085,0.398252,-0.368362,-0.202872,0.586719,-0.569154,0.122019,0.153952,0.365837
-0.0992988,0.392669,-0.379669,-0.470199,0.851883,-0.406539,0.0946423,0.116146,0.276792
-0.0785212,0.381076,-0.386995,-0.751145,0.90603,-0.142854,0.121275,0.0857869,0.142507
-0.0616126,0.363098,-0.387564,-1.05509,0.756794,0.216964,0.126361,0.0476306,0.00752085
-0.0509674,0.339078,-0.381499,-1.29361,0.492294,0.459462,0.0610451,0.0214757,-0.134014
-0.0490604,0.311724,-0.371785,-1.38172,0.00700934,0.583617,0.0258032,0.00700173,-0.279045
-0.054768,0.283966,-0.360998,-1.32136,-0.205449,0.584551,0.0388765,0.0432723,-0.363829
-0.0611626,0.257793,-0.349534,-1.25582,-0.0818821,0.699245,0.0314404,-0.0315822,-0.38872
-0.0635031,0.231219,-0.335264,-1.33157,0.190925,0.849444,0.0194284,-0.104057,-0.404017
-0.0619909,0.203228,-0.318387,-1.34725,0.281164,0.96568,0.0297161,-0.0967974,-0.495636
-0.0611218,0.17614,-0.299832,-1.23723,0.127684,1.01253,0.0405768,-0.0647296,-0.587471
-0.0653118,0.152871,-0.281087,-0.932939,-0.257391,0.959005,0.027288,-0.0314397,-0.625494
-0.0774077,0.138505,-0.265366,-0.367133,-0.734654,0.65923,-0.0230043,0.0100568,-0.574997
-0.0973167,0.136367,-0.256646,0.209121,-1.08753,0.215322,-0.0321568,0.0539439,-0.380625
-0.119405,0.145005,-0.255599,0.639295,-1.0596,-0.188455,0.0116697,0.0587434,-0.128304
-0.137103,0.161646,-0.260253,0.929004,-0.741864,-0.464357,0.100194,0.0387503,0.0788679
-0.145535,0.182977,-0.267989,1.06312,-0.227774,-0.568395,0.19886,0.0336573,0.234996
-0.143813,0.205653,-0.275825,1.05416,0.243248,-0.49741,0.267434,0.0263503,0.344768
-0.134226,0.226339,-0.281267,0.906246,0.569601,-0.294143,0.292077,0.0070504,0.414429
-0.120863,0.242237,-0.282256,0.637429,0.714512,-0.00204125,0.280836,-0.00806543,0.460151
-0.107784,0.251127,-0.278189,0.288545,0.67331,0.287865,0.248824,0.00174567,0.473846
-0.0981688,0.252628,-0.269253,-0.0399023,0.507887,0.556648,0.21929,0.0142318,0.450505
-0.0981688,0.252628,-0.269253,-0.0399023,0.507887,0.556648,0.21929,0.0142318,0.450505
-0.0928039,0.24807,-0.255857,-0.274332,0.381172,0.772557,0.162283,0.0222977,0.40142
-0.0897779,0.239557,-0.239074,-0.409997,0.344361,0.918372,0.0936735,0.0307441,0.335954
-0.0872691,0.229076,-0.220042,-0.464418,0.344709,1.01716,0.0251586,0.0260279,0.269655
-0.0856625,0.21769,-0.19951,-0.504596,0.256442,1.0748,-0.0195499,0.0374924,0.216822
-0.0862528,0.20501,-0.178365,-0.58875,0.134921,1.10337,-0.0659114,0.0201053,0.173738
-0.0889387,0.190612,-0.156833,-0.659933,0.0193486,1.13139,-0.101813,-0.00952989,0.121562
-0.0937542,0.174785,-0.135166,-0.724949,-0.118694,1.13276,-0.13399,-0.020852,0.0692301
-0.101143,0.157993,-0.11482,-0.736477,-0.272594,1.01144,-0.189685,-0.0227632,0.0172729
-0.109577,0.142258,-0.0982158,-0.646227,-0.317603,0.778235,-0.240563,-0.0214447,-0.0378433
-0.117125,0.129858,-0.0869536,-0.44744,-0.260421,0.46851,-0.287309,-0.0495077,-0.0986331
-0.121383,0.122399,-0.0812142,-0.240409,-0.0887835,0.210197,-0.282806,-0.0878675,-0.145506
-0.121729,0.118033,-0.0793549,-0.205034,0.0643841,0.0376462,-0.270133,-0.130822,-0.165795
-0.11983,0.113254,-0.0805369,-0.291027,0.0688623,-0.0875569,-0.237973,-0.160502,-0.221509
-0.120357,0.107211,-0.0837167,-0.340956,-0.200277,-0.141907,-0.195442,-0.175053,-0.321528
-0.128243,0.100579,-0.087362,-0.364756,-0.630086,-0.123624,-0.175657,-0.210107,-0.396281
-0.143462,0.0929972,-0.0904003,-0.453357,-0.847328,-0.068549,-0.150616,-0.233431,-0.414803
-0.157088,0.0826448,-0.0931245,-0.601059,-0.432494,-0.0499205,-0.181951,-0.259643,-0.436903
-0.158554,0.0718617,-0.0966759,-0.46661,0.232693,-0.157312,-0.234653,-0.225121,-0.568894
-0.151204,0.0677347,-0.102794,0.00608605,0.340682,-0.384966,-0.230241,-0.116735,-0.70284
-0.147451,0.0757627,-0.1124,0.650759,-0.102611,-0.70515,-0.199787,-0.0194331,-0.678148
-0.155271,0.0961613,-0.127138,1.0882,-0.795636,-1.03856,-0.127652,0.0422717,-0.454232
-0.173291,0.1223,-0.145663,1.15666,-1.14146,-1.17926,-0.0671438,0.0401324,-0.119732
-0.19336,0.1481,-0.16521,0.999866,-1.08713,-1.20284,-0.0258579,0.00559124,0.13415
-0.208218,0.169744,-0.185358,0.719969,-0.674213,-1.17531,-0.0259598,-0.0022274,0.290618
-0.211938,0.185755,-0.205781,0.433058,-0.0441073,-1.13293,-0.0599421,-0.00824398,0.340675
-0.202729,0.196489,-0.227393,0.192931,0.508028,-1.19422,-0.105784,0.0246646,0.295451
-0.184794,0.203745,-0.2521,0.0773342,0.759591,-1.33542,-0.124104,0.094657,0.16592
-0.1633,0.21039,-0.279872,0.129116,0.806148,-1.45358,-0.117819,0.13595,0.020359
-0.141509,0.219099,-0.309561,0.304204,0.713601,-1.55643,-0.115005,0.163426,-0.110384
-0.122504,0.231875,-0.341013,0.573909,0.449765,-1.66694,-0.104751,0.191121,-0.192855
-0.109671,0.250439,-0.374125,0.903363,0.0469188,-1.75149,-0.0723996,0.231548,-0.208907
-0.10297,0.274971,-0.408741,1.17719,-0.244267,-1.84106,-0.0513877,0.246937,-0.127305
-0.0988766,0.304074,-0.444579,1.36468,-0.353676,-1.87096,-0.00378975,0.266482,-0.000944614
-0.0949505,0.3359,-0.480346,1.47443,-0.377194,-1.817,0.0530409,0.273665,0.11488
-0.090698,0.368995,-0.514593,1.51998,-0.37979,-1.68489,0.0945175,0.275549,0.211373
-0.0867469,0.401533,-0.545455,1.45882,-0.380789,-1.45117,0.131276,0.280173,0.299555
-0.0838311,0.431102,-0.571358,1.27491,-0.374175,-1.16824,0.145667,0.273906,0.367931
-0.0825475,0.455369,-0.592026,0.985723,-0.401304,-0.907133,0.13736,0.261922,0.405325
-0.0834813,0.473277,-0.60787,0.692114,-0.38963,-0.666176,0.118576,0.241862,0.394197
-0.0845482,0.485572,-0.619715,0.454147,-0.235381,-0.49349,0.108271,0.243432,0.344521
-0.0832759,0.493202,-0.627912,0.243072,-0.023561,-0.28122,0.137369,0.25444,0.263801
-0.0809281,0.495845,-0.630779,-0.0142878,0.102856,0.0230617,0.173155,0.221624,0.177226
-0.0806637,0.4919,-0.62635,-0.358356,0.105009,0.406865,0.196938,0.190578,0.102112
-0.085114,0.480289,-0.614405,-0.705172,-0.00623347,0.704566,0.177398,0.172133,0.0202937
-0.0945591,0.462562,-0.598911,-0.919967,-0.267536,0.821713,0.123681,0.160155,-0.0794532
-0.110227,0.440856,-0.582442,-1.11698,-0.543725,0.888062,0.147475,0.168001,-0.118512
-0.128522,0.412855,-0.564958,-1.5043,-0.515716,1.06212,0.21298,0.114071,-0.0987318
-0.143645,0.375508,-0.543775,-1.9247,-0.125505,1.44097,0.257033,-0.00726277,-0.144202
-0.150261,0.329939,-0.514676,-2.14071,0.440954,1.90878,0.22318,-0.0674794,-0.270271
-0.149963,0.282364,-0.480432,-2.03917,0.527916,1.9856,0.104148,-0.0220777,-0.437815
-0.151426,0.24124,-0.447904,-1.49721,0.101004,1.67782,0.022212,0.073273,-0.55748
-0.161477,0.215323,-0.423603,-0.692803,-0.548499,1.05253,-0.0449175,0.103906,-0.531468
-0.178906,0.206301,-0.409534,-0.00595365,-0.79607,0.501475,-0.0326836,0.0672975,-0.332375
-0.193812,0.209181,-0.40199,0.37616,-0.491953,0.204047,0.0524312,-0.0266702,-0.0921916
-0.193812,0.209181,-0.40199,0.37616,-0.491953,0.204047,0.0524312,-0.0266702,-0.0921916
-0.199722,0.217149,-0.396954,0.468984,0.0350336,0.159243,0.151761,-0.0911937,0.0710415
-0.194742,0.224763,-0.390673,0.376165,0.59023,0.319954,0.213366,-0.132746,0.150893
-0.181667,0.228578,-0.380678,0.171779,0.881327,0.570761,0.257147,-0.137024,0.164123
-0.168031,0.227355,-0.366221,-0.0480566,0.767875,0.856734,0.288823,-0.0959644,0.117573
-0.160402,0.221568,-0.346088,-0.188968,0.433905,1.17445,0.279804,-0.0802128,0.0770447
-0.160386,0.213238,-0.320658,-0.218175,0.131197,1.39532,0.208831,-0.0514515,0.0637148
-0.165563,0.205099,-0.29241,-0.122666,-0.0422019,1.45142,0.124046,-0.00109325,0.0855108
-0.172552,0.199263,-0.263797,0.019958,-0.0793169,1.41323,0.051814,0.026331,0.133976
-0.179266,0.19615,-0.236009,0.146677,-0.0525703,1.33339,2.23219e-05,0.02508,0.190341
-0.185304,0.195066,-0.209625,0.205938,-0.0567337,1.24078,-0.0287826,0.0239706,0.249381
-0.191525,0.194312,-0.185076,0.155964,-0.0900956,1.14751,-0.0405517,0.0147313,0.313277
-0.19775,0.192048,-0.162795,0.0342691,-0.101381,1.04917,-0.055394,-0.0086692,0.357962
-0.203372,0.187393,-0.142665,-0.0960025,-0.073621,0.995149,-0.0442079,-0.0308951,0.370738
-0.207226,0.180426,-0.123632,-0.195598,0.0472483,0.988533,-0.0395375,-0.0601599,0.347318
-0.208014,0.172129,-0.104982,-0.238933,0.207303,0.980198,-0.0712084,-0.0909883,0.295329
-0.205672,0.163022,-0.0872924,-0.304873,0.298194,0.908462,-0.118597,-0.0924907,0.226122
-0.202453,0.15254,-0.0723511,-0.429869,0.249273,0.742189,-0.185676,-0.0984324,0.132875
-0.199178,0.139715,-0.061735,-0.644518,0.253909,0.558083,-0.241518,-0.120352,0.0140891
-0.193551,0.122359,-0.0551842,-0.914758,0.434316,0.424741,-0.22105,-0.144471,-0.157601
-0.183024,0.103174,-0.0514195,-0.833403,0.643201,0.309184,-0.193018,-0.157889,-0.439412
-0.170238,0.0902466,-0.04871,-0.35464,0.598877,0.18729,-0.180348,-0.127039,-0.690143
-0.16239,0.0881538,-0.046361,0.148577,0.175132,0.057684,-0.176079,-0.117756,-0.779882
-0.163057,0.0935644,-0.0462215,0.336395,-0.195673,-0.122667,-0.164363,-0.101686,-0.700869
-0.167147,0.100893,-0.0486961,0.342484,-0.196062,-0.228522,-0.117481,-0.0973218,-0.580795
-0.16905,0.108929,-0.0523109,0.414218,-0.0324203,-0.249119,-0.0555903,-0.0977987,-0.536562
-0.168652,0.119983,-0.0553093,0.65203,0.029715,-0.233494,0.00548394,-0.0581459,-0.523305
-0.167996,0.136438,-0.0572746,0.928771,-0.00696883,-0.242173,0.0226929,-0.0124532,-0.432237
-0.168855,0.157474,-0.0590883,1.10127,-0.125779,-0.296293,0.0182995,0.0287724,-0.253715
-0.173004,0.180843,-0.0616295,1.15287,-0.348381,-0.348481,0.0355616,0.0662879,-0.0554062
-0.181773,0.204526,-0.0648708,1.11217,-0.580263,-0.376459,0.0593908,0.0952996,0.131742
-0.19345,0.226251,-0.068226,0.943484,-0.623589,-0.336075,0.0749649,0.0949764,0.296348
-0.203672,0.243017,-0.0707284,0.628851,-0.431333,-0.233108,0.0816227,0.0745253,0.428536
-0.208125,0.251876,-0.0723004,0.203,-0.0321621,-0.0866961,0.0599847,0.0564569,0.48603
-0.204431,0.251835,-0.0722878,-0.197717,0.406671,0.0821605,0.0309719,0.0611624,0.443774
-0.193406,0.244498,-0.0711718,-0.469942,0.666796,0.14329,-0.0333774,0.0910381,0.320455
-0.18068,0.233751,-0.0707689,-0.552047,0.58187,0.0780167,-0.0806356,0.149261,0.161498
-0.17098,0.22387,-0.0727738,-0.428768,0.336973,-0.121655,-0.144309,0.183552,0.0460788
-0.164997,0.219026,-0.0791405,-0.133616,0.13869,-0.426748,-0.197417,0.206201,-0.017036
-0.160951,0.221761,-0.0913229,0.202785,0.0137394,-0.791743,-0.208841,0.22509,-0.00363398
-0.157199,0.231145,-0.109209,0.424464,-0.0249932,-1.05681,-0.156479,0.210293,0.0841594
-0.152384,0.244013,-0.130247,0.508193,0.0191699,-1.137,-0.0783943,0.170615,0.176935
-0.146126,0.256925,-0.151297,0.444527,0.0798913,-1.06504,-0.0249444,0.136691,0.254674
-0.139249,0.267047,-0.170917,0.276348,0.110473,-0.956914,-0.00671478,0.115569,0.306506
-0.131655,0.272887,-0.188803,0.0747023,0.172754,-0.833269,0.0121595,0.108105,0.318829
-0.123387,0.274923,-0.204657,-0.045654,0.228954,-0.711728,0.0247026,0.092121,0.276296
-0.115041,0.275445,-0.217991,-0.038196,0.238375,-0.572726,0.0296041,0.086856,0.204875
-0.107549,0.27602,-0.228654,-0.0300634,0.215066,-0.466864,0.00583616,0.0804662,0.164337
-0.100928,0.275619,-0.237863,-0.125232,0.209977,-0.416699,-0.0241091,0.0653551,0.159219
-0.0938005,0.272013,-0.246328,-0.318065,0.291251,-0.357589,-0.0298522,0.0446567,0.133238
-0.0849805,0.26415,-0.253254,-0.527691,0.419438,-0.223117,0.000269137,0.0106619,0.0376674
-0.0740919,0.251757,-0.256584,-0.733724,0.585837,0.0132817,0.0329485,-0.0259638,-0.0965283
-0.0627157,0.234927,-0.254529,-0.933482,0.578464,0.294022,0.028467,-0.0676735,-0.238136
-0.0547679,0.214508,-0.247854,-1.04173,0.315629,0.449157,-0.016735,-0.0786528,-0.371185
-0.0547679,0.214508,-0.247854,-1.04173,0.315629,0.449157,-0.016735,-0.0786528,-0.371185
-0.0548027,0.193875,-0.239715,-0.962229,-0.161405,0.435959,-0.0616684,-0.0837655,-0.497747
-0.0627446,0.175896,-0.232418,-0.798046,-0.444271,0.396553,-0.0378124,-0.0794043,-0.542666
-0.0718276,0.159957,-0.224739,-0.78737,-0.25447,0.490675,-0.0122955,-0.138881,-0.486137
-0.0735096,0.142506,-0.214759,-0.869476,0.23357,0.628129,-0.00534979,-0.186558,-0.462914
-0.0683143,0.125272,-0.202533,-0.728682,0.388322,0.665537,-0.0110549,-0.133371,-0.547504
-0.0630468,0.114041,-0.191653,-0.258948,0.19396,0.445532,-0.0763508,-0.0378481,-0.569871
-0.0646339,0.115688,-0.186928,0.464886,-0.32172,-0.012917,-0.106619,0.0331854,-0.49585
-0.0758495,0.131878,-0.191419,1.07392,-0.811571,-0.539198,-0.0558474,0.0995749,-0.265196
-0.0906659,0.157824,-0.204198,1.37385,-0.771749,-0.89736,0.0417328,0.0910834,0.0191904
-0.0988634,0.187953,-0.220814,1.44679,-0.278205,-0.987384,0.165095,0.0527236,0.212089
-0.0945182,0.217506,-0.236649,1.33155,0.391275,-0.810466,0.290274,0.0513201,0.319355
-0.079061,0.242618,-0.247564,1.06838,0.860044,-0.453384,0.365637,0.0580088,0.356108
-0.0587916,0.261212,-0.251351,0.767195,1.0333,-0.0419372,0.372942,0.068905,0.337135
-0.0404705,0.273565,-0.24731,0.493787,0.86617,0.367084,0.335967,0.0947958,0.283223
-0.0303802,0.280614,-0.235821,0.254694,0.417257,0.698062,0.273404,0.125944,0.24421
-0.0320342,0.283229,-0.219073,0.0624405,-0.106006,0.880855,0.211066,0.165139,0.243738
-0.0429964,0.282548,-0.199755,-0.0449798,-0.390738,0.979675,0.143574,0.175822,0.28194
-0.0565219,0.280469,-0.178435,-0.0504246,-0.337872,1.08059,0.0888761,0.157239,0.329371
-0.0681789,0.278214,-0.155278,-0.0350038,-0.191343,1.16429,0.0530095,0.142177,0.371728
-0.0776633,0.2754,-0.130526,-0.0931875,-0.0871823,1.22965,0.0209812,0.140416,0.417042
-0.0856715,0.269844,-0.105523,-0.28799,-0.0427021,1.2164,-0.027866,0.122828,0.457379
-0.0920557,0.259278,-0.0816186,-0.562374,0.0354563,1.17553,-0.0615375,0.0983319,0.466496
-0.0958137,0.243529,-0.0597333,-0.789349,0.150406,1.09709,-0.0874688,0.0547276,0.415871
-0.0958898,0.224942,-0.0397255,-0.853279,0.298878,1.02736,-0.103233,0.0157289,0.301643
-0.0932044,0.206562,-0.0210133,-0.796384,0.346042,0.977452,-0.106541,-0.0280738,0.16561
-0.0911688,0.189765,-0.00310656,-0.726523,0.173195,0.933042,-0.153588,-0.0825668,0.0475961
-0.09397,0.17355,0.0135125,-0.759077,-0.165021,0.835837,-0.199677,-0.094364,-0.0269513
-0.102854,0.156352,0.0269649,-0.829751,-0.485402,0.654852,-0.250524,-0.13408,-0.100701
-0.115032,0.138503,0.0370343,-0.822523,-0.516134,0.545576,-0.269118,-0.189454,-0.194436
-0.123684,0.122202,0.0451174,-0.683877,-0.218137,0.434447,-0.300312,-0.22022,-0.300791
-0.126041,0.110012,0.0503933,-0.450488,-0.0136737,0.234532,-0.320808,-0.221264,-0.416854
-0.128396,0.103482,0.0524707,-0.184111,-0.266613,0.0649838,-0.302786,-0.212163,-0.506747
-0.137326,0.101366,0.0521067,-0.0615012,-0.59511,-0.0748601,-0.30056,-0.220127,-0.502979
-0.14958,0.100191,0.0492701,-0.116483,-0.604376,-0.186125,-0.301462,-0.233778,-0.454754
-0.158214,0.0981905,0.0441957,-0.130696,-0.279449,-0.282808,-0.289448,-0.232244,-0.478718
-0.159808,0.0990913,0.0372411,0.147405,0.0153802,-0.422845,-0.271248,-0.172998,-0.584495
-0.15882,0.107604,0.028487,0.569313,-0.084415,-0.590262,-0.235599,-0.0949352,-0.60373
-0.162944,0.12537,0.0171509,0.985446,-0.496635,-0.812484,-0.199264,-0.010639,-0.490885
-0.174906,0.149847,0.00294793,1.15863,-0.861015,-0.975971,-0.152565,0.0277509,-0.24582
-0.190628,0.176102,-0.0129329,1.1156,-0.913534,-1.02754,-0.112115,0.0216443,-0.0154019
-0.203182,0.200062,-0.0293909,0.899302,-0.609056,-1.02316,-0.0873176,0.00100677,0.135828
-0.206854,0.218658,-0.0457484,0.597184,-0.0801379,-0.913286,-0.0850765,-0.0054923,0.190059
-0.200055,0.231351,-0.0609572,0.373074,0.371159,-0.830914,-0.109215,0.00874199,0.136684
-0.186797,0.241,-0.0766612,0.302404,0.555762,-0.862609,-0.101027,0.105587,0.0251753
-0.171845,0.250543,-0.093169,0.374192,0.527454,-0.879497,-0.0771213,0.160131,-0.0495958
-0.158604,0.26241,-0.109616,0.544435,0.346268,-0.888397,-0.0494777,0.186579,-0.0743235
-0.150916,0.277492,-0.126079,0.698786,-0.0428917,-0.928046,-0.0190122,0.242832,-0.0301124
-0.151202,0.295388,-0.144064,0.808527,-0.4768,-1.07184,-0.00486897,0.295887,0.0673869
-0.156757,0.315504,-0.165528,0.871187,-0.67386,-1.25747,0.0114619,0.330468,0.187611
-0.161861,0.337581,-0.189826,0.945932,-0.584472,-1.35764,0.0498253,0.32646,0.28291
-0.162586,0.361107,-0.215013,0.991084,-0.344062,-1.35085,0.0996271,0.317314,0.35304
-0.158426,0.384433,-0.239207,0.938603,-0.128651,-1.2417,0.136071,0.308246,0.410626
-0.150368,0.404946,-0.26135,0.767058,0.0795374,-1.09792,0.14292,0.302401,0.454117
-0.139679,0.420585,-0.281087,0.509175,0.198718,-0.921526,0.134523,0.292557,0.475188
-0.139679,0.420585,-0.281087,0.509175,0.198718,-0.921526,0.134523,0.292557,0.475188
-0.127915,0.429997,-0.298089,0.22502,0.268313,-0.757529,0.117602,0.272184,0.453848
-0.116185,0.43402,-0.31274,0.0233671,0.299547,-0.620583,0.0949525,0.245518,0.395413
-0.104504,0.43411,-0.324756,-0.138847,0.37776,-0.462215,0.0858338,0.219553,0.335477
-0.0921781,0.429941,-0.333457,-0.365249,0.496534,-0.285778,0.0772312,0.189507,0.261302
-0.0791519,0.420364,-0.338214,-0.63323,0.596993,-0.0527342,0.0809746,0.153088,0.16466
-0.0681919,0.404852,-0.337365,-0.918,0.500582,0.244868,0.067773,0.110023,0.0562611
-0.0632818,0.383214,-0.330652,-1.20418,0.21112,0.498035,0.0216348,0.0881367,-0.0385001
-0.0671652,0.355981,-0.320461,-1.46594,-0.235324,0.617444,-0.0346577,0.0422969,-0.117283
-0.0786007,0.322478,-0.308485,-1.81392,-0.422334,0.773183,-0.000890799,0.0206686,-0.146425
-0.0883979,0.281619,-0.293775,-2.12804,-0.04188,0.995575,0.0467191,-0.0195892,-0.208534
-0.0881005,0.235939,-0.274429,-2.2385,0.52859,1.28534,0.0376973,-0.0775381,-0.345959
-0.0798328,0.189641,-0.250834,-2.15724,0.730174,1.35442,-0.0248616,-0.0561533,-0.488799
-0.070978,0.148389,-0.228128,-1.74967,0.475022,1.16838,-0.106329,-0.028241,-0.630957
-0.0691901,0.118151,-0.210438,-1.14615,-0.0882297,0.761965,-0.170193,-0.0120832,-0.674814
-0.0780833,0.100409,-0.20183,-0.587208,-0.647249,0.224098,-0.190516,-0.00928714,-0.584423
-0.0921252,0.0931052,-0.202485,-0.169017,-0.689049,-0.206331,-0.141314,-0.0463725,-0.413842
-0.10216,0.0937721,-0.209355,0.157752,-0.349856,-0.46232,-0.0226114,-0.0776909,-0.287691
-0.104049,0.101063,-0.219631,0.465359,0.0409685,-0.618078,0.0865468,-0.0874784,-0.216126
-0.0999684,0.114492,-0.231193,0.743429,0.211675,-0.645731,0.201886,-0.0653229,-0.163851
-0.0943349,0.132433,-0.241748,0.931582,0.202618,-0.555627,0.274492,-0.0404542,-0.0838272
-0.0897726,0.152863,-0.249213,1.02657,0.1445,-0.358292,0.318724,-0.0161732,0.0205226
-0.0873099,0.173727,-0.252116,1.01533,0.0609022,-0.107099,0.326106,-0.00234707,0.139231
-0.0870973,0.192601,-0.249891,0.870929,0.00700467,0.164099,0.315115,0.0220242,0.257285
-0.0886034,0.207269,-0.242337,0.649,-0.00171169,0.444579,0.297684,0.0462417,0.355602
-0.0910925,0.216537,-0.229471,0.386387,0.0261051,0.72872,0.274145,0.0668384,0.424045
-0.0941028,0.220076,-0.211676,0.138235,0.0595134,0.960441,0.23542,0.0897329,0.465368
-0.09724,0.21892,-0.190325,-0.041451,0.089948,1.12274,0.194837,0.119031,0.477075
-0.100219,0.214385,-0.166808,-0.180155,0.12343,1.19998,0.147886,0.144189,0.487555
-0.102401,0.207209,-0.142912,-0.295986,0.158166,1.1974,0.0935501,0.152019,0.487811
-0.10351,0.197785,-0.119681,-0.410455,0.21449,1.1723,0.0555343,0.143276,0.475683
-0.102113,0.186327,-0.0971965,-0.495782,0.362276,1.14515,0.0238772,0.123147,0.420459
-0.0975926,0.173879,-0.0756464,-0.524054,0.472596,1.10107,0.00427845,0.100708,0.334345
-0.0912542,0.161478,-0.0549277,-0.52669,0.491399,1.05084,-0.0412073,0.0721545,0.240712
-0.0850541,0.148938,-0.0357691,-0.573554,0.446982,0.945421,-0.0920448,0.0460778,0.172839
-0.0779831,0.134742,-0.0189318,-0.724072,0.507533,0.8513,-0.116436,-0.00375712,0.109857
-0.0685128,0.116867,-0.00269836,-0.954126,0.665379,0.916927,-0.125825,-0.0842966,0.0229686
-0.0555135,0.0939091,0.0164407,-1.23313,0.816399,1.14797,-0.153195,-0.176767,-0.106419
-0.0410656,0.0649009,0.0401696,-1.55431,0.784101,1.32967,-0.197344,-0.207163,-0.247377
-0.0299077,0.0313174,0.0653743,-1.66114,0.391856,1.27723,-0.284397,-0.191435,-0.45629
-0.0292503,0.000430327,0.087688,-1.3095,-0.303586,1.0202,-0.400945,-0.179715,-0.673615
-0.0400084,-0.0212192,0.103117,-0.831586,-0.698067,0.589577,-0.50446,-0.187218,-0.726626
-0.0524538,-0.0352255,0.110142,-0.577899,-0.475766,0.203833,-0.544694,-0.240769,-0.661312
-0.0563893,-0.0449069,0.110854,-0.368698,0.083967,-0.0647011,-0.540881,-0.313279,-0.671495
-0.0511035,-0.0481155,0.1069,0.0554783,0.402209,-0.317261,-0.501926,-0.269807,-0.790807
-0.0451094,-0.0413917,0.0979419,0.575608,0.148493,-0.618043,-0.462864,-0.178022,-0.824093
-0.0483444,-0.0246465,0.0831779,1.00909,-0.437146,-0.956179,-0.412352,-0.096635,-0.714332
-0.0621454,-0.000860029,0.0621219,1.22517,-0.841642,-1.25726,-0.349485,-0.0542505,-0.480111
-0.0785491,0.0265801,0.0372301,1.34,-0.76878,-1.40692,-0.285344,-0.0570107,-0.27257
-0.0892608,0.0565435,0.0109403,1.43418,-0.397493,-1.46685,-0.243413,-0.0421194,-0.142002
-0.091753,0.0886495,-0.0161695,1.52565,-0.0767554,-1.53486,-0.217345,0.016222,-0.08261
-0.0891504,0.122614,-0.045146,1.60283,-0.0112921,-1.65884,-0.199493,0.111321,-0.0737507
-0.0862886,0.15789,-0.0767975,1.63612,-0.176778,-1.78034,-0.162342,0.183495,-0.0747983
-0.0862885,0.19323,-0.110564,1.60541,-0.413822,-1.83448,-0.106813,0.227171,-0.0561215
-0.089357,0.22797,-0.14498,1.57697,-0.594332,-1.82481,-0.0559998,0.257235,-0.0316055
-0.089357,0.22797,-0.14498,1.57697,-0.594332,-1.82481,-0.0559998,0.257235,-0.0316055
-0.0936611,0.262766,-0.179316,1.61145,-0.661179,-1.82471,-0.0251951,0.302218,-0.00898576
-0.0973123,0.299057,-0.213973,1.69945,-0.65855,-1.84604,-0.00531344,0.347552,0.0214368
-0.0988751,0.337298,-0.249365,1.78422,-0.615039,-1.88559,0.0208098,0.392645,0.0676443
-0.0984493,0.376948,-0.285545,1.82658,-0.611295,-1.88341,0.0598345,0.428829,0.119336
-0.0970247,0.41667,-0.321465,1.80324,-0.648992,-1.7977,0.104423,0.447595,0.173614
-0.0966881,0.454685,-0.355334,1.67887,-0.758343,-1.62594,0.151793,0.460053,0.234871
-0.0988466,0.489059,-0.385849,1.47862,-0.840039,-1.42025,0.179921,0.470925,0.300707
-0.103351,0.518773,-0.412263,1.24679,-0.888705,-1.18854,0.191934,0.469936,0.353601
-0.110569,0.542954,-0.433983,0.957656,-0.939829,-0.935923,0.199226,0.462285,0.39652
-0.121104,0.560407,-0.450661,0.607554,-0.985897,-0.679489,0.208195,0.45281,0.431015
-0.134334,0.570052,-0.462229,0.221471,-0.928593,-0.419052,0.211873,0.437472,0.457564
-0.146985,0.571291,-0.468966,-0.185636,-0.661769,-0.15461,0.212586,0.420296,0.472728
-0.154498,0.563515,-0.470621,-0.605238,-0.165011,0.12354,0.187754,0.400601,0.462251
-0.154542,0.546977,-0.467478,-0.98417,0.283173,0.399367,0.148804,0.389416,0.387516
-0.151246,0.522148,-0.459781,-1.38029,0.401481,0.613096,0.119713,0.402903,0.297437
-0.148612,0.488931,-0.450537,-1.79138,0.292798,0.66476,0.0493877,0.37784,0.18301
-0.147843,0.447893,-0.442958,-2.16472,0.145493,0.601802,0.0140313,0.346611,0.0566291
-0.147281,0.400875,-0.437439,-2.40805,0.170522,0.625477,0.0708292,0.27644,-0.102951
-0.144075,0.349221,-0.429245,-2.62234,0.487812,0.925397,0.156975,0.134921,-0.261716
-0.13575,0.291564,-0.413466,-2.88981,0.813603,1.37641,0.182676,-0.00326031,-0.426153
-0.125215,0.229602,-0.390307,-2.90592,0.763874,1.59283,0.11334,-0.0669047,-0.654808
-0.118828,0.172818,-0.365815,-2.36712,0.309477,1.42289,0.000343151,-0.0272745,-0.894767
-0.12213,0.132008,-0.347448,-1.44895,-0.362466,0.810327,-0.10575,-0.0365427,-0.982149
-0.134724,0.11166,-0.340931,-0.513738,-0.71864,0.13603,-0.117115,-0.0998905,-0.863164
-0.147785,0.108943,-0.342483,0.177791,-0.540618,-0.208643,0.00544482,-0.199531,-0.615077
-0.154888,0.117755,-0.347087,0.58907,-0.2142,-0.339373,0.133457,-0.269556,-0.398315
-0.155712,0.13244,-0.350848,0.788239,0.0487885,-0.21495,0.240013,-0.298703,-0.233778
-0.153995,0.149047,-0.3499,0.855859,0.113347,0.0510605,0.315932,-0.286792,-0.101128
-0.15287,0.165572,-0.343709,0.867123,0.0977285,0.305801,0.336839,-0.247202,0.00973392
-0.153511,0.181329,-0.332105,0.865401,0.053504,0.592422,0.340328,-0.189673,0.110435
-0.155227,0.195871,-0.314851,0.834787,0.106134,0.856284,0.313376,-0.149633,0.201064
-0.156829,0.208752,-0.292746,0.775427,0.173369,1.09075,0.283396,-0.107809,0.275992
-0.158782,0.21955,-0.266022,0.7019,0.196491,1.32612,0.261345,-0.0575697,0.334049
-0.161528,0.227932,-0.234966,0.606217,0.217327,1.53915,0.224187,-0.0128369,0.384124
-0.164965,0.233377,-0.200072,0.479017,0.23524,1.72826,0.174872,0.0277124,0.424695
-0.1689,0.235325,-0.162457,0.311545,0.23946,1.84545,0.114591,0.0703629,0.450545
-0.173311,0.23322,-0.124072,0.117525,0.216984,1.86666,0.0526185,0.113664,0.458856
-0.177429,0.227656,-0.0872013,-0.0215849,0.219563,1.75706,-0.0142121,0.14084,0.429348
-0.18007,0.220796,-0.0537306,-0.0551641,0.268962,1.57937,-0.0721517,0.154507,0.381242
-0.180716,0.214909,-0.0242377,0.00207985,0.296763,1.36699,-0.121596,0.143236,0.330333
-0.179898,0.210987,0.000916859,0.0473185,0.326443,1.12937,-0.168698,0.120604,0.298898
-0.177015,0.208185,0.0211779,0.0149006,0.39087,0.874086,-0.208967,0.0825699,0.254409
-0.171692,0.204706,0.0364092,-0.118192,0.450173,0.683686,-0.22644,0.0268263,0.182681
-0.164883,0.197192,0.0491747,-0.448894,0.487894,0.714347,-0.183038,-0.0527866,0.0845391
-0.15769,0.181526,0.0632699,-0.861385,0.488712,0.930694,-0.126045,-0.124203,-0.0790491
-0.15159,0.158911,0.0810462,-1.06834,0.411346,1.13085,-0.156069,-0.155874,-0.2767
-0.149379,0.135009,0.100494,-0.958471,0.0163279,1.08817,-0.246574,-0.117965,-0.451485
-0.157996,0.116896,0.117066,-0.571191,-0.676148,0.801005,-0.325394,-0.0681846,-0.537811
-0.177186,0.106014,0.12842,-0.38582,-0.994543,0.503236,-0.359276,-0.0914655,-0.438511
-0.194162,0.0964428,0.134213,-0.461886,-0.547547,0.245869,-0.396591,-0.203206,-0.310444
-0.196829,0.0871813,0.13565,-0.359394,0.284661,0.110739,-0.386802,-0.233623,-0.376198
-0.187815,0.08379,0.135996,0.049446,0.502049,-0.0427718,-0.344215,-0.16376,-0.537283
-0.181439,0.0897816,0.133191,0.482105,0.0170472,-0.347603,-0.336593,-0.0620114,-0.554175
-0.187743,0.103589,0.125644,0.676105,-0.676354,-0.630609,-0.30766,-0.00160711,-0.39555
-0.187743,0.103589,0.125644,0.676105,-0.676354,-0.630609,-0.30766,-0.00160711,-0.39555
-0.202945,0.118622,0.113469,0.541029,-0.886394,-0.840785,-0.281048,-0.0158112,-0.16591
-0.215747,0.130985,0.0974427,0.349091,-0.529329,-0.967442,-0.252066,-0.0552566,-0.0665241
-0.217938,0.141053,0.0792164,0.27939,0.0793533,-1.00463,-0.227978,-0.0587547,-0.0889847
-0.209148,0.151181,0.0605393,0.326237,0.442577,-1.03394,-0.18967,-0.00332528,-0.184744
-0.197995,0.162155,0.0407174,0.351812,0.30537,-1.11458,-0.130675,0.0952223,-0.252309
-0.191002,0.174255,0.0188342,0.446307,0.0184608,-1.24574,-0.103453,0.149342,-0.272663
-0.18923,0.189635,-0.00519234,0.626682,-0.261329,-1.37927,-0.0836868,0.183618,-0.230297
-0.191406,0.209575,-0.0317511,0.84991,-0.480252,-1.56736,-0.0571024,0.219748,-0.131616
-0.195848,0.23459,-0.0610417,1.05366,-0.60019,-1.73935,0.0160507,0.261772,0.00881052
-0.200067,0.264164,-0.093219,1.23961,-0.603842,-1.91068,0.0900494,0.294977,0.155926
-0.201928,0.298036,-0.127818,1.4155,-0.530792,-2.01995,0.146063,0.318088,0.283432
-0.200341,0.334784,-0.163238,1.50527,-0.404707,-2.01183,0.197339,0.337278,0.409843
-0.195146,0.371542,-0.197924,1.4369,-0.290293,-1.89954,0.226379,0.344788,0.520605
-0.187705,0.404186,-0.230955,1.17165,-0.221393,-1.72904,0.233412,0.349707,0.619811
-0.178974,0.429413,-0.261919,0.786783,-0.159415,-1.52054,0.2239,0.338151,0.671604
-0.169616,0.445569,-0.290013,0.357428,-0.0886431,-1.27494,0.200739,0.316347,0.679181
-0.160044,0.451925,-0.315125,-0.099991,-0.041753,-1.0846,0.161918,0.305457,0.645665
-0.149789,0.448966,-0.338625,-0.511056,0.0727379,-0.971878,0.133967,0.307325,0.545502
-0.135378,0.438301,-0.36083,-0.804709,0.481128,-0.859832,0.105072,0.288674,0.377765
-0.111538,0.422975,-0.379745,-0.917817,1.10192,-0.615232,0.0895197,0.218916,0.13585
-0.0809892,0.403904,-0.389717,-1.11507,1.4818,-0.0830269,0.120472,0.149893,-0.0769954
-0.0542538,0.377807,-0.387166,-1.5085,1.16647,0.472391,0.121097,0.0935381,-0.25399
-0.0451778,0.34342,-0.374589,-1.84507,0.101934,0.837413,0.0994406,0.11442,-0.443355
-0.0600266,0.30513,-0.357506,-1.85018,-0.983187,0.928358,0.0590353,0.146166,-0.565396
-0.0896137,0.269211,-0.34119,-1.62734,-1.3848,0.925767,0.0234651,0.120402,-0.523072
-0.11934,0.235907,-0.324508,-1.56615,-1.10389,1.03871,0.0261138,-0.0207767,-0.373938
-0.14066,0.201363,-0.305834,-1.61999,-0.623772,1.24592,0.0512125,-0.10807,-0.315206
-0.152861,0.165859,-0.283531,-1.54544,-0.231652,1.42021,0.0321344,-0.141693,-0.365434
-0.160149,0.133565,-0.260833,-1.27183,-0.204906,1.25637,-0.0290428,-0.0940809,-0.453901
-0.16855,0.108976,-0.243108,-0.863046,-0.448225,0.868791,-0.0780692,-0.0532883,-0.485732
-0.181069,0.0936749,-0.232595,-0.47339,-0.6657,0.433032,-0.0745076,-0.0638717,-0.438996
-0.19471,0.0869983,-0.228788,-0.11723,-0.631958,0.0825195,-0.00256231,-0.0836894,-0.346703
-0.204999,0.0881224,-0.229815,0.204102,-0.383734,-0.201524,0.0852377,-0.0914654,-0.251163
-0.208985,0.0965556,-0.234876,0.522237,-0.0714714,-0.455544,0.159168,-0.0971216,-0.167763
-0.207464,0.111859,-0.242265,0.819382,0.123693,-0.547994,0.263072,-0.0833962,-0.0920125
-0.203421,0.132105,-0.248669,1.02541,0.181393,-0.468726,0.334004,-0.0972977,0.00821638
-0.199719,0.154547,-0.251421,1.10047,0.14555,-0.236607,0.379043,-0.0897353,0.126888
-0.197529,0.175814,-0.249114,1.01026,0.126324,0.0378861,0.363709,-0.0758834,0.248947
-0.196193,0.192923,-0.242187,0.792919,0.119949,0.290115,0.316122,-0.0582259,0.339344
-0.196515,0.204457,-0.231679,0.555909,0.0365874,0.491056,0.280068,-0.0180029,0.376722
-0.199926,0.211384,-0.218282,0.398133,-0.100402,0.655912,0.241188,0.0175525,0.373671
-0.206051,0.215471,-0.202586,0.324982,-0.1684,0.766478,0.194311,0.0378588,0.373493
-0.212913,0.218196,-0.185122,0.300987,-0.126786,0.847638,0.160887,0.0417704,0.375692
-0.218152,0.220106,-0.166151,0.279533,0.0194646,0.926463,0.132942,0.0344649,0.376955
-0.220614,0.22079,-0.146062,0.203277,0.180885,0.971555,0.109177,0.0343384,0.368153
-0.219385,0.219411,-0.125975,0.0953373,0.387135,0.974207,0.0779365,0.0291173,0.32397
-0.214154,0.216186,-0.105876,0.0225773,0.543309,1.03433,0.0790641,0.00932115,0.227253
-0.207906,0.21168,-0.0841237,-0.0239724,0.520734,1.14434,0.0546179,-0.0237689,0.110251
-0.203925,0.205222,-0.0609646,-0.164256,0.349676,1.19828,0.00272389,-0.0341005,0.0309497
-0.203062,0.195235,-0.0384606,-0.373697,0.200609,1.15597,-0.0659708,-0.048587,-0.0455169
-0.203001,0.181675,-0.0180825,-0.539905,0.191111,1.0884,-0.129177,-0.085695,-0.149081
-0.202184,0.166065,0.000619187,-0.604852,0.226851,1.03413,-0.136304,-0.100856,-0.268847
-0.199983,0.15102,0.0179063,-0.500634,0.246876,0.945053,-0.148427,-0.114507,-0.391208
-0.199671,0.139904,0.0341307,-0.269296,-0.0253691,0.849613,-0.171221,-0.132799,-0.486552
-0.199671,0.139904,0.0341307,-0.269296,-0.0253691,0.849613,-0.171221,-0.132799,-0.486552
-0.205056,0.133383,0.0485939,-0.102181,-0.272966,0.680326,-0.198898,-0.126167,-0.475447
-0.211632,0.129364,0.0602476,-0.0758676,-0.177822,0.552145,-0.214749,-0.155665,-0.395562
-0.213667,0.125494,0.0699289,-0.0931552,0.0908945,0.472725,-0.225719,-0.203052,-0.370788
-0.211698,0.12274,0.0783173,0.0259545,0.164197,0.397295,-0.221667,-0.175755,-0.423494
-0.210964,0.123801,0.0854056,0.233432,-0.0457857,0.25166,-0.220804,-0.122136,-0.421241
-0.215787,0.130134,0.0896385,0.468118,-0.380793,0.0215147,-0.219305,-0.0634555,-0.324237
-0.22618,0.141335,0.090438,0.627889,-0.616894,-0.18285,-0.201045,-0.0373577,-0.146012
-0.23873,0.155264,0.0884403,0.666934,-0.633359,-0.322001,-0.182971,-0.0395118,0.0347954
-0.248562,0.169437,0.0841727,0.593128,-0.398243,-0.430436,-0.183233,-0.0465825,0.161488
-0.25148,0.181721,0.077529,0.419997,0.000517591,-0.508723,-0.195369,-0.0363032,0.225333
-0.245868,0.190303,0.0678297,0.181935,0.359557,-0.64707,-0.231836,-0.0122747,0.218621
-0.233446,0.195884,0.053838,0.0572281,0.600418,-0.821803,-0.248206,0.0334857,0.115281
-0.216698,0.201139,0.0362623,0.0953583,0.717278,-0.975559,-0.239707,0.0816213,-0.0192113
-0.198458,0.208877,0.0161362,0.282651,0.678591,-1.12076,-0.225111,0.111689,-0.132124
-0.18216,0.221751,-0.00630353,0.587319,0.454824,-1.28402,-0.213632,0.158628,-0.196327
-0.171091,0.241323,-0.0314588,0.906527,0.0600979,-1.48748,-0.174489,0.21613,-0.171664
-0.166669,0.266306,-0.0604193,1.06562,-0.311614,-1.69439,-0.115676,0.264772,-0.0380142
-0.165531,0.293629,-0.0924557,1.11906,-0.420243,-1.7791,-0.0516727,0.252165,0.11651
-0.163576,0.321368,-0.124982,1.1036,-0.351649,-1.73051,0.0292968,0.246346,0.237683
-0.15937,0.347971,-0.156153,1.04324,-0.257525,-1.60284,0.0879819,0.23952,0.317588
-0.153846,0.372133,-0.184437,0.92248,-0.182318,-1.39298,0.134984,0.244066,0.382053
-0.147456,0.392241,-0.209046,0.715484,-0.093671,-1.17155,0.149283,0.230206,0.435039
-0.140389,0.406856,-0.22997,0.454518,-0.0204996,-0.950602,0.153988,0.217455,0.462862
-0.133348,0.415663,-0.24719,0.212618,0.046093,-0.749752,0.145924,0.208881,0.453465
-0.125639,0.419884,-0.26149,0.0517938,0.157423,-0.607117,0.12393,0.213014,0.396051
-0.117235,0.42089,-0.272963,-0.0901817,0.209845,-0.442066,0.129311,0.217533,0.335599
-0.109954,0.418052,-0.281016,-0.285478,0.182742,-0.253969,0.120684,0.186743,0.272849
-0.104798,0.410431,-0.285019,-0.523512,0.182885,-0.0205415,0.112978,0.154955,0.198158
-0.10114,0.397047,-0.283925,-0.814782,0.228606,0.267627,0.124699,0.135888,0.102431
-0.0993816,0.377079,-0.277177,-1.1128,0.169544,0.553016,0.105751,0.0872616,-0.0279533
-0.102383,0.350538,-0.265163,-1.43834,-0.0629785,0.829028,0.0857195,0.046101,-0.166804
-0.111483,0.316447,-0.248975,-1.79475,-0.282748,1.05227,0.0902867,0.0587658,-0.267604
-0.12215,0.275437,-0.229837,-2.04784,-0.169953,1.25598,0.0763448,0.00582376,-0.38277
-0.127712,0.230956,-0.207565,-2.0535,0.179592,1.43291,0.0395414,-0.0293315,-0.52891
-0.127632,0.189661,-0.183321,-1.69736,0.263403,1.41633,-0.0165372,-0.00571796,-0.695323
-0.128682,0.158742,-0.161148,-1.06478,-0.0278978,1.10096,-0.0762436,0.0582683,-0.768158
-0.136685,0.142541,-0.146107,-0.36876,-0.55474,0.582484,-0.112452,0.0803523,-0.700099
-0.152145,0.139209,-0.139311,0.0879275,-0.842026,0.154182,-0.0765924,0.0562858,-0.463893
-0.168411,0.143202,-0.138508,0.285297,-0.721983,-0.105085,0.0278389,0.00155436,-0.219826
-0.178842,0.150179,-0.140585,0.360311,-0.333488,-0.200681,0.135086,-0.0451026,-0.0468012
-0.180848,0.158639,-0.143456,0.429268,0.0781327,-0.209553,0.21383,-0.059662,0.0516465
-0.175622,0.168893,-0.145565,0.558154,0.374306,-0.180971,0.253869,-0.0504913,0.110776
-0.167363,0.182127,-0.146595,0.733824,0.403343,-0.13471,0.277871,-0.0357514,0.155541
-0.160257,0.198338,-0.145545,0.870832,0.334483,-0.0193442,0.290644,-0.0250817,0.23181
-0.155307,0.215663,-0.141217,0.889961,0.247823,0.175266,0.29229,-0.020166,0.330358
-0.152722,0.231335,-0.132729,0.766836,0.209824,0.411602,0.274404,-0.0139783,0.421291
-0.151371,0.242423,-0.119856,0.509334,0.243442,0.653051,0.227744,-0.00530568,0.478992
-0.149549,0.247689,-0.103402,0.267446,0.334561,0.847264,0.169714,0.0148484,0.466961
-0.146669,0.248685,-0.0838862,0.129645,0.417421,1.00861,0.116699,0.0469714,0.392379
-0.144073,0.247427,-0.0619201,0.0525222,0.369413,1.11814,0.069592,0.0782083,0.32353
-0.143248,0.244032,-0.0382263,-0.0684906,0.289782,1.20941,0.0245302,0.0954229,0.280608
-0.144159,0.237272,-0.0133838,-0.266701,0.226137,1.27841,-0.0223976,0.0813963,0.2567
-0.145333,0.226161,0.0116516,-0.467931,0.251406,1.29011,-0.0702922,0.0624791,0.201657
-0.144879,0.212394,0.0358674,-0.526738,0.31654,1.24755,-0.1044,0.0466771,0.106585
-0.144879,0.212394,0.0358674,-0.526738,0.31654,1.24755,-0.1044,0.0466771,0.106585
-0.143874,0.199151,0.0588528,-0.455535,0.232532,1.17433,-0.120625,0.0392221,0.010192
-0.144482,0.18749,0.0802756,-0.410121,0.12157,1.08069,-0.150612,0.0173717,-0.0283261
-0.146698,0.176324,0.0998555,-0.431433,0.0121054,0.998278,-0.178863,-0.0304289,-0.0519582
-0.150041,0.163887,0.118144,-0.547037,-0.0183143,0.970629,-0.190186,-0.069359,-0.0638058
-0.151642,0.149322,0.134597,-0.63742,0.153853,0.848341,-0.236148,-0.0994161,-0.107772
-0.148127,0.134276,0.147811,-0.646997,0.386045,0.692086,-0.275175,-0.117104,-0.19121
-0.140874,0.119988,0.158602,-0.619069,0.436302,0.57082,-0.292166,-0.156026,-0.294887
-0.134244,0.10604,0.167077,-0.663147,0.313937,0.473721,-0.276091,-0.179513,-0.370826
-0.129217,0.090979,0.174399,-0.736301,0.28972,0.454006,-0.271211,-0.212186,-0.438815
-0.123486,0.0755201,0.181062,-0.691089,0.33017,0.386476,-0.316723,-0.238196,-0.5353
-0.118381,0.0634519,0.185509,-0.426678,0.171361,0.175816,-0.352424,-0.178671,-0.633677
-0.118215,0.0589396,0.185368,-0.0111021,-0.163984,-0.134672,-0.352464,-0.108544,-0.642859
-0.124605,0.063803,0.180337,0.425017,-0.507013,-0.427109,-0.308846,-0.0772925,-0.552008
-0.136671,0.0771797,0.171349,0.76501,-0.74111,-0.612006,-0.242547,-0.0584255,-0.371619
-0.151019,0.0960383,0.160549,0.920189,-0.754193,-0.720955,-0.202786,-0.0442765,-0.146385
-0.163084,0.116626,0.148237,0.903622,-0.566244,-0.817676,-0.198498,-0.0229665,0.0357687
-0.169839,0.135999,0.134035,0.761606,-0.289359,-0.88939,-0.194063,-0.0117127,0.141611
-0.170424,0.151792,0.118105,0.528129,-0.00623239,-0.940579,-0.191389,0.0108284,0.176223
-0.165865,0.163721,0.100212,0.385689,0.153029,-1.0099,-0.200002,0.0408285,0.0911291
-0.159141,0.174918,0.0806565,0.434467,0.163929,-1.09051,-0.194076,0.0959484,-0.0306323
-0.153078,0.188417,0.0589723,0.58193,0.0424973,-1.24458,-0.191115,0.163699,-0.111002
-0.149231,0.205972,0.0345118,0.80452,-0.147469,-1.41016,-0.180378,0.203023,-0.149845
-0.148775,0.228345,0.0069139,1.00752,-0.39946,-1.5939,-0.152847,0.254853,-0.110722
-0.151386,0.254459,-0.0236698,1.12531,-0.574725,-1.73781,-0.104032,0.2917,-0.000102103
-0.154908,0.282587,-0.0565932,1.16579,-0.634063,-1.82993,-0.0429159,0.307711,0.111314
-0.157065,0.311147,-0.0908903,1.15029,-0.578493,-1.85575,0.0189809,0.311827,0.205676
-0.156405,0.339245,-0.125244,1.12301,-0.451174,-1.79623,0.0724125,0.306012,0.266319
-0.152863,0.366248,-0.158022,1.0735,-0.328633,-1.66376,0.119937,0.304877,0.310836
-0.147355,0.391136,-0.188124,0.971561,-0.242737,-1.47886,0.135536,0.297377,0.350157
-0.141344,0.412851,-0.214805,0.828262,-0.20255,-1.27513,0.136606,0.297584,0.376344
-0.136308,0.430768,-0.237783,0.649219,-0.269198,-1.0516,0.135192,0.297329,0.37504
-0.135456,0.443346,-0.256706,0.35171,-0.427511,-0.832942,0.121163,0.277826,0.38522
-0.137681,0.44925,-0.272393,0.0617665,-0.436566,-0.657484,0.098222,0.239619,0.365531
-0.139103,0.449989,-0.284701,-0.135503,-0.219918,-0.449145,0.0950515,0.207371,0.294586
-0.137298,0.446774,-0.292541,-0.27634,0.0692115,-0.197039,0.101308,0.175925,0.202258
-0.132915,0.43996,-0.294562,-0.438783,0.237004,0.112186,0.0854339,0.142197,0.105788
-0.130745,0.428067,-0.290437,-0.715917,0.11369,0.406842,0.0773802,0.132932,0.0365874
-0.134808,0.409435,-0.282229,-1.02251,-0.19618,0.552361,0.0396885,0.121556,-0.0277597
-0.145307,0.385929,-0.273601,-1.17867,-0.499349,0.557999,0.00462952,0.0962072,-0.104051
-0.159339,0.360188,-0.265581,-1.25326,-0.576066,0.58413,0.0210127,0.0260797,-0.148625
-0.171968,0.332414,-0.256465,-1.36374,-0.325168,0.751975,0.110011,-0.0261216,-0.176763
-0.178613,0.300704,-0.242819,-1.54912,0.0969944,1.11094,0.154693,-0.131542,-0.232979
-0.17888,0.263822,-0.222003,-1.71985,0.389553,1.47784,0.123844,-0.178162,-0.332017
-0.177363,0.224405,-0.198066,-1.71673,0.297098,1.45653,0.0348802,-0.107811,-0.459374
-0.178325,0.189605,-0.17697,-1.28019,-0.0101422,1.14826,-0.036369,-0.035269,-0.580751
-0.186315,0.168331,-0.162714,-0.555432,-0.538813,0.593633,-0.0899926,-0.0125628,-0.603446
-0.200875,0.162563,-0.157219,0.0533802,-0.736056,0.0706779,-0.0721928,-0.0207998,-0.441566
-0.213367,0.168111,-0.158512,0.426783,-0.487133,-0.276249,0.00667937,-0.0794597,-0.226228
-0.218243,0.180022,-0.163377,0.611142,-0.0755862,-0.427847,0.117343,-0.11259,-0.0703965
-0.214898,0.194494,-0.169348,0.671302,0.282116,-0.41847,0.201323,-0.123274,0.015981
-0.20667,0.209095,-0.172978,0.676235,0.425217,-0.222726,0.27988,-0.112906,0.0604144
-0.198846,0.222087,-0.172413,0.602862,0.368312,0.0140458,0.296827,-0.0926458,0.109722
-0.193676,0.232352,-0.167492,0.500857,0.258633,0.254748,0.275567,-0.0645478,0.155892
-0.193676,0.232352,-0.167492,0.500857,0.258633,0.254748,0.275567,-0.0645478,0.155892
-0.19151,0.239811,-0.158688,0.410317,0.164451,0.434423,0.221165,-0.0408627,0.194393
-0.191747,0.245589,-0.147032,0.382271,0.104401,0.568671,0.183452,-0.00375959,0.224846
-0.193446,0.250764,-0.132751,0.392172,0.0738752,0.691405,0.146846,0.0193236,0.258317
-0.196136,0.255323,-0.11626,0.357833,0.0785784,0.786628,0.106028,0.0338536,0.3063
-0.1992,0.258381,-0.0984714,0.276118,0.0602934,0.837262,0.0650805,0.0453871,0.344629
-0.202596,0.259433,-0.08044,0.17276,0.0707128,0.854486,0.0343229,0.0435806,0.364035
-0.205349,0.258192,-0.0626559,0.054382,0.108544,0.861337,0.00717843,0.0301286,0.372092
-0.20732,0.25437,-0.0453798,-0.0832113,0.129475,0.856486,-0.0224956,0.0061982,0.357986
-0.208968,0.248361,-0.0289503,-0.169389,0.108056,0.824132,-0.05482,-0.0179023,0.307223
-0.211053,0.24156,-0.0139154,-0.176451,0.0371748,0.736332,-0.0970081,-0.0408115,0.240177
-0.214354,0.235835,-0.000996755,-0.12376,-0.0510482,0.605989,-0.146199,-0.0640442,0.18757
-0.217615,0.231443,0.00882185,-0.119822,-0.0184845,0.414174,-0.213073,-0.0874208,0.162157
-0.217652,0.226901,0.0139783,-0.232654,0.141309,0.179729,-0.272583,-0.111009,0.120798
-0.213425,0.220433,0.0146182,-0.392635,0.291743,0.0510181,-0.270688,-0.159842,0.00136214
-0.205891,0.210639,0.0137846,-0.585681,0.433422,0.0887713,-0.209015,-0.181402,-0.151857
-0.198052,0.197729,0.0137234,-0.663698,0.284447,0.171188,-0.21163,-0.219787,-0.346834
-0.196405,0.184298,0.0155654,-0.610522,-0.0948124,0.243274,-0.234735,-0.216829,-0.50875
-0.200855,0.172663,0.0171077,-0.496565,-0.240536,0.104826,-0.292702,-0.183952,-0.596792
-0.201709,0.165038,0.0150648,-0.277837,0.196559,-0.151611,-0.331416,-0.140169,-0.642519
-0.19182,0.163702,0.00929815,0.041519,0.646414,-0.376555,-0.276029,-0.0747445,-0.704744
-0.176125,0.169672,0.000459437,0.407836,0.694327,-0.584344,-0.207244,0.0196585,-0.722372
-0.1655,0.184521,-0.0109575,0.873116,0.0831469,-0.778619,-0.141426,0.0686071,-0.673718
-0.169347,0.20792,-0.0243579,1.18016,-0.695253,-0.884274,-0.055077,0.116963,-0.454464
-0.185438,0.234648,-0.0377431,1.17977,-1.14788,-0.867885,-0.0081908,0.116015,-0.132945
-0.206074,0.258626,-0.0506957,0.90294,-1.17717,-0.847932,0.00594907,0.101516,0.1389
-0.222773,0.276272,-0.0642965,0.554422,-0.808616,-0.798659,0.015596,0.0904432,0.283062
-0.229307,0.28741,-0.0773309,0.260626,-0.186201,-0.684733,0.023765,0.0969914,0.329235
-0.223718,0.29309,-0.0901997,0.0367051,0.329828,-0.671466,0.00757702,0.130022,0.295177
-0.21055,0.2964,-0.104594,0.0239518,0.509556,-0.746847,-0.000311002,0.196879,0.176133
-0.196755,0.301211,-0.120341,0.152217,0.36339,-0.833254,-0.0111435,0.236664,0.0997759
-0.188056,0.30885,-0.137701,0.278934,-0.0436553,-0.95262,-0.00985362,0.253655,0.0898334
-0.187474,0.319006,-0.157895,0.354501,-0.504113,-1.13599,-0.00417757,0.275003,0.140078
-0.192371,0.331178,-0.181642,0.424081,-0.691386,-1.30013,0.0184442,0.279809,0.243432
-0.197212,0.345304,-0.20758,0.483295,-0.627931,-1.36566,0.0561203,0.248929,0.325642
-0.199508,0.359892,-0.233868,0.447206,-0.512616,-1.33804,0.107655,0.228272,0.396877
-0.199507,0.372846,-0.259454,0.338159,-0.396539,-1.25908,0.149643,0.206583,0.435511
-0.196587,0.382643,-0.283292,0.174571,-0.16256,-1.10371,0.171752,0.177619,0.450081
-0.189055,0.387834,-0.30415,-0.037815,0.140217,-0.909939,0.169029,0.137064,0.429897
-0.17638,0.388107,-0.321826,-0.221671,0.462534,-0.703154,0.14226,0.10326,0.35429
-0.15944,0.384257,-0.335639,-0.382723,0.706564,-0.510549,0.100114,0.0788043,0.248586
-0.140063,0.376292,-0.346659,-0.562131,0.777404,-0.390974,0.0573281,0.0635498,0.122601
-0.122745,0.364047,-0.354944,-0.765262,0.649123,-0.195003,0.0765255,0.045283,0.00458133
-0.11035,0.346622,-0.357664,-1.00164,0.490111,0.162016,0.104431,-0.0141596,-0.106607
-0.104282,0.323734,-0.352351,-1.22313,0.286006,0.575449,0.0929027,-0.0640174,-0.225568
-0.104276,0.296773,-0.340366,-1.3132,0.0804981,0.794568,0.00951031,-0.062468,-0.337453
-0.109142,0.270715,-0.326978,-1.10564,-0.241655,0.740954,-0.0905828,-0.03539,-0.4638
-0.121847,0.250282,-0.315795,-0.806234,-0.707687,0.561004,-0.113809,-0.067737,-0.517879
-0.139267,0.235643,-0.306797,-0.569901,-0.737088,0.547425,-0.0345592,-0.0888283,-0.431703
-0.151988,0.222735,-0.295982,-0.59006,-0.219753,0.69395,-0.0213276,-0.200412,-0.311322
-0.153916,0.207546,-0.282003,-0.690275,0.261763,0.894683,-0.0294552,-0.226879,-0.316781
-0.15087,0.192075,-0.265966,-0.545007,0.319409,0.841565,-0.0383334,-0.133674,-0.437453
-0.148953,0.183425,-0.25237,-0.0807752,0.0730692,0.589078,-0.0615299,-0.0251519,-0.504988
-0.153573,0.185692,-0.244067,0.415686,-0.373085,0.176233,-0.0797779,0.0449173,-0.430507
-0.164736,0.197517,-0.242707,0.753885,-0.677085,-0.211144,-0.0294276,0.072029,-0.249424
-0.164736,0.197517,-0.242707,0.753885,-0.677085,-0.211144,-0.0294276,0.072029,-0.249424
-0.177645,0.215475,-0.246609,0.933013,-0.641153,-0.454269,0.0674473,0.0749563,-0.0597541
-0.18604,0.236616,-0.253586,1.01825,-0.328065,-0.582599,0.157308,0.0699245,0.0779206
-0.186346,0.25934,-0.261624,1.07447,0.103351,-0.583755,0.231701,0.0785712,0.158444
-0.178768,0.282629,-0.268368,1.0907,0.456785,-0.475158,0.273027,0.100079,0.209456
-0.16633,0.304729,-0.272767,1.0015,0.626815,-0.31245,0.27282,0.114244,0.254698
-0.153829,0.322873,-0.273843,0.758163,0.559816,-0.0701463,0.271099,0.120942,0.296474
-0.145776,0.334559,-0.270501,0.447003,0.345627,0.214686,0.250701,0.110961,0.315137
-0.144142,0.339705,-0.262224,0.194703,0.105642,0.477311,0.211667,0.117541,0.312561
-0.147643,0.340406,-0.249756,0.0693045,-0.0232446,0.661209,0.151102,0.130699,0.306433
-0.153527,0.33933,-0.234552,0.0487465,-0.0454777,0.767688,0.0882502,0.142517,0.306917
-0.159927,0.33773,-0.217548,0.0340658,-0.026038,0.841532,0.0412564,0.149645,0.331402
