attitude_roll,attitude_pitch,attitude_yaw,rotationRate_x,rotationRate_y,rotationRate_z,acceleration_x,acceleration_y,acceleration_z
0.0679901,0.29559,-0.0101262,-0.562622,0.0584635,-0.834803,-0.0408824,0.0289449,-0.0171832
0.069424,0.286072,-0.0257478,-0.275886,-0.336281,-0.727066,-0.000371724,0.0446067,-0.0476509
0.0644907,0.282394,-0.0398839,-0.0214753,-0.52817,-0.668248,-0.0197944,0.0361939,-0.0666604
0.0574177,0.28219,-0.0538169,0.0573217,-0.556433,-0.678421,-0.0532549,0.0215013,-0.047696
0.050963,0.282707,-0.0682722,0.0697903,-0.460563,-0.718303,-0.0693961,0.00272599,-0.0544316
0.0479258,0.283196,-0.0837502,0.0484313,-0.278286,-0.760128,-0.0844666,0.0094828,-0.0550954
0.0481213,0.282655,-0.0996129,-0.0355703,-0.154626,-0.761464,-0.0645655,0.00977132,-0.0290134
0.0498476,0.280013,-0.114984,-0.154273,-0.113651,-0.737419,-0.050816,0.000443727,-0.00498569
0.0513206,0.275317,-0.129868,-0.224846,-0.1501,-0.72429,-0.0521738,-0.0100696,-0.00880706
0.0517447,0.270155,-0.144771,-0.208439,-0.205402,-0.746678,-0.0683546,-0.021175,-0.0328147
0.0513685,0.265746,-0.160217,-0.152043,-0.22538,-0.764784,-0.0711347,-0.0207575,-0.0467823
0.0515309,0.262704,-0.175915,-0.0715468,-0.165563,-0.771233,-0.0757572,-0.0189325,-0.0646434
0.0526813,0.261299,-0.191643,0.00761629,-0.131973,-0.75801,-0.0718046,-0.0161544,-0.0608588
0.0539387,0.261255,-0.207125,0.0603696,-0.160039,-0.748248,-0.0713092,-0.0207591,-0.0419761
0.0541021,0.261828,-0.22274,0.0681324,-0.212591,-0.765456,-0.0780201,-0.0267366,-0.0229064
0.0540239,0.261906,-0.238847,0.0168002,-0.207408,-0.797016,-0.0941636,-0.0340619,-0.00886911
0.0541592,0.260762,-0.255964,-0.0323842,-0.224489,-0.868423,-0.100185,-0.0420029,-0.00523943
0.0547531,0.25942,-0.274584,0.00349257,-0.201907,-0.935714,-0.0900192,-0.041881,-0.0321476
0.0555255,0.258913,-0.29422,0.051636,-0.227217,-0.965724,-0.0740787,-0.0279358,-0.0299076
0.0560938,0.259539,-0.314557,0.132287,-0.218759,-1.00399,-0.0662565,-0.0287048,-0.0371021
0.0575631,0.262104,-0.335953,0.233784,-0.195614,-1.0486,-0.0566041,-0.0135151,-0.0303055
0.0594264,0.265706,-0.358067,0.239687,-0.200513,-1.06397,-0.0272932,-0.00686443,0.016381
0.0611183,0.268768,-0.380216,0.189315,-0.220809,-1.06283,-0.0112494,-0.00204986,0.0495638
0.0616947,0.270187,-0.40246,0.0788758,-0.321002,-1.07731,-0.00422774,-0.00371832,0.0748178
0.0605516,0.269144,-0.424998,-0.0482711,-0.382439,-1.10481,-0.000108514,-0.011712,0.070417
0.058803,0.265965,-0.447988,-0.124691,-0.395156,-1.13367,-0.00573837,0.000602543,0.0377262
0.0569846,0.2621,-0.471349,-0.122009,-0.402732,-1.14268,0.00367665,0.0139313,-0.000441492
0.0544447,0.258738,-0.494556,-0.0804032,-0.454813,-1.11849,0.017111,0.0250261,-0.0170645
0.0507841,0.256748,-0.517043,-0.00587394,-0.485215,-1.06772,0.0377852,0.0367424,-0.0326069
0.0463753,0.256044,-0.538343,0.0297385,-0.486182,-0.998093,0.0557233,0.0482692,-0.0258129
0.0419732,0.256177,-0.558376,0.0774569,-0.455821,-0.943632,0.0795409,0.0361596,-0.0452202
0.0378765,0.257673,-0.57714,0.144401,-0.43222,-0.865249,0.102848,0.0519958,-0.0547498
0.0339518,0.260401,-0.594258,0.17237,-0.426918,-0.781123,0.134588,0.0574099,-0.034331
0.0282499,0.262859,-0.60955,0.115378,-0.53176,-0.688744,0.184119,0.0527498,-0.0175223
0.0212996,0.264072,-0.622949,0.0392359,-0.486465,-0.6116,0.214334,0.0365718,-0.0521109
0.0161565,0.263929,-0.634995,-0.0230041,-0.338804,-0.556292,0.231947,0.0201991,-0.100885
0.0146639,0.263317,-0.646034,-0.0125215,-0.100793,-0.518054,0.22719,0.0133367,-0.147991
0.0167713,0.263212,-0.65632,0.017712,0.0323131,-0.478525,0.224698,0.0105495,-0.150101
0.0202904,0.263495,-0.665789,0.0247306,0.0597751,-0.438408,0.220462,0.0018656,-0.135345
0.0240272,0.26369,-0.674584,0.0162007,0.0931069,-0.41478,0.198119,-0.00401899,-0.132912
0.0291149,0.263979,-0.682854,0.043832,0.219164,-0.382021,0.181126,-0.012666,-0.153504
0.0374905,0.265553,-0.690363,0.148716,0.436967,-0.339847,0.133662,-0.00565392,-0.162989
0.050099,0.269466,-0.697312,0.268562,0.617123,-0.324793,0.0773394,-0.0148503,-0.129551
0.0649244,0.274853,-0.704707,0.306813,0.66231,-0.36164,0.0094253,-0.0304596,-0.0484889
0.0806123,0.28044,-0.713511,0.311501,0.665131,-0.446134,-0.0333881,-0.0491191,0.0179024
0.0968922,0.285321,-0.724253,0.258209,0.666819,-0.53648,-0.04893,-0.05197,0.0798266
0.113432,0.288562,-0.736341,0.198065,0.636597,-0.584389,-0.0446819,-0.0554532,0.119104
0.128875,0.290752,-0.749285,0.179435,0.529295,-0.622142,-0.088533,-0.0176944,0.12643
0.141039,0.292815,-0.762781,0.205333,0.273646,-0.63353,-0.0981356,-0.00546491,0.124198
0.147991,0.29562,-0.777044,0.276086,0.0474362,-0.689637,-0.109485,-0.00598451,0.0876294
0.153075,0.299341,-0.792967,0.303514,0.0164317,-0.751032,-0.109534,0.00938353,0.0518712
0.159093,0.302427,-0.809448,0.226414,0.0991902,-0.760253,-0.103976,0.0266591,0.0506084
0.16658,0.303092,-0.825856,0.0999509,0.161991,-0.779811,-0.127704,0.0561323,0.0590353
0.16658,0.303092,-0.825856,0.0999509,0.161991,-0.779811,-0.127704,0.0561323,0.0590353
0.175272,0.301675,-0.842256,0.0335396,0.210912,-0.783007,-0.123105,0.0781256,0.0659285
0.184063,0.299342,-0.857728,0.0076372,0.198016,-0.707134,-0.101293,0.100175,0.0909556
0.191564,0.297238,-0.871169,0.0314329,0.163878,-0.607768,-0.0722127,0.078952,0.111526
0.198083,0.29597,-0.88322,0.0610978,0.131108,-0.564406,-0.0456554,0.0271419,0.137675
0.203193,0.294224,-0.89523,-0.0300551,0.0239202,-0.610997,-0.0240429,-0.0255541,0.180945
0.206317,0.289082,-0.907836,-0.232765,-0.0496866,-0.674414,0.000421032,-0.0628124,0.198493
0.208967,0.279873,-0.920138,-0.410225,-0.0136012,-0.663449,0.0535668,-0.0896261,0.170224
0.212008,0.268449,-0.930836,-0.47713,0.0164668,-0.574907,0.0984748,-0.0772624,0.113006
0.214841,0.257475,-0.939103,-0.412146,0.0515879,-0.440856,0.112683,-0.0689838,0.0534161
0.216329,0.249192,-0.945085,-0.268932,-0.0725434,-0.305849,0.13044,-0.0998601,0.0213988
0.21412,0.244634,-0.949308,-0.0961017,-0.256975,-0.200632,0.134705,-0.109163,0.00887609
0.207993,0.242967,-0.95252,-0.0215812,-0.423984,-0.145745,0.114952,-0.121553,0.0148638
0.200193,0.241443,-0.954807,-0.107206,-0.37074,-0.107303,0.107325,-0.159944,0.0244928
0.195233,0.238022,-0.956169,-0.181279,-0.173929,-0.0989631,0.127224,-0.191527,0.00345433
0.191495,0.235185,-0.957599,-0.0485102,-0.281621,-0.0944642,0.168932,-0.20788,-0.0168471
0.184573,0.235343,-0.959797,0.0757905,-0.449881,-0.125364,0.189253,-0.216439,-0.00866705
0.175589,0.235578,-0.962942,-0.04433,-0.506869,-0.167241,0.162366,-0.185647,0.02092
0.166678,0.231516,-0.965573,-0.324517,-0.436271,-0.143686,0.144442,-0.147027,0.00415748
0.159365,0.222679,-0.9663,-0.508028,-0.305682,-0.0621963,0.125653,-0.120709,-0.0813154
0.154878,0.213126,-0.965033,-0.416285,-0.117133,0.0405531,0.108599,-0.113389,-0.207115
0.153438,0.208505,-0.962547,-0.0482035,0.00397714,0.121492,0.0734805,-0.102039,-0.291469
0.152333,0.212153,-0.960444,0.361446,-0.113393,0.126164,0.0312231,-0.0874998,-0.254856
0.147604,0.221991,-0.959853,0.555663,-0.344457,0.066597,-0.00130866,-0.0700802,-0.139638
0.139705,0.232373,-0.960799,0.44441,-0.430866,-0.00340336,-0.0402779,-0.0293408,-0.0463834
0.13255,0.238531,-0.961914,0.18712,-0.286664,-0.00872758,-0.0709096,0.00687476,-0.0184963
0.128728,0.240766,-0.962383,0.0773175,-0.113872,-0.0150758,-0.134634,0.0407845,-0.0477746
0.127919,0.242983,-0.963687,0.188415,-0.0172193,-0.0925665,-0.208982,0.0823346,-0.0893077
0.128375,0.248564,-0.967586,0.427303,-0.0549678,-0.209014,-0.244129,0.111445,-0.077436
0.127557,0.258392,-0.974484,0.615691,-0.206203,-0.329892,-0.24959,0.138263,-0.0164097
0.124898,0.270073,-0.983965,0.625128,-0.286766,-0.427817,-0.253465,0.172976,0.060721
0.122449,0.279689,-0.99503,0.436131,-0.242468,-0.524126,-0.27409,0.180872,0.114834
0.122812,0.283775,-1.00833,0.115906,-0.0845566,-0.70721,-0.328053,0.183515,0.139008
0.127187,0.28097,-1.02466,-0.182488,0.038838,-0.884774,-0.344877,0.17629,0.132134
0.132668,0.273241,-1.04371,-0.324191,-0.0373366,-1.02939,-0.303336,0.164705,0.105014
0.135683,0.263642,-1.06471,-0.347227,-0.214154,-1.10007,-0.240502,0.162897,0.0659489
0.13628,0.253976,-1.08644,-0.327932,-0.256649,-1.12111,-0.20105,0.157367,0.0197988
0.137767,0.244703,-1.10846,-0.294022,-0.108266,-1.11534,-0.171418,0.141926,-0.00962532
0.142054,0.236702,-1.12963,-0.209157,-0.000262398,-1.02871,-0.1002,0.102067,-0.00715774
0.145506,0.230788,-1.14892,-0.113953,-0.144865,-0.926046,-0.0323075,0.0382693,0.041889
0.143495,0.226705,-1.16651,-0.0418254,-0.444826,-0.834632,-0.000534862,-0.0206548,0.0711481
0.13698,0.224849,-1.18252,0.0843338,-0.525472,-0.738777,0.0235323,-0.0634636,0.0325605
0.130122,0.226424,-1.19684,0.262598,-0.468572,-0.629619,0.0475226,-0.0909054,0.00493371
0.124311,0.231823,-1.21012,0.420239,-0.43809,-0.611124,0.053093,-0.146866,0.0205486
0.118025,0.238834,-1.22403,0.411345,-0.499512,-0.645041,0.044161,-0.149035,0.0735281
0.112212,0.243961,-1.23759,0.244497,-0.382181,-0.602934,0.0377622,-0.119002,0.0821753
0.109468,0.246199,-1.2502,0.121481,-0.202319,-0.609634,0.017565,-0.0997868,0.0544796
0.110342,0.246699,-1.26329,0.0783105,-0.036865,-0.632227,0.0104797,-0.0820898,0.0234884
0.113063,0.247268,-1.2755,0.123549,0.00862661,-0.533674,0.0447689,-0.0573069,-0.00689703
0.116353,0.249921,-1.28545,0.263952,0.070653,-0.381813,0.0722241,-0.0407587,-0.0383211
0.119448,0.256146,-1.29223,0.422932,0.0570944,-0.207937,0.0875745,-0.0407285,-0.0423574
0.119448,0.256146,-1.29223,0.422932,0.0570944,-0.207937,0.0875745,-0.0407285,-0.0423574
0.120214,0.264764,-1.29643,0.457505,-0.114581,-0.0970572,0.0802993,-0.047111,-0.00963032
0.115983,0.273342,-1.29832,0.424477,-0.367721,0.0215719,0.0881428,-0.0600963,-0.0272377
0.106213,0.282487,-1.2975,0.498876,-0.555186,0.156157,0.115855,-0.0631589,-0.108859
0.0946326,0.294105,-1.29451,0.624571,-0.482575,0.232126,0.142232,-0.0998721,-0.183557
0.0860745,0.307297,-1.2902,0.62567,-0.242925,0.306828,0.163939,-0.133949,-0.191442
0.0810883,0.318579,-1.28377,0.416692,-0.0684584,0.39147,0.119289,-0.0955347,-0.11687
0.0789352,0.323654,-1.27651,0.0181257,0.0976307,0.308912,0.0219358,-0.0849971,-0.0561848
0.0813285,0.320133,-1.27188,-0.392879,0.281794,0.101657,-0.0364925,-0.0935254,-0.055424
0.087767,0.309861,-1.2701,-0.600383,0.414707,0.0160121,-0.00854398,-0.0454465,-0.100255
0.0957571,0.299097,-1.26776,-0.43466,0.418089,0.136697,0.0888555,0.012568,-0.174263
0.10135,0.295136,-1.26213,0.00677358,0.310739,0.369619,0.140488,0.0783155,-0.195013
0.103396,0.300543,-1.25255,0.412936,0.171438,0.589751,0.138139,0.103443,-0.13159
0.102211,0.312509,-1.23988,0.61976,0.119588,0.71994,0.10579,0.0834785,-0.0240736
0.100472,0.326391,-1.22618,0.599198,0.131676,0.694979,0.0606316,0.0637147,0.0866396
0.0989881,0.337936,-1.21386,0.422688,0.122569,0.57777,0.0413913,0.0516484,0.159373
0.0977544,0.345108,-1.20354,0.201904,0.101378,0.474186,0.045317,0.0623893,0.17971
0.0957298,0.348445,-1.19393,0.0603025,0.00144563,0.472559,0.0627179,0.102561,0.160485
0.0901484,0.349735,-1.1837,-0.0214821,-0.214524,0.495998,0.0695373,0.122952,0.13325
0.0810549,0.348938,-1.17324,-0.150895,-0.285858,0.468805,0.0311976,0.111996,0.079626
0.0739037,0.345256,-1.16363,-0.27715,-0.0750369,0.405822,-0.0113738,0.0947547,-0.00158215
0.0722298,0.340185,-1.15525,-0.254707,0.183032,0.351121,-0.0263291,0.0804877,-0.0709955
0.0750581,0.337394,-1.14746,-0.0601747,0.336523,0.373612,-0.0189105,0.0817009,-0.10109
0.0792531,0.339396,-1.13884,0.196473,0.354676,0.442695,-0.0161365,0.0703905,-0.0661838
0.0827114,0.345859,-1.13042,0.363962,0.262521,0.38449,-0.056271,0.0465095,0.0208203
0.0845324,0.353966,-1.12422,0.373698,0.13801,0.258865,-0.0891919,0.0219596,0.113153
0.085371,0.360655,-1.12078,0.259077,0.0783669,0.121065,-0.0861294,-0.000506282,0.168907
0.0867609,0.364489,-1.11982,0.116429,0.109179,0.0037817,-0.0774348,0.00652701,0.183172
0.0899813,0.365516,-1.1207,-0.00121853,0.180655,-0.0699417,-0.067841,0.0276127,0.17009
0.0948614,0.364623,-1.12272,-0.0652163,0.227083,-0.128421,-0.0593174,0.0374598,0.155018
0.100247,0.362653,-1.12586,-0.105097,0.160774,-0.183767,-0.0404999,0.0376782,0.150053
0.103931,0.3598,-1.13003,-0.13099,0.0791584,-0.222402,-0.0365696,0.0540986,0.139108
0.105644,0.35725,-1.13393,-0.0684582,-0.0481572,-0.173672,0.0374708,0.0059188,0.104994
0.105759,0.356722,-1.13741,0.0379201,-0.0418791,-0.155277,0.0486664,0.0032115,0.0922724
0.105933,0.356821,-1.14005,-0.0308041,-0.0526451,-0.0931178,0.0866699,-0.0536874,0.127804
0.104195,0.354056,-1.14181,-0.237624,-0.20046,-0.125163,0.0539031,-0.0927179,0.160625
0.0996412,0.346621,-1.14483,-0.464439,-0.340927,-0.226201,-5.42998e-05,-0.103943,0.111169
0.0941676,0.335387,-1.14923,-0.597775,-0.324045,-0.293242,-0.0106035,-0.102262,0.00621587
0.090857,0.322575,-1.15466,-0.606861,-0.168309,-0.32416,-0.00847657,-0.106879,-0.0956509
0.0912997,0.311082,-1.16008,-0.480196,0.0309916,-0.284888,0.0192212,-0.115771,-0.172766
0.0937922,0.302821,-1.16446,-0.301163,0.0478895,-0.208065,0.0669024,-0.151462,-0.178709
0.0940167,0.297975,-1.16764,-0.169862,-0.136801,-0.143609,0.0875353,-0.169687,-0.140925
0.0899832,0.294742,-1.16983,-0.156974,-0.3187,-0.104295,0.078442,-0.165836,-0.120404
0.0837464,0.290581,-1.17174,-0.253271,-0.32092,-0.117805,0.0371372,-0.157217,-0.15171
0.0798468,0.28454,-1.17367,-0.318055,-0.108773,-0.118805,0.0141587,-0.136245,-0.219247
0.0801789,0.278614,-1.17541,-0.242619,0.0594081,-0.0928987,0.0270453,-0.110932,-0.268244
0.0808739,0.275398,-1.17637,-0.0616355,-0.0629099,-0.0178861,0.0613881,-0.0900695,-0.275875
0.0766386,0.276682,-1.17615,0.202567,-0.338551,0.0355365,0.0448633,-0.0586977,-0.298181
0.0693646,0.283848,-1.17608,0.507509,-0.334329,0.0189072,0.0272145,-0.02372,-0.329418
0.0654133,0.296467,-1.17659,0.747899,-0.0451154,0.0177573,0.0225222,0.0404804,-0.303148
0.0679692,0.312635,-1.1773,0.847552,0.247947,0.0326641,0.0106926,0.150097,-0.190045
0.0679692,0.312635,-1.1773,0.847552,0.247947,0.0326641,0.0106926,0.150097,-0.190045
0.0805996,0.344356,-1.17381,0.705673,0.388446,0.269855,0.0667619,0.268788,0.0572864
0.0859681,0.358066,-1.16865,0.617256,0.309381,0.312805,0.049039,0.294601,0.13046
0.0889119,0.369373,-1.16293,0.455134,0.190426,0.325296,0.0504185,0.31678,0.193595
0.0896617,0.376794,-1.15626,0.223061,0.136893,0.360177,0.0732644,0.314093,0.228696
0.0891275,0.378934,-1.14839,-0.0844532,0.100741,0.396066,0.116707,0.308102,0.255435
0.0872708,0.37457,-1.13861,-0.433192,0.0840319,0.484618,0.187804,0.288541,0.252044
0.0850414,0.363819,-1.12564,-0.728931,0.180543,0.63935,0.252423,0.266124,0.192154
0.0842279,0.348816,-1.1087,-0.878925,0.32593,0.835897,0.310876,0.244557,0.111648
0.084475,0.3334,-1.08671,-0.800624,0.432798,1.11295,0.388701,0.229296,0.0174172
0.0853338,0.321924,-1.05881,-0.567152,0.523255,1.44515,0.428853,0.252611,-0.0319046
0.0847757,0.315427,-1.02356,-0.388187,0.502166,1.8666,0.448037,0.27557,-0.00476128
0.0796261,0.311968,-0.978774,-0.329778,0.36128,2.36391,0.43626,0.280443,0.0278022
0.0692708,0.309311,-0.924224,-0.319058,0.299768,2.7983,0.354403,0.293127,0.00390887
0.0573951,0.307319,-0.862023,-0.247884,0.399694,3.09355,0.243832,0.278853,-0.0632682
0.0459574,0.306267,-0.79569,-0.189175,0.454209,3.21949,0.126469,0.268497,-0.0981544
0.0347139,0.305226,-0.727764,-0.181211,0.46176,3.26498,0.047952,0.26108,-0.116452
0.0232421,0.303842,-0.65934,-0.130939,0.452412,3.27589,0.0156969,0.262064,-0.158872
0.0123512,0.303947,-0.590506,0.0411235,0.523143,3.32867,0.0201061,0.291049,-0.208599
0.00218926,0.307213,-0.519656,0.230196,0.562255,3.46005,0.0280188,0.331411,-0.209359
-0.00909053,0.31305,-0.445818,0.377883,0.584387,3.58392,-0.0213807,0.361856,-0.196819
-0.0201306,0.320784,-0.36992,0.495217,0.672367,3.62629,-0.0855577,0.369952,-0.184169
-0.0311689,0.329113,-0.293353,0.512459,0.647953,3.62172,-0.119129,0.360039,-0.135353
-0.0440959,0.33591,-0.217419,0.42075,0.543486,3.52898,-0.14692,0.325737,-0.0879806
-0.0584891,0.338815,-0.144421,0.218229,0.449002,3.34845,-0.165418,0.297824,-0.0596232
-0.0723494,0.336953,-0.0761241,0.0347844,0.423741,3.10164,-0.181351,0.287873,-0.0552235
-0.0854019,0.332197,-0.013773,-0.0247737,0.303157,2.83836,-0.160134,0.289683,-0.0665857
-0.0992621,0.326777,0.0437284,-0.000705975,0.194589,2.66567,-0.0795764,0.286751,-0.0841913
-0.11257,0.321977,0.0986523,0.0805036,0.247706,2.59113,0.00989572,0.289313,-0.100834
-0.122797,0.318492,0.152697,0.182215,0.437703,2.57218,0.0886037,0.287866,-0.0868617
-0.129457,0.316111,0.206884,0.22176,0.563312,2.58161,0.149784,0.257161,-0.0308902
-0.134213,0.31337,0.260662,0.166888,0.623703,2.52796,0.163549,0.207437,0.0336109
-0.13716,0.308735,0.312365,0.0337584,0.658045,2.42588,0.169877,0.15624,0.0623623
-0.138438,0.301356,0.361415,-0.119661,0.688876,2.32748,0.182071,0.121919,0.0511609
-0.138446,0.291269,0.408047,-0.247713,0.672116,2.24848,0.180928,0.104459,0.00711036
-0.137266,0.280136,0.45274,-0.246059,0.720682,2.16681,0.16179,0.101499,-0.0738243
-0.133926,0.270352,0.495844,-0.156187,0.783424,2.09687,0.14601,0.109523,-0.133286
-0.128286,0.262944,0.538287,-0.043586,0.896001,2.08114,0.125795,0.115485,-0.165368
-0.120999,0.257786,0.581086,0.0500224,0.911767,2.10249,0.0994735,0.114483,-0.159788
-0.113924,0.254968,0.624245,0.16463,0.890461,2.08611,0.0612046,0.0959032,-0.141949
-0.106897,0.254609,0.666838,0.246394,0.893265,2.02629,0.0306675,0.086126,-0.117749
-0.099065,0.255494,0.708538,0.247782,0.930383,1.99934,0.013524,0.0829387,-0.0732159
-0.0912677,0.256294,0.750015,0.215149,0.899372,2.00193,0.00698724,0.0807223,-0.034981
-0.0844322,0.256767,0.791378,0.178708,0.830068,1.99033,-0.019034,0.0833461,-0.0123798
-0.0791792,0.256446,0.832311,0.109023,0.755089,1.9745,-0.0535255,0.081769,-0.00294179
-0.0744147,0.254607,0.872772,0.00905228,0.746206,1.95424,-0.0940816,0.0670815,-0.00282681
-0.0700961,0.251225,0.91236,-0.0624339,0.683486,1.90029,-0.118546,0.0416354,-0.00726539
-0.0664076,0.247207,0.950462,-0.0860445,0.609106,1.82137,-0.140691,0.00933,-0.015646
-0.0649289,0.242968,0.986955,-0.102693,0.419636,1.74604,-0.151973,-0.0186015,-0.0185844
-0.0664427,0.238966,1.02151,-0.0674718,0.263668,1.63596,-0.155158,-0.0477254,-0.0484744
-0.0692718,0.236572,1.05394,0.0551416,0.247535,1.54096,-0.143771,-0.0640139,-0.0897395
-0.0692718,0.236572,1.05394,0.0551416,0.247535,1.54096,-0.143771,-0.0640139,-0.0897395
-0.0708021,0.237193,1.08476,0.214453,0.325592,1.45327,-0.149866,-0.0617325,-0.0940782
-0.0703171,0.24056,1.11413,0.306825,0.414646,1.37986,-0.157396,-0.0643661,-0.0399081
-0.0681648,0.244915,1.14209,0.312966,0.469538,1.30289,-0.156089,-0.0913886,0.0292911
-0.0652315,0.249363,1.16805,0.292028,0.434731,1.17804,-0.161807,-0.118555,0.0828993
-0.0637326,0.253377,1.19081,0.252196,0.284424,0.996307,-0.157613,-0.145825,0.110622
-0.0638376,0.256576,1.20941,0.17001,0.178447,0.777023,-0.156586,-0.156707,0.11097
-0.0644093,0.257827,1.22332,0.0365429,0.145549,0.573427,-0.141162,-0.147562,0.102637
-0.0634429,0.25639,1.23339,-0.117281,0.215356,0.414068,-0.113736,-0.140606,0.0802339
-0.0601307,0.252113,1.24021,-0.259249,0.281553,0.277957,-0.0930656,-0.128311,0.0584342
-0.0555024,0.24569,1.24451,-0.347721,0.281236,0.183577,-0.0665838,-0.118972,0.0309151
-0.0508667,0.238455,1.24727,-0.352102,0.240297,0.127605,-0.0407429,-0.103596,-0.00803781
-0.0473924,0.232006,1.24944,-0.266859,0.160224,0.119358,-0.015708,-0.090855,-0.0484545
-0.0448861,0.228393,1.25173,-0.0847145,0.140728,0.120065,0.000431858,-0.0748873,-0.0864741
-0.0432562,0.228215,1.25428,0.0610675,0.0841318,0.132221,0.0118176,-0.0661954,-0.0762473
-0.0426632,0.230015,1.25732,0.117019,0.0422942,0.153268,0.0218736,-0.0674789,-0.0446028
-0.0430221,0.232264,1.26063,0.12286,0.00258341,0.146198,-0.00111484,-0.067563,-0.0142792
-0.0434102,0.234724,1.2631,0.13535,0.0184642,0.0770505,-0.02687,-0.0679622,-0.00754005
-0.0432306,0.237523,1.26389,0.148678,0.0217563,-0.0132173,-0.0390204,-0.0625552,0.0066449
-0.0420409,0.240925,1.26295,0.188071,0.0810698,-0.0925576,-0.0361659,-0.046555,0.00552267
-0.0396275,0.244977,1.26052,0.195256,0.0986157,-0.16205,-0.0362575,-0.0168805,0.0341091
-0.0366515,0.248648,1.25668,0.14431,0.102345,-0.222094,-0.0213227,-0.00778191,0.0644661
-0.0335989,0.250898,1.25165,0.0560815,0.0880834,-0.274784,-0.017981,0.0163247,0.0871008
-0.0303327,0.251601,1.24558,0.00215828,0.102195,-0.317405,-0.00613401,0.0267719,0.0757051
-0.02644,0.251839,1.23886,0.00939121,0.11378,-0.333028,0.00860467,0.047708,0.0509421
-0.0226847,0.252234,1.23204,0.00487229,0.104732,-0.333923,0.0178604,0.0634714,0.0460196
-0.0179109,0.252148,1.225,-0.0414254,0.219358,-0.347465,0.0191137,0.0673409,0.0351789
-0.0106068,0.250229,1.21752,-0.170531,0.309987,-0.371929,0.0219798,0.0792456,0.0494591
-0.00220593,0.245631,1.20986,-0.292855,0.334403,-0.364496,0.0325963,0.085789,0.051006
0.00589379,0.239165,1.20247,-0.342511,0.294483,-0.358334,0.0421713,0.0927414,0.0330885
0.0127387,0.232235,1.19543,-0.349419,0.216048,-0.331513,0.0615019,0.0985001,0.016853
0.0173774,0.224897,1.18952,-0.391362,0.104064,-0.250507,0.0828383,0.108626,0.0166468
0.019083,0.216243,1.18555,-0.468342,-0.0212727,-0.145081,0.0946743,0.108254,0.00450188
0.0182351,0.206633,1.18398,-0.478599,-0.0927737,-0.0276233,0.0922002,0.105541,-0.0509307
0.0159138,0.197789,1.18491,-0.406687,-0.124167,0.114283,0.0907662,0.106231,-0.101377
0.0125181,0.190874,1.18958,-0.289852,-0.123821,0.348681,0.0886312,0.108052,-0.124897
0.00817082,0.186775,1.19942,-0.123267,-0.137917,0.614071,0.0620703,0.103171,-0.122649
0.00186142,0.186406,1.21392,0.0729749,-0.239001,0.797948,0.00648686,0.0666154,-0.0932223
-0.00737312,0.189219,1.23111,0.194383,-0.365956,0.890149,-0.0379551,0.0213441,-0.0357281
-0.0189963,0.19315,1.24972,0.209883,-0.42894,0.927856,-0.0713697,-0.00833525,0.0180315
-0.0311776,0.196521,1.26848,0.164373,-0.417906,0.89277,-0.0996459,-0.0329829,0.0526325
-0.0423401,0.198374,1.28562,0.0803571,-0.361794,0.778799,-0.118796,-0.0473703,0.0740684
-0.0517624,0.198134,1.30026,-0.0468381,-0.295654,0.657643,-0.102883,-0.0530229,0.0897335
-0.0594852,0.195061,1.31231,-0.195136,-0.242939,0.54344,-0.0764429,-0.0447449,0.0988228
-0.0658049,0.189477,1.32206,-0.295981,-0.210155,0.45771,-0.0385994,-0.0262544,0.0903898
-0.0712129,0.182471,1.3305,-0.341308,-0.170955,0.430074,-0.000356309,-0.00121814,0.0673469
-0.0753818,0.175056,1.33871,-0.344128,-0.104445,0.442693,0.0375689,0.0151209,0.0454732
-0.0784787,0.167524,1.34766,-0.342696,-0.0573271,0.507636,0.074142,0.0167633,0.0390571
-0.0805677,0.16002,1.35829,-0.3234,0.0215328,0.599203,0.0864256,0.0137847,0.0317817
-0.080945,0.152861,1.37048,-0.296391,0.13682,0.655381,0.077625,-0.00262585,0.0213279
-0.0790179,0.145873,1.38344,-0.314253,0.230946,0.678997,0.0520658,-0.017959,0.0292
-0.0790179,0.145873,1.38344,-0.314253,0.230946,0.678997,0.0520658,-0.017959,0.0292
-0.0762402,0.137985,1.39679,-0.369033,0.217045,0.700967,0.0349151,-0.0459854,0.0461812
-0.0745502,0.129412,1.41005,-0.392119,0.122459,0.671386,0.0240842,-0.0733264,0.0409161
-0.0744369,0.120419,1.42271,-0.403115,0.0723389,0.652547,0.0325699,-0.115483,0.00833511
-0.0741489,0.112559,1.43467,-0.27684,0.0837643,0.582033,0.00391,-0.131819,-0.0524392
-0.0737661,0.10787,1.44525,-0.124313,0.0673504,0.518752,0.0289136,-0.126089,-0.0638291
-0.0732713,0.105445,1.45541,-0.0620797,0.112121,0.523055,0.0677485,-0.122091,-0.0546701
-0.071117,0.103562,1.46601,-0.0527505,0.207241,0.538802,0.0597053,-0.114015,-0.0524428
-0.0668398,0.10232,1.47636,0.00173241,0.315227,0.492308,0.0392496,-0.133332,-0.0711721
-0.0612055,0.102488,1.48579,0.0704786,0.342585,0.458828,0.0466862,-0.129488,-0.0620568
-0.0548963,0.103984,1.4954,0.137121,0.39221,0.497118,0.0592111,-0.113335,-0.0559263
-0.0476022,0.106935,1.50572,0.20571,0.439697,0.503097,0.0386302,-0.104511,-0.0489069
-0.039939,0.111023,1.51573,0.231539,0.427291,0.475006,0.0350439,-0.11119,-0.0177067
-0.0330253,0.11489,1.52538,0.187199,0.373256,0.478128,0.0497236,-0.106752,0.0174323
-0.0270189,0.118158,1.53543,0.181153,0.355551,0.50543,0.0422538,-0.093481,-0.00422221
-0.0210703,0.122089,1.54589,0.244356,0.368486,0.533449,0.0307538,-0.0815071,-0.0396463
-0.0151014,0.127527,1.55706,0.314499,0.368306,0.568775,0.0289248,-0.0805976,-0.0535217
-0.00914815,0.134465,1.56893,0.395433,0.383128,0.592557,0.0123614,-0.0858948,-0.0582474
-0.00303148,0.142962,1.58072,0.460401,0.391243,0.563218,-0.0188348,-0.0903124,-0.0619946
0.00357473,0.152357,1.5914,0.474464,0.435997,0.493447,-0.0439538,-0.0962942,-0.0605098
0.0116002,0.161678,1.6005,0.450985,0.517245,0.41324,-0.0572098,-0.107092,-0.0655217
0.0221162,0.170629,1.6077,0.437212,0.659442,0.323521,-0.0584296,-0.107557,-0.0779495
0.0349154,0.179616,1.61352,0.447289,0.694,0.287082,-0.0358726,-0.101912,-0.0671786
0.0462729,0.188613,1.61877,0.419291,0.533533,0.266607,-0.0187484,-0.0920747,-0.0396907
0.0536841,0.195895,1.62304,0.271151,0.301231,0.178378,-0.0396468,-0.0863305,-0.0318766
0.0564796,0.199,1.62504,0.0144755,-0.0050145,0.0324457,-0.0693583,-0.0871921,-0.0592622
0.0537732,0.197046,1.62457,-0.173816,-0.217462,-0.0784525,-0.078342,-0.0555386,-0.175599
0.0499232,0.193813,1.62256,-0.0893001,-0.149877,-0.124172,-0.0613431,-0.0047099,-0.327273
0.0509954,0.195436,1.62015,0.298192,0.24853,-0.0891416,-0.036682,0.0571242,-0.419467
0.0607585,0.205974,1.61886,0.746213,0.687615,0.0281734,-0.0233201,0.112998,-0.341395
0.0767763,0.223588,1.61928,0.96958,0.871429,0.128098,-0.029351,0.133915,-0.11303
0.0932298,0.243322,1.62095,0.961206,0.787935,0.201263,-0.0360618,0.115791,0.125645
0.106303,0.261948,1.62412,0.867859,0.584155,0.296437,-0.0317281,0.134298,0.267122
0.113085,0.279301,1.62959,0.825674,0.220933,0.431582,-0.00431474,0.160709,0.292404
0.110981,0.29724,1.63805,0.875564,-0.176314,0.532611,0.000472389,0.124379,0.282862
0.102019,0.315357,1.64586,0.82174,-0.45567,0.386164,-0.0631438,0.154272,0.266849
0.0902939,0.330631,1.65136,0.617933,-0.549051,0.288171,-0.0449127,0.184365,0.273787
0.0791864,0.339711,1.65301,0.266471,-0.52763,-0.168906,-0.0643291,0.250466,0.28505
0.0699354,0.341014,1.64487,-0.0697046,-0.639273,-0.505108,-0.0783972,0.268219,0.266666
0.0618877,0.33636,1.63555,-0.335047,-0.438905,-0.34256,0.0402047,0.154501,0.191285
0.0572512,0.327403,1.63315,-0.539292,-0.102734,0.0812833,0.101093,0.0536405,0.12404
0.0555497,0.315209,1.63986,-0.716153,0.0949276,0.469689,0.116404,0.00195518,0.055146
0.0516553,0.299805,1.65278,-0.891519,-0.16498,0.641742,0.102587,0.0130163,-0.0188876
0.0399279,0.281677,1.66681,-0.964179,-0.571399,0.61539,0.0258648,0.0849733,-0.0915207
0.0238276,0.26342,1.68079,-0.893861,-0.595968,0.687449,0.0174628,0.0934379,-0.182825
0.0119115,0.246772,1.6956,-0.801954,-0.171953,0.695949,-0.000335142,0.0964782,-0.218687
0.0114393,0.232235,1.70894,-0.661244,0.454989,0.574178,-0.0587241,0.121389,-0.188363
0.0240915,0.221528,1.7189,-0.416382,0.984364,0.386202,-0.0795155,0.118341,-0.108644
0.043556,0.21631,1.72581,-0.139405,1.04772,0.290165,-0.0559095,0.0754366,-0.0102532
0.0606755,0.215749,1.73143,0.0296824,0.739692,0.264202,-0.0283029,0.0638867,0.117795
0.0702187,0.217212,1.73736,0.0659224,0.365707,0.332601,0.0108486,0.0868609,0.179555
0.0731269,0.219293,1.74528,0.084855,0.11245,0.461901,0.041191,0.0230965,0.191979
0.0707103,0.221393,1.75505,0.0364496,-0.153921,0.48413,0.0626038,-0.0206307,0.207347
0.062825,0.221287,1.7638,-0.125,-0.421308,0.35579,0.0199088,-0.00565755,0.193799
0.0530534,0.216631,1.76965,-0.371682,-0.340727,0.197883,0.0251152,-0.0449472,0.171649
0.0487733,0.207436,1.7731,-0.555,-0.0760808,0.094343,0.059469,-0.0841945,0.0750396
0.0466699,0.195374,1.7743,-0.646314,-0.133242,-0.0401978,0.0315662,-0.0604904,0.0343352
0.0431625,0.182424,1.77289,-0.625409,-0.23963,-0.142685,0.0394913,-0.053114,-0.0276866
0.0387057,0.171072,1.76993,-0.488083,-0.241652,-0.193985,0.0625463,-0.0502506,-0.0917207
0.0348276,0.163142,1.76604,-0.291615,-0.212719,-0.215258,0.0713547,-0.0452981,-0.129752
0.0314874,0.159128,1.76194,-0.1001,-0.187402,-0.196977,0.0870948,-0.0533648,-0.135514
0.0287427,0.158651,1.75852,0.053759,-0.143487,-0.143833,0.0956303,-0.0558508,-0.122692
0.0266244,0.16048,1.75618,0.119071,-0.102749,-0.0822529,0.0940059,-0.0695019,-0.0883792
0.0257259,0.162533,1.75509,0.0713997,0.0118931,-0.0184857,0.0955877,-0.0917823,-0.0576649
0.0279287,0.162515,1.75588,-0.0987145,0.225046,0.100308,0.111511,-0.100513,-0.0664179
0.0334965,0.15801,1.7589,-0.365216,0.354634,0.166063,0.0982136,-0.109172,-0.0947071
0.0393982,0.148645,1.7621,-0.566819,0.2516,0.089621,0.0526601,-0.14774,-0.131393
0.0417132,0.137256,1.76248,-0.541706,-0.00125834,-0.115667,-0.0199314,-0.183854,-0.226285
0.0404996,0.128357,1.75823,-0.318574,-0.145807,-0.327657,-0.0306798,-0.179536,-0.307975
0.0387656,0.124296,1.75112,-0.0765316,-0.0926671,-0.36834,0.0304365,-0.150972,-0.311973
0.0393235,0.12388,1.74453,0.0346974,0.067476,-0.277752,0.0724686,-0.126346,-0.260475
0.0420414,0.124458,1.74017,0.0331427,0.128397,-0.149255,0.0532973,-0.102594,-0.187429
0.0443371,0.125226,1.73807,0.0657943,0.0522554,-0.0727739,-0.0041195,-0.10322,-0.139894
0.0438573,0.127192,1.73614,0.130087,-0.200362,-0.145101,-0.0911422,-0.101956,-0.108412
0.0379111,0.130165,1.73176,0.192483,-0.0169124,-0.216687,-0.121718,0.0541142,-0.0987716
0.037302,0.134289,1.72847,0.223803,-0.0808761,-0.146057,-0.113648,-0.160273,-0.0937074
0.0370395,0.139145,1.72254,0.292327,-0.0173053,-0.442417,-0.227271,-0.0658475,-0.0378101
0.0370395,0.139145,1.72254,0.292327,-0.0173053,-0.442417,-0.227271,-0.0658475,-0.0378101
0.0385918,0.145766,1.71119,0.409472,0.0432909,-0.632774,-0.253108,0.00909613,-0.0269209
0.0423413,0.153979,1.69684,0.458365,0.0934655,-0.752834,-0.241291,0.0523738,0.0210964
0.0462815,0.162328,1.67996,0.445559,0.0183708,-0.888848,-0.243395,0.0860855,0.0738554
0.0486976,0.170123,1.66046,0.424981,-0.103202,-0.992763,-0.241106,0.135337,0.0936333
0.0489025,0.177278,1.63943,0.389114,-0.235968,-1.04397,-0.247702,0.195683,0.104626
0.0475576,0.183727,1.61736,0.367961,-0.262468,-1.09821,-0.272341,0.245714,0.0921349
0.0472973,0.189648,1.59422,0.320941,-0.204163,-1.15466,-0.287246,0.263556,0.0770569
0.0479509,0.193925,1.56974,0.216637,-0.185591,-1.23504,-0.28086,0.266778,0.0829718
0.0499673,0.195737,1.5439,0.0885353,-0.120367,-1.28827,-0.26347,0.271577,0.0811208
0.0532435,0.195084,1.51772,-0.0132473,-0.0580667,-1.27986,-0.221841,0.26616,0.0816461
0.0565111,0.192604,1.49244,-0.0984359,-0.134773,-1.21301,-0.187273,0.249261,0.10276
0.0574826,0.189025,1.46881,-0.110336,-0.186017,-1.12681,-0.155335,0.20995,0.0860649
0.0579591,0.18588,1.44683,-0.0876846,-0.197667,-1.06291,-0.145079,0.162061,0.0897052
0.0568946,0.18278,1.42552,-0.101554,-0.285749,-1.05877,-0.142541,0.113496,0.108842
0.0550657,0.17941,1.40446,-0.126625,-0.275334,-1.03251,-0.120668,0.0730412,0.131384
0.0524528,0.175119,1.3839,-0.200159,-0.360617,-1.02148,-0.118872,0.046387,0.159621
0.0478789,0.169631,1.36358,-0.238937,-0.434906,-1.00937,-0.0938045,0.00138444,0.153539
0.0419187,0.163876,1.34333,-0.250812,-0.519861,-1.02198,-0.0919736,-0.0239138,0.143771
0.0346127,0.158414,1.32277,-0.210152,-0.491334,-1.02859,-0.0668263,-0.0483331,0.104288
0.0293679,0.154141,1.30216,-0.157201,-0.380148,-1.0222,-0.054101,-0.0575126,0.0802927
0.0256467,0.150965,1.28188,-0.104048,-0.285721,-0.998714,-0.0221479,-0.0712111,0.0671587
0.0236687,0.14844,1.26201,-0.106696,-0.218517,-0.970031,0.0189216,-0.0936052,0.0584587
0.0231192,0.145836,1.24321,-0.111952,-0.100173,-0.900047,0.0428326,-0.105016,0.0411071
0.0248341,0.143228,1.22572,-0.103554,0.0041699,-0.849865,0.0395097,-0.109215,0.018981
0.0277889,0.140941,1.20891,-0.0855982,0.0359199,-0.822576,0.0491351,-0.119779,-0.00961137
0.0302334,0.138584,1.19301,-0.107188,-0.0138981,-0.760727,0.0716541,-0.112011,-0.0392454
0.031838,0.135683,1.17866,-0.132693,0.00294635,-0.67784,0.0782622,-0.105395,-0.0919683
0.0350198,0.132635,1.16568,-0.135363,0.151096,-0.632979,0.0473567,-0.0896469,-0.160987
0.0393637,0.128765,1.15321,-0.228753,0.0380651,-0.623015,0.034184,-0.092889,-0.175642
0.0371538,0.122553,1.14063,-0.329057,-0.419002,-0.655551,0.0251908,-0.103065,-0.223563
0.0271277,0.116014,1.12731,-0.253358,-0.685484,-0.692031,0.019994,-0.0739285,-0.335655
0.0164517,0.113203,1.11361,0.0354007,-0.459978,-0.66409,0.0232356,-0.0295712,-0.434163
0.0144221,0.117895,1.10149,0.462051,0.147151,-0.524465,0.0423649,0.0179822,-0.437221
0.0244888,0.130531,1.09242,0.780593,0.700993,-0.362434,0.0593859,0.04874,-0.2995
0.0417766,0.146878,1.08579,0.844596,0.883908,-0.242807,0.0469421,0.0507385,-0.0831787
0.0588362,0.163067,1.08088,0.803338,0.700892,-0.167329,0.0165628,0.0484539,0.0690262
0.0700904,0.179125,1.07665,0.848443,0.349731,-0.158024,-0.00870136,0.05503,0.120042
0.0745788,0.196308,1.07181,0.894935,0.0160608,-0.198661,-0.0261426,0.0740781,0.136011
0.0734273,0.213202,1.06584,0.810595,-0.238897,-0.260592,-0.0361931,0.104809,0.15545
0.0680321,0.226418,1.05882,0.532646,-0.457242,-0.332216,-0.035193,0.133576,0.166116
0.0590786,0.233017,1.05079,0.183307,-0.602679,-0.413249,-0.0280906,0.147647,0.122949
0.0489225,0.233478,1.04112,-0.069867,-0.629132,-0.534639,-0.0481559,0.160317,0.0193416
0.0397664,0.230284,1.02872,-0.17645,-0.558272,-0.684042,-0.0633341,0.174222,-0.0912854
0.0336447,0.226044,1.01362,-0.175366,-0.379711,-0.800975,-0.0563574,0.189029,-0.174413
0.0327857,0.222955,0.996812,-0.0656752,-0.0553505,-0.833375,-0.0150465,0.206738,-0.213203
0.039231,0.222728,0.980491,0.0958807,0.330577,-0.751628,0.0267503,0.226705,-0.180939
0.0513947,0.22517,0.96644,0.195141,0.523335,-0.607426,0.0551341,0.232825,-0.0594594
0.0645084,0.229102,0.954967,0.263212,0.520984,-0.497398,0.0564986,0.190237,0.0576454
0.076162,0.234105,0.944891,0.296785,0.392901,-0.460247,0.0395125,0.141671,0.142327
0.084149,0.239131,0.934947,0.278873,0.16242,-0.474342,0.0316842,0.0965537,0.195722
0.0873088,0.243326,0.924291,0.226756,-0.10138,-0.531453,0.023815,0.0629079,0.213641
0.086325,0.2463,0.91243,0.172648,-0.27079,-0.593551,0.0205712,0.0416236,0.195214
0.0833064,0.24834,0.899343,0.148664,-0.348532,-0.658764,0.0332037,0.0296544,0.161135
0.0795549,0.250112,0.884919,0.134827,-0.381514,-0.723615,0.0542121,0.0218352,0.129715
0.0795549,0.250112,0.884919,0.134827,-0.381514,-0.723615,0.0542121,0.0218352,0.129715
0.0758651,0.251278,0.869108,0.0923423,-0.372998,-0.796214,0.0636728,0.0152591,0.0992169
0.0728423,0.251208,0.85193,0.026367,-0.366544,-0.867126,0.076067,0.00879784,0.0676525
0.0695554,0.250377,0.833427,0.0369432,-0.437754,-0.928728,0.0944262,-0.00252086,0.0120698
0.0653289,0.250817,0.813926,0.145099,-0.445507,-0.950661,0.110161,0.00616075,-0.0631722
0.0622781,0.253872,0.794288,0.276879,-0.340556,-0.935517,0.0939013,0.0245759,-0.121866
0.0619273,0.259196,0.774466,0.363301,-0.208132,-0.960992,0.0761506,0.010774,-0.13305
0.0646881,0.264962,0.753459,0.305947,-0.0408894,-1.04148,0.0833649,-0.0344532,-0.0988362
0.0705629,0.265785,0.730151,-0.148847,-0.0784546,-1.24075,0.0496318,-0.0762616,-0.0347373
0.0709863,0.253813,0.701545,-0.822861,-0.631054,-1.62634,-0.0811971,-0.0582752,-0.0471863
0.0640133,0.232188,0.66609,-1.01023,-0.846931,-1.938,-0.10307,-0.0165665,-0.271488
0.0585525,0.212964,0.626782,-0.596868,-0.471734,-1.96373,-0.0354838,0.0808499,-0.473226
0.0647451,0.205605,0.590113,0.0692731,0.337917,-1.62663,0.0459005,0.181637,-0.478161
0.082921,0.209062,0.56168,0.412293,0.790208,-1.14709,0.0583818,0.230705,-0.250187
0.102305,0.21575,0.540639,0.415772,0.642721,-0.897109,0.00130034,0.13977,-0.00297695
0.115312,0.221084,0.52152,0.319958,0.230738,-0.940352,-0.0607119,0.0313908,0.124119
0.120765,0.224403,0.500465,0.265152,-0.116437,-1.05622,-0.0782209,-0.0125832,0.168831
0.122072,0.226891,0.478162,0.248025,-0.219013,-1.0559,-0.0714074,0.0183758,0.180392
0.121897,0.228915,0.45714,0.198658,-0.296172,-0.950917,-0.0494538,0.0529865,0.205258
0.118638,0.230257,0.438696,0.154501,-0.451801,-0.827455,-0.034975,0.0506614,0.212064
0.11203,0.231515,0.422464,0.16363,-0.570136,-0.737621,-0.0409576,0.0312868,0.176187
0.103678,0.233997,0.407403,0.250597,-0.598621,-0.714207,-0.0711002,0.0179845,0.125025
0.0955315,0.238304,0.391331,0.321684,-0.601247,-0.827067,-0.103753,-0.00355393,0.094552
0.0880741,0.242615,0.371925,0.250615,-0.612264,-1.02397,-0.103023,-0.0294877,0.10579
0.0814216,0.243417,0.348797,0.000925073,-0.606065,-1.20211,-0.0813907,-0.0175398,0.113667
0.0756291,0.238672,0.32336,-0.266182,-0.584501,-1.29035,-0.0452475,0.0126274,0.064792
0.0699327,0.230017,0.296928,-0.387819,-0.608629,-1.34734,-0.0446437,0.0503053,-0.0418399
0.0629725,0.220071,0.26932,-0.415399,-0.708819,-1.40759,-0.052441,0.0717843,-0.149694
0.0553387,0.210763,0.240919,-0.335516,-0.615331,-1.41452,-0.0409487,0.0833977,-0.262609
0.0518841,0.204216,0.212917,-0.158177,-0.284213,-1.35216,-0.039629,0.121379,-0.324527
0.055763,0.201999,0.1873,0.0627859,0.1481,-1.1486,-0.0163318,0.160406,-0.308308
0.0652594,0.203474,0.166862,0.187772,0.327923,-0.84129,0.0120752,0.161713,-0.194589
0.0739944,0.206925,0.152127,0.258823,0.229399,-0.59254,-0.00778992,0.111213,-0.0773858
0.0784665,0.211926,0.141369,0.327673,-0.0134655,-0.427863,-0.045245,0.0604559,-0.00656629
0.0779327,0.218988,0.133688,0.447122,-0.199897,-0.264782,-0.0532437,0.0264154,0.0303451
0.0735833,0.228812,0.129131,0.559799,-0.318338,-0.112237,-0.0526189,0.0238331,0.0816068
0.0678197,0.240046,0.126986,0.558809,-0.279255,-0.0293901,-0.0611402,0.0149534,0.144113
0.0638423,0.24981,0.125871,0.398916,-0.155629,-0.0209072,-0.0725608,0.00449796,0.223699
0.0614116,0.254958,0.124959,0.109861,-0.133434,-0.0285769,-0.0526141,-0.017433,0.289489
0.0577869,0.25408,0.124301,-0.182398,-0.267865,-0.0485339,-0.0216445,-0.0474425,0.302827
0.0507953,0.24817,0.123114,-0.378655,-0.470087,-0.0996456,0.00698012,-0.0718896,0.262715
0.0403361,0.239599,0.121195,-0.458115,-0.59263,-0.112363,0.0492515,-0.0756289,0.182343
0.0292124,0.22991,0.119751,-0.517081,-0.537015,-0.052396,0.0744961,-0.0621945,0.103169
0.0198239,0.218661,0.119536,-0.612941,-0.409256,-0.00360962,0.0665259,-0.0709952,0.035964
0.0122809,0.205861,0.119798,-0.64523,-0.363312,0.00691058,0.0692317,-0.096814,-0.0402771
0.00460052,0.194204,0.120095,-0.49949,-0.411442,0.00707359,0.0556819,-0.101082,-0.146677
-0.00448215,0.186763,0.120294,-0.231297,-0.478668,0.0138915,0.0389653,-0.0900779,-0.237401
-0.0130194,0.185074,0.120596,0.0515424,-0.336228,0.0153821,0.0296729,-0.0741594,-0.286936
-0.0169299,0.187668,0.121156,0.184938,-0.0372544,0.0356291,0.0201414,-0.0514686,-0.260634
-0.0145484,0.191656,0.122123,0.212839,0.277228,0.0458779,-0.00395273,-0.0436765,-0.201107
-0.00731244,0.19618,0.122789,0.246429,0.432474,0.01468,-0.0194697,-0.0382456,-0.129498
0.00149508,0.201716,0.12293,0.306978,0.440337,0.00474721,-0.0203857,-0.0184604,-0.0555246
0.00951569,0.207888,0.123289,0.300698,0.37122,0.0426123,-0.0163907,0.011921,0.0203558
0.0163033,0.213488,0.124714,0.254806,0.348755,0.106746,-0.00436631,0.0240188,0.0661726
0.0227099,0.217968,0.127581,0.184929,0.348217,0.182347,-0.00231893,0.0326978,0.0939766
0.0227099,0.217968,0.127581,0.184929,0.348217,0.182347,-0.00231893,0.0326978,0.0939766
0.0282432,0.221106,0.131908,0.126111,0.29205,0.249648,-0.00284796,0.0268653,0.10434
0.0316133,0.223515,0.137358,0.104725,0.164567,0.290495,-0.00187583,0.0181364,0.0952885
0.0320405,0.225707,0.143644,0.0899409,0.0217104,0.329972,0.00887764,0.010111,0.0827633
0.0297995,0.227323,0.150738,0.0537089,-0.0708776,0.373621,0.00635652,0.0135019,0.0593814
0.02618,0.228498,0.158759,0.0528187,-0.117429,0.410037,-0.00389018,0.0127084,0.0181839
0.0218488,0.230459,0.16715,0.131927,-0.114977,0.410095,-0.022597,0.00543222,-0.035063
0.0179615,0.234016,0.175131,0.201717,-0.0879223,0.372858,-0.0367123,0.00190559,-0.0560547
0.0151898,0.238296,0.182178,0.208517,-0.0237347,0.315304,-0.0519915,-0.00429435,-0.0559736
0.0138117,0.242338,0.187749,0.190789,0.0192394,0.230555,-0.0654555,-0.00886777,-0.0506294
0.0139117,0.246316,0.191416,0.206615,0.0762881,0.134696,-0.0732601,-0.0099054,-0.0591157
0.0154738,0.250714,0.193002,0.232521,0.116324,0.0315388,-0.0784965,-2.70754e-05,-0.0502099
0.0180553,0.255465,0.192765,0.239337,0.135172,-0.0414707,-0.0685853,0.0129339,-0.026844
0.0212568,0.260143,0.191293,0.234662,0.143475,-0.0909766,-0.0589006,0.0312511,-0.000814497
0.0246322,0.264813,0.188977,0.247516,0.139463,-0.118881,-0.0489176,0.0444894,0.0121967
0.0281409,0.270179,0.186141,0.296208,0.142718,-0.138661,-0.0437028,0.0595678,0.0218589
0.0318575,0.27631,0.182954,0.317948,0.14732,-0.148591,-0.0360303,0.0699415,0.0513328
0.0357764,0.282337,0.179673,0.288754,0.148698,-0.148553,-0.0184071,0.0659242,0.0885155
0.0391639,0.287539,0.176337,0.24215,0.0885757,-0.155445,-0.00132205,0.0601432,0.116962
0.0408958,0.291444,0.172876,0.160956,-0.0130351,-0.162276,0.0128569,0.0582703,0.132521
0.0407748,0.293504,0.169333,0.0572659,-0.0948917,-0.172517,0.0190852,0.0504625,0.129277
0.0394249,0.293534,0.165438,-0.0334421,-0.141323,-0.20361,0.0160431,0.040878,0.093538
0.0377202,0.292177,0.160979,-0.0806069,-0.15875,-0.230241,0.0244643,0.0313693,0.0448133
0.0358654,0.289965,0.15607,-0.126209,-0.159476,-0.250921,0.0319387,0.0265495,0.00571817
0.0346013,0.286792,0.150807,-0.167379,-0.104953,-0.271597,0.0337894,0.016413,-0.0308741
0.0349312,0.282967,0.144919,-0.191845,-0.0369261,-0.314186,0.0289648,-0.00160155,-0.0588177
0.0362699,0.278429,0.138015,-0.239694,-0.0190799,-0.362034,0.0220499,-0.0112413,-0.0627188
0.0379302,0.272877,0.130515,-0.279835,-0.0132982,-0.375815,0.0289727,-0.0156687,-0.0732155
0.0402918,0.267259,0.123019,-0.244407,0.0552261,-0.367371,0.0276775,-0.0126295,-0.0965108
0.0442618,0.262914,0.11592,-0.1543,0.162453,-0.335205,0.0355202,-0.00774398,-0.10109
0.0500962,0.260428,0.109784,-0.0700795,0.246809,-0.271708,0.0290059,0.00569361,-0.0638936
0.0563383,0.259307,0.104956,-0.0217625,0.241366,-0.197958,0.0293295,0.0106069,-0.00191504
0.0611245,0.258829,0.101656,-0.00751728,0.145993,-0.122507,0.0239256,0.0101754,0.0512498
0.0634792,0.258738,0.0996749,0.00681208,0.0380843,-0.0749972,0.0104981,0.00190878,0.0752402
0.0636575,0.258736,0.0982695,-0.00124501,-0.0490711,-0.0665554,-0.00336107,-0.0104982,0.0863991
0.0622269,0.258252,0.0968912,-0.0433386,-0.129542,-0.0675961,-0.00862612,-0.012965,0.08722
0.0591511,0.25674,0.0955954,-0.0921924,-0.209816,-0.0656591,-0.00394099,-0.0155412,0.065278
0.0548872,0.254706,0.0942874,-0.0950982,-0.24532,-0.0758089,-0.00725235,-0.0201342,0.0143759
0.0504527,0.252964,0.0924113,-0.0703843,-0.240024,-0.122191,-0.0267469,-0.0240325,-0.0372227
0.0471426,0.251691,0.0892247,-0.0498916,-0.172537,-0.194953,-0.0382093,-0.0269897,-0.0775356
0.0451948,0.25064,0.0846706,-0.0382782,-0.131725,-0.250031,-0.0257013,-0.0201338,-0.0873806
0.044699,0.249989,0.0790909,-0.00594705,-0.0465974,-0.292554,-0.00465989,-0.0161408,-0.0974214
0.0465664,0.25004,0.0727989,0.0354617,0.0805386,-0.316883,-0.00100413,0.000265434,-0.0872014
0.0507038,0.250701,0.0660742,0.0570718,0.156288,-0.328789,0.0134939,0.00647567,-0.0492452
0.0552707,0.251647,0.0594355,0.0733037,0.127455,-0.310657,0.0340675,0.0127173,-0.00344962
0.0589049,0.252885,0.0532877,0.0785323,0.0718832,-0.280842,0.0408714,0.0164335,0.0292596
0.0608425,0.253887,0.047859,0.0497363,-0.00403579,-0.238894,0.0463536,0.0167318,0.0511287
0.0614865,0.254115,0.04326,-0.00112172,-0.0456621,-0.20388,0.0460553,0.0113991,0.0530627
0.0610998,0.253373,0.0395261,-0.0443082,-0.087861,-0.160292,0.0461124,0.00689653,0.0368989
0.0597099,0.252173,0.0367244,-0.0535033,-0.117628,-0.11873,0.039976,0.00365885,0.00209308
0.0577778,0.251229,0.0347181,-0.0209913,-0.114738,-0.0815581,0.0318051,-0.00154251,-0.035679
0.0561048,0.251254,0.0334113,0.0313181,-0.0894371,-0.0405315,0.0246953,-0.00183907,-0.0580996
0.0552496,0.252531,0.0330532,0.096185,-0.0204889,0.0100191,0.014401,-0.00104521,-0.0707766
0.055144,0.254812,0.0333266,0.122705,0.00698415,0.0259311,-0.00174646,-0.0101894,-0.050194
0.055144,0.254812,0.0333266,0.122705,0.00698415,0.0259311,-0.00174646,-0.0101894,-0.050194
0.0552808,0.257154,0.0336795,0.106517,0.011372,0.0237335,-0.00831558,-0.0211837,-0.0185362
0.0552986,0.258973,0.0339069,0.0799336,-0.00945257,0.0108451,-0.0179049,-0.022782,-0.000171304
0.0547352,0.260507,0.0339599,0.0836227,-0.0483736,0.00913272,-0.0160731,-0.0254037,0.00187606
0.0535239,0.262353,0.0339627,0.106212,-0.0668998,0.00193721,-0.0161758,-0.0253597,-0.00374037
0.0522039,0.264507,0.03382,0.101413,-0.0686214,-0.00780431,-0.0217094,-0.0207623,0.00686002
0.0509267,0.266147,0.0334666,0.052665,-0.0737759,-0.019833,-0.0150853,-0.0214996,0.0234925
0.04936,0.266707,0.0329621,0.0108037,-0.0888191,-0.0248673,-0.0116,-0.0203179,0.0210252
0.0477924,0.267083,0.0324094,0.0224986,-0.0743149,-0.0266261,-0.0104969,-0.0119755,0.00111753
0.0464497,0.267796,0.0319309,0.034922,-0.0661961,-0.0184315,-0.00606646,-0.00240657,-0.00134444
0.0451932,0.268519,0.0315506,0.0242704,-0.059816,-0.0157378,-0.000193413,-0.00245729,0.00405866
0.0440604,0.269083,0.0311216,0.0193074,-0.0621955,-0.0250805,0.00137736,-0.00122699,0.00368315
0.0432433,0.269793,0.0306443,0.0452741,-0.0311459,-0.011612,0.0072536,0.00434029,-0.00747287
0.0426427,0.27085,0.0306108,0.057662,-0.0323528,0.0106582,0.0156718,0.0179625,0.000799656
0.0421376,0.272041,0.0309814,0.0571839,-0.0101338,0.0288627,0.0152407,0.0174316,0.00298834
0.0416416,0.273019,0.0315726,0.0356491,-0.0219582,0.0305596,0.00858786,0.0148639,0.0136249
0.0410661,0.273525,0.0320114,0.0231701,-0.0229643,0.018322,0.00286053,0.012955,0.0170515
0.0407862,0.273827,0.0322469,0.0130548,-0.020239,0.00952775,-0.00452679,0.0160844,0.0169503
0.0405495,0.273845,0.0322507,-0.00283414,-0.00830036,-0.00603523,-0.0016591,0.00804535,0.0219138
0.0404826,0.273502,0.0318439,-0.0279509,-0.0157879,-0.0289871,-0.0041925,0.0105835,0.0284483
0.0401916,0.272496,0.0313282,-0.0635019,-0.0269853,-0.0223542,0.00512508,0.0137501,0.0277082
0.0399184,0.271014,0.0310034,-0.0781132,-0.0118828,-0.0165337,0.00457861,0.0127954,0.0149632
0.0397234,0.269502,0.0307166,-0.0680397,-0.012135,-0.0187175,0.0013171,0.0114147,0.00443345
0.0395328,0.268356,0.0303683,-0.0453872,-0.0218683,-0.0184133,0.00176324,0.00780734,-0.00358629
0.0388312,0.267601,0.0299505,-0.0268857,-0.0832919,-0.0266174,0.00584944,0.00649932,-0.00793761
0.0374847,0.267226,0.0294795,-0.00894474,-0.0632149,-0.0126184,0.00825725,0.00375706,-0.0160135
0.0362374,0.266689,0.0293419,-0.0435429,-0.065812,-0.00466591,0.00119935,0.00647452,-0.00444472
0.0358238,0.265661,0.0293192,-0.0503123,0.0186225,-0.00584693,-0.00849772,-0.000697941,-0.0196781
0.0366191,0.264743,0.0289474,-0.0333872,0.0368914,-0.0321548,-0.0179251,-0.00268245,-0.0208082
0.0373453,0.264135,0.0281428,-0.0233874,0.0126479,-0.039408,-0.00495955,-0.0041692,-0.011337
0.0377411,0.263705,0.0275377,-0.01731,0.00255789,-0.0198785,-0.00117998,0.00791249,-0.0028469
0.0376042,0.263309,0.0271289,-0.0207332,-0.0121239,-0.021914,-0.00428665,0.0056074,-0.00199109
0.0376954,0.262956,0.0266382,-0.0148641,0.015621,-0.0358943,-0.0116261,0.0029628,-0.00699919
0.038192,0.262372,0.0257264,-0.042361,0.0141301,-0.0519624,-0.0169785,0.00891444,0.00598198
0.0387572,0.261453,0.0247429,-0.0380701,0.0153119,-0.0466714,-0.00524994,0.0060893,0.00105643
0.0390835,0.260941,0.023852,-0.0075593,-0.00411338,-0.0417718,-0.00468499,0.0124762,-0.00501871
0.0392941,0.26083,0.0231423,-0.00604292,0.0119347,-0.0238294,0.00341134,0.0123842,0.00240242
0.0392643,0.260334,0.0228886,-0.0423838,-0.0202735,-0.00488719,0.00378606,0.013842,0.0208115
0.0383597,0.259312,0.022967,-0.0500068,-0.0467662,0.00703203,0.00747231,0.00305834,0.00775635
0.0377148,0.258645,0.0230334,-0.01836,-0.0184968,-0.00584931,-0.00915366,0.00551185,-0.0130456
0.0372939,0.25806,0.0226152,-0.041031,-0.0340364,-0.0360541,-0.016672,0.000200748,-0.00290173
0.0373114,0.257074,0.0217763,-0.0454509,0.0144397,-0.0448817,-0.00139373,-0.0106559,-0.0147668
0.0378917,0.256137,0.0208783,-0.0452714,-3.32319e-05,-0.0407138,-0.00196357,0.002918,-0.0131921
0.0377447,0.255464,0.0203247,-0.00794473,-0.0130921,-0.0151578,0.0127901,-0.00588137,-0.026429
0.0376918,0.255936,0.0200842,0.0493316,0.00702512,-0.00939571,0.00514008,0.00116771,-0.0327721
0.0375457,0.256672,0.0198659,0.0087486,-0.0234586,-0.00539663,0.00235854,0.00381762,-0.00289351
0.0372335,0.256436,0.0198151,-0.0157232,0.010364,-0.00698389,0.0024292,-0.00869438,-0.0114282
0.0377644,0.25617,0.0194878,-0.00535394,0.015749,-0.0207464,-0.0134063,0.00179005,-0.0204895
0.038198,0.256343,0.0190945,0.0297878,0.0220901,-0.0121081,-0.00765927,-0.00243655,-0.0235096
0.0385713,0.257194,0.0187768,0.052908,-0.00709754,-0.0195529,-0.0141,0.00145316,-0.0116085
0.0379974,0.25816,0.0181671,0.0427154,-0.0472454,-0.0302562,-0.0151229,0.00247896,-0.000312924
0.0375341,0.258944,0.0177126,0.0401563,-0.00955843,-0.00901947,-0.00908304,0.00959975,-0.00582159
0.0372425,0.259559,0.017613,0.0249548,-0.0229999,-0.00928066,-0.0250919,0.0182666,0.00558209
0.0368712,0.260079,0.0171373,0.0386915,-0.0156075,-0.0382628,-0.0326019,-0.000808269,-0.005036
0.0368322,0.260951,0.015949,0.0503232,-0.0119106,-0.0738053,-0.0389341,0.0103338,0.00340796
0.0368322,0.260951,0.015949,0.0503232,-0.0119106,-0.0738053,-0.0389341,0.0103338,0.00340796
0.0368602,0.261499,0.0142211,0.0151695,-0.0228947,-0.0883284,-0.0337069,0.0165549,0.0251161
0.036771,0.261366,0.0122768,-0.00721121,-0.0322663,-0.104151,-0.021766,0.0129021,0.0270913
0.0363237,0.261095,0.0101476,-0.0119457,-0.0532166,-0.103903,-0.0117695,0.0189111,0.0293897
0.0350432,0.260575,0.008147,-0.0246951,-0.110586,-0.0955961,-0.00428177,0.0173556,0.0286524
0.033518,0.260179,0.00613069,-0.00411527,-0.0822045,-0.102195,-0.00313278,0.0139068,0.00522977
0.032554,0.25987,0.00387736,-0.0332659,-0.0718185,-0.119915,-0.00221954,0.0164006,0.0129693
0.0318526,0.258497,0.00155454,-0.0910315,-0.0515454,-0.105178,0.0172913,0.00999224,0.0190802
0.0313619,0.256357,-0.000288017,-0.106329,-0.0541946,-0.0853302,0.0198389,0.0150179,0.00563222
0.0306222,0.254493,-0.00190127,-0.0625006,-0.0536957,-0.0741833,0.0226911,0.00735483,-0.0169309
0.0300763,0.253852,-0.0032352,-0.00419276,-0.0527669,-0.0591629,0.0249844,0.00667366,-0.0247799
0.0289129,0.253848,-0.00433559,0.00595458,-0.0783811,-0.0443413,0.0236533,0.00561613,-0.0138507
0.0283491,0.253973,-0.00518419,0.00909708,-0.0163808,-0.0387421,0.0245812,-0.00120482,-0.0156519
0.0285483,0.253761,-0.0060879,-0.0316939,-0.0064918,-0.0492017,0.0118594,0.00492215,0.00949651
0.028692,0.252655,-0.00719743,-0.0551078,-0.00651484,-0.0575395,0.0163664,-0.0137575,0.010502
0.0292497,0.251667,-0.00856779,-0.0341152,0.00817379,-0.0777672,0.0138205,-0.00874791,0.00232512
0.0293512,0.250631,-0.0101591,-0.072245,-0.0512352,-0.0734473,0.0209932,-0.00569299,0.0231485
0.0285438,0.248938,-0.0114643,-0.0789727,-0.0472064,-0.0584474,0.0332834,-0.0153138,0.00248659
0.0281796,0.247716,-0.0125664,-0.052999,-0.0348646,-0.0464842,0.027158,-0.00233743,-0.0198779
0.0279123,0.24692,-0.0130773,-0.0292478,-0.00245822,0.00247371,0.0406868,-0.00629894,-0.0296854
0.0281162,0.246749,-0.0125272,0.00102643,0.00458162,0.0461612,0.0348118,0.00157703,-0.0289474
0.0276632,0.246961,-0.0113978,0.0105446,-0.0275484,0.0645129,0.0191847,-0.00897512,-0.0225477
0.0272182,0.247535,-0.0100312,0.0479258,0.0202193,0.069078,0.0102968,-0.0207627,-0.0375537
0.0276369,0.248742,-0.00882113,0.061215,0.0315926,0.0592569,-0.00673291,-0.00883533,-0.0187723
0.0279442,0.249914,-0.00749069,0.0566005,0.0320161,0.076053,-0.00419961,-0.0159242,-0.00461954
0.027883,0.251194,-0.00599326,0.0627825,-0.0157618,0.0656911,-0.0187189,-0.0103963,0.00960642
0.0268292,0.252192,-0.00504328,0.0348163,-0.051709,0.0305655,-0.0330117,-0.0190579,0.0140246
0.0263026,0.252923,-0.00481487,0.0392059,0.00922698,-0.00768795,-0.0400808,-0.0199674,-0.00373793
0.0268431,0.253574,-0.0053068,0.0128182,0.0131789,-0.0324932,-0.0427663,-0.000904769,0.0141363
0.0266009,0.253411,-0.0059415,-0.0210567,-0.0442973,-0.0283185,-0.0228949,-0.00654,0.0202105
0.0257111,0.253329,-0.00658661,0.0121509,-0.039092,-0.0431226,-0.0324103,0.00212342,-0.00649494
0.0251847,0.253782,-0.00759021,0.0222893,-0.0189259,-0.0606391,-0.0335002,0.00654423,-0.0072974
0.0251754,0.254089,-0.00878762,0.0071566,-0.00288384,-0.0603235,-0.0232658,0.00450712,0.00309318
0.0248916,0.254069,-0.00991257,-0.00294157,-0.0412118,-0.0485225,-0.0132868,0.00946254,0.0130385
0.0240214,0.2541,-0.0107017,0.0106693,-0.0516456,-0.0337554,-0.00806532,0.00859213,0.00359082
0.0228451,0.254359,-0.0112905,0.0216801,-0.0608986,-0.0313337,-0.00599489,0.00366995,0.000805855
0.0219327,0.254606,-0.0119435,8.68989e-05,-0.0398202,-0.0331951,-0.00892535,0.00476363,0.00645494
0.021137,0.254226,-0.0125706,-0.0336436,-0.0428822,-0.0288124,0.00256936,0.000244975,0.0119689
0.020483,0.253506,-0.0131275,-0.0340013,-0.0382478,-0.0287357,0.00174897,0.000387579,0.00259554
0.0196809,0.252855,-0.0137679,-0.0271992,-0.0522355,-0.0305261,0.00743538,-0.00237897,-0.00599962
0.0187105,0.252397,-0.014256,-0.0183816,-0.0522365,-0.0154798,0.0145525,-0.00148015,-0.0129013
0.0179498,0.252182,-0.0143488,-0.00357272,-0.0191814,0.00603687,0.0179888,0.000204653,-0.0201281
0.017944,0.252348,-0.0141305,0.0178419,0.00850064,0.0145141,0.0173847,-0.000169247,-0.0157443
0.0180026,0.252911,-0.0138016,0.0350593,0.00613922,0.0184442,0.0175594,-0.00833678,-0.00804293
0.0179348,0.253571,-0.0135715,0.0286933,-0.0195479,0.00521716,0.0124248,-0.0112381,0.00508332
0.0175344,0.253929,-0.0135776,0.0150923,-0.0151436,0.00231717,0.0211147,-0.0131494,0.000895619
0.0176666,0.254239,-0.0134316,0.0205238,0.012358,0.0112117,0.0220562,-0.0069595,-0.00794303
0.0180551,0.254841,-0.0132074,0.043371,0.031005,0.0115654,0.0150912,-0.00660589,-0.0156239
0.0186996,0.256073,-0.0131343,0.0661211,0.0104274,-0.004859,0.0104756,-0.00725982,-0.00850046
0.0188481,0.257273,-0.0134889,0.0504993,0.00279638,-0.0174351,0.0134811,-0.00767159,-0.000338852
0.0196466,0.258088,-0.0139454,0.0313846,0.0456132,-0.0247445,0.0068384,0.00329465,-0.00106508
0.0207578,0.258591,-0.0146633,0.0270099,0.0488377,-0.0378686,-0.000107743,0.00626847,-0.00390089
0.0224111,0.259394,-0.0154024,0.055588,0.081213,-0.0326277,0.00460087,0.00638762,-0.013418
0.0238744,0.260579,-0.0162212,0.0580941,0.0481073,-0.0451931,-0.00194808,0.0144757,0.00240368
0.0252535,0.261549,-0.0170615,0.0418725,0.0684773,-0.0318617,0.00472169,0.0144828,0.00808668
0.0252535,0.261549,-0.0170615,0.0418725,0.0684773,-0.0318617,0.00472169,0.0144828,0.00808668
0.0266156,0.26198,-0.0176994,0.00292217,0.0517599,-0.0359974,-0.0103388,0.0251985,0.0208195
0.0279961,0.261668,-0.0185597,-0.0166663,0.077378,-0.0496801,-0.0103312,0.0106457,0.00806165
0.0300651,0.261474,-0.019597,0.00616238,0.0910694,-0.053397,-0.0125746,0.0167137,0.00510907
0.0318235,0.261653,-0.0205801,0.0215235,0.0712841,-0.0351951,-0.00110265,0.0236768,0.0150963
0.0332599,0.262013,-0.0208219,0.0176428,0.0555237,0.0084,0.00723358,0.0262376,0.0343823
0.0335961,0.261724,-0.0205226,-0.0442609,-0.00446953,0.0151893,-0.00118067,0.0174739,0.0563732
0.0334026,0.260486,-0.0202386,-0.0721161,0.000227712,0.00296561,-0.010404,-0.00264227,0.0345125
0.0330589,0.258864,-0.0204663,-0.0826833,-0.0415256,-0.0292319,-0.0180966,-0.00308067,0.0211458
0.0325158,0.25725,-0.0209274,-0.0747121,-0.0248256,-0.0148475,-0.00258589,-0.00842625,-0.00558573
0.0320385,0.25585,-0.0210222,-0.0672791,-0.0253015,-0.00233399,-0.00665252,0.000123262,-0.0187658
0.0317373,0.254734,-0.0208326,-0.0437645,0.0100671,0.0215171,0.00582153,-0.0100814,-0.0338709
0.0316854,0.254141,-0.0198844,-0.0188553,-0.000935468,0.0692944,0.00605014,-0.00226316,-0.0318738
0.0309303,0.25397,-0.0184348,-0.00629879,-0.0318313,0.0609821,-0.00980699,-0.0162681,-0.024377
0.0302637,0.254088,-0.0176758,0.0169248,-0.0133691,0.0103736,-0.0234739,-0.0324964,-0.0335421
0.0304894,0.254499,-0.017852,0.0197928,0.0211918,-0.0220726,-0.0297622,-0.0232787,-0.0293644
0.031018,0.254678,-0.0182555,0.00098288,0.0190906,-0.0148533,-0.0129839,-0.0186958,-0.0153566
0.0312217,0.254789,-0.0183785,0.0134917,0.00121952,0.000891073,-0.0138972,-0.0102878,-0.0179846
0.0311383,0.255345,-0.0183391,0.0430821,-0.00810177,-0.00411694,-0.0239745,-0.0134573,-0.0248058
0.0310217,0.256395,-0.0187529,0.0618892,-0.00628687,-0.0335049,-0.03426,-0.0154938,-0.0229163
0.0314404,0.257717,-0.0196767,0.0675765,0.0162153,-0.0477837,-0.0307327,-0.00744027,-0.0150861
0.0319911,0.258848,-0.0207353,0.0500921,0.0175719,-0.0473603,-0.019125,0.000977755,0.00241518
0.0327545,0.259837,-0.0215383,0.0556919,0.0404225,-0.0363945,-0.0184505,0.00754851,0.00471663
0.0334554,0.261033,-0.0224982,0.0639669,0.0168063,-0.0547839,-0.020994,0.00339437,0.0160136
0.033827,0.262207,-0.0236897,0.0544918,0.00287782,-0.059464,-0.0145982,0.00881591,0.0319334
0.0337616,0.262862,-0.0247569,0.01517,-0.0200253,-0.0452354,-0.00453482,0.0146211,0.0471466
0.0333948,0.262638,-0.0255989,-0.0311601,-0.0327491,-0.0421064,2.86885e-05,0.0135351,0.0475827
0.0327847,0.261557,-0.0264403,-0.0700664,-0.0536665,-0.043926,0.00282092,0.0121556,0.0397492
0.0316354,0.260135,-0.0272075,-0.0636521,-0.0630108,-0.0329274,0.0167973,0.0115442,0.0124722
0.0306769,0.259099,-0.0275043,-0.0411155,-0.04578,0.00115576,0.0264735,0.021087,-0.00624567
0.0296336,0.258418,-0.0269695,-0.0283971,-0.0389028,0.0447673,0.0363265,0.020276,-0.0137162
0.0289346,0.257998,-0.0256944,-0.0174514,-0.00653965,0.0791611,0.0316278,0.0141935,-0.0211422
0.0283737,0.25773,-0.0239458,-0.0149527,-0.00751623,0.08794,0.021319,0.00422996,-0.0158858
0.0281125,0.257624,-0.0221538,0.00854633,0.020717,0.0844357,0.0115304,-0.00852168,-0.0217569
0.0283033,0.257888,-0.0205625,0.0190241,0.0204197,0.0735696,2.58461e-05,-0.0112728,-0.0112244
0.0286058,0.258207,-0.0191809,0.0149377,0.0377356,0.0679121,0.00532046,-0.0153134,-0.00368458
0.0291219,0.258217,-0.0177136,-0.0129591,0.0327106,0.0732221,-0.00173949,-0.0132887,0.00780338
0.0292773,0.257913,-0.0164759,-0.0167892,0.0093197,0.0473791,-0.0104521,-0.0265528,0.00471795
0.0291987,0.257896,-0.0158519,0.0093854,-0.00307265,0.0144344,-0.0201877,-0.0260813,-0.014532
0.0289637,0.25821,-0.0158601,0.0130369,-0.0153332,-0.0106841,-0.0180204,-0.0223445,-0.0194883
0.0290252,0.258418,-0.01606,0.00465913,0.0189868,-0.00700424,-0.00796169,-0.0168943,-0.0258145
0.0299442,0.2587,-0.0161034,0.0176343,0.0712212,0.00445176,-0.0119451,-0.00533018,-0.0319095
0.0312948,0.259351,-0.0159575,0.0462401,0.0680251,0.00856319,-0.0106815,-0.00819549,-0.0267296
0.0324659,0.260739,-0.015792,0.088634,0.0615844,0.0100798,-0.0135713,-0.00264227,-0.0196458
0.0334108,0.262885,-0.0156724,0.112202,0.0396903,0.0039078,-0.017578,-0.000844359,0.00290149
0.034007,0.26482,-0.0158496,0.0787176,0.0233622,-0.00862125,-0.00682942,-0.000486255,0.0286837
0.0345209,0.265944,-0.0160231,0.0354107,0.0246474,-0.00702891,-0.00783377,0.00895926,0.0384889
0.0346724,0.266273,-0.0161932,0.000516651,-0.0177797,-0.00927598,-0.00143085,0.0073089,0.0407623
0.0340113,0.266048,-0.0163926,-0.0159925,-0.0487884,-0.0166246,-0.00494586,0.00761065,0.0266526
0.0331556,0.265716,-0.0170094,-0.0152611,-0.0441431,-0.0443222,-0.00583258,0.00449795,0.00639713
0.0329728,0.26552,-0.0180032,-0.000350286,0.00992832,-0.043039,0.000598103,0.0146698,-0.0111238
0.0337023,0.265447,-0.0187618,-0.00930265,0.0324311,-0.0269748,0.00819467,0.0231895,-0.00500923
0.0343446,0.265148,-0.019182,-0.0177744,0.0272582,-0.0123247,0.0143169,0.0173472,0.00151759
0.034773,0.264786,-0.0193527,-0.0184488,0.0134574,-0.0128666,0.00552344,0.0133353,0.00269681
0.035023,0.264344,-0.0196712,-0.0189573,0.0133557,-0.0237067,0.00170769,0.00584418,0.0020867
0.035023,0.264344,-0.0196712,-0.0189573,0.0133557,-0.0237067,0.00170769,0.00584418,0.0020867
0.0355239,0.263661,-0.0200967,-0.0399975,0.0156663,-0.0193496,0.00205738,0.00693896,0.00461304
0.0358514,0.262531,-0.020376,-0.0607481,0.00543171,-0.00766948,0.00444693,0.00566545,0.0049715
0.0361544,0.261453,-0.0203329,-0.0331854,0.0175792,0.00531866,-0.00037222,0.00338846,-0.010797
0.0363741,0.261154,-0.0202115,0.00206655,0.00908739,0.00368176,-0.00659908,-0.00245473,-0.0139471
0.0366123,0.261348,-0.0201394,0.00571456,0.00195393,0.00444168,-0.00678142,-0.00483102,-0.00111181
0.0362807,0.261016,-0.0200939,-0.0376466,-0.025757,-0.00177582,-0.00651019,-0.00924161,0.0151905
0.0361049,0.259955,-0.0201924,-0.0534979,0.00628432,-0.010117,-0.00670124,-0.011914,-0.000781119
0.0363303,0.259008,-0.0204675,-0.0349729,0.00728456,-0.019133,-0.0119174,-0.00587142,-0.0109373
0.0365084,0.258633,-0.0208253,-0.00483899,0.00821578,-0.0162468,-0.000892997,-0.00966763,-0.0171342
0.0365519,0.258689,-0.021082,0.00244657,-0.00467725,-0.00857157,0.00120172,-0.00279239,-0.0110772
0.0365097,0.258812,-0.021139,0.00352218,-0.000817269,-0.00224293,0.00542453,-0.00726643,-0.00845212
0.0363916,0.259011,-0.021192,0.0119709,-0.0106306,-0.00517633,-0.00221096,-0.0046179,-0.0118251
0.0361635,0.259486,-0.0212923,0.0329451,-0.00802684,-0.00268048,-0.000506144,-0.00656942,-0.0160435
0.0362717,0.260291,-0.0213811,0.0443381,0.0128134,-0.00596864,-0.00646246,6.88434e-06,-0.0132175
0.0366825,0.261125,-0.0215903,0.0371514,0.0219868,-0.0109177,-0.00506606,-0.00554961,-0.000507534
0.0370191,0.261702,-0.021907,0.0229835,0.00449454,-0.0156824,-0.00448526,-0.000979275,0.0113249
0.0368078,0.261966,-0.0222462,0.00773116,-0.0268429,-0.0154624,-0.000998139,-0.00029704,0.012729
0.0362806,0.262071,-0.0225879,0.00250506,-0.0272708,-0.0204275,-0.00729368,0.000323087,0.00371778
0.0359686,0.262024,-0.0231687,-0.0055272,-0.0126057,-0.0372527,-0.0101516,-0.000561506,0.000322819
0.0360905,0.261729,-0.0239623,-0.0245238,-0.00391714,-0.0410513,-0.0034055,0.00176266,0.00175297
0.0361005,0.261231,-0.0246264,-0.0184034,-0.00531042,-0.0227548,0.00802432,0.00581288,-0.00654143
0.0361114,0.261164,-0.0248138,0.0083901,-0.00192612,0.00323511,0.0118126,0.0113331,-0.012857
0.0358575,0.261558,-0.0246047,0.0248129,-0.00594864,0.0167332,0.0124276,0.00704497,-0.00770098
0.0355525,0.262028,-0.0242468,0.014362,-0.017685,0.016781,0.0075689,0.00337908,0.00245714
0.0350676,0.262066,-0.0239073,-0.00268826,-0.019271,0.0165464,0.00399372,0.00129434,0.00765198
0.0348293,0.261939,-0.0236357,-0.0015916,-0.00650645,0.00903281,-0.00253701,-0.000598162,-0.00198126
0.0347975,0.261957,-0.0235441,0.0122484,0.00434958,0.00150493,-0.000766665,-0.00207618,-0.00499082
0.0349685,0.262216,-0.0234409,0.00941766,-0.00443277,0.00937094,0.00195447,0.00221774,0.00663984
0.0345584,0.262147,-0.023313,-0.013065,-0.0262129,0.00526519,0.00308211,-0.000610471,0.0127444
0.0342306,0.261817,-0.023229,-0.0218678,-0.00524228,1.9209e-05,-5.28321e-05,0.000474215,-0.000159681
0.0342369,0.261408,-0.0232041,-0.0201298,0.00940555,0.00576922,0.00407258,0.00194085,-0.00371629
0.0344906,0.261096,-0.0229714,-0.0149278,0.0123497,0.0150639,0.0056712,0.00176182,-0.00385791
0.0346308,0.260964,-0.0227044,-0.00185365,0.00963315,0.0106334,0.00280333,-0.00219598,-0.00184482
0.0348031,0.261012,-0.0225319,0.00146364,0.0101177,0.00657931,0.00278994,-0.00335485,0.000746191
0.034817,0.260944,-0.0224735,-0.00765986,-0.00162926,0.0015053,0.00298953,-0.000902951,0.00540197
0.0350606,0.26085,-0.0222318,-0.00476776,0.0230534,0.0211242,0.00971152,0.000486016,0.000977755
0.0353232,0.26067,-0.0218267,-0.0138088,0.0164284,0.0158133,0.00182688,0.00310478,0.00489092
0.0355056,0.260417,-0.0214826,-0.0150919,0.00587295,0.0150644,0.00268605,-0.00335044,0.000829995
0.0354274,0.260189,-0.0211932,-0.0110598,-0.00834796,0.0151461,0.0047584,-7.65026e-05,-0.000176787
0.0353115,0.259914,-0.0207209,-0.0184246,0.0109422,0.0338331,0.00930817,0.00303033,-0.0067246
0.0354432,0.259596,-0.019837,-0.011642,0.0266717,0.0517183,0.00917805,0.0038062,-0.00972968
0.0358048,0.259617,-0.0186894,0.00719207,0.0314499,0.0585977,0.00646384,-0.00187996,-0.0117922
0.0359414,0.259971,-0.0174533,0.0226661,0.0132374,0.0648564,0.00366494,-0.00494125,-0.0059368
0.035752,0.260451,-0.0160818,0.0162526,-0.00123774,0.0718673,0.00240269,-0.00354627,0.00136203
0.0353975,0.260566,-0.0146877,-0.00607721,0.00220023,0.0647194,-0.000809319,-0.0093253,0.00375557
0.0352449,0.260245,-0.0134505,-0.0210496,0.0151481,0.0593632,-0.00205335,-0.00975752,-0.00419801
0.0353911,0.260008,-0.0122267,-0.00311718,0.0254393,0.0623226,0.00659231,-0.00853649,-0.0141672
0.0356825,0.260347,-0.0107758,0.0273256,0.0336746,0.0794699,0.0100677,-0.00201422,-0.0138828
0.03575,0.26117,-0.00892756,0.0389249,0.0162607,0.0964864,0.0125583,-0.00126448,-0.00413328
0.0352289,0.261836,-0.0068254,0.0157237,-0.00944307,0.107814,0.0132353,-0.00310829,0.00660723
0.0344165,0.262064,-0.00448491,0.0011377,-0.00926343,0.116076,0.00593448,-0.00253761,-0.00346458
0.0339292,0.262308,-0.00214391,0.0174077,0.0173182,0.113017,-0.00244316,-0.00726041,-0.0220971
0.0338803,0.263094,0.000128324,0.0517713,0.0289931,0.114082,-0.00328927,-0.00703529,-0.0287693
0.0338797,0.264477,0.00246714,0.0741422,0.0223421,0.117738,-0.0109822,-0.0039157,-0.0223545
0.0338797,0.264477,0.00246714,0.0741422,0.0223421,0.117738,-0.0109822,-0.0039157,-0.0223545
0.0336217,0.266194,0.00474614,0.0923653,0.0129858,0.104627,-0.021323,-0.0078283,-0.0172724
0.0336492,0.268027,0.00643602,0.0888343,0.0382634,0.06157,-0.0419631,-0.0112329,-0.0145067
0.034483,0.269837,0.00712631,0.0890806,0.0594215,0.0117555,-0.0505168,-0.0114713,-0.00645465
0.0356963,0.271429,0.00691673,0.0746657,0.0543645,-0.021747,-0.0470012,-0.00215515,0.0085972
0.0364471,0.272772,0.00635355,0.0702363,0.0160456,-0.0314941,-0.0381741,0.00650844,0.0167553
0.0366726,0.274315,0.00548562,0.084559,-0.00278321,-0.0537939,-0.0401306,0.0115336,0.0151713
0.0367232,0.275804,0.0040768,0.0598519,-0.00653515,-0.0781784,-0.0403018,0.0138365,0.0222879
0.0368354,0.276469,0.00229007,0.0134147,-0.0069867,-0.0924759,-0.0322242,0.0178027,0.0272602
0.0373445,0.276521,0.000307427,0.00328948,0.0114129,-0.102971,-0.0275557,0.0199891,0.0179963
0.0377676,0.276494,-0.00177898,0.00879444,-0.010211,-0.0957756,-0.0152674,0.021169,0.0129681
0.0376731,0.276684,-0.00356884,0.017437,-0.0389113,-0.080114,-0.0066449,0.0197949,0.0102495
0.0372274,0.276973,-0.0052074,0.0138379,-0.0431745,-0.080059,-0.00471814,0.0134962,0.0145659
0.0367548,0.276751,-0.0069793,-0.0290136,-0.0486238,-0.0946953,-0.00763826,0.00362429,0.0180765
0.0363257,0.275922,-0.0090645,-0.039752,-0.0517714,-0.107247,-0.000550695,-0.00146082,0.00861299
0.0358923,0.275264,-0.0111888,-0.00949513,-0.0399093,-0.0990396,0.00681761,-0.00130072,-0.013837
0.0358986,0.275347,-0.0131101,0.0196077,-0.0192666,-0.0848289,0.0124124,-0.00158757,-0.0164689
0.0358832,0.275547,-0.0147846,0.00333236,-0.0263829,-0.0737026,0.0221337,-0.00809363,-0.000287414
0.0355753,0.275241,-0.0161753,-0.0236555,-0.0394048,-0.0604611,0.0221522,-0.00928783,0.00311738
0.0352135,0.274963,-0.0173078,0.00662062,-0.0290528,-0.0480401,0.0189117,-0.0112497,-0.0167227
0.0351652,0.275381,-0.0183243,0.0359396,-0.0061158,-0.0475948,0.0146133,-0.00756633,-0.0247082
0.0356475,0.276127,-0.0192875,0.0313991,0.015593,-0.0425547,0.0159421,-0.00790143,-0.0101418
0.0362621,0.27648,-0.0200964,0.00801667,0.0130858,-0.028973,0.0187268,-0.0055168,0.00510615
0.036767,0.276667,-0.0206203,0.0135503,0.0132509,-0.0184131,0.0158019,-0.00135425,0.00204664
0.0370383,0.277106,-0.0209685,0.0306496,-0.00586685,-0.00984577,0.0144927,0.0012956,0.00327522
0.0367766,0.277856,-0.021115,0.0461722,-0.0207559,0.00106368,0.0131801,0.00267315,4.26173e-05
0.0367625,0.278766,-0.0211347,0.0394101,0.0041541,0.00379841,0.00854888,0.00814059,0.00260109
0.0371778,0.279198,-0.0210616,0.00111978,0.0265859,0.00996057,0.00780344,0.00847986,0.0106308
0.0376518,0.278885,-0.0207531,-0.0292283,0.016467,0.01912,0.00801623,0.00509667,0.013477
0.0376766,0.278284,-0.0203662,-0.0283427,-0.00677093,0.0186039,0.00379001,0.00525084,0.00297552
0.0374055,0.277913,-0.0199706,-0.00262836,-0.00141466,0.0211133,-0.00341484,0.00309393,-0.0142776
0.0375684,0.278102,-0.0195611,0.0216549,0.0229561,0.025332,-0.0050953,0.00541216,-0.016853
0.0380809,0.278541,-0.0190262,0.0161558,0.0368932,0.0312606,-0.00523222,0.00545225,-0.00342697
0.0385269,0.278628,-0.0183623,-0.00852796,0.0170096,0.0314085,-0.00750617,0.0020417,0.0118372
0.0385393,0.278418,-0.0178778,-0.00933178,0.000888356,0.0136708,-0.0148598,-0.00571299,0.0097124
0.0384383,0.278312,-0.017789,-0.00097655,-0.00526762,-0.00274448,-0.0161523,-0.0063487,0.00364161
0.0382102,0.278187,-0.017921,-0.0111624,-0.0178848,-0.00692966,-0.00734387,-0.00360057,0.00785005
0.0379334,0.277802,-0.0180011,-0.0256986,-0.00575529,-0.00369786,-0.00726502,0.000484645,0.0046699
0.0378708,0.277216,-0.0181646,-0.0349132,0.000250407,-0.0128232,-0.00963706,-0.00104049,-0.000172138
0.0378818,0.276629,-0.0184037,-0.027388,-0.000902306,-0.0125079,-0.00475569,-0.00273389,-0.00651258
0.0377802,0.276298,-0.0186363,-0.00585175,-0.0118785,-0.0128759,-0.00386796,-0.000671774,-0.0112251
0.0374906,0.276451,-0.0188666,0.016797,-0.0199717,-0.011514,-0.000292044,-0.000723004,-0.011821
0.0370877,0.276765,-0.0190962,0.00408577,-0.018538,-0.00665731,0.00434045,0.00385112,-0.00150084
0.0366273,0.276546,-0.0191031,-0.02489,-0.0203534,0.00682742,0.00755791,0.00522727,-8.18968e-05
0.0362773,0.276149,-0.0188459,-0.00684094,-0.00833723,0.0183849,0.00558642,0.00100052,-0.0164868
0.0360149,0.276392,-0.0184408,0.0347011,-0.00829816,0.021225,0.00574949,-0.000764579,-0.0224949
0.0354951,0.277404,-0.0180297,0.0623907,-0.0323698,0.0199834,0.000781141,-0.00290373,-0.0141017
0.034699,0.278639,-0.0176564,0.0566723,-0.0441245,0.0239223,0.00435045,-0.00119764,-0.0035035
0.0336347,0.27937,-0.0171006,0.0205004,-0.0484871,0.0328948,0.00713465,0.000253141,0.00395948
0.0326578,0.27971,-0.0163842,0.022615,-0.0254999,0.0349143,-0.00272701,-0.00144985,-0.00751662
0.0320643,0.28029,-0.0158795,0.0403642,-0.026912,0.0134289,-0.00999473,-0.0043864,-0.00976419
0.0314699,0.2812,-0.016038,0.0547481,-0.0289323,-0.0363185,-0.0228131,-0.00732678,-0.0100591
0.0322289,0.282165,-0.0180704,0.037975,0.0533135,-0.157724,-0.0379681,-0.0199197,-0.0179338
0.036205,0.282315,-0.0228231,-0.00431038,0.225702,-0.300723,-0.0698746,-0.0448304,-0.0255678
0.0426226,0.281229,-0.0295663,-0.0837786,0.184711,-0.318555,-0.0215876,-0.0131284,0.0215949
0.0426226,0.281229,-0.0295663,-0.0837786,0.184711,-0.318555,-0.0215876,-0.0131284,0.0215949
0.045658,0.278664,-0.0346232,-0.136611,-0.0349332,-0.176829,0.0427732,0.00895828,0.0465577
0.0433169,0.276348,-0.0369806,-0.0788635,-0.223592,-0.0718312,0.0290642,0.00567752,0.0232897
0.0368017,0.275728,-0.0382619,0.0295482,-0.422968,-0.0601053,8.83639e-05,-0.00924629,-0.00110132
0.0277102,0.277743,-0.0399025,0.166125,-0.48533,-0.105833,-0.0254394,-0.022018,-0.0211906
0.0189544,0.281808,-0.0426444,0.231062,-0.444198,-0.145514,-0.0310688,-0.00898618,-0.0251682
0.0124354,0.286091,-0.0459296,0.183994,-0.286267,-0.158684,-0.00983918,0.00307539,-0.00548732
0.00858743,0.28865,-0.0489077,0.0690949,-0.18884,-0.121231,0.0103989,0.00528532,0.0179961
0.00557825,0.288975,-0.0509072,-0.0204656,-0.166928,-0.0720909,0.0183042,0.00658849,0.0258434
0.00257947,0.288341,-0.0521357,-0.0231948,-0.165231,-0.0554595,0.00790299,-0.00189239,0.00232327
-0.000160636,0.288363,-0.0533895,0.0235969,-0.126747,-0.0674129,0.0020766,-0.00173408,-0.0118857
-0.00224379,0.288871,-0.0547471,0.0213423,-0.109102,-0.0547653,0.00640801,0.00882369,0.003043
-0.00369454,0.289293,-0.0556093,0.0235439,-0.0537357,-0.0377326,0.0116282,0.0142936,-0.00179625
-0.00362414,0.289743,-0.0564115,0.0188714,0.0116694,-0.0330469,0.00492264,0.00975031,-0.00290096
-0.00347847,0.29011,-0.0569575,0.0245733,-0.021674,-0.0150835,0.0110998,0.0119182,0.0029912
-0.00426971,0.290745,-0.0571716,0.0423371,-0.0649648,-0.00730584,0.00869865,0.011367,-0.00349551
-0.00552811,0.29146,-0.0574581,0.0293824,-0.0653218,-0.0210176,-0.00344835,0.00599381,0.00474691
-0.00641179,0.291674,-0.0580738,-0.00970395,-0.0425779,-0.0409995,-0.00898053,0.00873193,0.0100971
-0.00681226,0.291026,-0.0589944,-0.0443392,-0.0269193,-0.0447057,-0.0072682,0.00498384,0.00716776
-0.00681846,0.290081,-0.0600455,-0.0419035,-0.019075,-0.0522799,-0.00977812,0.00790831,-0.00130481
-0.00695216,0.289589,-0.0608795,-0.00096992,-0.0239156,-0.0289993,-0.00580382,0.00772673,-0.00874877
-0.00737011,0.289954,-0.0612874,0.0393942,-0.0299402,-0.0119711,-0.00938658,0.00946507,-0.0105191
-0.00792961,0.290866,-0.0614786,0.0450164,-0.0239789,-0.00769165,-0.0101495,0.00415856,-0.00226974
-0.0082657,0.291413,-0.0618132,0.00825106,-0.0172506,-0.0254287,-0.0182365,-0.00152782,0.00729042
-0.00840362,0.291132,-0.0625648,-0.0269027,-0.0112925,-0.0500039,-0.0162726,-0.0103573,0.00639355
-0.00800932,0.290418,-0.0638905,-0.0348586,0.015143,-0.0746887,-0.0182051,-0.0064941,-0.00195891
-0.00717004,0.289722,-0.0654398,-0.0291198,0.0294678,-0.0702676,-0.0116378,-0.000844002,-0.0038594
-0.00622027,0.289349,-0.0668055,-0.00911631,0.0256522,-0.0626398,-0.00256802,0.00226256,0.0011664
-0.0058847,0.289269,-0.0680463,-0.0101176,-0.0184966,-0.0611371,0.00365653,0.0044286,0.0136577
-0.00621917,0.288847,-0.0693469,-0.0398635,-0.0373031,-0.0682906,0.000926077,0.00355127,0.0156834
-0.00611645,0.2877,-0.0710153,-0.0747639,0.0122333,-0.0976882,-0.00773057,0.0019334,0.0100132
-0.00537152,0.285837,-0.0730956,-0.105001,-0.00114318,-0.0969418,0.00356663,0.0104613,0.0115666
-0.00474144,0.283833,-0.0748499,-0.093866,-0.000497941,-0.0739321,0.0100144,0.0128104,0.00244349
-0.00469801,0.282248,-0.0762595,-0.0683255,-0.0282111,-0.0636023,0.00489356,0.0107537,-0.00486493
-0.00475771,0.281281,-0.0775494,-0.0337719,-0.0105735,-0.0594837,0.00273966,0.0124651,-0.0082891
-0.00448444,0.280727,-0.0786091,-0.0240443,0.00578214,-0.0438696,0.00455301,0.0104833,0.00150931
-0.00416411,0.280193,-0.0794869,-0.0274282,-0.00290562,-0.0402096,0.00619897,0.00871924,0.00785345
-0.00429761,0.279595,-0.0802899,-0.0249089,-0.0336402,-0.0389856,0.00506149,0.00132388,0.00284535
-0.0048319,0.279198,-0.0811408,-0.0148736,-0.0416567,-0.0462037,0.00382079,4.1604e-05,-0.00211334
-0.00528781,0.27861,-0.0821927,-0.0458428,-0.0291371,-0.0476597,0.00590786,0.00106287,0.0028224
-0.00523427,0.277304,-0.0830141,-0.0728571,0.0137038,-0.0323925,0.00556833,0.000982136,-0.00403643
-0.00443625,0.275929,-0.083683,-0.0576111,0.0375282,-0.033967,0.0019796,0.00063622,-0.00957769
-0.00363523,0.275065,-0.0843966,-0.0301407,0.0181836,-0.0328166,0.0047803,-0.00445235,-0.00868344
-0.00344681,0.274651,-0.0850797,-0.0128571,-0.0162305,-0.0322719,0.0100315,-0.00448486,-0.00416058
-0.00345877,0.274546,-0.0856819,-0.000203408,-0.000445743,-0.0248881,0.0108518,-0.00179312,-0.00675678
-0.00314071,0.274596,-0.086084,0.00590585,0.0256955,-0.0155595,0.013338,0.00184071,-0.00609791
-0.00235948,0.274573,-0.0864607,-0.0101872,0.0396087,-0.018723,0.0132421,-0.000714809,0.00324887
-0.00146744,0.274077,-0.0869304,-0.0418571,0.0336562,-0.023398,0.0106595,-0.00171039,0.0114108
-0.000803273,0.273121,-0.0875117,-0.0539737,0.0116434,-0.030082,0.0144454,-0.00318027,0.00878596
-0.000573349,0.272097,-0.0881021,-0.040055,-0.00210015,-0.025369,0.0157653,-0.00145054,-0.00346559
-0.000219168,0.271592,-0.0885651,-0.0145478,0.0181951,-0.0195352,0.0105413,0.00221273,-0.0162844
0.000484844,0.271519,-0.0890091,-0.00138161,0.0333856,-0.0183417,0.00862715,0.00347063,-0.0166771
0.00117972,0.271371,-0.0893393,-0.0187713,0.0193176,-0.0104702,0.0109331,0.00587618,-0.00867283
0.00169553,0.27095,-0.0894321,-0.0180455,0.0275541,0.00464837,0.0102987,0.00634018,-0.016068
0.00169553,0.27095,-0.0894321,-0.0180455,0.0275541,0.00464837,0.0102987,0.00634018,-0.016068
0.00246185,0.270841,-0.0891598,0.00855465,0.0495944,0.0241387,0.00455538,0.0101418,-0.0225713
0.00321078,0.271218,-0.0885161,0.0294245,0.0324657,0.0385002,0.00232346,0.00745302,-0.0174252
0.00333239,0.271821,-0.0877068,0.0333399,0.00356205,0.0387338,-0.0025234,0.000312686,-0.00808096
0.00318535,0.272358,-0.0868765,0.0201492,-0.000680326,0.0415806,-0.00866792,-0.00098604,-0.00115997
0.00282204,0.272507,-0.086002,0.000499677,-0.0141165,0.0470927,-0.0103473,-0.000994503,0.000143588
0.0022766,0.272405,-0.084983,-6.47581e-05,-0.00849835,0.0522397,-0.0154983,-0.00193223,-0.00928795
0.0020457,0.272708,-0.0839529,0.0319338,0.0116966,0.0434219,-0.0250719,-0.000633091,-0.0162661
0.00201231,0.273509,-0.0832632,0.0422133,0.0024927,0.02127,-0.0307308,-0.00465366,-0.00561768
0.00171144,0.274161,-0.0830785,0.0140952,-0.0197266,-0.00395287,-0.0245052,-0.00727564,0.0100908
0.00121663,0.274047,-0.0831824,-0.0183891,-0.0241628,-0.00349582,-0.0177575,-0.00312838,0.0127928
0.000616013,0.27358,-0.0832139,-0.0199838,-0.0311458,-3.18247e-05,-0.012907,0.0018087,0.000681877
-7.67676e-05,0.27354,-0.0830827,0.0164869,-0.021292,0.0102876,-0.00912715,0.00332662,-0.0113768
-0.000620835,0.27413,-0.0828044,0.0339584,-0.0202317,0.0137353,-0.0121434,0.0055573,-0.00911027
-0.00133871,0.274883,-0.0825166,0.0393789,-0.0365083,0.0116361,-0.0140466,0.00156775,-0.00579041
-0.00211193,0.275709,-0.0823598,0.0392595,-0.0359092,0.00103248,-0.015668,0.00256091,-0.00197268
-0.00270401,0.276418,-0.0823925,0.0344358,-0.0218256,-0.00353902,-0.0141223,0.00399059,-0.00033617
-0.00295603,0.277006,-0.0825216,0.0273057,-0.00330971,-0.0102564,-0.0158182,0.00406805,0.00324088
-0.00299465,0.277306,-0.0828942,0.00629199,-0.00541055,-0.0230942,-0.0147437,0.00348687,0.0127259
-0.00308529,0.277231,-0.083362,-0.0137305,-0.0109948,-0.0236687,-0.00557745,0.00417781,0.0188344
-0.00333596,0.276778,-0.0837846,-0.0316753,-0.0220212,-0.0206241,-0.00617517,0.00493187,0.0185761
-0.00399156,0.27603,-0.0842825,-0.0406918,-0.0517288,-0.0296863,-0.00890065,0.000535071,0.0145665
-0.00474284,0.27524,-0.0849965,-0.034982,-0.0342574,-0.0361795,-0.00736808,-0.00124785,0.00110662
-0.00507,0.274639,-0.0856093,-0.0258321,-0.0112082,-0.020039,-0.0013914,0.00346842,-0.00326359
-0.00510007,0.274201,-0.0858217,-0.0180016,0.00192017,0.000899863,0.0053215,0.00394711,-0.001665
-0.00511467,0.273918,-0.085751,-0.0114142,-0.000610901,0.0049753,0.00377955,-0.00232202,-0.000901818
-0.00519768,0.273788,-0.0857059,-0.00479526,-0.00314646,0.0024875,0.00408853,-0.00482768,0.00291711
-0.0053924,0.273557,-0.0856031,-0.0179508,-0.0121985,0.00724154,0.00932699,-0.00335616,0.00928038
-0.00568921,0.272941,-0.0853358,-0.036861,-0.0109089,0.0148905,0.0110786,-0.00513908,0.00437903
-0.00571657,0.27226,-0.0851062,-0.0256385,0.0151446,0.00647829,0.00622313,-0.00976238,-0.0104829
-0.00517519,0.272008,-0.0850118,-0.00150192,0.0320865,0.00142762,0.00443558,-0.0132862,-0.0168972
-0.00457333,0.272235,-0.0849463,0.019278,0.0194749,0.00919905,0.0138043,-0.0117245,-0.00987542
-0.00423446,0.272627,-0.0846631,0.0116271,0.0328209,0.0219225,0.011738,-0.00734854,-0.00647008
-0.00330128,0.272759,-0.0843187,0.00154279,0.0554737,0.00591419,-0.000620216,-0.0138895,-0.0105001
-0.00215964,0.272838,-0.0844277,0.00847606,0.0606991,-0.013034,-0.00155184,-0.0225265,-0.0168049
-0.000799162,0.273355,-0.084802,0.040406,0.0597569,-0.0196145,-0.0040523,-0.0133161,-0.0215047
0.000418474,0.27448,-0.085188,0.0724484,0.0474949,-0.0179807,-0.00458372,-0.0102946,-0.0193065
0.00129551,0.276173,-0.0854353,0.0929211,0.0443799,-0.00571372,0.00145438,-0.00535437,-0.012199
0.0023157,0.27797,-0.0855549,0.077207,0.054834,-0.00460942,-0.00379847,0.000966728,0.00313103
0.00371229,0.279359,-0.0856924,0.059122,0.094842,-0.0123896,-0.0143563,4.39286e-05,0.00787187
0.00567651,0.280375,-0.0861758,0.0416511,0.0779049,-0.0372195,-0.0210951,-0.00331309,0.0220629
0.00686608,0.280943,-0.0871451,0.0170853,0.0150617,-0.0519248,-0.0119985,-0.00194332,0.0351278
0.00705627,0.28109,-0.0881174,0.00223278,-0.00760917,-0.0418767,-0.00320873,0.00626945,0.0268614
0.00717371,0.280942,-0.088902,-0.0146758,0.00620346,-0.0363812,-0.0065262,0.00908762,0.0119479
0.00754931,0.280674,-0.0896225,-0.0148395,0.0212491,-0.0346062,-0.000753596,0.00742602,0.00231504
0.00810071,0.280454,-0.090156,-0.012641,0.0177235,-0.0153461,0.00681853,0.00681865,0.00366861
0.00844183,0.280241,-0.0903203,-0.00903504,0.0166939,-0.00475627,0.00325537,0.00353113,-0.000394881
0.00875115,0.280301,-0.0906237,0.0162554,0.0141437,-0.0243243,-0.000368141,-0.00120279,-0.00894362
0.00919355,0.28072,-0.0911434,0.0233195,0.0094503,-0.0195719,0.00685247,0.00180933,-0.00357032
0.00942715,0.281157,-0.0912912,0.0199756,0.0113883,0.00476607,0.00836866,0.00816524,0.00549215
0.00963444,0.281418,-0.0910797,0.00855652,0.0122618,0.0118755,0.00041876,0.00394478,0.0100566
0.00993389,0.281494,-0.0910329,0.00454047,0.0142966,-0.00851883,-0.00836784,-0.00991333,0.0106735
0.0102456,0.281532,-0.0915601,0.00147137,0.00393874,-0.0411034,-0.0106966,-0.0153855,0.00966811
0.0104891,0.281326,-0.0925542,-0.0214197,-0.0109022,-0.0472615,-0.0028744,-0.0119666,0.0139495
0.0103982,0.280524,-0.0934313,-0.053031,-0.0165007,-0.0378505,0.00456532,-0.0114551,0.00748926
0.0103982,0.280524,-0.0934313,-0.053031,-0.0165007,-0.0378505,0.00456532,-0.0114551,0.00748926
0.0102141,0.279608,-0.094114,-0.035286,-0.0154595,-0.0360216,-0.000829786,-0.012305,-0.0153575
0.0101594,0.279333,-0.0947873,0.00230552,-0.008252,-0.0306204,0.00271623,-0.0108453,-0.027778
0.0102475,0.27967,-0.095238,0.0180773,0.00414346,-0.0154459,0.00669131,-0.00545588,-0.0225158
0.0104626,0.279975,-0.0953825,0.00996124,0.0116995,0.000767109,0.00367787,-0.00685665,-0.0128823
0.0106793,0.280349,-0.0953366,0.0310147,0.0137784,-0.00023847,-0.0023886,-0.0112121,-0.0158871
0.0110753,0.281248,-0.0955418,0.0534474,0.0267056,-0.0161577,-0.00610808,-0.0103481,-0.0139127
0.0116483,0.282238,-0.0958478,0.0420363,0.0201853,-0.0134085,-0.00197085,-0.00550562,-7.99298e-05
0.0123799,0.282888,-0.0961695,0.0223397,0.0382614,-0.0154952,-0.000916474,-0.00543115,0.00502533
0.0132924,0.283124,-0.0965556,0.00326382,0.0537416,-0.0176663,-0.00514865,-0.00169462,0.0071606
0.0142219,0.283154,-0.0970015,0.000291251,0.0199381,-0.0249394,-0.000410475,-0.000262141,0.00891
0.0147233,0.283258,-0.0975639,0.0107702,0.0173177,-0.023215,0.00139741,0.000768602,0.00167179
0.0148895,0.283545,-0.0979485,0.00869318,-0.00892973,-0.00498693,0.00920413,0.01116,0.00593811
0.0148405,0.283762,-0.0978403,0.0107678,0.0181476,0.0135208,0.0087027,0.0101941,-0.00341469
0.0152998,0.283971,-0.0973804,0.0119036,0.0365232,0.0288101,0.000770672,0.0099977,-0.00337291
0.015865,0.284089,-0.0967659,-0.0104694,0.0389812,0.0337632,0.00311264,0.0041596,0.00862485
0.0164916,0.283743,-0.0960705,-0.0163211,0.048577,0.0280442,-0.000389576,0.00459084,0.0119467
0.0172907,0.283293,-0.0956624,-0.0295336,0.0314825,0.0107161,-0.000975713,0.000313908,0.0166067
0.0171899,0.283037,-0.0953299,-0.00922116,-0.0544384,0.02568,0.0110522,0.00325719,0.021639
0.0151485,0.282318,-0.094225,-0.0660949,-0.0880628,0.0836442,0.0232782,0.00763205,0.0214594
0.0132275,0.28076,-0.092314,-0.086227,-0.0554978,0.08966,0.0100721,0.00695968,0.00252438
0.0116689,0.279113,-0.0904523,-0.0907971,-0.0623287,0.097092,0.011427,-0.000451893,-0.00536382
0.00959803,0.277218,-0.0881116,-0.0963331,-0.0656504,0.12166,0.0102388,-0.00650081,-0.0211797
