attitude_roll,attitude_pitch,attitude_yaw,rotationRate_x,rotationRate_y,rotationRate_z,acceleration_x,acceleration_y,acceleration_z
0.20383,0.238419,0.0944283,-0.348408,-0.744154,0.688804,0.0228941,0.127173,-0.189761
0.185752,0.236671,0.11174,-0.104418,-0.524096,0.880565,-0.115268,0.0546276,-0.346586
0.182693,0.241964,0.126525,0.359641,0.700816,0.539036,-0.325266,0.0155346,-0.399917
0.209503,0.250254,0.128715,0.273312,1.92431,-0.184229,-0.417941,0.0264434,-0.0773136
0.257999,0.244804,0.1203,-0.710398,2.68217,-0.669742,-0.307323,0.0326032,0.259791
0.311605,0.21933,0.112807,-1.42755,2.31237,-0.6854,-0.166643,-0.0366811,0.254647
0.343381,0.188397,0.111857,-1.33321,0.679498,-0.391803,0.0297276,-0.0820791,-0.00510848
0.335966,0.170215,0.112278,-0.243931,-1.23314,-0.259694,0.00261268,-0.0616851,-0.468081
0.313085,0.177329,0.100859,1.21848,-0.897962,-0.650411,-0.311543,0.111459,-0.919534
0.315559,0.200747,0.073212,1.6175,0.640344,-1.22287,-0.534874,0.407425,-0.89824
0.348344,0.21446,0.0361085,0.737219,1.77494,-1.81322,-0.569881,0.549841,-0.471807
0.396285,0.201007,-0.00585861,-0.475814,1.93498,-2.50416,-0.450946,0.539927,-0.116916
0.430674,0.162249,-0.0485083,-1.26108,0.522384,-2.83172,-0.105207,0.435692,-0.0941858
0.424978,0.115557,-0.088581,-1.21009,-1.66858,-2.75474,0.353159,0.21645,-0.394848
0.381529,0.0740364,-0.133176,-0.916273,-2.84122,-3.00846,0.25986,0.298395,-0.770003
0.330389,0.0358532,-0.183216,-0.957254,-2.3177,-2.92923,0.251435,0.343356,-0.921742
0.296925,-0.000793854,-0.227603,-1.117,-1.28906,-2.3787,0.338278,0.298294,-0.833081
0.275381,-0.0322583,-0.259513,-0.943778,-0.821023,-1.59433,0.50374,0.111226,-0.737001
0.261562,-0.0527,-0.281086,-0.451584,-0.514148,-1.09748,0.494287,-0.0104087,-0.575668
0.251255,-0.0629605,-0.297715,-0.175287,-0.491618,-0.761116,0.468395,-0.0681374,-0.288338
0.238473,-0.0688584,-0.307801,-0.181737,-0.733765,-0.374948,0.454359,-0.149813,-0.0576872
0.220948,-0.0745215,-0.311742,-0.279356,-1.00665,-0.176678,0.387091,-0.203649,0.0662439
0.198542,-0.0806507,-0.313602,-0.246008,-1.17623,-0.135029,0.32217,-0.218457,0.0152393
0.174981,-0.0846603,-0.314773,-0.142952,-1.18181,-0.0488992,0.317303,-0.195796,-0.0181714
0.151636,-0.0874125,-0.314158,-0.138476,-1.11185,0.0736084,0.336017,-0.173315,-0.0187585
0.132019,-0.0893957,-0.310845,-0.10479,-0.921428,0.216797,0.317712,-0.179914,-0.0352737
0.114506,-0.0904704,-0.306132,-0.0582149,-0.88339,0.207917,0.293926,-0.237289,-0.0634985
0.098531,-0.0899138,-0.30362,0.11375,-0.680069,0.0278881,0.234347,-0.339381,-0.215718
0.0888883,-0.0855151,-0.306112,0.334842,-0.254933,-0.235318,0.181756,-0.379829,-0.266941
0.0871482,-0.0781318,-0.313256,0.455096,0.122346,-0.38675,0.200596,-0.347553,-0.184019
0.0917989,-0.0681928,-0.32219,0.634934,0.396518,-0.404748,0.184544,-0.308618,-0.0828494
0.100645,-0.0542346,-0.332071,0.848619,0.510711,-0.448051,0.110397,-0.274392,0.07003
0.10947,-0.0367229,-0.343286,1.01286,0.405566,-0.480094,0.0575851,-0.250872,0.227337
0.114915,-0.0161785,-0.355205,1.17063,0.154314,-0.472471,0.045128,-0.21233,0.348072
0.114968,0.00779377,-0.366968,1.36127,-0.135123,-0.410184,0.0399363,-0.147114,0.413534
0.110175,0.0359781,-0.37722,1.55646,-0.35214,-0.290258,0.00475852,-0.0762733,0.466621
0.101972,0.0674333,-0.385273,1.64038,-0.509333,-0.187744,-0.0431226,-0.0252691,0.536597
0.0907568,0.099043,-0.391877,1.56256,-0.663313,-0.187726,-0.108773,0.00526847,0.582724
0.0781733,0.12809,-0.399622,1.39757,-0.676839,-0.367894,-0.172516,0.0155423,0.566248
0.0671458,0.153473,-0.41213,1.24221,-0.561423,-0.694715,-0.220619,0.0444269,0.506695
0.0616601,0.176311,-0.430788,1.18309,-0.30317,-0.995332,-0.231946,0.11409,0.444647
0.0629121,0.198582,-0.454845,1.18882,-0.0253578,-1.21442,-0.233464,0.196852,0.408065
0.0701212,0.219886,-0.482614,1.10818,0.132894,-1.35851,-0.228258,0.267969,0.404783
0.0793233,0.238555,-0.513264,0.980235,0.0629705,-1.479,-0.184662,0.257371,0.3504
0.0868896,0.254169,-0.546152,0.842085,-0.115391,-1.58606,-0.119881,0.236228,0.279315
0.0920565,0.26569,-0.581437,0.585444,-0.249512,-1.71085,-0.0731523,0.218294,0.236384
0.0961512,0.269555,-0.618148,0.100666,-0.309595,-1.77189,-0.0515971,0.21575,0.220759
0.0985464,0.262609,-0.654132,-0.448529,-0.428711,-1.76237,-0.0590337,0.206958,0.179918
0.0959452,0.246287,-0.688843,-0.794231,-0.715692,-1.74639,-0.0572018,0.163406,0.0670028
0.0879112,0.227431,-0.722175,-0.733083,-0.809859,-1.64471,-0.0315821,0.13612,-0.0878478
0.0806341,0.213163,-0.752005,-0.430727,-0.538772,-1.35042,-0.00355898,0.159184,-0.133414
0.0806341,0.213163,-0.752005,-0.430727,-0.538772,-1.35042,-0.00355898,0.159184,-0.133414
0.0785295,0.205994,-0.774078,-0.134239,-0.124418,-0.83797,0.0351177,0.171917,-0.0673257
0.0818851,0.204035,-0.785385,-0.000369187,0.193569,-0.298528,0.0326807,0.129364,0.0535516
0.0874747,0.204523,-0.787772,0.0669454,0.286576,0.026469,-0.0257279,0.0159205,0.147564
0.0925785,0.206446,-0.786436,0.10908,0.240641,0.0819238,-0.113585,-0.0833628,0.196986
0.095807,0.208328,-0.786188,0.0542135,0.0728424,-0.0616984,-0.154597,-0.149072,0.23677
0.0960402,0.207407,-0.789482,-0.133593,-0.110402,-0.266393,-0.15562,-0.18191,0.268355
0.0938523,0.201821,-0.795859,-0.351773,-0.226644,-0.382266,-0.124894,-0.160875,0.256108
0.0901718,0.193082,-0.802507,-0.447071,-0.264335,-0.330405,-0.0741094,-0.116908,0.181837
0.085729,0.183448,-0.807052,-0.464089,-0.259436,-0.190667,-0.0184372,-0.0956854,0.118343
0.0814393,0.174378,-0.808762,-0.424307,-0.195999,-0.0607449,0.0012595,-0.112836,0.0569949
0.0781722,0.166792,-0.808446,-0.321417,-0.118945,0.0209988,-0.00983971,-0.116787,0.0117365
0.0775275,0.161767,-0.807211,-0.202657,0.0789923,0.0626983,-0.0309218,-0.117822,-0.0216051
0.0798306,0.158106,-0.805198,-0.195129,0.153737,0.10607,-0.0333105,-0.114647,0.00563776
0.0826655,0.154787,-0.802419,-0.136363,0.184505,0.147072,-0.0234635,-0.115133,-0.0247748
0.0856426,0.153808,-0.798642,0.000729938,0.148475,0.22676,0.00234006,-0.0922048,-0.0501102
0.0864389,0.155347,-0.793055,0.105747,-0.00120348,0.342464,0.0197955,-0.0635085,-0.0530384
0.0838024,0.159739,-0.785153,0.268692,-0.115334,0.470957,0.0234404,-0.0395481,-0.122489
0.0799237,0.166855,-0.775335,0.340361,-0.0954629,0.547868,0.0404566,-0.0190682,-0.164588
0.0774589,0.173775,-0.764071,0.239792,0.0569975,0.628197,0.0617539,0.0239911,-0.212686
0.0778214,0.177603,-0.75,0.013925,0.192426,0.7929,0.0831174,0.0701031,-0.261003
0.0777257,0.176368,-0.732795,-0.264553,0.0693024,0.862466,0.0322759,0.0884805,-0.303611
0.0745571,0.170755,-0.715467,-0.393616,-0.0914362,0.791915,-0.019999,0.0573168,-0.397423
0.0691323,0.165249,-0.699708,-0.219433,-0.150623,0.741856,0.0154819,0.0473406,-0.497622
0.0644014,0.165547,-0.684109,0.15828,-0.0643782,0.814043,0.0545497,0.0885589,-0.475906
0.0612772,0.173343,-0.666865,0.491896,0.0335793,0.935952,0.0597198,0.110999,-0.306249
0.0580301,0.186149,-0.647599,0.655525,-0.042708,1.02931,0.0644644,0.0862603,-0.0636993
0.0516385,0.201136,-0.627341,0.7203,-0.202158,1.02719,0.0511706,0.0563194,0.133457
0.0424413,0.215948,-0.607826,0.643632,-0.312535,0.944975,0.049362,0.0376381,0.278171
0.0314064,0.227179,-0.59033,0.411162,-0.398112,0.802553,0.0562128,0.00696808,0.366556
0.0201973,0.233257,-0.575793,0.161844,-0.385785,0.632359,0.0733076,-0.00998734,0.372699
0.0103247,0.234559,-0.564321,-0.0362286,-0.329329,0.501911,0.104033,0.00478317,0.335984
0.00232281,0.232529,-0.554602,-0.162596,-0.244386,0.454556,0.158155,0.0293895,0.277665
-0.00326001,0.228199,-0.545403,-0.262743,-0.0870633,0.449194,0.200304,0.0444303,0.21725
-0.00548066,0.222208,-0.535931,-0.331699,0.0660803,0.481991,0.225957,0.0605943,0.15977
-0.00574501,0.214898,-0.525586,-0.386527,0.1313,0.532515,0.240201,0.0663208,0.101616
-0.00477326,0.207356,-0.514169,-0.353116,0.190494,0.59409,0.250444,0.0542009,0.00798649
-0.00425051,0.200532,-0.501495,-0.331691,0.0983041,0.648603,0.247589,0.0547963,-0.0523661
-0.00578252,0.19457,-0.487915,-0.237082,0.0275361,0.688701,0.221692,0.0471806,-0.158061
-0.00864568,0.191778,-0.473857,-0.0213198,-0.0423083,0.684482,0.211154,0.0359723,-0.236433
-0.0120907,0.193596,-0.460365,0.223162,-0.00643045,0.639034,0.196328,0.0282654,-0.282684
-0.0121564,0.199847,-0.447822,0.386157,0.250741,0.59115,0.16731,0.0267972,-0.275408
-0.0075883,0.207217,-0.436167,0.339723,0.42953,0.538946,0.13151,0.0261104,-0.186734
0.000462578,0.212959,-0.426117,0.242838,0.576869,0.444943,0.0972651,0.00627506,-0.109596
0.0108352,0.2172,-0.418079,0.18307,0.608064,0.344187,0.0537354,0.0103112,-0.0541923
0.0213153,0.220783,-0.412248,0.176991,0.55973,0.236646,0.0189985,0.0132441,-0.0126545
0.0310055,0.22442,-0.408537,0.171203,0.491621,0.144009,-0.00217754,0.0107952,0.0286691
0.0397222,0.227276,-0.406288,0.0995432,0.43508,0.0953297,0.00249292,0.0206584,0.0852554
0.0475187,0.228368,-0.404535,0.00642173,0.378272,0.0892289,0.0108003,0.0247284,0.115256
0.0539109,0.227848,-0.402615,-0.0698323,0.30111,0.0966696,0.0175457,0.0271818,0.130378
0.0585773,0.225976,-0.400385,-0.129849,0.210853,0.108977,0.022748,0.0144939,0.139454
0.0613889,0.222661,-0.398152,-0.215578,0.138593,0.0889922,0.0276581,0.00172484,0.136959
0.0613889,0.222661,-0.398152,-0.215578,0.138593,0.0889922,0.0276581,0.00172484,0.136959
0.0636862,0.217453,-0.396141,-0.32091,0.141487,0.0803794,0.0330552,0.0028989,0.127653
0.0668202,0.210137,-0.393595,-0.431718,0.240155,0.130315,0.0575773,0.00746769,0.10616
0.0713197,0.200684,-0.389382,-0.532591,0.273849,0.22445,0.0854291,0.00611798,0.102088
0.0751208,0.190543,-0.382573,-0.515588,0.231396,0.370482,0.107125,0.00285378,0.0780398
0.0767535,0.181625,-0.372942,-0.450778,0.0960596,0.499182,0.101448,-0.00250737,0.0769539
0.0752116,0.174261,-0.361294,-0.375794,-0.0410816,0.59019,0.0873284,-0.0253803,0.0804899
0.0707376,0.168014,-0.348278,-0.356416,-0.184304,0.648939,0.0754582,-0.0438657,0.0993285
0.0634918,0.161544,-0.333815,-0.386409,-0.296696,0.740479,0.0888052,-0.054841,0.102744
0.0541606,0.154349,-0.317363,-0.432321,-0.37622,0.840213,0.0971136,-0.0638072,0.0922842
0.0437585,0.146219,-0.299278,-0.465301,-0.379026,0.908795,0.0914878,-0.0800247,0.0593048
0.0335191,0.137329,-0.280347,-0.509857,-0.393937,0.926193,0.0776273,-0.100789,0.043816
0.022984,0.126832,-0.261742,-0.591119,-0.403097,0.898899,0.0898277,-0.132434,0.0221163
0.0128365,0.114998,-0.243349,-0.619852,-0.401147,0.920288,0.108007,-0.137284,-0.0186955
0.00214356,0.103083,-0.224341,-0.571925,-0.466301,0.969286,0.125965,-0.135838,-0.0513464
-0.00912668,0.0931497,-0.204325,-0.397632,-0.459444,1.03546,0.146416,-0.146197,-0.119657
-0.0199086,0.0870347,-0.182954,-0.196128,-0.432909,1.10436,0.155025,-0.137623,-0.125809
-0.0304043,0.0837323,-0.160432,-0.0917453,-0.421017,1.145,0.162846,-0.15898,-0.0825621
-0.0402496,0.0812972,-0.137614,-0.0807507,-0.384318,1.1354,0.153173,-0.1837,-0.0369011
-0.0496809,0.0789007,-0.115168,-0.0490307,-0.387596,1.12156,0.155875,-0.195382,-0.0326461
-0.0590147,0.077514,-0.0928828,0.0292715,-0.375334,1.10966,0.148647,-0.188494,-0.0365682
-0.0683073,0.0773652,-0.0709571,0.0959323,-0.382908,1.07502,0.139217,-0.191511,-0.0335603
-0.0767322,0.0787001,-0.0499538,0.183004,-0.286328,1.00409,0.12656,-0.19694,-0.0501265
-0.0829507,0.0812011,-0.0306389,0.211537,-0.183696,0.903049,0.124499,-0.200031,-0.034844
-0.0870679,0.08405,-0.0130561,0.219703,-0.0913702,0.825582,0.141567,-0.195788,-0.0220142
-0.0892787,0.0870886,0.00316459,0.224038,0.0148256,0.76301,0.149186,-0.18124,-0.0172637
-0.0893077,0.0901917,0.0182275,0.219023,0.105903,0.712685,0.159765,-0.175678,-0.0154799
-0.0880305,0.0932043,0.0323256,0.213025,0.137851,0.65988,0.172466,-0.178323,-0.0151232
-0.0859962,0.0968053,0.0454482,0.259951,0.210276,0.619098,0.180993,-0.16772,-0.0516188
-0.0821729,0.100602,0.0581745,0.205171,0.276777,0.622953,0.196763,-0.157685,-0.0590115
-0.0786424,0.102258,0.0707218,0.0343488,0.18014,0.594462,0.170024,-0.12491,-0.0668921
-0.0777248,0.0993442,0.0807865,-0.261093,0.0109813,0.410342,0.0946893,-0.132005,-0.121338
-0.0786291,0.0912787,0.0859576,-0.484524,-0.0197683,0.17336,0.0899856,-0.168446,-0.260536
-0.0770613,0.0811079,0.0870725,-0.501814,0.215781,0.0549252,0.122371,-0.120489,-0.423299
-0.0688333,0.0723065,0.0883493,-0.351208,0.638906,0.167182,0.158886,-0.0202095,-0.528382
-0.051992,0.0674568,0.0936776,-0.0841498,1.07037,0.403933,0.134217,0.0676803,-0.546729
-0.0288008,0.0684551,0.104044,0.22306,1.26912,0.617948,0.0612611,0.106228,-0.465891
-0.00493947,0.0761272,0.118022,0.578719,1.19378,0.756042,-0.0363041,0.123844,-0.345545
0.0150722,0.0918406,0.133716,0.983476,0.914492,0.812142,-0.12568,0.155966,-0.216623
0.0279481,0.115201,0.149879,1.29781,0.539277,0.852539,-0.182544,0.195528,-0.0771914
0.0328494,0.143129,0.166241,1.41888,0.171663,0.847086,-0.265769,0.237139,0.0488719
0.0311264,0.1716,0.181306,1.36319,-0.0890208,0.710957,-0.361139,0.244153,0.139911
0.0258083,0.197491,0.192272,1.1885,-0.219699,0.426862,-0.421376,0.228054,0.201076
0.0208169,0.218771,0.196874,0.916843,-0.161353,0.0703444,-0.432551,0.219853,0.249681
0.0200381,0.23356,0.194692,0.566241,0.0551444,-0.23883,-0.407188,0.225476,0.292005
0.0258976,0.241238,0.187487,0.22613,0.36384,-0.426567,-0.361189,0.242628,0.327773
0.037902,0.242464,0.177777,-0.061363,0.577895,-0.499769,-0.310741,0.253279,0.367315
0.0521385,0.23869,0.167679,-0.257527,0.57268,-0.490017,-0.253259,0.240199,0.400214
0.0640697,0.231947,0.158774,-0.358287,0.396893,-0.411779,-0.215555,0.216613,0.413286
0.0712523,0.224213,0.151769,-0.357681,0.157793,-0.324684,-0.194334,0.177738,0.405403
0.072756,0.217558,0.146237,-0.258196,-0.122933,-0.26779,-0.179774,0.131632,0.37512
0.072756,0.217558,0.146237,-0.258196,-0.122933,-0.26779,-0.179774,0.131632,0.37512
0.0687097,0.213006,0.141208,-0.177247,-0.388727,-0.263612,-0.158809,0.0829958,0.355556
0.060515,0.208818,0.135969,-0.231648,-0.516614,-0.276767,-0.139517,0.0320713,0.333008
0.0507452,0.202258,0.130693,-0.401411,-0.563341,-0.277198,-0.111137,-0.00901815,0.30236
0.0414766,0.192628,0.125381,-0.521094,-0.437473,-0.300094,-0.112994,-0.0466894,0.21325
0.0361363,0.181606,0.119127,-0.549083,-0.220276,-0.357122,-0.104794,-0.0731593,0.115313
0.0349172,0.170602,0.112075,-0.521175,-0.0290885,-0.373757,-0.0612588,-0.102456,0.0565678
0.0368899,0.160565,0.105098,-0.458156,0.0890085,-0.342292,-0.0158993,-0.12052,0.0269929
0.0401205,0.151886,0.0989218,-0.399254,0.126521,-0.302704,0.0179844,-0.137195,0.00801677
0.0432578,0.143274,0.0934093,-0.453021,0.108846,-0.280313,0.0396725,-0.167045,-0.0295589
0.0465034,0.132985,0.0881358,-0.554352,0.141241,-0.299069,0.025869,-0.189566,-0.108793
0.0499876,0.120781,0.0821102,-0.630305,0.125451,-0.362493,0.00395559,-0.199733,-0.215831
0.0528331,0.10757,0.0752041,-0.642652,0.093477,-0.378041,0.0289024,-0.199064,-0.333232
0.0568155,0.0955434,0.0686583,-0.496699,0.301068,-0.324703,0.0866931,-0.198929,-0.468203
0.0672609,0.0881458,0.0641464,-0.221142,0.681294,-0.147773,0.131903,-0.166821,-0.535218
0.0824205,0.0854215,0.0641162,-0.0961005,0.775969,0.12378,0.150807,-0.133264,-0.454981
0.0949566,0.083356,0.0689194,-0.17258,0.47444,0.314557,0.131452,-0.16407,-0.385265
0.0997572,0.0804484,0.0762968,-0.147121,0.105563,0.371982,0.0676767,-0.205512,-0.458828
0.100271,0.0814192,0.0839021,0.208195,0.0537731,0.386494,-0.0269262,-0.168884,-0.625995
0.103433,0.0910429,0.0906947,0.669472,0.365202,0.396735,-0.084984,-0.10734,-0.664158
0.113664,0.10814,0.097291,0.923893,0.71025,0.449145,-0.113291,-0.0553247,-0.515888
0.12946,0.128774,0.104348,1.04463,0.933417,0.49515,-0.164391,-0.0136104,-0.314171
0.147414,0.15204,0.111294,1.18009,0.933598,0.508824,-0.234847,0.041332,-0.124475
0.163703,0.178499,0.117522,1.3489,0.77869,0.514967,-0.29016,0.0927747,0.0410531
0.175173,0.20849,0.122989,1.52144,0.451733,0.522457,-0.3156,0.142209,0.186502
0.179012,0.241161,0.127606,1.60371,0.0191289,0.493377,-0.343788,0.192062,0.301339
0.173343,0.273423,0.13099,1.49815,-0.514711,0.380161,-0.363853,0.214335,0.386533
0.157925,0.301746,0.13186,1.27457,-0.993854,0.157938,-0.366656,0.219291,0.383992
0.135249,0.323891,0.128847,0.94986,-1.34522,-0.12255,-0.37865,0.263677,0.330354
0.109075,0.33816,0.121281,0.554683,-1.49938,-0.414293,-0.382464,0.313594,0.235551
0.0838021,0.344428,0.10859,0.196414,-1.40929,-0.713805,-0.347266,0.339153,0.097069
0.0650692,0.344513,0.0905062,-0.0425763,-1.04167,-0.977803,-0.302017,0.36612,-0.0522527
0.0562613,0.341627,0.0682997,-0.0914946,-0.584785,-1.11417,-0.231571,0.396254,-0.162353
0.0556564,0.340079,0.0450829,0.0747299,-0.280456,-1.06833,-0.119855,0.410344,-0.185746
0.0581637,0.34245,0.0236209,0.260553,-0.220345,-0.939007,-0.0409768,0.400249,-0.0963553
0.0584319,0.34753,0.00485951,0.329627,-0.412199,-0.808304,-0.0128542,0.349701,0.0290969
0.0533152,0.353293,-0.0118967,0.318832,-0.675053,-0.759118,-0.0166888,0.291805,0.118775
0.0436635,0.357719,-0.0291092,0.180847,-0.872608,-0.863946,-0.0303732,0.230983,0.170699
0.0330981,0.358123,-0.0495871,-0.0818327,-0.881252,-1.05985,-0.0300924,0.164421,0.18586
0.0249759,0.352913,-0.0738723,-0.371149,-0.774746,-1.23067,-0.00410131,0.110999,0.176267
0.0200641,0.342832,-0.100984,-0.56155,-0.644229,-1.33508,0.0390424,0.0788163,0.13638
0.0177213,0.330458,-0.129088,-0.609134,-0.539309,-1.33441,0.0862963,0.0649247,0.0864617
0.0158474,0.318272,-0.156523,-0.556594,-0.522875,-1.29215,0.124094,0.0490402,0.0367861
0.0138107,0.307958,-0.182827,-0.436865,-0.505148,-1.23772,0.149132,0.0270667,-0.00021559
0.0112958,0.300161,-0.208163,-0.324295,-0.492969,-1.2042,0.158124,0.0110213,-0.0235471
0.00941882,0.293543,-0.233085,-0.333533,-0.426506,-1.19646,0.144533,0.0116968,-0.0263383
0.00909385,0.286156,-0.257746,-0.376138,-0.299694,-1.18477,0.121983,0.0207314,-0.0585871
0.011432,0.27858,-0.282213,-0.354032,-0.158315,-1.18107,0.110591,0.029584,-0.0954245
0.015802,0.2716,-0.306327,-0.312178,-0.0575176,-1.15159,0.0985169,0.0445333,-0.103168
0.0214083,0.265192,-0.329618,-0.302022,-0.013915,-1.10445,0.0702688,0.066965,-0.085304
0.0269873,0.258523,-0.35135,-0.307768,0.0117033,-1.02063,0.0229239,0.0743024,-0.0820606
0.0325964,0.252359,-0.371712,-0.228928,0.0369076,-0.978468,-0.032184,0.0616241,-0.0984266
0.0325964,0.252359,-0.371712,-0.228928,0.0369076,-0.978468,-0.032184,0.0616241,-0.0984266
0.0384838,0.248888,-0.391471,-0.0417034,0.0630846,-0.960688,-0.0917322,0.0548435,-0.0935881
0.0444554,0.248671,-0.411432,0.0618006,-0.00197535,-0.988753,-0.153471,0.0460882,-0.0427492
0.0469363,0.246749,-0.433026,-0.213319,-0.303146,-1.15623,-0.231075,0.0419668,0.0337682
0.0442259,0.236299,-0.46052,-0.723412,-0.613774,-1.61884,-0.339171,-0.0141543,0.0106434
0.0392574,0.215322,-0.499503,-1.20189,-0.720123,-2.27325,-0.383144,-0.0628576,-0.106502
0.036673,0.187135,-0.54931,-1.37333,-0.501241,-2.64657,-0.309386,0.0074096,-0.313713
0.0384713,0.160257,-0.601697,-1.04779,-0.217456,-2.56403,-0.176244,0.129116,-0.484217
0.0444958,0.144159,-0.649282,-0.346717,0.091953,-2.19748,-0.114958,0.206725,-0.536423
0.0532654,0.142186,-0.689962,0.300869,0.153189,-1.87175,-0.123717,0.220779,-0.40679
0.0588997,0.150031,-0.726249,0.643481,-0.141828,-1.70274,-0.161339,0.171838,-0.18551
0.0580146,0.162427,-0.761061,0.774551,-0.4787,-1.69244,-0.226958,0.146454,-0.0247406
0.052028,0.175967,-0.797206,0.761528,-0.710453,-1.81904,-0.282784,0.143902,0.0763193
0.0437853,0.188331,-0.836521,0.647793,-0.814317,-1.99894,-0.288588,0.150904,0.151268
0.0354917,0.197681,-0.879389,0.442933,-0.824478,-2.1777,-0.251209,0.160782,0.207782
0.0288561,0.202297,-0.92545,0.153503,-0.761521,-2.32578,-0.194325,0.160118,0.247037
0.0240095,0.200907,-0.974047,-0.174949,-0.690426,-2.45308,-0.154475,0.149967,0.260655
0.0211649,0.193582,-1.02494,-0.427795,-0.592586,-2.55698,-0.121247,0.134468,0.22834
0.0198893,0.183201,-1.07682,-0.476583,-0.515639,-2.56381,-0.0800563,0.135319,0.1717
0.0195938,0.173945,-1.12817,-0.334639,-0.41638,-2.51876,-0.0357001,0.133686,0.137858
0.0207081,0.168051,-1.17808,-0.169334,-0.327416,-2.41907,0.0283827,0.123987,0.170043
0.0231087,0.163993,-1.22549,-0.167,-0.227498,-2.27605,0.0969849,0.104024,0.266578
0.0262216,0.158305,-1.26931,-0.304278,-0.176377,-2.06853,0.162738,0.06394,0.348195
0.0282946,0.149762,-1.30862,-0.443648,-0.232776,-1.85878,0.209483,0.023119,0.37928
0.0280439,0.138903,-1.3439,-0.538341,-0.303812,-1.67,0.25145,-0.0224019,0.35619
0.0252657,0.126923,-1.37492,-0.573957,-0.373705,-1.43507,0.315532,-0.0544176,0.288911
0.0209967,0.114707,-1.40058,-0.58623,-0.358323,-1.13413,0.388353,-0.0759587,0.18518
0.0164044,0.102831,-1.41932,-0.568942,-0.317321,-0.753537,0.433161,-0.0864373,0.0587165
0.0117478,0.0911151,-1.43088,-0.591695,-0.248517,-0.431019,0.428471,-0.124892,-0.105032
0.00902098,0.0792638,-1.43732,-0.569697,-0.0539852,-0.261591,0.377574,-0.192166,-0.323188
0.0102421,0.06892,-1.44234,-0.458035,0.0920702,-0.265999,0.30477,-0.25163,-0.519379
0.0108797,0.0605096,-1.4478,-0.398887,-0.129055,-0.278123,0.303166,-0.277067,-0.624768
0.00454425,0.0525672,-1.45227,-0.372339,-0.492564,-0.154827,0.342798,-0.256432,-0.736392
-0.00418582,0.0473184,-1.45354,-0.119873,-0.293582,0.0286244,0.286652,-0.18625,-0.912383
-0.00385537,0.0492833,-1.45084,0.339583,0.391642,0.258661,0.223425,-0.104881,-0.943833
0.0116896,0.0610764,-1.44272,0.821216,1.17696,0.555092,0.209295,-0.052258,-0.730235
0.0390213,0.080625,-1.42975,1.0518,1.59733,0.789382,0.168986,-0.0282422,-0.328073
0.06976,0.102245,-1.41276,0.981895,1.56274,1.01904,0.120358,-0.00887975,0.0537747
0.0940286,0.121354,-1.39187,0.743374,1.03993,1.19677,0.066621,-0.0204539,0.307078
0.103792,0.135919,-1.36859,0.487639,0.222218,1.23013,0.0182147,-0.0472083,0.402102
0.0971214,0.146284,-1.34549,0.334817,-0.5214,1.1532,-0.0120556,-0.0481004,0.359367
0.079613,0.154142,-1.32343,0.260038,-0.845256,1.11002,-0.0362276,0.0112895,0.236326
0.0591419,0.160335,-1.30165,0.217831,-0.79408,1.08327,-0.0741269,0.0817373,0.116841
0.0435723,0.165924,-1.28035,0.244209,-0.385477,1.05101,-0.0893165,0.11481,0.0177855
0.0371345,0.172069,-1.2593,0.28895,0.0770774,1.06664,-0.0787683,0.149035,-0.00133216
0.0374913,0.179193,-1.23694,0.338821,0.304066,1.16686,-0.0451069,0.1741,0.056325
0.0395115,0.18736,-1.21246,0.391564,0.33282,1.27953,-0.0428688,0.181826,0.116056
0.0400726,0.197154,-1.18584,0.492187,0.207628,1.37283,-0.0896551,0.195163,0.168333
0.0358021,0.209274,-1.15789,0.619352,-0.0924917,1.40807,-0.127146,0.193758,0.225831
0.0246983,0.223754,-1.13003,0.737,-0.393555,1.34502,-0.164064,0.181669,0.26492
0.00957066,0.239145,-1.1046,0.731122,-0.510491,1.14746,-0.206793,0.167155,0.298019
-0.00549083,0.252595,-1.08359,0.599241,-0.465967,0.8927,-0.218438,0.154824,0.32395
-0.0176279,0.262401,-1.06805,0.389812,-0.356313,0.605813,-0.191808,0.13057,0.335035
-0.0264751,0.267336,-1.05811,0.120956,-0.265069,0.357278,-0.153195,0.120426,0.331907
-0.0324783,0.26675,-1.053,-0.173933,-0.241113,0.139732,-0.11603,0.10132,0.311674
-0.0398665,0.260419,-1.05258,-0.437512,-0.514936,-0.073287,-0.0712138,0.0728845,0.24121
-0.0521444,0.250376,-1.05707,-0.579422,-0.811759,-0.336958,-0.0787311,0.0678973,0.0875587
-0.0666545,0.237799,-1.0685,-0.766217,-0.875172,-0.710155,-0.102032,0.0510851,-0.0924636
-0.0772103,0.22141,-1.08849,-1.00975,-0.583312,-1.10459,-0.0573024,0.0255441,-0.264744
-0.0787249,0.201427,-1.11566,-1.17903,-0.114225,-1.37659,-0.0129275,0.0463508,-0.423765
-0.0688991,0.179277,-1.14713,-1.26202,0.494915,-1.53405,-0.00789657,0.0929455,-0.499822
-0.0494899,0.15501,-1.181,-1.37334,0.832123,-1.66582,0.00625875,0.0589916,-0.463105
-0.0266071,0.128506,-1.21659,-1.38319,0.939235,-1.74407,0.0567496,-0.0191706,-0.433752
-0.00401938,0.103769,-1.25112,-1.11685,0.910938,-1.62593,0.143722,-0.0540708,-0.439561
0.0163567,0.0853259,-1.28049,-0.706212,0.853317,-1.2918,0.181946,-0.0328044,-0.413195
0.0347058,0.0750251,-1.30188,-0.268745,0.818643,-0.871652,0.156301,-0.010525,-0.329677
0.0513815,0.0734317,-1.31546,0.154348,0.732814,-0.51425,0.0860628,-0.0102829,-0.191084
0.0646482,0.0793102,-1.32373,0.457342,0.514947,-0.295253,0.00678211,-0.0247005,-0.0253369
0.0723178,0.0895435,-1.32913,0.573047,0.201609,-0.184574,-0.0632068,-0.0286334,0.127988
0.0738987,0.100876,-1.33306,0.580565,-0.0509339,-0.135296,-0.110764,-0.0270572,0.206801
0.0719029,0.111688,-1.33676,0.520349,-0.179006,-0.168804,-0.164152,-0.0151459,0.249899
0.0678957,0.120722,-1.34184,0.420214,-0.277041,-0.281168,-0.179288,-0.0188227,0.270464
0.0629831,0.127683,-1.34949,0.319566,-0.292755,-0.432367,-0.169866,-0.019606,0.272074
0.0592758,0.132265,-1.36002,0.19917,-0.200717,-0.574416,-0.135109,-0.00378613,0.265541
0.0581571,0.134522,-1.37256,0.100137,-0.0798005,-0.645817,-0.089368,0.0185161,0.25139
0.0592603,0.135327,-1.38567,0.0605468,0.00560439,-0.637712,-0.0284259,0.0332149,0.240354
0.0592603,0.135327,-1.38567,0.0605468,0.00560439,-0.637712,-0.0284259,0.0332149,0.240354
0.0614137,0.135862,-1.39794,0.0707684,0.0443369,-0.571414,0.0182004,0.04058,0.238948
0.0636,0.136684,-1.40871,0.0656285,0.0153175,-0.499267,0.0340968,0.0395947,0.255714
0.0643342,0.136811,-1.41819,-0.00111338,-0.0794774,-0.435014,0.0620432,0.0153823,0.280995
0.0625319,0.135303,-1.42608,-0.106203,-0.20902,-0.357945,0.0906526,-0.0069098,0.268007
0.0581466,0.131816,-1.43231,-0.207595,-0.306345,-0.282969,0.0977706,-0.0224957,0.211955
0.0520428,0.126845,-1.43713,-0.242973,-0.346794,-0.231076,0.0942421,-0.0461482,0.10749
0.0463341,0.122416,-1.44102,-0.171084,-0.264516,-0.166359,0.125889,-0.0643515,-0.00990677
0.0427116,0.119712,-1.44302,-0.101601,-0.114969,-0.0340707,0.164623,-0.0572399,-0.0752774
0.0414133,0.117739,-1.44181,-0.111669,-0.0210562,0.147083,0.182976,-0.0587566,-0.0958942
0.0404025,0.115524,-1.43722,-0.123505,-0.0499256,0.291565,0.179192,-0.0865454,-0.13356
0.0370763,0.11359,-1.43038,-0.088011,-0.208098,0.37455,0.157415,-0.11607,-0.203996
0.0319564,0.112788,-1.42253,-0.0229042,-0.177993,0.397517,0.138281,-0.149841,-0.310191
0.0285006,0.112197,-1.41486,-0.0937122,-0.0858459,0.353192,0.10097,-0.16442,-0.361412
0.0264364,0.108457,-1.40847,-0.308297,-0.073293,0.264232,0.0610785,-0.167116,-0.385557
0.0239305,0.100762,-1.40402,-0.445085,-0.127486,0.166565,0.0567748,-0.171457,-0.459871
0.0217297,0.0927912,-1.40089,-0.321432,-0.0344136,0.149712,0.0986657,-0.13691,-0.54923
0.0235305,0.0893194,-1.39675,-0.020405,0.290119,0.277691,0.156329,-0.0780051,-0.541432
0.0328599,0.0923506,-1.38896,0.287153,0.700587,0.515226,0.186082,-0.0202684,-0.403633
0.0482264,0.100599,-1.37668,0.472232,0.922154,0.738198,0.171961,0.00892293,-0.158694
0.0654974,0.112093,-1.36037,0.57723,0.945267,0.950232,0.141824,0.0252797,0.0692455
0.0801149,0.12555,-1.34024,0.607093,0.724674,1.14517,0.103767,0.0525586,0.251978
0.087575,0.139187,-1.31656,0.535771,0.319493,1.31943,0.0873329,0.0678609,0.374428
0.0849473,0.150892,-1.28894,0.39022,-0.197046,1.51079,0.0886805,0.0762079,0.416957
0.0713094,0.15982,-1.25749,0.260112,-0.662552,1.65863,0.0712911,0.0962437,0.357718
0.0497941,0.166185,-1.22335,0.18829,-0.872731,1.74542,0.0316616,0.120377,0.221222
0.0278748,0.171062,-1.18813,0.17575,-0.697694,1.73513,-0.0334306,0.132952,0.0833036
0.0110705,0.175659,-1.15441,0.230239,-0.405192,1.58822,-0.0730337,0.110426,0.00275505
0.000464274,0.181321,-1.12413,0.312884,-0.139238,1.4198,-0.0493458,0.0874182,0.00515169
-0.00686916,0.187396,-1.096,0.280735,-0.11328,1.37146,0.0173232,0.100547,0.0962543
-0.0150307,0.191819,-1.06792,0.198441,-0.191836,1.39109,0.044738,0.104708,0.146221
-0.0260158,0.195247,-1.03964,0.214556,-0.368179,1.37116,0.0355589,0.0940184,0.134949
-0.0403137,0.199675,-1.01253,0.319093,-0.531553,1.26262,0.0058716,0.072374,0.112636
-0.0568472,0.205692,-0.988395,0.377547,-0.616556,1.06702,0.0039679,0.0437837,0.115751
-0.0728699,0.211349,-0.968542,0.295344,-0.56431,0.838516,0.0109284,0.0312966,0.12881
-0.0861173,0.214641,-0.953533,0.149876,-0.437665,0.601409,0.0159219,0.0272821,0.119367
-0.0955649,0.215698,-0.943617,0.054408,-0.302456,0.354557,0.0205308,0.0278571,0.0821571
-0.101386,0.21587,-0.938749,0.0154922,-0.178567,0.120562,0.039751,0.0269262,0.0390199
-0.103835,0.215948,-0.938652,-0.0156504,-0.0652117,-0.10955,0.0436547,0.035746,0.0155343
-0.103439,0.215357,-0.943102,-0.100038,0.0117185,-0.310251,0.058603,0.0562404,0.00645345
-0.100563,0.21286,-0.95138,-0.239355,0.102946,-0.472454,0.0744008,0.0738661,-0.00651139
-0.0950992,0.207838,-0.963298,-0.373618,0.204358,-0.644016,0.0859697,0.0748908,-0.0517446
-0.0864125,0.200685,-0.978579,-0.48626,0.342954,-0.775013,0.102517,0.0609895,-0.104842
-0.0757401,0.19026,-0.996344,-0.716089,0.401372,-0.885123,0.0820385,0.073483,-0.131547
-0.0617283,0.174562,-1.01704,-0.99868,0.63254,-1.05352,0.0399996,0.052629,-0.195509
-0.0430694,0.15338,-1.04127,-1.22758,0.844341,-1.21537,0.0409332,-0.0114506,-0.28646
-0.0202606,0.129272,-1.06684,-1.22694,1.07304,-1.20281,0.0830174,-0.0309233,-0.410449
0.00525074,0.107708,-1.08875,-0.916253,1.20621,-0.92686,0.119459,-0.000959434,-0.49261
0.0310845,0.0935881,-1.10312,-0.472184,1.21803,-0.522499,0.110643,0.0361548,-0.456807
0.0549547,0.0876985,-1.1094,-0.108017,1.09169,-0.127587,0.0473959,0.0540168,-0.333869
0.0736407,0.0886565,-1.10832,0.197064,0.770024,0.236985,-0.0235721,0.0636991,-0.201131
0.084148,0.0965434,-1.10114,0.5356,0.339671,0.531802,-0.109674,0.0899238,-0.106827
0.0855523,0.111463,-1.08961,0.849437,-0.0590778,0.721929,-0.215762,0.116116,-0.0262282
0.0795889,0.131669,-1.07629,1.03391,-0.362217,0.736423,-0.30982,0.118273,0.0722666
0.0688002,0.153383,-1.06457,1.02162,-0.527871,0.55833,-0.372581,0.0980944,0.177572
0.0688002,0.153383,-1.06457,1.02162,-0.527871,0.55833,-0.372581,0.0980944,0.177572
0.0571915,0.172684,-1.05731,0.852713,-0.487195,0.271685,-0.387167,0.0836162,0.254787
0.0488911,0.187591,-1.05573,0.634904,-0.30103,-0.0392537,-0.372538,0.0878908,0.302297
0.0461814,0.198001,-1.06007,0.426074,-0.0610926,-0.327651,-0.333105,0.0967033,0.347153
0.0482494,0.203938,-1.06933,0.213074,0.0538066,-0.538468,-0.268514,0.0972109,0.397861
0.0515969,0.205704,-1.08185,0.0312277,0.00397,-0.669844,-0.21075,0.109331,0.432739
0.0531292,0.204427,-1.09631,-0.0759525,-0.157791,-0.748554,-0.159542,0.101962,0.417936
0.0513754,0.201495,-1.11209,-0.136175,-0.327801,-0.811317,-0.113699,0.079269,0.374258
0.0472333,0.197395,-1.12888,-0.191575,-0.403515,-0.857353,-0.0746192,0.0537661,0.319529
0.0429574,0.192057,-1.14644,-0.271991,-0.354068,-0.88886,-0.0416205,0.0255343,0.266231
0.0401204,0.184838,-1.16422,-0.37511,-0.263868,-0.885008,-0.000913274,-0.00626093,0.218824
0.0389713,0.176122,-1.18128,-0.429743,-0.166046,-0.829133,0.0360279,-0.0368686,0.147464
0.038921,0.166126,-1.19717,-0.520383,-0.120751,-0.779199,0.0594486,-0.0696834,0.0858582
0.0387497,0.153768,-1.21203,-0.665455,-0.141132,-0.740847,0.0997481,-0.129216,0.00628853
0.0380791,0.138604,-1.2262,-0.788358,-0.116964,-0.719159,0.115951,-0.17852,-0.114114
0.0382881,0.122153,-1.23931,-0.786269,-0.0336691,-0.635818,0.156861,-0.195137,-0.260285
0.0398607,0.107496,-1.24994,-0.614558,0.0867154,-0.471795,0.204154,-0.200679,-0.399384
0.0446455,0.0971927,-1.2573,-0.408126,0.309217,-0.307513,0.218153,-0.215567,-0.476521
0.0515881,0.0892921,-1.26127,-0.399875,0.281648,-0.118157,0.228502,-0.219436,-0.443084
0.0533682,0.0804412,-1.26147,-0.464285,-0.122191,0.0433892,0.212882,-0.239653,-0.463683
0.0480328,0.0724591,-1.25922,-0.318821,-0.336965,0.130494,0.161981,-0.236122,-0.604482
0.0430522,0.0692455,-1.25598,0.00434708,-0.0586435,0.187505,0.129138,-0.19584,-0.693598
0.0473106,0.0734251,-1.25112,0.380681,0.51669,0.334461,0.128723,-0.129522,-0.630153
0.0611269,0.0842615,-1.2431,0.63738,0.882197,0.524248,0.134944,-0.0752772,-0.37603
0.079345,0.0992583,-1.23184,0.775236,1.0097,0.703581,0.102159,-0.03831,-0.105144
0.0969876,0.117418,-1.21735,0.910166,0.869928,0.890932,0.074577,-0.00742418,0.113386
0.108623,0.138701,-1.20014,1.02371,0.486459,1.02194,0.0485151,0.0230838,0.276902
0.110398,0.161479,-1.18112,1.01309,-0.0286976,1.10215,0.0457699,0.0342832,0.382151
0.101339,0.182258,-1.16053,0.811991,-0.509129,1.12953,0.0229462,0.0470653,0.426893
0.0835594,0.197211,-1.13945,0.483236,-0.845194,1.06894,-0.00545894,0.0536164,0.382362
0.0611095,0.205616,-1.11942,0.248169,-0.970347,0.947206,-0.0179912,0.0618056,0.230023
0.0384738,0.21065,-1.10206,0.200657,-0.905659,0.77484,-0.0290996,0.0902912,0.0441423
0.0202407,0.215858,-1.08824,0.289983,-0.600192,0.603496,-0.0214633,0.120008,-0.0999299
0.00940307,0.222779,-1.07676,0.384241,-0.260074,0.554887,0.0416565,0.158487,-0.13703
0.00348809,0.23149,-1.0644,0.491056,-0.0729928,0.675739,0.114067,0.206952,-0.103905
-0.000645445,0.242421,-1.04894,0.598764,0.000814402,0.825177,0.111222,0.244112,-0.0310106
-0.00531836,0.255025,-1.0313,0.662394,-0.0512982,0.864996,0.06403,0.23019,0.0676647
-0.0118261,0.268155,-1.01421,0.653745,-0.150547,0.76037,0.00920594,0.209915,0.156897
-0.0191415,0.280037,-0.999848,0.548288,-0.180484,0.608626,-0.0141218,0.203576,0.218911
-0.0254036,0.289196,-0.98862,0.390836,-0.124808,0.452877,-0.0115579,0.203364,0.246662
-0.0297557,0.295291,-0.980407,0.24536,-0.0728806,0.324567,0.00223372,0.210025,0.254848
-0.0326789,0.298875,-0.974566,0.129541,-0.0693839,0.231015,0.0131734,0.218884,0.24834
-0.0359127,0.300247,-0.970564,0.0186483,-0.133642,0.147052,0.0220459,0.222376,0.237927
-0.0400352,0.299231,-0.968558,-0.11965,-0.227825,0.0400118,0.00882699,0.218492,0.213648
-0.0448012,0.295108,-0.969656,-0.305801,-0.262272,-0.139263,-0.00655785,0.20457,0.173752
-0.047909,0.286881,-0.975434,-0.555549,-0.213927,-0.385475,-0.00669418,0.183353,0.125969
-0.0486179,0.273403,-0.986532,-0.849993,-0.160551,-0.61017,0.0167949,0.180624,0.057774
-0.0468772,0.254463,-1.00191,-1.10867,-0.0626672,-0.772379,0.0475025,0.185213,-0.048203
-0.0436283,0.230582,-1.0198,-1.36634,-0.0444769,-0.849832,0.0524546,0.184934,-0.153781
-0.0389045,0.201974,-1.03856,-1.55951,0.141287,-0.862399,0.035861,0.162274,-0.275692
-0.0297263,0.170609,-1.05764,-1.62853,0.426836,-0.921403,-0.00478248,0.0642219,-0.384659
-0.0151557,0.139232,-1.0778,-1.53552,0.721736,-0.987475,-0.0253205,-0.0616876,-0.470179
0.00416407,0.111303,-1.09711,-1.24691,0.959327,-0.88903,-0.0133241,-0.147319,-0.515931
0.0258089,0.0904781,-1.11248,-0.806035,1.0142,-0.663336,-0.0251207,-0.186074,-0.48808
0.045674,0.0788947,-1.12291,-0.31569,0.857323,-0.42208,-0.055297,-0.215285,-0.392547
0.045674,0.0788947,-1.12291,-0.31569,0.857323,-0.42208,-0.055297,-0.215285,-0.392547
0.0602065,0.0772377,-1.12944,0.177809,0.517303,-0.252713,-0.104546,-0.218707,-0.270748
0.0667222,0.0846728,-1.13408,0.564759,0.106247,-0.175355,-0.142713,-0.195213,-0.13669
0.065846,0.0976789,-1.13816,0.726799,-0.221192,-0.15393,-0.17161,-0.150401,-0.0131643
0.0591912,0.111937,-1.14223,0.704123,-0.483828,-0.16822,-0.20019,-0.0910708,0.0633972
0.0479579,0.12495,-1.14699,0.627814,-0.684563,-0.24681,-0.228199,-0.0353784,0.078496
0.0344187,0.136708,-1.15393,0.585824,-0.737015,-0.404278,-0.24808,0.007819,0.0582595
0.0219045,0.148068,-1.16422,0.584335,-0.650168,-0.585761,-0.238414,0.0443786,0.0458885
0.0125221,0.1592,-1.17794,0.541122,-0.493365,-0.75127,-0.200291,0.0849354,0.0836057
0.00751435,0.168805,-1.19457,0.430524,-0.269974,-0.872863,-0.144904,0.112844,0.146281
0.00761965,0.176059,-1.21298,0.313222,-0.0511298,-0.931798,-0.0913946,0.131511,0.20842
0.0110071,0.181447,-1.23205,0.257214,0.0233413,-0.940357,-0.0449449,0.142856,0.267093
0.0140497,0.186512,-1.25091,0.282539,-0.0762446,-0.911957,-0.000682999,0.140358,0.307877
0.0145443,0.192109,-1.26915,0.2906,-0.211502,-0.882017,0.0206664,0.133816,0.342691
0.0127776,0.196812,-1.28694,0.184304,-0.296962,-0.866567,0.0512969,0.116442,0.37391
0.0102832,0.198293,-1.30439,-0.0228279,-0.277515,-0.844823,0.0804183,0.0976157,0.370779
0.00938434,0.195859,-1.32121,-0.192471,-0.135343,-0.815709,0.0869408,0.074126,0.312457
0.0109324,0.19089,-1.33736,-0.274742,-0.0456733,-0.777344,0.110696,0.0350394,0.251018
0.0127731,0.184797,-1.35231,-0.318057,-0.0495468,-0.699499,0.145831,-0.00884971,0.201125
0.0144448,0.177269,-1.36578,-0.440763,-0.0200355,-0.652668,0.151889,-0.0512426,0.149555
0.0164618,0.165904,-1.37901,-0.688077,-0.01988,-0.678031,0.153916,-0.112062,0.0746673
0.0182972,0.149532,-1.39264,-0.913898,0.0115996,-0.695057,0.189153,-0.1786,-0.0767238
0.0215257,0.130019,-1.40574,-0.981996,0.151748,-0.623296,0.233632,-0.194856,-0.279178
0.0280804,0.111345,-1.41623,-0.831139,0.396895,-0.460377,0.267965,-0.207305,-0.470161
0.0388252,0.0967317,-1.42338,-0.629295,0.547445,-0.30542,0.265474,-0.23365,-0.549736
0.0478325,0.0848544,-1.42736,-0.542703,0.27517,-0.136375,0.271511,-0.248393,-0.540565
0.050058,0.0757891,-1.42784,-0.327742,-0.0271532,0.039213,0.239138,-0.249662,-0.626861
0.0497921,0.0731792,-1.42557,0.0750723,0.107197,0.169777,0.17462,-0.226401,-0.715064
0.0563228,0.0793012,-1.42134,0.498097,0.606464,0.283391,0.117956,-0.188757,-0.646127
0.0722279,0.0923487,-1.4156,0.739788,0.996499,0.36823,0.0937307,-0.160254,-0.38114
0.0934266,0.108785,-1.40859,0.832,1.16488,0.480725,0.0732,-0.107509,-0.0984424
0.115486,0.126977,-1.39906,0.879364,1.12224,0.654726,0.0552081,-0.0460329,0.131765
0.133184,0.146382,-1.38646,0.889283,0.77878,0.82669,0.0382158,-0.00945897,0.309188
0.140767,0.165655,-1.37092,0.789935,0.195107,0.95465,0.0368199,0.0169033,0.425377
0.135015,0.18156,-1.35275,0.516659,-0.448233,1.03767,0.0292135,0.0371311,0.464664
0.117112,0.191042,-1.33212,0.186499,-0.90982,1.10975,0.0187192,0.0648971,0.375533
0.0927611,0.195198,-1.30931,0.019857,-1.07071,1.15347,-0.0181609,0.113639,0.169815
0.0671392,0.197326,-1.28654,0.0376768,-1.00728,1.07844,-0.0697084,0.133349,-0.0368584
0.046139,0.200382,-1.26627,0.165447,-0.665238,0.922137,-0.0793947,0.130013,-0.19485
0.0335287,0.205926,-1.24854,0.323247,-0.258804,0.871099,-0.00229659,0.142477,-0.245112
0.0276793,0.214842,-1.22999,0.519096,0.0349877,0.995008,0.0730277,0.180875,-0.200717
0.0247745,0.227642,-1.2084,0.69948,0.122335,1.14085,0.0742863,0.200382,-0.0894216
0.0208654,0.243397,-1.18469,0.815663,0.0039869,1.18965,0.0278163,0.178288,0.0466533
0.0128662,0.260781,-1.16098,0.879629,-0.206865,1.12686,-0.0215404,0.157493,0.146209
0.00171927,0.278406,-1.1394,0.859686,-0.31292,0.961986,-0.0660147,0.1461,0.210105
-0.00970619,0.294668,-1.12168,0.77275,-0.315009,0.732307,-0.0893146,0.143251,0.256033
-0.0194217,0.308695,-1.10885,0.646324,-0.278744,0.480906,-0.0781619,0.146574,0.288351
-0.0269991,0.31986,-1.1009,0.484444,-0.237416,0.254805,-0.0476309,0.154232,0.306523
-0.0321045,0.327507,-1.09752,0.282122,-0.16947,0.0471957,-0.0242031,0.162245,0.300302
-0.0350795,0.330866,-1.09838,0.0506945,-0.165463,-0.137555,-0.00613657,0.167055,0.283879
-0.0370032,0.32984,-1.10355,-0.168772,-0.199278,-0.35433,-0.00162062,0.168863,0.236538
-0.0378484,0.324703,-1.11359,-0.38281,-0.199924,-0.573066,0.024952,0.154995,0.170745
-0.0370765,0.315276,-1.12776,-0.618496,-0.159498,-0.724173,0.0633018,0.158223,0.0957789
-0.0342721,0.301127,-1.14428,-0.8745,-0.0739659,-0.805905,0.0888301,0.125149,0.00191224
-0.0306127,0.280334,-1.16341,-1.27603,-0.105889,-0.975153,0.0307863,0.106633,-0.0933202
-0.0306127,0.280334,-1.16341,-1.27603,-0.105889,-0.975153,0.0307863,0.106633,-0.0933202
-0.0258916,0.252504,-1.18636,-1.53474,-0.0123567,-1.15982,0.0162787,0.0736815,-0.267661
-0.0185692,0.222435,-1.21235,-1.49303,0.156775,-1.27879,0.0499863,0.0546203,-0.468042
-0.00727529,0.195421,-1.23758,-1.21724,0.449163,-1.1024,0.134822,0.0429653,-0.617632
0.00720798,0.175678,-1.25568,-0.741589,0.641875,-0.656957,0.175688,0.0568098,-0.66358
0.0220412,0.165641,-1.26437,-0.271924,0.671072,-0.241618,0.120261,0.0345136,-0.570689
0.0350297,0.16353,-1.26671,0.0412586,0.594952,-0.0273237,-0.00452606,-0.0133909,-0.413025
0.0466923,0.166817,-1.2666,0.282535,0.581654,0.0418548,-0.107139,-0.0335098,-0.275531
0.0575917,0.174595,-1.26563,0.478248,0.496979,0.10626,-0.169936,0.00783098,-0.125356
0.0643801,0.185624,-1.26296,0.601655,0.198899,0.223826,-0.215345,0.055211,0.0223044
0.06321,0.198967,-1.25889,0.704537,-0.248512,0.243147,-0.288545,0.0958195,0.121136
0.0530163,0.213746,-1.25577,0.746414,-0.69951,0.126903,-0.348066,0.125849,0.190256
0.0358949,0.227729,-1.25602,0.628363,-0.979599,-0.108406,-0.379596,0.141568,0.236387
0.0176975,0.237725,-1.26178,0.374782,-0.929445,-0.430102,-0.378222,0.155247,0.240828
0.00484296,0.242301,-1.27381,0.103466,-0.620338,-0.73415,-0.350328,0.176751,0.218839
0.000248967,0.242185,-1.29136,-0.0942704,-0.278103,-0.962184,-0.286237,0.190431,0.201636
0.00197959,0.239207,-1.3125,-0.181288,-0.0807945,-1.08684,-0.22522,0.197595,0.206784
0.00619495,0.235441,-1.33564,-0.177812,-0.0779912,-1.16975,-0.184842,0.187404,0.230862
0.0090946,0.232225,-1.36048,-0.123938,-0.212597,-1.25933,-0.147385,0.155726,0.253558
0.00955505,0.229979,-1.38737,-0.0879165,-0.34098,-1.37478,-0.122722,0.124808,0.259836
0.00956705,0.2276,-1.41668,-0.140974,-0.292611,-1.48992,-0.0901613,0.100487,0.257461
0.0124808,0.223142,-1.44821,-0.281259,-0.100816,-1.59124,-0.0544837,0.0730102,0.246509
0.0199596,0.21583,-1.48137,-0.393515,0.121774,-1.66535,-0.0179083,0.031297,0.208584
0.031383,0.206348,-1.51587,-0.468146,0.289896,-1.74251,-0.00632866,-0.0137104,0.177339
0.0447158,0.194735,-1.55154,-0.561617,0.295244,-1.80155,0.0106941,-0.0548151,0.156266
0.0560065,0.180559,-1.58759,-0.679479,0.141171,-1.81026,0.0447558,-0.0918591,0.113305
0.0624693,0.16403,-1.62277,-0.749996,-0.100903,-1.75317,0.0831846,-0.129185,0.0112489
0.0640501,0.147508,-1.6563,-0.676784,-0.234527,-1.66714,0.0957616,-0.152923,-0.14596
0.0637277,0.132958,-1.68806,-0.582866,-0.203904,-1.56897,0.0995667,-0.169984,-0.258412
0.0658939,0.120144,-1.71766,-0.513612,0.0728936,-1.44408,0.124951,-0.188159,-0.333216
0.0738769,0.108827,-1.74413,-0.425151,0.442844,-1.25939,0.159735,-0.214386,-0.361777
0.0883222,0.0995996,-1.76688,-0.347438,0.711361,-1.08416,0.196898,-0.245368,-0.315246
0.103417,0.0897893,-1.78575,-0.445741,0.556826,-0.853133,0.248089,-0.277198,-0.219387
0.110704,0.0800734,-1.7988,-0.353299,0.0407195,-0.556186,0.255766,-0.268141,-0.283018
0.107435,0.0746859,-1.80653,-0.0658976,-0.376162,-0.272617,0.231586,-0.254546,-0.433968
0.100246,0.0777906,-1.81004,0.431966,-0.276171,-0.0550093,0.19948,-0.229722,-0.560489
0.0999538,0.0912045,-1.81056,0.87233,0.280183,0.136048,0.156227,-0.16733,-0.516314
0.110395,0.110413,-1.8086,0.977106,0.728394,0.245326,0.119169,-0.137996,-0.273462
0.125981,0.12978,-1.80525,0.902156,0.812375,0.313567,0.0891229,-0.114878,-0.043032
0.139558,0.147686,-1.80059,0.827504,0.57316,0.389639,0.0746429,-0.0743464,0.0865532
0.145912,0.165398,-1.79407,0.860479,0.160073,0.505427,0.0840371,-0.023588,0.121013
0.143862,0.18517,-1.78517,0.972642,-0.193927,0.6558,0.0840906,0.0474717,0.104297
0.134831,0.207008,-1.77306,1.00723,-0.459004,0.823845,0.071221,0.120389,0.0993914
0.120497,0.228249,-1.75779,0.89905,-0.625789,0.914374,0.0359886,0.160477,0.0955107
0.103364,0.246266,-1.7411,0.711448,-0.693907,0.882036,-0.0212558,0.180476,0.0593338
0.0857126,0.260124,-1.72586,0.53461,-0.674255,0.705455,-0.0854743,0.19142,-0.0137519
0.0706422,0.270103,-1.71445,0.383209,-0.518964,0.480092,-0.103196,0.209931,-0.0808967
0.0605774,0.277292,-1.70662,0.314853,-0.256436,0.342956,-0.0709383,0.255625,-0.130632
0.0567037,0.284656,-1.70011,0.407908,0.0332445,0.341478,-0.0257977,0.301625,-0.14826
0.0569045,0.294564,-1.69302,0.538001,0.168981,0.395611,0.00352868,0.332941,-0.0728948
0.0580907,0.306181,-1.68503,0.556551,0.162344,0.431286,-0.00541587,0.334988,0.0504552
0.0578755,0.317139,-1.67656,0.488257,0.0743232,0.433753,-0.0165828,0.317618,0.154946
0.0558442,0.32648,-1.66838,0.402893,-0.015716,0.394235,-0.0275526,0.304109,0.211356
0.0525596,0.334077,-1.66109,0.321404,-0.0649423,0.335554,-0.0330903,0.281862,0.229252
0.0486386,0.339955,-1.65512,0.239524,-0.143316,0.251286,-0.0404963,0.264262,0.23531
0.0486386,0.339955,-1.65512,0.239524,-0.143316,0.251286,-0.0404963,0.264262,0.23531
0.0432425,0.344241,-1.65112,0.179843,-0.262257,0.148847,-0.0378242,0.239246,0.220634
0.036294,0.347648,-1.64917,0.159348,-0.353208,0.0496204,-0.0261197,0.228825,0.184965
0.0293754,0.350544,-1.64952,0.126494,-0.339364,-0.0727,-0.0332002,0.22468,0.163588
0.0242666,0.352467,-1.65262,0.0746774,-0.277123,-0.210773,-0.0177677,0.200622,0.145538
0.0213799,0.353236,-1.65871,0.0134716,-0.216253,-0.362265,-0.0143669,0.18903,0.125605
0.0213911,0.352197,-1.66795,-0.11443,-0.108216,-0.509273,-0.0132864,0.174703,0.115847
0.0236739,0.347695,-1.68026,-0.31282,-0.105157,-0.666733,-0.0179064,0.147418,0.105699
0.0263271,0.33942,-1.69628,-0.464433,-0.169993,-0.869581,-0.0345879,0.110666,0.0379427
0.0293483,0.328968,-1.71626,-0.521703,-0.175185,-1.04441,-0.0176998,0.0705792,-0.0653685
0.0328,0.316896,-1.73955,-0.625152,-0.213729,-1.2074,-0.0431852,0.07143,-0.131664
0.037577,0.302676,-1.76568,-0.705738,-0.0823299,-1.34045,-0.0539115,0.0708421,-0.203572
0.0463524,0.287035,-1.79434,-0.746609,0.12781,-1.47369,-0.0222691,0.0193766,-0.242672
0.0589698,0.270223,-1.82482,-0.779279,0.280762,-1.52639,0.0176049,-0.0170657,-0.242737
0.0726363,0.253036,-1.85442,-0.731017,0.299772,-1.43934,0.0515952,-0.0145172,-0.240558
0.0843114,0.237435,-1.88161,-0.617851,0.201953,-1.32891,0.0679618,-0.0359074,-0.229872
0.0931256,0.223861,-1.9065,-0.517641,0.128081,-1.21145,0.0657929,-0.05843,-0.2233
0.100534,0.212808,-1.92873,-0.36248,0.15261,-1.05444,0.0652596,-0.0589818,-0.229184
0.108689,0.205715,-1.94755,-0.144262,0.28667,-0.84824,0.0559371,-0.0399647,-0.213354
0.118823,0.203744,-1.96234,0.114387,0.41625,-0.620849,0.0344208,-0.0297795,-0.145189
0.129618,0.207163,-1.97347,0.354011,0.416896,-0.426297,0.00387907,-0.0293163,-0.0366558
0.138233,0.215118,-1.98146,0.536313,0.260549,-0.246481,-0.0197948,-0.0202101,0.0776327
0.142229,0.226125,-1.98679,0.595025,0.000782789,-0.129125,-0.0546909,-0.0185644,0.178096
0.139203,0.236199,-1.99058,0.423973,-0.410813,-0.108296,-0.111388,-0.0138553,0.256043
0.127546,0.241376,-1.99399,0.137747,-0.82305,-0.159685,-0.17025,-0.00804664,0.238925
0.10944,0.241332,-1.99853,-0.0745534,-1.06368,-0.29469,-0.214486,0.0111821,0.124238
0.0898871,0.237583,-2.0059,-0.218154,-1.02955,-0.45335,-0.202387,0.0210441,-0.00158793
0.0745653,0.231449,-2.01594,-0.301152,-0.690134,-0.560087,-0.148972,0.0321374,-0.100674
0.0683191,0.224329,-2.02689,-0.331716,-0.16085,-0.535248,-0.0684781,0.0519966,-0.145052
0.0725574,0.216946,-2.03569,-0.347173,0.352465,-0.350653,-0.00948463,0.0758436,-0.108438
0.0819376,0.209851,-2.03967,-0.323419,0.439105,-0.0984595,0.0300265,0.0559861,-0.00516951
0.088698,0.204174,-2.03917,-0.241219,0.231581,0.0915105,0.0541426,-0.00436437,0.0668863
0.0901835,0.200693,-2.03508,-0.145484,0.000813833,0.278289,0.0638154,-0.0323255,0.0943851
0.0873929,0.198957,-2.02748,-0.102836,-0.0902716,0.439121,0.0673331,-0.0437322,0.0990604
0.0842472,0.197274,-2.0172,-0.162632,0.00141385,0.55052,0.0901377,-0.0687734,0.109344
0.0835029,0.194031,-2.00471,-0.258148,0.16806,0.656213,0.112266,-0.0829107,0.104754
0.0846514,0.189367,-1.98941,-0.317343,0.220769,0.812222,0.155776,-0.0783645,0.0910642
0.085526,0.184558,-1.97044,-0.306754,0.225005,1.02224,0.202543,-0.0665036,0.0496607
0.0863217,0.180876,-1.94664,-0.266451,0.309148,1.28998,0.238022,-0.0400188,0.00251538
0.0888696,0.178021,-1.91727,-0.284729,0.467033,1.57574,0.257285,-0.0234486,-0.00490212
0.0931054,0.174408,-1.88214,-0.401051,0.559842,1.84669,0.258049,-0.0156532,0.0111273
0.0966893,0.168945,-1.84125,-0.503365,0.468556,2.1256,0.244466,-0.00356455,-0.00349122
0.0955787,0.163663,-1.79479,-0.436578,0.151963,2.39206,0.222325,0.015396,-0.0806407
0.0862651,0.161374,-1.7436,-0.237763,-0.26382,2.62728,0.19586,0.0353231,-0.175156
0.0682098,0.163101,-1.68845,-0.00524112,-0.628825,2.83224,0.159173,0.0781813,-0.263064
0.0452455,0.169284,-1.62944,0.308809,-0.645644,3.02096,0.109149,0.141576,-0.361739
0.024258,0.181034,-1.56742,0.651223,-0.343849,3.12646,0.0346124,0.187112,-0.390563
0.00919263,0.19755,-1.50407,0.88218,0.00553099,3.12371,-0.0169178,0.189035,-0.288183
-0.0016008,0.216343,-1.44146,0.96286,0.174198,3.01603,-0.0543142,0.180785,-0.108807
-0.0109466,0.23491,-1.38127,0.920815,0.217376,2.86067,-0.0776721,0.175108,0.0403176
-0.0211836,0.251439,-1.32376,0.828333,0.129177,2.70985,-0.0547404,0.168232,0.139298
-0.0338176,0.265592,-1.26928,0.735878,0.0168204,2.52158,-0.0498328,0.157851,0.18869
-0.0472696,0.277072,-1.21887,0.60475,0.00308213,2.29757,-0.0289825,0.138546,0.213289
-0.0593015,0.285143,-1.17308,0.438684,0.0768026,2.06899,0.0104106,0.127989,0.223743
-0.0683272,0.289624,-1.13174,0.266456,0.178496,1.88451,0.0585183,0.129617,0.218124
-0.0683272,0.289624,-1.13174,0.266456,0.178496,1.88451,0.0585183,0.129617,0.218124
-0.075661,0.291046,-1.09374,0.152178,0.168925,1.75641,0.129661,0.12219,0.191181
-0.0824928,0.290763,-1.05822,0.0989303,0.168637,1.64979,0.188026,0.11931,0.130701
-0.0883239,0.289382,-1.02485,0.0270639,0.194121,1.55885,0.234627,0.119284,0.0861236
-0.0934016,0.285998,-0.993628,-0.0901956,0.184235,1.4649,0.284729,0.105739,0.0403276
-0.0979027,0.280689,-0.964318,-0.157474,0.171836,1.40457,0.3362,0.105371,-0.0383195
-0.102826,0.274928,-0.935914,-0.132285,0.111059,1.38344,0.373753,0.119546,-0.130972
-0.108719,0.27011,-0.90763,-0.0499409,0.0585809,1.39081,0.406206,0.12957,-0.212908
-0.115217,0.267179,-0.878648,0.0826063,0.0769519,1.43016,0.422773,0.152943,-0.292348
-0.120354,0.267254,-0.848383,0.28749,0.221483,1.47706,0.416491,0.168228,-0.361951
-0.121607,0.271495,-0.816967,0.488694,0.495458,1.48251,0.386808,0.182082,-0.392926
-0.117546,0.278592,-0.785532,0.561414,0.75654,1.44369,0.352515,0.191659,-0.342829
-0.109211,0.286522,-0.754929,0.560384,0.917216,1.39971,0.319501,0.205393,-0.273136
-0.0987234,0.294636,-0.724951,0.55479,0.97557,1.38748,0.301912,0.229615,-0.224097
-0.0881803,0.3033,-0.695076,0.581852,0.960801,1.37748,0.266007,0.255016,-0.197164
-0.0783931,0.312813,-0.665488,0.598999,0.915696,1.362,0.228657,0.280973,-0.165647
-0.0697717,0.322579,-0.636014,0.581624,0.873191,1.37054,0.201495,0.311109,-0.133065
-0.0624258,0.331785,-0.606241,0.528294,0.821814,1.39112,0.178566,0.334383,-0.103941
-0.0563164,0.339945,-0.57593,0.459032,0.803311,1.42306,0.148875,0.352386,-0.0893459
-0.0503926,0.346965,-0.545166,0.405091,0.829107,1.44883,0.11875,0.368244,-0.0836883
-0.0445356,0.353418,-0.513721,0.391023,0.83915,1.4859,0.097708,0.380835,-0.0678314
-0.0390134,0.359865,-0.481335,0.379531,0.846928,1.52695,0.0801605,0.386617,-0.0353029
-0.0340459,0.365791,-0.448028,0.322375,0.833934,1.57133,0.0648379,0.379996,0.0180473
-0.0298585,0.370378,-0.413865,0.243869,0.816924,1.60864,0.0505042,0.37062,0.0669984
-0.0260878,0.373512,-0.379308,0.155259,0.818599,1.60184,0.0199833,0.349125,0.114847
-0.0221895,0.374646,-0.345501,0.0310006,0.803739,1.54989,0.00137685,0.313224,0.174335
-0.0176083,0.373216,-0.312996,-0.10726,0.83429,1.49578,-0.000709815,0.272678,0.212876
-0.0122301,0.369357,-0.281532,-0.226195,0.832042,1.45819,0.0111608,0.237892,0.238108
-0.00727116,0.363318,-0.250834,-0.350197,0.759198,1.42003,0.0305239,0.196625,0.255484
-0.00326009,0.355105,-0.221153,-0.453366,0.688026,1.37024,0.0368549,0.151339,0.254332
-1.89572e-05,0.345466,-0.192408,-0.498688,0.631677,1.35427,0.0703761,0.103421,0.235657
0.0022691,0.33533,-0.163293,-0.524609,0.5686,1.40807,0.11184,0.0517678,0.215219
0.00320634,0.324113,-0.133136,-0.63122,0.518308,1.43528,0.10394,0.00471714,0.201835
0.00429603,0.309334,-0.103807,-0.882523,0.509093,1.32812,0.0774814,-0.0718424,0.187101
0.00689239,0.288248,-0.0788375,-1.26275,0.490483,1.02836,0.0531454,-0.182676,0.141292
0.0122015,0.259335,-0.0607293,-1.63271,0.551305,0.719321,0.0856646,-0.254838,0.035962
0.0204155,0.225124,-0.0463018,-1.77717,0.584217,0.677364,0.144377,-0.199487,-0.150437
0.0270037,0.191753,-0.0296942,-1.53449,0.403955,0.915068,0.226439,-0.127169,-0.363184
0.0298512,0.167485,-0.00639518,-0.934292,0.324066,1.33598,0.262609,-0.0456684,-0.547895
0.0313098,0.155825,0.0259178,-0.369028,0.349413,1.83123,0.237309,0.0200027,-0.568448
0.0331484,0.152972,0.0670281,-0.105682,0.466395,2.20335,0.12885,0.0526756,-0.479902
0.0367068,0.153041,0.11357,-0.0688018,0.580175,2.38439,-0.0236201,0.0581906,-0.370767
0.0409555,0.153653,0.162612,-0.0473526,0.574066,2.4706,-0.134227,0.0748025,-0.284171
0.0439693,0.15586,0.21283,0.0726659,0.49592,2.51063,-0.207302,0.0974755,-0.21936
0.0447052,0.161356,0.263682,0.265822,0.382102,2.54702,-0.222989,0.113263,-0.146224
0.0431371,0.170827,0.315153,0.451628,0.317751,2.57736,-0.239685,0.139114,-0.0565031
0.0399498,0.182922,0.366877,0.518358,0.278433,2.57269,-0.255642,0.152332,0.0579713
0.0353344,0.194578,0.418346,0.442768,0.220468,2.53262,-0.246407,0.135079,0.169634
0.029077,0.20382,0.468556,0.326102,0.151688,2.42345,-0.236052,0.108265,0.22788
0.0219324,0.210392,0.51644,0.202404,0.122158,2.2953,-0.212762,0.0849117,0.253272
0.0145347,0.213737,0.562099,0.0525579,0.0992091,2.19013,-0.195676,0.0713049,0.265655
0.00712315,0.214117,0.605701,-0.0665811,0.0712539,2.08457,-0.17853,0.0433258,0.2543
-0.00069739,0.212034,0.646823,-0.159653,0.00208641,1.94563,-0.160985,0.0068512,0.23676
-0.00956213,0.207971,0.684919,-0.211333,-0.0911716,1.80106,-0.144773,-0.0256565,0.198195
-0.00956213,0.207971,0.684919,-0.211333,-0.0911716,1.80106,-0.144773,-0.0256565,0.198195
-0.0188126,0.203599,0.720119,-0.169963,-0.0977412,1.66043,-0.127543,-0.0460653,0.127289
-0.0264023,0.200072,0.752421,-0.114011,-0.00198761,1.52752,-0.0911013,-0.0689753,0.0797473
-0.0302678,0.197096,0.782046,-0.11505,0.208958,1.39724,-0.0567485,-0.0864802,0.063732
-0.029304,0.193441,0.809224,-0.173873,0.404001,1.29453,-0.0131626,-0.106118,0.0571449
-0.0247605,0.189134,0.834655,-0.177323,0.516772,1.22641,0.0316865,-0.119624,0.0309844
-0.018686,0.185523,0.858887,-0.124951,0.554687,1.17163,0.0739215,-0.133762,-0.0147071
-0.0107744,0.183285,0.88227,-0.0725683,0.677176,1.15149,0.108082,-0.13735,-0.0663826
-0.000261995,0.181886,0.905918,-0.0529613,0.798188,1.19367,0.133879,-0.121392,-0.109834
0.0116577,0.181664,0.930731,0.0276192,0.824937,1.25731,0.148294,-0.117719,-0.162549
0.022714,0.184057,0.95681,0.178086,0.755223,1.31841,0.156123,-0.12713,-0.211785
0.0316494,0.190117,0.983808,0.338855,0.615977,1.34682,0.155511,-0.14408,-0.241273
0.0365391,0.198135,1.0105,0.320234,0.354955,1.29517,0.13171,-0.138883,-0.23517
0.0355168,0.203517,1.03547,0.119791,0.0798691,1.16918,0.0986921,-0.153568,-0.289383
0.0320708,0.205191,1.0577,0.00116403,0.075447,1.02013,0.0720772,-0.125058,-0.44209
0.0327108,0.206596,1.07738,0.112585,0.430947,0.930445,0.0535924,-0.0603275,-0.580123
0.0421667,0.211821,1.09622,0.349731,0.910791,0.962317,0.0575733,0.0408525,-0.575877
0.0598894,0.222288,1.11683,0.591075,1.27412,1.12215,0.0712882,0.116397,-0.451829
0.0813852,0.23806,1.14057,0.824379,1.39104,1.30751,0.0732191,0.166375,-0.247942
0.102335,0.259263,1.1674,1.03525,1.35656,1.48639,0.0444768,0.219015,-0.0559795
0.120029,0.284071,1.19731,1.08814,1.20693,1.666,0.0185874,0.264137,0.141416
0.131833,0.309141,1.23081,0.975445,0.934732,1.83965,0.00739458,0.295086,0.295541
0.134547,0.331218,1.26819,0.723245,0.494377,1.97258,-0.00200278,0.298218,0.378903
0.125983,0.347489,1.30851,0.393876,-0.00390309,2.00343,-0.016043,0.265404,0.391962
0.10774,0.356752,1.34932,0.0944247,-0.375336,1.89878,-0.0602947,0.243794,0.306542
0.0859583,0.360259,1.38731,-0.0707912,-0.42342,1.67178,-0.106418,0.227486,0.154823
0.0673904,0.360194,1.41998,-0.16615,-0.259429,1.3847,-0.105468,0.210381,0.0475959
0.055537,0.357948,1.4469,-0.214801,0.0360426,1.13641,-0.07674,0.205181,-0.0131906
0.0509953,0.354319,1.4696,-0.256053,0.280404,0.994426,-0.02794,0.207746,-0.0128143
0.0502537,0.350412,1.4904,-0.219188,0.333705,0.949023,0.000961475,0.205635,0.00309378
0.0490107,0.34804,1.51014,-0.111815,0.208729,0.895122,0.00359843,0.192817,0.0275526
0.0460795,0.347553,1.52839,-0.0365789,0.142929,0.816874,-0.0133408,0.164756,0.0454121
0.0438211,0.347716,1.5442,-0.0274059,0.193352,0.661122,-0.0533771,0.131782,0.0719567
0.0447814,0.347371,1.55591,-0.0796137,0.302052,0.430273,-0.0841611,0.08852,0.099637
0.0495994,0.345288,1.56237,-0.166072,0.396545,0.17127,-0.105094,0.0550812,0.122285
0.0571441,0.3417,1.56372,-0.190828,0.388691,-0.0562445,-0.111062,0.0369331,0.116765
0.065138,0.338038,1.56042,-0.156105,0.304095,-0.278734,-0.115531,0.0265676,0.100037
0.0738058,0.334559,1.55229,-0.157369,0.314129,-0.520258,-0.131174,0.00959635,0.0852791
0.0849913,0.329266,1.53875,-0.291992,0.362447,-0.80579,-0.146994,-0.0141757,0.0924309
0.0986641,0.320182,1.51957,-0.43269,0.388507,-1.08853,-0.166496,-0.0304903,0.0563782
0.11339,0.308967,1.49557,-0.415757,0.333604,-1.29625,-0.157091,-0.0251493,-0.0270412
0.127379,0.298812,1.46811,-0.275946,0.243716,-1.42134,-0.139777,-0.00870043,-0.0938801
0.138995,0.290549,1.43895,-0.181257,0.0557858,-1.44695,-0.118611,0.00515163,-0.0893001
0.146054,0.283585,1.41012,-0.117323,-0.131325,-1.39616,-0.092725,-0.00564685,-0.0961531
0.150228,0.277584,1.38219,-0.100211,-0.239259,-1.36014,-0.097319,-0.0415336,-0.108026
0.151828,0.270703,1.35404,-0.197481,-0.335,-1.4593,-0.182679,-0.0441907,-0.105104
0.153781,0.260231,1.32274,-0.399982,-0.295987,-1.71153,-0.217873,-0.087087,-0.105483
0.156882,0.244611,1.28715,-0.604068,-0.278708,-1.91607,-0.16732,-0.0978932,-0.117276
0.159895,0.226349,1.25065,-0.619709,-0.284586,-1.84522,-0.0686362,-0.0389607,-0.16982
0.160859,0.209947,1.2181,-0.486696,-0.328681,-1.54582,-0.00274953,0.00436747,-0.219307
0.158941,0.198255,1.19132,-0.241311,-0.394948,-1.26686,-0.0175073,0.00419496,-0.238901
0.155693,0.192311,1.1674,0.0142137,-0.381151,-1.1628,-0.0535274,-0.00323886,-0.202396
0.153793,0.191154,1.14476,0.19179,-0.255078,-1.05799,-0.0603098,0.00275114,-0.131411
0.153161,0.192845,1.12397,0.277987,-0.228609,-0.935663,-0.0693821,0.0206313,-0.0422485
0.150705,0.196156,1.10563,0.322818,-0.397508,-0.801003,-0.0988548,0.0462339,0.0238136
0.150705,0.196156,1.10563,0.322818,-0.397508,-0.801003,-0.0988548,0.0462339,0.0238136
0.143379,0.200707,1.08925,0.365142,-0.661179,-0.752251,-0.154226,0.0529539,0.0513984
0.131567,0.206104,1.07228,0.394249,-0.846444,-0.84127,-0.205865,0.0466889,0.0610896
0.118226,0.211401,1.05262,0.362893,-0.877057,-1.01336,-0.224989,0.0429902,0.0730246
0.106482,0.21529,1.02956,0.265132,-0.769003,-1.18672,-0.195288,0.0484693,0.0902932
0.0991831,0.216975,1.00374,0.163227,-0.505078,-1.30166,-0.167408,0.0678154,0.0930611
0.097294,0.217273,0.976405,0.144305,-0.300278,-1.36051,-0.148247,0.0835942,0.10595
0.0981684,0.21812,0.948042,0.208925,-0.244844,-1.39558,-0.127579,0.0754036,0.14229
0.0999133,0.220205,0.918837,0.26007,-0.211942,-1.43034,-0.121524,0.054733,0.19616
0.102602,0.222623,0.889208,0.266238,-0.178949,-1.42402,-0.101161,0.0294743,0.256035
0.105714,0.224666,0.860043,0.215843,-0.161873,-1.40104,-0.0856233,0.00955421,0.309224
0.108774,0.224604,0.83114,0.0702484,-0.182146,-1.41112,-0.0933207,-0.0328945,0.350041
0.111106,0.221069,0.80226,-0.116133,-0.228181,-1.43386,-0.0773721,-0.0828208,0.350538
0.112424,0.213954,0.773576,-0.263986,-0.249435,-1.43373,-0.0528052,-0.106858,0.299582
0.11385,0.204599,0.745684,-0.356904,-0.195762,-1.38734,-0.0143716,-0.116375,0.226359
0.115321,0.19364,0.719773,-0.444279,-0.167739,-1.25214,0.0628205,-0.129468,0.159286
0.11656,0.181608,0.69803,-0.502507,-0.125059,-1.00953,0.130505,-0.134635,0.0737588
0.116623,0.169361,0.681703,-0.523301,-0.165488,-0.733482,0.175086,-0.152325,-0.0202094
0.115247,0.1581,0.670944,-0.46609,-0.116343,-0.472889,0.198179,-0.177901,-0.141123
0.115732,0.148435,0.664033,-0.442318,0.0263385,-0.331101,0.17376,-0.21121,-0.223957
0.113346,0.137373,0.660086,-0.646261,-0.442868,-0.183701,0.19033,-0.241797,-0.213897
0.0963827,0.1217,0.659925,-0.889596,-1.2376,0.00625128,0.212263,-0.227538,-0.337473
0.0673183,0.104942,0.66322,-0.72453,-1.55384,0.175103,0.16174,-0.184618,-0.641955
0.0377799,0.0959803,0.66843,-0.188727,-1.25705,0.295215,0.101334,-0.114982,-0.867755
0.0191438,0.0970851,0.676211,0.230065,-0.486505,0.484918,0.11257,-0.0788791,-0.822518
0.0166992,0.10336,0.687387,0.358715,0.332695,0.633838,0.104896,-0.0589179,-0.585691
0.0288978,0.112412,0.701184,0.539886,1.00454,0.752229,0.0728053,-0.032951,-0.340436
0.0515047,0.12629,0.716781,0.782764,1.39288,0.867486,0.0224907,0.0358513,-0.0624564
0.0770309,0.144549,0.734702,0.888756,1.33885,1.03742,0.0108535,0.0726044,0.241245
0.0967268,0.163005,0.75567,0.725578,0.924069,1.18837,0.0120803,0.070182,0.476455
0.104436,0.17644,0.779395,0.360217,0.2104,1.2668,0.0153223,0.027989,0.58252
0.0955356,0.182568,0.804532,0.0222409,-0.65447,1.25942,-2.45124e-05,0.00621639,0.537765
0.070646,0.183813,0.830086,-0.0729838,-1.30326,1.25923,-0.0195934,0.0570169,0.32317
0.0370012,0.184049,0.855078,-0.0315649,-1.56291,1.18315,-0.0332399,0.09033,0.0949256
0.00301185,0.184585,0.877272,0.040593,-1.364,0.998481,-0.0301671,0.0818238,-0.108667
-0.0226619,0.185962,0.895884,0.122269,-0.841359,0.847876,0.00699524,0.0891738,-0.248771
-0.0363378,0.189386,0.912615,0.28019,-0.23785,0.810156,0.0519919,0.121819,-0.290562
-0.0403603,0.19656,0.929758,0.503396,0.113019,0.85526,0.0919101,0.149353,-0.221867
-0.0409757,0.207654,0.947924,0.659283,0.154143,0.868375,0.0942834,0.137973,-0.0674091
-0.042775,0.220359,0.965648,0.663929,0.0260727,0.803335,0.0729932,0.110776,0.0896421
-0.0473705,0.232264,0.981461,0.592201,-0.134542,0.673915,0.0575864,0.0877561,0.169505
-0.054119,0.242462,0.994043,0.487524,-0.219088,0.499102,0.0478259,0.0963252,0.189543
-0.0599287,0.250375,1.00326,0.346699,-0.113358,0.351044,0.0451012,0.117534,0.17785
-0.062104,0.255202,1.00921,0.166892,0.0297356,0.196503,0.0492202,0.118515,0.18082
-0.0616839,0.256635,1.01175,-0.0148177,0.0461877,0.0488526,0.0656684,0.10159,0.17888
-0.0613026,0.254962,1.01143,-0.15513,-0.0166653,-0.0637374,0.0823093,0.0850792,0.135335
-0.0616137,0.251132,1.00903,-0.242352,-0.0653753,-0.141702,0.0860104,0.0810197,0.0649232
-0.0617554,0.246037,1.00508,-0.29493,-0.0319659,-0.210242,0.0740635,0.0749829,-0.0110285
-0.0601476,0.239844,0.999665,-0.354881,0.0700508,-0.280428,0.0611372,0.0556967,-0.0685742
-0.0555476,0.232853,0.993064,-0.372996,0.238248,-0.315194,0.0514878,0.0369374,-0.122574
-0.0475474,0.226528,0.986248,-0.287276,0.400707,-0.307322,0.0367784,0.0151692,-0.156761
-0.0374675,0.222775,0.980144,-0.113184,0.46412,-0.268659,0.0102879,-0.0106607,-0.148443
-0.0267872,0.222167,0.974565,-0.020769,0.427052,-0.285901,-0.0200016,-0.0472644,-0.0794779
-0.0202691,0.219906,0.968556,-0.247943,0.080984,-0.300825,-0.0565295,-0.0321367,0.00428194
-0.0196986,0.212659,0.960974,-0.493733,-0.18139,-0.464128,-0.14342,-0.0382082,-0.0506552
-0.0196986,0.212659,0.960974,-0.493733,-0.18139,-0.464128,-0.14342,-0.0382082,-0.0506552
-0.021691,0.201224,0.94803,-0.664671,-0.219427,-0.783326,-0.177204,-0.0819153,-0.186362
-0.0202155,0.188088,0.929624,-0.659654,0.0334441,-0.956498,-0.127985,-0.0532682,-0.33287
-0.0137032,0.176907,0.910906,-0.473889,0.257906,-0.82208,-0.0391234,0.0490938,-0.392485
-0.00527565,0.170148,0.897467,-0.203889,0.323521,-0.489826,-0.00625991,0.149552,-0.355488
0.00219962,0.168807,0.890983,0.0582968,0.308075,-0.175705,-0.0422684,0.181251,-0.251536
0.00860869,0.171805,0.888934,0.223683,0.307133,-0.0555635,-0.0917033,0.141923,-0.0948368
0.015169,0.176804,0.887754,0.263501,0.34498,-0.0596531,-0.106897,0.102932,0.0871724
0.0231643,0.181619,0.886642,0.213033,0.422026,-0.0329977,-0.0793609,0.0874821,0.249814
0.0312683,0.184986,0.886675,0.124991,0.355838,0.0523124,-0.036284,0.0739937,0.380942
0.0357577,0.186889,0.888718,0.0679879,0.116814,0.152463,0.000791591,0.0456972,0.457957
0.0349554,0.188358,0.89237,0.0643323,-0.120985,0.202384,0.0148947,0.0169277,0.486748
0.029329,0.189173,0.89655,-0.0179773,-0.363456,0.199731,0.0389473,-0.0228907,0.508746
0.019789,0.187245,0.900294,-0.20188,-0.497286,0.158108,0.0586221,-0.0675552,0.494413
0.00985601,0.180626,0.902775,-0.481613,-0.430505,0.0722686,0.0750365,-0.102581,0.43748
0.00211386,0.167773,0.903263,-0.801792,-0.349295,-0.0304127,0.119422,-0.146123,0.351374
-0.00386953,0.149585,0.901878,-0.993736,-0.268736,-0.0942534,0.182568,-0.180822,0.176936
-0.00817483,0.129526,0.899749,-0.9842,-0.188136,-0.0898695,0.24242,-0.18648,-0.0295433
-0.011201,0.11153,0.898364,-0.791815,-0.146895,-0.0101859,0.307671,-0.188429,-0.228153
-0.0136512,0.099338,0.900097,-0.40401,-0.0578431,0.218879,0.375552,-0.15937,-0.400668
-0.0135897,0.0956904,0.907661,0.043537,0.160047,0.553437,0.425438,-0.118597,-0.479871
-0.00889339,0.100026,0.922296,0.37898,0.449173,0.892831,0.425521,-0.107675,-0.45415
0.000246195,0.10905,0.942819,0.503004,0.655694,1.12818,0.350555,-0.112709,-0.342808
0.0116198,0.119457,0.966656,0.511034,0.735148,1.23549,0.265075,-0.131696,-0.241889
0.0241762,0.129811,0.991498,0.473971,0.826454,1.23907,0.202897,-0.145227,-0.187002
0.0359695,0.138613,1.01602,0.312719,0.645619,1.23167,0.189511,-0.143477,-0.108544
0.0420567,0.143932,1.04064,0.129647,0.297996,1.22964,0.17119,-0.114911,-0.103607
0.0408583,0.146095,1.06504,-0.00219092,-0.0664512,1.19988,0.166146,-0.0927966,-0.186558
0.0325951,0.147139,1.08976,0.0617606,-0.391985,1.2745,0.19698,-0.0352914,-0.296808
0.0196794,0.152366,1.11691,0.430593,-0.433174,1.45363,0.220677,0.0447067,-0.365185
0.00896709,0.166123,1.14849,0.884531,-0.0888798,1.69364,0.21247,0.129685,-0.302899
0.00622369,0.186315,1.18486,1.05811,0.454926,1.89197,0.177752,0.169186,-0.104423
0.0117287,0.206332,1.2241,0.878693,0.810674,1.97243,0.136271,0.159659,0.139824
0.0193508,0.221394,1.26478,0.571919,0.765047,2.04326,0.125639,0.148255,0.28501
0.0230144,0.231175,1.30703,0.327597,0.53213,2.10004,0.126053,0.129954,0.307598
0.0200458,0.236716,1.35026,0.146641,0.164322,2.12636,0.115494,0.12065,0.26446
0.00913153,0.239288,1.3938,0.0650333,-0.241574,2.11601,0.0813387,0.141063,0.172898
-0.00928504,0.241344,1.43663,0.171428,-0.552714,2.04096,0.0492227,0.144388,0.0407542
-0.0308088,0.246056,1.4768,0.368365,-0.605101,1.84465,0.0306086,0.138539,-0.0431834
-0.0502149,0.253104,1.51316,0.454933,-0.388977,1.67909,0.0324661,0.156981,-0.0368341
-0.0628758,0.25994,1.54735,0.398672,-0.0142749,1.59721,0.0525753,0.178195,0.0189697
-0.0689195,0.264624,1.57974,0.276554,0.212414,1.5008,0.0640722,0.169047,0.100427
-0.0721001,0.267427,1.61002,0.227221,0.246671,1.40399,0.0800819,0.137634,0.133716
-0.0752089,0.270191,1.63833,0.251902,0.19529,1.30064,0.0783782,0.128519,0.148511
-0.078415,0.273373,1.66421,0.24254,0.183864,1.16579,0.0737473,0.109549,0.162117
-0.0808139,0.275783,1.6869,0.14765,0.185092,0.996747,0.0644156,0.0811385,0.184261
-0.0824764,0.275971,1.70577,0.0191636,0.159429,0.82348,0.0684319,0.0621238,0.178754
-0.0831224,0.274519,1.72108,-0.0285675,0.209332,0.663219,0.0632858,0.0526999,0.11385
-0.0812656,0.273236,1.73298,-0.00407509,0.292784,0.493679,0.0507752,0.0371678,0.0541767
-0.0774539,0.272552,1.74126,-0.0150771,0.292213,0.312468,0.0368616,0.00998908,0.0420325
-0.0741603,0.271169,1.74621,-0.0897019,0.167015,0.184616,0.034245,0.0115559,0.0256449
-0.072443,0.268839,1.74882,-0.113875,0.0910364,0.0845509,0.0158553,0.0245086,-0.0541501
-0.070145,0.266707,1.74902,-0.106155,0.186382,-0.0594129,-0.0323203,0.0308144,-0.140466
-0.0635675,0.264501,1.74558,-0.159092,0.361591,-0.276318,-0.0930882,0.00746018,-0.17227
-0.0533472,0.259688,1.73641,-0.420725,0.399798,-0.587027,-0.161753,0.0323072,-0.127587
-0.0533472,0.259688,1.73641,-0.420725,0.399798,-0.587027,-0.161753,0.0323072,-0.127587
-0.0415522,0.247906,1.72084,-0.827419,0.402065,-0.858552,-0.166242,0.0249152,-0.143026
-0.0284771,0.229834,1.70039,-1.01894,0.399783,-1.04253,-0.141724,0.0232714,-0.261889
-0.0172581,0.210557,1.6785,-0.920762,0.229914,-1.02604,-0.103455,0.0631003,-0.363723
-0.00983691,0.195397,1.65866,-0.606208,0.152269,-0.893313,-0.100534,0.110324,-0.407596
-0.0026424,0.187104,1.64219,-0.244988,0.274362,-0.719969,-0.128049,0.138071,-0.365311
0.00654129,0.185257,1.62914,0.0376369,0.379268,-0.578392,-0.165365,0.141474,-0.22308
0.0154541,0.18759,1.61801,0.193207,0.268211,-0.520143,-0.195816,0.13127,-0.0477664
0.0197892,0.192344,1.60796,0.301746,-0.0206969,-0.456211,-0.203352,0.144682,0.0564553
0.0184015,0.198851,1.59904,0.351517,-0.288279,-0.414947,-0.241335,0.171268,0.104823
0.0123385,0.205455,1.59011,0.310288,-0.480046,-0.47849,-0.284463,0.154422,0.125088
0.00456778,0.210407,1.57821,0.178684,-0.517768,-0.70145,-0.322399,0.123882,0.130432
-0.00126366,0.211843,1.56139,-0.0388294,-0.402386,-0.93563,-0.299439,0.110576,0.127165
-0.00334954,0.209303,1.54089,-0.204393,-0.243374,-1.05062,-0.227055,0.114822,0.10726
-0.00322032,0.205139,1.51942,-0.187447,-0.213311,-1.05094,-0.154776,0.119963,0.0888757
-0.00382687,0.202991,1.49835,-0.0240067,-0.277022,-1.0102,-0.0858361,0.103348,0.0818473
-0.00563706,0.204329,1.47869,0.132071,-0.290915,-0.922504,-0.0452004,0.0959612,0.0982156
-0.00753817,0.207721,1.46065,0.177018,-0.269403,-0.866962,-0.045633,0.0675436,0.139059
-0.00892928,0.210957,1.44277,0.122723,-0.240547,-0.908076,-0.0741393,0.0178976,0.176736
-0.00933177,0.212822,1.42364,0.0417939,-0.195863,-0.96623,-0.079563,-0.00836967,0.179956
-0.00854384,0.213146,1.40344,-0.0251473,-0.151215,-1.01264,-0.0789909,-0.0200011,0.17193
-0.00672601,0.212255,1.38255,-0.0730543,-0.117484,-1.02914,-0.0684524,-0.034101,0.15997
-0.00438342,0.2109,1.36152,-0.0649861,-0.0933422,-1.03493,-0.0671554,-0.0539041,0.133305
-0.00159405,0.209981,1.34034,-0.0380289,-0.0643208,-1.04113,-0.0573094,-0.0652556,0.106681
0.00213195,0.209263,1.31949,-0.0365607,0.0106773,-0.997707,-0.021693,-0.0684756,0.0861838
0.00731943,0.208723,1.3001,-0.0102347,0.0952943,-0.897464,0.0129964,-0.0689889,0.06169
0.0126502,0.208667,1.28334,0.0152259,0.0757997,-0.744351,0.0483393,-0.0605293,0.0473216
0.0164882,0.208595,1.26957,-0.0172063,0.02517,-0.618275,0.0474228,-0.0672219,0.0227455
0.0188831,0.207099,1.25771,-0.113628,-0.0363607,-0.560644,0.0145568,-0.082189,-0.0317206
0.0197178,0.204236,1.24665,-0.136695,-0.105274,-0.537036,-0.0176893,-0.0871286,-0.122384
0.019924,0.201932,1.23598,-0.0638385,-0.0602745,-0.524153,-0.0466632,-0.0790851,-0.219061
0.0240097,0.201268,1.22482,0.00364237,0.274365,-0.589218,-0.0791716,-0.0860837,-0.258109
0.0329665,0.199922,1.212,-0.132171,0.297691,-0.660408,-0.0784466,-0.09227,-0.155704
0.039562,0.19531,1.19846,-0.276837,0.0772657,-0.698006,-0.0836453,-0.07781,-0.106404
0.0421212,0.188415,1.18339,-0.347159,-0.0730374,-0.816155,-0.0882385,-0.0840141,-0.155745
0.0438895,0.181002,1.1666,-0.289904,-0.00841817,-0.84527,-0.0420448,-0.0754935,-0.238093
0.0495526,0.176976,1.1505,-0.0256732,0.303526,-0.748684,-0.000266261,-0.0281091,-0.277051
0.060896,0.177971,1.13659,0.163159,0.55769,-0.617531,0.0321897,-0.0144186,-0.154491
0.0747481,0.180608,1.12508,0.16594,0.597965,-0.497246,0.0251232,-0.0216662,0.0231631
0.0873871,0.183162,1.11575,0.164132,0.46527,-0.403832,0.0180048,-0.0329177,0.129225
0.0953334,0.185861,1.10823,0.173643,0.203204,-0.306631,0.0273304,-0.0343688,0.174406
0.0977761,0.188645,1.10308,0.145101,-0.0610284,-0.169028,0.0272042,-0.0178853,0.166243
0.0940924,0.190525,1.10059,0.0559996,-0.350027,-0.0743295,0.00276295,-0.00662477,0.13401
0.0849998,0.190794,1.09923,-0.0149595,-0.595752,-0.0684327,-0.0333691,-0.00468206,0.0477366
0.0705895,0.189688,1.09777,-0.0864229,-0.860473,-0.0826511,-0.0837311,0.0457761,-0.0672576
0.0530691,0.187419,1.09605,-0.116721,-0.887445,-0.100254,-0.11605,0.0783979,-0.21027
0.0381489,0.186039,1.09364,0.0206716,-0.589748,-0.142044,-0.124899,0.101044,-0.341502
0.0324067,0.189195,1.09082,0.312606,-0.0370019,-0.105953,-0.0971915,0.12978,-0.363895
0.0360773,0.197702,1.08956,0.511016,0.330249,0.0157803,-0.0653199,0.159201,-0.187384
0.0429579,0.208402,1.09085,0.541685,0.340196,0.145154,-0.0907368,0.154788,0.0408146
0.0470721,0.21941,1.09417,0.543902,0.110386,0.21534,-0.144773,0.140765,0.188049
0.0450408,0.230436,1.09785,0.542763,-0.232355,0.178247,-0.197461,0.113702,0.262802
0.0371776,0.241174,1.0998,0.519597,-0.479904,0.0456339,-0.241309,0.0827454,0.281972
0.0265215,0.250834,1.09861,0.4364,-0.597288,-0.135365,-0.249871,0.0655647,0.287442
0.0156186,0.257756,1.09359,0.249367,-0.618921,-0.33227,-0.22134,0.050169,0.29694
0.0156186,0.257756,1.09359,0.249367,-0.618921,-0.33227,-0.22134,0.050169,0.29694
0.00509131,0.26032,1.08492,0.0161653,-0.634933,-0.500467,-0.192832,0.0589497,0.281572
-0.00345944,0.258633,1.07315,-0.176594,-0.518208,-0.641401,-0.184842,0.0752018,0.218062
-0.00908131,0.254134,1.0584,-0.2658,-0.434086,-0.789324,-0.162536,0.0652657,0.140479
-0.0136921,0.248894,1.04071,-0.270485,-0.487256,-0.905051,-0.119955,0.065851,0.0805906
-0.0195352,0.244247,1.02167,-0.226366,-0.560043,-0.927961,-0.0605899,0.084386,0.0224111
-0.0263011,0.240291,1.00241,-0.228143,-0.568826,-0.942677,-0.0485847,0.0884033,-0.0295402
-0.032516,0.23541,0.982324,-0.341129,-0.537184,-1.00534,-0.0583065,0.0752979,-0.0574684
-0.0379915,0.227521,0.960549,-0.523847,-0.504515,-1.08932,-0.0533743,0.057945,-0.103638
-0.0420949,0.217066,0.937086,-0.587583,-0.419585,-1.1636,-0.0495117,0.0378447,-0.199167
-0.0432975,0.207558,0.912279,-0.450169,-0.186559,-1.21947,-0.0308262,0.0139477,-0.298045
-0.0388511,0.20007,0.886611,-0.471234,0.0664293,-1.26953,-0.0225871,-0.00730191,-0.25674
-0.0324348,0.18906,0.860064,-0.720892,0.0445863,-1.30925,-0.0539947,-0.0109468,-0.183512
-0.02758,0.174727,0.831741,-0.75885,-0.0870048,-1.45933,-0.117787,-0.0187881,-0.245993
-0.025324,0.161963,0.800052,-0.574192,-0.168566,-1.6218,-0.0930216,-0.0361778,-0.321021
-0.0219348,0.1541,0.767206,-0.292413,0.00906826,-1.57961,-0.0305272,0.000414953,-0.341983
-0.015807,0.151085,0.737121,-0.0832321,0.116043,-1.38742,0.0043043,0.0454998,-0.251109
-0.00983408,0.151523,0.710906,0.102429,0.0843976,-1.22496,-0.0222154,0.044102,-0.159378
-0.00469549,0.156151,0.686608,0.342772,0.0619505,-1.21245,-0.125,0.049682,-0.0932018
0.000494124,0.164832,0.661386,0.497627,0.0550305,-1.29101,-0.210265,0.0803008,0.00507677
0.00492479,0.175044,0.634571,0.522876,-0.10711,-1.34936,-0.252759,0.120746,0.111996
0.0047323,0.184935,0.606429,0.473919,-0.408601,-1.43227,-0.284116,0.1678,0.172009
-0.000218526,0.19312,0.575961,0.336496,-0.651655,-1.57703,-0.32228,0.200558,0.199901
-0.0080525,0.198123,0.542034,0.147164,-0.758857,-1.77206,-0.329416,0.218634,0.193281
-0.0149998,0.199444,0.503951,-0.0598682,-0.673243,-1.97028,-0.300987,0.23174,0.165171
-0.0177063,0.19715,0.462416,-0.237733,-0.384116,-2.10136,-0.246813,0.240721,0.132666
-0.0134172,0.191656,0.419016,-0.371593,-0.0430875,-2.1413,-0.17851,0.246241,0.129108
-0.00441278,0.184542,0.376246,-0.351227,0.120327,-2.05378,-0.0986895,0.231622,0.132043
0.00518452,0.179163,0.33601,-0.18168,0.084378,-1.91575,-0.0457509,0.202682,0.158174
0.0120114,0.176847,0.298737,-0.039043,-0.0709848,-1.7646,-0.0201703,0.161797,0.21355
0.0150391,0.175704,0.264358,-0.0483614,-0.225812,-1.65044,-0.00621632,0.105771,0.275004
0.015358,0.172981,0.231588,-0.185447,-0.30379,-1.60146,0.0094384,0.035981,0.296911
0.0140748,0.167096,0.199427,-0.360562,-0.376346,-1.59416,0.0222239,-0.0153816,0.277005
0.0113773,0.158054,0.167302,-0.493734,-0.412208,-1.59928,0.0222883,-0.0643593,0.210723
0.00854367,0.147341,0.13518,-0.542233,-0.339689,-1.59325,0.0279565,-0.0985685,0.108193
0.00736358,0.135872,0.103461,-0.586744,-0.221885,-1.56168,0.052,-0.127531,0.041889
0.00882628,0.123582,0.0727082,-0.618101,-0.0145972,-1.50124,0.0832669,-0.161675,-0.0180717
0.0143996,0.111047,0.0437016,-0.596015,0.235036,-1.39414,0.11838,-0.186071,-0.0734164
0.023852,0.0993835,0.017471,-0.521707,0.421969,-1.23302,0.144633,-0.199517,-0.103316
0.0348909,0.0891132,-0.0046907,-0.443741,0.446632,-0.996807,0.179808,-0.212839,-0.111554
0.0439947,0.0804663,-0.021654,-0.343375,0.294786,-0.735727,0.193466,-0.235722,-0.135319
0.0482266,0.0748799,-0.0337814,-0.148034,0.0457927,-0.513718,0.171211,-0.26157,-0.194559
0.048696,0.0738276,-0.0425742,0.0646389,-0.0529282,-0.382715,0.15188,-0.284409,-0.243668
0.0466131,0.075006,-0.0491905,0.0486106,-0.218302,-0.261957,0.170164,-0.289017,-0.217136
0.0397315,0.0748423,-0.053038,-0.0474855,-0.500355,-0.131769,0.138704,-0.273021,-0.263871
0.0275193,0.0733281,-0.0549923,-0.0845551,-0.69236,-0.0853622,0.0971004,-0.272929,-0.406965
0.015064,0.0738298,-0.0566871,0.193371,-0.507308,-0.0880444,0.0600204,-0.241774,-0.600173
0.00872092,0.0819572,-0.0583432,0.603703,-0.138389,-0.0499006,0.0585692,-0.150068,-0.618553
0.00894438,0.0954155,-0.058489,0.680794,0.134101,0.046861,0.0828933,-0.0853474,-0.421703
0.0133513,0.107754,-0.0566414,0.563596,0.316918,0.14539,0.0907762,-0.0637648,-0.223021
0.0206907,0.118932,-0.0533153,0.575624,0.441396,0.197548,0.0833082,-0.0303803,-0.103712
0.0289671,0.131343,-0.0487465,0.653279,0.417518,0.301032,0.115543,0.0187985,0.0304302
0.034105,0.144726,-0.0412173,0.653237,0.174656,0.500679,0.171489,0.0644785,0.164553
0.0321154,0.157376,-0.029158,0.559639,-0.205298,0.742151,0.217371,0.0962417,0.248638
0.0216175,0.167494,-0.0117415,0.406583,-0.529098,1.00587,0.253101,0.1159,0.253262
0.0216175,0.167494,-0.0117415,0.406583,-0.529098,1.00587,0.253101,0.1159,0.253262
0.00626195,0.174813,0.0108382,0.319145,-0.576122,1.2245,0.226011,0.159107,0.172331
-0.00863601,0.181234,0.0372134,0.336227,-0.447614,1.37214,0.207362,0.17887,0.0913429
-0.0218661,0.187746,0.0665983,0.356803,-0.344209,1.52159,0.230388,0.192443,0.079208
-0.0338873,0.193889,0.0994484,0.338778,-0.237045,1.69471,0.254285,0.203434,0.0892196
-0.0452011,0.199001,0.135936,0.321023,-0.190343,1.87608,0.259992,0.210095,0.0972443
-0.0571975,0.203623,0.175971,0.35247,-0.224966,2.02196,0.233872,0.213068,0.0900435
-0.0712958,0.208825,0.218549,0.445308,-0.316434,2.10654,0.193955,0.205022,0.0685786
-0.0877771,0.21557,0.262456,0.575929,-0.41382,2.12025,0.139591,0.197974,0.0458935
-0.106756,0.224233,0.306269,0.698786,-0.5347,2.05608,0.0970956,0.187538,0.0484703
-0.127344,0.234604,0.348573,0.805606,-0.53234,1.91683,0.0674756,0.165746,0.0428102
-0.146176,0.245862,0.387874,0.817829,-0.410607,1.71808,0.0512946,0.150085,0.0535475
-0.161302,0.256376,0.422939,0.728379,-0.221643,1.47762,0.0232742,0.145209,0.0763558
-0.171839,0.264966,0.452438,0.589648,-0.083952,1.19127,0.00575565,0.126974,0.0964105
-0.178537,0.271919,0.47536,0.479633,0.0209373,0.870442,-0.0027329,0.117656,0.0909818
-0.181673,0.277882,0.491281,0.378646,0.0914626,0.542841,0.00795743,0.114957,0.0818601
-0.181983,0.282873,0.500737,0.271747,0.140695,0.275656,0.0363668,0.12903,0.0719336
-0.179332,0.286254,0.504827,0.116042,0.254017,0.0545188,0.0530717,0.141187,0.056839
-0.172366,0.286408,0.503859,-0.129643,0.411937,-0.145461,0.0338509,0.14756,0.0506105
-0.161195,0.282129,0.497875,-0.383063,0.531562,-0.356292,-0.00664453,0.139638,0.0267488
-0.1466,0.274067,0.4867,-0.567334,0.623798,-0.581874,-0.0581833,0.117711,-0.0272929
-0.129117,0.26337,0.471153,-0.688145,0.724241,-0.740901,-0.0723516,0.0948694,-0.071892
-0.10999,0.25062,0.453294,-0.80563,0.687686,-0.829652,-0.0930322,0.0671882,-0.0795604
-0.0932624,0.234571,0.433371,-0.996057,0.522693,-0.940969,-0.146652,0.0487402,-0.087185
-0.0782945,0.214966,0.410914,-1.14345,0.501288,-1.09021,-0.197573,-0.0065645,-0.164269
-0.0624174,0.193243,0.385371,-1.18327,0.6014,-1.24516,-0.205355,-0.0565383,-0.240678
-0.0436961,0.17219,0.358542,-1.04004,0.774433,-1.2536,-0.164743,-0.0706794,-0.295865
-0.0244135,0.155089,0.333955,-0.745976,0.717993,-1.10233,-0.0882629,-0.0611537,-0.273008
-0.00867752,0.143783,0.313732,-0.420148,0.557417,-0.875238,-0.034213,-0.0614998,-0.211726
0.00312527,0.138511,0.298506,-0.111545,0.418457,-0.638995,-0.0131967,-0.0609516,-0.141082
0.0122886,0.138956,0.287681,0.158516,0.373383,-0.436304,-0.0213251,-0.0460002,-0.0683531
0.02054,0.143991,0.28098,0.338577,0.325276,-0.219848,-0.0268873,-0.0240778,0.0191818
0.0252358,0.151397,0.278273,0.385247,0.0795416,-0.04627,-0.0478174,-0.0133038,0.12289
0.0232841,0.158214,0.277772,0.281872,-0.295926,-0.0101489,-0.0975304,-0.0255965,0.178664
0.0143145,0.162522,0.27661,0.163626,-0.588721,-0.112172,-0.154567,-0.0357784,0.13818
0.00202496,0.165161,0.272548,0.118286,-0.677446,-0.295525,-0.188277,-0.0211505,0.0338752
-0.00897652,0.167905,0.264806,0.162201,-0.523962,-0.464257,-0.162689,-0.00251487,-0.0503423
-0.0144002,0.171948,0.254212,0.221609,-0.178893,-0.578527,-0.11211,0.0248922,-0.0569325
-0.0120481,0.176697,0.242049,0.226106,0.181807,-0.615873,-0.0641133,0.0494364,0.018309
-0.00460122,0.18124,0.229899,0.229114,0.303994,-0.581915,-0.0220397,0.0598122,0.116087
0.00360342,0.18641,0.218136,0.283332,0.294099,-0.585613,-0.00508214,0.0433498,0.188541
0.0110466,0.192053,0.206005,0.276775,0.212383,-0.598146,0.00594138,0.0175809,0.262713
0.0160377,0.196656,0.193949,0.184816,0.0378791,-0.574839,0.0249978,0.000658512,0.324899
0.0167393,0.198946,0.182801,0.0537005,-0.189935,-0.513835,0.0496317,-0.0284074,0.325628
0.0130246,0.1984,0.172824,-0.0884967,-0.343519,-0.470559,0.0683775,-0.0721255,0.264175
0.0079431,0.195428,0.163908,-0.191872,-0.33837,-0.40173,0.0676629,-0.090298,0.150535
0.00292182,0.191005,0.156722,-0.237014,-0.293706,-0.309281,0.0845794,-0.110539,0.0474226
-0.000303193,0.186689,0.151225,-0.177851,-0.105463,-0.238983,0.0854877,-0.138475,-0.0674858
0.000929721,0.184543,0.146898,-0.0355247,0.14325,-0.186202,0.0959183,-0.147939,-0.135114
0.00603635,0.184691,0.144265,0.0298083,0.302907,-0.0568816,0.153795,-0.136624,-0.115414
0.0125599,0.184823,0.145423,-0.0231626,0.350124,0.182046,0.196532,-0.104206,-0.0716742
0.0173681,0.184534,0.151703,0.0132137,0.223145,0.427354,0.194414,-0.0981128,-0.0950377
0.0180018,0.186976,0.162328,0.229013,0.0550355,0.616358,0.172727,-0.101191,-0.166209
0.0170355,0.193977,0.176068,0.418669,0.15867,0.729929,0.145379,-0.101183,-0.19332
0.0170355,0.193977,0.176068,0.418669,0.15867,0.729929,0.145379,-0.101183,-0.19332
0.0181676,0.201764,0.191253,0.266727,0.216162,0.784307,0.139032,-0.100353,-0.0830691
0.0180313,0.20453,0.208021,-0.0168304,0.0813743,0.846903,0.112793,-0.100253,-0.0461491
0.0141758,0.202586,0.224625,-0.173843,-0.128145,0.771027,0.0585785,-0.103118,-0.163173
0.00695855,0.199307,0.239463,-0.14313,-0.265918,0.703305,0.0712127,-0.0985336,-0.313017
-0.000453851,0.198186,0.253813,0.0334922,-0.149796,0.718564,0.0882593,-0.0214777,-0.404279
-0.00320563,0.199999,0.268981,0.118847,0.195763,0.776129,0.0873702,0.0412277,-0.361003
0.000383243,0.202103,0.285486,0.103856,0.467526,0.849218,0.101828,0.0605172,-0.236494
0.00731637,0.205568,0.303966,0.278415,0.591375,0.98723,0.143869,0.0890411,-0.153802
0.0152032,0.214281,0.326135,0.566736,0.651281,1.20809,0.158271,0.156112,-0.0235327
0.022263,0.227921,0.353027,0.717371,0.635693,1.44293,0.147733,0.187318,0.163045
0.0265456,0.242519,0.383927,0.637118,0.487351,1.59259,0.12786,0.179297,0.337093
0.0248455,0.253746,0.417326,0.390946,0.144116,1.67211,0.115082,0.163706,0.430357
0.0145315,0.259238,0.451945,0.0855323,-0.308762,1.68417,0.101189,0.144848,0.416694
-0.00508849,0.258271,0.486116,-0.189157,-0.759742,1.61595,0.0615908,0.14077,0.311379
-0.0311564,0.251889,0.517899,-0.394579,-1.00722,1.47435,0.0133684,0.158338,0.128618
-0.0581871,0.241716,0.546184,-0.470279,-0.952964,1.32148,0.0212769,0.157689,-0.070769
-0.0797406,0.231703,0.57143,-0.327335,-0.585281,1.22259,0.0733924,0.16152,-0.247269
-0.0918925,0.226004,0.596407,-0.0146595,-0.0536222,1.28536,0.124998,0.199564,-0.333986
-0.0946645,0.226471,0.624397,0.295901,0.342649,1.43619,0.135185,0.236396,-0.256811
-0.0943361,0.231394,0.655495,0.463763,0.346861,1.52405,0.124309,0.20431,-0.0608568
-0.0960355,0.238696,0.687448,0.547949,0.231863,1.49446,0.0691977,0.176454,0.0742408
-0.0996686,0.246708,0.717759,0.518848,0.138592,1.35151,0.0120487,0.155712,0.168873
-0.104209,0.253238,0.744308,0.379583,0.062217,1.13572,-0.00467443,0.109518,0.236429
-0.109002,0.256783,0.765364,0.191414,-0.0104817,0.856209,-0.000844344,0.0751677,0.252701
-0.113434,0.257,0.780421,-0.00765277,-0.0660251,0.599751,0.0296698,0.0557705,0.238956
-0.117636,0.253986,0.790239,-0.171436,-0.0842639,0.387117,0.0740793,0.0421122,0.181032
-0.120178,0.248692,0.795837,-0.287679,-0.0235226,0.214572,0.111364,0.0389064,0.104243
-0.119445,0.242,0.797726,-0.350066,0.164916,0.0538196,0.13664,0.0263723,0.0211179
-0.113301,0.234386,0.796241,-0.433724,0.418211,-0.111922,0.162595,0.0062018,-0.00998908
-0.100972,0.224882,0.791303,-0.560958,0.712299,-0.251283,0.18272,0.00160126,-0.0148247
-0.0828736,0.213375,0.78447,-0.645485,0.928824,-0.291776,0.232528,0.0101754,0.00251681
-0.0624374,0.200456,0.777836,-0.687138,0.977079,-0.241714,0.29093,0.0148055,0.0281457
-0.0425792,0.186955,0.773811,-0.679434,0.911891,-0.0634886,0.345688,0.00816402,0.0354714
-0.0259056,0.173938,0.774541,-0.615033,0.767144,0.184207,0.364638,0.0027286,0.0253671
-0.0133734,0.162358,0.780393,-0.542113,0.582204,0.409954,0.342787,-0.0109921,0.00430822
-0.00539193,0.151806,0.790429,-0.514574,0.371195,0.591143,0.309911,-0.0353609,-0.0169774
-0.00223959,0.141711,0.803826,-0.483634,0.152251,0.735033,0.271672,-0.0512829,-0.0767534
-0.00208349,0.13285,0.819804,-0.402632,0.130036,0.846628,0.211873,-0.057222,-0.184565
-0.00147471,0.124632,0.837669,-0.450056,0.140365,0.922204,0.163863,-0.0775031,-0.233649
-0.00173278,0.11389,0.856284,-0.618759,0.0548124,0.917545,0.0798771,-0.10001,-0.281459
-0.00283386,0.101216,0.874002,-0.61017,0.0477122,0.847072,0.0210536,-0.1306,-0.408412
-0.00151919,0.0913216,0.890453,-0.335967,0.268964,0.827721,0.019976,-0.130363,-0.515246
0.00532732,0.0889578,0.908576,0.101998,0.574521,1.00555,0.0626412,-0.0830192,-0.49437
0.0164937,0.0943024,0.930823,0.35794,0.695585,1.21193,0.0718829,-0.0583031,-0.28708
0.0268304,0.102288,0.956312,0.367987,0.565006,1.33112,0.0265052,-0.0877858,-0.0610506
0.0322777,0.109916,0.98268,0.318374,0.242487,1.30224,-0.0278964,-0.0986638,0.0603421
0.0314013,0.116882,1.00791,0.305936,-0.0208343,1.24143,-0.0475241,-0.0842051,0.0887569
0.0268766,0.124451,1.0328,0.404352,-0.104332,1.27534,-0.0461205,-0.0197913,0.0521341
0.0217947,0.135007,1.05897,0.589737,-0.0665779,1.35322,-0.0409275,0.0340873,0.0410802
0.0160242,0.148486,1.08653,0.6799,-0.147228,1.39847,-0.0586481,0.0619273,0.0997396
0.00681816,0.161677,1.11441,0.593134,-0.352058,1.36972,-0.0953675,0.084085,0.158155
-0.00611952,0.172533,1.14123,0.503175,-0.473541,1.26047,-0.153334,0.106661,0.115796
-0.0197237,0.18167,1.16448,0.445748,-0.467112,1.00698,-0.204037,0.113122,0.0570368
-0.0308029,0.189345,1.18223,0.353946,-0.286604,0.729926,-0.193523,0.113601,0.0416135
-0.0308029,0.189345,1.18223,0.353946,-0.286604,0.729926,-0.193523,0.113601,0.0416135
-0.0362648,0.194159,1.19502,0.161227,-0.020058,0.52781,-0.150078,0.13653,0.0721484
-0.0371389,0.19539,1.20475,0.0240533,0.0676241,0.436825,-0.0871266,0.143002,0.107523
-0.0385949,0.196015,1.21326,0.0996566,-0.0558389,0.403842,-0.0225631,0.138366,0.106387
-0.0419749,0.199009,1.22112,0.213129,-0.10457,0.349149,-0.00526765,0.137106,0.121566
-0.0445755,0.202497,1.22747,0.125907,-0.0236295,0.25519,0.00966891,0.111715,0.198443
-0.0446382,0.202658,1.2315,-0.101678,0.0917511,0.142069,0.044351,0.0801498,0.2637
-0.042508,0.198603,1.23322,-0.282769,0.145821,0.0472858,0.0760379,0.0617716,0.263317
-0.0394226,0.19179,1.23331,-0.394583,0.160264,-0.00703479,0.110498,0.0608097,0.227911
-0.0357459,0.183007,1.23275,-0.484287,0.207405,-0.0112759,0.12967,0.0472216,0.176917
-0.0307798,0.172951,1.23239,-0.510489,0.279195,0.0203314,0.138867,0.0289935,0.110957
-0.0247234,0.163306,1.23324,-0.439943,0.350716,0.0977621,0.134362,0.0201706,0.0521133
-0.017291,0.155786,1.23617,-0.301472,0.44334,0.209035,0.120444,-7.13021e-05,0.0146587
-0.00831268,0.151073,1.24145,-0.173648,0.529963,0.313485,0.0897151,-0.0284104,0.0233203
0.00150114,0.148048,1.24854,-0.139043,0.554443,0.387749,0.047084,-0.0620257,0.0597079
0.0113286,0.145449,1.25711,-0.132537,0.551068,0.455461,0.0210026,-0.0965031,0.0769171
0.0206981,0.142651,1.26644,-0.173267,0.524731,0.460545,-5.48642e-05,-0.131987,0.0856999
0.029664,0.138113,1.27566,-0.331718,0.492139,0.439073,-0.0168192,-0.168585,0.0813351
0.0373212,0.128961,1.28438,-0.61911,0.390402,0.395598,-0.0292054,-0.194699,0.0338827
0.0433047,0.115075,1.29195,-0.753447,0.298467,0.289549,-0.0519923,-0.244355,-0.143562
0.0479468,0.101213,1.29714,-0.620564,0.209337,0.176103,-0.0373224,-0.258624,-0.353261
0.0525133,0.0923586,1.30119,-0.25782,0.347141,0.199186,0.0387074,-0.239575,-0.511158
0.0624848,0.0913131,1.30603,0.0750881,0.665526,0.281962,0.0716203,-0.209809,-0.517203
0.0747452,0.0936049,1.31274,0.0587319,0.550669,0.406902,0.0820234,-0.217674,-0.341646
0.0806272,0.0936706,1.32189,-0.1258,0.0816705,0.454002,0.0233135,-0.266879,-0.28574
0.0777924,0.0905527,1.32966,-0.205894,-0.22487,0.301575,-0.0454436,-0.264979,-0.404509
0.0735496,0.0898127,1.33585,0.160157,-0.0939964,0.34504,-0.0338958,-0.127853,-0.569544
0.0739147,0.0992807,1.3435,0.699851,0.203043,0.489327,-0.0227025,0.000805296,-0.495434
0.0793324,0.116193,1.35289,0.847978,0.420689,0.555896,-0.05337,0.0251268,-0.198374
0.0880333,0.132634,1.36254,0.701521,0.557015,0.528901,-0.113377,0.0339787,0.0847602
0.0984596,0.146283,1.37107,0.60268,0.598694,0.423874,-0.150748,0.0452219,0.245164
0.109331,0.158264,1.3759,0.542935,0.546169,0.154852,-0.165749,0.0461391,0.339288
0.119378,0.168263,1.37469,0.460523,0.445784,-0.146864,-0.106869,0.0525863,0.395212
0.127411,0.17577,1.36925,0.343076,0.245148,-0.245912,0.0461714,0.125596,0.431338
0.129984,0.180963,1.36507,0.230966,-0.0701148,-0.0610534,0.183091,0.228607,0.421631
0.125132,0.185011,1.36642,0.139612,-0.397859,0.247219,0.248158,0.286466,0.364424
0.112794,0.186814,1.37418,-0.0687425,-0.673004,0.532458,0.270796,0.299469,0.298104
0.0953472,0.184694,1.38763,-0.274079,-0.80542,0.756667,0.267302,0.294959,0.178402
0.0757941,0.179666,1.40531,-0.354914,-0.82325,0.940337,0.211935,0.316732,0.0283046
0.0565172,0.174658,1.42659,-0.261946,-0.709126,1.11617,0.168799,0.297764,-0.11696
0.0404862,0.172628,1.45084,-0.0484318,-0.460991,1.26563,0.144285,0.27071,-0.204788
0.030106,0.17441,1.47772,0.114318,-0.126691,1.39381,0.0981781,0.249958,-0.175163
0.0247435,0.178172,1.50676,0.169602,0.0688401,1.4658,0.0562781,0.190308,-0.0580478
0.0217061,0.182244,1.53597,0.160648,0.116388,1.41635,-0.0133494,0.120766,0.0618364
0.0186054,0.185752,1.5634,0.126676,0.0640134,1.28823,-0.0661206,0.0674831,0.136268
0.0145715,0.188072,1.58773,0.0651195,-0.0293515,1.11056,-0.0901349,0.0247343,0.181801
0.00911165,0.188918,1.60856,0.00201646,-0.131385,0.948921,-0.0791246,-0.0110714,0.178411
0.00246108,0.188749,1.6264,-0.0239596,-0.187582,0.808272,-0.061652,-0.0311811,0.145002
-0.00406408,0.188216,1.64147,-0.0168873,-0.168022,0.681241,-0.0542657,-0.0523496,0.0991681
-0.00948295,0.188188,1.65406,0.0166045,-0.157682,0.552393,-0.0571214,-0.0703826,0.069169
-0.0149459,0.188126,1.66348,-0.0305008,-0.220648,0.377441,-0.0700657,-0.0962608,0.0592272
-0.0214801,0.186161,1.66934,-0.153433,-0.322173,0.203565,-0.0692246,-0.123552,0.0123873
-0.0286466,0.182233,1.67147,-0.229468,-0.345388,0.0152154,-0.0817254,-0.125521,-0.107019
-0.0346612,0.177422,1.66999,-0.247199,-0.264265,-0.129859,-0.0663078,-0.114737,-0.232186
-0.0371375,0.173308,1.66639,-0.167271,-0.0237751,-0.204933,-0.0247218,-0.118498,-0.333485
-0.0371375,0.173308,1.66639,-0.167271,-0.0237751,-0.204933,-0.0247218,-0.118498,-0.333485
-0.0342551,0.170737,1.66152,-0.136754,0.19037,-0.262668,-0.0403768,-0.115552,-0.343808
-0.029733,0.167348,1.6554,-0.23196,0.117736,-0.340892,-0.0673206,-0.0929226,-0.28116
-0.0282612,0.16179,1.64709,-0.345258,-0.115244,-0.464063,-0.0621536,-0.0985433,-0.265559
-0.0303734,0.15475,1.63678,-0.365216,-0.220884,-0.50801,-0.023934,-0.0622366,-0.338089
-0.0327537,0.148726,1.62747,-0.261356,-0.148633,-0.368116,0.0155559,0.0141906,-0.412418
-0.0337092,0.145153,1.62206,-0.113381,-0.0151063,-0.1586,0.0074542,0.0764523,-0.421921
-0.0315836,0.144575,1.6207,0.0682835,0.219344,0.0169082,-0.048463,0.116087,-0.382463
-0.0251286,0.149196,1.62296,0.423966,0.450585,0.185187,-0.0858709,0.128745,-0.298531
-0.0160266,0.161426,1.62817,0.791533,0.509565,0.293141,-0.154608,0.161779,-0.105871
-0.0083581,0.179484,1.63469,0.996582,0.33293,0.313258,-0.221162,0.172342,0.124115
-0.00616035,0.199815,1.64025,1.01373,-0.0329835,0.194839,-0.27477,0.16736,0.319806
-0.0112147,0.218541,1.64181,0.836489,-0.427451,-0.0699643,-0.314507,0.156533,0.434238
-0.021071,0.23197,1.63733,0.488272,-0.627593,-0.38581,-0.306064,0.146246,0.481071
-0.031017,0.238698,1.6267,0.173916,-0.585097,-0.662038,-0.251758,0.156925,0.442844
-0.0369352,0.240678,1.61073,-0.0129816,-0.370339,-0.885053,-0.178325,0.168217,0.372873
-0.0373261,0.239915,1.59116,-0.127744,-0.156381,-0.999218,-0.0952669,0.179042,0.33732
-0.0347445,0.237353,1.57026,-0.194103,-0.0979116,-1.02104,-0.0275614,0.17553,0.328891
-0.0316552,0.233905,1.54916,-0.221216,-0.0990857,-1.02777,0.0164753,0.155179,0.316611
-0.0292111,0.22953,1.52783,-0.295021,-0.156011,-1.03577,0.0433183,0.125759,0.316482
-0.0282836,0.22296,1.50637,-0.431178,-0.226112,-1.04087,0.0717845,0.093294,0.29491
-0.0281911,0.213588,1.4849,-0.566288,-0.208318,-1.02906,0.108998,0.0584647,0.229314
-0.0266464,0.201949,1.46411,-0.647807,-0.0535192,-0.967678,0.141504,0.0301996,0.128042
-0.0221538,0.189319,1.44518,-0.657506,0.130206,-0.862106,0.156491,0.00195701,0.0428504
-0.014909,0.176647,1.4286,-0.632262,0.28585,-0.750199,0.155897,-0.0336663,-0.0219424
-0.00512781,0.164995,1.41452,-0.546126,0.448849,-0.628592,0.144066,-0.078886,-0.0838605
0.00644956,0.155114,1.4035,-0.439079,0.520257,-0.452152,0.15441,-0.116076,-0.107379
0.018077,0.147494,1.39645,-0.327163,0.525367,-0.261433,0.14365,-0.136808,-0.109026
0.028212,0.141421,1.39303,-0.285334,0.437209,-0.100644,0.124127,-0.183071,-0.0949262
0.0361375,0.136025,1.39247,-0.242325,0.329247,0.0114092,0.0964062,-0.216963,-0.12936
0.041051,0.131939,1.39372,-0.174818,0.178771,0.106732,0.0837374,-0.233022,-0.172338
0.0426764,0.128946,1.39705,-0.136583,0.039043,0.210011,0.0731082,-0.229062,-0.216557
0.042318,0.127127,1.4023,-0.061658,0.0141092,0.29036,0.049131,-0.223817,-0.292741
0.0433556,0.127158,1.40856,0.0389522,0.21005,0.325321,0.0160289,-0.220276,-0.363269
0.049699,0.12956,1.41498,0.163139,0.466097,0.323723,0.00539484,-0.226255,-0.368706
0.0575034,0.133545,1.42177,0.191519,0.382207,0.387009,0.0478527,-0.222778,-0.277678
0.0616877,0.138349,1.43033,0.249702,0.137479,0.469965,0.0232911,-0.186036,-0.248835
0.0611056,0.144999,1.43958,0.365756,-0.0543808,0.475998,-0.0107898,-0.1867,-0.271908
0.0580379,0.1545,1.44822,0.544902,-0.0727637,0.428311,-0.0469384,-0.157958,-0.294733
0.0572551,0.168179,1.45546,0.779974,0.141016,0.366734,-0.0506791,-0.108018,-0.2799
0.0623212,0.185415,1.46118,0.867784,0.461505,0.305478,-0.0478314,-0.0481279,-0.143728
0.0724753,0.202036,1.46589,0.750854,0.62137,0.276189,-0.0389413,-0.00357491,0.0417856
0.0834751,0.216213,1.47061,0.647764,0.533167,0.300241,-0.0216224,0.0377444,0.158603
0.090368,0.22978,1.47599,0.6751,0.258894,0.348358,-0.000943795,0.07571,0.207872
0.0904665,0.244219,1.48269,0.695471,-0.0808237,0.437368,0.0259089,0.119866,0.236576
0.0841735,0.25847,1.49141,0.640741,-0.318329,0.533806,0.0391868,0.158693,0.23463
0.0733439,0.270674,1.50224,0.484617,-0.471811,0.605685,0.0352553,0.188982,0.204042
0.059671,0.279278,1.51434,0.295834,-0.561401,0.600035,0.0273613,0.202496,0.147029
0.0445751,0.283832,1.52562,0.0932163,-0.633585,0.504297,0.0193411,0.213951,0.0634211
0.0292088,0.283698,1.53509,-0.142862,-0.618786,0.414707,0.0338219,0.232804,-0.0258867
0.0158477,0.279486,1.54338,-0.268774,-0.478745,0.380089,0.0671958,0.251891,-0.131025
0.00615144,0.274582,1.55172,-0.200148,-0.262695,0.43931,0.111068,0.269665,-0.198506
0.000299429,0.27255,1.56241,0.00197399,-0.0434382,0.600881,0.115587,0.297417,-0.175539
-0.00289705,0.274408,1.57664,0.172477,0.0845764,0.762034,0.0728265,0.294125,-0.0657995
-0.00539402,0.278577,1.59309,0.240279,0.108284,0.804319,0.0159893,0.242182,0.072182
-0.00539402,0.278577,1.59309,0.240279,0.108284,0.804319,0.0159893,0.242182,0.072182
-0.00745644,0.283166,1.60916,0.215084,0.131743,0.724827,-0.052594,0.198358,0.183568
-0.00887052,0.286342,1.62283,0.102,0.102483,0.582239,-0.0943197,0.166722,0.280596
-0.0101653,0.286735,1.63315,-0.0612527,0.0530098,0.405487,-0.109635,0.134232,0.338426
-0.0119261,0.283819,1.63961,-0.218029,-0.0496449,0.221465,-0.109203,0.103251,0.358057
-0.0148643,0.278505,1.64212,-0.301323,-0.171872,0.0269926,-0.10781,0.0903633,0.326062
-0.0185622,0.271997,1.64063,-0.35291,-0.227297,-0.157907,-0.0945632,0.078745,0.280026
-0.0220143,0.264386,1.63559,-0.426186,-0.257539,-0.307841,-0.0616228,0.065882,0.241783
-0.0256696,0.255334,1.62798,-0.493188,-0.315336,-0.402596,-0.0301122,0.0596826,0.187597
-0.0302473,0.245579,1.61844,-0.500838,-0.366321,-0.503709,-0.0203626,0.0451657,0.0893193
-0.0347207,0.236015,1.60635,-0.510461,-0.381503,-0.649688,-0.0355693,0.0325357,-0.00758696
-0.0395573,0.225283,1.59101,-0.63025,-0.459496,-0.800847,-0.049526,0.0264981,-0.0950318
-0.0447941,0.21246,1.57269,-0.706871,-0.430845,-0.944483,-0.0467886,0.011357,-0.239759
-0.0470725,0.199495,1.55108,-0.692441,-0.238465,-1.11176,-0.0464989,-0.0152507,-0.376708
-0.0446422,0.186545,1.52657,-0.722392,0.0220641,-1.2314,-0.0612341,0.00564012,-0.439578
-0.0368797,0.172494,1.49982,-0.803637,0.250051,-1.35203,-0.05915,0.0100337,-0.432228
-0.0261561,0.156457,1.47101,-0.87619,0.347095,-1.42485,-0.0189356,-0.00473353,-0.405481
-0.0145724,0.140464,1.44248,-0.746091,0.374547,-1.34737,0.0248044,-0.00431553,-0.423437
-0.00429725,0.128475,1.41685,-0.473366,0.293797,-1.18328,0.0396927,0.0034422,-0.404674
0.00310379,0.121392,1.39447,-0.259025,0.170114,-1.05113,0.0158095,-0.0105589,-0.32998
0.00813279,0.117499,1.37438,-0.118458,0.116235,-0.948406,-0.0176591,-0.0169717,-0.258423
0.0133181,0.116944,1.35625,0.0950137,0.200534,-0.854704,-0.0573704,-0.00188293,-0.212454
0.0201941,0.121257,1.33981,0.36592,0.283599,-0.775551,-0.119944,0.0304597,-0.12519
0.0277834,0.130727,1.3246,0.619209,0.267589,-0.720721,-0.178483,0.0596309,-0.000706017
0.0344885,0.144609,1.30952,0.800132,0.174319,-0.750483,-0.25072,0.0852984,0.124151
0.0376378,0.160922,1.29285,0.882862,-0.111341,-0.861762,-0.298923,0.109493,0.232292
0.0359236,0.177647,1.27282,0.838819,-0.423393,-1.07079,-0.358929,0.144457,0.295959
0.0289216,0.191532,1.24801,0.613188,-0.711673,-1.3385,-0.414482,0.191355,0.327388
0.0198529,0.200002,1.21726,0.301214,-0.764522,-1.67823,-0.450303,0.235231,0.290084
0.0134726,0.202196,1.17924,-0.0180879,-0.614786,-2.05796,-0.467528,0.285339,0.210054
0.0118952,0.198471,1.13412,-0.284531,-0.467934,-2.35525,-0.406223,0.321835,0.128615
0.0123534,0.191044,1.08522,-0.370417,-0.442597,-2.43515,-0.305997,0.378818,0.0316127
0.0125507,0.183018,1.03625,-0.373163,-0.462142,-2.38827,-0.227078,0.415198,-0.0333343
0.0113036,0.174738,0.989007,-0.399258,-0.502195,-2.27954,-0.158302,0.390235,-0.0563827
0.00904125,0.166222,0.944055,-0.405742,-0.4716,-2.17886,-0.110769,0.33959,-0.0805958
0.00784023,0.157828,0.900932,-0.400422,-0.323692,-2.09527,-0.0708683,0.286065,-0.0843283
0.00999611,0.149482,0.859593,-0.404978,-0.0867764,-2.01402,-0.0378386,0.231797,-0.0616619
0.0156588,0.140663,0.82003,-0.429827,0.0638819,-1.92227,-0.0111547,0.176943,-0.00966245
0.0223031,0.131359,0.782592,-0.417065,0.0804793,-1.81035,0.0210427,0.120148,0.0311468
0.0275019,0.122879,0.747775,-0.332399,-0.0180229,-1.67556,0.0435555,0.080013,0.0497018
0.0295347,0.116762,0.715643,-0.18259,-0.158493,-1.53993,0.0535717,0.0472834,0.0503445
0.0289935,0.113597,0.686167,-0.0568864,-0.214791,-1.40843,0.0574249,0.0235549,0.0479163
0.0278757,0.112305,0.659296,-0.00508112,-0.193417,-1.27175,0.0507031,0.00713392,0.0445535
0.0272357,0.112027,0.635186,0.0514154,-0.138157,-1.13381,0.0217818,0.00330312,-0.00120491
0.0271334,0.11357,0.61344,0.178901,-0.111496,-1.03513,-0.0225455,0.00547685,-0.0700403
0.0278738,0.118645,0.593278,0.387177,-0.0470358,-0.969589,-0.0770211,0.0107926,-0.122711
0.0288336,0.127446,0.573839,0.519649,-0.130748,-0.944587,-0.118531,0.00849503,-0.0760427
0.0250392,0.135842,0.554233,0.322345,-0.554953,-1.00008,-0.176372,0.0138886,0.0265183
0.0117704,0.138168,0.531688,-0.0367498,-1.02942,-1.28691,-0.284943,-0.0126925,-0.0198983
-0.00588861,0.135224,0.501062,-0.211974,-1.07829,-1.76405,-0.321253,-0.0397633,-0.219015
-0.0181478,0.132253,0.461889,-0.0777023,-0.574146,-2.08416,-0.238832,0.0137954,-0.398712
-0.0154728,0.135212,0.419269,0.313447,0.271005,-2.11703,-0.113423,0.107884,-0.412139
0.00332392,0.145195,0.377972,0.620675,0.965246,-1.981,-0.0382926,0.187273,-0.185149
0.030067,0.15826,0.339338,0.737666,1.06817,-1.83435,-0.0184106,0.175178,0.124844
0.0547135,0.172337,0.302805,0.82567,0.727368,-1.72375,-0.0360997,0.15676,0.323114
0.0547135,0.172337,0.302805,0.82567,0.727368,-1.72375,-0.0360997,0.15676,0.323114
0.0697122,0.187398,0.267638,0.892916,0.145837,-1.64859,-0.0287786,0.141275,0.406345
0.0735503,0.202447,0.23376,0.831121,-0.405664,-1.58465,-0.017952,0.129534,0.420807
0.067612,0.214533,0.200588,0.569381,-0.878507,-1.5852,-0.0247368,0.103348,0.395147
0.0530242,0.219664,0.166965,0.129216,-1.28834,-1.6939,-0.0868058,0.1155,0.295446
0.0317386,0.215172,0.129513,-0.455887,-1.67224,-2.02945,-0.216899,0.142958,0.106453
0.00540586,0.198578,0.0834279,-1.09569,-1.85197,-2.52734,-0.251348,0.118678,-0.160596
-0.0186074,0.174645,0.0278916,-1.24212,-1.47357,-2.88906,-0.173449,0.170875,-0.594362
-0.0291085,0.154426,-0.0313498,-0.896087,-0.519286,-2.83007,-0.0544023,0.322209,-0.864781
-0.0214254,0.142422,-0.0839219,-0.436875,0.497238,-2.30472,0.0851259,0.3922,-0.816764
0.000614287,0.139553,-0.124696,0.116038,1.05363,-1.78507,0.13373,0.321885,-0.580706
0.0279013,0.147029,-0.157565,0.654984,1.13804,-1.49023,0.0645206,0.214905,-0.253331
0.0528223,0.162259,-0.186421,0.944117,0.884258,-1.33333,-0.0302689,0.175372,0.0650478
0.0710819,0.179749,-0.214277,0.933161,0.445266,-1.32671,-0.100762,0.114818,0.323369
0.0799483,0.194033,-0.243474,0.693977,-0.101034,-1.44742,-0.1506,0.066277,0.483578
0.0795892,0.202303,-0.275608,0.391034,-0.543557,-1.64825,-0.197238,0.039488,0.515385
0.0737463,0.20453,-0.311898,0.108795,-0.734712,-1.89678,-0.225601,0.0394869,0.467996
0.0673125,0.20122,-0.35279,-0.154507,-0.704031,-2.12432,-0.21068,0.070409,0.399296
0.0629832,0.193217,-0.397033,-0.347412,-0.605833,-2.25503,-0.147815,0.0888368,0.318771
0.0600855,0.182671,-0.442529,-0.410368,-0.538516,-2.27422,-0.0858295,0.113602,0.22965
0.0576882,0.171957,-0.487779,-0.39654,-0.515216,-2.24494,-0.046964,0.128173,0.169389
0.053822,0.161705,-0.531853,-0.386157,-0.616445,-2.15927,0.0139376,0.122824,0.144003
0.0469381,0.151797,-0.574036,-0.400395,-0.732851,-2.06743,0.0717827,0.100631,0.114198
0.0379417,0.141203,-0.61454,-0.514885,-0.726051,-2.00191,0.105725,0.073733,0.0787972
0.030474,0.127382,-0.654023,-0.742305,-0.551633,-1.96773,0.128652,0.0355618,0.0189337
0.0258286,0.109732,-0.692596,-0.890638,-0.392517,-1.92004,0.15092,0.00329515,-0.0840743
0.0222707,0.0913886,-0.729891,-0.819456,-0.34999,-1.83994,0.18693,-0.026628,-0.211955
0.018167,0.0770133,-0.764927,-0.514258,-0.358084,-1.68197,0.22406,-0.0403724,-0.335953
0.0134735,0.0706334,-0.796405,-0.077469,-0.336392,-1.47444,0.2401,-0.0459414,-0.403554
0.00948624,0.0722769,-0.824056,0.239087,-0.213632,-1.3097,0.223754,-0.0621092,-0.361878
0.0104492,0.0772909,-0.849987,0.21364,0.110253,-1.30413,0.181675,-0.12852,-0.24715
0.0153867,0.0781745,-0.876671,-0.0897812,0.0919332,-1.38251,0.118526,-0.15921,-0.157103
0.0144459,0.0743582,-0.906112,-0.207964,-0.45529,-1.58909,0.0407702,-0.151022,-0.203307
0.00401831,0.0703689,-0.940543,-0.14965,-0.760376,-1.84386,0.00345317,-0.119615,-0.359722
-0.00806619,0.0685263,-0.978342,-0.0285378,-0.679487,-1.91177,0.0225735,-0.0287411,-0.476089
-0.0163603,0.0709889,-1.01582,0.253832,-0.372969,-1.82235,0.0539771,0.043433,-0.522748
-0.0165787,0.0797231,-1.05048,0.55246,0.0942569,-1.65249,0.0422974,0.0978119,-0.453661
-0.0078042,0.0937542,-1.08182,0.806603,0.49368,-1.51462,-0.00104975,0.113621,-0.258725
0.00774944,0.111965,-1.11156,1.01281,0.738924,-1.46141,-0.0779828,0.135458,-0.0215196
0.0267269,0.133168,-1.14096,1.15497,0.764673,-1.44032,-0.153028,0.166589,0.199731
0.0446273,0.155671,-1.17124,1.1789,0.556012,-1.49182,-0.212027,0.186277,0.382325
0.0579746,0.17584,-1.2034,0.972278,0.237445,-1.57556,-0.25526,0.20382,0.51587
0.0657281,0.189639,-1.2372,0.597253,-0.0554824,-1.677,-0.276387,0.212736,0.561037
0.069374,0.195128,-1.27334,0.196556,-0.279747,-1.85052,-0.313914,0.21057,0.522227
0.0685005,0.192701,-1.31336,-0.168556,-0.585468,-2.1078,-0.323085,0.192487,0.432176
0.0628154,0.182778,-1.35825,-0.535971,-0.79427,-2.35475,-0.289817,0.188125,0.313114
0.0552597,0.165784,-1.40651,-0.87425,-0.768,-2.48494,-0.214325,0.192476,0.152249
0.0495353,0.143374,-1.45584,-1.08507,-0.536461,-2.49745,-0.126262,0.197449,-0.0248412
0.0493307,0.119494,-1.50363,-1.03004,-0.0938022,-2.32881,-0.00916417,0.181161,-0.203163
0.0567455,0.0997293,-1.54586,-0.684042,0.371237,-1.95781,0.0997405,0.147767,-0.293573
0.0706431,0.0886647,-1.58025,-0.225648,0.646384,-1.55463,0.126501,0.0989551,-0.235706
0.0855136,0.0843685,-1.60816,-0.0361673,0.560065,-1.27558,0.0947345,0.00426666,-0.0260578
0.0961522,0.0818034,-1.63161,-0.0231596,0.291167,-1.10046,0.0470629,-0.0819384,0.113589
0.0998939,0.0793604,-1.65252,-0.00906769,-0.0947188,-1.00754,0.0178498,-0.138939,0.146653
0.096153,0.0780488,-1.67186,0.0752156,-0.380304,-0.933379,0.0007229,-0.173999,0.100001
0.096153,0.0780488,-1.67186,0.0752156,-0.380304,-0.933379,0.0007229,-0.173999,0.100001
0.0900982,0.0784919,-1.69011,0.120299,-0.321898,-0.882037,-0.0401999,-0.161594,0.0346103
0.087378,0.0789216,-1.70763,0.0658704,-0.072488,-0.869555,-0.0737201,-0.171099,0.0183527
0.0903094,0.0782775,-1.72565,0.0341131,0.21907,-0.937683,-0.0906582,-0.193943,0.0128795
0.09822,0.0772832,-1.74512,0.0487552,0.38475,-0.996833,-0.0670535,-0.192294,0.0395884
0.106982,0.0762101,-1.76463,0.0303043,0.312424,-0.939427,0.0166553,-0.180501,0.100177
0.112479,0.0740028,-1.78182,-0.0728053,0.107431,-0.780397,0.099323,-0.172296,0.128443
0.113567,0.0694873,-1.79518,-0.23517,-0.0893808,-0.610685,0.123583,-0.167843,0.0873976
0.111849,0.0615422,-1.80548,-0.43514,-0.112084,-0.520854,0.10379,-0.182332,-0.0133331
0.110044,0.0497238,-1.81466,-0.655975,-0.157029,-0.536954,0.0781341,-0.189387,-0.121916
0.10487,0.0330343,-1.82378,-0.901781,-0.410071,-0.539284,0.0740444,-0.182716,-0.256982
0.0942458,0.0135542,-1.83179,-0.90185,-0.622843,-0.440496,0.117801,-0.168255,-0.477948
0.0836636,-0.000970346,-1.83731,-0.44559,-0.367658,-0.218054,0.165015,-0.128488,-0.701985
0.0815913,-0.00338906,-1.83756,0.206578,0.198381,0.190693,0.188397,-0.0868852,-0.717306
0.0916561,0.00675091,-1.83088,0.689736,0.760948,0.529998,0.130505,-0.0851071,-0.493737
0.109313,0.0234919,-1.82009,0.839696,0.993163,0.706563,0.0490771,-0.127603,-0.149874
0.128513,0.0420984,-1.80698,0.843179,0.92299,0.806429,-0.0407354,-0.129255,0.0966182
0.142773,0.0607176,-1.79287,0.813122,0.536909,0.835373,-0.108503,-0.131901,0.25326
0.147335,0.0787803,-1.77904,0.776021,0.0155112,0.782673,-0.162597,-0.124258,0.319914
0.142538,0.0959698,-1.76661,0.75435,-0.337263,0.695987,-0.19168,-0.0833614,0.289732
0.133301,0.112331,-1.75559,0.712346,-0.46289,0.629333,-0.180988,-0.0235102,0.233631
0.121478,0.12707,-1.74489,0.609501,-0.612246,0.624775,-0.129586,0.0303237,0.196587
0.105613,0.13953,-1.73379,0.518278,-0.822609,0.60272,-0.0974955,0.0501186,0.122673
0.0857287,0.150405,-1.72383,0.465767,-1.01889,0.463104,-0.108644,0.0467048,0.0114619
0.0628526,0.15863,-1.71735,0.288034,-1.16813,0.238629,-0.0903582,0.0466373,-0.0775087
0.0391833,0.162884,-1.71449,0.148363,-1.11769,0.0806867,-0.0192914,0.0613346,-0.22577
0.0200947,0.166584,-1.7137,0.258088,-0.720293,0.0227061,0.0331328,0.127912,-0.397572
0.0119011,0.173943,-1.71299,0.466113,-0.0803452,0.0711915,0.0755438,0.187228,-0.43383
0.0149153,0.183838,-1.71112,0.491724,0.350339,0.107543,0.0841525,0.192051,-0.254829
0.0233481,0.193253,-1.70922,0.46175,0.499058,0.0990118,0.0543744,0.168493,-0.0398789
0.0326254,0.202821,-1.70774,0.501023,0.452008,0.0726868,0.0352182,0.184435,0.106285
0.040347,0.213302,-1.70696,0.541943,0.306382,0.0425037,0.0167609,0.181842,0.234019
0.0444542,0.224065,-1.70711,0.530058,0.134581,-0.0144209,0.00127272,0.186199,0.324015
0.0466479,0.233833,-1.70798,0.427083,0.0860067,-0.0332905,-0.00161499,0.198871,0.377962
0.0485412,0.240045,-1.70946,0.187039,0.0751672,-0.0806018,-0.00796159,0.189453,0.427977
0.0503004,0.241134,-1.71162,-0.0683429,0.0317477,-0.129866,-0.00974674,0.176182,0.435202
0.0504202,0.237959,-1.71481,-0.222669,-0.0839732,-0.198861,6.31139e-05,0.151171,0.392934
0.0490987,0.232427,-1.71909,-0.303028,-0.149514,-0.231173,0.0213326,0.134729,0.329283
0.0465613,0.225857,-1.72325,-0.330664,-0.193206,-0.202189,0.0572987,0.114597,0.259664
0.0432774,0.218826,-1.72681,-0.374902,-0.207703,-0.181053,0.0840343,0.0806857,0.201328
0.0403473,0.209815,-1.72998,-0.529857,-0.132549,-0.166664,0.0703657,0.0546532,0.153329
0.0394446,0.197226,-1.73273,-0.721513,-0.0341731,-0.15318,0.0561024,0.0395468,0.0830007
0.0396392,0.180954,-1.73516,-0.887108,0.00648854,-0.150282,0.0378157,0.00382106,-0.0271101
0.0401204,0.162368,-1.73745,-0.938226,-0.00836069,-0.151333,0.0175621,-0.0323751,-0.177369
0.0401227,0.144456,-1.7399,-0.830399,-0.0228133,-0.165484,-0.00574337,-0.0585449,-0.314069
0.0405593,0.129357,-1.7429,-0.671024,0.0441027,-0.192236,-0.0336329,-0.100877,-0.386459
0.0434224,0.11754,-1.74687,-0.502383,0.204965,-0.264289,-0.0577882,-0.142893,-0.408211
0.0497452,0.108514,-1.75285,-0.38971,0.354768,-0.369973,-0.0801634,-0.173345,-0.368196
0.0586621,0.101094,-1.76039,-0.331207,0.435746,-0.41963,-0.0531716,-0.172729,-0.310879
0.0663671,0.0933082,-1.76894,-0.410574,0.198586,-0.474513,-0.0718283,-0.155042,-0.232906
0.0674874,0.083673,-1.77842,-0.480515,-0.181069,-0.560043,-0.0994879,-0.132214,-0.248153
0.0614656,0.0729012,-1.79093,-0.507286,-0.488284,-0.763339,-0.119537,-0.142602,-0.318413
0.0524486,0.0626428,-1.80746,-0.402259,-0.464619,-0.923106,-0.116668,-0.0988362,-0.404075
0.047197,0.0558872,-1.82548,-0.162193,-0.127249,-0.88566,-0.0406209,-0.0381055,-0.431704
0.047197,0.0558872,-1.82548,-0.162193,-0.127249,-0.88566,-0.0406209,-0.0381055,-0.431704
0.0502256,0.0558926,-1.84165,0.256515,0.323692,-0.727442,-0.00375467,-0.00521743,-0.370893
0.059648,0.0644512,-1.85503,0.658524,0.485329,-0.555655,-0.0227152,0.0238335,-0.171423
0.0690635,0.0803292,-1.86543,0.986594,0.352767,-0.390634,-0.0625147,0.0462157,0.0396872
0.0742792,0.10183,-1.87394,1.20231,0.0879996,-0.317233,-0.133031,0.0805516,0.210933
0.0744898,0.125748,-1.88226,1.21504,-0.159076,-0.355437,-0.185772,0.0895892,0.34914
0.0710682,0.147335,-1.89257,0.97754,-0.314207,-0.529236,-0.239276,0.0914587,0.45223
0.0659872,0.161866,-1.9073,0.558218,-0.41416,-0.840982,-0.274855,0.0711031,0.498345
0.0598306,0.167186,-1.92839,0.117604,-0.566302,-1.21871,-0.269075,0.0607415,0.458032
0.0519169,0.164839,-1.95672,-0.172428,-0.665157,-1.58179,-0.229581,0.0799714,0.326409
0.043697,0.158259,-1.99113,-0.317302,-0.708,-1.83782,-0.126176,0.105658,0.183185
0.0362452,0.149559,-2.02972,-0.400098,-0.597966,-2.00422,-0.0457204,0.14949,0.0721261
0.0322306,0.140102,-2.07018,-0.388865,-0.386547,-2.00526,0.0644499,0.173412,-0.00762695
0.0320298,0.132947,-2.10876,-0.178247,-0.139486,-1.82714,0.17297,0.190509,-0.0521947
0.0367332,0.130946,-2.14252,0.0652215,0.152491,-1.52474,0.222318,0.206011,-0.00871116
0.0445893,0.13185,-2.17048,0.101203,0.234798,-1.2711,0.215288,0.169325,0.142465
0.0515995,0.131729,-2.19476,-0.00523077,0.130202,-1.16136,0.189745,0.0887004,0.25909
0.0557596,0.129103,-2.21726,-0.133207,-0.00701414,-1.08154,0.184983,0.0365973,0.269189
0.0573798,0.124536,-2.23732,-0.205343,-0.0614208,-0.926062,0.209774,0.0181814,0.214499
0.05883,0.11903,-2.25373,-0.248374,0.0179584,-0.734121,0.237289,-0.00646456,0.137111
0.0617301,0.112832,-2.26632,-0.296825,0.133285,-0.556074,0.245373,-0.0480369,0.0598639
0.0663097,0.105798,-2.27499,-0.360203,0.214767,-0.352051,0.257672,-0.101248,-0.0170084
0.0708723,0.09756,-2.27971,-0.424874,0.195754,-0.178592,0.242451,-0.151786,-0.103338
0.0739151,0.0887953,-2.28142,-0.431797,0.07613,-0.0628317,0.241949,-0.209158,-0.202521
0.0739224,0.0810333,-2.28102,-0.331657,-0.0674739,0.0552262,0.252925,-0.234943,-0.318915
0.071683,0.0763354,-2.2779,-0.145258,-0.0991079,0.215375,0.275434,-0.231936,-0.416453
0.0716803,0.0761001,-2.27199,0.0680357,0.189567,0.369401,0.270767,-0.233864,-0.461998
0.0798344,0.0795915,-2.26369,0.196471,0.706238,0.476074,0.240876,-0.24111,-0.42109
0.0984758,0.0848791,-2.2541,0.218585,1.17469,0.50756,0.243895,-0.287385,-0.283391
0.121299,0.089376,-2.24425,0.111585,1.14605,0.540925,0.260448,-0.287635,-0.105762
0.139121,0.092053,-2.23236,0.0184599,0.693634,0.685941,0.29325,-0.245067,-0.0247495
0.145096,0.0955072,-2.21646,0.130453,0.0651587,0.953983,0.354408,-0.188406,-0.0590543
0.140464,0.10401,-2.1948,0.416228,-0.254205,1.31634,0.37792,-0.081968,-0.160555
0.131825,0.119232,-2.1663,0.704925,-0.243235,1.70172,0.351469,0.0040812,-0.178068
0.124908,0.139628,-2.13142,0.838592,0.0200265,1.97232,0.261913,0.0757443,-0.110068
0.121721,0.160551,-2.09267,0.757057,0.220036,2.07596,0.183089,0.0725666,0.0171129
0.119497,0.179381,-2.05254,0.641701,0.194247,2.09057,0.146158,0.0787958,0.104791
0.113591,0.195886,-2.0113,0.531508,-0.0388914,2.1444,0.152966,0.0984136,0.139105
0.10115,0.210124,-1.96813,0.434265,-0.340201,2.22402,0.146193,0.137186,0.125075
0.0814838,0.221848,-1.92357,0.330797,-0.666708,2.20576,0.0882036,0.154801,0.0663568
0.0570731,0.230785,-1.88057,0.282953,-0.76165,2.0296,0.0138214,0.131757,-0.0486364
0.0333404,0.238665,-1.84205,0.361124,-0.684382,1.75636,-0.0121867,0.108415,-0.131119
0.0155214,0.24844,-1.80882,0.541468,-0.254795,1.52709,0.0107279,0.128873,-0.173733
0.0074288,0.260918,-1.77842,0.663159,0.187947,1.46243,0.0547886,0.169146,-0.0954423
0.00524935,0.274745,-1.74786,0.696986,0.355137,1.50043,0.0603925,0.19635,0.0514705
0.00227003,0.28895,-1.71714,0.714144,0.149022,1.44393,0.0389312,0.161212,0.163665
-0.00665853,0.303417,-1.6887,0.736603,-0.202782,1.26797,0.00630854,0.127548,0.225479
-0.0207071,0.317676,-1.66415,0.712235,-0.408029,1.06486,0.00506693,0.118024,0.230568
-0.0350942,0.330603,-1.6428,0.634972,-0.333837,0.93079,0.0189963,0.129255,0.207899
-0.046382,0.342064,-1.62413,0.592493,-0.155374,0.784444,-0.00289065,0.124648,0.167827
-0.0532961,0.353247,-1.60868,0.594748,-0.0240571,0.614007,0.00235889,0.107757,0.14052
-0.0566297,0.363916,-1.59718,0.517813,0.0801819,0.404031,-0.00208469,0.0906623,0.149275
-0.057335,0.372504,-1.59002,0.359799,0.0828294,0.224386,0.0243514,0.0858272,0.146792
-0.0563568,0.378081,-1.58641,0.211018,0.148478,0.0894877,0.046169,0.0873229,0.0896425
-0.0539182,0.381285,-1.58519,0.117275,0.106344,0.0221839,0.0676001,0.0871712,0.038853
-0.0539182,0.381285,-1.58519,0.117275,0.106344,0.0221839,0.0676001,0.0871712,0.038853
-0.052541,0.383393,-1.58506,0.0966984,0.0344306,-0.013158,0.0828686,0.0780942,-0.0185658
-0.0518999,0.385112,-1.58555,0.0495762,0.0318392,-0.0430184,0.0769771,0.068748,-0.070738
-0.0488403,0.38467,-1.58713,-0.131059,0.242393,-0.115257,0.0653642,0.0230497,-0.0842232
-0.0403288,0.379453,-1.59186,-0.423137,0.414828,-0.321052,0.00961794,-0.00861543,-0.0801583
-0.0285936,0.368356,-1.60164,-0.725988,0.355122,-0.522509,-0.00822497,0.00639886,-0.0971239
-0.0194706,0.352268,-1.61362,-0.886683,0.124342,-0.532966,0.0639586,0.0243948,-0.194825
-0.0147872,0.336229,-1.62366,-0.675413,0.0575899,-0.362416,0.10986,0.0488013,-0.363272
-0.0106819,0.327134,-1.62888,-0.252142,0.194465,-0.123167,0.0966173,0.0561172,-0.426118
-0.004939,0.324895,-1.62954,-0.0216595,0.344187,0.0371927,0.0402183,0.0484876,-0.306081
0.00215742,0.324484,-1.62847,-0.0535359,0.400724,0.0442336,0.00163252,0.0208157,-0.137514
0.00979443,0.322555,-1.62802,-0.129027,0.376261,0.00290436,-0.0181851,0.0250448,-0.0356106
0.0168845,0.320366,-1.62756,-0.0661461,0.33415,0.0570018,0.0095185,0.0725437,-0.021291
0.0205938,0.320638,-1.62463,0.1006,0.0825166,0.234202,0.029209,0.131014,0.0124014
0.0163449,0.32477,-1.61792,0.304072,-0.280899,0.401028,-0.0139029,0.163635,0.0485343
0.00584525,0.332673,-1.60882,0.463347,-0.443907,0.445212,-0.100801,0.170717,0.05325
-0.00580202,0.342183,-1.60056,0.457865,-0.429368,0.313636,-0.180417,0.156437,0.0965954
-0.0146072,0.349904,-1.59625,0.308343,-0.29058,0.0822794,-0.207531,0.154132,0.149175
-0.0178113,0.354428,-1.59677,0.147893,-0.0309419,-0.128699,-0.171392,0.168572,0.162489
-0.0144602,0.355792,-1.60082,-0.0117303,0.176463,-0.233852,-0.119213,0.189717,0.202913
-0.00985458,0.35472,-1.60578,-0.0845111,0.0782817,-0.226632,-0.0581114,0.199242,0.238281
-0.00883249,0.353298,-1.61074,-0.0630524,-0.147035,-0.247019,-0.0358263,0.176911,0.240568
-0.011535,0.352135,-1.61647,-0.0722592,-0.302438,-0.294878,-0.02378,0.145531,0.24511
-0.0152455,0.349975,-1.62352,-0.171206,-0.28452,-0.377024,-0.0268627,0.115076,0.260195
-0.0167782,0.344854,-1.63274,-0.368975,-0.190424,-0.482687,-0.0181307,0.0796978,0.271101
-0.0165221,0.33562,-1.64366,-0.558229,-0.157462,-0.514529,0.030126,0.0489596,0.238145
-0.016717,0.323967,-1.65399,-0.593554,-0.215215,-0.433322,0.0652088,0.0309767,0.151674
-0.0192897,0.313055,-1.66249,-0.508792,-0.297227,-0.361197,0.0624794,-0.010545,0.077456
-0.0234043,0.304239,-1.66959,-0.383407,-0.330141,-0.300179,0.0741768,-0.0505304,0.0107445
-0.0280996,0.297904,-1.67525,-0.279391,-0.275375,-0.223,0.0764037,-0.065614,-0.0391439
-0.0301816,0.292739,-1.67915,-0.257696,-0.0237162,-0.140062,0.081124,-0.0919326,-0.106135
-0.0267393,0.287585,-1.68198,-0.280275,0.282099,-0.127155,0.0757632,-0.130684,-0.151412
-0.0184312,0.281134,-1.68476,-0.375556,0.444249,-0.114334,0.0788791,-0.147634,-0.142648
-0.00940358,0.273517,-1.6866,-0.36362,0.365264,-0.0505527,0.0869652,-0.149055,-0.172027
-0.0045742,0.268076,-1.68698,-0.16575,0.118955,0.0112202,0.0957194,-0.149049,-0.223121
-0.00293843,0.266909,-1.68645,0.0313639,0.113858,0.0313177,0.0929833,-0.142804,-0.251035
0.00109126,0.268509,-1.68603,0.104781,0.306274,0.00481017,0.0797736,-0.134761,-0.199697
0.0110529,0.270118,-1.68678,0.026716,0.702829,-0.0754717,0.0992266,-0.132508,-0.118442
0.0272485,0.268532,-1.6883,-0.203014,0.773934,-0.0477226,0.18206,-0.122318,0.0175602
0.0391462,0.262643,-1.68793,-0.364429,0.409623,0.0671446,0.225191,-0.0976354,0.0408035
0.0433025,0.25573,-1.68498,-0.320499,0.102475,0.19366,0.240254,-0.0938961,-0.0717733
0.0426769,0.251465,-1.67895,-0.108412,0.0302911,0.388887,0.224532,-0.045671,-0.196136
0.0426874,0.252376,-1.66901,0.148237,0.246508,0.56706,0.205305,-0.00742078,-0.231214
0.0475257,0.257529,-1.65638,0.282971,0.559083,0.67057,0.180469,-0.00101507,-0.128766
0.0572924,0.263482,-1.64203,0.216328,0.765509,0.755042,0.163648,0.0139226,0.0469585
0.0683032,0.267459,-1.62567,0.0887625,0.71429,0.849337,0.178042,0.0235287,0.181694
0.075009,0.270257,-1.60709,0.087083,0.441345,0.97226,0.201371,0.0530968,0.20614
0.074423,0.274331,-1.58536,0.149305,0.0801207,1.16404,0.232671,0.0933518,0.197918
0.0651447,0.278915,-1.55876,0.107416,-0.288346,1.44277,0.245156,0.156814,0.195872
0.0467949,0.281813,-1.52629,-0.0134244,-0.659843,1.67761,0.178548,0.20957,0.144362
0.0203359,0.28137,-1.4904,-0.133962,-0.948493,1.7535,0.0763209,0.224648,0.0172399
-0.00749806,0.278971,-1.45448,-0.106199,-0.781857,1.69056,0.000356901,0.204536,-0.159431
-0.0276139,0.277378,-1.42074,0.0079067,-0.267,1.56778,-0.0339308,0.206834,-0.252396
-0.0350142,0.277447,-1.38905,0.07364,0.362762,1.50442,-0.0255053,0.213018,-0.201551
-0.0319085,0.277679,-1.35769,0.037345,0.752228,1.53434,-0.0025832,0.230393,-0.0497359
-0.0319085,0.277679,-1.35769,0.037345,0.752228,1.53434,-0.0025832,0.230393,-0.0497359
-0.0250015,0.277141,-1.32516,-0.0015208,0.77422,1.6053,0.00523091,0.224656,0.0904626
-0.0214105,0.27668,-1.29144,0.0348647,0.458225,1.64288,0.00355056,0.194733,0.187104
-0.0256413,0.277612,-1.25719,0.135123,0.0689462,1.65574,0.0207658,0.17114,0.228181
-0.0363453,0.279728,-1.22295,0.151597,-0.165476,1.63565,0.0142339,0.167208,0.254884
-0.0492264,0.280366,-1.18943,0.0368197,-0.157121,1.58904,0.0133954,0.148274,0.259259
-0.0602032,0.277991,-1.15728,-0.100215,-0.0559643,1.51867,0.0214953,0.127696,0.234601
-0.0687734,0.273157,-1.12675,-0.183218,0.0274512,1.46238,0.0328156,0.0962806,0.190979
-0.0762927,0.266907,-1.09742,-0.236062,-0.0352794,1.40587,0.0326874,0.0596016,0.160058
-0.0857173,0.259784,-1.07014,-0.264821,-0.189027,1.27096,0.0022191,-0.00503027,0.105521
-0.097008,0.251413,-1.0466,-0.372936,-0.343264,1.07009,-0.0348054,-0.0733249,0.0390508
-0.10869,0.241098,-1.02837,-0.464881,-0.366471,0.793153,-0.0823289,-0.134492,-0.0923626
-0.1181,0.23003,-1.01659,-0.498183,-0.282435,0.482081,-0.124475,-0.144232,-0.242473
-0.122537,0.219243,-1.01029,-0.503988,0.0354876,0.28048,-0.118946,-0.150475,-0.355902
-0.119074,0.208077,-1.00714,-0.588594,0.306512,0.159544,-0.125072,-0.160609,-0.387934
-0.112676,0.195505,-1.00735,-0.658917,0.324607,-0.0499823,-0.177043,-0.138975,-0.40877
-0.105198,0.182596,-1.01298,-0.686262,0.315069,-0.367202,-0.212873,-0.14259,-0.435147
-0.0956663,0.170585,-1.02455,-0.597534,0.486724,-0.615424,-0.180265,-0.108149,-0.478722
