attitude_roll,attitude_pitch,attitude_yaw,rotationRate_x,rotationRate_y,rotationRate_z,acceleration_x,acceleration_y,acceleration_z
0.0686271,0.376886,-0.0130925,-0.334139,0.0691626,0.0402524,0.0286925,0.0178983,0.003829
0.0652591,0.371048,-0.0106792,-0.264667,-0.309806,0.143279,0.0372475,0.016248,0.0315878
0.0545843,0.366759,-0.0069145,-0.17713,-0.592647,0.172296,0.0213826,0.00541177,0.0226651
0.0411056,0.36451,-0.00357431,-0.0665918,-0.58323,0.124656,-0.00955503,-0.0106044,-0.0221181
0.0302353,0.363729,-0.0011549,-0.0311914,-0.439057,0.102903,-0.0247282,-0.0121279,-0.0293666
0.0220523,0.363649,0.00088097,0.035991,-0.268676,0.0827064,-0.0469605,-0.0261645,-0.0779358
0.0183576,0.366151,0.00220129,0.226935,-0.0885159,0.0496729,-0.0537914,-0.0131919,-0.112069
0.0162683,0.372577,0.00308336,0.398502,-0.117672,0.0474485,-0.0350642,0.0238983,-0.0756583
0.0133426,0.380596,0.00386621,0.384935,-0.11422,0.0325628,-0.0269139,0.00837618,-0.0352014
0.0127657,0.387035,0.0043413,0.242191,0.0761139,0.0235197,-0.0264543,0.00982982,-0.0041275
0.0144932,0.389789,0.0052451,0.0396414,0.10845,0.0731402,-0.020211,0.0242955,0.0324972
0.0155218,0.389375,0.00772243,-0.060742,0.0739459,0.15507,-0.00137416,0.0254536,0.0363785
0.0152687,0.388271,0.0114315,-0.0363627,0.0630501,0.184648,-0.00625807,0.0143003,0.00861752
0.0146986,0.388375,0.0157847,0.0392182,0.0274471,0.22167,0.0039136,0.0148998,0.00733501
0.0121773,0.389466,0.020665,0.0570786,-0.0912061,0.219321,0.00124715,0.0112252,0.0319006
0.00800395,0.390152,0.024988,0.00859357,-0.158357,0.18248,-0.0133686,0.00555772,0.0516986
0.00249971,0.389533,0.0286779,-0.0576909,-0.261865,0.163371,-0.0111473,0.00718284,0.0504192
-0.00465885,0.388133,0.0320745,-0.066641,-0.318991,0.147815,0.00678422,0.00346142,0.0137265
-0.0106048,0.387103,0.0346844,-0.0312558,-0.148032,0.104087,-0.00496586,0.00250718,-0.0484107
-0.0122008,0.3865,0.0369067,-0.0548767,0.0522731,0.114695,-0.0144105,0.0185807,-0.042188
-0.0113255,0.384955,0.0397443,-0.106242,0.116276,0.150833,0.00758198,0.0142356,-0.0126211
-0.010895,0.382863,0.0431513,-0.0878078,0.0292261,0.164573,0.0174455,0.00742805,-0.0130385
-0.0119178,0.382027,0.0465826,0.0212329,0.00699557,0.160091,0.00660281,0.00260848,-0.0326194
-0.0137053,0.383053,0.0501067,0.094979,-0.0435751,0.164892,0.00994982,0.00533068,-0.0190315
-0.0156969,0.384994,0.053427,0.125194,-0.0252302,0.140032,0.00754355,-0.00611442,-0.0201672
-0.0165051,0.387026,0.0561968,0.0806037,0.0291131,0.123256,0.00699809,0.00225312,-0.00547177
-0.0167135,0.387563,0.058994,0.010451,0.0304661,0.140257,0.0210426,0.0111275,0.00611728
-0.0166758,0.387359,0.0620342,0.0158091,0.0743381,0.147518,0.0132728,0.00904593,-0.0142058
-0.0162509,0.38767,0.0652574,0.0328564,0.0615215,0.16605,0.0173636,0.0227161,-0.00616878
-0.0166786,0.388251,0.0690765,0.0416303,0.0341343,0.19041,0.0258125,0.0229183,-0.000703573
-0.0167755,0.389183,0.0729886,0.0798542,0.0832638,0.181876,0.0156423,0.0258254,-0.0137078
-0.0156676,0.390764,0.0768649,0.101827,0.142204,0.191518,0.0199334,0.0358785,0.000646174
-0.0142203,0.391987,0.0812286,0.064473,0.128642,0.222531,0.0340306,0.0530303,0.0388809
-0.0142238,0.392281,0.0863781,0.0168209,0.0325148,0.261449,0.0564626,0.0694001,0.0517232
-0.0164072,0.392515,0.0923336,0.0451673,-0.0219193,0.292639,0.0712806,0.0866761,0.0234044
-0.0197754,0.393498,0.0989786,0.0787546,-0.0716115,0.328504,0.0911998,0.12802,0.0167612
-0.0245487,0.394841,0.106756,0.0784711,-0.117258,0.398541,0.118651,0.169039,0.0173995
-0.0308451,0.39625,0.116721,0.098555,-0.108,0.529832,0.148354,0.206488,0.00584674
-0.037193,0.39804,0.129988,0.120624,0.00208638,0.694924,0.170187,0.236825,-0.000522375
-0.0417493,0.399717,0.146988,0.0997058,0.207075,0.867942,0.17808,0.246427,0.0189708
-0.0433394,0.400077,0.167294,0.00218366,0.430609,0.99678,0.167941,0.241037,0.0516663
-0.0419027,0.397464,0.18992,-0.179847,0.570691,1.1009,0.157201,0.229229,0.103197
-0.0395899,0.391071,0.214385,-0.350825,0.59956,1.18528,0.146241,0.200316,0.11793
-0.0372303,0.382041,0.239929,-0.453137,0.595687,1.2142,0.138801,0.164746,0.104295
-0.0342628,0.371196,0.265722,-0.554658,0.660298,1.22982,0.140718,0.130431,0.0916407
-0.0304674,0.357834,0.291783,-0.717274,0.618936,1.24925,0.159988,0.106609,0.0915728
-0.0285572,0.341067,0.317553,-0.884493,0.458923,1.2215,0.173362,0.0682426,0.0395328
-0.0292853,0.321589,0.342493,-0.989011,0.297052,1.21548,0.176858,0.0318795,-0.0631317
-0.0320636,0.300872,0.368696,-0.989052,0.245567,1.37304,0.174112,0.0241369,-0.183413
-0.0347379,0.281799,0.398738,-0.793873,0.384257,1.57135,0.0855766,-0.00820145,-0.319869
-0.0336065,0.268026,0.432084,-0.473926,0.637147,1.66856,-0.026529,-0.0728948,-0.38595
-0.0274503,0.260281,0.465885,-0.213673,0.844902,1.60296,-0.140256,-0.139086,-0.362446
-0.0174094,0.257155,0.497113,-0.037892,0.945478,1.41567,-0.221277,-0.197147,-0.301538
-0.00534217,0.256988,0.523359,0.047662,0.913574,1.12932,-0.27822,-0.226635,-0.223543
0.00637678,0.258675,0.544003,0.125984,0.770408,0.884874,-0.287445,-0.213057,-0.166713
0.0157861,0.262638,0.560156,0.259882,0.600307,0.691163,-0.279114,-0.176528,-0.139209
0.0231679,0.269366,0.572782,0.386006,0.479096,0.561464,-0.261649,-0.126245,-0.110049
0.029532,0.278069,0.58383,0.455635,0.473077,0.53334,-0.227933,-0.0725772,-0.0749648
0.0362689,0.287938,0.594566,0.494425,0.502628,0.535073,-0.206231,-0.0241143,-0.0303703
0.0429477,0.29831,0.605466,0.502262,0.469602,0.555794,-0.189049,0.0047057,0.0230836
0.0482795,0.308552,0.616575,0.477488,0.396125,0.546344,-0.172782,0.0144486,0.0620615
0.0523913,0.318134,0.62709,0.433093,0.34336,0.500218,-0.173992,0.0267994,0.0901495
0.0554502,0.326859,0.636351,0.402212,0.248687,0.417929,-0.177671,0.0269571,0.0980504
0.0574893,0.335295,0.643309,0.408456,0.184034,0.284707,-0.173948,0.0242381,0.0922589
0.058687,0.343653,0.647711,0.404407,0.0790751,0.18309,-0.145647,0.0348198,0.0973647
0.0587355,0.351511,0.650349,0.362845,0.027812,0.109721,-0.119657,0.0453211,0.104761
0.0586397,0.357973,0.651599,0.270973,0.000384421,0.0560064,-0.0935262,0.0560494,0.102983
0.0578139,0.362083,0.652451,0.133438,-0.0461378,0.0542801,-0.060276,0.0650381,0.109914
0.0563042,0.363298,0.653787,-0.0118973,-0.0575774,0.0777842,-0.0365186,0.0645116,0.0925809
0.054356,0.362016,0.655647,-0.115949,-0.0728403,0.0861315,-0.0331687,0.0565528,0.0555992
0.0525805,0.359253,0.657598,-0.168392,-0.0343368,0.0820167,-0.0259314,0.047513,0.019949
0.0512002,0.355446,0.659675,-0.216811,-0.0390544,0.0975346,-0.00563567,0.0449534,0.00236404
0.0492781,0.351208,0.662417,-0.203686,-0.0419225,0.136567,0.00195115,0.0407332,-0.0308404
0.0474443,0.347956,0.665751,-0.135537,-0.0281084,0.150869,0.0012226,0.0377696,-0.0529906
0.0461169,0.34577,0.668936,-0.102643,0.00781071,0.133255,0.00931658,0.0278251,-0.0457202
0.0458269,0.343504,0.671434,-0.137688,0.0463726,0.0901399,0.00537311,0.0149658,-0.0319883
0.0467278,0.340033,0.672891,-0.202879,0.0899145,0.0329868,0.00286918,0.00472173,-0.0260435
0.0483793,0.335056,0.673384,-0.251487,0.0761301,-0.000595355,0.00889422,0.00562569,-0.0110588
0.0489646,0.329935,0.673604,-0.209091,-0.00793072,-0.000781081,0.0173546,0.00287572,-0.0250107
0.0486278,0.32658,0.673528,-0.12623,-0.0277976,-0.0299347,0.00465031,-0.0130866,-0.0454603
0.0486563,0.324389,0.672366,-0.0890056,0.000825897,-0.092021,-0.0136145,-0.0261339,-0.0482866
0.050231,0.322748,0.66982,-0.071041,0.0742077,-0.158365,-0.022303,-0.0380504,-0.0522033
0.0536031,0.32103,0.66612,-0.0851824,0.132235,-0.190822,-0.0335978,-0.0319293,-0.0306013
0.0573751,0.319126,0.662152,-0.0781192,0.107447,-0.192298,-0.0392964,-0.0369256,-0.0110978
0.0597546,0.318069,0.658209,-0.000313902,0.00960544,-0.195313,-0.0426397,-0.0472371,-0.0111132
0.05978,0.319118,0.654017,0.128122,-0.13419,-0.200322,-0.060024,-0.0517493,-0.0153031
0.056873,0.322588,0.649224,0.22529,-0.292523,-0.242869,-0.0619974,-0.0546668,0.00143492
0.0516325,0.327172,0.643331,0.24275,-0.399011,-0.29719,-0.0500621,-0.0457605,0.0250541
0.0457664,0.331259,0.636372,0.185989,-0.395431,-0.348862,-0.050038,-0.0381386,0.030291
0.0411036,0.333619,0.628357,0.0895978,-0.325586,-0.397835,-0.0528186,-0.0247082,0.0153239
0.0382301,0.334587,0.61973,0.0546874,-0.267345,-0.414646,-0.0470113,-0.00589487,-0.00528669
0.0362877,0.335813,0.610878,0.11487,-0.209293,-0.418123,-0.0305301,0.001809,-0.0363832
0.0358742,0.338393,0.601838,0.159921,-0.138363,-0.428956,-0.0392189,0.0171979,-0.0317438
0.03661,0.340958,0.592703,0.120327,-0.100586,-0.419325,-0.0300393,0.031045,-0.00445515
0.0375035,0.342383,0.58402,0.0523069,-0.107558,-0.398904,-0.0188389,0.0337003,0.00318456
0.0383705,0.342659,0.575453,0.0197537,-0.0940869,-0.407784,-0.0143719,0.0312598,-0.0120758
0.0390154,0.342801,0.567063,0.0306719,-0.122443,-0.370712,0.0151896,0.0471094,-0.0245064
0.039022,0.343455,0.560231,0.0625646,-0.102056,-0.26825,0.0357303,0.0667233,-0.0306167
0.0387638,0.344846,0.555953,0.088337,-0.0750225,-0.130925,0.0435141,0.079614,-0.0227601
0.037589,0.346768,0.554346,0.113642,-0.103646,-0.0193215,0.0502891,0.0722969,-0.0106276
0.0347404,0.349378,0.554572,0.150143,-0.162478,0.0449083,0.0506779,0.0637489,0.000466049
0.030482,0.352662,0.555895,0.170319,-0.20718,0.0826712,0.0379267,0.0536342,0.00239736
0.030482,0.352662,0.555895,0.170319,-0.20718,0.0826712,0.0379267,0.0536342,0.00239736
0.0259574,0.355891,0.557853,0.138966,-0.18735,0.10628,0.0303136,0.0461034,0.0123227
0.021835,0.358009,0.56014,0.0612935,-0.13075,0.107532,0.0251901,0.036247,0.0192893
0.0200494,0.357107,0.561906,-0.0356673,-0.0918099,0.0951594,0.0236209,0.0258957,0.0164967
0.0186452,0.355009,0.563598,-0.0974634,-0.0582202,0.088607,0.0265096,0.0216101,0.00735039
0.0171053,0.352529,0.565505,-0.10263,-0.0778383,0.101734,0.0243832,0.0196953,-0.00545174
0.0148664,0.350739,0.567712,-0.0371962,-0.111406,0.115151,0.0217295,0.00454187,-0.0268204
0.0120617,0.350529,0.569781,0.0262134,-0.14689,0.0959363,0.00448019,-0.00398728,-0.0278264
0.00918761,0.350982,0.571287,0.0329057,-0.144063,0.0704407,-0.000997961,-0.0133881,-0.0151972
0.00679966,0.351166,0.572359,0.0145505,-0.116649,0.0499858,-0.00314977,-0.0178998,-0.0059042
0.00490905,0.350914,0.572842,-0.0134999,-0.105047,0.0130147,-0.00760058,-0.0173433,-0.000908971
0.00364563,0.349929,0.572543,-0.0757414,-0.0527713,-0.0355084,-0.0117254,-0.0207403,-0.000611484
0.00421742,0.347414,0.571187,-0.18891,0.0777015,-0.0863945,-0.0119,-0.0167559,-0.00775015
0.00773987,0.342644,0.569327,-0.304796,0.199065,-0.0898484,0.0103493,-0.00124079,-0.0105053
0.0122547,0.336721,0.567595,-0.30059,0.182014,-0.0784803,0.0258941,0.00135314,-0.0151204
0.0157917,0.33141,0.566368,-0.275509,0.154,-0.0633584,0.0354223,0.00932109,-0.0144332
0.0178656,0.327405,0.565282,-0.15029,0.0410168,-0.0587238,0.0337129,-0.00350174,-0.0309931
0.0183012,0.326317,0.564059,0.0198724,-0.015616,-0.056981,0.0166316,0.00251782,-0.0461086
0.018329,0.327747,0.563329,0.0991143,-0.00159625,-0.00934234,0.0185058,0.00983849,-0.0320421
0.0191419,0.329339,0.563181,0.056269,0.0602831,-0.000679454,0.00709546,0.00296739,-0.0119094
0.021017,0.329833,0.563137,-0.000727945,0.093315,0.00738268,-0.00395244,-0.0031417,0.00248253
0.0230965,0.329321,0.563565,-0.0259048,0.110737,0.0281401,-0.0150327,-0.00406793,0.000300407
0.0252776,0.328705,0.564157,-0.0222964,0.12508,0.0324829,-0.0211904,0.000597924,-0.00698143
0.027809,0.328255,0.564908,-0.00502385,0.136698,0.0415605,-0.00356989,0.011219,-0.00522137
0.0296057,0.328689,0.565941,0.0459584,0.0853767,0.0653785,0.00997771,0.0172756,0.0017615
0.0298165,0.329993,0.567817,0.0745163,0.0206381,0.106208,0.019175,0.0294965,0.0161654
0.0286423,0.331609,0.570515,0.0764277,-0.00847662,0.141418,0.0257478,0.0290107,0.0257592
0.0270186,0.332389,0.573835,-0.00321018,-0.022644,0.175266,0.0254277,0.0309988,0.0417833
0.0252668,0.33092,0.577817,-0.130948,-0.0449633,0.194127,0.01758,0.0257032,0.0413283
0.0224297,0.327481,0.581609,-0.202107,-0.14423,0.157634,0.00272039,0.0109744,0.021111
0.0184186,0.322119,0.584468,-0.32738,-0.180585,0.112333,-0.0238484,-0.00458941,-0.015965
0.0144781,0.315293,0.586478,-0.350112,-0.157041,0.0760756,-0.0356908,0.00562102,-0.0642713
0.0117371,0.308645,0.588071,-0.313021,-0.0704518,0.0699108,-0.0243506,0.000804752,-0.0924093
0.0110727,0.303369,0.589579,-0.211214,0.0372168,0.0680923,-0.0326158,-0.00349364,-0.0852433
0.0118198,0.300308,0.591178,-0.112519,0.0937778,0.0812787,-0.0349569,-0.00516492,-0.0473086
0.0134384,0.298491,0.593227,-0.0822419,0.105912,0.11104,-0.00590103,0.00223839,0.00740719
0.0138244,0.297071,0.595911,-0.0594164,0.0142417,0.148463,0.0209308,0.00773236,0.0505891
0.0125414,0.296241,0.599412,-0.0396537,-0.0235305,0.19011,0.0260911,0.0148735,0.070379
0.0103928,0.295339,0.603908,-0.0553545,-0.0538398,0.235832,0.0310577,0.0199157,0.0834829
0.00802852,0.294252,0.60908,-0.0507575,-0.0277173,0.254684,0.0407786,0.00463888,0.0609009
0.00613721,0.293594,0.614654,-0.0216401,-0.00364096,0.288837,0.0510102,0.00423768,0.0562216
0.00418573,0.293257,0.621284,-0.0309442,-0.00722971,0.345898,0.0538696,0.00312164,0.0519647
0.00153167,0.292501,0.628822,-0.0509587,-0.0547488,0.374948,0.0458509,-0.0130133,0.0424398
-0.00203346,0.290887,0.636649,-0.113881,-0.0872763,0.375735,0.0346324,-0.0249501,0.0128433
-0.00579732,0.287745,0.64411,-0.204784,-0.0934064,0.342824,0.00633715,-0.0411457,-0.0243145
-0.0104622,0.282878,0.650725,-0.271236,-0.17591,0.298837,0.000219561,-0.0346152,-0.073076
-0.0155557,0.277502,0.656062,-0.234483,-0.169497,0.233152,-0.0126431,-0.0410329,-0.138624
-0.0190552,0.274217,0.659961,-0.0681192,-0.066088,0.121843,-0.0372762,-0.0421795,-0.176881
-0.020089,0.275146,0.661807,0.151453,0.0160868,0.0698943,-0.0342262,-0.0199847,-0.146054
-0.019212,0.279662,0.663597,0.280915,0.135204,0.110588,-0.0155474,0.00740016,-0.0646329
-0.0164045,0.285142,0.666825,0.259688,0.234606,0.177407,0.00383956,0.0291724,0.0342761
-0.0164045,0.285142,0.666825,0.259688,0.234606,0.177407,0.00383956,0.0291724,0.0342761
-0.00797751,0.290627,0.675558,0.0107641,0.295903,0.249316,0.0165235,0.0219353,0.130718
-0.00356691,0.290093,0.681173,-0.048546,0.290145,0.277425,0.00627128,0.018463,0.117803
-0.000479132,0.289152,0.68698,-0.0514867,0.194253,0.284647,0.0054031,0.0166608,0.104375
0.00068032,0.287634,0.693013,-0.110283,0.103483,0.290172,0.0104103,0.00333482,0.0902193
0.000366989,0.284537,0.698361,-0.197965,0.0156408,0.220428,-0.0106824,0.00358278,0.0505815
-0.0007723,0.280086,0.702652,-0.240702,-0.00482289,0.188878,-0.0004327,0.0078834,-0.00561285
-0.00216994,0.275036,0.706432,-0.253641,-0.0355636,0.187529,-0.00271812,0.0201172,-0.0551651
-0.00425525,0.270645,0.71029,-0.160745,-0.0768751,0.1821,-0.0110058,0.00909764,-0.111682
-0.00641699,0.269329,0.713777,0.03744,-0.0218373,0.155344,-0.034067,0.00373998,-0.160734
-0.0066272,0.271975,0.71665,0.225344,0.0652575,0.123537,-0.043711,0.00574067,-0.144979
-0.00551844,0.277806,0.719018,0.345008,0.110703,0.115274,-0.0268434,0.0249023,-0.0761664
-0.00384741,0.284664,0.721657,0.328584,0.124372,0.132676,-0.0326386,0.0117156,-0.00631547
-0.00191583,0.290262,0.7243,0.229371,0.151297,0.108133,-0.0560256,0.00184032,0.035575
0.000693131,0.293607,0.726094,0.110431,0.154405,0.0667425,-0.0503308,0.00930128,0.0591041
0.00298002,0.295,0.727416,0.0468275,0.114423,0.0533356,-0.0427377,-0.00244248,0.0536759
0.0048511,0.295572,0.728178,0.013624,0.0986909,0.00920728,-0.0547658,-0.00542,0.0386252
0.00672844,0.295342,0.728051,-0.0267864,0.0887705,-0.0211592,-0.051954,-0.00107807,0.0188912
0.00886114,0.294942,0.727314,-0.00433176,0.112788,-0.0589042,-0.0496466,-0.00371897,-0.0195978
0.0109868,0.295566,0.725988,0.0955191,0.0347215,-0.0777755,-0.0479399,-0.00594491,-0.0393308
0.0120378,0.298543,0.724237,0.167708,0.0221165,-0.121263,-0.0789794,-0.00419641,-0.0356515
0.0128124,0.302357,0.72124,0.195219,0.0184935,-0.147322,-0.0587549,-0.00938803,-0.017014
0.0146107,0.305375,0.717784,0.129912,0.0744934,-0.191096,-0.0565673,-0.00415874,0.00333035
0.016375,0.307874,0.713494,0.202856,-0.0928072,-0.237033,-0.0548499,-0.00482753,0.0231035
0.0143396,0.312628,0.708955,0.239559,-0.185881,-0.242873,-0.0630062,-0.00965422,0.0391076
0.0186431,0.310653,0.701573,-0.375411,0.327117,-0.506026,-0.107502,-0.0480796,0.0657688
0.0267787,0.303638,0.690689,-0.230092,0.130303,-0.476546,0.023308,0.0192393,0.014887
0.0289717,0.301666,0.683757,0.0340832,-0.108898,-0.199535,0.0707749,0.075996,0.00365186
0.0267708,0.303435,0.681145,0.111048,-0.142288,-0.0765931,0.0572037,0.0654324,0.00478548
0.0256279,0.304705,0.67956,0.0190746,-0.0250074,-0.0746335,0.0316619,0.0290153,0.00689083
0.0257883,0.304469,0.678442,-0.0666672,0.0740218,-0.002204,0.0391212,0.0476813,0.0173334
0.0272409,0.301959,0.679382,-0.109981,-0.0048018,0.0329559,0.0300708,0.0506563,0.0119425
0.0261532,0.301327,0.679748,0.0328944,-0.0673357,0.0238469,0.0323553,0.0102426,-0.00625944
0.0244111,0.30203,0.680808,0.0263804,-0.0852029,0.0891805,0.035351,0.0373117,0.0122505
0.0234209,0.301606,0.683422,-0.0470414,0.0756218,0.16931,0.053734,0.0522728,0.0125059
0.0278651,0.298106,0.687082,-0.216241,0.284156,0.179556,0.00791323,0.000985295,-0.00941175
0.0321336,0.294491,0.690897,-0.109956,0.206028,0.210848,0.0362869,0.00993317,-0.000773489
0.033333,0.293631,0.696818,0.0318939,0.053982,0.364584,0.0607815,0.0223854,0.00563312
0.0312847,0.295606,0.704518,0.192266,-0.0960288,0.375813,0.0128628,0.00735393,0.0117301
0.0265841,0.299763,0.711769,0.17203,-0.155973,0.342115,0.0177562,-0.00524372,0.0407929
0.0217371,0.301652,0.718665,-0.00657917,-0.10856,0.326206,0.0265331,0.00293911,0.0443889
0.0181827,0.300145,0.72548,-0.136184,-0.054311,0.314373,0.0209307,0.000554234,0.0143549
0.0151135,0.297682,0.731535,-0.103772,-0.0879802,0.257568,-0.00301937,-0.0140834,-0.0287094
0.0109666,0.296638,0.736217,-0.00579229,-0.188134,0.191387,-0.00552826,-0.020788,-0.051103
0.00585409,0.29726,0.73948,0.0684329,-0.227558,0.1448,0.00517541,-0.00565159,-0.0569201
0.000669795,0.299006,0.742562,0.0924692,-0.190527,0.150647,0.00859151,0.000167578,-0.0431803
-0.00345885,0.300596,0.745814,0.0619856,-0.132287,0.159876,0.00591302,0.0124901,-0.0187073
-0.00667438,0.301329,0.749447,0.0216396,-0.0846394,0.191556,0.0127823,0.00855136,-0.0060007
-0.00962214,0.301802,0.753743,0.0420303,-0.0959746,0.216268,0.00903453,0.0130924,0.00308275
-0.0133734,0.302954,0.758627,0.0791129,-0.136547,0.253214,0.00214388,0.0148021,0.0135476
-0.0177529,0.304248,0.764264,0.0656852,-0.132397,0.28955,-0.011704,0.0142976,0.0200232
-0.0177529,0.304248,0.764264,0.0656852,-0.132397,0.28955,-0.011704,0.0142976,0.0200232
-0.0219031,0.305125,0.77034,0.0459107,-0.103623,0.286703,-0.0203395,0.00803852,0.00837499
-0.0254655,0.305823,0.776212,0.0547589,-0.100191,0.281114,-0.0374863,-0.00804976,-0.00749457
-0.0293387,0.307512,0.7815,0.124448,-0.120265,0.192979,-0.0732836,-0.024002,-0.0161622
-0.032935,0.310144,0.784365,0.137705,-0.140248,0.0825314,-0.0689838,-0.0275834,-0.00795877
-0.0362929,0.312518,0.785751,0.0950078,-0.144192,0.0233735,-0.0453066,-0.0146728,0.0108266
-0.0385172,0.313267,0.785214,-0.0377769,-0.0794042,-0.0664022,-0.0327481,-0.0104199,0.0220374
-0.0392831,0.3111,0.78354,-0.191906,-0.015227,-0.100657,-0.0157128,-0.00862131,0.017074
-0.0394156,0.306631,0.781134,-0.271315,-0.0100499,-0.121017,0.00450156,0.00123504,-0.0134948
-0.0392514,0.301465,0.778633,-0.278603,0.0044136,-0.113407,0.0357932,0.00578165,-0.0477403
-0.0386282,0.296321,0.776458,-0.243334,0.0170165,-0.0603423,0.0613496,0.0256766,-0.0566253
-0.0384341,0.29283,0.776358,-0.109866,-0.0136213,0.0652179,0.0699005,0.0358405,-0.0652948
-0.0395818,0.291408,0.778557,-0.0444741,-0.00905021,0.147866,0.0906528,0.0489745,-0.0401329
-0.0408109,0.290939,0.782858,0.0237267,-0.00168097,0.266611,0.0920482,0.0436265,-0.0355289
-0.0421978,0.291793,0.788822,0.0888584,0.00058391,0.310041,0.0776488,0.0392411,-0.0195633
-0.044905,0.293681,0.797158,0.15602,-0.0479675,0.473958,0.0576774,0.0162995,-0.00279498
-0.0490005,0.296904,0.80674,0.207934,-0.0883983,0.411437,-0.00275318,0.0158123,0.0126553
-0.0535154,0.300849,0.815163,0.203376,-0.0940231,0.385,0.00157265,-0.0147951,0.0305306
-0.0574168,0.30353,0.823233,0.101618,-0.0330028,0.364809,-0.0214098,0.00123763,0.0467395
-0.0603823,0.304691,0.830868,0.0664335,-0.0226582,0.354598,-0.0464683,0.00506142,0.0394815
-0.0632126,0.305429,0.83808,0.0540459,-0.0684229,0.326026,-0.0505014,-0.0108368,0.0347449
-0.0660886,0.305447,0.843913,-0.0312294,-0.026498,0.206852,-0.0604599,-0.0186012,0.0324107
-0.0672926,0.303737,0.846715,-0.122886,0.0054,0.0871579,-0.0478967,-0.0125729,0.0154051
-0.0671613,0.300427,0.847964,-0.196813,0.0423506,0.0643003,-0.0186587,0.0109853,-0.000937939
-0.0662005,0.296223,0.849098,-0.195072,0.0860129,0.0711049,0.00525707,0.026376,-0.0331826
-0.0640624,0.292716,0.850332,-0.149713,0.166171,0.0707158,0.00836272,0.0206708,-0.0540372
-0.0609677,0.289913,0.851899,-0.124925,0.187079,0.10044,0.0181803,0.0291395,-0.0447018
-0.0587825,0.288137,0.854161,-0.040151,0.101159,0.121332,0.0178136,0.0208308,-0.0354807
-0.0585995,0.287898,0.85675,0.0373272,-0.00869801,0.128139,0.0184206,0.0280629,-0.0220969
-0.0602332,0.288462,0.85962,0.0421724,-0.0595709,0.143627,0.0158547,0.0285581,-0.0096851
-0.0616268,0.287908,0.863002,-0.0592904,0.0133867,0.197306,0.0156721,0.0376859,-0.00338376
-0.0618481,0.285769,0.867096,-0.0805284,0.0643537,0.195854,-0.0262387,0.00529891,-0.0292666
-0.0610834,0.284454,0.870701,-0.00911812,0.0813223,0.164081,-0.0455947,-0.003714,-0.033537
-0.0607964,0.28464,0.873969,0.0638169,0.0250607,0.147713,-0.0394488,-0.00292504,-0.017749
-0.0615612,0.286041,0.876914,0.106883,-0.0146649,0.118108,-0.0287307,-0.0015963,-0.00286752
-0.0630551,0.287846,0.879033,0.0934251,-0.0609918,0.0793193,-0.0370371,-0.00831863,0.0231295
-0.0654196,0.289117,0.880873,0.057631,-0.085683,0.0743372,-0.0319905,0.00164366,0.0406741
-0.0683177,0.289965,0.882861,0.0397341,-0.121987,0.113433,-0.0216976,0.0076746,0.0442601
-0.0719019,0.290348,0.885645,0.0248815,-0.134715,0.135883,-0.0152582,0.00972059,0.032054
-0.0753764,0.290941,0.888642,0.0386419,-0.103737,0.141027,-0.0151246,0.00331455,0.016259
-0.0782888,0.291563,0.891543,0.0358281,-0.0829601,0.119183,-0.0270511,-0.000819474,0.0196051
-0.0808696,0.292004,0.893755,0.0113756,-0.0973468,0.0826479,-0.0306703,-0.00495908,0.0269572
-0.0832698,0.291225,0.895155,-0.0836441,-0.0948942,0.0588625,-0.0264535,-0.0034163,0.0361472
-0.0856912,0.288846,0.895872,-0.128084,-0.131107,0.0215764,-0.0264034,-0.00983161,0.0106743
-0.0883667,0.287012,0.895553,-0.0600937,-0.12085,-0.0333004,-0.0200183,-0.0153134,-0.0241098
-0.0902772,0.286362,0.894691,-0.0535413,-0.0457333,-0.0481134,-0.0151707,0.0017029,-0.0276914
-0.0909233,0.285163,0.893565,-0.0727356,-0.0576502,-0.0413678,-0.00367378,0.00462672,-0.0219788
-0.0923175,0.284367,0.893031,-0.0278532,-0.082182,-0.0191699,0.00794833,0.000916988,-0.0255861
-0.0943247,0.284537,0.892296,0.0269913,-0.121126,-0.0580479,-0.00159731,-0.00226077,-0.0329393
-0.0965505,0.285532,0.890983,0.05984,-0.131939,-0.0851981,0.0115496,-0.00249642,-0.0267074
-0.0983271,0.286801,0.889442,0.0580802,-0.0820768,-0.0634981,0.019101,0.00990519,-0.0217059
-0.0983271,0.286801,0.889442,0.0580802,-0.0820768,-0.0634981,0.019101,0.00990519,-0.0217059
-0.0990029,0.287841,0.888844,0.045612,-0.0152271,-0.0102238,0.0135218,0.0187763,-0.0137775
-0.0987755,0.288724,0.888697,0.0508732,0.02134,-0.00980715,0.00594055,0.00262463,-0.00855845
-0.098007,0.28989,0.888474,0.0659759,0.0355269,-0.0263608,-0.00712365,-0.00999075,1.77026e-05
-0.0975822,0.291358,0.888065,0.100976,-0.0429059,-0.0199845,-0.0103316,-0.0102018,0.0188649
-0.0994019,0.29366,0.887698,0.142095,-0.158698,-0.0546116,-0.0216177,-0.0200515,0.0249298
-0.102811,0.296342,0.886623,0.134704,-0.243022,-0.0721862,-0.026523,-0.0232989,0.0238705
-0.106979,0.298732,0.884729,0.09251,-0.221042,-0.120743,-0.0305683,-0.0251492,0.011343
-0.111238,0.301109,0.882635,0.110292,-0.271116,-0.12859,-0.0613439,-0.0228021,-0.0139223
-0.11213,0.30169,0.877731,-0.163889,0.0412888,-0.361662,-0.0745701,-0.0717318,-0.0112589
-0.11008,0.299661,0.868874,-0.0749338,-0.0752293,-0.39869,-0.0170626,0.0040586,-0.0321273
-0.11123,0.300871,0.862279,0.0975943,-0.223645,-0.257023,0.0176508,0.0280412,-0.0319786
-0.11421,0.304224,0.857984,0.172676,-0.175018,-0.196361,0.00524406,0.0431751,-0.0310791
-0.116038,0.307635,0.854688,0.113119,-0.0981301,-0.156891,-0.000940479,0.0391033,-0.0122343
-0.116155,0.309323,0.851722,0.0317615,-0.00464468,-0.151734,-0.00551227,0.0325171,0.000793636
-0.114258,0.30959,0.848542,-0.0638468,0.124575,-0.139505,-0.0192335,0.0255845,0.0130818
-0.11106,0.308199,0.845777,-0.0937338,0.125246,-0.12922,-0.0317042,0.0137309,0.0238848
-0.107785,0.306536,0.841312,-0.0722689,-0.0122863,-0.282688,-0.0392841,0.0195926,0.0381839
-0.107538,0.306543,0.835306,-0.0300672,-0.0809642,-0.250251,0.00342035,-0.0184103,0.0338277
-0.107234,0.305176,0.830367,-0.129582,-0.0270269,-0.238548,-0.0278602,0.0174109,0.0313078
-0.105775,0.302671,0.824568,-0.169167,0.0132388,-0.272626,-0.00177515,0.0105803,0.0158286
-0.104043,0.299402,0.819334,-0.204691,0.0285438,-0.195599,0.0335001,0.00161427,0.0067119
-0.102533,0.296088,0.815545,-0.159174,0.00165087,-0.141275,0.0202629,0.0137965,-0.0085755
-0.102619,0.294133,0.812702,-0.0762924,-0.0720127,-0.11361,0.0255298,0.000207126,-0.0186078
-0.103959,0.293306,0.810638,-0.034671,-0.0931772,-0.081276,0.030508,-0.00246128,-0.0236289
-0.104829,0.292944,0.809036,-0.0216769,-0.078091,-0.0651639,0.0348412,0.0065605,-0.0247712
-0.104574,0.292145,0.808289,-0.0598052,0.0164374,0.00216165,0.0387115,0.00574967,-0.022777
-0.104506,0.291505,0.808312,0.013359,-0.0290969,0.0240254,0.0325935,0.00716668,-0.0172467
-0.104965,0.29217,0.808997,0.0458733,-0.0395231,0.0415068,0.0304623,-0.000894159,-0.00654227
-0.105459,0.292578,0.809796,0.010935,-0.0329879,0.0409761,0.0198733,-0.00311297,0.00848889
-0.106011,0.292344,0.810369,-0.0078904,-0.0488011,0.0260741,0.0124863,-0.00896686,0.00990385
-0.106427,0.291998,0.810708,0.000497712,-0.0276294,0.0168464,0.00364593,-0.00955811,-0.0034821
-0.106408,0.292238,0.810713,0.0276527,-0.021074,-0.00539473,-0.00388616,-0.0142413,-0.0060057
-0.106755,0.292966,0.810455,0.0382237,-0.0587061,-0.0233674,0.00112089,-0.0144604,0.00533181
-0.107704,0.293912,0.809575,0.0274923,-0.0659844,-0.0587427,-0.00720637,-0.0209396,0.0032382
-0.108358,0.294346,0.808217,0.00023306,-0.0524307,-0.073141,-0.0126392,-0.016527,-0.00279844
-0.108401,0.294605,0.806488,0.0042275,-0.000508223,-0.0976282,-0.0171238,-0.0206425,-0.0163818
-0.107314,0.295203,0.804088,0.011628,0.0363935,-0.133723,-0.0245242,-0.0353596,-0.00798929
-0.105844,0.295562,0.800901,-0.0330687,0.0225026,-0.17509,-0.0313959,-0.0239382,0.0055604
-0.104127,0.295141,0.797129,-0.0601152,0.0551673,-0.176154,-0.0194212,-0.0208314,0.00135309
-0.102415,0.294419,0.793494,-0.0668252,0.0333687,-0.176795,-0.0157957,-0.0178151,-0.00527292
-0.101122,0.293758,0.789779,-0.0507996,0.0126939,-0.171146,-0.00174804,-0.00984171,-0.0171179
-0.0999715,0.293609,0.786605,-0.0179529,0.0487521,-0.131961,0.0151202,0.00431329,-0.0182462
-0.0991779,0.294394,0.78504,0.0658912,-0.0171624,-0.0375121,-0.000596635,0.0186302,-0.013545
-0.0999096,0.296393,0.784439,0.104897,-0.0477557,-0.0516811,0.00236145,-0.00306302,-0.0113553
-0.100612,0.298613,0.783408,0.0829323,-0.0303094,-0.0742506,-0.00950152,-0.000116527,0.00161701
-0.0999531,0.299145,0.781936,-0.0324195,0.0261684,-0.0521133,0.00796807,0.0207777,0.0292494
-0.0990454,0.297573,0.781282,-0.0856263,0.0315018,0.000738803,0.015131,0.0248139,0.0197094
-0.0987262,0.296037,0.781316,-0.0513191,0.00951532,0.0165516,0.018961,0.0182029,-0.00355607
-0.0987328,0.295492,0.78185,-0.0118783,0.00322839,0.0398656,0.0167246,0.0169796,-0.00542808
-0.0994393,0.295357,0.783172,0.0312588,-0.0465331,0.099723,0.016806,0.0126387,0.00081569
-0.101448,0.296668,0.785629,0.134805,-0.0680407,0.102791,-0.0174995,-0.00524184,-0.0207536
-0.103092,0.299202,0.787259,0.126664,-0.0730017,0.0093979,-0.0383962,-0.0297056,-0.010866
-0.102617,0.29967,0.785913,-0.0945928,0.0380084,-0.116567,-0.021284,-0.0435705,0.0256947
-0.101304,0.296803,0.783712,-0.143951,-0.00117977,-0.022371,0.021743,0.0188749,0.0245852
-0.102746,0.295153,0.784343,0.00679695,-0.110719,0.0741936,0.0403753,0.00817177,-0.0205476
-0.104918,0.296581,0.786001,0.116685,-0.0397068,0.0592498,0.0105234,-0.00649926,-0.034025
-0.106189,0.299021,0.787311,0.0931965,-0.0338604,0.0401301,-0.00225982,-0.0140394,-0.00730753
-0.107441,0.300461,0.788111,0.0639422,-0.0855965,0.0184536,-0.00177191,-0.00852889,0.00540221
-0.109011,0.301299,0.788105,0.0309325,-0.0963257,-0.0147349,0.00938098,-0.00405115,0.00122446
-0.109684,0.301128,0.787816,-0.0407751,0.00280245,0.000550852,0.0114292,0.00539896,-0.0188912
-0.108853,0.300382,0.788059,-0.0160097,0.0696797,0.0293527,0.0082847,0.0141467,-0.0386351
-0.107652,0.300773,0.788824,0.0471404,0.0833808,0.0564359,0.0147911,0.00971386,-0.0358491
-0.106542,0.301836,0.790549,0.0772283,0.0749475,0.0850556,-0.00109734,0.010729,-0.0189901
-0.105657,0.303326,0.79212,0.0806281,0.0535339,0.0424863,-0.00828676,0.0031946,0.00026536
-0.104276,0.304055,0.792659,0.0108595,0.0998524,0.00189531,-0.0120764,-0.00660768,0.019962
-0.102491,0.303601,0.79245,-0.0150071,0.0621335,-0.0137803,-0.00838552,0.00783589,0.0219514
-0.10158,0.303566,0.792365,0.023665,0.0209116,0.0112636,0.00347629,0.0201466,0.0209976
-0.10211,0.304147,0.793073,0.040925,-0.0367614,0.0366008,0.00783782,0.0269118,0.024832
-0.10346,0.304884,0.79387,0.0382985,-0.0563647,0.027426,-0.00146316,0.0150411,0.0131124
-0.104404,0.305671,0.794214,0.0368449,-0.00783405,-0.00643018,-0.0104492,0.00959668,0.0065276
-0.104118,0.305872,0.794132,-0.00922894,0.0233364,0.000114738,-0.00836147,0.0194631,0.0176193
-0.103647,0.305079,0.794258,-0.0593556,0.0211213,0.0151313,-0.00721219,0.0168448,0.0251663
-0.103479,0.303399,0.794404,-0.0905405,0.000819428,0.0126964,-0.0114847,0.00361496,0.0135679
-0.103715,0.30184,0.794344,-0.0538625,-0.0209142,-0.000948657,-0.022428,-0.00847757,-0.0135508
-0.104235,0.301265,0.793808,-0.00429221,-0.0351172,-0.0480854,-0.0284325,-0.0126586,-0.0256393
-0.104384,0.300948,0.792796,-0.0389727,-0.00545078,-0.0357471,-0.00520942,-0.000632346,-0.0114005
-0.104384,0.300948,0.792796,-0.0389727,-0.00545078,-0.0357471,-0.00520942,-0.000632346,-0.0114005
-0.104555,0.300186,0.792729,-0.0178627,-0.0181333,0.0334889,-0.00459664,0.00906193,-0.0155572
-0.1051,0.300184,0.793207,0.00260493,0.0156282,0.00078997,-0.00755697,-0.00905222,-0.0232406
-0.105317,0.300411,0.793453,0.0386217,-0.0258849,0.0306559,-0.0205113,-0.00320548,-0.011076
-0.108175,0.302986,0.795064,0.24121,-0.211681,0.0603024,-0.05418,-0.0156088,-0.0180786
-0.1106,0.307204,0.794698,0.0714927,-0.0108084,-0.151306,-0.0488605,-0.0490153,-0.000852764
-0.107931,0.305543,0.790323,-0.195114,0.132727,-0.164055,-0.0192771,-0.00906453,0.0397024
-0.106524,0.302216,0.788379,-0.12583,-0.0542704,-0.0255686,0.00316105,0.0160053,0.0060305
-0.108122,0.301649,0.787746,0.0473838,-0.0717627,-0.0450453,0.00187351,0.000479251,-0.0337906
-0.109603,0.303528,0.786961,0.0802897,-0.0535752,-0.0543781,-0.0102711,-0.00772119,-0.0325936
-0.109964,0.305126,0.785925,0.0423847,-0.00296446,-0.0672885,-0.0171376,0.00407252,-0.0132251
-0.109878,0.305757,0.784507,0.0239375,-0.0412917,-0.0746637,-0.00819105,0.0050405,0.00217456
-0.110272,0.306476,0.782986,0.0416207,-0.0448009,-0.0802188,-0.00648413,0.00178969,0.00231457
-0.110742,0.307414,0.781176,0.0310205,-0.0570007,-0.107657,-0.0074883,0.00584197,0.0113677
-0.110368,0.30734,0.779067,-0.0845805,0.0350135,-0.0757063,0.00813515,0.0144841,0.0278936
-0.108865,0.304849,0.777516,-0.14293,0.063187,-0.05666,0.0119198,0.0248959,0.020221
-0.107592,0.302563,0.775878,-0.0972737,0.0277603,-0.070155,0.0194223,0.0100959,-0.00112402
-0.106939,0.301339,0.77431,-0.0452348,-0.00274937,-0.0627836,0.0220005,0.0180822,-0.00205332
-0.107264,0.301278,0.773301,0.00918207,-0.0448951,-0.0367737,0.0268578,0.0218998,0.00136471
-0.107554,0.301011,0.77256,-0.04253,-0.0118507,-0.0299136,0.0299037,0.0217516,0.012156
-0.107107,0.299508,0.77198,-0.100502,0.0309905,-0.00677388,0.0309301,0.0185301,0.00885969
-0.106749,0.297889,0.771368,-0.068827,0.0102777,-0.00762796,0.0209977,0.00433403,-0.00794911
-0.105791,0.295823,0.771271,-0.0971394,0.0321106,0.0138747,0.0142151,0.00652346,-0.0114012
-0.105374,0.294585,0.771268,-0.0151313,-0.0171552,0.00162547,0.00856197,-4.74751e-05,-0.0218652
-0.103891,0.293626,0.771112,-0.0689295,0.0734537,0.0121636,0.00283,-0.0101357,-0.0190449
-0.103117,0.292564,0.771698,-0.00707344,0.0171517,0.0455544,0.0142556,0.000703901,-0.0155199
-0.103404,0.293154,0.77258,0.0604276,-0.0331474,0.0386933,0.00866722,-0.00242391,-0.0154277
-0.104633,0.294312,0.773558,0.0720232,-0.0516785,0.0501883,0.00696393,-0.00638106,-0.0088796
-0.105074,0.295442,0.774736,0.0486283,0.0277111,0.0480537,-0.0104883,-0.00320992,-0.00717503
-0.104551,0.296205,0.775785,0.0529605,0.0279018,0.0393144,-0.0131299,-0.0109639,0.00284898
-0.104604,0.297227,0.776471,0.0425777,-0.00565645,0.00922665,-0.0214415,-0.0213542,0.0174389
-0.105335,0.297697,0.776389,0.0154261,-0.0585082,-0.000980011,-0.0183194,-0.0159301,0.0183883
-0.10655,0.297677,0.776515,-0.0200555,-0.0530783,0.00509988,-0.0126471,-0.0109449,0.00137997
-0.107417,0.297353,0.776712,-0.0021151,-0.0254607,0.0148348,-0.0175963,-0.0100032,-0.0275753
-0.107695,0.297896,0.776926,0.0292716,0.0234153,-0.00444124,-0.0139461,-0.0129484,-0.0408083
-0.107129,0.298931,0.777019,0.0832507,0.0342885,0.019032,-0.0100923,-0.0044665,-0.0306617
-0.10856,0.302552,0.778364,0.269616,-0.110561,0.032902,-0.0422959,-0.0184944,-0.0245816
-0.108523,0.306852,0.777674,0.0171161,0.202493,-0.163082,-0.040304,-0.0340466,0.00455081
-0.103253,0.303344,0.773978,-0.271115,0.192628,-0.085502,0.0228172,0.0219648,0.0494189
-0.100601,0.299368,0.773164,-0.102423,0.0223363,0.00762822,0.0277428,0.0235087,-0.00803316
-0.101665,0.30021,0.773479,0.163434,-0.0536456,0.00621972,0.0189173,0.00298095,-0.0441802
-0.102896,0.303882,0.77411,0.1585,-0.0379761,0.0130842,0.00610468,0.0105301,-0.00926912
-0.10373,0.306157,0.774719,0.0687815,-0.0262311,0.0199015,0.00111855,0.0154159,0.0168706
-0.104551,0.306896,0.775021,0.0366948,-0.0617688,0.000536671,-0.0053434,0.00167081,0.00754929
-0.10535,0.307743,0.774719,0.060416,-0.0396394,-0.0339162,-0.0236103,-0.00487685,-0.0127284
-0.105577,0.308934,0.773831,0.0564046,-0.0194832,-0.0571453,-0.0246076,0.00284997,-0.00914347
-0.10519,0.309742,0.772792,0.00469445,0.0437081,-0.0275927,-0.00672039,0.0142092,-0.00475633
-0.103124,0.308332,0.773178,-0.0977748,0.114866,0.0525002,0.00119376,0.029758,0.000772655
-0.101549,0.307007,0.773834,-0.0230187,0.0853104,0.0160918,-0.0099173,0.00565249,-0.0270256
-0.100766,0.307219,0.77407,0.0383222,0.0309551,0.00432883,-0.00778261,0.00478643,-0.0257474
-0.100545,0.308172,0.774482,0.0618323,0.025878,0.0181599,-0.00730415,0.0115998,-0.0226565
-0.10024,0.309278,0.775189,0.0687583,0.0296111,0.0392583,-0.000409514,0.0186961,-0.020795
-0.0998998,0.310358,0.776492,0.067168,0.0546369,0.0634245,-0.00448786,0.00905854,-0.026736
-0.0990485,0.311501,0.778006,0.0757897,0.0733664,0.0621798,-0.0273017,-0.00570723,-0.0340835
-0.0981935,0.313246,0.77923,0.133843,0.0420381,0.0291586,-0.0436367,-0.014163,-0.0434483
-0.0981935,0.313246,0.77923,0.133843,0.0420381,0.0291586,-0.0436367,-0.014163,-0.0434483
-0.0969809,0.316435,0.779674,0.164098,0.114914,-0.0125313,-0.0621076,-0.0338665,-0.0498118
-0.0953279,0.32012,0.779195,0.217107,0.0460171,-0.0593966,-0.0502769,-0.00152752,-0.0324068
-0.094679,0.325239,0.779045,0.282911,0.01098,0.00141617,-0.0274687,0.0209823,-0.0110001
-0.0948814,0.331121,0.78001,0.307685,0.027364,0.0130381,-0.0407173,0.0261231,0.00276512
-0.0945116,0.337022,0.780302,0.284693,0.0177921,-0.0472194,-0.0545537,0.0185902,0.025988
-0.0942979,0.342342,0.779627,0.239018,-0.0053106,-0.065269,-0.0474599,0.0353101,0.0506704
-0.0944059,0.346358,0.778704,0.16133,-0.0180442,-0.0592771,-0.0440379,0.057584,0.054484
-0.0943577,0.349125,0.777866,0.131533,-0.0102785,-0.0447278,-0.0424934,0.0601547,0.0400912
-0.0950554,0.351736,0.777473,0.131004,-0.0621371,-0.0275491,-0.0416512,0.0657653,0.0323316
-0.0967318,0.354205,0.777245,0.11668,-0.105276,-0.0239586,-0.0501463,0.0639779,0.0289052
-0.0992694,0.356,0.777044,0.0647112,-0.146046,-0.0189206,-0.0549349,0.0661644,0.0218409
-0.10226,0.356852,0.77691,0.0382199,-0.14365,-0.00649892,-0.0558688,0.0617133,-0.00887275
-0.104884,0.357938,0.777034,0.0909667,-0.10528,0.00230711,-0.0623588,0.0545219,-0.0407397
-0.106674,0.360296,0.777572,0.15863,-0.0466811,0.0179271,-0.0652812,0.0556303,-0.0335008
-0.107752,0.363382,0.7786,0.177243,-0.00999051,0.0283681,-0.0618779,0.0445704,0.00113267
-0.10802,0.36572,0.779242,0.0830261,0.0374501,-0.0178593,-0.0645271,0.0248278,0.0402246
-0.107233,0.365992,0.778448,-0.0326645,0.0236619,-0.0748383,-0.0679072,0.00967017,0.0534819
-0.105875,0.364385,0.775652,-0.121735,0.0280197,-0.175178,-0.0561837,-0.0017029,0.0371891
-0.102995,0.361637,0.770741,-0.180868,0.135159,-0.253265,-0.0301035,-0.00436363,0.00673258
-0.0970548,0.357921,0.765199,-0.234818,0.26658,-0.224177,-0.0119148,0.0164654,0.0118855
-0.090807,0.353542,0.760907,-0.244544,0.22753,-0.160895,-0.0116517,0.00595227,0.0244052
-0.0869284,0.349228,0.756887,-0.22895,0.0497819,-0.195774,-0.0254773,-0.0268616,0.0100944
-0.0874194,0.346303,0.752524,-0.0826415,-0.21119,-0.189858,-0.0313089,-0.0225925,-0.0236359
-0.0937446,0.348237,0.749365,0.244479,-0.465505,-0.169677,-0.0514309,-0.0251224,-0.086765
-0.0983619,0.351579,0.744612,-0.00783016,-0.140631,-0.348913,-0.0653507,-0.0434825,-0.0725133
-0.096433,0.352959,0.737685,0.0787854,0.040363,-0.276552,-0.00535503,-0.023251,-0.0914726
-0.0926329,0.354819,0.732206,0.0910119,0.112997,-0.238575,0.0181198,-0.00496545,-0.0382653
-0.089252,0.358085,0.727882,0.18305,0.0841112,-0.21086,0.0170736,-0.00394979,-0.00590938
-0.0878668,0.362366,0.724079,0.206466,-0.100018,-0.18346,0.0390254,-0.0072217,0.0478474
-0.0902662,0.366843,0.720583,0.210272,-0.251825,-0.191064,0.0370573,-0.0179165,0.0562508
-0.0945805,0.371404,0.716554,0.204536,-0.306937,-0.224896,0.0300935,-0.0145482,0.0456504
-0.0983422,0.375447,0.711803,0.145398,-0.232363,-0.249188,0.0244654,-0.00258979,0.0459812
-0.10018,0.378092,0.706648,0.0736758,-0.155431,-0.25286,0.0467144,0.00852141,0.0531749
-0.100635,0.379639,0.701246,0.033744,-0.0855218,-0.264209,0.0725142,0.00849432,0.0445216
-0.099791,0.380191,0.695778,-0.0309416,-0.044577,-0.245058,0.0825782,0.0215188,0.0514765
-0.0989699,0.37947,0.690944,-0.0803604,-0.0635641,-0.194014,0.111219,0.0252132,0.0499871
-0.0997313,0.377889,0.687203,-0.109665,-0.154704,-0.13797,0.13255,0.0209981,0.0359415
-0.101932,0.37562,0.684537,-0.150137,-0.136766,-0.0901157,0.125225,0.0220157,0.0131288
-0.103755,0.37184,0.682495,-0.246211,-0.135566,-0.0632495,0.105113,0.0279119,-0.00492954
-0.105869,0.366724,0.680514,-0.268663,-0.13899,-0.0755387,0.0823639,0.0144426,-0.0608705
-0.107364,0.362219,0.678028,-0.195576,-0.111202,-0.101267,0.0640265,0.016856,-0.102757
-0.108386,0.359578,0.675571,-0.0935248,-0.102612,-0.0872412,0.0657634,0.0263638,-0.107259
-0.109362,0.358587,0.673791,-0.0345827,-0.0660957,-0.0628928,0.0672132,0.0288389,-0.0877552
-0.110276,0.357852,0.672425,-0.0561828,-0.092932,-0.0562206,0.0587998,0.0277226,-0.0547557
-0.111374,0.356556,0.670782,-0.0828537,-0.0810511,-0.0846885,0.0429501,0.0158882,-0.0495973
-0.111536,0.354926,0.668166,-0.0940338,-0.0236448,-0.140394,0.0376252,0.0124533,-0.0507134
-0.109606,0.353491,0.664508,-0.0789504,0.0996218,-0.183518,0.0384756,0.0144793,-0.0490118
-0.104527,0.35272,0.66022,-0.0374511,0.250785,-0.202026,0.038236,0.0258565,-0.0429274
-0.0968933,0.352869,0.655915,0.0166405,0.346838,-0.198227,0.049796,0.0297195,-0.0277169
-0.0887465,0.354078,0.651916,0.0667617,0.306785,-0.183801,0.0560782,0.028778,-0.00674933
-0.0813977,0.355477,0.648113,0.0384111,0.301852,-0.182774,0.0698311,0.0316769,0.0158281
-0.0725684,0.355099,0.643668,-0.113297,0.442048,-0.23801,0.0682102,0.0148585,0.0114231
-0.0604007,0.351681,0.637739,-0.256089,0.553247,-0.297033,0.0505811,0.0134524,-0.00833631
-0.0463161,0.34658,0.63061,-0.274683,0.590905,-0.336433,0.0588359,0.0091477,-0.031233
-0.0463161,0.34658,0.63061,-0.274683,0.590905,-0.336433,0.0588359,0.0091477,-0.031233
-0.0327019,0.342144,0.623272,-0.188087,0.520885,-0.330675,0.0779048,0.0187201,-0.0432532
-0.0212581,0.339796,0.616758,-0.0621889,0.388286,-0.268735,0.0959688,0.0267764,-0.0419332
-0.0140354,0.339961,0.61209,0.0720117,0.185603,-0.175137,0.113451,0.0277257,-0.0279674
-0.010807,0.342334,0.609275,0.144879,0.0542189,-0.101411,0.126467,0.0236446,-0.0122897
-0.00986862,0.345091,0.607888,0.113511,0.00728496,-0.0302292,0.125315,0.0294139,0.00969392
-0.00921634,0.346562,0.608,0.0306831,0.0652195,0.0365024,0.117097,0.0258386,0.0143587
-0.00778903,0.346441,0.60918,-0.0400035,0.113335,0.072235,0.120119,0.0209032,0.0177528
-0.00563596,0.345244,0.611012,-0.0717591,0.176777,0.0979628,0.126733,0.0171372,0.00569052
-0.00108117,0.343559,0.613002,-0.0861265,0.29206,0.11515,0.136074,0.0261259,0.0101646
0.00565597,0.341522,0.615635,-0.102588,0.36332,0.173607,0.166378,0.0475525,0.0356301
0.0120857,0.339253,0.620208,-0.122798,0.379045,0.283201,0.201616,0.0679968,0.0618465
0.0177731,0.336874,0.627409,-0.122647,0.42454,0.400863,0.231213,0.0767999,0.0748692
0.0233044,0.334579,0.637181,-0.127038,0.452109,0.523421,0.250466,0.0866115,0.0887165
0.0284347,0.332283,0.649618,-0.141969,0.467101,0.645017,0.261454,0.101791,0.10541
0.0328914,0.329334,0.664395,-0.205,0.465557,0.742289,0.263544,0.108814,0.118323
0.0373787,0.324458,0.68086,-0.353546,0.528238,0.799121,0.258998,0.109597,0.108935
0.0436987,0.316217,0.698553,-0.536771,0.650552,0.854219,0.243775,0.123397,0.0617245
0.0508059,0.304638,0.717875,-0.706356,0.622508,0.939364,0.234986,0.139853,0.00925839
0.0555448,0.290407,0.739352,-0.818035,0.482348,1.04073,0.231049,0.142788,-0.0548248
0.0586993,0.274916,0.76313,-0.844071,0.533845,1.16228,0.198497,0.149029,-0.141398
0.0646193,0.260038,0.789743,-0.799902,0.776604,1.32373,0.175084,0.1547,-0.213463
0.0744727,0.246989,0.820194,-0.701452,0.955687,1.54271,0.168272,0.144052,-0.22322
0.0864666,0.23774,0.854781,-0.478073,1.08188,1.74045,0.108682,0.131319,-0.209813
0.100605,0.233719,0.89279,-0.28289,1.21883,1.91459,0.0144782,0.132491,-0.144946
0.115838,0.233664,0.933648,-0.159849,1.2314,2.03066,-0.0781825,0.0916207,-0.0538825
0.129704,0.23588,0.975168,-0.145386,1.08983,1.99792,-0.148738,0.0484421,0.0306244
0.139139,0.237077,1.01503,-0.277183,0.76671,1.85402,-0.190384,-0.0126508,0.0858496
0.140998,0.235177,1.05157,-0.391488,0.25309,1.64038,-0.24317,-0.0488759,0.0618826
0.133748,0.231859,1.0833,-0.346165,-0.212554,1.3713,-0.298039,-0.0609687,-0.0381671
0.122468,0.229282,1.10911,-0.267803,-0.289905,1.10969,-0.32682,-0.0714276,-0.166124
0.114809,0.225548,1.12871,-0.313699,0.146818,0.780051,-0.338157,-0.0880505,-0.236655
0.121373,0.221147,1.1456,-0.279816,0.760851,0.823383,-0.352563,-0.0360379,-0.319327
0.13424,0.221025,1.16207,0.0819583,0.845804,0.757857,-0.364437,-0.0640645,-0.280419
0.146235,0.22694,1.17518,0.289552,0.602109,0.618511,-0.348826,-0.072809,-0.11679
0.150797,0.235592,1.187,0.36827,0.13184,0.638188,-0.348255,-0.059123,-0.00048089
0.14845,0.243966,1.19716,0.302883,-0.0807172,0.444356,-0.358094,-0.0823298,0.0385112
0.144948,0.249702,1.20286,0.163958,-0.113884,0.190929,-0.330559,-0.0964216,0.0609214
0.142274,0.251223,1.20465,-0.0364357,-0.125344,0.0252858,-0.251434,-0.084602,0.0873929
0.139227,0.248697,1.20494,-0.210189,-0.171347,-0.0219623,-0.177888,-0.0475295,0.0926526
0.135207,0.243407,1.2055,-0.313774,-0.204967,0.00863131,-0.109658,-0.0312213,0.0720624
0.130405,0.237204,1.20732,-0.306253,-0.253408,0.100221,-0.0639255,-0.0235283,0.0338598
0.12315,0.232989,1.21122,-0.145481,-0.377312,0.21274,-0.041227,-0.0315492,-0.00939417
0.113966,0.232497,1.21624,0.026749,-0.425003,0.255977,-0.0449862,-0.0503996,-0.0190278
0.10391,0.234747,1.22134,0.12931,-0.464085,0.252693,-0.0325802,-0.066384,0.0143397
0.0931759,0.238021,1.22566,0.147504,-0.516678,0.199393,-0.00330552,-0.0729205,0.0691687
0.0808702,0.241083,1.22922,0.117165,-0.644384,0.171737,-0.00094641,-0.056366,0.128322
0.0654303,0.242681,1.23252,0.0112836,-0.80268,0.170318,0.0332731,-0.0587354,0.166023
0.0474843,0.241613,1.23582,-0.153631,-0.909873,0.137749,0.0466552,-0.0531658,0.170314
0.0285215,0.236807,1.23886,-0.329903,-0.91078,0.160175,0.102604,-0.0317425,0.143404
0.0102752,0.22901,1.24323,-0.446163,-0.806301,0.259195,0.137256,-0.0275642,0.0756927
-0.00586495,0.220084,1.24975,-0.434513,-0.65523,0.37811,0.145219,-0.0104328,-0.00271434
-0.019054,0.211953,1.25863,-0.383007,-0.465275,0.500882,0.136333,-0.00760174,-0.044452
-0.0269979,0.202431,1.26973,-0.513968,-0.160836,0.593171,0.0815429,-0.0660543,-0.0386289
-0.0314909,0.192921,1.28154,-0.383702,-0.0341304,0.589636,0.0334193,-0.0642393,-0.0747023
-0.0314909,0.192921,1.28154,-0.383702,-0.0341304,0.589636,0.0334193,-0.0642393,-0.0747023
-0.0319932,0.186663,1.29285,-0.216083,0.181612,0.534559,0.045104,-0.0837214,-0.0711423
-0.0282064,0.183124,1.30326,-0.123554,0.39223,0.520404,0.0805723,-0.0731006,-0.0243443
-0.0205204,0.180508,1.3145,-0.119066,0.583636,0.604487,0.106596,-0.0532278,0.0266516
-0.00945925,0.177987,1.32793,-0.113935,0.771019,0.726315,0.101351,-0.0387864,0.0521206
0.00521942,0.175059,1.34386,-0.200148,0.954542,0.83677,0.102862,-0.0464914,0.101143
0.0224376,0.169587,1.36108,-0.377731,1.07212,0.840937,0.0817222,-0.0964226,0.134546
0.0429842,0.161371,1.37994,-0.494604,1.20813,1.00408,0.109809,-0.0686373,0.102292
0.0618245,0.152994,1.40081,-0.422746,1.03139,0.976355,0.0827355,-0.0791999,0.07098
0.0771757,0.147245,1.42078,-0.295709,0.775995,0.99946,0.112258,-0.0914455,0.0626354
0.0872358,0.144504,1.44267,-0.159685,0.569263,1.14237,0.124034,-0.0864668,0.0385793
0.0932392,0.144646,1.4668,-0.0539325,0.392904,1.22889,0.0921638,-0.0790026,0.0345294
0.0965786,0.146095,1.49161,-0.0557239,0.300837,1.22853,0.0473142,-0.101631,0.0512801
0.0977058,0.146467,1.51594,-0.148343,0.177339,1.17145,0.0366881,-0.111778,0.0645459
0.0975953,0.144836,1.53934,-0.233839,0.16312,1.12904,0.032715,-0.120669,0.0435213
0.098237,0.142135,1.56218,-0.240844,0.233499,1.10258,0.0122545,-0.112891,-0.000132143
0.100629,0.140214,1.58463,-0.159829,0.320911,1.10974,0.00398078,-0.110321,-0.0352852
0.104442,0.140264,1.60755,-0.0726275,0.375055,1.15755,0.00227071,-0.109127,-0.0380895
0.10875,0.142122,1.63097,0.00779559,0.3884,1.17638,-0.00478033,-0.116123,-0.0306702
0.113358,0.145574,1.65437,0.071187,0.411751,1.17005,-0.0230213,-0.13059,-0.0325371
0.118653,0.149682,1.67713,0.0668808,0.447193,1.10672,-0.0541544,-0.14177,-0.020972
0.124351,0.153241,1.69802,0.0414668,0.44269,0.994854,-0.0727112,-0.150733,-0.0163589
0.130318,0.156665,1.71706,0.0671262,0.435393,0.929027,-0.0665289,-0.143459,-0.0321733
0.1349,0.160694,1.73509,0.0940799,0.2918,0.897581,-0.0624155,-0.120987,-0.0388805
0.135594,0.165117,1.7524,0.106811,0.0537343,0.852361,-0.0673001,-0.108627,-0.071071
0.131889,0.168976,1.76821,0.0466737,-0.14311,0.737132,-0.0828657,-0.0949645,-0.134086
0.12559,0.170359,1.78139,-0.0833682,-0.251165,0.563192,-0.0965613,-0.0817914,-0.209051
0.118765,0.16899,1.79106,-0.15428,-0.245531,0.376133,-0.0887828,-0.0586195,-0.292078
0.114162,0.167338,1.79766,-0.0693496,-0.0665004,0.271064,-0.082873,-0.00264655,-0.353517
0.115273,0.168123,1.80317,0.0942336,0.274131,0.301389,-0.0678183,0.0593308,-0.353833
0.122654,0.172769,1.81003,0.279071,0.571667,0.432243,-0.0299034,0.0972346,-0.265437
0.13464,0.181013,1.81911,0.420591,0.773468,0.563558,-0.0018675,0.106098,-0.151797
0.148922,0.192111,1.83035,0.515983,0.83763,0.689533,-0.00294229,0.116591,-0.0369824
0.162032,0.205256,1.84372,0.580826,0.725573,0.806884,-0.00476973,0.116645,0.0533587
0.171712,0.220066,1.85863,0.632685,0.563573,0.867965,-0.00917122,0.110903,0.115615
0.178371,0.235697,1.87406,0.634178,0.474341,0.883991,-0.0167446,0.121048,0.15889
0.183813,0.250335,1.88959,0.52735,0.449367,0.865198,-0.00801513,0.117052,0.188226
0.188535,0.262161,1.90478,0.356146,0.40415,0.793718,0.00880343,0.102475,0.189166
0.191879,0.269792,1.91877,0.130709,0.297851,0.673582,0.0514552,0.091085,0.164568
0.193467,0.272253,1.93132,-0.126937,0.205907,0.566468,0.0771487,0.101422,0.110146
0.193804,0.269399,1.94292,-0.377461,0.133692,0.476068,0.0777659,0.12188,0.0364765
0.192308,0.261669,1.95349,-0.554658,-0.0123935,0.376446,0.0992251,0.122264,-0.065107
0.188538,0.252341,1.96243,-0.487597,-0.124725,0.303189,0.128083,0.135688,-0.195222
0.183937,0.246064,1.96994,-0.254841,-0.127994,0.316394,0.141043,0.182157,-0.261204
0.180485,0.244994,1.9784,-0.00531638,0.00790766,0.499395,0.175051,0.225598,-0.242351
0.179798,0.24951,1.99091,0.224249,0.238245,0.77708,0.180269,0.239956,-0.177538
0.182813,0.258489,2.00787,0.334299,0.494579,0.964954,0.132028,0.210088,-0.0673535
0.190179,0.268156,2.0264,0.269507,0.707832,0.96555,0.0743897,0.142838,0.0580209
0.20075,0.275778,2.04447,0.140129,0.821556,0.886741,0.00251219,0.0900601,0.151355
0.212455,0.280879,2.06092,0.0481829,0.766183,0.76851,-0.0417089,0.0423375,0.206131
0.221381,0.284826,2.07512,0.0592145,0.504475,0.652759,-0.0587221,-3.0309e-05,0.227518
0.224827,0.288993,2.08675,0.0975113,0.18315,0.528943,-0.074929,-0.0242776,0.229085
0.223812,0.292654,2.09565,0.0491232,-0.000786527,0.386077,-0.101595,-0.0357547,0.217933
0.221088,0.29378,2.10214,-0.0854727,-0.070197,0.239832,-0.119198,-0.0454956,0.188573
0.221088,0.29378,2.10214,-0.0854727,-0.070197,0.239832,-0.119198,-0.0454956,0.188573
0.218707,0.29161,2.10595,-0.192751,-0.0467924,0.0679566,-0.117521,-0.0649073,0.131424
0.217778,0.287643,2.10661,-0.188204,-0.0354844,-0.0818249,-0.108718,-0.0604231,0.0742661
0.217719,0.284136,2.10455,-0.107752,-0.0174238,-0.181557,-0.0867975,-0.0561893,0.0336334
0.218995,0.281315,2.10045,-0.102681,0.0459495,-0.258856,-0.0722651,-0.0545036,0.0475333
0.222028,0.277057,2.0956,-0.23384,0.120912,-0.292231,-0.0582312,-0.059344,0.0913754
0.226437,0.268867,2.09085,-0.473103,0.179666,-0.343214,-0.046336,-0.0728921,0.118463
0.231322,0.255821,2.08588,-0.668186,0.176714,-0.434655,-0.0528733,-0.101681,0.0930998
0.236012,0.240611,2.07914,-0.619368,0.113829,-0.558092,-0.0676362,-0.125504,0.009516
0.239021,0.228179,2.06967,-0.357247,-0.0489681,-0.619906,-0.0585416,-0.117653,-0.0360348
0.238074,0.221324,2.05879,-0.0718133,-0.295426,-0.567154,-0.0130986,-0.114539,-0.0284728
0.232184,0.218937,2.04789,0.050968,-0.52766,-0.536318,0.0139,-0.11841,0.00234967
0.222484,0.217344,2.03697,0.0350193,-0.667027,-0.540728,0.0244366,-0.142685,-0.00633448
0.211327,0.215844,2.02572,0.061404,-0.654604,-0.581334,0.0149278,-0.160874,-0.0795718
0.203321,0.21455,2.01283,0.0420159,-0.41912,-0.693346,-0.0105255,-0.177702,-0.131586
0.199836,0.21033,1.99734,-0.183885,-0.301655,-0.886977,-0.0274926,-0.16869,-0.103787
0.196818,0.199692,1.97839,-0.486876,-0.415881,-1.16339,-0.0341468,-0.169354,-0.113975
0.191601,0.18361,1.95431,-0.603554,-0.547153,-1.46812,-0.00366642,-0.132117,-0.219798
0.185852,0.1675,1.92551,-0.431751,-0.49791,-1.60037,0.0461801,-0.0500028,-0.330597
0.183177,0.156429,1.8955,-0.124201,-0.247638,-1.49189,0.0806592,0.0579373,-0.368442
0.185314,0.151678,1.86848,0.133596,0.0284966,-1.20803,0.0873004,0.137074,-0.30372
0.190773,0.152483,1.84693,0.358201,0.180052,-0.874393,0.0536711,0.176307,-0.210595
0.19665,0.15824,1.82999,0.535051,0.135234,-0.689045,-0.0187345,0.177936,-0.11281
0.201005,0.167084,1.81556,0.598275,0.0816385,-0.525949,-0.060155,0.192782,-0.0399591
0.205122,0.177548,1.8044,0.665124,0.159571,-0.359625,-0.0880124,0.18092,-0.0192496
0.21181,0.190206,1.79481,0.761188,0.346572,-0.337516,-0.174792,0.168248,-0.00535744
0.222638,0.203117,1.78354,0.718222,0.497103,-0.483251,-0.249452,0.135744,0.0452493
0.235579,0.213161,1.76929,0.565394,0.473482,-0.648669,-0.273397,0.119128,0.102242
0.246725,0.218455,1.75235,0.342388,0.269117,-0.844638,-0.254264,0.0923018,0.1306
0.254086,0.218462,1.73241,0.161408,0.0366933,-1.03692,-0.234065,0.0796889,0.101154
0.257607,0.215627,1.71016,0.142498,-0.148781,-1.1238,-0.213223,0.101183,0.0427229
0.258929,0.213252,1.68697,0.213655,-0.188466,-1.12626,-0.196336,0.116852,-0.00779259
0.26062,0.212502,1.66416,0.277507,-0.119477,-1.04639,-0.172706,0.119278,-0.0149154
0.263482,0.213009,1.64307,0.293897,-0.0506674,-0.935691,-0.154705,0.101478,0.00238383
0.266481,0.213425,1.62431,0.21891,-0.0473419,-0.827271,-0.139764,0.0798814,0.0459191
0.268563,0.213068,1.60776,0.180688,-0.111384,-0.757037,-0.135155,0.0370368,0.0479107
0.268818,0.21268,1.59192,0.197173,-0.198084,-0.763201,-0.155818,0.0036521,0.0364492
0.267593,0.21282,1.5751,0.249229,-0.255113,-0.837536,-0.17791,-0.0253852,0.0140023
0.266183,0.21303,1.5559,0.251569,-0.303302,-0.972126,-0.169046,-0.0352055,0.00693774
0.263491,0.212086,1.5348,0.188471,-0.40726,-1.04112,-0.142892,-0.024013,0.010245
0.258586,0.20963,1.51332,0.124297,-0.532889,-1.05909,-0.114435,-0.0126047,-0.0190114
0.251813,0.206593,1.49161,0.117246,-0.564361,-1.09374,-0.101116,-0.00465122,-0.0853041
0.246305,0.20243,1.46891,0.0023217,-0.411756,-1.17513,-0.0725382,0.0174418,-0.119624
0.245475,0.194774,1.44542,-0.188062,-0.11918,-1.25103,-0.0387755,0.0371727,-0.144862
0.250425,0.183822,1.42166,-0.274039,0.169228,-1.27062,-0.0260658,0.0594363,-0.155013
0.260187,0.17318,1.39889,-0.166373,0.374383,-1.14972,-0.0334271,0.066786,-0.165514
0.270063,0.166127,1.37897,0.00973151,0.281261,-0.945472,-0.0626647,0.0468793,-0.15271
0.278561,0.164121,1.3608,0.297399,0.269975,-0.87913,-0.07772,0.00977521,-0.137573
0.286733,0.167672,1.34041,0.598132,0.213537,-0.96206,-0.0791775,-0.0115028,-0.124835
0.295004,0.175365,1.3172,0.764838,0.243148,-1.00242,-0.0909565,-0.0197315,-0.0840422
0.305536,0.183976,1.29314,0.74254,0.37716,-1.00884,-0.109266,-0.00317122,-0.018509
0.318,0.191465,1.26935,0.702368,0.421651,-0.993282,-0.108193,0.0105031,0.0402019
0.331528,0.198279,1.24557,0.687471,0.478146,-1.01845,-0.0877725,0.00766629,0.0764037
0.345909,0.203806,1.22109,0.639338,0.472564,-1.06554,-0.0714756,0.00597119,0.100893
0.361226,0.207877,1.19593,0.592291,0.565792,-1.11821,-0.0707274,-0.00211269,0.096706
0.361226,0.207877,1.19593,0.592291,0.565792,-1.11821,-0.0707274,-0.00211269,0.096706
0.378796,0.210311,1.16994,0.570155,0.6449,-1.16294,-0.0841576,0.00658551,0.092629
0.396429,0.212933,1.14362,0.66355,0.544775,-1.1177,-0.0865887,0.0116052,0.0975203
0.410865,0.218366,1.11735,0.855526,0.332094,-1.04242,-0.0830487,-0.00120008,0.101273
0.420608,0.227396,1.09029,1.02623,0.0539548,-1.02767,-0.091499,-0.0167001,0.109083
0.425409,0.238436,1.06211,1.0967,-0.224085,-1.02262,-0.0993513,-0.0243608,0.128737
0.425437,0.249776,1.03394,1.05449,-0.425629,-1.00978,-0.116418,-0.0311483,0.149698
0.423159,0.259422,1.0064,0.906022,-0.470146,-1.04058,-0.126302,-0.0442897,0.168151
0.420346,0.265398,0.98002,0.689669,-0.507697,-1.03703,-0.1341,-0.062612,0.183657
0.41591,0.268322,0.955425,0.563848,-0.583849,-1.03368,-0.157891,-0.0826191,0.160261
0.411108,0.269956,0.929932,0.585264,-0.557985,-1.18947,-0.191258,-0.115529,0.0914564
0.408688,0.269949,0.899997,0.533872,-0.463349,-1.47259,-0.178546,-0.125331,0.0751753
0.409508,0.265444,0.866164,0.341129,-0.373983,-1.68489,-0.110485,-0.115424,0.0908622
0.411812,0.256474,0.831341,0.191125,-0.261864,-1.75878,-0.0193038,-0.110282,0.0529108
0.41732,0.244601,0.796719,0.0535168,-0.0509859,-1.8091,0.0813469,-0.127703,0.010197
0.425131,0.228064,0.762443,-0.21618,-0.0302252,-1.93374,0.157489,-0.142316,-0.018168
0.43023,0.205312,0.727771,-0.41743,-0.208599,-2.10086,0.25797,-0.141602,-0.122578
0.43127,0.179439,0.691582,-0.429185,-0.377302,-2.20648,0.375995,-0.0952494,-0.245677
0.428428,0.154698,0.654326,-0.252606,-0.522595,-2.15648,0.431973,0.00298899,-0.332291
0.421023,0.136257,0.617392,0.0690988,-0.757194,-1.91179,0.435609,0.085192,-0.37542
0.409191,0.126934,0.584237,0.412617,-0.791804,-1.46788,0.386386,0.136588,-0.375766
0.400234,0.128294,0.557045,0.774406,-0.408629,-0.960014,0.296003,0.153501,-0.348638
0.400067,0.14003,0.537032,1.06725,0.157838,-0.406965,0.202375,0.155168,-0.257475
0.411248,0.160036,0.525318,1.2007,0.768992,0.113123,0.153252,0.117713,-0.133954
0.432227,0.184294,0.521281,1.15919,1.24965,0.485705,0.104115,0.0784707,0.00963229
0.459767,0.20886,0.522545,0.989772,1.48719,0.656072,0.034242,0.0651936,0.127611
0.487635,0.230184,0.526809,0.712067,1.32447,0.676154,0.00283474,0.0675276,0.222752
0.507584,0.245839,0.533152,0.366197,0.797495,0.60035,0.0124643,0.0759359,0.271336
0.514956,0.253835,0.541045,-0.0702657,0.128671,0.467868,0.0641479,0.0862471,0.264607
0.508779,0.252371,0.552232,-0.575886,-0.420934,0.420304,0.139525,0.113882,0.182818
0.492711,0.243232,0.567302,-0.89696,-0.81597,0.439323,0.14488,0.194347,0.0354785
0.468799,0.231601,0.585363,-0.895772,-1.1241,0.610227,0.140051,0.255125,-0.0839783
0.43989,0.224513,0.606563,-0.620607,-1.29225,0.967909,0.101388,0.306082,-0.134267
0.407807,0.226975,0.632934,-0.206649,-1.2928,1.49366,0.0279428,0.316203,-0.141639
0.375944,0.240411,0.666019,0.211144,-1.13175,1.97827,-0.0492643,0.289082,-0.122713
0.346223,0.262741,0.704256,0.564682,-0.881753,2.24282,-0.123172,0.233728,-0.085151
0.320535,0.290558,0.743811,0.806835,-0.622527,2.24365,-0.208881,0.170246,-0.0301366
0.29966,0.320653,0.781172,0.963919,-0.327383,2.06035,-0.28137,0.125718,0.0260773
0.285119,0.350624,0.814097,0.99185,-0.0728766,1.77581,-0.323424,0.0997098,0.103422
0.27437,0.376538,0.841302,0.752237,-0.0667722,1.37762,-0.339621,0.0644804,0.195834
0.264951,0.393132,0.861956,0.339161,-0.092841,0.915402,-0.331531,0.0223049,0.282854
0.25743,0.399654,0.875604,-0.0235921,-0.135599,0.473117,-0.329259,-0.0108175,0.299608
0.251322,0.397789,0.882045,-0.288157,-0.225075,0.0584863,-0.327686,-0.029764,0.285291
0.24629,0.389861,0.881216,-0.450679,-0.312402,-0.3258,-0.310885,-0.0463165,0.242234
0.242243,0.377779,0.872959,-0.519905,-0.408618,-0.706606,-0.304981,-0.0589691,0.17374
0.238472,0.364043,0.857755,-0.478438,-0.516576,-0.986893,-0.284138,-0.0306938,0.143753
0.234795,0.349704,0.837356,-0.486257,-0.54624,-1.20668,-0.244014,-0.0284126,0.131745
0.231981,0.3331,0.813256,-0.62143,-0.559553,-1.38613,-0.220931,-0.0147157,0.140254
0.228563,0.31288,0.786852,-0.76482,-0.637938,-1.52161,-0.183656,-0.0281067,0.128931
0.221448,0.290944,0.75916,-0.748581,-0.92727,-1.54206,-0.154519,-0.0392845,0.0940955
0.207465,0.271047,0.730668,-0.629762,-1.25978,-1.57055,-0.160115,-0.0258996,0.0709735
0.187221,0.253269,0.701606,-0.564388,-1.50773,-1.52077,-0.147965,-0.0403696,0.0563754
0.163188,0.237173,0.67378,-0.577438,-1.53241,-1.44713,-0.160144,-0.0659629,0.0414898
0.139914,0.220449,0.646483,-0.683632,-1.41773,-1.44252,-0.187444,-0.0833185,0.0432901
0.117878,0.20266,0.619724,-0.738426,-1.38077,-1.37964,-0.184671,-0.0815762,0.0647476
0.117878,0.20266,0.619724,-0.738426,-1.38077,-1.37964,-0.184671,-0.0815762,0.0647476
0.0958077,0.184086,0.593599,-0.861879,-1.33314,-1.4164,-0.202367,-0.108868,0.0613896
0.075481,0.163415,0.56473,-0.913096,-1.19034,-1.60189,-0.242175,-0.127778,-0.0616336
0.0584502,0.144958,0.532315,-0.693016,-1.01852,-1.7127,-0.205662,-0.11919,-0.266756
0.0435897,0.132105,0.497829,-0.438945,-0.994326,-1.77354,-0.141905,-0.0980152,-0.376949
0.026834,0.123132,0.461711,-0.370269,-1.14276,-1.85523,-0.0600139,-0.0821658,-0.414743
0.00915608,0.114547,0.423275,-0.439429,-1.03159,-2.00507,-0.0637529,-0.07476,-0.430286
-0.00500979,0.104287,0.380712,-0.606872,-0.904359,-2.24315,-0.10131,-0.0180334,-0.388838
-0.0202286,0.0910444,0.333863,-0.762335,-1.10448,-2.39384,-0.040617,0.0455391,-0.358105
-0.0404643,0.0777176,0.285311,-0.696042,-1.32122,-2.39636,0.0414298,0.0831173,-0.399434
-0.0652503,0.0683457,0.238246,-0.473279,-1.48143,-2.22462,0.142093,0.140726,-0.427569
-0.091234,0.0651312,0.196875,-0.165866,-1.34573,-1.85317,0.236743,0.201346,-0.429168
-0.111394,0.0684511,0.164771,0.174768,-0.838739,-1.36344,0.315737,0.220879,-0.387157
-0.12051,0.0777926,0.143787,0.503543,-0.262496,-0.833536,0.338911,0.229493,-0.286012
-0.121417,0.0918214,0.133511,0.744741,0.0489904,-0.37173,0.3391,0.229601,-0.15873
-0.118585,0.108251,0.131822,0.858447,0.203379,-0.00737217,0.278641,0.223152,-0.050967
-0.114193,0.125752,0.136229,0.936241,0.271831,0.208534,0.163979,0.208627,-0.00398195
-0.110143,0.144686,0.143202,1.02334,0.229858,0.236521,0.0077889,0.193589,-0.00590116
-0.105834,0.164752,0.14901,1.01793,0.325161,0.086843,-0.103298,0.178045,-0.0136434
-0.0976277,0.183628,0.149528,0.839633,0.527323,-0.253896,-0.19332,0.171382,-0.0145817
-0.0827906,0.198172,0.141535,0.531578,0.810041,-0.666487,-0.225594,0.166146,0.0434
-0.0610684,0.206131,0.124774,0.135138,1.00153,-0.998854,-0.213531,0.192803,0.144318
-0.0362084,0.205865,0.102794,-0.249556,1.01221,-1.13674,-0.117701,0.165138,0.255343
-0.0129097,0.199112,0.0801732,-0.448287,0.836216,-1.0248,-0.125926,0.166977,0.307614
0.00875697,0.188696,0.059725,-0.597348,0.982124,-0.945287,0.0365646,0.154223,0.315189
0.031438,0.175827,0.0450837,-0.650713,0.957685,-0.526194,0.0198636,0.0293541,0.336116
0.050101,0.163228,0.036758,-0.556877,0.755157,-0.402976,-0.0730655,0.0316297,0.288876
0.0630901,0.153335,0.0290352,-0.395245,0.434889,-0.417198,-0.0958168,-0.0100767,0.244648
0.0711774,0.146308,0.0211621,-0.276175,0.274406,-0.402763,-0.062011,-0.0601769,0.191721
0.0765671,0.140272,0.0136915,-0.29536,0.153626,-0.393183,-0.0664484,-0.0944098,0.187762
0.0825376,0.131684,0.00657902,-0.542434,0.315804,-0.386105,-0.0407908,-0.114012,0.167914
0.0841646,0.119904,0.000180755,-0.568208,-0.195283,-0.365481,-0.0447807,-0.183117,0.194521
0.076154,0.106428,-0.0066214,-0.727451,-0.747259,-0.415065,-0.0171478,-0.232777,0.170598
0.0580246,0.0902789,-0.0147357,-0.816954,-1.10797,-0.51813,-0.0248122,-0.24749,0.0637096
0.0347192,0.074193,-0.0256933,-0.707626,-1.28938,-0.658338,-0.0582526,-0.238192,-0.0589856
0.00938444,0.0634514,-0.0399856,-0.28823,-1.32154,-0.793127,-0.0715297,-0.195655,-0.190762
-0.00767682,0.066535,-0.053015,0.663811,-0.282481,-0.398228,0.0625304,-0.30177,-0.32791
-0.00832206,0.0853538,-0.0561237,1.02405,-0.104132,-0.0365598,0.04888,-0.161683,-0.276563
-0.0145182,0.107258,-0.0549003,1.15772,-0.292574,0.112405,-0.0318457,-0.0382268,-0.15644
-0.0173383,0.131,-0.0510529,1.19033,0.0440007,0.243531,0.0225447,-0.00346853,-0.0724074
-0.015418,0.153643,-0.0455873,1.0736,0.200329,0.230376,0.054695,0.0619442,-0.0677903
-0.00928637,0.173492,-0.0414819,0.885793,0.493816,0.160109,0.0500556,0.0584723,-0.087427
-0.00113953,0.187582,-0.0385709,0.505661,0.254777,0.124812,-0.00673874,-0.00899602,-0.0954235
-0.00305121,0.194831,-0.0354302,0.275672,-0.398996,0.205414,-0.0761234,-0.105746,-0.21915
-0.0176544,0.201007,-0.0309049,0.398274,-0.937399,0.216214,-0.157446,-0.143621,-0.431389
-0.0386056,0.21181,-0.0266899,0.686763,-0.968447,0.15302,-0.210481,-0.0799007,-0.508413
-0.0531206,0.226169,-0.0241573,0.705073,-0.356381,0.0323567,-0.220504,0.077258,-0.379259
-0.0524642,0.238343,-0.0233647,0.511814,0.422408,-0.00793562,-0.206107,0.195489,-0.18427
-0.038258,0.247149,-0.0232295,0.404536,0.941393,-0.0237149,-0.182304,0.184673,-0.0410901
-0.0172201,0.256262,-0.0242936,0.55152,1.09587,-0.114574,-0.197836,0.137469,0.0366741
0.00544467,0.270982,-0.0277839,0.945926,1.07517,-0.232819,-0.178937,0.114998,0.0852135
0.0281475,0.294567,-0.0343321,1.43891,0.998368,-0.349989,-0.156952,0.151532,0.146185
0.0502779,0.327962,-0.0440974,1.91822,0.981313,-0.45976,-0.118242,0.205583,0.194665
0.0735536,0.367398,-0.0576363,1.90835,0.541436,-0.561444,-0.0790049,0.253079,0.229387
0.0697453,0.391814,-0.0702691,0.699786,-0.965805,-0.375489,0.0688932,0.164291,0.408162
0.0697453,0.391814,-0.0702691,0.699786,-0.965805,-0.375489,0.0688932,0.164291,0.408162
0.0564286,0.398691,-0.077834,0.027498,-0.744121,-0.356197,-0.038334,0.124891,0.234923
0.0433933,0.392511,-0.0880536,-0.541105,-0.883705,-0.609573,-0.160579,0.16495,0.033708
0.0321885,0.37887,-0.102066,-0.728498,-0.798591,-0.730024,-0.13775,0.163511,-0.163714
0.0230061,0.365434,-0.118582,-0.52149,-0.660691,-0.861601,-0.139893,0.210748,-0.327677
0.0208027,0.358444,-0.137728,-0.142752,-0.218452,-0.910526,-0.126397,0.261874,-0.323326
0.0266405,0.357937,-0.156005,0.0890583,0.125567,-0.797684,-0.0774699,0.247301,-0.179205
0.037307,0.359658,-0.17181,0.105059,0.397771,-0.698578,-0.0470579,0.210245,-0.00660479
0.0532041,0.360155,-0.186955,-0.00551974,0.638897,-0.744608,-0.0596549,0.194964,0.14866
0.0732838,0.357472,-0.204323,-0.166204,0.744709,-0.897004,-0.0464645,0.185951,0.246938
0.0949748,0.350964,-0.223671,-0.333735,0.74846,-0.960233,-0.00201517,0.139427,0.308757
0.115384,0.340695,-0.242982,-0.503533,0.630518,-0.954852,0.031809,0.0904444,0.337119
0.13221,0.326582,-0.261278,-0.688993,0.450053,-0.954144,0.055532,0.0640325,0.3449
0.144786,0.309051,-0.279914,-0.78239,0.233848,-1.06102,0.0264648,0.0814525,0.282804
0.153148,0.290915,-0.30088,-0.690593,-0.026145,-1.18704,0.0404898,0.0366461,0.198371
0.157196,0.275436,-0.324094,-0.490069,-0.180688,-1.25786,0.075822,0.0146731,0.103411
0.159479,0.263319,-0.348899,-0.356125,-0.265314,-1.28644,0.110098,0.0045183,0.0426956
0.159275,0.25206,-0.37431,-0.375362,-0.412546,-1.34917,0.144566,-0.0171565,0.0165681
0.156443,0.240128,-0.401967,-0.372022,-0.531323,-1.49566,0.142305,-0.0173305,-0.0219234
0.152333,0.228861,-0.432045,-0.280982,-0.562203,-1.56493,0.195245,-0.0160975,-0.0732567
0.149339,0.219766,-0.463091,-0.169693,-0.387951,-1.56367,0.237148,-0.00317457,-0.107516
0.152066,0.212385,-0.493321,-0.14376,0.0347499,-1.45555,0.282007,-0.00605045,-0.111386
0.162979,0.204828,-0.520592,-0.184402,0.494995,-1.31523,0.31263,-0.0278637,-0.101414
0.182049,0.197031,-0.545336,-0.153779,0.913115,-1.22177,0.326608,-0.0757868,-0.103073
0.209312,0.189865,-0.568911,-0.123474,1.37933,-1.21435,0.312442,-0.133875,-0.0799466
0.245574,0.180409,-0.592565,-0.312218,1.78138,-1.28524,0.272231,-0.173397,-0.0136555
0.285134,0.164795,-0.616627,-0.565444,1.65117,-1.43341,0.245962,-0.209729,-0.01523
0.315633,0.143578,-0.642898,-0.651452,0.942202,-1.68001,0.273205,-0.201321,-0.151604
0.332104,0.121918,-0.672081,-0.429754,0.422598,-1.72023,0.321956,-0.127362,-0.345304
0.343421,0.107374,-0.70108,0.0253075,0.415854,-1.43748,0.296058,0.0393574,-0.457476
0.356581,0.1044,-0.725053,0.503501,0.701684,-0.893694,0.284435,0.140556,-0.422911
0.375493,0.112624,-0.741579,0.80973,0.978937,-0.336899,0.215274,0.160512,-0.272131
0.397729,0.128032,-0.748279,0.847504,1.14149,0.276211,0.122116,0.156949,-0.103944
0.422411,0.14721,-0.745211,0.772462,1.33924,0.777595,-0.0189911,0.18011,0.0489818
0.445201,0.167946,-0.732772,0.602361,1.09764,1.17295,-0.1348,0.149229,0.155375
0.461331,0.188789,-0.714166,0.469516,0.853549,1.37369,-0.202184,0.109712,0.21767
0.469977,0.208517,-0.691834,0.308748,0.402925,1.45387,-0.249635,0.0602507,0.247724
0.464996,0.225322,-0.66812,0.162149,-0.423634,1.34463,-0.303021,0.0297861,0.267637
0.44115,0.238074,-0.646881,0.0817643,-1.48504,1.05379,-0.328572,-0.00667673,0.225985
0.399294,0.246295,-0.631261,0.0416098,-2.28048,0.67252,-0.34867,-0.00252558,0.147942
0.346894,0.250497,-0.622356,0.0331736,-2.69644,0.283079,-0.379859,0.0254121,0.0361732
0.293565,0.252588,-0.621176,0.154254,-2.49991,-0.0974074,-0.379534,0.0573907,-0.0817764
0.253025,0.256037,-0.627254,0.296729,-1.75115,-0.362797,-0.339265,0.0706013,-0.15204
0.226296,0.25851,-0.6373,0.131552,-1.18817,-0.49924,-0.263331,0.104319,-0.0900881
0.211111,0.255519,-0.647168,-0.238506,-0.602661,-0.479798,-0.193481,0.114305,-0.0104912
0.20527,0.245761,-0.654221,-0.537897,-0.190612,-0.397739,-0.156767,0.100762,0.00134724
0.204936,0.233188,-0.65957,-0.557016,-0.0222307,-0.388513,-0.152541,0.0669875,-0.0399939
0.205357,0.221714,-0.666528,-0.400749,-0.108676,-0.53356,-0.152615,0.00803368,-0.0738909
0.204826,0.213461,-0.678027,-0.206467,-0.182919,-0.749517,-0.159032,-0.034937,-0.106358
0.204596,0.205864,-0.694455,-0.230247,-0.162165,-0.968977,-0.152144,-0.0402919,-0.0839665
0.206988,0.196932,-0.713709,-0.262657,0.0167089,-1.04792,-0.132601,-0.0155045,-0.0899747
0.211985,0.187236,-0.733506,-0.281712,0.104602,-1.05214,-0.0877658,-0.0037517,-0.0814021
0.218509,0.177257,-0.752789,-0.2952,0.197156,-1.01399,-0.0604539,-0.0143585,-0.0666015
0.226274,0.167054,-0.770758,-0.297799,0.273286,-0.939797,-0.0687747,-0.0343598,-0.068705
0.234944,0.15802,-0.787492,-0.187696,0.341356,-0.887225,-0.0942227,-0.0462348,-0.0986564
0.234944,0.15802,-0.787492,-0.187696,0.341356,-0.887225,-0.0942227,-0.0462348,-0.0986564
0.24521,0.151551,-0.804149,-0.0504483,0.407787,-0.87266,-0.117984,-0.0609581,-0.102464
0.254554,0.147983,-0.820996,0.140588,0.252667,-0.832503,-0.098869,-0.0596492,-0.0935064
0.261254,0.149064,-0.838226,0.382445,0.179364,-0.790027,-0.0848349,-0.0472725,-0.101531
0.266227,0.153134,-0.854998,0.407635,0.056875,-0.697674,-0.0715686,-0.0229245,-0.037532
0.26813,0.157019,-0.869438,0.35204,-0.0809606,-0.582563,-0.0615505,-0.0177584,-0.026919
0.26727,0.161275,-0.881912,0.404844,-0.202871,-0.499411,-0.0722416,-0.00409585,-0.0673076
0.263925,0.167671,-0.893392,0.511363,-0.31396,-0.431693,-0.0725057,0.0155646,-0.0773548
0.258942,0.176182,-0.90422,0.58559,-0.356087,-0.394741,-0.0910682,0.0267888,-0.0871055
0.254279,0.185686,-0.915045,0.584153,-0.297283,-0.393646,-0.0945598,0.0380146,-0.0726116
0.25172,0.194294,-0.925944,0.529847,-0.159259,-0.433184,-0.103621,0.0452618,-0.0673306
0.251634,0.202251,-0.937434,0.541299,-0.0969614,-0.457564,-0.0881047,0.0569536,-0.0619765
0.252527,0.2107,-0.949673,0.573781,-0.0595335,-0.500094,-0.0816213,0.0634836,-0.0510238
0.254582,0.218691,-0.962931,0.506275,-0.0143752,-0.541203,-0.057015,0.0788294,-0.00732297
0.257171,0.22443,-0.975837,0.372742,-0.0086035,-0.538331,-0.0483059,0.0933699,0.0120883
0.259603,0.227718,-0.98844,0.265299,-0.0485772,-0.570117,-0.0352412,0.0938583,0.00794744
0.260249,0.229292,-1.00113,0.21918,-0.175347,-0.580171,-0.0256869,0.104592,-0.0232901
0.258558,0.230604,-1.01372,0.228205,-0.275947,-0.575744,-0.0292685,0.119755,-0.0590609
0.25569,0.232558,-1.02634,0.271419,-0.278031,-0.564196,-0.0364643,0.129439,-0.0892564
0.253966,0.235323,-1.03871,0.303338,-0.178091,-0.525521,-0.0412713,0.138491,-0.0892555
0.254193,0.239265,-1.05013,0.37072,-0.0682458,-0.454876,-0.0521779,0.139775,-0.0771008
0.255811,0.245097,-1.06067,0.451702,-0.0463129,-0.398337,-0.069641,0.129399,-0.0294117
0.256587,0.252529,-1.07099,0.529905,-0.142772,-0.391745,-0.0836992,0.103079,0.0167533
0.255226,0.261468,-1.08199,0.604097,-0.270643,-0.428336,-0.109255,0.0911406,0.0480304
0.252586,0.271036,-1.09446,0.613428,-0.296089,-0.506777,-0.125582,0.0854478,0.0776973
0.251228,0.279147,-1.10873,0.497839,-0.222286,-0.629689,-0.121722,0.0766526,0.123756
0.252013,0.283481,-1.12502,0.311901,-0.143983,-0.780869,-0.0990356,0.0675106,0.153317
0.254653,0.28325,-1.14309,0.0963739,-0.104212,-0.905465,-0.0690967,0.0771156,0.176884
0.257442,0.278197,-1.16199,-0.113026,-0.134251,-0.981826,-0.0371011,0.078104,0.175378
0.259618,0.269655,-1.18128,-0.229153,-0.165475,-1.05222,-0.0310343,0.0704762,0.143903
0.261492,0.258879,-1.20173,-0.29676,-0.174253,-1.13342,-0.00509602,0.0599366,0.113656
0.263351,0.246938,-1.2229,-0.321551,-0.173296,-1.14776,0.0284173,0.0674802,0.0881355
0.264833,0.234898,-1.24338,-0.321352,-0.13983,-1.08598,0.05617,0.0731983,0.0603205
0.267633,0.22328,-1.26207,-0.328911,-0.0106338,-0.977902,0.0743603,0.067407,0.0529781
0.271355,0.212226,-1.27795,-0.313991,0.0140577,-0.815476,0.0805205,0.0599104,0.0653137
0.272964,0.202628,-1.29126,-0.25446,-0.150335,-0.722458,0.0625887,0.0289263,0.064811
0.270142,0.194714,-1.30412,-0.172693,-0.392142,-0.718679,0.064957,-0.0118059,0.052272
0.262032,0.188289,-1.31743,-0.103195,-0.671536,-0.715918,0.0878659,-0.0356608,0.0265842
0.249712,0.183125,-1.33092,-0.0770636,-0.784416,-0.704953,0.106525,-0.0429489,-0.0184097
0.2369,0.17752,-1.34442,-0.159814,-0.717479,-0.727946,0.13971,-0.0654765,-0.0763178
0.226911,0.170502,-1.35796,-0.198418,-0.491383,-0.723427,0.179081,-0.0775608,-0.161955
0.221816,0.163939,-1.37068,-0.155145,-0.232332,-0.637875,0.214344,-0.0595726,-0.212202
0.221199,0.159154,-1.38156,-0.0788806,-0.0132692,-0.516047,0.253801,-0.0688115,-0.220335
0.223303,0.156425,-1.39033,0.00410066,0.0700488,-0.390635,0.279879,-0.0836073,-0.201667
0.22534,0.156074,-1.397,0.105368,0.0172719,-0.268584,0.287747,-0.0877382,-0.17104
0.225528,0.15836,-1.40201,0.236714,-0.0751772,-0.160089,0.293474,-0.091904,-0.143706
0.223638,0.163987,-1.40539,0.380171,-0.168888,-0.0440026,0.28231,-0.080552,-0.0998133
0.220115,0.171963,-1.40754,0.431377,-0.205639,0.0107651,0.267133,-0.0789443,-0.0395128
0.216715,0.180473,-1.40877,0.424332,-0.140641,0.0482869,0.237337,-0.0760591,-0.00650686
0.215315,0.188916,-1.40964,0.426005,-0.0188607,0.0481463,0.202775,-0.0678824,0.01298
0.215951,0.197594,-1.41061,0.451714,0.0634497,0.0310827,0.156272,-0.0793395,0.0211823
0.217803,0.207773,-1.41343,0.644479,0.0363116,-0.0864032,0.131656,-0.0892357,0.0177228
0.218301,0.222188,-1.41858,0.828496,-0.0909521,-0.0778436,0.178309,-0.0495179,0.0780613
0.218815,0.236836,-1.42393,0.690289,0.0823222,-0.109068,0.144867,-0.0326139,0.134789
0.22393,0.248003,-1.42865,0.513029,0.288509,-0.101064,0.105288,-0.0178979,0.153086
0.22393,0.248003,-1.42865,0.513029,0.288509,-0.101064,0.105288,-0.0178979,0.153086
0.231741,0.25605,-1.43383,0.392058,0.332815,-0.2337,0.0680069,-0.0307809,0.154382
0.239432,0.260903,-1.44245,0.271322,0.201301,-0.482533,0.0563214,-0.055584,0.145841
0.24457,0.261733,-1.45565,0.116109,-0.0315793,-0.723604,0.0686124,-0.0450633,0.111637
0.24594,0.259186,-1.47166,0.0322332,-0.223115,-0.817121,0.121277,0.00650728,0.0346198
0.245482,0.255921,-1.48794,0.0470219,-0.197031,-0.771333,0.168501,0.0642785,-0.0530888
0.247739,0.253961,-1.50206,0.0894062,0.0928632,-0.588141,0.192264,0.114933,-0.0976067
0.256042,0.253394,-1.51178,0.0804431,0.496848,-0.337845,0.193737,0.14124,-0.0843201
0.270597,0.253226,-1.51627,0.0118456,0.820874,-0.0956876,0.176902,0.139459,-0.0301008
0.288849,0.252636,-1.51614,-0.0709143,0.979167,0.0868318,0.145015,0.119754,0.0315531
0.307006,0.251746,-1.51203,-0.127466,0.902161,0.273638,0.126388,0.114971,0.0877158
0.320424,0.251279,-1.50359,-0.171429,0.628749,0.498456,0.124686,0.121248,0.128219
0.326115,0.251592,-1.49019,-0.208545,0.276731,0.749378,0.113839,0.129073,0.127233
0.324044,0.253224,-1.47165,-0.209966,-0.0025438,1.00876,0.0850462,0.138161,0.0892185
0.315156,0.256592,-1.44789,-0.183024,-0.307777,1.29184,0.0563238,0.154375,0.0611005
0.298366,0.262912,-1.41879,-0.0434011,-0.638481,1.58061,0.0262007,0.155783,0.0161741
0.273091,0.273861,-1.38559,0.201274,-1.01715,1.79934,-0.0120078,0.154896,-0.0297151
0.239587,0.289981,-1.34963,0.467828,-1.32093,1.95127,-0.0516429,0.14064,-0.0656278
0.20086,0.30919,-1.31169,0.595261,-1.39385,2.00102,-0.105274,0.126416,-0.0636415
0.162336,0.328155,-1.27322,0.603823,-1.24048,1.93249,-0.170028,0.0963143,-0.0649377
0.127586,0.345117,-1.236,0.567594,-1.00756,1.79289,-0.208758,0.0684552,-0.0524681
0.0980459,0.359671,-1.20149,0.517124,-0.770122,1.59245,-0.238964,0.0433882,-0.028047
0.0736936,0.371883,-1.171,0.465393,-0.591441,1.34929,-0.250921,0.0215736,-0.00127327
0.0540523,0.382372,-1.14597,0.431916,-0.480797,1.04489,-0.258346,-0.000519544,0.027837
0.0370785,0.391379,-1.12709,0.38565,-0.511698,0.752194,-0.242977,-0.014395,0.0508847
0.0214904,0.39859,-1.11415,0.2886,-0.559827,0.470635,-0.219511,-0.0146062,0.0705054
0.00698081,0.403226,-1.10645,0.168467,-0.584761,0.261483,-0.187909,-0.00920841,0.0674216
-0.00590929,0.405317,-1.10273,0.0371592,-0.552177,0.0803031,-0.172182,0.000892341,0.0529795
-0.0152725,0.404624,-1.10302,-0.115856,-0.378153,-0.109623,-0.170516,0.00242212,0.0308226
-0.0187563,0.400578,-1.1076,-0.301024,-0.151267,-0.304143,-0.167086,0.00748953,0.0211527
-0.0162736,0.392934,-1.1162,-0.472278,0.060216,-0.472102,-0.140775,0.0114253,0.0154794
-0.00921089,0.382676,-1.12774,-0.552816,0.192263,-0.572902,-0.106904,0.0252449,0.00102401
-0.000319347,0.372022,-1.14027,-0.507331,0.223199,-0.575809,-0.069481,0.0429889,-0.0126348
0.00770837,0.362902,-1.15176,-0.397812,0.158396,-0.495087,-0.0329021,0.0520105,-0.0145134
0.0134129,0.356002,-1.16103,-0.290374,0.0790248,-0.38409,-0.0088942,0.0437205,-0.00283492
0.0161174,0.350875,-1.16779,-0.228759,-0.0271805,-0.272858,0.00457961,0.0288549,0.00393736
0.0168405,0.346469,-1.17258,-0.204595,-0.069712,-0.185422,-0.00273181,0.00800514,0.000380814
0.0147933,0.343357,-1.17494,-0.0804179,-0.228573,-0.0568919,-0.0448894,0.0054729,-0.0134138
0.00992026,0.342913,-1.1763,0.00324098,-0.297599,-0.0962149,-0.07346,-0.0470843,-0.0114989
0.00453976,0.342102,-1.17931,-0.103352,-0.322252,-0.182071,-0.0876202,-0.0758939,0.0111185
6.44195e-05,0.338457,-1.18388,-0.252892,-0.269267,-0.255868,-0.104339,-0.0738366,-0.00245631
-0.00189234,0.332647,-1.19051,-0.315411,-0.134943,-0.376358,-0.110348,-0.0734629,-0.047603
-0.000468098,0.326215,-1.19967,-0.32093,-0.0342931,-0.474832,-0.0729819,-0.0699517,-0.0639074
0.00175124,0.32047,-1.20959,-0.230025,-0.0855153,-0.458964,-0.0349873,-0.046651,-0.0627701
0.00128425,0.317616,-1.21861,-0.0482009,-0.249196,-0.390599,0.0111243,-0.0275868,-0.0594633
-0.00217319,0.318599,-1.22588,0.131759,-0.294999,-0.305488,0.0187416,-0.0179251,-0.0563085
-0.00553213,0.321892,-1.2316,0.172197,-0.214228,-0.243625,0.0093678,-0.0126629,-0.0176237
-0.00701785,0.3247,-1.23644,0.0977239,-0.0991957,-0.22447,0.0103589,-0.0262671,0.0262603
-0.0071263,0.325722,-1.2413,0.000374901,-0.0894675,-0.24298,0.015922,-0.0378104,0.0598989
-0.00795993,0.325167,-1.24682,-0.0516692,-0.177161,-0.279096,0.0301715,-0.045096,0.0524105
-0.0102952,0.324162,-1.25299,-0.0451057,-0.244286,-0.303984,0.0413751,-0.037977,0.0177684
-0.0129026,0.323822,-1.25936,0.0143765,-0.209999,-0.295526,0.0492494,-0.0158682,-0.0257924
-0.0151379,0.325168,-1.26468,0.107185,-0.183567,-0.210294,0.0634621,0.0115459,-0.0391754
-0.0174846,0.327686,-1.26824,0.11693,-0.145464,-0.149775,0.0700354,0.0120542,-0.0239668
-0.0184085,0.329313,-1.27115,0.0380309,-0.0484471,-0.127031,0.0608906,0.00181404,-0.0146194
-0.0184085,0.329313,-1.27115,0.0380309,-0.0484471,-0.127031,0.0608906,0.00181404,-0.0146194
-0.0180112,0.329446,-1.27363,-0.0243966,-0.00405091,-0.113274,0.0461401,0.00428984,-0.0135112
-0.0170625,0.329065,-1.27627,-0.00405035,0.0136156,-0.138345,0.0385766,-0.00606483,-0.0399227
-0.0154326,0.329558,-1.27954,0.0646295,-0.001513,-0.155285,0.0420215,0.0015879,-0.0465876
-0.0144897,0.331297,-1.28249,0.10524,-0.0149753,-0.115978,0.0519245,0.0153182,-0.0329174
-0.0138023,0.333339,-1.2844,0.0930507,0.00302871,-0.0612113,0.0542409,0.0236871,-0.00879383
-0.0133262,0.334856,-1.28506,0.0668968,0.0111939,-0.00133897,0.0438356,0.0193831,0.00325757
-0.0124752,0.336062,-1.28492,0.0672832,0.0529716,0.0145938,0.0155306,0.00947475,-0.000776052
-0.0109498,0.337316,-1.28488,0.0887978,0.0672006,-0.00310797,-0.00974809,0.0012435,0.00305331
-0.00901705,0.338959,-1.28529,0.0966077,0.0511046,-0.0205635,-0.0166274,-0.00276044,0.0297634
-0.00792053,0.340297,-1.28602,0.0499162,0.0226684,-0.0407401,-0.0110885,-0.00702235,0.0488881
-0.00686581,0.34032,-1.28706,-0.0443534,0.0375887,-0.0573717,-0.0158364,-0.00933605,0.0535877
-0.00565349,0.338516,-1.28848,-0.12303,0.0454077,-0.0766832,-0.0196155,-0.0127613,0.0350763
-0.00377573,0.335746,-1.2906,-0.172381,0.0879431,-0.135921,-0.0229702,-0.0126131,0.0118155
-0.00108544,0.331677,-1.29383,-0.247494,0.0784633,-0.156355,0.00992212,-0.00891981,0.00592184
0.00068921,0.326656,-1.29642,-0.266337,0.0168141,-0.0890634,0.0261569,0.00634804,-0.0169298
0.000615992,0.321826,-1.29767,-0.243666,-0.0486029,-0.0387433,0.0267288,0.000305086,-0.0448863
-0.00067308,0.317258,-1.29796,-0.230323,-0.0638595,0.00448993,0.0171952,-0.0117981,-0.0718786
-0.00144738,0.312921,-1.29754,-0.211262,0.00450065,0.035156,-0.00440602,-0.0124729,-0.0915772
-0.000577784,0.309294,-1.29648,-0.146565,0.109207,0.0643296,-0.0147847,-0.0128138,-0.0956233
0.00175674,0.307047,-1.29473,-0.0787411,0.163887,0.101557,-0.0149192,-0.00943118,-0.0588713
0.00448836,0.306146,-1.29216,-0.0150139,0.181499,0.140869,-0.0148693,-0.00897744,-0.00651419
0.00676616,0.306363,-1.28876,0.0330301,0.142645,0.185507,-0.0187649,-0.00362861,0.0588074
0.00739109,0.307248,-1.28442,0.0489525,0.0405015,0.222039,-0.0237075,-0.00226584,0.115299
0.00540332,0.308024,-1.27961,0.0207242,-0.0910033,0.227927,-0.0374824,-0.00907964,0.142557
0.000997213,0.307767,-1.27543,-0.058907,-0.215209,0.167438,-0.0444837,-0.0224619,0.148416
-0.00512304,0.30557,-1.27268,-0.159035,-0.311909,0.0942756,-0.0566836,-0.0257016,0.126912
-0.012108,0.301589,-1.2717,-0.230289,-0.341347,0.00352328,-0.0615131,-0.0295152,0.0784834
-0.0182626,0.296883,-1.27254,-0.237936,-0.292894,-0.0731985,-0.0531702,-0.0235299,0.0208367
-0.0228045,0.292599,-1.27458,-0.190645,-0.223145,-0.112832,-0.0318318,-0.0161699,-0.0212212
-0.0261115,0.28969,-1.27691,-0.107963,-0.179296,-0.101762,-0.0105629,-0.0114029,-0.0443441
-0.0289591,0.288245,-1.27902,-0.0526443,-0.166226,-0.10056,-0.00237566,-0.0161148,-0.044862
-0.031131,0.287293,-1.28141,-0.0559388,-0.117174,-0.13094,-0.00510767,-0.0267163,-0.0423811
-0.0322042,0.286097,-1.28487,-0.0741735,-0.0738681,-0.203851,-0.0133455,-0.0337389,-0.0492929
-0.0312583,0.284619,-1.29001,-0.0951296,0.0222539,-0.278839,0.0105561,-0.0300904,-0.050649
-0.0284293,0.282671,-1.29588,-0.105635,0.0959734,-0.273064,0.0360712,-0.00997302,-0.0473068
-0.0245362,0.281173,-1.30108,-0.0581619,0.136737,-0.224771,0.0696671,0.00581512,-0.0394517
-0.0207978,0.280727,-1.30495,0.00995339,0.137552,-0.141608,0.0952691,0.0102699,-0.0278027
-0.017364,0.281763,-1.30682,0.0768095,0.139051,-0.0449253,0.0866095,0.0182386,-0.00796199
-0.0149682,0.283469,-1.30708,0.0883747,0.0982661,0.0111453,0.0771755,0.00376368,0.0213541
-0.0132198,0.285096,-1.30669,0.0725161,0.0728524,0.0218227,0.0553188,-0.0115516,0.0359821
-0.0117075,0.286028,-1.30629,0.0341445,0.0610724,0.023448,0.0363475,-0.0157381,0.0404831
-0.0103558,0.286299,-1.30587,-0.00124719,0.0546915,0.0260569,0.0143896,-0.011755,0.0356144
-0.00913249,0.2855,-1.3058,-0.0785064,0.0433842,-0.0118671,-0.000529952,-0.0183052,0.027932
-0.00745016,0.283634,-1.30657,-0.109947,0.0806302,-0.053514,-0.0139658,-0.0207215,-0.00648874
-0.0052334,0.281506,-1.30807,-0.115669,0.0766942,-0.0809945,-0.00653882,-0.0158371,-0.0281599
-0.00313873,0.279613,-1.30977,-0.0837998,0.0899674,-0.0701778,0.0104936,-0.0119957,-0.0585872
-0.000668967,0.278456,-1.31084,-0.0442671,0.110557,-0.0079316,0.025576,0.00794908,-0.0692198
0.000732658,0.278582,-1.30986,0.0572479,0.0757515,0.0910274,0.0165685,0.0115801,-0.0835521
0.00121482,0.281083,-1.30755,0.18741,0.0455178,0.131118,-0.00632466,0.00719371,-0.0899043
0.00117563,0.285537,-1.30446,0.249605,0.034993,0.154995,-0.0357197,-0.00113359,-0.0581445
0.000978089,0.290645,-1.30148,0.26515,0.0318851,0.126187,-0.0610415,-0.00847346,-0.0291392
0.00110999,0.296002,-1.29925,0.270511,0.04134,0.087246,-0.0784696,-0.0061532,-0.00238299
0.00127542,0.301021,-1.29788,0.238023,0.0137908,0.0392234,-0.0873235,-0.00700152,0.0284281
0.00127542,0.301021,-1.29788,0.238023,0.0137908,0.0392234,-0.0873235,-0.00700152,0.0284281
0.00130397,0.305257,-1.29776,0.191776,0.00108171,-0.0311673,-0.0964586,-0.00527835,0.0468018
0.00122346,0.308226,-1.29916,0.104042,-0.0490426,-0.106063,-0.0962434,-0.00389731,0.0654976
0.000925029,0.309563,-1.3022,0.0391689,-0.0503522,-0.187128,-0.0903586,-0.00315773,0.0493292
0.00142336,0.309835,-1.30676,-0.0153003,-0.0230585,-0.248188,-0.0773291,0.0144201,0.0378626
0.00250833,0.309288,-1.31209,-0.0281318,0.0117166,-0.265543,-0.0523314,0.0184304,0.0115229
0.00469224,0.309269,-1.31752,0.0178797,0.0779426,-0.267244,-0.0397785,0.0327105,-0.00343263
0.00745085,0.309563,-1.32286,-0.000496325,0.0549027,-0.251749,-0.00561655,0.0297404,0.0230732
0.00936318,0.309501,-1.32776,0.0167164,0.0192072,-0.21718,0.0156484,0.0317107,0.0129755
0.010511,0.31037,-1.33146,0.0659009,-0.0146837,-0.144025,0.0177777,0.0472933,0.0209852
0.0101043,0.311219,-1.33389,0.0192664,-0.080392,-0.101462,0.0266208,0.0260223,0.0466542
0.00883784,0.310736,-1.33597,-0.0551293,-0.101203,-0.100351,0.0151451,0.00946471,0.0439904
0.00768945,0.308978,-1.33815,-0.109364,-0.0831001,-0.109238,0.00604142,0.00788161,0.0296888
0.00704439,0.306321,-1.34044,-0.13802,-0.0553583,-0.112999,0.00832872,0.00241947,0.0110125
0.00703794,0.303436,-1.34271,-0.138585,-0.0318851,-0.103838,0.0138524,0.00377205,0.00225025
0.00715832,0.300964,-1.34477,-0.10526,-0.0262983,-0.0894503,0.0244897,0.000573009,-0.0119532
0.00713106,0.299443,-1.34637,-0.0537092,-0.0298845,-0.061362,0.0295938,0.00169924,-0.0172865
0.00707676,0.298694,-1.34739,-0.0353292,-0.00457112,-0.0353452,0.0342828,-0.00261769,-0.013266
0.00768802,0.297832,-1.34792,-0.0560689,0.0402865,-0.0134004,0.0378775,-0.00985038,-0.00491458
0.00918103,0.296637,-1.34793,-0.0594354,0.0800842,0.019546,0.0387359,-0.0150829,-0.00521737
0.0107342,0.29552,-1.34723,-0.0502703,0.0577975,0.0563019,0.0426793,-0.0184094,0.00640047
0.0121143,0.29435,-1.34607,-0.0774408,0.101031,0.0549733,0.0285376,-0.0364662,-0.000217319
0.0147819,0.292383,-1.34518,-0.133554,0.142341,0.0402842,0.00505674,-0.0384711,-0.000995159
0.0172134,0.289717,-1.34473,-0.129293,0.0762109,0.00601882,0.00237985,-0.0476164,-0.0278402
0.018538,0.288596,-1.34489,0.00917175,0.0264564,-0.0121349,0.00629276,-0.0366828,-0.0707713
0.0185183,0.290053,-1.34499,0.116606,-0.0236871,0.0159546,0.0206015,-0.0205155,-0.0723463
0.0183833,0.293105,-1.34427,0.169979,0.0356745,0.0610854,0.0174969,-0.00555354,-0.0559023
0.0192511,0.296551,-1.34285,0.156912,0.0834844,0.0708556,-0.00116727,-0.00318626,-0.0189249
0.0209626,0.299531,-1.34182,0.145334,0.118415,0.0235029,-0.0217063,-0.0173367,0.00229275
0.0233189,0.30221,-1.34202,0.117053,0.0961792,-0.0333601,-0.0308509,-0.0106426,0.0379176
0.0248688,0.303684,-1.34313,0.0360438,0.0325436,-0.0667345,-0.01999,-0.00966322,0.0639012
0.0259122,0.303782,-1.34485,-0.00839883,0.0371713,-0.0971918,-0.0208473,0.00196651,0.0492285
0.0274547,0.30304,-1.34692,-0.072484,0.0561177,-0.104553,-0.0126811,0.00925422,0.0413389
0.0291959,0.300873,-1.34908,-0.142255,0.0661061,-0.109874,0.00408674,0.00231695,0.0260976
0.0309722,0.297924,-1.35111,-0.150099,0.0580599,-0.0871369,0.0191487,0.0117521,-0.00631773
0.0323119,0.295593,-1.35221,-0.0870918,0.0604038,-0.0242015,0.0337006,0.0166183,-0.033448
0.0333054,0.294547,-1.35205,-0.0203751,0.0517096,0.0337471,0.0401411,0.0142595,-0.0385157
0.0338495,0.294718,-1.35067,0.0267711,0.0448535,0.0950534,0.0370742,0.00857946,-0.029916
0.0340772,0.2957,-1.34829,0.0673577,0.0407472,0.135235,0.0292672,0.00172162,-0.0160639
0.0338372,0.297345,-1.34538,0.0878992,0.00714793,0.155454,0.0277582,0.0112291,0.0171702
0.0336025,0.298762,-1.34213,0.0556363,0.0540809,0.164143,0.0207485,0.00512204,0.0415727
0.0340302,0.29918,-1.33866,-0.0150563,0.0654685,0.176135,0.0246319,0.0129072,0.07235
0.0337456,0.298381,-1.33463,-0.0637987,0.00954965,0.215903,0.0363398,0.014783,0.076226
0.0313926,0.297253,-1.32953,-0.0575096,-0.102013,0.266227,0.0410035,0.0124539,0.0537417
0.0269265,0.296305,-1.32342,-0.0689166,-0.162609,0.295214,0.0301124,0.0020102,0.0192771
0.0229243,0.294309,-1.31756,-0.139013,-0.0951662,0.301902,0.0227563,-0.00421727,-0.0161949
0.0195237,0.291837,-1.3109,-0.115682,-0.0676603,0.314222,-0.00243116,-0.00840044,-0.0617831
0.0164024,0.290175,-1.3048,-0.0661657,-0.0764661,0.283792,0.000473579,-0.022459,-0.0826454
0.0133726,0.288982,-1.29877,-0.0640051,-0.053075,0.294426,-0.00576819,-0.0241058,-0.0853286
0.011327,0.28808,-1.29257,-0.022801,0.0318358,0.298403,-0.0190388,-0.0243753,-0.101512
0.0113169,0.288512,-1.28657,0.0623163,0.126731,0.277788,-0.0272064,-0.0364429,-0.0969655
0.0126488,0.290596,-1.2812,0.136452,0.153935,0.2438,-0.0227535,-0.0426241,-0.0601003
0.0135906,0.293692,-1.27608,0.15792,0.0956623,0.244,-0.0131761,-0.0396588,-0.00466835
0.0136796,0.29669,-1.27088,0.13273,0.0659062,0.25147,-0.0175219,-0.0431076,0.0241672
0.0135137,0.299129,-1.26598,0.113212,0.0582128,0.223021,-0.0304608,-0.0541891,0.0274668
0.0135137,0.299129,-1.26598,0.113212,0.0582128,0.223021,-0.0304608,-0.0541891,0.0274668
0.0130118,0.301732,-1.2617,0.145185,0.0203232,0.181172,-0.0471527,-0.0557154,0.0213469
0.0121234,0.304961,-1.25868,0.169408,-0.0104126,0.110424,-0.0531897,-0.0563722,0.021446
0.0115383,0.307999,-1.25711,0.127152,0.00547778,0.0455654,-0.0452663,-0.0459535,0.02931
0.0115311,0.310078,-1.25653,0.0699049,0.0224319,0.011546,-0.0243934,-0.0298887,0.0233523
0.0116739,0.311949,-1.2562,0.0719913,0.0427587,0.00697413,-0.00511356,-0.00988907,-0.00456536
0.0118329,0.314585,-1.25565,0.130233,0.0528344,0.0328669,0.0137267,0.0114478,-0.0246665
0.0122184,0.318108,-1.25443,0.167394,0.0640495,0.078894,0.0326758,0.0277812,-0.0145211
0.0126387,0.321413,-1.25221,0.136936,0.0602528,0.129609,0.0445579,0.0323836,0.00965792
0.0127945,0.323785,-1.2491,0.100569,0.0670449,0.160947,0.0354933,0.0297811,0.00875145
0.0131916,0.325517,-1.24564,0.0819784,0.0751963,0.171494,0.0288833,0.0296681,0.00340283
0.0136491,0.326805,-1.24193,0.0693057,0.0844465,0.186368,0.0290659,0.0325667,-0.00433987
0.0145189,0.327759,-1.23772,0.0851541,0.0547772,0.257572,0.0317867,0.042717,-0.00465816
0.0139155,0.329872,-1.23185,0.158714,0.0462015,0.304696,0.0146519,0.0326014,-0.00983369
0.0133995,0.332824,-1.22569,0.151832,0.0779687,0.295645,-0.0125723,0.0106882,0.0145273
0.0135836,0.334687,-1.21983,0.0667269,0.0940007,0.27132,-0.0382812,-0.00146693,0.047438
0.0135956,0.335227,-1.21489,0.0149016,0.0541125,0.201253,-0.0474302,-0.0176507,0.0500224
0.0133578,0.335119,-1.21148,-0.00427503,0.0300012,0.132254,-0.0496475,-0.0213073,0.03616
0.013238,0.334877,-1.20912,-0.0171296,0.0398219,0.0924863,-0.0497642,-0.00790963,0.0272994
0.0136709,0.334315,-1.20742,-0.0491076,0.0759651,0.0614906,-0.0384721,-0.00857842,0.0244116
0.0147068,0.332994,-1.20626,-0.0950278,0.0791595,0.0394114,-0.0315834,-0.00880411,0.0224652
0.0155138,0.33125,-1.20558,-0.0903339,0.0372369,0.0165638,-0.0232758,-0.0113526,0.00161397
0.0151858,0.329989,-1.20531,-0.0473062,-0.029165,0.00146073,-0.0128858,-0.00950885,-0.0274062
0.0142779,0.329418,-1.2051,-0.0267722,-0.0263763,0.0133378,-0.00957301,-0.00438887,-0.048052
0.0133593,0.329234,-1.20445,-0.000723882,-0.0295997,0.0393539,-0.0150065,-0.00164777,-0.0586466
0.0124425,0.329511,-1.20357,0.0212836,-0.0223954,0.0323774,-0.0329825,-0.0144781,-0.068933
0.0121185,0.33013,-1.20329,0.041633,0.00520717,-0.008454,-0.0511824,-0.0221479,-0.0738292
0.012364,0.331462,-1.20375,0.100754,0.0103744,-0.031758,-0.0516535,-0.0151194,-0.0730748
0.0129273,0.334213,-1.20444,0.17971,0.0172063,-0.0157024,-0.0450639,-0.00266308,-0.0523125
0.0128236,0.338575,-1.20439,0.246033,-0.0070089,0.00593798,-0.0566815,0.0102285,-0.00838667
0.0129306,0.342944,-1.20485,0.178419,0.00523551,-0.0433952,-0.0476998,-0.0107081,0.0504698
0.0134749,0.34524,-1.20631,0.0546377,0.0121585,-0.0909893,-0.0362848,-0.005541,0.0830902
0.0137641,0.345468,-1.20836,-0.010227,-0.0537291,-0.0970032,-0.0103108,0.0106643,0.0780047
0.012644,0.34522,-1.21019,-0.00300551,-0.114174,-0.0732096,0.0186808,0.0235541,0.0524217
0.0103241,0.34533,-1.2112,0.00697498,-0.141438,-0.0147223,0.0359398,0.0375272,0.0336873
0.0068431,0.345482,-1.21059,0.00549806,-0.180793,0.0695361,0.0409245,0.0472988,0.0183897
0.00244793,0.345962,-1.20851,0.0390247,-0.188841,0.120838,0.0235455,0.040854,-0.00978428
-0.000809341,0.346505,-1.20674,-0.0230405,-0.0205388,0.00392226,0.0103895,0.0172557,-0.0293294
0.000206819,0.344547,-1.20643,-0.129408,0.046991,0.0758795,0.0384558,0.0365005,-0.0210363
-0.000143061,0.342896,-1.20413,-0.00258368,-0.0551293,0.134846,0.0443089,0.0519293,-0.0489072
-0.00349534,0.344564,-1.20102,0.170399,-0.1487,0.16256,0.0414216,0.0270559,-0.0697233
-0.00728521,0.348169,-1.19739,0.183117,-0.0937888,0.171511,-0.00259719,0.02857,-0.0448433
-0.00862356,0.350922,-1.1941,0.112002,0.0492146,0.136898,-0.0274551,0.0123277,-0.0145921
-0.00713906,0.352001,-1.19203,0.0370825,0.146284,0.0567034,-0.0426762,-0.00106367,0.0152752
-0.00382544,0.351759,-1.19182,-0.0308551,0.153352,-0.0237108,-0.0426582,-0.00428149,0.0430245
-0.00125549,0.350787,-1.19282,-0.0437325,0.0672984,-0.0675277,-0.0266683,-0.00060156,0.0505826
0.000231984,0.349777,-1.19476,-0.0504685,0.0387602,-0.109334,-0.0100446,0.0021733,0.0338247
0.0016373,0.348881,-1.1969,-0.0342207,0.0440024,-0.0850921,0.00395446,0.0207865,0.0174065
0.00280278,0.348489,-1.19818,-0.0178961,0.0473368,-0.0421367,0.0118463,0.026628,0.0146999
0.00376288,0.348088,-1.19873,-0.0410518,0.0445244,-0.0232427,0.0102872,0.0159824,0.0217459
0.00465075,0.347021,-1.19926,-0.0674932,0.0375768,-0.0360848,-0.00722694,0.00643429,0.0149494
0.00550926,0.345715,-1.20018,-0.0579003,0.0214203,-0.0480406,-0.0150252,0.00721928,-0.00182295
0.00655905,0.344749,-1.2012,-0.036345,0.0537735,-0.045429,-0.0192194,0.0106291,-0.0134346
0.0081106,0.344113,-1.20197,-0.018945,0.0670278,-0.0221689,-0.0222072,0.016485,-0.00666928
0.009879,0.343777,-1.2026,-0.0276664,0.0968288,-0.0496496,-0.0307547,0.0039764,0.0110989
0.009879,0.343777,-1.2026,-0.0276664,0.0968288,-0.0496496,-0.0307547,0.0039764,0.0110989
0.0120876,0.342803,-1.20404,-0.0730916,0.0985276,-0.0914084,-0.0220042,-0.00666082,0.0328273
0.014076,0.340546,-1.20596,-0.138844,0.0437786,-0.0929495,0.00220515,0.000597566,0.0477188
0.0147166,0.337176,-1.20761,-0.177156,-0.00535051,-0.0718822,0.0232829,0.00396448,0.0288568
0.0144625,0.33377,-1.20855,-0.158009,-0.0196324,-0.0336747,0.0293506,0.0108651,-0.00755525
0.0138112,0.331398,-1.20867,-0.0949989,-0.0248216,0.00777174,0.030062,0.0115837,-0.0347417
0.0130522,0.330269,-1.20811,-0.0432061,-0.0243463,0.0400234,0.0290354,0.00786123,-0.0404537
0.0124564,0.329617,-1.20696,-0.0398905,-0.00684492,0.0698797,0.0224857,0.0026361,-0.0311868
0.0122649,0.328632,-1.20554,-0.0626546,0.0176619,0.0658129,0.00432187,-0.0120598,-0.0282568
0.0122496,0.327231,-1.20438,-0.0678332,0.00423234,0.0488691,-0.00389363,-0.0220228,-0.0300179
0.0123797,0.325704,-1.20353,-0.07809,0.0289964,0.030982,-0.0205481,-0.0274664,-0.0408672
0.0131741,0.324388,-1.20289,-0.0353767,0.0506055,0.0390732,-0.0321858,-0.0265467,-0.0544337
0.0138765,0.324661,-1.20217,0.0602175,0.0363844,0.0178978,-0.0400524,-0.0342691,-0.0477241
0.0143423,0.326748,-1.2024,0.142555,0.0137344,-0.0361155,-0.0372952,-0.0331464,-0.0261354
0.014917,0.32966,-1.20321,0.128139,0.029895,-0.0331516,-0.0339802,-0.012186,0.0139337
0.0164252,0.331428,-1.20429,0.0452157,0.083799,-0.0740834,-0.0349246,-0.0138552,0.0453962
0.0183292,0.331644,-1.2063,-0.0103751,0.0550788,-0.121445,-0.0265457,-0.0196326,0.0485601
0.0199329,0.331351,-1.20929,-0.010867,0.0235207,-0.1621,-0.0191068,-0.00256002,0.033398
0.0213693,0.331113,-1.21265,-0.0145361,0.0275014,-0.150216,0.00382558,0.0130535,0.027649
0.0227569,0.330626,-1.21535,-0.041213,0.0322078,-0.112834,0.0217208,0.0246624,0.0276715
0.0239489,0.32995,-1.21734,-0.0401483,0.0373932,-0.0843699,0.0280805,0.0206204,0.00743276
0.0246736,0.329564,-1.21871,-0.00321906,-0.0029481,-0.0502261,0.0343195,0.0259163,-0.00632918
0.0246366,0.329879,-1.21932,0.0314396,-0.00670221,-0.0105161,0.0352573,0.0277557,-0.0178592
0.0246204,0.330479,-1.21922,0.0327739,0.0190688,0.0267061,0.0372458,0.0287197,-0.0181295
0.0256141,0.330855,-1.2184,0.0226535,0.0657777,0.063457,0.0316859,0.0288164,-0.00965405
0.0264295,0.331386,-1.2167,0.0719375,0.0277809,0.110912,0.0221305,0.0301729,-0.00528425
0.0262618,0.333123,-1.21441,0.122781,-0.00392464,0.120181,0.0126298,0.02066,0.0108469
0.0258786,0.334676,-1.21225,0.057276,0.00291412,0.106918,0.00189658,0.0128807,0.0444508
0.0258622,0.334567,-1.21024,-0.0256413,0.0232039,0.0983121,-0.0126304,0.00760481,0.0473558
0.0250447,0.333832,-1.20831,-0.0220804,-0.0609156,0.0850438,-0.0153894,0.00472882,0.0364926
0.0231755,0.33335,-1.20709,-0.0311218,-0.0761985,0.0404062,-0.0151077,-0.0112751,0.0197251
0.0218407,0.33209,-1.20653,-0.0953343,-0.0518677,0.0160328,-0.0212103,-0.00781241,0.0136039
0.0213361,0.329866,-1.20652,-0.137067,0.0134693,-0.0184941,-0.00935055,-0.0131659,-0.012122
0.0223626,0.326653,-1.20692,-0.186339,0.083822,-0.0290635,-0.0101462,-0.015032,-0.0345606
0.0247521,0.323437,-1.20749,-0.131689,0.126211,-0.0315072,-0.00764298,-0.0175758,-0.0639675
0.0270863,0.321876,-1.20799,-0.0301132,0.0856706,-0.0136549,0.00339111,-0.0181412,-0.0591201
0.0282044,0.322122,-1.20793,0.0361771,0.0361572,0.0138031,0.000715591,-0.0208829,-0.0306324
0.0286433,0.322789,-1.20767,0.0145309,0.0319327,0.00885211,-0.00198331,-0.0299395,0.0032326
0.0291391,0.322764,-1.20737,-0.0117257,0.0332043,0.0150502,-0.0123717,-0.0256757,0.0135725
0.0294177,0.32248,-1.20721,-0.0116338,0.00211879,-0.000114461,-0.00993774,-0.0241902,0.0126629
0.0292602,0.32222,-1.2071,-0.0280916,-0.014709,0.0154059,-0.00301594,-0.0198744,0.0133599
0.0286831,0.321425,-1.20662,-0.062361,-0.0186433,0.0253091,-0.00897613,-0.0190111,0.00206095
0.0283112,0.32056,-1.20604,-0.037079,0.00395401,0.0269265,-0.00808185,-0.0211904,-0.0284483
0.0280663,0.320738,-1.20516,0.0316454,-0.00539075,0.0609138,-0.00597111,-0.00885975,-0.0337317
0.0271681,0.322287,-1.2037,0.0847688,-0.0328698,0.073884,-0.00316787,-0.00783268,-0.0175654
0.0258113,0.324181,-1.20211,0.0762473,-0.0356432,0.0757148,-0.0080762,-0.0121097,-0.000142574
0.0254386,0.325306,-1.20094,0.00363401,0.0565951,0.0182695,-0.0207144,-0.0177882,0.0069235
0.0275279,0.324287,-1.20122,-0.0710384,0.0910943,-0.00026064,0.0143918,-0.0147865,0.0110871
0.0271623,0.323938,-1.20009,0.0485285,-0.0730543,0.0849252,0.0192365,0.0206034,-0.00310504
0.024475,0.325996,-1.1983,0.121208,-0.106032,0.0879794,0.0198461,0.000870973,-0.0084874
0.0223989,0.327963,-1.19651,0.0387832,-0.0191849,0.0731406,-0.0101864,-0.00198159,0.0114197
0.0227589,0.327914,-1.19554,-0.0619751,0.0745964,0.0212439,-0.0222463,-0.00973326,0.01422
0.0246292,0.326012,-1.19567,-0.0921959,0.0753847,-0.0256312,-0.00944413,-0.0142052,0.00256664
0.0263748,0.324443,-1.19645,-0.0447029,0.051159,-0.039103,0.00164596,-0.00470552,-0.0126147
0.0270663,0.324178,-1.19696,0.00479166,0.028022,-0.0232643,0.00771759,0.00618201,-0.019872
0.0270663,0.324178,-1.19696,0.00479166,0.028022,-0.0232643,0.00771759,0.00618201,-0.019872
0.0274857,0.324613,-1.19712,0.0203643,0.037818,0.000409693,0.0200193,0.00384817,-0.0178548
0.0287307,0.324834,-1.1969,-0.0239755,0.106272,0.0200034,0.0253115,0.00125009,-0.00669748
0.031108,0.324251,-1.19602,-0.0306989,0.151113,0.0586345,0.0134102,0.00199452,-0.00732672
0.033358,0.323694,-1.19481,-0.0150595,0.0988534,0.0490083,0.00918221,-0.0127551,-0.000550032
0.0345485,0.323557,-1.19382,0.0148821,0.0411222,0.0534436,0.00114043,-0.0215063,-0.00550383
0.0346897,0.324433,-1.19269,0.0758118,0.00420269,0.057195,-0.0208343,-0.0188751,-0.0111583
0.0347738,0.326117,-1.19184,0.082446,0.0235173,0.0292564,-0.0315917,-0.0280369,-0.00181127
0.0353342,0.327354,-1.19167,0.0401318,0.0291705,-0.00592364,-0.0375708,-0.031458,0.00747782
0.0357564,0.328319,-1.192,0.0571383,-0.015735,-0.0187173,-0.0277664,-0.0175591,0.00338417
0.0347127,0.330096,-1.19231,0.104728,-0.0743067,-0.00898125,-0.00211611,0.00101346,0.00330275
0.0330935,0.332295,-1.19212,0.0854743,-0.0385674,0.0214333,0.0152923,0.0156667,0.00791937
0.032212,0.333734,-1.19122,0.0325154,0.0112395,0.0489538,0.0156368,0.0244731,0.00686604
0.0320749,0.334511,-1.18982,0.0294944,0.0373859,0.075274,0.0203063,0.0241687,-0.00173074
0.031888,0.33525,-1.18803,0.0412309,0.00215203,0.0974725,0.022352,0.0273691,0.00187737
0.0312359,0.336226,-1.18568,0.0605018,-0.00965163,0.136754,0.0138528,0.0253462,0.00230759
0.0302537,0.337212,-1.1831,0.0456949,-0.0167021,0.109189,0.000217265,0.011506,0.0106929
0.0295025,0.337585,-1.18109,0.0209978,0.00922492,0.0901144,-0.0114759,0.00663966,-0.00306606
0.0298039,0.337746,-1.17922,0.0158063,0.039633,0.104821,-0.0143068,0.0146651,0.00485253
0.029684,0.337636,-1.17712,-0.00220127,0.0042067,0.0884316,-0.0213664,-0.00149065,0.0125674
0.0294102,0.337485,-1.17577,0.0026827,0.0167941,0.0411011,-0.0302497,-0.0113379,0.000433326
0.0293218,0.337403,-1.17504,-0.0125614,-0.0106396,0.0275055,-0.0323491,-0.00309891,0.017751
0.0289464,0.336883,-1.17463,-0.0253785,0.0103306,0.00427657,-0.0299095,-0.011326,0.00687069
0.0290599,0.336256,-1.17474,-0.0441831,0.00808356,-0.0211016,-0.029336,-0.00691319,0.0124305
0.0290685,0.335302,-1.17521,-0.0591756,0.0102096,-0.0366381,-0.0186568,-0.00875977,0.00801414
0.0294353,0.334356,-1.17603,-0.0459399,0.0317939,-0.0551978,-0.0113828,-0.000238627,-0.00369388
0.0304316,0.333512,-1.17692,-0.0668711,0.107433,-0.0279823,0.00967126,0.00505227,0.00311571
0.0328916,0.331398,-1.1773,-0.114988,0.0976415,-0.0347389,-0.00280651,0.0056017,-0.00438577
0.0335455,0.330606,-1.17739,0.00747108,0.00602859,0.00575956,0.0209351,-0.00234953,-0.00770438
0.032737,0.331106,-1.1769,0.0233334,-0.0284881,0.0343369,0.0144568,0.0112313,0.0104842
0.0325334,0.330951,-1.17604,-0.0542602,0.0170083,0.0398476,0.00709451,-0.00379306,0.0209933
0.0329021,0.329232,-1.17521,-0.0994176,0.0547446,0.0345408,0.0032029,-0.011111,0.000847936
0.0338866,0.327433,-1.17456,-0.0721177,0.0362841,0.02854,-0.00200506,-0.0128594,-0.0276562
0.0340661,0.326856,-1.17375,0.0143194,-0.00928092,0.0488761,0.000626385,-0.0129635,-0.0422776
0.0332442,0.327833,-1.1726,0.0638273,-0.0328806,0.0610877,-0.0040784,-0.0157154,-0.0357448
0.0322163,0.329349,-1.17136,0.0690503,-0.0264247,0.0600798,-0.00115216,-0.0156841,-0.0173269
0.0319074,0.330461,-1.17006,0.0218204,0.0582625,0.0797625,0.00993948,-0.00660634,-0.00374621
0.0333174,0.3302,-1.16846,-0.0385883,0.129527,0.0640632,-0.0114159,-0.00801301,-0.00475788
0.0352547,0.32966,-1.1673,-0.0067646,0.103174,0.0420662,-0.000558302,-0.0183657,-0.0149151
0.0368595,0.330067,-1.16659,0.0345394,0.0882109,0.03528,0.0147138,-0.00661302,-0.0133162
0.0384631,0.330891,-1.1656,0.0390884,0.0963755,0.0604034,0.0139406,-0.000461757,-0.0119013
0.0397668,0.331764,-1.16406,0.0439918,0.0946437,0.08354,0.00980534,-0.000903189,-0.00733507
0.0408601,0.333023,-1.16229,0.065961,0.0770426,0.0853164,-0.00372291,-0.0031313,-0.00169885
0.0419917,0.334432,-1.16083,0.0637375,0.0817267,0.0544235,-0.0170096,-0.00671327,0.00629485
0.0436712,0.3354,-1.16018,0.0329996,0.102485,0.015256,-0.0191453,-0.00614989,0.015583
0.0455858,0.335838,-1.15998,0.0205674,0.0840699,0.0111386,-0.000482753,0.00404477,0.0256732
0.0467789,0.33636,-1.15963,0.0337828,0.0534407,0.0247019,0.0074027,0.014837,0.0240455
0.047266,0.337278,-1.15888,0.0422583,0.0378245,0.0431707,0.00970437,0.0219901,0.0241938
0.0475223,0.337873,-1.15779,0.00293703,0.0476857,0.0532775,0.00925849,0.0202785,0.0304703
0.0483647,0.337425,-1.15661,-0.0548589,0.0741584,0.0549139,-0.000606246,0.0173526,0.032778
0.0494794,0.335981,-1.15541,-0.0899138,0.079884,0.0559259,-0.00354198,0.0128009,0.0226743
0.0508765,0.334098,-1.1542,-0.0981259,0.0947438,0.053706,-0.0108113,0.00819996,0.00210834
0.0521143,0.332406,-1.15296,-0.0742677,0.0577619,0.0496716,-0.0100242,0.00626501,-0.00272435
0.0532064,0.330845,-1.15185,-0.0808146,0.0657777,0.0564519,-0.0044751,-0.00711241,-0.0138375
0.0539388,0.329535,-1.15038,-0.0571159,0.0642761,0.0750213,-0.00924855,0.000360698,-0.0202863
0.0539388,0.329535,-1.15038,-0.0571159,0.0642761,0.0750213,-0.00924855,0.000360698,-0.0202863
0.0546095,0.328777,-1.14871,-0.0222554,0.0742986,0.0762003,-0.012688,-0.0124566,-0.0243943
0.0551828,0.328698,-1.14703,0.00902608,0.0414332,0.0771893,-0.027025,-0.0206639,-0.0127563
0.0548805,0.329424,-1.14555,0.0459045,-0.0118388,0.0662451,-0.0196006,-0.0275304,0.00457293
0.0537338,0.330239,-1.14422,0.0285428,-0.0405204,0.0648531,-0.0150393,-0.0212203,0.0188183
0.0525968,0.330545,-1.14282,-0.00276347,-0.0166407,0.0626031,-0.0136091,-0.0162772,0.0122304
0.0517462,0.330335,-1.14151,-0.0311285,-8.96333e-05,0.055093,-0.00307402,-0.0135463,0.0015372
0.0514486,0.329861,-1.14019,-0.0372109,0.0214328,0.0592861,-0.00273972,-0.0113851,-0.0157815
0.0510854,0.329865,-1.13888,0.00914992,-0.0150404,0.0629106,0.00778107,-0.00778031,-0.0204344
0.0489367,0.331172,-1.13736,0.0958776,-0.124587,0.0805225,0.0127466,-0.00356847,-0.0153091
0.0467198,0.333247,-1.13584,0.0702359,-0.0503401,0.070722,-0.00160728,-0.00180516,-0.0105596
0.0462961,0.334039,-1.13434,0.00800955,0.0389561,0.0792832,0.00618999,-0.000813127,0.00607634
0.0462906,0.334049,-1.13267,-0.00270434,0.00479859,0.075091,0.00277735,-0.00115451,0.0199893
0.0451055,0.334245,-1.13126,0.0255142,-0.0950549,0.0588928,-0.00150292,-0.00701147,0.0190911
0.0435179,0.334552,-1.13056,-0.0116185,-0.0347877,0.0207436,0.0131985,-0.00908723,0.0152881
0.0430466,0.33357,-1.1298,-0.0805243,0.0160419,0.0585126,0.0252719,0.00916585,0.00831997
0.0431844,0.332195,-1.12805,-0.0622899,0.0439116,0.098768,0.0310734,0.00890374,-0.0198927
0.0432064,0.331892,-1.12579,0.00180279,0.045897,0.0941657,-0.00374171,-0.0169259,-0.0365949
0.0439153,0.332393,-1.1244,0.0343456,0.0302955,0.0783267,0.0203303,-0.00923485,-0.0221388
0.0436389,0.33293,-1.12227,0.00513387,0.0223995,0.120398,0.0212246,-0.0068194,-0.00914967
0.0439715,0.332921,-1.11995,0.00735389,0.0601925,0.10158,-0.0135744,-0.0177537,-0.0231069
0.0443697,0.333642,-1.11818,0.0703523,0.0219378,0.074271,-0.0121851,-0.0190556,-0.0242443
0.0443887,0.335359,-1.11667,0.0751191,0.0329407,0.0752648,-0.00406038,-0.0110412,-0.00695515
0.0451091,0.336345,-1.11508,0.0150451,0.0735552,0.0850203,0.0020496,-0.00573084,0.0122973
0.0452347,0.336772,-1.11304,0.0289817,0.0105619,0.102078,0.00718656,0.00173724,0.0148671
0.0453439,0.33712,-1.1116,-0.0181416,0.0592902,0.025737,-0.0214299,-0.0304508,-0.000404537
0.0452318,0.337251,-1.11062,0.0462182,-0.0588533,0.0912992,0.0138646,0.0224383,0.00762868
0.0430058,0.338803,-1.10841,0.0686559,-0.0402785,0.0982558,0.0150392,0.0149301,-0.00680041
0.0431082,0.339433,-1.10654,-0.0101447,0.07262,0.104506,-0.00447268,0.0140747,-0.00364172
0.0430593,0.33961,-1.10387,0.0120877,0.0239528,0.130256,-0.000548348,0.0246475,0.00400722
0.0424919,0.340322,-1.10129,0.0473093,0.00892049,0.115532,-0.0107307,0.00681013,-0.00356197
0.042347,0.340957,-1.09909,0.0213696,0.0330614,0.0984421,-0.0284685,0.00763759,0.0110024
0.0422303,0.340875,-1.09717,-0.0197004,0.0137963,0.0817251,-0.0252471,0.00453934,0.0257286
0.0418786,0.339983,-1.09574,-0.0529337,0.0105933,0.0485912,-0.030742,-0.00597593,0.0185176
0.0420506,0.338596,-1.09507,-0.0734824,0.0339702,0.0185463,-0.027368,-0.00275195,0.00282818
0.0421414,0.337425,-1.09448,-0.0414791,0.0101536,0.0296371,-0.00563465,0.00755715,-0.00810951
0.0416347,0.336988,-1.09355,-0.0146491,-0.00315379,0.0461877,-0.00015809,0.0107298,-0.0138041
0.0410591,0.336947,-1.09243,-0.0072458,0.0106983,0.0503814,-0.000684001,0.00614405,-0.0153704
0.0407764,0.337033,-1.09127,0.00599042,0.0202647,0.052804,-0.00392582,0.00730914,-0.00789595
0.0407075,0.337262,-1.09011,0.0133913,0.0157907,0.0551729,-0.00826754,0.00528178,0.00428391
0.0405184,0.337365,-1.08896,0.00102118,0.00302182,0.051973,-0.0105903,0.00313652,0.01564
0.0407065,0.336893,-1.08835,-0.0500977,0.0549779,-0.00219528,-0.0161604,-0.00773117,0.0164145
0.0413626,0.335586,-1.08826,-0.0471112,-0.00717702,0.0220889,0.00151368,0.00742319,0.0237321
0.0405785,0.33514,-1.08766,-0.0081462,-0.0289769,0.0149003,-0.00173507,0.00330916,0.00837582
0.0406046,0.334924,-1.0876,-0.0244791,0.0413125,-0.00236511,-0.0103991,-0.00514957,0.00362384
0.0412376,0.334235,-1.08761,-0.0553071,0.0295183,-0.0109473,-0.00833547,-0.0013293,0.0200607
0.0419266,0.332765,-1.08807,-0.0970279,0.0295968,-0.0365226,0.00428444,-0.01044,0.0124276
0.0428979,0.330593,-1.08881,-0.0992319,0.0421887,-0.0362167,0.0108901,0.000934154,-0.0132109
0.043965,0.329422,-1.08917,-0.0231113,0.0596893,-0.0048436,0.0231402,0.0114537,-0.0321323
0.0449591,0.329689,-1.08895,0.0191959,0.0536191,0.0261,0.0296354,0.0111418,-0.0123477
0.045614,0.329845,-1.08826,-0.0268019,0.0381153,0.0363198,0.0227931,0.000989944,0.0151463
0.0460016,0.328937,-1.08763,-0.0572173,0.0176925,0.0191349,0.0148754,-0.00990999,0.00999093
0.0463724,0.32777,-1.08743,-0.0410272,0.009956,0.00718321,0.00976192,-0.0127844,-0.0100352
0.0463539,0.327467,-1.08692,0.022408,-0.0223524,0.0544196,0.010309,-9.95398e-06,-0.013187
0.0460691,0.327982,-1.08575,0.00987351,0.0183515,0.0616276,-0.00180415,-0.0157879,-0.00613809
0.0460691,0.327982,-1.08575,0.00987351,0.0183515,0.0616276,-0.00180415,-0.0157879,-0.00613809
0.0467753,0.3277,-1.08456,-0.0563089,0.0741726,0.0548434,-0.0131269,-0.0222497,-0.000722647
0.0480244,0.326526,-1.08349,-0.0606923,0.0659906,0.0457046,-0.0093214,-0.0262608,-0.0138601
0.0489124,0.325913,-1.0826,-0.00693789,0.0513851,0.0428452,-0.00107689,-0.0262772,-0.0265677
0.0492681,0.326268,-1.08147,0.0249564,0.0305405,0.0691098,0.0111197,-0.0172282,-0.0184122
0.0494374,0.326932,-1.07969,0.0178755,0.0406825,0.101222,0.0181111,-0.0142337,-0.00639558
0.0494479,0.327487,-1.07706,0.0187626,0.0551203,0.144885,0.0153024,-0.0119231,-0.000501156
0.0494889,0.328132,-1.07385,0.0224589,0.0504455,0.15624,0.00265483,-0.0180719,0.000357568
0.0491672,0.328867,-1.07068,0.032124,0.00979904,0.149916,-0.0039568,-0.0234649,0.00425577
0.0480419,0.329809,-1.06777,0.0436526,-0.0280175,0.133976,-0.00789857,-0.0178736,0.00299609
0.0468731,0.330744,-1.06514,0.0310958,-0.0111699,0.122575,-0.00685616,-0.0135256,-0.00627226
0.0460514,0.331526,-1.06256,0.0301272,0.00303591,0.127142,-0.00220762,-0.00369146,-0.0156302
0.0452934,0.332716,-1.05976,0.063553,0.0130252,0.142984,0.000173897,0.00254491,-0.025888
0.0447137,0.334629,-1.05664,0.0953126,0.0378883,0.156443,-0.00149379,0.00619939,-0.0227358
0.0439572,0.336939,-1.05302,0.122425,-0.0147835,0.203665,-0.00874208,0.0116147,0.00421506
0.0429029,0.339149,-1.04915,0.0583527,0.0463724,0.159594,-0.0237078,-0.00187978,0.0222181
0.0436844,0.338925,-1.04659,-0.0721211,0.131858,0.0899731,-0.0224484,-0.00819471,0.031126
0.0459672,0.336351,-1.04507,-0.167061,0.136876,0.045969,-0.00622101,-0.00137606,0.0226496
0.0481057,0.332962,-1.04375,-0.16408,0.13808,0.0594698,0.0181372,0.00770593,-0.00550824
0.0497908,0.330252,-1.04196,-0.119275,0.0941534,0.0969096,0.0124591,0.00876027,-0.0255334
0.0511801,0.328399,-1.03956,-0.115879,0.123442,0.0980167,0.0148848,-0.00478783,-0.0356367
0.0530637,0.325622,-1.03805,-0.184285,0.145306,0.0247808,0.0127823,-0.00482452,-0.0319852
0.0548475,0.321836,-1.0371,-0.180123,0.0468797,0.0505653,0.0123257,-0.00411022,-0.0391595
0.0545957,0.319471,-1.03597,-0.043889,-0.0403429,0.0348009,-0.000889003,-0.0123216,-0.0454515
0.0532767,0.320509,-1.03591,0.147642,-0.0758699,-0.0325575,-0.00487015,-0.00373697,-0.0273995
0.0534772,0.325524,-1.03898,0.37536,-0.0193953,-0.23255,-0.039582,0.0461088,-0.0164873
0.055739,0.334857,-1.0452,0.583248,0.0480686,-0.263711,0.0044978,0.0238398,-0.00718951
0.059014,0.346986,-1.05054,0.632765,0.0547303,-0.15663,0.0229807,0.0175703,0.0157303
0.0596845,0.358482,-1.05274,0.513192,-0.0446386,0.0166339,0.0125327,0.046272,0.051081
0.0581384,0.367149,-1.05139,0.347695,-0.0497146,0.155368,0.00530659,0.0440145,0.0586697
0.0554038,0.372919,-1.0471,0.21181,-0.0641041,0.263418,0.00678015,0.0313275,0.0657185
0.0519315,0.376651,-1.04166,0.145032,-0.0754931,0.24765,-0.0108397,0.0196332,0.05583
0.0491364,0.379241,-1.03698,0.0844581,-0.0391148,0.20887,-0.0226317,0.00572854,0.0518482
0.0469575,0.380291,-1.03285,-0.000967331,-0.0208529,0.171362,-0.0436325,-0.0121559,0.0362977
0.0462457,0.379847,-1.02997,-0.0469181,0.0598026,0.0967297,-0.0604664,-0.00863162,0.0344943
0.0473654,0.379038,-1.02834,-0.0424919,0.0966142,0.0530061,-0.037975,-0.00565949,0.0229955
0.0495014,0.378328,-1.02755,-0.0398356,0.25348,0.0230662,-0.0102308,-0.00137556,0.0217273
0.0507961,0.375795,-1.02689,-0.234857,-0.106161,0.0193582,0.0122935,-0.0184398,0.0306855
0.0490975,0.369868,-1.02591,-0.337227,-0.0247158,0.0307085,-0.0309121,-0.0375858,-0.0125504
0.0477893,0.363651,-1.02528,-0.26934,-0.056172,-0.0102621,-0.04924,-0.0186858,-0.0493421
0.0475204,0.359833,-1.02555,-0.129099,0.0119799,-0.0257748,-0.0283928,-0.0234157,-0.0409159
0.0468416,0.357521,-1.02588,-0.13439,-0.104551,-0.00981239,-0.00754778,-0.0150215,0.00138289
0.0446733,0.354676,-1.02556,-0.157246,-0.0723686,0.0185562,-0.0101254,-0.0141633,-0.00581884
0.0434394,0.351949,-1.02503,-0.115086,-0.0219613,0.0103132,-0.0275345,-0.0119157,-0.024341
0.0430705,0.35026,-1.02492,-0.0632014,0.00289777,-0.0115389,-0.0216899,-0.0198039,-0.0189238
0.0432282,0.349107,-1.02528,-0.0750999,-0.0147666,-0.0253418,-0.00519235,-0.0112433,0.0108222
0.042524,0.347048,-1.02569,-0.143674,-0.0543946,-0.0261903,0.00853096,-0.00306192,0.0240949
0.0415034,0.343572,-1.02606,-0.203577,-0.0527772,-0.0271151,0.00167433,0.000731587,0.0111355
0.0401457,0.339651,-1.02633,-0.197134,-0.0630219,-0.0218745,0.00431792,0.0049569,-0.0118682
0.0391604,0.336365,-1.02654,-0.148445,-0.0397281,-0.0183598,0.00338779,0.00818947,-0.030045
0.0387581,0.33445,-1.02671,-0.0682531,-0.0149884,-0.00476084,0.0054518,0.0161162,-0.0298123
0.0385923,0.333754,-1.0267,-0.0235001,-0.00794921,0.0079173,0.00964308,0.0144363,-0.0116643
0.0379802,0.333269,-1.02633,-0.0289973,-0.0475842,0.0258503,0.00714796,0.0104682,0.00771207
0.0370415,0.3323,-1.02613,-0.0615486,-0.0511994,-0.00986023,0.00626791,0.00128224,0.0171406
0.0358519,0.330469,-1.02637,-0.100769,-0.076078,-0.0118511,0.0106357,0.00321296,0.0194706
0.0358519,0.330469,-1.02637,-0.100769,-0.076078,-0.0118511,0.0106357,0.00321296,0.0194706
0.0346145,0.328012,-1.02651,-0.128795,-0.0486091,-0.00867642,0.00492667,-0.00176743,0.00458938
0.0353792,0.324528,-1.02708,-0.199783,0.00862962,-0.0656906,-0.00351149,-0.0064556,-0.0184596
0.0341939,0.321693,-1.02809,-0.0780407,-0.122883,-0.0319286,0.0235357,-0.0148056,-0.0201604
0.0322137,0.321409,-1.02854,0.0173643,-0.0954429,-0.0154522,0.0090377,0.00759974,-0.0238842
0.0308969,0.321599,-1.0289,-0.0122335,-0.0702128,-0.0115142,0.0117227,-0.0131704,-0.0119724
0.0293688,0.3213,-1.02903,-0.00893058,-0.0811218,7.18716e-05,0.0116126,-0.0192831,-0.0130854
0.0279663,0.321914,-1.02928,0.0777922,-0.0804056,-0.0228789,-0.0180271,-0.0213091,-0.0419891
0.0268961,0.324733,-1.03026,0.213422,-0.0823893,-0.0569121,-0.0131888,-0.0212001,-0.044245
0.0248546,0.330265,-1.03149,0.351798,-0.173364,-0.0422287,0.00656605,-0.0055407,-0.0414876
0.0219134,0.338981,-1.03235,0.521413,-0.153718,-0.0171391,0.00403921,0.000998527,-0.0645329
0.0186294,0.350373,-1.03258,0.592761,-0.193531,0.020461,0.0204215,0.000504881,-0.0275928
0.0141166,0.361244,-1.03185,0.468993,-0.231378,0.0677509,0.0423064,-0.00494471,0.0335397
0.00912313,0.368624,-1.03008,0.28292,-0.171703,0.101485,0.0278668,-0.00767899,0.0403291
0.00824503,0.372952,-1.02807,0.123408,0.0914768,0.0816187,-0.00404659,-1.42157e-05,0.0824542
0.00727466,0.372908,-1.02677,-0.114008,-0.0520859,0.0344738,0.00135829,-0.0315034,0.0806003
0.00682116,0.369126,-1.0268,-0.253136,-0.0306517,-0.0480831,-0.0368335,-0.0336242,0.0630841
0.00610327,0.363594,-1.02854,-0.283688,-0.0797968,-0.109359,-0.0284399,-0.0207985,0.0248019
0.00533038,0.35821,-1.03092,-0.257148,-0.104891,-0.102317,0.00280519,-0.000918478,-0.00202495
0.00326344,0.353488,-1.03248,-0.200431,-0.152334,-0.0407765,0.0205589,0.0149496,-0.0239159
0.000434979,0.350492,-1.03263,-0.0966674,-0.136487,0.0212378,0.0177952,0.022849,-0.0455221
-0.00210391,0.349832,-1.03197,0.0162565,-0.0829116,0.0338713,0.00190015,0.0169034,-0.0514774
-0.00346572,0.350537,-1.03132,0.0386873,-0.0507143,0.0295252,-0.00561043,0.0103026,-0.0157732
-0.00457585,0.3509,-1.03083,-0.00212308,-0.0431859,0.0149944,-0.018225,0.00873622,0.0133643
-0.00524591,0.350547,-1.03084,-0.015706,-0.0352111,-0.0109874,-0.0236987,0.00806898,0.0193418
-0.00563165,0.350034,-1.03135,-0.0215545,-0.0249519,-0.0352747,-0.0231065,0.00745043,0.0184628
-0.00575706,0.349151,-1.03222,-0.0694915,-0.0188798,-0.0472285,-0.0175243,0.00929061,0.0224422
-0.00567581,0.34714,-1.03318,-0.130175,0.000311012,-0.0474726,-0.0119205,0.00541669,0.0209466
-0.00557565,0.344274,-1.03414,-0.149791,-0.0152469,-0.0484879,-0.0093695,0.00224689,0.00351632
-0.00606676,0.341682,-1.03522,-0.107139,-0.0394178,-0.0611222,-0.0148223,-0.00191808,-0.0211427
-0.00667192,0.34016,-1.03677,-0.0539558,-0.053772,-0.090202,-0.0134706,-0.00623617,-0.0313798
-0.00722261,0.339591,-1.03878,-0.0184455,-0.0515114,-0.0998352,-0.00969997,0.000414103,-0.0231981
-0.00744897,0.339283,-1.04083,-0.0194919,-0.0359176,-0.0909329,-0.00362641,0.00552532,-0.00509173
-0.00781398,0.33869,-1.04248,-0.0426281,-0.0443785,-0.0696654,0.00216671,-0.00035888,0.00856102
-0.00859395,0.337539,-1.04386,-0.0652482,-0.0679448,-0.0682186,-0.00542567,-0.00797626,0.0119735
-0.00916834,0.336453,-1.04553,-0.0426137,-0.0377087,-0.0952143,-0.0256934,-0.00948879,0.000212014
-0.00945391,0.335644,-1.04788,-0.0424209,-0.0683222,-0.123299,-0.0249025,-0.00753689,0.00815165
-0.00994761,0.3345,-1.0506,-0.0795511,-0.0680115,-0.128081,-0.0107455,-0.0102808,0.00676858
-0.0101087,0.332814,-1.05341,-0.10305,-0.0368313,-0.132149,-0.00678832,-2.20537e-06,-0.00690204
-0.00985516,0.330829,-1.0561,-0.107761,-0.0127801,-0.127533,-0.00157421,0.000868022,-0.0143709
-0.00957765,0.32888,-1.05866,-0.0961086,-0.0223582,-0.124548,0.000900701,-0.000136524,-0.0207409
-0.00933716,0.327673,-1.06118,-0.0445229,-0.0176028,-0.114524,0.00745165,0.00348133,-0.0238132
-0.00880055,0.327353,-1.0635,-0.0014401,0.00671295,-0.106071,0.00949273,0.00574213,-0.0199216
-0.00763992,0.327375,-1.06571,-0.00854939,0.0360603,-0.104277,0.0106978,0.00399283,0.00354844
-0.00633984,0.326634,-1.06795,-0.0666744,0.0236492,-0.109273,0.0130999,0.00210094,0.0273699
-0.00522381,0.324853,-1.07027,-0.0985875,0.00185032,-0.10642,0.0183172,0.00259575,0.0266793
-0.00489996,0.323019,-1.07236,-0.0698,-0.0239234,-0.0880264,0.0249559,0.00152832,0.00648224
-0.00481231,0.321985,-1.07412,-0.0404898,-0.0348829,-0.0735044,0.0215175,0.00501791,-0.000742555
-0.00508406,0.321137,-1.07554,-0.0567765,-0.0465825,-0.0583372,0.0222649,0.00297776,-0.00108629
-0.00574805,0.320164,-1.07661,-0.0441812,-0.0704753,-0.037997,0.0210504,0.00573146,-0.0121507
-0.00679604,0.319906,-1.07732,0.0161032,-0.0751387,-0.0241172,0.0195737,0.00409797,-0.0271362
-0.00796225,0.320646,-1.07766,0.0469668,-0.0778296,-0.000364009,0.0175203,0.00872242,-0.00973833
-0.00936756,0.321105,-1.07765,-0.00807186,-0.0813535,0.00686981,0.00682866,0.00430521,0.0134972
-0.0106839,0.320113,-1.07768,-0.082597,-0.0714525,-0.00890552,-0.00266119,-0.00266308,0.0161928
-0.0106839,0.320113,-1.07768,-0.082597,-0.0714525,-0.00890552,-0.00266119,-0.00266308,0.0161928
-0.0116984,0.318061,-1.07814,-0.102108,-0.0679845,-0.029973,-0.00826733,-0.00696132,-0.00859547
-0.0124253,0.316407,-1.07901,-0.0540775,-0.0447318,-0.0432519,-0.00396947,-0.00088805,-0.0319985
-0.0126534,0.315796,-1.07986,-0.0159956,-0.0191291,-0.0327446,-0.00240748,0.00410032,-0.0310329
-0.0126479,0.315676,-1.08044,-0.0111872,-0.0151624,-0.02244,-0.000581205,0.000172108,-0.0103049
-0.0131902,0.315351,-1.08089,-0.0248203,-0.0361132,-0.027661,-0.00395542,-0.00646943,-0.000109315
-0.013425,0.314799,-1.0817,-0.0268884,-0.0206181,-0.0537314,-0.0161505,-0.00916076,0.00138617
-0.013644,0.314101,-1.08307,-0.0334266,-0.0362915,-0.0710895,-0.0158478,-0.00915372,0.00317109
-0.0137337,0.313272,-1.08462,-0.0459468,-0.0177698,-0.076605,-0.0124326,-0.00554761,0.00156409
-0.0134674,0.312272,-1.08608,-0.0570018,-0.00575768,-0.0612936,-0.00502188,0.000535339,-0.00010848
-0.0133055,0.311563,-1.08712,-0.0237315,0.00119815,-0.0441935,-0.00395232,0.00320226,-0.010982
-0.0132346,0.311629,-1.08798,0.00736756,-0.0147446,-0.0433398,-0.00583588,0.00277689,-0.012512
-0.0131096,0.311866,-1.089,0.0025925,0.017894,-0.054788,-0.00861084,-0.000523061,-0.0145513
-0.0122238,0.311612,-1.09017,-0.0324596,0.0379995,-0.0518387,-0.00379185,0.00773442,-0.00436139
-0.0112452,0.310757,-1.09108,-0.0400205,0.0306229,-0.0319862,0.00393141,0.0108579,0.00215197
-0.0109306,0.310275,-1.09165,0.00605742,0.0107378,-0.0264104,-0.00419429,0.00870487,-0.00854635
-0.010336,0.310798,-1.09237,0.0377524,0.016242,-0.0446415,-0.012422,0.0119188,-0.00117749
-0.0102646,0.311518,-1.09318,0.0320871,-0.0339347,-0.0326453,0.00632186,0.00820985,0.0220555
-0.0109898,0.311618,-1.09374,-0.0190187,-0.040981,-0.0202607,0.00441777,0.0135085,0.0352926
-0.0116111,0.310429,-1.09401,-0.0853505,-0.030346,-0.00636155,-0.00115117,0.0116138,0.0301871
-0.0124806,0.308287,-1.09428,-0.107221,-0.0764142,-0.0219725,-0.00486226,0.00173044,0.0132205
-0.01384,0.306635,-1.09506,-0.0505878,-0.0703737,-0.0534122,-0.0143787,-0.00314006,-0.0249776
-0.0144749,0.30634,-1.09643,0.00509825,-0.0452334,-0.0682629,-0.0101558,0.00852633,-0.0292917
-0.0146715,0.306497,-1.09761,-0.00471516,-0.0190291,-0.0408662,0.00277205,0.0144439,-0.00762862
-0.0151093,0.306005,-1.09817,-0.0427787,-0.0326966,-0.0179629,0.00320688,0.00823754,0.00111943
-0.0155594,0.305139,-1.0986,-0.0456178,-0.0257547,-0.0304302,-0.0152198,0.00429884,0.000152647
