attitude_roll,attitude_pitch,attitude_yaw,rotationRate_x,rotationRate_y,rotationRate_z,acceleration_x,acceleration_y,acceleration_z
0.269673,0.451722,-0.0623239,-0.375741,0.516412,-0.53746,-0.112329,-0.0043875,-0.140449
0.276179,0.44456,-0.0682639,-0.0279651,-0.378933,0.0450136,0.135491,0.0849227,0.0167046
0.263212,0.445917,-0.0647138,0.0650812,-0.628501,0.271136,0.148483,0.0410881,-0.0100223
0.250386,0.448702,-0.058888,0.0561579,-0.388008,0.280294,0.013489,0.0283094,-0.0653179
0.243899,0.450062,-0.0542228,-0.0370097,-0.0725673,0.152691,-0.0718871,-0.00842908,-0.0551689
0.24325,0.449746,-0.0521411,0.0127328,0.0575107,0.0145369,-0.0603209,-0.0241256,-0.0224389
0.242779,0.451337,-0.0530433,0.142743,-0.147187,-0.00486392,-0.0220994,0.00254482,-0.00125039
0.238433,0.454643,-0.0520584,0.138715,-0.252413,0.168188,0.0478368,0.0279483,0.00238007
0.231232,0.456784,-0.0481748,-0.0363734,-0.258814,0.187953,0.0235518,0.0175106,-0.00560707
0.227229,0.454535,-0.0446904,-0.244006,0.0437342,0.0700766,-0.0454073,-0.00770217,-0.0265926
0.230519,0.449434,-0.0427799,-0.243227,0.29313,-0.0182381,-0.0337199,0.00455454,-0.046716
0.234878,0.446028,-0.0427131,-0.083961,0.142865,-0.0279898,0.00958696,0.0331922,-0.0519094
0.236124,0.446145,-0.0422758,0.0912894,-0.0230491,0.0912666,0.0403661,0.0392798,-0.0378015
0.232333,0.448927,-0.038984,-0.00273601,-0.173354,0.247166,0.0254761,0.0467773,-0.0226916
0.228095,0.448582,-0.0334812,-0.142525,-0.0889837,0.179735,0.00616431,0.0294676,-0.0135109
0.224074,0.442425,-0.0280172,-0.541716,0.0460466,0.161947,-0.000842765,-0.0188734,0.0430494
0.223313,0.43029,-0.0208549,-0.732671,0.158514,0.208517,0.00011161,0.0026902,0.031404
0.223167,0.417878,-0.0128453,-0.606804,0.140505,0.226696,0.00432891,0.00379851,-0.020654
0.222744,0.409603,-0.00565818,-0.343762,0.0990861,0.234187,-0.0195585,0.00372958,-0.036886
0.221513,0.406627,-7.29118e-05,-0.0631061,-0.00386503,0.187511,-0.0343561,-0.0149477,-0.0603259
0.220292,0.408421,0.00252701,0.170238,0.00780923,0.0790184,-0.0435896,-0.0304206,-0.0584855
0.22106,0.412775,0.00183563,0.239513,0.0328848,-0.0408164,-0.0638239,-0.0277407,-0.0110037
0.221385,0.41471,-5.67769e-05,-0.144342,-0.118562,-0.043683,-0.0555213,-0.0396718,0.0580726
0.218985,0.408192,0.00126086,-0.431626,-0.0638538,0.0168605,-0.00951008,-0.0360174,0.117677
0.216695,0.398652,0.0036781,-0.542189,-0.0481239,-0.0110018,-0.0355003,-0.0152045,0.0506669
0.215548,0.388181,0.00585407,-0.508771,-0.000178412,-0.0181337,0.0005472,-0.0150488,0.0194296
0.214788,0.37904,0.007449,-0.425528,-0.02526,-0.031552,0.000932381,-0.00289622,0.0117684
0.213642,0.371345,0.00819356,-0.344911,-0.07878,-0.0766409,-0.0106339,0.00367752,0.0422619
0.211049,0.363818,0.00686194,-0.395847,-0.216815,-0.208111,-0.0286902,-0.00441462,0.0804653
0.207927,0.353703,0.00391525,-0.546121,-0.166783,-0.258671,-0.0012397,-0.0125735,0.110838
0.206919,0.340622,0.00118013,-0.687703,-0.0366342,-0.255449,0.0116955,0.0214513,0.13701
0.206875,0.325049,-0.000147397,-0.81275,-0.0168346,-0.194649,0.0260868,0.0352219,0.172394
0.205936,0.307485,-0.000356069,-0.908276,-0.0985411,-0.194676,0.0540086,0.0283703,0.200018
0.202871,0.288113,-0.000877005,-0.98341,-0.222814,-0.254686,0.0560138,0.00391567,0.227846
0.197744,0.266617,-0.00248281,-1.11961,-0.331778,-0.328361,0.0676092,-0.0152476,0.256461
0.189842,0.24159,-0.00499954,-1.30469,-0.569524,-0.387759,0.0933875,0.00284222,0.288552
0.17519,0.21246,-0.00745645,-1.53013,-0.97595,-0.364151,0.11214,0.02747,0.26843
0.15269,0.179207,-0.00784548,-1.75655,-1.1896,-0.17782,0.141186,0.042416,0.195941
0.130192,0.141878,-0.00143217,-2.06773,-0.961532,0.330362,0.174595,0.113021,0.0791084
0.111812,0.0975613,0.017109,-2.56258,-0.630662,0.9606,0.203358,0.143091,0.0639658
0.101084,0.0458535,0.0451478,-2.87745,-0.181698,1.23567,0.155786,0.10994,0.0673054
0.104155,-0.0108247,0.0779945,-3.0976,0.491365,1.43193,0.14639,0.0787905,0.0392003
0.119584,-0.0696727,0.114807,-3.13699,0.873499,1.61964,0.0932245,0.178675,0.0138412
0.141485,-0.12428,0.157729,-2.77898,0.825833,1.90259,0.121717,0.171298,-0.0385478
0.161308,-0.166616,0.203756,-2.12515,0.487824,1.92863,0.103196,0.0750441,-0.0484859
0.176113,-0.196934,0.246539,-1.60502,0.212751,1.67607,0.0702628,0.0612643,-0.0183235
0.185334,-0.219667,0.280584,-1.26929,0.0267885,1.18153,-0.000326708,0.0582644,0.0629705
0.189198,-0.2386,0.305145,-1.0518,-0.277885,0.889497,-0.0212902,-0.000502214,0.100571
0.182428,-0.253213,0.328069,-0.779597,-0.943022,1.07856,0.0890917,0.105136,0.104178
0.166688,-0.260537,0.355275,-0.363624,-1.28126,1.3919,0.0682134,0.147353,0.037805
0.147315,-0.257674,0.386415,0.145376,-1.43889,1.57246,0.0550848,0.168553,-0.0240029
0.124439,-0.248493,0.416681,0.308678,-1.63361,1.42547,0.0407204,0.128309,-0.0567349
0.124439,-0.248493,0.416681,0.308678,-1.63361,1.42547,0.0407204,0.128309,-0.0567349
0.0960993,-0.240208,0.442486,0.209733,-1.83436,1.16702,0.00508525,0.116268,-0.021764
0.062959,-0.236313,0.464712,0.00440285,-2.00231,1.06532,-0.0079461,0.123409,0.0237331
0.029276,-0.238146,0.487027,-0.362807,-1.75119,1.10873,-0.00384846,0.141418,0.00747812
0.00538862,-0.250205,0.511472,-0.833094,-1.25526,1.28846,-0.0456718,0.14879,-0.0977113
-0.0046706,-0.268744,0.540123,-0.976268,-0.478718,1.45359,-0.0715926,0.108884,-0.206819
-0.00249456,-0.287496,0.570335,-0.852339,-0.258322,1.45147,-0.0831638,0.0630974,-0.246139
-0.000420837,-0.301171,0.59923,-0.49005,-0.400159,1.30035,-0.0859933,0.00148711,-0.223401
-0.0041013,-0.306956,0.622674,-0.109852,-0.67837,0.913119,-0.134213,-0.0570255,-0.171201
-0.0150369,-0.30654,0.638016,0.15508,-0.85654,0.574443,-0.160301,-0.121708,-0.154711
-0.0304563,-0.301887,0.647984,0.300904,-0.982507,0.405924,-0.142724,-0.132314,-0.141155
-0.04667,-0.295989,0.655867,0.277665,-0.824947,0.332544,-0.108299,-0.117339,-0.0950646
-0.058287,-0.293084,0.662978,0.0127047,-0.574708,0.377158,-0.0849008,-0.105938,-0.0458857
-0.0668187,-0.297245,0.67218,-0.359934,-0.548919,0.540374,-0.0205096,-0.137644,-0.0578731
-0.072669,-0.307335,0.685861,-0.51228,-0.424341,0.862753,-0.0254319,-0.133468,-0.0895641
-0.073212,-0.319732,0.705784,-0.587255,-0.279823,1.07099,-0.0372651,-0.113277,-0.137116
-0.0711485,-0.333717,0.727987,-0.662219,-0.199272,1.18883,-0.0734278,-0.0829129,-0.167987
-0.0638022,-0.350025,0.755888,-0.801847,0.0183975,1.56429,-0.0242899,-0.0329542,-0.177156
-0.049776,-0.369096,0.790456,-0.90009,0.125367,1.7259,-0.0677005,-0.0553678,-0.207494
-0.0351461,-0.386162,0.82536,-0.565445,0.0447313,1.49345,-0.127727,-0.112003,-0.234474
-0.0281299,-0.389314,0.849001,0.368483,-0.283911,0.716289,-0.206492,-0.0348117,-0.276277
-0.0328355,-0.374175,0.861977,1.08175,-0.642984,0.536733,-0.134038,-0.0968277,-0.291372
-0.0422829,-0.351244,0.874316,1.17901,-0.696436,0.524806,-0.0718064,-0.105586,-0.13625
-0.0520665,-0.32994,0.885089,0.977548,-0.647911,0.366689,-0.052708,-0.145672,-0.00575113
-0.0632242,-0.312869,0.892376,0.767633,-0.721573,0.244436,-0.0359849,-0.146291,0.106902
-0.0780832,-0.299173,0.897698,0.674115,-0.951041,0.207984,-0.0273286,-0.140937,0.147386
-0.0986024,-0.285904,0.905008,0.701072,-1.56614,0.528432,-0.028646,-0.155621,0.195043
-0.133361,-0.273749,0.921074,0.676066,-2.21462,0.631164,0.053735,-0.065646,0.310493
-0.180115,-0.262849,0.929801,0.468558,-2.52566,0.0407763,-0.054,-0.209707,0.326787
-0.225935,-0.257366,0.92732,0.0233709,-1.88058,-0.308379,-0.100865,-0.296419,0.34457
-0.253689,-0.260404,0.921487,-0.482852,-0.749828,-0.0921536,-0.0287248,-0.0949647,0.379999
-0.264575,-0.274613,0.920199,-0.853192,-0.498511,0.304785,0.143638,-0.0245161,0.341178
-0.27643,-0.293509,0.92297,-0.873391,-0.788269,0.436318,0.125418,-0.0959836,0.234249
-0.294138,-0.313126,0.926255,-0.979684,-1.06873,0.351265,-0.00114393,-0.0842181,0.274789
-0.317974,-0.336459,0.922116,-1.40837,-1.14717,-0.0643166,-0.143302,-0.116005,0.35825
-0.344055,-0.364829,0.905629,-1.72917,-0.892089,-0.426536,-0.161043,-0.105249,0.22871
-0.36778,-0.393069,0.88381,-1.57212,-0.714899,-0.442692,-0.03816,-0.0486439,0.011929
-0.387671,-0.416563,0.864721,-1.30833,-0.474512,-0.3004,-0.0186892,-0.0372949,-0.021297
-0.401409,-0.440759,0.852318,-1.47248,-0.400202,0.0688817,0.0519981,0.0874424,0.140337
-0.426704,-0.467456,0.839148,-1.42242,-1.71768,-0.0190876,-0.0118913,-0.129129,0.2076
-0.47859,-0.490584,0.827771,-1.05079,-2.73025,0.0211115,0.0612874,-0.053798,0.0670884
-0.536125,-0.506604,0.815517,-0.983806,-2.28392,-0.138154,-0.142431,-0.0738644,-0.133494
-0.579514,-0.524492,0.801028,-1.22562,-1.3773,0.0640018,-0.0409782,0.00150013,-0.176579
-0.60706,-0.548551,0.787051,-1.40451,-0.657329,0.238562,-0.0183986,0.0933711,-0.277035
-0.619147,-0.572663,0.774054,-1.1192,0.131786,0.239828,-0.153252,0.0602551,-0.606353
-0.61476,-0.588211,0.76751,-0.46242,0.579368,0.251606,-0.150847,0.0438659,-0.817987
-0.601092,-0.59434,0.772563,0.183453,0.432518,0.447272,-0.0264934,0.0219925,-0.737284
-0.587899,-0.593644,0.78582,0.374302,0.215785,0.406167,-0.0460437,-0.0639938,-0.527957
-0.575322,-0.593545,0.797817,0.187586,0.411151,0.437474,-0.0485448,-0.127006,-0.39645
-0.557963,-0.595485,0.809464,0.189629,0.639782,0.48682,-0.0620241,-0.0803502,-0.44284
-0.537128,-0.595904,0.821954,0.339068,0.741802,0.408855,-0.0700655,-0.0547871,-0.499568
-0.517303,-0.590802,0.835109,0.638367,0.456872,0.280174,-0.0832928,0.0212196,-0.513492
-0.517303,-0.590802,0.835109,0.638367,0.456872,0.280174,-0.0832928,0.0212196,-0.513492
-0.503695,-0.579781,0.849024,0.854833,0.116222,0.241641,-0.0855446,0.117717,-0.44055
-0.497447,-0.564971,0.864018,1.042,-0.230464,0.135115,-0.0294481,0.134745,-0.409416
-0.490286,-0.543646,0.876619,1.44744,0.514441,-0.337397,-0.0729608,0.129377,-0.492289
-0.471996,-0.508177,0.883035,1.81354,0.743855,-0.669487,-0.0199957,0.275057,-0.35
-0.456945,-0.472296,0.888462,1.59589,0.55698,-0.483901,0.471201,0.265877,-0.00314528
-0.441566,-0.444557,0.898814,1.24402,0.637828,0.233676,0.730223,0.241298,0.0865477
-0.411593,-0.432766,0.920512,0.700431,1.38047,1.16324,0.679212,0.335042,0.157875
-0.37172,-0.43464,0.960271,0.579009,0.746014,2.13677,0.588511,0.349149,0.147948
-0.347906,-0.437237,1.01663,1.03374,-0.870196,2.75119,0.219151,0.359551,-0.00653493
-0.350949,-0.426498,1.08668,2.27467,-2.15082,2.81724,-0.227749,0.423565,-0.289696
-0.36383,-0.391585,1.16451,3.33168,-2.06616,2.63774,-0.538146,0.450255,-0.337569
-0.371301,-0.348906,1.24105,3.06174,-1.50678,2.51187,-0.565893,0.426089,0.107841
-0.376525,-0.316173,1.30884,2.3435,-1.28238,2.17955,-0.53446,0.28413,0.390063
-0.386094,-0.292354,1.3591,1.67286,-1.20273,1.35506,-0.705934,0.167604,0.43052
-0.402208,-0.272675,1.38726,1.26756,-1.16436,0.423872,-0.734187,-0.0242672,0.278337
-0.420807,-0.250778,1.39964,1.23261,-1.06125,-0.125389,-0.523607,-0.0379224,0.0674202
-0.441841,-0.227667,1.40543,1.09028,-1.19354,-0.290822,-0.266993,0.00525144,0.0375609
-0.466914,-0.206952,1.40846,0.906657,-1.43131,-0.366735,-0.102838,-0.023837,0.0581725
-0.498061,-0.187855,1.40866,0.812872,-1.66143,-0.514128,-0.0964319,-0.0398714,0.0347316
-0.533416,-0.168153,1.40353,0.671921,-1.74596,-0.949198,-0.232123,-0.0318332,0.00170124
-0.567272,-0.142248,1.39046,0.942936,-1.41776,-1.51374,-0.321381,-0.0784298,-0.205218
-0.594362,-0.102739,1.37387,1.44311,-1.0795,-2.03772,-0.333933,-0.0038185,-0.31719
-0.614738,-0.0518829,1.35436,1.55862,-0.942687,-2.47982,-0.269033,0.0585835,-0.165391
-0.641318,0.00577576,1.32344,1.30498,-1.80081,-3.58986,-0.50245,0.0561146,0.152796
-0.688401,0.0786566,1.27137,1.28162,-3.02914,-4.87829,-0.590431,0.0447316,0.0678792
-0.741051,0.164142,1.21334,1.36502,-2.66418,-4.94023,-0.164042,0.399825,-0.217424
-0.768285,0.245352,1.16233,1.03562,-1.03577,-4.21423,0.261739,0.595681,-0.242069
-0.760423,0.307258,1.11584,0.289872,0.48096,-3.37821,0.510068,0.522265,-0.0156572
-0.724322,0.348342,1.06502,-0.539398,1.32664,-3.11315,0.351117,0.387772,0.205066
-0.673403,0.380289,0.993676,-1.17063,1.01109,-4.2507,-0.420173,0.261173,0.323285
-0.627099,0.422765,0.899043,-0.469413,0.047036,-5.03743,-0.569387,0.261571,-0.0755219
-0.592531,0.481638,0.816182,0.958377,-0.0994032,-4.31026,0.146877,0.618093,-0.517006
-0.565333,0.543156,0.759944,1.34081,0.119362,-3.19168,0.633832,0.560588,-0.35576
-0.532841,0.594241,0.717303,1.12176,0.942594,-2.79256,0.443972,0.382512,-0.137231
-0.476048,0.640383,0.664339,0.792989,1.49561,-3.22313,-0.150137,0.209609,0.0187094
-0.407192,0.678679,0.596848,0.448759,1.21697,-3.19347,0.0224909,0.298145,0.203527
-0.340525,0.709293,0.527852,0.516991,1.06141,-2.82317,0.303619,0.374961,0.128382
-0.281655,0.736654,0.468223,0.746155,0.948507,-2.31527,0.475564,0.419662,0.0691845
-0.223269,0.765242,0.41776,1.06551,1.50024,-1.98183,0.269035,0.390588,-0.0333965
-0.160825,0.791466,0.374843,0.839013,1.60847,-1.50643,0.32383,0.327214,0.13282
-0.109043,0.807078,0.340893,0.402806,0.996353,-1.10241,0.368449,0.191005,0.320698
-0.0793229,0.815816,0.313951,0.382469,0.158303,-0.853261,0.258631,0.157149,0.230727
-0.0592454,0.827251,0.29121,0.646799,0.284861,-0.785912,0.102855,0.203206,0.00371701
-0.0339226,0.843066,0.270661,0.832598,0.717851,-0.633769,0.0116807,0.226728,-0.073762
-0.00676788,0.859082,0.255301,0.660326,0.73177,-0.432657,0.152659,0.190334,0.0443223
0.0125861,0.865295,0.24364,-0.115657,0.33065,-0.328194,0.164889,0.073375,0.295855
0.0224486,0.853128,0.236719,-1.07959,0.1859,-0.142027,0.18284,0.0337982,0.365716
0.0282384,0.823995,0.23611,-1.77225,0.410117,0.0193228,0.152115,0.0233552,0.216286
0.0369272,0.786869,0.240478,-1.86546,0.724708,0.178477,0.0922038,0.0291457,-0.0397314
0.0437499,0.753181,0.249854,-1.4854,0.539182,0.35272,0.121262,0.0114928,-0.212343
0.0437499,0.753181,0.249854,-1.4854,0.539182,0.35272,0.121262,0.0114928,-0.212343
0.0426867,0.729928,0.261641,-0.864252,0.149949,0.380816,0.0837228,-0.0241017,-0.297937
0.0368765,0.720186,0.271242,-0.157624,-0.0521202,0.310549,-0.0343203,-0.0291502,-0.329608
0.0295497,0.721818,0.279479,0.244237,-0.144058,0.324257,-0.0411437,-0.0180216,-0.236783
0.0203366,0.729264,0.28859,0.476001,-0.151506,0.386881,-0.0267447,-0.0325012,-0.146976
0.0107647,0.740683,0.298526,0.660562,-0.138502,0.336056,-0.0498755,-0.0149506,-0.0799216
0.00660467,0.755617,0.304911,0.783692,0.173496,0.151739,-0.178925,-0.0404585,-0.0475883
0.0118537,0.768798,0.305305,0.492571,0.306301,-0.114202,-0.261419,-0.0410409,0.159034
0.0215414,0.775073,0.299165,0.160175,0.203912,-0.270862,-0.234168,-0.081634,0.247682
0.0280113,0.775915,0.292563,-0.0232077,-0.0199162,-0.162889,-0.0949577,-0.0209132,0.213302
0.0283386,0.776605,0.290288,0.142426,-0.0684409,-0.0210236,-0.0216302,0.00876927,0.0540137
0.0278854,0.782048,0.290119,0.388717,0.00293725,0.015637,-0.0982726,0.030891,-0.0475184
0.0261566,0.791892,0.289938,0.612634,-0.291155,0.000273943,-0.13669,0.0488573,-0.0205187
0.0149488,0.807614,0.289976,0.976307,-0.797499,0.0615098,-0.0648675,0.063491,0.0104526
-0.00949084,0.829825,0.294977,1.21379,-1.33091,0.308209,0.0975012,0.0846761,0.0762807
-0.0553476,0.852866,0.310329,1.04628,-2.30124,0.638497,0.258513,0.0524399,0.327443
-0.133447,0.864143,0.336547,0.102137,-3.33356,1.05409,0.297739,0.0347089,0.788814
-0.220362,0.842914,0.374524,-1.93277,-2.30502,1.78838,0.489629,0.138843,1.10938
-0.27316,0.770287,0.407626,-4.58714,-0.465505,2.18778,0.310427,0.408881,1.32207
-0.276207,0.646793,0.421351,-6.90788,1.02305,2.1061,0.0844938,0.480713,1.38337
-0.240929,0.488904,0.418572,-8.33167,2.13022,1.77267,-0.052333,0.60743,1.12545
-0.20104,0.31307,0.414047,-8.71497,1.42865,1.92344,-0.0204513,0.530622,0.976176
-0.186595,0.13904,0.421622,-8.25816,0.200753,1.89931,0.232522,0.498379,0.534041
-0.196263,-0.0232324,0.430194,-7.61301,-1.19405,2.11417,0.234107,0.782037,0.319664
-0.22739,-0.176886,0.4414,-7.28461,-1.86222,2.14036,0.102198,0.576003,0.100703
-0.265757,-0.326746,0.44684,-7.19516,-2.12017,2.05599,-0.18842,0.537848,-0.0536251
-0.307925,-0.472772,0.443012,-6.88247,-1.83566,1.66965,-0.459121,0.479748,-0.166887
-0.348982,-0.603057,0.422042,-5.94261,-1.11604,0.794401,-0.602927,0.445151,-0.420773
-0.386355,-0.701362,0.386166,-4.17283,-0.489695,0.177521,-0.438903,0.41393,-0.719549
-0.414895,-0.760352,0.354759,-2.33435,-0.402979,-0.0132476,-0.228871,0.400301,-0.782423
-0.44191,-0.795249,0.331956,-1.68384,-0.608301,0.0446239,-0.163005,0.318906,-0.532263
-0.464834,-0.825599,0.315596,-1.56369,-0.441632,0.248339,-0.0866883,0.353059,-0.393468
-0.480032,-0.855339,0.301018,-1.55287,-0.0275632,0.234991,-0.129398,0.252577,-0.397514
-0.49015,-0.884028,0.287525,-1.34902,0.0027916,0.35985,-0.0749789,0.219254,-0.44096
-0.495738,-0.908637,0.280765,-1.04595,-0.0554038,0.408356,-0.0311039,0.15097,-0.506113
-0.498404,-0.927938,0.279587,-0.617797,-0.138463,0.482429,-0.0320192,0.101089,-0.553888
-0.488039,-0.93653,0.295209,0.380646,-0.00358893,0.80335,0.0626048,0.100636,-0.817416
-0.452697,-0.928127,0.340218,1.56385,-0.245453,1.14385,0.146696,0.12838,-1.01865
-0.420767,-0.900761,0.39811,2.32329,-1.16567,0.813137,-0.143954,0.1015,-0.774371
-0.412207,-0.859223,0.444782,2.66607,-1.46368,0.259741,-0.381763,0.106586,-0.558655
-0.407806,-0.808038,0.483255,3.07756,-0.806618,0.164982,-0.21097,0.131681,-0.766941
-0.380518,-0.748734,0.528433,3.70775,0.374813,0.592505,-0.0489892,0.248976,-1.01943
-0.325946,-0.67525,0.588424,4.82926,1.04301,1.02201,-0.0309929,0.396942,-1.12819
-0.271468,-0.57971,0.646539,5.59184,0.795371,0.563384,-0.291349,0.476984,-0.743166
-0.246503,-0.472013,0.684431,5.61069,-0.160374,-0.119461,-0.460005,0.370027,-0.236289
-0.243815,-0.365279,0.704845,5.17743,-0.248709,-0.603722,-0.389754,0.345702,-0.114139
-0.243375,-0.266974,0.71615,4.68862,-0.120647,-0.661887,-0.145914,0.404368,-0.0629215
-0.243861,-0.174373,0.727842,4.67936,-0.205612,-0.47744,0.0265471,0.347322,-0.139899
-0.247384,-0.0795576,0.741288,4.8727,-0.296035,-0.567097,-0.0129403,0.348291,-0.105685
-0.254242,0.0195017,0.753382,5.04455,-0.45295,-0.740353,0.0121755,0.369873,-0.091717
-0.264176,0.12457,0.765622,5.59258,-0.404393,-0.645461,0.0454222,0.457393,-0.223065
-0.264176,0.12457,0.765622,5.59258,-0.404393,-0.645461,0.0454222,0.457393,-0.223065
-0.275537,0.243507,0.792774,6.60916,-0.211212,0.0643894,0.335937,0.700321,-0.449624
-0.294182,0.375026,0.840179,7.27652,-0.348066,0.484374,0.426406,0.959665,-0.334254
-0.332541,0.514392,0.903083,7.71108,-0.710378,0.633497,0.377936,0.961732,-0.235589
-0.390132,0.654896,0.985017,7.94882,-0.394178,0.852507,0.241905,1.16402,-0.354054
-0.468005,0.795339,1.1006,8.45795,0.304188,1.14241,0.179197,1.22023,-0.716618
-0.579695,0.931494,1.26499,8.57746,1.07571,1.2775,0.204153,1.19268,-0.507215
-0.737889,1.047,1.48443,7.85658,1.2221,1.18912,0.18116,0.983038,-0.16484
-0.965314,1.12981,1.75728,7.20994,0.290718,1.03152,0.116101,0.87612,-0.0562163
-1.27521,1.17379,2.10209,7.43247,0.521255,1.14465,0.139392,0.875362,-0.300009
-1.62227,1.17077,2.50021,7.71294,1.47939,0.887736,0.0058859,0.879776,-0.347491
-1.91358,1.12969,2.85389,7.1771,1.58165,0.270026,-0.184854,0.728924,-0.0527096
-2.12316,1.07102,3.12242,6.27607,1.48737,-0.215885,-0.125718,0.578788,0.262984
-2.25338,1.01236,-2.97412,4.72781,1.63803,-0.432669,0.00123319,0.515091,0.600272
-2.31176,0.968356,-2.85901,2.9306,2.22406,-0.409757,0.154203,0.439922,0.807374
-2.31461,0.948495,-2.7958,1.12275,2.48938,-0.608353,0.131256,0.338754,0.947445
-2.28894,0.956156,-2.7714,-0.541546,2.05882,-0.957545,0.0525612,0.227046,1.0291
-2.24221,0.990092,-2.77995,-1.97614,2.05025,-1.34754,-0.0388971,0.317339,0.941029
-2.15776,1.04473,-2.82623,-3.20801,2.36842,-1.65072,0.00979432,0.378142,0.86799
-2.02117,1.11403,-2.92762,-4.39767,2.33194,-2.02109,-0.00393447,0.423608,0.919065
-1.7968,1.18933,-3.12529,-5.71662,1.98583,-2.41627,-0.058087,0.516836,0.993804
-1.41574,1.24643,2.79113,-7.1565,1.68235,-2.75143,-0.0220315,0.591363,1.0444
-0.887589,1.2312,2.27065,-8.87476,1.9863,-2.76554,-0.0625507,0.751529,1.02201
-0.445949,1.11347,1.84826,-10.2198,3.06573,-2.92556,-0.062544,1.00051,0.841512
-0.175974,0.930244,1.61103,-10.8772,3.42042,-3.36147,-0.0466488,1.06724,0.746917
-0.0119427,0.721721,1.47584,-10.5993,2.86951,-3.83837,-0.0390087,1.10384,0.628699
0.0881246,0.513755,1.38754,-9.86201,2.02626,-4.05206,-0.149143,1.1799,0.578631
0.145978,0.318982,1.32767,-8.95768,1.19421,-3.71123,-0.108902,1.33725,0.351336
0.166976,0.135424,1.28536,-8.66389,-0.089516,-3.33256,-0.0506813,1.20586,0.345212
0.154847,-0.0454241,1.24603,-8.54693,-1.29868,-3.54451,-0.238527,0.995165,0.347795
0.106595,-0.219742,1.19316,-8.09101,-2.84369,-3.99766,-0.247145,0.839777,0.0276348
0.0160179,-0.378831,1.12168,-7.28863,-3.89654,-3.65521,-0.295338,1.01289,-0.327552
-0.0896712,-0.505795,1.04846,-5.42191,-3.25007,-2.51844,0.00338721,1.12318,-1.07804
-0.17417,-0.583223,0.987069,-3.10367,-2.12372,-1.80409,0.108146,0.791263,-1.66304
-0.238221,-0.621775,0.936457,-1.61763,-1.44895,-1.52406,0.0589828,0.69488,-1.55987
-0.289318,-0.635677,0.897027,-0.66042,-1.48235,-1.15516,-0.00578037,0.781552,-1.30642
-0.336454,-0.635893,0.873499,0.175449,-1.76603,-0.653101,0.06702,0.833716,-1.16086
-0.366033,-0.611522,0.875526,2.39613,-1.16461,-0.031784,0.113013,0.643904,-1.79818
-0.359166,-0.542366,0.910958,5.05959,-0.0698735,0.268819,0.128199,0.472179,-2.3313
-0.326443,-0.433882,0.963449,6.50539,0.723063,0.466398,0.0660788,0.469389,-1.69978
-0.291425,-0.310287,1.01895,6.79255,0.737008,0.668291,-0.0402004,0.560604,-0.834045
-0.262836,-0.182043,1.06891,6.98949,1.01505,0.426525,-0.228284,0.539999,-0.544517
-0.230606,-0.0412889,1.10984,7.77574,1.77474,0.0774149,-0.37084,0.57498,-0.702152
-0.190484,0.118949,1.1434,8.57378,2.23601,-0.102343,-0.402457,0.855577,-0.780336
-0.156414,0.289906,1.17233,8.72229,1.64145,-0.0205697,-0.245361,0.988667,-0.407447
-0.140708,0.461203,1.19959,8.71574,1.06337,0.0195375,-0.186298,1.06266,-0.178839
-0.138069,0.634847,1.22902,8.86138,0.68248,0.0597216,-0.0751744,1.0564,-0.201005
-0.151965,0.811124,1.26735,9.05779,0.522052,0.274232,-0.00213076,1.06965,-0.242639
-0.192957,0.985871,1.32916,8.80288,0.299206,0.538431,0.135496,1.05551,-0.122463
-0.282371,1.14987,1.44269,8.46156,0.87572,0.978898,0.216285,1.0924,-0.0163244
-0.492363,1.29205,1.69137,7.7499,1.41593,1.51978,0.31865,1.09791,0.144309
-0.982367,1.37835,2.22133,6.74701,1.28136,1.93229,0.258782,1.04715,0.320532
-0.982367,1.37835,2.22133,6.74701,1.28136,1.93229,0.258782,1.04715,0.320532
-1.65129,1.37159,2.92812,6.25168,1.25417,2.07588,0.193812,0.938874,0.244313
-2.06318,1.29539,-2.90888,5.8437,0.902579,2.0606,0.147398,0.849734,0.174211
-2.2646,1.19991,-2.68212,5.50458,0.638015,1.75941,0.0298869,0.733079,0.111892
-2.38004,1.10501,-2.54027,5.19475,0.727592,1.21868,-0.101812,0.659324,0.0997455
-2.45928,1.01968,-2.43465,4.57071,0.585552,0.560468,-0.246811,0.563319,0.266902
-2.51629,0.950692,-2.35397,3.54736,0.461144,0.090647,-0.242656,0.466421,0.518734
-2.55472,0.907537,-2.29593,1.92897,0.351092,-0.475509,-0.282625,0.289317,0.767175
-2.57837,0.897252,-2.25816,0.296629,0.220336,-0.920684,-0.276247,0.209579,0.823357
-2.59902,0.912602,-2.23099,-0.626225,-0.2193,-1.3102,-0.3376,0.136023,0.650844
-2.63196,0.94308,-2.20361,-1.17554,-0.922898,-1.66666,-0.415127,0.145141,0.543929
-2.68563,0.985784,-2.17067,-1.79987,-1.56015,-1.9951,-0.52934,0.13351,0.586022
-2.74752,1.04653,-2.12887,-2.89191,-0.940692,-2.5108,-0.676024,0.208158,0.527136
-2.80785,1.12892,-2.07014,-3.77323,0.0548037,-2.99441,-0.688846,0.197605,0.39445
-2.89862,1.22221,-1.96723,-3.96447,0.164966,-3.49689,-0.665976,0.174432,0.23759
-3.11258,1.31021,-1.75047,-3.79731,-0.930626,-4.11,-0.74863,0.127067,0.272383
2.7241,1.36937,-1.32095,-3.96307,-1.68761,-4.44869,-0.741916,0.36049,0.41412
2.05886,1.37089,-0.676466,-4.82267,-1.57427,-4.65518,-0.693932,0.618467,0.506034
1.50678,1.29966,-0.144885,-5.74851,-2.02307,-4.73214,-0.525131,0.670698,0.550185
1.17693,1.17761,0.151128,-6.33887,-3.06565,-4.87486,-0.48965,0.675889,0.559723
0.966201,1.03591,0.307556,-6.63133,-3.84307,-4.21989,-0.361319,0.879372,0.607881
0.803839,0.887239,0.401443,-6.90765,-4.95659,-3.92834,-0.291284,0.738206,0.605289
0.663904,0.732127,0.453302,-7.01898,-5.1873,-3.79429,-0.350404,0.848507,0.478094
0.531347,0.576252,0.479846,-6.97526,-6.35129,-3.2588,-0.0493658,0.825723,0.346589
0.393819,0.433242,0.488124,-6.03666,-6.97729,-2.5615,-0.1566,0.87526,0.00756586
0.250257,0.328494,0.48172,-4.00522,-7.41048,-1.3163,0.139856,0.598955,-0.909983
0.100902,0.247996,0.486056,-4.41325,-7.59295,0.410479,0.183005,0.910104,-0.0525838
-0.0502897,0.152374,0.515502,-4.8871,-6.66288,2.23041,0.428837,1.05024,-0.130817
-0.165721,0.0610932,0.56351,-3.39289,-4.30782,3.37996,0.200254,1.0347,-1.16824
-0.219055,0.00653415,0.625236,-0.6572,-1.04253,3.64352,-0.0404789,0.791599,-1.98103
-0.227942,0.00545685,0.697875,2.1733,-0.258629,3.42125,-0.286558,0.914209,-1.98621
-0.247768,0.0571467,0.777429,4.56619,-1.7873,3.13354,-0.279986,0.880007,-1.56767
-0.311978,0.142285,0.864038,5.83181,-3.71049,2.87661,-0.142876,0.907278,-0.90492
-0.416221,0.2357,0.962646,6.34037,-4.6865,2.93847,0.0424513,0.891727,-0.473565
-0.544251,0.324957,1.08202,6.9713,-4.73409,3.12632,0.0898465,0.945214,-0.435032
-0.683964,0.409525,1.22859,7.86937,-3.77472,3.13541,-0.0679921,0.944591,-0.497101
-0.815556,0.489377,1.39927,8.4192,-1.99526,2.55882,-0.45736,0.960723,-0.379871
-0.936856,0.562725,1.58464,8.56518,-1.03505,2.07232,-0.503853,0.527832,-0.113802
-1.06564,0.627794,1.77449,8.17486,-1.21659,0.894086,-0.730498,0.685612,0.11277
-1.20179,0.688891,1.95832,7.63186,-1.18508,-0.24938,-0.784941,0.834351,0.227624
-1.34893,0.749515,2.14009,7.20544,-1.68823,-1.59608,-0.749989,0.544123,0.329856
-1.50905,0.81396,2.31394,5.76164,-1.89708,-2.93707,-0.676546,0.441825,0.608564
-1.65391,0.879338,2.4551,3.49058,-2.02844,-3.65729,-0.465721,0.354118,0.887205
-1.76332,0.951207,2.54957,1.31025,-1.37713,-4.29917,-0.423512,0.594253,0.879127
-1.83716,1.04031,2.61301,0.246508,-0.699202,-5.21187,-0.526206,0.383224,0.543184
-1.90713,1.14633,2.68556,-0.277255,0.0337708,-5.8669,-0.462344,0.583317,0.301125
-1.9976,1.26426,2.77805,-1.05141,-0.692206,-6.32646,-0.253019,0.653808,0.490943
-2.18051,1.39018,2.93419,-1.85179,-2.51593,-6.39594,-0.106184,0.749969,0.591961
-2.82692,1.50415,-2.76077,-2.71903,-3.35502,-5.82448,0.0389965,0.893624,0.554601
1.51122,1.48097,-0.876575,-3.96455,-3.0994,-5.03417,0.166578,1.04768,0.520584
1.0506,1.36311,-0.481181,-4.83563,-3.82229,-4.55913,0.0983624,1.06681,0.499706
0.856923,1.23087,-0.363101,-5.45001,-4.16074,-4.33016,-0.0889988,0.979324,0.39191
0.719855,1.09217,-0.305251,-5.96352,-4.09343,-3.90043,-0.0717017,1.04714,0.424816
0.616003,0.950158,-0.27079,-6.34477,-3.49334,-3.51307,-0.0626327,1.09129,0.391043
0.523829,0.805198,-0.248561,-6.59948,-4.18947,-3.1123,-0.0495338,1.15767,0.467831
0.421996,0.661002,-0.233723,-6.78939,-4.80891,-2.48237,0.0424228,1.08431,0.381352
0.321534,0.517369,-0.218833,-7.07855,-4.36343,-1.47999,0.181209,1.1813,0.34538
0.230001,0.379399,-0.192295,-6.68937,-3.69931,0.0686893,0.588694,1.129,-0.00466222
0.144987,0.262321,-0.151407,-5.55682,-3.7898,1.49414,0.675145,1.1041,-0.415971
0.0498135,0.168305,-0.0982405,-4.19242,-4.54331,2.74901,0.684523,1.00957,-0.743701
-0.0517338,0.105145,-0.032233,-2.06959,-4.68202,3.69767,0.534045,1.0271,-1.27393
-0.148335,0.0788285,0.043236,0.190006,-4.24989,3.93169,0.133646,0.926342,-1.63058
-0.230274,0.0861652,0.122625,1.89831,-3.22747,3.71029,-0.122883,0.636535,-1.73525
-0.28988,0.114835,0.208387,3.13633,-1.92168,3.91723,-0.0387383,0.524953,-1.70663
-0.334602,0.164287,0.315073,4.91317,-1.21768,4.63131,0.104032,0.480871,-1.88371
-0.382736,0.2393,0.448269,6.68422,-0.95253,4.86676,-0.0751703,0.554665,-1.71373
-0.441065,0.336832,0.598988,8.00046,-0.578637,4.42511,-0.465967,0.63363,-1.21755
-0.509059,0.449671,0.756517,8.57673,-0.343244,3.27636,-0.825008,0.612511,-0.649469
-0.596572,0.568378,0.910163,8.57455,-0.951809,2.0427,-0.931107,0.387509,-0.097356
-0.714157,0.68569,1.07339,8.8804,-1.1472,1.36068,-0.631469,0.342451,0.116289
-0.864048,0.799106,1.26261,8.88587,-1.11851,0.366783,-0.661013,0.519544,0.35452
-1.05037,0.902684,1.46679,7.97258,-2.33341,-1.05512,-0.785541,0.654683,0.786395
-1.27349,0.993014,1.66938,6.3848,-3.47625,-2.40715,-0.64381,0.499114,1.12896
-1.51092,1.07051,1.8551,4.41579,-4.20559,-3.4216,-0.47358,0.401968,1.22745
-1.73464,1.14073,2.02119,2.72383,-2.9661,-3.8736,-0.302569,0.443638,1.0024
-1.90164,1.20668,2.16519,0.946181,-0.55688,-3.86182,-0.0555122,0.54409,0.966473
-1.97111,1.2786,2.23941,-1.25131,0.321692,-3.72664,0.10894,0.499224,1.22051
-1.97111,1.2786,2.23941,-1.25131,0.321692,-3.72664,0.10894,0.499224,1.22051
-1.92669,1.36168,2.19784,-2.62453,0.0125923,-3.66368,0.153112,0.46674,1.12895
-1.67818,1.44599,1.94692,-3.34435,0.226204,-3.4678,0.0854179,0.592564,0.841517
-0.736949,1.48433,1.01807,-4.42256,1.55422,-3.19213,0.187488,0.762195,0.74786
0.055693,1.40351,0.263803,-5.79027,2.60632,-3.12237,0.247491,0.786593,0.870929
0.279929,1.26784,0.08671,-6.82281,2.38056,-3.2536,0.310456,0.832451,0.902235
0.365126,1.11241,0.0387459,-7.26996,1.67504,-3.37322,0.311633,0.913249,0.749754
0.400902,0.958355,0.0267242,-6.68656,0.851744,-2.84322,0.422494,0.918879,0.334918
0.40745,0.827871,0.0356327,-5.56055,0.587334,-1.82007,0.49017,1.04536,0.0790297
0.400668,0.724061,0.0566451,-4.69059,0.106756,-0.93789,0.579522,0.888888,-0.0280578
0.375657,0.637402,0.0862118,-4.28452,-0.822515,-0.226025,0.564256,0.72513,0.0750878
0.329538,0.560836,0.123293,-3.93588,-1.56074,0.422102,0.550933,0.659794,0.0257479
0.280535,0.497316,0.164999,-3.17566,-1.06516,1.15878,0.543473,0.619234,-0.277378
0.245615,0.45166,0.216909,-2.5051,-0.115985,2.14981,0.633356,0.670499,-0.555685
0.217893,0.418287,0.283593,-2.17098,-0.026018,2.89106,0.62914,0.585196,-0.485216
0.185103,0.393613,0.357222,-1.53295,-0.346333,3.22792,0.441247,0.45941,-0.566734
0.146356,0.382691,0.431768,-0.698026,-0.714722,3.41383,0.30458,0.417531,-0.653025
0.103736,0.386083,0.508324,0.166153,-0.520308,3.71856,0.270939,0.352088,-0.735373
0.069724,0.40488,0.591055,1.04106,0.28391,4.06498,0.234503,0.318072,-0.897354
0.0436025,0.437314,0.680111,1.7074,0.650315,4.222,0.100101,0.245972,-0.830122
0.0155112,0.478373,0.772109,2.13465,0.558871,4.15717,-0.0177214,0.176766,-0.612636
-0.0195983,0.524519,0.864748,2.5287,0.412207,3.97227,-0.0972342,0.135258,-0.519825
-0.0594856,0.576939,0.957344,3.03837,0.470078,3.71372,-0.166923,0.0930685,-0.570573
-0.0999349,0.636383,1.04963,3.50469,0.790393,3.41001,-0.196754,0.0850437,-0.57229
-0.138887,0.700755,1.14507,3.75732,1.19512,3.33358,-0.158556,0.0918168,-0.420846
-0.182132,0.763562,1.24941,3.61816,1.42528,3.31073,-0.130037,0.00610447,-0.187016
-0.229557,0.814576,1.35575,2.85456,1.3262,3.03314,-0.230231,0.0465722,0.0831242
-0.278518,0.845873,1.45715,1.93359,1.33101,2.84335,-0.227261,-0.116821,0.180021
-0.31727,0.859823,1.54956,1.23195,1.80391,2.573,-0.313901,-0.182641,0.0135871
-0.336226,0.862954,1.63041,0.827817,2.40933,2.3979,-0.352438,-0.0709371,-0.173122
-0.342699,0.861931,1.70658,0.764325,2.68323,2.31564,-0.291584,0.0393592,-0.288232
-0.343996,0.861515,1.77884,0.785458,2.62595,2.14743,-0.298601,0.0978498,-0.286907
-0.345999,0.863109,1.84713,0.907304,2.39141,2.00602,-0.242746,0.147853,-0.290196
-0.350484,0.869193,1.91482,1.16041,2.35292,1.95222,-0.178089,0.251632,-0.295209
-0.358872,0.878098,1.98565,1.20301,2.21452,2.03399,-0.069148,0.299067,-0.154341
-0.374219,0.882416,2.05885,0.797736,1.85729,2.16446,0.0646851,0.2554,0.0996064
-0.395113,0.874874,2.12655,0.124893,1.29361,2.10346,0.0384064,0.189734,0.258463
-0.415387,0.856419,2.18224,-0.345991,0.97919,1.96704,0.0152351,0.178795,0.181831
-0.429313,0.832481,2.22817,-0.586033,1.15064,1.80568,0.00315893,0.201777,0.0270807
-0.429651,0.80457,2.26464,-0.931013,1.41947,1.65168,0.0375041,0.173093,0.000910699
-0.421906,0.773601,2.29437,-0.919594,1.44806,1.53564,-0.061307,0.224198,-0.123503
-0.414787,0.749984,2.32244,-0.376217,1.13699,1.27028,-0.127171,0.205538,-0.30221
-0.414308,0.739442,2.34872,0.143254,0.743038,0.927386,-0.0942663,0.185534,-0.292766
-0.414896,0.737534,2.37045,0.275625,0.676859,0.653038,-0.0446754,0.156901,-0.151415
-0.413806,0.73863,2.38832,0.396054,0.636156,0.531711,-0.0340675,0.135128,-0.118975
-0.412854,0.744388,2.40557,0.641568,0.618071,0.409328,-0.0478541,0.156495,-0.131959
-0.413186,0.754461,2.42192,0.734246,0.435729,0.279479,-0.0218515,0.145223,-0.0502827
-0.415262,0.766255,2.43399,0.695049,0.200012,0.0388948,-0.0572546,0.10636,0.033941
-0.415877,0.778765,2.43962,0.607157,0.173881,-0.161816,-0.0706151,0.078118,0.0528444
-0.411709,0.79008,2.43987,0.428695,0.245202,-0.280455,-0.0244213,0.0934205,0.0895281
-0.402863,0.799121,2.43437,0.271572,0.244901,-0.432347,-0.0544568,0.0540999,0.0732575
-0.38986,0.807523,2.42406,0.252725,0.335502,-0.547997,-0.0553076,0.0523806,0.0105722
-0.372999,0.816807,2.41134,0.286566,0.401325,-0.609264,-0.044961,0.0563871,-0.0313113
-0.355173,0.826781,2.3972,0.300596,0.345827,-0.647789,-0.042867,0.0510784,-0.0235
-0.355173,0.826781,2.3972,0.300596,0.345827,-0.647789,-0.042867,0.0510784,-0.0235
-0.336778,0.836572,2.3814,0.242235,0.306666,-0.682969,-0.0140083,0.00376433,-0.0151032
-0.319592,0.843925,2.36367,0.0663061,0.0761191,-0.674754,-0.0062896,-0.0129963,0.0127209
-0.304889,0.847828,2.34465,-0.055597,0.0157663,-0.655775,-0.0443273,-0.0346242,-0.0111427
-0.289936,0.85091,2.32485,-0.0138501,-0.0199981,-0.693713,-0.0867199,-0.0402029,-0.0799802
-0.275448,0.855177,2.30445,0.0166319,-0.0756689,-0.716413,-0.11404,-0.0625889,-0.0976359
-0.261729,0.856721,2.28162,-0.338857,-0.324343,-0.771436,-0.106311,-0.147163,0.0107887
-0.250715,0.847636,2.25351,-1.02394,-0.650009,-0.76181,-0.0689594,-0.2499,0.0910187
-0.241683,0.826829,2.22617,-1.33462,-0.375092,-0.457778,-0.0184748,-0.212485,-0.0714584
-0.232081,0.804929,2.21061,-0.967454,0.143065,-0.0906881,-0.0389342,-0.101835,-0.338636
-0.225189,0.792798,2.20568,-0.258272,0.114933,-0.0174039,-0.136297,-0.0308594,-0.453653
-0.223508,0.795607,2.20513,0.499258,0.0515871,-0.0694248,-0.178434,0.0140626,-0.4159
-0.225131,0.809737,2.20813,0.854364,0.0140632,-0.0411886,-0.110336,0.0891573,-0.212756
-0.228639,0.826672,2.21303,0.841398,-0.0155325,-0.0168259,-0.0623941,0.126703,0.0334799
-0.232533,0.84103,2.21698,0.59377,-0.0952943,-0.060383,-0.041555,0.118377,0.18937
-0.234745,0.850066,2.21755,0.302959,-0.0809299,-0.117141,-0.0472015,0.12077,0.235553
-0.234792,0.854626,2.21402,0.116083,-0.213915,-0.24217,-0.0975155,0.140434,0.181411
-0.233951,0.857402,2.20361,-0.00916001,-0.54824,-0.487101,-0.126447,0.100643,0.121867
-0.235059,0.858185,2.18494,-0.195031,-0.926961,-0.720034,-0.150339,0.101857,0.0953968
-0.234897,0.857061,2.15952,-0.255867,-0.946109,-0.854778,-0.124228,0.110765,0.0370896
-0.231385,0.856399,2.13134,-0.239345,-0.82815,-0.947739,-0.085457,0.130595,-0.021798
-0.222302,0.85552,2.0982,-0.335675,-0.765083,-1.16151,-0.0762164,0.139083,-0.0164249
-0.207707,0.852939,2.06034,-0.428429,-0.61775,-1.1831,-0.0343086,0.144879,-0.00796151
-0.191085,0.849586,2.02484,-0.345075,-0.365541,-1.0272,0.0156645,0.133423,-0.0476163
-0.173379,0.847347,1.99581,-0.21637,-0.0568075,-0.837074,0.0445267,0.169143,-0.0532424
-0.155404,0.847063,1.97196,-0.0808737,0.0112815,-0.741938,0.0490871,0.133647,-0.0404497
-0.139988,0.848442,1.95007,0.0167065,-0.0887918,-0.705635,0.0340396,0.135826,-0.0140162
-0.126748,0.851629,1.93152,0.117886,0.0469791,-0.541141,0.0754455,0.11855,0.0202649
-0.114281,0.854469,1.91824,0.0326238,0.174774,-0.36981,0.100526,0.0888175,0.100105
-0.103996,0.854774,1.90953,-0.0355554,0.214559,-0.205811,0.0884786,0.0425086,0.078273
-0.0951899,0.854961,1.90553,0.0342408,0.362826,-0.0563885,0.0834464,0.0269758,0.0349145
-0.087653,0.85595,1.90633,0.0570297,0.438759,0.0940748,0.0805155,-0.00544095,0.0398099
-0.0827364,0.85644,1.91099,0.0144852,0.399593,0.203427,0.0738711,-0.0296869,0.063962
-0.0803625,0.855945,1.91838,-0.0154002,0.415433,0.291901,0.0437409,-0.0463841,0.0502709
-0.0794757,0.855312,1.92921,0.0127916,0.493253,0.4212,0.0429247,-0.062882,0.0136234
-0.0803887,0.85521,1.94365,0.0662846,0.49704,0.532361,0.0359748,-0.0493073,-0.0209244
-0.0838429,0.85703,1.96151,0.227696,0.500829,0.611477,0.0153979,-0.0426825,-0.075901
-0.0897068,0.86204,1.98065,0.377181,0.338026,0.574808,-0.0427631,-0.0606523,-0.112393
-0.0967976,0.870184,1.99845,0.555988,0.374021,0.50818,-0.0721384,-0.0624415,-0.135706
-0.100814,0.881464,2.01608,0.651851,0.567744,0.51217,-0.0389088,-0.0515257,-0.0987134
-0.103246,0.892511,2.03401,0.545516,0.55509,0.504938,-0.00422593,-0.0816255,-0.0238317
-0.10656,0.900583,2.05185,0.379011,0.510681,0.528982,0.0333199,-0.0972616,0.0318906
-0.112217,0.904776,2.07039,0.150506,0.359478,0.567079,0.0887051,-0.130293,0.0661697
-0.122252,0.902977,2.08956,-0.218753,0.141921,0.662311,0.135196,-0.145475,0.128524
-0.139236,0.891305,2.11153,-0.775468,-0.128503,0.853328,0.198328,-0.171265,0.154801
-0.162495,0.868624,2.13443,-1.19341,-0.447257,0.891589,0.127272,-0.118609,0.0358678
-0.186831,0.841345,2.14932,-1.30764,-0.897524,0.46558,-0.0230735,-0.0135843,-0.194884
-0.211962,0.814692,2.15556,-1.15945,-1.06666,0.576134,-0.06286,0.0951139,-0.250313
-0.240021,0.793256,2.16938,-0.66647,-0.689244,0.814674,0.1043,0.104869,-0.260812
-0.263003,0.782012,2.19068,-0.039641,-0.139013,0.929223,0.118446,0.183529,-0.157979
-0.284189,0.780893,2.22039,0.493863,0.0398255,1.14102,0.227241,0.18304,-0.0523816
-0.311943,0.786885,2.25824,0.850819,-0.197593,1.21945,0.25858,0.17857,0.0029887
-0.348071,0.797032,2.29905,1.02587,-0.509053,1.1863,0.190449,0.143325,-0.00835782
-0.391121,0.80819,2.34168,1.07854,-0.705179,1.17315,0.163454,0.108429,-0.00358731
-0.436365,0.818288,2.38426,0.999584,-0.701042,1.09844,0.123051,0.0515713,-0.00325459
-0.436365,0.818288,2.38426,0.999584,-0.701042,1.09844,0.123051,0.0515713,-0.00325459
-0.476805,0.824525,2.42239,0.679561,-0.550433,0.962259,0.0697882,-0.0315215,-0.00278789
-0.507691,0.824314,2.45174,0.253045,-0.386279,0.795467,0.0161983,-0.072238,-0.0740091
-0.527344,0.819221,2.47035,-0.0216619,-0.224775,0.581964,-0.0591633,-0.0455698,-0.205013
-0.539037,0.814024,2.48267,0.0602025,-0.0384051,0.400196,-0.0596819,-0.0119428,-0.33082
-0.545057,0.814635,2.49296,0.383348,0.175953,0.184766,-0.0565695,0.0203065,-0.359562
-0.547781,0.822868,2.50351,0.684845,0.285277,0.018081,0.00360203,0.0596527,-0.286458
-0.550571,0.836298,2.51457,0.830264,0.236076,-0.0830847,0.080482,0.0939589,-0.173669
-0.554156,0.851833,2.52398,0.803731,0.091783,-0.192202,0.0960256,0.128908,-0.0631124
-0.558083,0.866342,2.52962,0.617381,-0.0567911,-0.260303,0.117261,0.132937,0.0280393
-0.560284,0.877547,2.52979,0.356084,-0.136411,-0.314799,0.111896,0.141214,0.0798617
-0.558923,0.884797,2.52436,0.0810663,-0.158863,-0.36168,0.0934684,0.14456,0.108373
-0.554825,0.887625,2.51453,-0.15573,-0.17305,-0.302334,0.119179,0.131242,0.113391
-0.549055,0.886406,2.50352,-0.296354,-0.120849,-0.231102,0.134972,0.155847,0.115206
-0.543338,0.882467,2.4927,-0.400556,-0.156099,-0.150053,0.147497,0.142914,0.126833
-0.538098,0.875662,2.48166,-0.555383,-0.16286,-0.112929,0.126608,0.150536,0.150609
-0.530995,0.865373,2.46854,-0.772966,-0.140487,-0.0801591,0.0914297,0.150726,0.161008
-0.523459,0.850232,2.45465,-0.992445,-0.178782,0.0712086,0.108832,0.15132,0.158478
-0.520233,0.830108,2.44364,-1.10016,-0.317234,0.3086,0.163432,0.168836,0.160596
-0.523809,0.806634,2.43865,-1.10413,-0.384885,0.559869,0.230354,0.199013,0.180502
-0.530718,0.781071,2.43829,-1.15321,-0.372289,0.689094,0.200972,0.186005,0.226578
-0.539454,0.751471,2.43831,-1.44833,-0.45499,0.843549,0.116571,0.0921991,0.241041
-0.54543,0.712048,2.43718,-2.00741,-0.187597,1.15874,-0.00602371,0.0270121,0.175535
-0.544847,0.65863,2.43731,-2.54315,0.289314,1.64743,-0.0350531,0.000629902,0.0481653
-0.535774,0.59253,2.44138,-2.9596,0.866683,2.0086,-0.0662649,-0.0304364,-0.0480917
-0.515886,0.517259,2.44688,-3.33652,1.40614,2.15009,-0.292711,-0.0606302,-0.181792
-0.48876,0.443016,2.45296,-2.76747,1.13455,1.91565,-0.73496,-0.142424,-0.850374
-0.473142,0.388399,2.46334,-1.4652,1.22196,1.41661,-0.706414,-0.0309608,-1.0679
-0.45332,0.368438,2.48225,0.46693,1.22872,1.11157,-0.465354,0.076147,-0.917665
-0.446006,0.382884,2.50958,1.8053,0.470403,0.422767,-0.476059,0.0751964,-0.555879
-0.451657,0.421246,2.52909,2.30581,-0.122018,-0.356622,-0.494459,-0.0331948,-0.0567518
-0.454285,0.464892,2.54274,2.07449,0.629883,-0.354769,-0.177103,-0.0118787,0.349199
-0.436632,0.498171,2.55623,1.43263,1.71082,-0.00113726,0.019471,-0.0399869,0.65119
-0.404009,0.516816,2.56897,0.727109,2.0504,0.200532,0.112,-0.0370589,0.825984
-0.369201,0.52214,2.57574,-0.0107789,1.66562,0.0921302,0.0747643,0.016665,0.888366
-0.346814,0.511749,2.56628,-1.46236,-0.24713,-0.641667,-0.0353529,0.125002,0.874238
-0.357137,0.474911,2.52495,-3.01125,-2.37258,-1.39563,-0.122582,0.158309,0.822949
-0.386166,0.42924,2.47127,-2.7858,-2.77037,-1.31109,0.0179935,0.195385,0.22512
-0.418088,0.395483,2.43036,-1.76857,-1.80817,-0.847772,-0.0018672,0.429795,-0.737469
-0.428319,0.379644,2.4053,-0.643518,-0.265528,-0.69265,-0.174092,0.203689,-1.32419
-0.415553,0.38533,2.38947,0.566823,0.932481,-0.866662,-0.391102,0.202601,-1.6297
-0.382836,0.412067,2.38234,1.60045,1.97991,-0.776333,-0.289552,0.186988,-1.53477
-0.342027,0.454247,2.38196,2.28712,1.91215,-0.766713,-0.203619,0.21288,-1.12926
-0.311607,0.506261,2.38361,2.67824,1.20239,-0.749263,-0.093395,0.249437,-0.632641
-0.295153,0.563505,2.3869,2.84652,0.685865,-0.697042,0.00122167,0.247592,-0.199561
-0.283871,0.621546,2.39024,2.7663,0.704154,-0.705823,0.0253476,0.22246,0.171861
-0.269585,0.674269,2.39163,2.27816,0.782194,-0.597157,0.111033,0.20123,0.567143
-0.254781,0.71304,2.39175,1.46382,0.690892,-0.406192,0.233174,0.211937,0.835613
-0.24201,0.734925,2.39068,0.650072,0.523091,-0.212626,0.27803,0.186462,0.953309
-0.232785,0.7404,2.38951,-0.115831,0.332027,0.0152645,0.323218,0.167198,1.0238
-0.228396,0.729454,2.39035,-0.942652,0.130897,0.306039,0.380593,0.196538,1.11689
-0.231446,0.700884,2.3945,-1.74898,-0.146119,0.676663,0.435613,0.235836,1.04998
-0.241117,0.655987,2.4048,-2.43887,-0.114406,1.13908,0.387072,0.251375,0.736533
-0.250846,0.596796,2.41663,-3.00525,-0.204442,1.14184,0.0360959,0.221038,0.139525
-0.25532,0.536802,2.42132,-2.49999,0.140866,0.715953,-0.389473,0.0635753,-0.760581
-0.25532,0.536802,2.42132,-2.49999,0.140866,0.715953,-0.389473,0.0635753,-0.760581
-0.245402,0.501425,2.42193,-0.809848,0.880028,0.25703,-0.54491,0.112313,-1.59675
-0.225103,0.501925,2.42555,0.807596,1.17793,0.0866372,-0.371676,0.129216,-1.73169
-0.209755,0.52641,2.43302,1.66895,0.674404,0.0277335,-0.130272,0.140113,-1.16424
-0.206572,0.563926,2.44263,2.11251,0.19497,-0.00108604,0.001992,0.162682,-0.558486
-0.210507,0.605988,2.45207,2.11522,-0.0446722,-0.113863,0.0501822,0.173807,-0.0762855
-0.215051,0.644979,2.4577,1.76792,-0.0309815,-0.257747,0.0951194,0.158082,0.292637
-0.214094,0.676132,2.4584,1.28387,0.157063,-0.336809,0.161066,0.158526,0.54306
-0.209782,0.696743,2.45533,0.668121,0.00304355,-0.306468,0.275679,0.165618,0.767304
-0.211264,0.703974,2.45142,0.0147401,-0.404448,-0.114692,0.421962,0.171513,0.925443
-0.221436,0.698196,2.45071,-0.629034,-0.629093,0.207597,0.527521,0.189132,0.987824
-0.236658,0.674146,2.45377,-1.76298,-0.687734,0.5598,0.572188,0.19079,1.10277
-0.249785,0.622592,2.45513,-3.19413,-0.457905,0.738781,0.484292,0.201505,1.04341
-0.250049,0.548032,2.44933,-4.04489,0.170505,0.630189,0.192048,0.144284,0.418757
-0.23119,0.467863,2.4403,-3.71387,1.31795,0.528862,-0.0312515,0.101615,-0.604632
-0.196475,0.408616,2.43517,-2.02438,1.82166,0.290263,-0.186092,0.0875861,-1.62322
-0.159465,0.390388,2.43676,0.244748,1.89345,0.231278,-0.110878,0.0211109,-2.1114
-0.128987,0.411241,2.44501,1.83462,1.46909,0.274354,0.0213631,0.101499,-1.84276
-0.105969,0.45821,2.45919,2.89876,1.49281,0.426117,0.0968592,0.0819305,-1.26315
-0.083008,0.520237,2.47549,3.35066,1.5673,0.415737,-0.00743265,0.137497,-0.651888
-0.0605637,0.586797,2.49039,3.32898,1.40512,0.372599,-0.0314159,0.115449,-0.0996557
-0.0444939,0.649248,2.50318,2.95004,0.914134,0.349628,0.00926067,0.103855,0.368336
-0.0395818,0.702576,2.51479,2.38514,0.323633,0.333452,0.0559418,0.0736302,0.697717
-0.0434387,0.741359,2.52616,1.50727,0.137892,0.375491,0.0853577,0.0833111,0.902291
-0.0477895,0.762499,2.53866,0.692857,0.272999,0.427276,0.0781537,0.109966,0.933575
-0.0500841,0.770413,2.55007,0.179429,0.26498,0.353141,-0.00721005,0.141775,0.888903
-0.0520836,0.768129,2.55929,-0.422202,0.136141,0.341817,0.00886254,0.144315,0.90302
-0.0568068,0.751506,2.56811,-1.20451,0.0765503,0.406595,0.0111651,0.107392,0.841727
-0.0602215,0.718794,2.57808,-2.02177,0.229272,0.535073,-0.0118945,-0.00547832,0.521119
-0.0610451,0.673886,2.58963,-2.24727,0.51619,0.613323,-0.113202,-0.116619,-0.143195
-0.0526405,0.636059,2.60178,-1.33364,1.00388,0.528184,-0.236116,-0.141871,-0.94452
-0.0386808,0.623118,2.61056,0.0836624,0.79022,0.240405,-0.368529,-0.179522,-1.41254
-0.0293491,0.638306,2.61475,1.42093,0.488438,0.0928086,-0.313454,-0.179936,-1.45003
-0.0210315,0.676484,2.618,2.32999,0.542055,0.0872983,-0.192555,-0.0159125,-1.08752
-0.0130633,0.72745,2.6215,2.71276,0.456886,0.0748454,-0.123163,0.0748791,-0.537249
-0.00619196,0.781345,2.62313,2.62694,0.378022,-0.0148742,-0.123961,0.148159,-0.0327532
0.00330671,0.829707,2.62106,2.20828,0.374207,-0.142843,-0.11559,0.19829,0.339959
0.0136211,0.868653,2.61354,1.68246,0.0563952,-0.316374,-0.108925,0.200471,0.604048
0.0219993,0.895682,2.60087,1.02235,-0.159808,-0.410686,-0.0528411,0.232555,0.774905
0.0279582,0.908621,2.58801,0.291793,-0.26317,-0.35201,0.0329073,0.294745,0.908569
0.0297899,0.905896,2.57724,-0.563697,-0.396883,-0.303021,0.0508521,0.325293,1.05386
0.0271985,0.884025,2.57012,-1.66161,-0.438388,-0.217891,0.0917965,0.344922,1.17653
0.0204732,0.838213,2.5643,-2.91903,-0.696317,-0.29953,0.0431019,0.3399,1.19488
0.0123711,0.769193,2.5555,-3.96659,-0.684516,-0.442921,-0.0234143,0.317641,0.928531
0.012149,0.681743,2.54296,-4.65742,0.0107313,-0.52092,-0.0743135,0.237889,0.277181
0.0321144,0.593658,2.53517,-3.8597,1.44306,-0.295074,0.0035059,0.216639,-0.891178
0.065221,0.539613,2.53125,-1.39784,1.42195,-0.316072,-0.0036525,0.202724,-1.96107
0.0876981,0.536062,2.52427,0.925842,0.46872,-0.258326,0.111163,0.0320401,-2.20164
0.0953247,0.567764,2.51858,2.13078,0.11597,0.102874,0.292952,0.0268989,-1.64887
0.0973698,0.615523,2.51968,2.53655,0.151632,0.416117,0.272265,0.085992,-0.906451
0.0954597,0.667084,2.52514,2.52406,-0.0563929,0.478644,0.127175,0.116546,-0.266532
0.0883972,0.715476,2.52998,2.25374,-0.330036,0.318884,-0.028334,0.13022,0.168598
0.0801211,0.756781,2.53029,1.84484,-0.433236,0.0564487,-0.114022,0.135162,0.449052
0.0755197,0.787837,2.52606,1.26465,-0.323006,-0.0886071,-0.10983,0.13548,0.621964
0.0724025,0.806588,2.52161,0.648148,-0.334914,-0.0544887,-0.0547254,0.144049,0.728727
0.0724025,0.806588,2.52161,0.648148,-0.334914,-0.0544887,-0.0547254,0.144049,0.728727
0.064475,0.814208,2.52105,0.1091,-0.566653,0.0684457,0.00202161,0.1439,0.805364
0.0440595,0.808722,2.52367,-0.678506,-1.36465,0.0646685,-0.0346518,0.0833601,0.895778
0.00885901,0.788214,2.5253,-1.332,-1.95286,-0.0125711,-0.169302,-0.0237082,0.775276
-0.0281202,0.75738,2.52025,-1.73316,-2.04922,-0.373912,-0.421433,-0.0675422,0.532275
-0.0541531,0.719948,2.50025,-2.10828,-1.92489,-0.971608,-0.684998,-0.127046,0.406209
-0.0700493,0.673668,2.46097,-2.77444,-2.34065,-1.84691,-0.849931,-0.107344,0.501439
-0.0812448,0.612873,2.39321,-3.77009,-2.69041,-3.07393,-1.04058,-0.102621,0.633691
-0.0838581,0.531359,2.30361,-5.04179,-2.43622,-3.65362,-0.89039,0.163871,0.722706
-0.0856451,0.425046,2.21132,-6.20066,-2.00048,-3.56463,-0.617093,0.464395,0.674786
-0.0911466,0.302213,2.12487,-6.65463,-1.72698,-3.45058,-0.379383,0.663692,0.435397
-0.105874,0.177969,2.04091,-6.50025,-1.71706,-3.46309,-0.231548,0.782759,0.140758
-0.129035,0.0593511,1.95939,-6.2557,-1.6483,-3.13395,0.190874,0.994024,-0.106205
-0.165815,-0.0516744,1.89023,-5.65774,-2.17066,-1.88068,0.909313,1.24414,-0.448443
-0.21767,-0.14469,1.86051,-3.75114,-2.61625,0.901822,1.70402,1.32757,-1.20754
-0.257396,-0.197386,1.90021,-0.338296,-2.15247,4.09522,2.1346,1.1951,-2.30357
-0.280023,-0.199659,2.01227,2.94675,-2.38563,6.34686,1.67857,1.21229,-2.50735
-0.297499,-0.158808,2.17061,5.28451,-2.16999,7.29364,0.757765,1.41696,-2.01229
-0.308739,-0.0846154,2.34442,6.93537,-0.90693,6.61887,-0.315089,1.45781,-1.64021
-0.306804,0.0249987,2.49322,7.93393,0.432336,4.15954,-1.49818,1.0994,-1.22258
-0.301317,0.160967,2.59949,8.17079,0.925839,1.99571,-1.71191,0.809808,-0.655573
-0.300182,0.307304,2.67045,7.79295,0.708966,0.34849,-1.57769,0.655441,0.0651627
-0.31034,0.449308,2.71151,6.88581,-0.329339,-0.925861,-1.25639,0.480713,0.712349
-0.331751,0.577117,2.72492,5.65492,-1.02276,-1.95947,-0.921647,0.368486,1.10199
-0.343668,0.688727,2.7103,4.49192,-0.993912,-2.84398,-0.76043,0.446483,1.24292
-0.32681,0.781384,2.66255,3.0734,-0.543476,-3.52148,-0.581327,0.453454,1.383
-0.272601,0.848621,2.57595,1.60015,-0.41418,-4.18628,-0.479942,0.511692,1.47053
-0.183162,0.883848,2.44909,-0.0721544,-0.264627,-4.54226,-0.285552,0.571754,1.59183
-0.0702556,0.875283,2.30259,-1.979,0.27541,-4.64952,-0.00615078,0.6737,1.65974
0.0477879,0.819157,2.16117,-3.69042,0.881366,-4.62357,0.208989,0.705638,1.53702
0.145696,0.723181,2.04971,-5.06262,0.983326,-4.22992,0.508406,0.845778,1.31609
0.202146,0.599899,1.97961,-6.10784,0.191241,-3.30817,0.869563,0.859634,1.05282
0.208853,0.462727,1.9507,-6.73357,-0.8681,-1.88468,1.08616,0.93043,0.675732
0.188839,0.326713,1.95967,-6.66252,-0.686637,0.0975991,1.30997,1.05712,-0.132662
0.164425,0.211347,2.00799,-5.36436,-0.777666,2.44552,1.64884,1.01866,-1.12163
0.116737,0.139545,2.09037,-2.59721,-2.6472,4.34501,1.4604,1.08292,-1.93222
0.0507198,0.137154,2.17972,1.69996,-2.21696,4.13202,0.289439,0.816702,-2.9115
0.0191292,0.20755,2.24923,4.68193,0.22192,2.96079,-0.732401,0.589989,-2.78081
0.0311832,0.307151,2.30046,4.89148,2.13093,2.35535,-0.72729,0.297583,-1.37159
0.0658152,0.40071,2.3439,4.30815,2.54231,2.16907,-0.596126,0.119015,-0.418749
0.091816,0.486492,2.37895,4.12376,1.42452,1.61568,-0.763499,0.0310655,-0.0112551
0.0922287,0.574473,2.39666,4.58596,-0.529784,0.708352,-0.866758,0.00188863,0.211033
0.0705034,0.667795,2.39458,4.58005,-1.5275,-0.0215025,-0.645141,-0.0183476,0.556066
0.0490372,0.749001,2.38243,3.47187,-1.31398,-0.385204,-0.342478,0.0757134,1.0162
0.0405983,0.802773,2.36417,1.92767,-0.747276,-0.694752,-0.255262,0.024461,1.21053
0.0545544,0.822474,2.3384,0.159803,0.246322,-0.8922,-0.1594,0.232969,1.31372
0.0835566,0.811384,2.3146,-1.06701,0.841633,-0.832329,0.0593752,0.144415,1.15989
0.11627,0.778703,2.29612,-2.03567,1.08779,-0.777461,0.124698,0.251521,0.981403
0.148808,0.730119,2.28554,-2.59869,1.43637,-0.578987,0.193396,0.283428,0.690779
0.179783,0.675851,2.2865,-2.81158,1.69466,-0.252602,0.313495,0.319165,0.385444
0.204644,0.615747,2.3002,-3.33739,1.55671,0.224565,0.439542,0.255791,0.267112
0.218169,0.552662,2.32923,-3.15223,1.4501,0.825815,0.491866,0.291343,-0.1764
0.226116,0.507289,2.36868,-1.98756,1.27313,1.50413,0.501153,0.339142,-0.756553
0.224881,0.487632,2.41509,-0.87729,0.799778,2.02167,0.428717,0.277267,-0.91416
0.214486,0.489797,2.46497,0.0983934,0.596911,2.31699,0.275421,0.210254,-0.866262
0.214486,0.489797,2.46497,0.0983934,0.596911,2.31699,0.275421,0.210254,-0.866262
0.202937,0.506999,2.51656,0.55175,0.653681,2.482,0.152496,0.155234,-0.634091
0.187274,0.527366,2.57001,0.525459,0.384259,2.44193,0.0150937,0.082956,-0.268024
0.16666,0.544831,2.6215,0.409374,0.212845,2.24751,-0.129466,0.0165645,-0.0438569
0.146083,0.557481,2.67022,0.191135,0.328872,2.06687,-0.166295,0.0165076,0.0941907
0.131125,0.564162,2.71576,-0.0496687,0.586957,1.86813,-0.194976,0.0143372,0.183593
0.122091,0.56466,2.75736,-0.35362,0.692767,1.61855,-0.19967,0.00191027,0.271664
0.117391,0.557146,2.79202,-0.740435,0.63295,1.21894,-0.264433,-0.0329714,0.332321
0.115255,0.540741,2.81758,-1.09723,0.519938,0.805326,-0.285208,-0.0809162,0.294236
0.11749,0.520081,2.8368,-1.11462,0.692994,0.630992,-0.163305,-0.0538916,0.143718
0.124109,0.499086,2.85252,-1.18086,0.679416,0.474632,-0.0811177,-0.0382835,0.14176
0.129834,0.472701,2.86385,-1.63702,0.414633,0.142929,-0.0984573,-0.0742632,0.269887
0.134441,0.433266,2.86636,-2.30743,0.206884,-0.4005,-0.263223,-0.104546,0.299251
0.142927,0.380822,2.86352,-2.82286,0.576947,-0.516286,-0.0474276,-0.0142112,0.169656
0.157985,0.322372,2.86347,-2.86857,0.869406,-0.324238,0.0812445,0.0281512,0.0343155
0.17206,0.270164,2.86816,-2.30951,0.584022,-0.127974,0.195578,0.033659,-0.146466
0.177151,0.230944,2.87204,-1.65105,0.036265,-0.221589,0.0830911,0.027511,-0.225805
0.175006,0.204988,2.87338,-0.867726,-0.132482,-0.0114871,0.145694,0.0631594,-0.301425
0.170956,0.197184,2.87883,-0.0404366,-0.245615,0.38815,0.26849,0.10193,-0.366864
0.159397,0.203109,2.88885,0.407808,-0.743716,0.658431,0.314038,0.104761,-0.232801
0.139362,0.21444,2.90113,0.479354,-0.958011,0.66121,0.201596,0.0977031,-0.0962507
0.118487,0.222404,2.91174,0.128649,-0.904255,0.455803,0.0888949,0.0867399,-0.0191852
0.101711,0.221024,2.91928,-0.30532,-0.62954,0.313008,0.0795842,0.0909638,-0.0643879
0.0911438,0.214114,2.92601,-0.354958,-0.282907,0.295537,0.138249,0.131869,-0.225133
0.0877884,0.211243,2.93398,0.0428214,0.0488899,0.484164,0.203336,0.215153,-0.37774
0.0841844,0.216628,2.94444,0.335218,-0.337148,0.53351,0.198215,0.221728,-0.31954
0.0659923,0.222418,2.95375,0.117632,-1.2757,0.434167,0.191524,0.184181,-0.0131911
0.0359808,0.221814,2.96237,-0.205811,-1.36741,0.408875,0.215946,0.129744,0.0985258
0.0139656,0.216068,2.96848,-0.349577,-0.62225,0.129896,0.075181,0.140584,0.0472704
0.00861818,0.208673,2.96766,-0.382085,-0.080973,-0.204441,-0.0182883,0.10566,0.0420217
0.00479214,0.201855,2.96038,-0.226777,-0.628034,-0.564608,-0.0497692,0.128648,0.137568
-0.014851,0.201354,2.94359,0.08303,-1.45065,-1.12784,-0.143637,-0.0384983,0.122023
-0.0284891,0.207375,2.90709,0.702023,-0.364499,-2.5569,-0.14844,-0.0277203,0.202558
-0.0124927,0.234514,2.86304,1.87345,0.949272,-1.42432,-0.148952,0.0936069,0.158068
0.0230587,0.273088,2.85278,1.13124,1.0139,0.299279,0.0942834,-0.117227,0.00399232
-0.00147242,0.265732,2.86625,-0.855817,-1.28186,0.739694,-0.0712873,-0.353076,0.469172
-0.0068737,0.251931,2.8725,-0.66722,0.418593,-0.145174,-0.463756,-0.179055,0.0239673
-0.00542689,0.235073,2.86375,-0.857335,-0.367075,-0.55778,-0.419924,0.0179022,0.0431618
-0.0105545,0.22295,2.85255,-0.382583,-0.437398,-0.501793,-0.234275,-0.0285572,-0.157373
-0.0178823,0.217969,2.84229,-0.159604,-0.458509,-0.519434,-0.239668,-0.0275271,-0.192641
-0.0208643,0.216258,2.82981,0.00230079,-0.113635,-0.707412,-0.298913,-0.0261768,-0.19361
-0.0174892,0.219036,2.81409,0.246855,0.0293759,-0.807363,-0.300923,0.0151856,-0.181024
-0.0161987,0.226133,2.79761,0.438232,-0.327526,-0.809829,-0.225608,0.0312937,-0.0650159
-0.0239696,0.237009,2.78086,0.606732,-0.824712,-0.868088,-0.186862,0.000818431,-0.0105803
-0.038564,0.249726,2.76225,0.580289,-1.03243,-0.97639,-0.214167,-0.0005119,0.0206738
-0.0540178,0.260474,2.74141,0.390095,-1.06268,-1.10454,-0.249145,0.00698927,0.0524288
-0.0690647,0.26829,2.7175,0.286446,-1.05305,-1.25472,-0.29378,0.0153884,0.0243353
-0.0832037,0.275773,2.69031,0.262374,-1.13168,-1.42763,-0.315845,0.0485362,0.0126734
-0.098893,0.283358,2.6595,0.225091,-1.27766,-1.59384,-0.297173,0.048502,0.0151386
-0.114957,0.290325,2.6254,0.101595,-1.28386,-1.73749,-0.282949,0.0646606,0.0182025
-0.12903,0.294969,2.58796,-0.0728693,-1.19895,-1.89527,-0.29461,0.0891263,0.0212298
-0.139562,0.297645,2.54639,-0.186498,-1.06855,-2.0942,-0.30794,0.106471,-0.0136691
-0.145717,0.2994,2.50076,-0.252737,-0.873943,-2.24571,-0.289755,0.132914,-0.0324115
-0.146513,0.300509,2.4528,-0.308778,-0.645109,-2.30425,-0.238848,0.147584,-0.0299777
-0.144343,0.300425,2.40428,-0.355304,-0.59355,-2.29746,-0.184546,0.158567,0.0148267
-0.144343,0.300425,2.40428,-0.355304,-0.59355,-2.29746,-0.184546,0.158567,0.0148267
-0.141808,0.300447,2.35551,-0.294232,-0.599376,-2.34223,-0.183693,0.14484,-0.0106218
-0.139376,0.302248,2.30571,-0.204683,-0.64814,-2.40623,-0.177034,0.165633,-0.0054394
-0.138002,0.305242,2.25495,-0.173997,-0.714607,-2.43278,-0.136373,0.165789,0.0312698
-0.136696,0.308475,2.20466,-0.169091,-0.67619,-2.36584,-0.0872937,0.159898,0.0475321
-0.135322,0.310549,2.15611,-0.260084,-0.653198,-2.2552,-0.0291667,0.166406,0.109767
-0.133352,0.309975,2.10982,-0.381775,-0.549999,-2.13524,0.0115698,0.138821,0.156609
-0.129505,0.306345,2.06502,-0.532517,-0.389766,-2.08257,-0.00580635,0.11017,0.158425
-0.12217,0.299399,2.02064,-0.679867,-0.213505,-2.04059,-0.00313795,0.106897,0.166104
-0.113327,0.289746,1.9778,-0.752789,-0.163915,-1.93066,0.0401794,0.0947608,0.171545
-0.105554,0.278554,1.93652,-0.798721,-0.221735,-1.92512,0.0368746,0.0687893,0.196688
-0.0980848,0.265033,1.89351,-0.99816,-0.176895,-2.06429,0.0154222,0.0496303,0.229305
-0.0922819,0.247214,1.85032,-1.15429,-0.384486,-1.89269,0.081003,0.0487804,0.23093
-0.091575,0.225795,1.81298,-1.3481,-0.274983,-1.51581,0.0664971,0.0584302,0.165662
-0.0865171,0.199859,1.78184,-1.47244,0.0332908,-1.3714,-0.0523194,0.078139,0.0878027
-0.0815453,0.174611,1.74912,-1.2491,-0.214178,-1.66959,-0.180388,-0.000362605,0.0614778
-0.0847866,0.158408,1.71017,-0.674272,-0.811967,-2.0242,-0.197747,-0.036635,-0.0401613
-0.103136,0.15424,1.66829,-0.142257,-1.68904,-1.97282,0.000671811,-0.0176662,-0.117449
-0.139012,0.16083,1.63443,0.408776,-2.38101,-1.40651,0.244931,0.0204124,-0.168744
-0.186203,0.176655,1.61346,0.773727,-2.64761,-0.946369,0.232571,0.0493031,-0.230715
-0.234118,0.197697,1.60025,1.01608,-2.26564,-0.837841,0.0652353,-0.018234,-0.388696
-0.27106,0.222838,1.58792,1.09998,-1.81545,-0.967037,-0.0669012,-0.0163524,-0.384981
-0.303954,0.251574,1.57469,1.32803,-1.8183,-1.09972,-0.0419438,-0.060977,-0.356514
-0.339605,0.286228,1.56232,1.58317,-2.12752,-1.08377,0.0868654,-0.0120372,-0.313827
-0.381613,0.32398,1.5552,1.66056,-2.1418,-0.895065,0.212739,0.0110915,-0.282814
-0.419307,0.356604,1.5528,1.19911,-1.63825,-0.566584,0.278349,-0.0102199,-0.169909
-0.445421,0.375562,1.55233,0.502264,-1.00244,-0.311736,0.224464,-0.0152691,-0.0706403
-0.460229,0.382327,1.54839,-0.00188412,-0.775343,-0.37151,0.0743469,-0.026608,-0.0633759
-0.478971,0.387229,1.53761,0.142357,-1.6418,-0.814705,-0.084258,-0.00308302,-0.209322
-0.515282,0.407338,1.52132,0.928725,-2.47286,-1.4204,-0.275902,0.00239846,-0.502893
-0.557178,0.442228,1.5071,1.27458,-2.21808,-1.38261,-0.105908,0.115088,-0.566166
-0.592406,0.475174,1.49798,1.02217,-1.72351,-1.19109,-0.0329952,0.13654,-0.390514
-0.618093,0.504942,1.48503,0.840185,-1.47688,-1.48657,-0.171089,0.103172,-0.284129
-0.642677,0.537971,1.4662,0.898794,-2.0588,-1.77841,-0.179942,0.0880176,-0.254928
-0.682076,0.57552,1.44653,1.02914,-2.92184,-1.80386,-0.0107126,0.110052,-0.237165
-0.740134,0.613749,1.43074,0.973773,-3.76177,-1.73536,0.147514,0.228432,-0.220537
-0.803012,0.651676,1.41401,0.80232,-3.63299,-1.89487,0.108222,0.207381,-0.28733
-0.857632,0.690874,1.3937,0.706744,-2.85385,-2.0642,0.00205839,0.117238,-0.076618
-0.884776,0.730888,1.37064,0.520872,-1.45105,-2.09362,-0.105686,0.119542,-0.00205931
-0.895394,0.766771,1.34614,0.316036,-1.58506,-1.83119,0.0279303,0.0653957,0.00539368
-0.918026,0.796106,1.31845,-0.0341286,-2.67048,-1.7401,0.110339,0.0851516,0.0135347
-0.953131,0.823909,1.28341,-0.233804,-3.20055,-1.98031,-0.0224895,0.100857,0.0123506
-0.978368,0.855928,1.24088,-0.267643,-2.32782,-2.24541,-0.154402,0.0637276,0.0293106
-0.9784,0.8897,1.19639,-0.219616,-1.18572,-2.07619,-0.152524,-0.000857711,0.0183563
-0.966178,0.917947,1.15682,-0.221266,-0.847448,-1.65923,-0.0223172,-0.03209,-0.0290238
-0.956293,0.940822,1.12078,-0.223021,-1.10998,-1.52442,-0.0547832,0.0218032,-0.0126342
-0.952548,0.964512,1.08444,-0.103038,-1.46307,-1.65697,-0.137068,0.065225,-0.00716147
-0.953691,0.992276,1.04882,0.0912985,-1.54111,-1.75626,-0.144596,0.0833513,-0.03483
-0.954252,1.02339,1.01563,0.246146,-1.32025,-1.80694,-0.139762,0.085216,-0.0184185
-0.951903,1.05495,0.983491,0.22908,-1.26444,-1.68641,-0.0896452,0.101489,0.00392115
-0.949414,1.08268,0.951566,0.139361,-1.29586,-1.47951,0.0112894,0.161875,0.0671991
-0.947494,1.10624,0.920414,0.0833796,-1.25851,-1.28693,0.0485437,0.194818,0.106857
-0.94385,1.12648,0.88867,-0.0547834,-1.29535,-1.18306,-0.00116161,0.1972,0.119793
-0.937471,1.14215,0.849799,-0.376271,-1.63862,-1.05466,-0.0030092,0.212019,0.100664
-0.937471,1.14215,0.849799,-0.376271,-1.63862,-1.05466,-0.0030092,0.212019,0.100664
-0.92846,1.15164,0.799589,-0.694772,-2.03556,-0.951698,0.0156163,0.248578,0.0902325
-0.921996,1.15645,0.743731,-0.795184,-2.48137,-0.773269,0.109289,0.241825,0.0511366
-0.932073,1.15756,0.694565,-0.679704,-2.99293,-0.501522,0.188345,0.245675,0.00211807
-0.957646,1.15832,0.660815,-0.380188,-2.47332,-0.427273,0.116614,0.298729,0.00117894
-0.977221,1.16235,0.636138,-0.246569,-1.92725,-0.437871,0.0199469,0.207672,0.0517603
-0.998897,1.16552,0.616741,-0.244055,-2.03669,-0.263495,0.0320185,0.119784,0.0547614
-1.02317,1.16611,0.597682,-0.393798,-2.17418,-0.213366,-0.0558473,0.123176,0.0677303
-1.04519,1.16447,0.571006,-0.584586,-2.53005,-0.172545,-0.109434,0.162597,0.0338308
-1.06883,1.16161,0.539002,-0.651449,-2.73569,-0.246624,-0.130926,0.218013,-0.00954223
-1.09192,1.16173,0.502137,-0.648305,-3.01902,-0.462201,-0.129823,0.199719,-0.0310635
-1.1165,1.16549,0.458975,-0.712333,-3.38277,-0.636639,-0.0688246,0.187249,-0.0185602
-1.14205,1.17166,0.411453,-0.707246,-3.57103,-0.707411,0.0224846,0.166941,-0.0163378
-1.16912,1.1784,0.362674,-0.834713,-3.52899,-0.667943,0.0565062,0.153795,-0.021134
-1.18576,1.18232,0.30412,-1.03017,-3.56251,-0.544564,0.0442792,0.171675,0.0280526
-1.19814,1.18419,0.243718,-1.01203,-3.22576,-0.495125,-0.0901146,0.121902,0.0230079
-1.20227,1.18649,0.184438,-1.00327,-2.71828,-0.545565,-0.190191,0.0639618,0.00940192
-1.19455,1.18948,0.122228,-1.05838,-2.32114,-0.557083,-0.161046,0.047973,-0.0288679
-1.18108,1.19082,0.0610423,-0.970766,-2.03466,-0.399661,-0.0589654,0.0924606,-0.0483844
-1.17486,1.19017,0.0129454,-0.673932,-1.76363,-0.235694,-0.0221831,0.110042,-0.0773179
-1.18693,1.19273,-0.00203698,0.250864,-1.32519,-0.218812,-0.11524,0.142025,-0.397237
-1.23763,1.20142,0.0238681,0.902292,-1.26464,-0.268222,-0.0847861,0.073225,-0.14803
-1.30844,1.2131,0.0725783,1.01857,-1.35705,-0.366589,0.00186706,0.0374585,0.00585914
-1.38177,1.22617,0.119448,0.83749,-1.51808,-0.546097,-0.0273993,0.0217238,0.110952
-1.44829,1.24079,0.158175,0.657555,-1.51638,-0.676486,-0.0404845,-0.0427907,0.11902
-1.50847,1.25488,0.188976,0.454356,-1.60234,-0.61245,-0.0578066,-0.107105,0.122364
-1.56373,1.26563,0.213024,0.334256,-1.64865,-0.424109,-0.0628099,-0.157759,0.138932
-1.61606,1.27151,0.233011,0.248073,-1.65417,-0.160482,-0.0525524,-0.205709,0.118022
-1.65468,1.2699,0.240832,-0.0494823,-1.5018,0.325699,0.0379068,-0.195153,0.128441
-1.66554,1.2601,0.220488,-0.467308,-1.57504,0.697419,0.0894904,-0.221432,0.207575
-1.65665,1.24449,0.176378,-0.753111,-1.73244,0.988563,0.0977363,-0.26598,0.118556
-1.63903,1.22377,0.120053,-0.942103,-1.80391,1.21061,0.0952014,-0.0644031,0.117484
-1.61664,1.20014,0.0596667,-1.03348,-1.6338,1.2365,0.130037,0.00412589,0.121478
-1.5953,1.17806,0.00162693,-1.05244,-1.64461,1.02381,0.119403,-0.033898,0.0681851
-1.57899,1.16157,-0.0523512,-1.03588,-1.73089,0.655266,0.0899172,-0.0408073,0.0737045
-1.56912,1.1522,-0.102449,-0.982099,-1.87267,0.306589,0.0705056,-0.060352,0.0700015
-1.56609,1.14868,-0.147589,-0.863164,-1.9514,0.0574772,0.0533356,-0.0369346,0.0447433
-1.57071,1.14864,-0.185505,-0.693364,-1.96147,-0.0297932,0.0483059,-0.0329052,0.00299346
-1.58276,1.14883,-0.214316,-0.495773,-1.87939,0.036122,0.0534122,-0.0494743,-0.0382545
-1.6014,1.14698,-0.23434,-0.342242,-1.83003,0.165714,0.0559967,-0.0530906,-0.057431
-1.62329,1.14308,-0.248843,-0.262203,-1.66899,0.23244,0.0562232,-0.0648324,-0.0468806
-1.64335,1.1395,-0.26153,-0.262926,-1.51046,0.142367,0.0449131,-0.0611969,-0.0310966
-1.65942,1.13867,-0.275651,-0.326964,-1.40197,-0.00632202,0.0248253,-0.0526924,-0.00705195
-1.67181,1.14077,-0.292148,-0.38307,-1.34003,-0.125687,0.0243758,-0.0382203,-0.0217756
-1.68136,1.14477,-0.309797,-0.391523,-1.22675,-0.174253,0.0214633,-0.0228405,-0.0290437
-1.68925,1.14865,-0.327212,-0.370395,-1.16949,-0.111362,0.0493922,-0.002841,-0.0420403
-1.69736,1.15062,-0.343796,-0.335218,-1.16675,-0.000381467,0.094556,0.0200414,-0.0610738
-1.70614,1.15072,-0.359807,-0.323124,-1.17029,0.0706604,0.105612,0.0351114,-0.062032
-1.71451,1.15013,-0.375986,-0.330588,-1.13258,0.0734657,0.0977159,0.0432191,-0.0686623
-1.72087,1.14965,-0.3929,-0.353466,-1.07095,0.0940313,0.0849479,0.0611367,-0.0821464
-1.72528,1.14789,-0.411383,-0.363464,-1.05548,0.209866,0.0922506,0.0627313,-0.117579
-1.72863,1.14354,-0.430411,-0.339224,-1.01989,0.338706,0.0972547,0.0572638,-0.14443
-1.73296,1.13711,-0.447719,-0.265972,-0.994565,0.409749,0.0881953,0.0486442,-0.17661
-1.74103,1.12937,-0.460359,-0.129004,-0.962712,0.441434,0.0586073,0.0196393,-0.203878
-1.75502,1.12078,-0.465796,0.0553952,-0.922232,0.454681,-0.0196806,-0.086725,-0.197247
-1.75502,1.12078,-0.465796,0.0553952,-0.922232,0.454681,-0.0196806,-0.086725,-0.197247
-1.77395,1.11124,-0.463871,0.195344,-0.788118,0.467773,-0.075732,-0.205283,-0.219464
-1.79169,1.10129,-0.459288,0.19217,-0.586316,0.473767,-0.121977,-0.232538,-0.196026
-1.80269,1.09101,-0.457675,0.106654,-0.370454,0.534787,-0.129104,-0.175437,-0.158404
-1.80511,1.07882,-0.460761,0.0463882,-0.136592,0.718672,-0.0730427,-0.114936,-0.145118
-1.8001,1.06208,-0.467098,0.0567832,0.0727059,1.00843,-0.027371,-0.0857663,-0.111318
-1.79147,1.03945,-0.474371,0.0953145,0.134654,1.28939,-0.0151029,-0.089685,-0.0645693
-1.7816,1.01296,-0.481772,0.0833278,0.251789,1.37719,-0.0347499,-0.103334,0.00675629
-1.76716,0.986262,-0.49034,-0.00713129,0.503448,1.34164,-0.058602,-0.0635067,0.057147
-1.745,0.960829,-0.501341,-0.133862,0.793331,1.29873,-0.0383696,0.0561938,0.0622098
-1.71746,0.936442,-0.51432,-0.206369,0.870728,1.22713,-0.00995815,0.113041,0.0925869
-1.6935,0.915026,-0.524851,-0.109184,0.676048,0.949626,-0.0402463,0.082404,0.150113
-1.68027,0.901345,-0.527088,0.138957,0.460459,0.42255,-0.0767936,-0.0249345,0.173473
-1.67976,0.897251,-0.519355,0.366436,0.219017,-0.0195193,-0.114375,-0.076249,0.189474
-1.68705,0.898769,-0.50579,0.422714,0.146578,-0.174452,-0.110586,-0.0907452,0.199166
-1.69294,0.900179,-0.494712,0.194695,0.124799,-0.0273471,-0.105451,-0.0849238,0.208169
-1.6924,0.900073,-0.493633,-0.0960494,0.0418633,-0.0149849,-0.075893,-0.0697464,0.248304
-1.68658,0.90225,-0.499869,-0.313778,0.024495,-0.155128,-0.0291408,-0.06368,0.251743
-1.67739,0.90713,-0.512182,-0.491043,-0.0627512,-0.225267,0.0123232,-0.0272784,0.244656
-1.66621,0.91257,-0.529078,-0.584003,-0.167774,-0.198752,0.0688474,0.0494251,0.206782
-1.65646,0.916831,-0.547649,-0.571352,-0.323889,-0.123254,0.124891,0.0936964,0.165768
-1.65066,0.919388,-0.565004,-0.505158,-0.479664,-0.0374513,0.153355,0.11353,0.136873
-1.64945,0.920198,-0.580698,-0.463151,-0.637106,0.0219184,0.142761,0.0916811,0.136187
-1.65038,0.919979,-0.596157,-0.482759,-0.679213,0.0941252,0.14141,0.0901909,0.121331
-1.65129,0.917264,-0.613301,-0.54744,-0.773776,0.28173,0.167519,0.108806,0.111358
-1.65213,0.910427,-0.632807,-0.597056,-0.846551,0.516605,0.169898,0.0851454,0.10266
-1.65309,0.899244,-0.653999,-0.622852,-0.921278,0.697415,0.155695,0.0515181,0.0734409
-1.65538,0.885247,-0.675465,-0.604867,-0.98309,0.804772,0.138342,0.0658808,0.0434655
-1.66019,0.869913,-0.695749,-0.559229,-1.058,0.82902,0.140243,0.0823426,0.0236514
-1.66764,0.854583,-0.71437,-0.510514,-1.11154,0.819063,0.119155,0.0636846,0.00896882
-1.67744,0.839422,-0.731909,-0.502397,-1.18551,0.811072,0.09461,0.029597,-0.0054016
-1.68826,0.82462,-0.749933,-0.551016,-1.23921,0.808135,0.077738,0.0184546,-0.000176899
-1.69897,0.809743,-0.769918,-0.630157,-1.28011,0.854001,0.0349795,-0.00754911,0.0104144
-1.70856,0.794038,-0.791927,-0.677659,-1.27528,0.904505,0.0139856,-0.0318052,-0.0128769
-1.71821,0.778237,-0.814365,-0.668819,-1.27042,0.881206,-0.0367367,-0.0702218,-0.0172575
-1.72754,0.763355,-0.835799,-0.634495,-1.15967,0.830139,-0.0774749,-0.0978659,-0.0484442
-1.73571,0.749859,-0.856284,-0.629988,-1.06667,0.73932,-0.090643,-0.0955336,-0.0712129
-1.74318,0.73862,-0.876112,-0.610296,-1.05821,0.614401,-0.0855716,-0.0598094,-0.0611417
-1.75352,0.729807,-0.893135,-0.458511,-1.12474,0.477348,-0.0759113,-0.0582953,-0.0718265
-1.76931,0.723259,-0.904493,-0.266496,-1.21187,0.347937,-0.066919,-0.0784179,-0.102245
-1.78898,0.717173,-0.911961,-0.178669,-1.25431,0.408509,-0.0562695,-0.0937195,-0.0746949
-1.80874,0.708069,-0.919655,-0.193138,-1.21713,0.646587,-0.0614054,-0.102546,-0.0417335
-1.82603,0.694034,-0.930458,-0.287489,-1.21696,0.932238,-0.0790297,-0.114644,0.00376257
-1.83882,0.67591,-0.947281,-0.524371,-1.08807,1.17563,-0.149359,-0.193987,0.0699471
-1.84131,0.654793,-0.973006,-0.880877,-0.717636,1.42646,-0.221938,-0.231337,0.0903807
-1.82905,0.629782,-1.0088,-1.21483,-0.180897,1.76439,-0.227266,-0.185552,0.0772506
-1.80327,0.599552,-1.05071,-1.33751,0.309805,1.96551,-0.171519,-0.0954103,0.0184002
-1.77194,0.568183,-1.09091,-1.24325,0.587359,1.78038,-0.105465,-0.0138852,-0.0356668
-1.74149,0.541468,-1.12355,-0.971567,0.715956,1.33952,-0.0127088,0.0832967,-0.013346
-1.71695,0.52314,-1.14518,-0.580476,0.60757,0.759503,0.053507,0.11998,0.0145948
-1.70203,0.514813,-1.1561,-0.26447,0.340345,0.232645,0.106691,0.0909133,0.0517095
-1.69578,0.513782,-1.16036,-0.120165,0.0732011,-0.0297764,0.164194,0.0478858,0.0939351
-1.69567,0.514743,-1.16302,-0.141311,-0.179514,0.000448103,0.204538,0.0319533,0.117142
-1.69821,0.513508,-1.16765,-0.25402,-0.286309,0.196859,0.19444,0.0361578,0.136372
-1.69944,0.507785,-1.17591,-0.382176,-0.216212,0.475374,0.171215,0.0255957,0.125725
-1.69944,0.507785,-1.17591,-0.382176,-0.216212,0.475374,0.171215,0.0255957,0.125725
-1.69741,0.496497,-1.18753,-0.486749,-0.137196,0.778529,0.151821,0.0165398,0.097578
-1.69197,0.479662,-1.20156,-0.525693,0.0264841,1.05288,0.145798,0.0184402,0.0550542
-1.68388,0.457912,-1.21568,-0.465116,0.147922,1.27381,0.138288,0.0336901,0.0133161
-1.67465,0.432076,-1.22793,-0.358737,0.254775,1.41739,0.142525,0.0463508,-0.00852252
-1.66386,0.40416,-1.23794,-0.291363,0.449007,1.46195,0.123721,0.0276306,-0.00799108
-1.64783,0.37461,-1.24654,-0.250811,0.835451,1.59012,0.139423,-0.013256,-0.00639307
-1.62631,0.341128,-1.25385,-0.214973,0.991147,1.80175,0.174798,-0.0480636,-0.0174028
-1.60595,0.304669,-1.26011,-0.218724,0.828098,1.83913,0.128879,-0.0489762,-0.00484371
-1.58825,0.269682,-1.26554,-0.201678,0.866822,1.67386,0.0619448,-0.0586478,-0.0169736
-1.56625,0.23675,-1.269,-0.0597057,1.37138,1.70586,0.0509987,-0.12535,-0.0357552
-1.53395,0.198263,-1.26512,0.366855,1.82529,2.17986,0.204446,-0.164667,-0.207951
-1.49996,0.153543,-1.25128,0.74378,1.78969,2.29304,0.0410398,-0.185392,-0.116353
-1.46846,0.110612,-1.22948,1.00977,1.7048,2.18674,-0.0398756,-0.156673,-0.0438969
-1.43182,0.0700712,-1.2033,1.07693,2.29074,2.20505,-0.0282923,-0.123941,-0.0446092
-1.37899,0.0279717,-1.1751,0.983571,3.07747,2.46132,-0.0275882,-0.13939,-0.03643
-1.31574,-0.0191581,-1.14728,0.672412,3.17303,2.73458,-0.0395172,-0.155769,-0.0542641
-1.25553,-0.068212,-1.1218,0.415524,2.69296,2.63353,-0.131711,-0.108107,-0.0316288
-1.20447,-0.112097,-1.09878,0.296128,2.32131,2.29901,-0.251378,-0.102402,-0.0208777
-1.15397,-0.151427,-1.07664,0.230728,2.52558,2.25796,-0.150514,-0.144425,-0.00168717
-1.09375,-0.192242,-1.0527,0.114561,3.11189,2.47658,-0.0226179,-0.11028,0.0591896
-1.0236,-0.237275,-1.02675,-0.127633,3.3075,2.70584,0.0296008,-0.0984126,0.0591505
-0.947152,-0.285898,-0.998169,-0.173152,3.70786,2.90144,0.0203673,-0.117468,0.0353441
-0.857462,-0.336138,-0.961382,-0.218185,4.20908,3.26257,0.0406622,-0.0944769,-0.00541556
-0.750066,-0.389775,-0.914701,-0.422393,4.8397,3.63584,0.0563989,-0.0884311,0.0585263
-0.628496,-0.447158,-0.861908,-0.963985,5.17511,3.67563,-0.0580724,-0.0300457,0.0348611
-0.499198,-0.505115,-0.811728,-1.55155,5.53301,3.09591,-0.24076,0.131693,-0.0111852
-0.371276,-0.559179,-0.77316,-1.91695,5.25952,2.19191,-0.311732,0.169934,-0.0269759
-0.262162,-0.608406,-0.748999,-2.08509,4.21165,1.30422,-0.329557,0.229648,-0.0511051
-0.18186,-0.650631,-0.733865,-1.72841,3.05889,0.903773,-0.222408,0.166574,-0.134733
-0.116551,-0.680641,-0.718922,-1.04523,2.64197,0.72209,-0.126849,0.00655782,-0.0898126
-0.0585601,-0.6947,-0.705982,-0.259998,2.33226,0.375067,-0.106191,-0.015781,0.00270736
-0.0193143,-0.69187,-0.702508,0.562267,1.27608,-0.12541,-0.162115,0.0928262,-0.00227547
-0.0112326,-0.669129,-0.712952,1.78114,0.340989,-0.684595,-0.261408,0.162046,-0.17841
-0.0204028,-0.618787,-0.730429,3.23173,-0.168531,-0.691829,-0.222349,0.276367,-0.365183
-0.0298178,-0.542364,-0.740439,4.33308,-0.0534112,-0.336915,-0.0392235,0.321347,-0.343124
-0.0281559,-0.451993,-0.742335,4.4426,0.0490725,-0.13782,0.0496171,0.357431,-0.239908
-0.046046,-0.382987,-0.745388,2.29978,-1.54639,-0.443086,0.0492257,0.281474,0.0474039
-0.0697886,-0.349021,-0.755927,1.32283,-0.234887,-0.701354,0.0577151,0.174685,0.212552
-0.0737078,-0.323542,-0.768353,1.20376,-0.0254043,-0.632751,-0.0168192,0.148229,0.0371394
-0.0794476,-0.295355,-0.779487,1.61221,-0.107674,-0.679921,-0.068497,0.108686,-0.107339
-0.0820164,-0.255925,-0.793217,2.27645,0.348108,-1.05454,-0.107069,0.126224,-0.0507302
-0.0779372,-0.20613,-0.812021,2.37043,0.342705,-1.02682,-0.136375,0.123009,0.0916122
-0.0794072,-0.163702,-0.825917,1.74715,-0.205447,-0.73477,-0.0450583,0.0652692,0.319322
-0.0867444,-0.132686,-0.83946,1.307,-0.26121,-0.908743,-0.057879,0.0114713,0.362956
-0.0913424,-0.105467,-0.857696,1.3401,0.0936788,-1.15368,-0.0717671,0.0191642,0.272128
-0.0912054,-0.0772246,-0.877558,1.21497,0.00994915,-1.02985,-0.037168,0.0569006,0.218538
-0.0947811,-0.055936,-0.894947,0.75634,-0.170284,-0.9364,0.00866049,0.0238204,0.26492
-0.0981051,-0.041936,-0.912612,0.517605,-0.0988204,-0.969714,-0.007836,-0.0085832,0.2212
-0.101901,-0.0288663,-0.931631,0.724267,-0.0933413,-1.14186,-0.00477811,0.0358197,0.13275
-0.102414,-0.00786365,-0.955066,1.03804,-0.0413891,-1.31552,-0.0821404,0.0810647,0.0483032
-0.107418,0.0145304,-0.978339,0.915045,-0.424461,-1.24805,-0.011757,0.0245702,0.147162
-0.116456,0.0326225,-1.00082,0.622644,-0.45449,-1.19527,0.0322383,0.0135738,0.174537
-0.123792,0.0458173,-1.02252,0.459186,-0.315977,-1.13078,0.0708407,0.0325872,0.0670203
-0.125649,0.0593232,-1.04361,0.669189,0.0427289,-1.1303,0.0163948,0.0751118,-0.0954594
-0.125649,0.0593232,-1.04361,0.669189,0.0427289,-1.1303,0.0163948,0.0751118,-0.0954594
-0.120262,0.0790035,-1.06355,1.01201,0.343814,-1.08274,-0.0290684,0.0788451,-0.16602
-0.112622,0.102665,-1.08204,1.04812,0.21975,-1.06169,-0.0406129,0.0421205,-0.138352
-0.108747,0.125036,-1.10141,1.00406,-0.0296185,-1.07737,-0.0254475,-0.00247144,-0.0786703
-0.109425,0.146987,-1.11935,0.93488,-0.302847,-0.940743,0.0427821,-0.00139943,-0.0521305
-0.116045,0.162847,-1.1374,0.373941,-0.6169,-1.07692,-0.00612386,-0.00083521,0.0265655
-0.122533,0.16836,-1.16262,0.037994,-0.34978,-1.53689,-0.101944,-0.0625216,-0.0883948
-0.123106,0.176002,-1.19632,0.323913,-0.347549,-1.73714,-0.219404,-0.0400545,-0.427364
-0.125232,0.189048,-1.22704,0.586494,-0.346946,-1.42068,-0.0783547,-0.0503725,-0.477794
-0.124477,0.205227,-1.25183,0.708381,-0.0255172,-1.24689,-0.0684061,0.00174806,-0.352413
-0.116216,0.223731,-1.27471,0.877446,0.339844,-1.193,-0.0879398,0.0311956,-0.190085
-0.102391,0.245829,-1.29539,1.10167,0.537467,-1.04046,-0.0582857,0.0748425,-0.0176117
-0.0875624,0.271073,-1.3128,1.23255,0.463054,-0.892752,-0.0218372,0.123707,0.188629
-0.076586,0.2968,-1.32842,1.18323,0.172149,-0.835564,-0.0353089,0.109066,0.360319
-0.0724399,0.319743,-1.34429,0.992718,-0.23456,-0.853841,-0.043566,0.101996,0.454654
-0.0750035,0.338531,-1.36076,0.75172,-0.539723,-0.836641,-0.0512375,0.0930115,0.461924
-0.0822767,0.350853,-1.37701,0.310901,-0.720523,-0.784802,-0.0519579,0.122294,0.474325
-0.0928914,0.35124,-1.3931,-0.477556,-0.8995,-0.745561,-0.0620296,0.10099,0.528221
-0.105916,0.333615,-1.41181,-1.42067,-1.0302,-0.865617,-0.0970105,0.0766216,0.511652
-0.117218,0.30371,-1.43619,-1.6944,-0.776151,-1.10389,-0.209844,0.0476735,0.134163
-0.119111,0.274245,-1.46437,-1.55841,-0.187073,-1.17991,-0.232672,0.114265,-0.159837
-0.110028,0.24651,-1.49124,-1.51215,0.405883,-1.06875,-0.127049,0.165758,-0.136787
-0.0930682,0.218364,-1.51319,-1.55168,0.729115,-0.75347,-0.0107745,0.125386,-0.0182215
-0.0755836,0.186369,-1.52901,-1.79288,0.670598,-0.580263,0.00903367,0.0558519,0.182423
-0.0583011,0.148545,-1.5449,-2.14019,0.849589,-0.784629,-0.108984,-0.00149132,0.282488
-0.0381112,0.101445,-1.5658,-2.6559,0.860972,-1.03686,-0.15289,-0.0202037,0.361477
-0.0189763,0.0481362,-1.5882,-2.69618,0.907645,-1.02528,-0.0848677,-0.074853,0.192525
-0.000383433,-0.00429924,-1.60871,-2.57178,0.905421,-0.972724,-0.0590039,-0.0465509,0.113211
0.0157727,-0.0543933,-1.62628,-2.44868,0.693079,-0.819513,-0.0445269,-0.0227198,0.0778036
0.0217758,-0.10072,-1.64101,-2.07235,0.0210293,-0.792094,-0.00466556,-0.0597937,-0.0113616
0.017603,-0.133681,-1.65664,-1.19132,-0.203411,-0.81317,-0.0443464,-0.136762,-0.339474
0.0102813,-0.150747,-1.67161,-0.562605,-0.311846,-0.650754,0.00532304,-0.0476684,-0.354014
0.00192599,-0.158939,-1.68143,-0.318508,-0.362981,-0.33894,0.096792,-0.0589059,-0.252398
-0.00614123,-0.165973,-1.68608,-0.422634,-0.372589,-0.147576,0.0969228,-0.104894,-0.147641
-0.0138089,-0.17528,-1.68871,-0.471871,-0.315963,-0.130247,0.0298169,-0.139823,-0.170278
-0.0180722,-0.182897,-1.69238,-0.260461,-0.00757299,-0.218774,-0.0535651,-0.117456,-0.289957
-0.0149535,-0.184696,-1.69705,0.0648019,0.403996,-0.212048,-0.0655169,-0.103752,-0.362989
-0.0047527,-0.181048,-1.69977,0.260337,0.619275,-0.0418275,0.0109768,-0.0781932,-0.289473
0.00740197,-0.175005,-1.69858,0.28836,0.555058,0.152152,0.0621843,-0.106135,-0.149304
0.0169385,-0.170547,-1.69407,0.0917093,0.338202,0.288328,0.0442973,-0.149946,-0.0256203
0.0226942,-0.171966,-1.68779,-0.271661,0.169142,0.309357,-0.0241429,-0.192605,0.0352894
0.0269539,-0.179934,-1.68217,-0.544503,0.197095,0.220128,-0.0899922,-0.214503,-0.0307994
0.0321866,-0.191946,-1.67839,-0.684307,0.270795,0.122842,-0.115193,-0.183094,-0.106291
0.0374834,-0.20682,-1.67585,-0.841845,0.195551,0.0869174,-0.0978944,-0.127331,-0.0981247
0.0392024,-0.225535,-1.67318,-1.08014,-0.132756,0.0978286,-0.0525279,-0.0910444,-0.0554017
0.0323317,-0.249259,-1.6705,-1.28408,-0.589937,0.0735553,-0.0367441,-0.0210539,-0.0344932
0.0175233,-0.275455,-1.66901,-1.33768,-0.896708,-0.000166943,-0.0464792,0.0415067,-0.0843093
-0.00108252,-0.301356,-1.66952,-1.25475,-0.913938,-0.0634967,-0.039509,0.0841205,-0.147544
-0.0177316,-0.324357,-1.67124,-0.999515,-0.654499,-0.0643674,-0.0325104,0.0987812,-0.172212
-0.0268218,-0.337688,-1.67226,-0.286494,-0.237767,-0.000197843,-0.00232978,0.112968,-0.2855
-0.0286068,-0.334996,-1.67189,0.528235,0.00640081,0.0188553,0.0206652,0.122742,-0.278143
-0.027066,-0.318518,-1.67031,1.06696,0.086525,0.0939691,0.0606898,0.120266,-0.147449
-0.0243333,-0.295184,-1.66699,1.229,0.0913858,0.148983,0.0773556,0.106728,0.030562
-0.0211577,-0.271856,-1.66336,1.07149,0.11144,0.136933,0.0725031,0.0903671,0.183838
-0.0192492,-0.254125,-1.66068,0.698241,-0.005195,0.0768293,0.073836,0.0773218,0.287498
-0.0192492,-0.254125,-1.66068,0.698241,-0.005195,0.0768293,0.073836,0.0773218,0.287498
-0.0207537,-0.243951,-1.65999,0.338258,-0.15857,-0.0289828,0.0771445,0.0650107,0.288206
-0.0256107,-0.23937,-1.66139,0.163359,-0.273525,-0.106034,0.0837309,0.0666811,0.208763
-0.0317888,-0.23586,-1.66358,0.19946,-0.292723,-0.0995707,0.0871625,0.104409,0.0972649
-0.0385008,-0.230944,-1.66435,0.288944,-0.357102,0.014987,0.128122,0.134766,0.0469785
-0.0443562,-0.225036,-1.66245,0.262064,-0.252622,0.137786,0.141521,0.13779,0.0529593
-0.0468192,-0.222305,-1.65864,0.0192214,-0.0655853,0.224158,0.0997884,0.127987,0.113895
-0.0453049,-0.223613,-1.65349,-0.109768,0.0964857,0.271414,0.0727872,0.0972462,0.119991
-0.0411269,-0.226666,-1.64801,-0.163063,0.202995,0.282318,0.0437867,0.0693982,0.129679
-0.035088,-0.230089,-1.64216,-0.153952,0.268088,0.299152,0.0461496,0.0357906,0.151865
-0.0282767,-0.232938,-1.63608,-0.140604,0.259605,0.308491,0.0310798,0.00153893,0.177483
-0.0229718,-0.236945,-1.6297,-0.280826,0.114734,0.319904,0.0296522,-0.0310447,0.243211
-0.0207752,-0.245651,-1.62363,-0.609215,-0.0202125,0.288729,0.00321275,-0.0681694,0.317258
-0.02027,-0.262073,-1.61832,-1.02472,-0.0637459,0.265443,-0.0182348,-0.106221,0.325901
-0.0217004,-0.285814,-1.6136,-1.29555,-0.226425,0.233093,-0.0318398,-0.124514,0.247079
-0.0274305,-0.311199,-1.60966,-1.18155,-0.495189,0.211816,-0.0460492,-0.137331,0.0587562
-0.0377247,-0.330365,-1.60545,-0.683278,-0.627245,0.242809,-0.0783986,-0.133638,-0.16626
-0.0485986,-0.338219,-1.60171,-0.119127,-0.558154,0.113404,-0.178981,-0.148504,-0.283139
-0.0580673,-0.337432,-1.60186,0.132139,-0.351685,-0.134132,-0.264177,-0.191646,-0.254119
-0.0649481,-0.334765,-1.60701,0.0847682,-0.188512,-0.353467,-0.272578,-0.19189,-0.184015
-0.0714335,-0.333038,-1.61641,0.0234277,-0.172274,-0.550987,-0.229058,-0.20654,-0.174727
-0.0792031,-0.331455,-1.62973,0.0775383,-0.157263,-0.71198,-0.212525,-0.170924,-0.223563
-0.0868858,-0.325896,-1.64589,0.368473,-0.0744762,-0.871613,-0.196584,-0.135236,-0.331096
-0.0936455,-0.313982,-1.6654,0.593579,-0.000788852,-1.09676,-0.200293,-0.091563,-0.342973
-0.101924,-0.300836,-1.68965,0.419394,-0.112329,-1.3195,-0.156774,-0.0311361,-0.239321
-0.114438,-0.293142,-1.71702,0.0718317,-0.349706,-1.33666,-0.0508239,0.0272002,-0.188371
-0.130468,-0.289484,-1.74367,0.0557244,-0.405334,-1.24201,0.0465601,0.0631292,-0.282771
-0.145451,-0.283159,-1.76682,0.277289,-0.469687,-1.06871,0.07804,0.0850204,-0.366489
-0.159343,-0.271429,-1.78686,0.570951,-0.323689,-1.03246,0.0393507,0.0893588,-0.373981
-0.16727,-0.2562,-1.80524,0.619764,0.0525719,-0.959259,0.0493012,0.108365,-0.263839
-0.165693,-0.240603,-1.82102,0.69988,0.466026,-0.818125,0.107068,0.0897447,-0.171211
-0.156682,-0.221847,-1.83352,0.981247,0.693098,-0.694471,0.133739,0.0726015,-0.0983614
-0.143778,-0.197838,-1.84315,1.23385,0.784054,-0.599096,0.140046,0.0500317,0.0281465
-0.129919,-0.171258,-1.85025,1.2726,0.704239,-0.449176,0.172382,0.0369754,0.196412
-0.118848,-0.146665,-1.85457,1.10214,0.460422,-0.286823,0.192506,0.0222108,0.333528
-0.112977,-0.126204,-1.857,0.915702,0.153408,-0.199203,0.16401,-0.0128474,0.361516
-0.113499,-0.109645,-1.85863,0.705503,-0.161632,-0.158596,0.128475,-0.00175942,0.344579
-0.117798,-0.0980045,-1.86089,0.416833,-0.200077,-0.217535,0.0468472,0.022483,0.308098
-0.120897,-0.0925914,-1.86594,0.0495741,-0.0380859,-0.349742,-0.0320138,0.0306487,0.245773
-0.119617,-0.0943024,-1.8745,-0.3271,0.252993,-0.46838,-0.0573302,0.0344994,0.189142
-0.113222,-0.102275,-1.88534,-0.585904,0.496036,-0.493325,-0.0416172,0.0439295,0.12784
-0.103701,-0.113704,-1.89628,-0.645244,0.56028,-0.464391,-0.00817613,0.0518548,0.0678714
-0.0933151,-0.123928,-1.90614,-0.455368,0.592461,-0.409577,-0.00296339,0.0448915,0.00690377
-0.0826573,-0.129803,-1.9144,-0.212516,0.589525,-0.350385,-0.00696812,0.0212414,-0.00581658
-0.0714009,-0.131522,-1.92103,-0.0432233,0.623881,-0.303407,-0.0168156,-0.000726268,0.0312417
-0.0598612,-0.131794,-1.92709,-0.0632119,0.603723,-0.295453,-0.0265852,-0.0241434,0.115437
-0.0494094,-0.134009,-1.93288,-0.200323,0.508208,-0.267487,-0.0154914,-0.0485251,0.183856
-0.041113,-0.138667,-1.93793,-0.285256,0.401691,-0.212962,-0.00444396,-0.0605861,0.170564
-0.0343796,-0.144623,-1.94196,-0.320067,0.337642,-0.162704,-0.0141581,-0.0658118,0.134224
-0.0287421,-0.150946,-1.94495,-0.330821,0.27732,-0.108891,-0.0160834,-0.0772687,0.0947731
-0.0239884,-0.157807,-1.9467,-0.370169,0.229641,-0.0508766,-0.00907268,-0.0799585,0.0718849
-0.0200033,-0.165383,-1.94768,-0.389639,0.189348,-0.0348037,-0.0225531,-0.0895875,0.0476052
-0.0165548,-0.173092,-1.94839,-0.385015,0.176701,-0.0216179,-0.0170033,-0.0917699,0.00803894
-0.0133756,-0.180102,-1.94888,-0.311938,0.131481,-0.0141924,-0.0149784,-0.074378,-0.0360989
-0.0133756,-0.180102,-1.94888,-0.311938,0.131481,-0.0141924,-0.0149784,-0.074378,-0.0360989
-0.0124479,-0.185406,-1.94905,-0.227384,-0.0523017,0.00357267,-0.00862455,-0.0478559,-0.0692777
-0.0155473,-0.189432,-1.94889,-0.179679,-0.252943,0.0153583,-0.0045985,-0.0243001,-0.0859243
-0.0213172,-0.192414,-1.94879,-0.11769,-0.296418,-0.0106828,-0.0158973,-0.0165612,-0.116441
-0.025934,-0.193874,-1.94971,-0.0319716,-0.130587,-0.0719704,-0.0414951,-0.020665,-0.148566
-0.0270545,-0.193965,-1.95147,-0.000881901,0.0448982,-0.0931063,-0.0297153,-0.00940153,-0.140358
-0.0257305,-0.194607,-1.95363,-0.088815,0.10666,-0.120101,-0.00429904,-0.0190345,-0.0800989
-0.024957,-0.197518,-1.95685,-0.207668,0.0108404,-0.192591,0.00017719,-0.0291525,-0.0382881
-0.0276953,-0.202399,-1.96163,-0.314669,-0.186551,-0.265562,0.00313962,-0.0165414,-0.051886
-0.0339068,-0.210862,-1.96754,-0.576941,-0.28053,-0.274708,0.0229718,0.0120109,-0.0479186
-0.0400796,-0.224664,-1.97335,-0.805184,-0.193595,-0.243042,0.0379938,0.0340724,-0.0960585
-0.0433002,-0.240146,-1.97872,-0.715089,0.00753967,-0.205863,0.0303867,0.06016,-0.179433
-0.0421482,-0.249925,-1.98265,-0.260332,0.179784,-0.132659,0.0408265,0.0711652,-0.247414
-0.0395903,-0.249916,-1.98502,0.206649,0.0983066,-0.10886,0.0587971,0.0665356,-0.197384
-0.0402041,-0.243581,-1.98692,0.354152,-0.119389,-0.0996595,0.0837912,0.0526588,-0.056381
-0.0443673,-0.237593,-1.98852,0.21134,-0.220048,-0.0742554,0.0915991,0.0682552,0.0495946
-0.0483945,-0.235376,-1.98934,0.00259572,-0.150037,-0.00538155,0.0956562,0.0907815,0.0770622
-0.0504707,-0.237138,-1.98851,-0.168371,-0.0882285,0.0911973,0.109279,0.0999936,0.0728121
-0.0512685,-0.241619,-1.98614,-0.273049,-0.057953,0.150541,0.0906357,0.104948,0.0575973
-0.0517539,-0.248282,-1.98323,-0.374082,-0.0623078,0.160949,0.0597575,0.114688,0.0524497
-0.0526829,-0.256157,-1.98065,-0.384884,-0.100568,0.125677,0.0326603,0.107659,0.011973
-0.054536,-0.26264,-1.97881,-0.225845,-0.139937,0.0998046,0.0324828,0.100721,-0.0471413
-0.0575281,-0.264443,-1.97672,0.0644168,-0.210767,0.123962,0.0484328,0.107265,-0.0845001
-0.0611627,-0.260397,-1.97322,0.331167,-0.241495,0.188254,0.0607119,0.101896,-0.0666621
-0.0646772,-0.253109,-1.96858,0.387461,-0.207938,0.205952,0.0374874,0.0804568,0.0144238
-0.0663601,-0.246394,-1.96404,0.297584,-0.0668501,0.176995,-0.00728562,0.0511814,0.084012
-0.065928,-0.242125,-1.9611,0.158698,0.0244701,0.0759221,-0.0503298,0.0235092,0.127581
-0.065134,-0.239553,-1.96076,0.11136,0.0365377,-0.0720403,-0.0830262,0.000127733,0.125939
-0.0655586,-0.236794,-1.96396,0.142988,-0.0148006,-0.255837,-0.110114,-0.00668222,0.109442
-0.0677237,-0.233208,-1.97084,0.148746,-0.0113403,-0.443024,-0.115953,-0.0129608,0.104107
-0.0689427,-0.230722,-1.98206,-0.00333274,0.161439,-0.663651,-0.15393,-0.0107702,0.128003
-0.0677849,-0.231689,-1.99783,-0.196276,0.304502,-0.861541,-0.158503,-0.0109939,0.134329
-0.0657684,-0.235177,-2.01737,-0.25953,0.327875,-1.01433,-0.141838,0.00811926,0.100131
-0.0651415,-0.238377,-2.03973,-0.187204,0.261355,-1.13581,-0.125649,0.0297429,0.0531422
-0.0660814,-0.239614,-2.06458,-0.103814,0.247971,-1.27559,-0.134233,0.0503613,0.0294901
-0.0675228,-0.239852,-2.09245,-0.128265,0.286371,-1.43304,-0.157147,0.0749563,0.0373054
-0.0679954,-0.241445,-2.1233,-0.242425,0.405961,-1.54404,-0.146506,0.0901636,0.0436552
-0.066653,-0.244626,-2.1559,-0.262476,0.496714,-1.59532,-0.117661,0.106149,0.0210215
-0.0651127,-0.246068,-2.18876,-0.0635456,0.452884,-1.57844,-0.0635566,0.100096,-0.0313383
-0.0648997,-0.242186,-2.22079,0.251164,0.351094,-1.56539,-0.0587427,0.104459,-0.0751578
-0.0664988,-0.232921,-2.2533,0.410445,0.241627,-1.6927,-0.116573,0.0918109,-0.0339455
-0.0727834,-0.225488,-2.29124,-0.0769653,-0.0214551,-2.10214,-0.246978,0.110891,0.106107
-0.0850678,-0.234998,-2.34039,-1.30677,0.0119256,-2.56745,-0.287792,0.138054,0.219822
-0.0943311,-0.266396,-2.39723,-2.1948,0.486247,-2.59259,-0.149274,0.165806,0.0289794
-0.0938472,-0.305251,-2.45184,-2.00146,1.13733,-2.20446,-0.0182275,0.265507,-0.334498
-0.0794121,-0.332168,-2.49492,-0.974824,1.60671,-1.65688,0.040004,0.275942,-0.616556
-0.0566639,-0.337898,-2.52685,0.168836,1.69757,-1.36058,-0.0274404,0.190666,-0.605119
-0.0327196,-0.32352,-2.55414,1.11812,1.58248,-1.32148,-0.141652,0.113918,-0.415071
-0.0115643,-0.293844,-2.58185,1.7402,1.38192,-1.39533,-0.221979,0.0970086,-0.178516
0.00556728,-0.256195,-2.61173,1.96326,1.14303,-1.49714,-0.226852,0.0945446,0.0489655
0.0184527,-0.218614,-2.64406,1.78781,0.931663,-1.61841,-0.223213,0.0962186,0.237126
0.0290053,-0.188516,-2.67959,1.26837,0.862174,-1.81579,-0.239089,0.0830455,0.365568
0.0397208,-0.170562,-2.71899,0.697741,0.928015,-1.98485,-0.223811,0.0467092,0.368547
0.0518709,-0.162224,-2.76008,0.367636,0.975567,-2.03202,-0.179234,0.0391086,0.264687
0.0655684,-0.158662,-2.80177,0.251234,1.06913,-2.06367,-0.166917,0.0299296,0.184124
0.0655684,-0.158662,-2.80177,0.251234,1.06913,-2.06367,-0.166917,0.0299296,0.184124
0.0812711,-0.157143,-2.84375,0.211895,1.16667,-2.07837,-0.148236,0.0240602,0.159391
0.0980613,-0.156918,-2.88621,0.175547,1.14431,-2.10788,-0.118003,0.00974113,0.176297
0.11172,-0.158723,-2.92884,0.0813327,0.864773,-2.09627,-0.0523931,-0.0107646,0.214291
0.118366,-0.162645,-2.97011,-0.00400338,0.48052,-2.00001,0.0373994,-0.0215791,0.208596
0.118049,-0.167963,-3.00879,-0.0647517,0.156767,-1.85841,0.0847031,-0.00633182,0.164078
0.113436,-0.17323,-3.04475,-0.0334878,0.0291268,-1.74746,0.0843322,0.00720066,0.0760229
0.108233,-0.177032,-3.07905,0.0345121,0.0847767,-1.66165,0.0701806,0.0360035,0.000308692
0.106409,-0.178735,-3.11142,0.138462,0.317184,-1.52954,0.0975867,0.0395917,-0.0453461
0.109219,-0.177792,-3.14109,0.27066,0.468626,-1.3633,0.127229,0.0500105,-0.0435091
0.113844,-0.174397,3.11583,0.345216,0.434756,-1.1776,0.161562,0.0545132,0.00244313
0.117528,-0.170214,3.09259,0.321623,0.337906,-1.06646,0.155433,0.0429632,0.0587668
0.120062,-0.167414,3.07115,0.186044,0.292829,-1.00612,0.145359,0.0214922,0.100442
0.123049,-0.167375,3.05214,0.0663643,0.325128,-0.84299,0.179696,0.0135502,0.108468
0.12656,-0.167988,3.03706,0.072307,0.258356,-0.643627,0.21436,-0.00365502,0.0834913
0.128588,-0.167881,3.02574,0.0531706,0.144664,-0.478953,0.212909,-0.0284069,0.0951411
0.129651,-0.169132,3.01707,-0.0716532,0.116166,-0.395664,0.180555,-0.05706,0.118739
0.130321,-0.172339,3.00985,-0.127845,0.0485695,-0.364553,0.167032,-0.0670709,0.0940655
0.127948,-0.175529,3.00286,-0.104682,-0.183256,-0.35483,0.167025,-0.0690381,0.0605091
0.120517,-0.178629,2.99669,-0.142547,-0.456958,-0.273472,0.189762,-0.0434492,0.0528779
0.107928,-0.183093,2.99292,-0.264684,-0.733726,-0.141315,0.198113,-0.00255218,0.0477391
0.0913286,-0.189278,2.99226,-0.326089,-0.881226,0.0186141,0.205319,0.0162564,-0.0166276
0.0750905,-0.194855,2.99498,-0.239204,-0.759421,0.199742,0.190896,0.0404603,-0.113638
0.0634924,-0.197536,3.00066,-0.0535351,-0.513222,0.339785,0.163889,0.0505109,-0.170928
0.056318,-0.195976,3.00828,0.171139,-0.380833,0.390549,0.129405,0.0715875,-0.187735
0.0505433,-0.188933,3.01627,0.510358,-0.406049,0.445854,0.101516,0.117533,-0.267783
0.0431492,-0.172562,3.02542,1.16163,-0.481672,0.56335,0.138047,0.182541,-0.427985
0.0342555,-0.140317,3.03798,1.99984,-0.631995,0.800886,0.183648,0.214025,-0.700869
0.0223746,-0.0920289,3.05482,2.81389,-0.735611,1.03427,0.220703,0.162129,-0.838435
0.00896198,-0.0255294,3.07681,3.9158,-0.717826,1.24386,0.280683,0.0869305,-1.24971
-0.00370691,0.0677897,3.10154,5.45278,-0.474345,1.2339,0.123053,0.123463,-1.57671
-0.0137787,0.186793,3.12773,6.32685,-0.215919,1.27239,0.0870707,0.0591673,-1.3804
-0.022777,0.311836,-3.12695,6.17383,0.0713592,1.23545,0.0700775,-0.118578,-0.859159
-0.0258962,0.431609,-3.1013,5.94657,0.536319,0.838083,-0.10551,-0.156817,-0.542023
-0.019763,0.54916,-3.08251,5.86627,0.922574,0.556958,-0.16393,-0.0131396,-0.538957
-0.00618541,0.664306,-3.06905,5.6904,1.14598,0.425367,-0.0741094,0.139889,-0.377465
0.0079066,0.774845,-3.06044,5.37095,0.742947,0.219874,0.00552003,0.160268,-0.193406
0.017739,0.877792,-3.05822,4.91922,0.446995,0.079306,0.0988365,0.224057,-0.135007
0.0256457,0.970047,-3.06133,4.37358,0.0875812,-0.0607635,0.0632944,0.344978,-0.0926402
0.0328121,1.05391,-3.0725,4.10182,-0.296045,-0.290208,0.0447927,0.496957,-0.186664
0.045894,1.13448,-3.09506,4.02743,-0.29185,-0.393016,0.0614832,0.641161,-0.322817
0.0735727,1.21265,-3.1266,3.84538,0.123232,-0.364616,0.0938014,0.827846,-0.34063
0.121246,1.28607,3.10924,3.65409,0.0805543,-0.428366,0.0421673,0.887244,-0.188483
0.199781,1.35401,3.02898,3.33385,0.0641378,-0.414968,0.0796441,0.860795,-0.0571472
0.31919,1.41111,2.91255,2.7238,0.471327,-0.220014,0.172089,0.861057,0.0752466
0.485799,1.45442,2.75773,2.11782,0.829348,-0.0686229,0.167252,0.844356,0.149232
0.724291,1.48508,2.53684,1.69595,1.01116,-0.0483272,0.116876,0.756644,0.162795
1.07436,1.50342,2.20612,1.41958,0.992397,-0.0988996,0.092599,0.649572,0.176764
1.48829,1.50922,1.81014,1.19079,0.893998,-0.0603941,0.177127,0.511274,0.222768
1.85076,1.50729,1.46414,0.961979,0.853725,0.0884106,0.249926,0.388121,0.209775
2.11149,1.50382,1.21987,0.624949,0.834901,0.214612,0.253995,0.334398,0.226814
2.26384,1.50183,1.0842,0.243699,0.901911,0.119056,0.133863,0.248218,0.217084
2.29656,1.50113,1.07184,-0.130964,1.15911,-0.135005,0.03294,0.16652,0.169194
2.20598,1.50167,1.18874,-0.532425,1.4248,-0.276637,0.0453061,0.129921,0.145435
2.03596,1.50417,1.38889,-0.688008,1.54024,-0.174265,0.149102,0.144632,0.0548843
2.03596,1.50417,1.38889,-0.688008,1.54024,-0.174265,0.149102,0.144632,0.0548843
1.88496,1.50702,1.57107,-0.483425,1.51501,0.0120184,0.142791,0.158383,-0.116068
1.82093,1.51036,1.66362,-0.183859,1.308,0.151887,0.0910765,0.099157,-0.161405
1.82738,1.51509,1.68126,-0.0561102,1.13987,0.291501,0.0627747,0.0504664,-0.079939
1.87634,1.52207,1.65495,-0.00464985,1.14604,0.414082,0.0397344,0.0244786,-0.047472
1.97428,1.53032,1.58043,0.0135879,1.23181,0.463236,0.00471388,0.0071612,-0.0408973
2.0963,1.53789,1.48492,-0.0515053,1.44021,0.357961,-0.0793587,0.00138146,-0.00488925
2.15038,1.54381,1.46168,-0.20834,1.64551,0.201725,-0.121262,-0.0167823,0.0476515
2.07829,1.54909,1.56744,-0.252022,1.70154,0.129112,-0.0874282,-0.0228488,0.0490566
1.96054,1.55326,1.71765,-0.191954,1.53906,0.144186,-0.0364548,-0.0556802,0.0137594
1.87328,1.55737,1.83379,-0.123815,1.36489,0.184521,-0.0113449,-0.0277847,-0.00129664
1.80754,1.56156,1.92606,-0.0963169,1.33193,0.210007,-0.0131129,-0.00822121,-0.0153766
1.64437,1.56616,2.11666,-0.111072,1.43582,0.230338,-0.00108744,0.0274248,-0.0407267
0.170817,1.56893,-2.66355,-0.0869621,1.49222,0.197605,-0.0196142,0.0473313,-0.0487416
-0.711085,1.56683,-1.75094,-0.044172,1.5817,0.095933,-0.0603954,0.0623397,-0.0606546
-0.689754,1.56553,-1.74066,-0.0609073,1.59503,0.00682364,-0.0580444,0.0614334,-0.0136035
-0.443273,1.56369,-1.95499,-0.187168,1.62199,-0.014659,-0.0214501,0.100225,0.0363718
-0.183042,1.55897,-2.18307,-0.318423,1.58773,-0.0455938,-0.0205415,0.127082,0.0717403
-0.0301933,1.55213,-2.30492,-0.362886,1.53297,-0.0552977,-0.0102707,0.13949,0.0360386
0.0321629,1.54516,-2.33697,-0.347298,1.50464,-0.0176219,0.0103301,0.173958,-0.0209284
0.0674683,1.53775,-2.34251,-0.410713,1.48912,-0.0423863,-0.0299829,0.167576,-0.0136414
0.1057,1.52784,-2.35081,-0.602826,1.51864,-0.0758814,-0.0505815,0.161294,0.00676686
0.134925,1.51319,-2.34975,-0.842146,1.5099,-0.0917941,-0.0499344,0.138967,0.0267857
0.1537,1.49548,-2.33869,-0.896086,1.48894,-0.0835568,-0.0487969,0.14542,-0.0606065
0.167561,1.47814,-2.32249,-0.856604,1.5133,-0.0697406,-0.0702716,0.185758,-0.125215
0.184948,1.45964,-2.31058,-1.0465,1.4009,-0.15207,-0.12715,0.173211,-0.021671
0.204228,1.43303,-2.30383,-1.64658,1.21719,-0.287652,-0.155904,0.113969,0.142654
0.219338,1.39231,-2.29464,-2.35059,1.25046,-0.428864,-0.184489,0.101637,0.163781
0.23333,1.3403,-2.28157,-2.71566,1.45155,-0.458447,-0.162765,0.127788,-0.00833313
0.246061,1.28562,-2.26314,-2.69138,1.5829,-0.374904,-0.139985,0.160005,-0.18114
0.259908,1.23332,-2.24479,-2.5156,1.53322,-0.395532,-0.127389,0.164602,-0.178002
0.268363,1.18592,-2.22449,-2.24139,1.18172,0.114896,-0.053637,0.15623,-0.152062
0.250694,1.14629,-2.18754,-1.89559,0.447651,0.142182,0.169828,0.139773,-0.118582
0.232269,1.11357,-2.16289,-1.61037,0.0573066,0.0614974,-0.0752214,0.172868,-0.143312
0.222503,1.08252,-2.14836,-1.63619,0.277919,-0.0936409,-0.145603,0.104164,-0.0641391
0.219973,1.04698,-2.13679,-1.98461,0.493554,-0.12196,-0.0701259,0.040493,0.0712951
0.203207,1.01118,-2.11419,-1.53426,-0.507176,0.492026,0.327284,0.121218,-0.0635447
0.156577,0.993411,-2.08186,-0.75066,-1.25659,0.835063,0.319883,0.211977,-0.449001
0.102579,0.977804,-2.04546,-1.17028,-0.9925,0.920654,0.128047,0.151461,-0.0385903
0.0580933,0.95125,-2.01133,-1.49094,-0.779228,0.804728,-0.0649486,-0.0672665,0.00731373
0.0243398,0.926248,-1.98767,-1.09119,-0.539225,0.428143,-0.1713,-0.0992492,-0.377994
0.0154111,0.903627,-1.98015,-1.3365,0.221721,0.0295882,-0.286162,-0.143714,-0.253883
0.0241438,0.870965,-1.98088,-1.8777,0.513358,-0.113828,-0.179047,-0.229037,0.0533251
0.035027,0.832981,-1.98327,-1.83227,0.368839,-0.13751,-0.133359,-0.239659,-0.0637318
0.0416764,0.799791,-1.98471,-1.49863,0.114472,-0.0942235,-0.0805631,-0.207518,-0.143638
0.0413551,0.77389,-1.98635,-0.874598,-0.166285,-0.0289726,-0.081708,-0.229285,-0.124587
0.0335017,0.760794,-1.98647,-0.582298,-0.553291,-0.202754,0.118379,0.143354,-0.375681
0.0280622,0.748278,-1.99294,-0.701122,-0.351797,-0.273963,-0.0666904,-0.301449,0.0322404
0.0253665,0.732047,-1.99508,-0.857652,-0.275458,0.0548804,0.207926,-0.0359673,0.0371171
0.00941497,0.721144,-1.99281,-0.151079,-1.15059,0.0396439,0.186593,-0.0801119,-0.182866
-0.0158936,0.721569,-1.99474,-0.0610236,-1.40498,-0.162237,0.0405879,-0.0102891,-0.249477
-0.0479102,0.728174,-2.00207,0.361504,-1.91848,-0.256538,0.0338233,-0.152653,-0.429438
-0.0636567,0.734722,-2.01338,0.23188,-0.48298,-0.62759,-0.0678031,0.0548261,-0.264735
-0.0506944,0.736476,-2.032,-0.175538,0.464472,-0.767829,-0.150082,-0.114009,-0.258021
-0.0224443,0.727963,-2.05697,-0.761025,0.463254,-1.08953,-0.149704,-0.0929811,-0.0196478
-0.0224443,0.727963,-2.05697,-0.761025,0.463254,-1.08953,-0.149704,-0.0929811,-0.0196478
-0.00149013,0.708583,-2.0909,-1.16558,-0.627809,-1.42931,-0.149488,-0.223326,0.256156
0.0075846,0.682923,-2.12899,-1.32748,-0.628931,-1.44532,-0.0988859,-0.11178,0.186903
0.0217059,0.655181,-2.16369,-1.4164,-0.137881,-1.35636,-0.0283795,0.00789273,0.0268971
0.0436152,0.627087,-2.19745,-1.27166,0.25414,-1.48073,-0.0656098,0.0547604,-0.0646871
0.0697253,0.603019,-2.23508,-0.936187,0.118346,-1.74436,-0.110711,0.0336845,-0.0824879
0.0919723,0.585294,-2.27879,-0.545085,-0.353309,-1.99117,-0.096453,0.0789796,-0.0683804
0.106272,0.574169,-2.32511,-0.175019,-0.70263,-1.94188,0.0314053,0.149537,-0.066506
0.112985,0.570532,-2.36757,0.190648,-0.92421,-1.64312,0.195381,0.220454,-0.059718
0.111814,0.572269,-2.40317,0.2365,-1.11809,-1.33829,0.248131,0.21192,0.010321
0.105758,0.569503,-2.43286,-0.312176,-1.02564,-1.20036,0.197324,0.147871,0.114991
0.104727,0.553566,-2.45855,-1.00913,-0.413015,-1.15998,0.103841,0.104765,0.0999617
0.114633,0.527978,-2.4837,-1.1995,0.0264125,-1.27316,-0.00697941,0.0853456,-0.0730704
0.128349,0.50456,-2.51011,-0.77582,-0.00542217,-1.28477,0.0172562,0.111047,-0.224892
0.139672,0.491813,-2.53676,-0.222875,-0.125369,-1.20037,0.0489738,0.11732,-0.240799
0.147891,0.486399,-2.56158,-0.0449378,-0.202788,-1.04231,0.0897538,0.105904,-0.110919
0.153691,0.482929,-2.582,-0.0322149,-0.171385,-0.785695,0.130747,0.0992936,-0.0316306
0.156335,0.480224,-2.59628,-0.00952408,-0.233023,-0.530489,0.164814,0.133822,0.00278437
0.156187,0.479986,-2.6066,0.127412,-0.243558,-0.394816,0.136408,0.124257,0.0282737
0.156549,0.481001,-2.61517,0.0601675,-0.0993352,-0.35055,0.0710085,0.11376,0.126988
0.158518,0.479455,-2.6225,-0.118188,-0.104279,-0.317896,0.0675242,0.114037,0.234673
0.15684,0.473771,-2.62857,-0.386956,-0.342583,-0.311776,0.101195,0.0960159,0.330317
0.151079,0.46028,-2.63243,-0.930944,-0.366773,-0.202196,0.138336,0.100876,0.39703
0.144213,0.435496,-2.6305,-1.53234,-0.239571,0.00879628,0.190578,0.118607,0.390017
0.137771,0.401413,-2.62282,-1.90427,-0.0855892,0.217861,0.200882,0.100711,0.262969
0.130963,0.363174,-2.61131,-2.02717,-0.259102,0.254096,0.160353,0.105624,0.183452
0.119462,0.322123,-2.60335,-2.15763,-0.562851,-0.0358655,-0.0014151,0.0453258,0.258181
0.107572,0.277664,-2.60035,-2.307,-0.494374,-0.131244,0.044666,0.0725107,0.269479
0.0975973,0.230436,-2.59655,-2.44864,-0.46285,0.0329022,0.182523,0.127969,0.296296
0.0843855,0.179799,-2.58878,-2.70901,-0.756372,0.269141,0.251241,0.12982,0.376253
0.0632292,0.122876,-2.57645,-3.0936,-1.14145,0.518227,0.265597,0.119072,0.442885
0.0374529,0.0575391,-2.56049,-3.53084,-1.23299,0.735053,0.231371,0.137799,0.4266
0.0152016,-0.0163983,-2.54178,-3.91341,-0.911719,0.957057,0.193755,0.16834,0.332071
0.00304969,-0.0966011,-2.51999,-4.10363,-0.446615,1.14677,0.176957,0.19815,0.181719
0.000777314,-0.177102,-2.49519,-3.91039,-0.155295,1.31273,0.180631,0.182877,0.00431657
0.00312476,-0.250552,-2.46567,-3.44775,-0.32628,1.59138,0.194299,0.168169,-0.165155
0.00269594,-0.313461,-2.4286,-2.84521,-0.804042,1.95361,0.262709,0.180584,-0.270976
-0.00530849,-0.363058,-2.3848,-2.14156,-1.45781,2.13935,0.233921,0.156248,-0.354505
-0.0214301,-0.401306,-2.33998,-1.70071,-1.74303,2.05445,0.093899,0.137257,-0.318414
-0.0376905,-0.435466,-2.29843,-1.67241,-1.52139,1.86135,-0.0342403,0.102627,-0.214896
-0.0474463,-0.472609,-2.25914,-1.9109,-1.21239,1.88785,-0.0244972,0.075688,-0.146782
-0.0519077,-0.514525,-2.21684,-2.06616,-1.33152,2.03828,0.0850227,0.0238395,-0.188416
-0.0580423,-0.557893,-2.17241,-2.05647,-1.52022,2.00062,0.0368847,-0.0580259,-0.228145
-0.0639982,-0.600954,-2.12874,-2.02853,-1.44236,1.9287,-0.0455172,-0.0594791,-0.260037
-0.0645569,-0.642795,-2.08477,-1.89339,-1.15315,1.94506,-0.0680988,-0.00615841,-0.332027
-0.055168,-0.679309,-2.03673,-1.49426,-0.923202,2.07471,-0.058587,0.0488985,-0.492876
-0.0409304,-0.70531,-1.98362,-0.884736,-1.09343,2.1222,-0.0419183,0.037948,-0.647492
-0.0285386,-0.717479,-1.92897,-0.213763,-1.20659,2.048,-0.100158,0.0296465,-0.734024
-0.0172206,-0.717487,-1.87685,0.276399,-1.08816,1.87876,-0.182384,0.0739977,-0.715707
-0.00627052,-0.707649,-1.82932,0.752272,-0.946019,1.69562,-0.195308,0.0627496,-0.697994
0.0032557,-0.687702,-1.78787,1.23962,-0.77989,1.4805,-0.215666,0.0413991,-0.660174
0.0116569,-0.659011,-1.75254,1.5792,-0.567792,1.32033,-0.195831,0.0590513,-0.570189
0.0215994,-0.62572,-1.72157,1.68418,-0.316574,1.23206,-0.167774,0.083554,-0.435436
0.0322669,-0.591596,-1.69365,1.66536,-0.243441,1.14255,-0.139312,0.114081,-0.314027
0.0400799,-0.558241,-1.66966,1.60101,-0.293192,0.99725,-0.143926,0.126341,-0.225445
0.0400799,-0.558241,-1.66966,1.60101,-0.293192,0.99725,-0.143926,0.126341,-0.225445
0.0441405,-0.525993,-1.64951,1.5651,-0.327364,0.871547,-0.128661,0.154666,-0.167953
0.0463689,-0.493956,-1.63225,1.6011,-0.295701,0.793459,-0.115061,0.17077,-0.117232
0.0478798,-0.459103,-1.61654,1.85979,-0.275656,0.781415,-0.0753458,0.161669,-0.0875328
0.0493425,-0.417438,-1.60104,2.24358,-0.239356,0.836397,-0.0351996,0.162405,-0.0485604
0.0508295,-0.369233,-1.58479,2.46806,-0.248426,0.906304,-0.00620006,0.173829,0.0764347
0.0510343,-0.319927,-1.56811,2.32071,-0.300096,0.906287,-0.00710297,0.19182,0.242959
0.0497269,-0.277254,-1.55219,1.84674,-0.27495,0.830511,-0.0192743,0.196407,0.378331
0.0491631,-0.245104,-1.53769,1.31881,-0.14807,0.73092,-0.0130677,0.166782,0.420722
0.0507553,-0.221644,-1.52457,1.01969,-0.0121791,0.680916,0.0119089,0.141296,0.363884
0.052912,-0.20113,-1.51143,0.993597,-0.0815623,0.716652,0.0638862,0.140555,0.289276
0.0520106,-0.180681,-1.49797,0.959287,-0.262223,0.695333,0.0722263,0.144107,0.296021
0.0477696,-0.163198,-1.48607,0.698558,-0.353923,0.557791,0.0345022,0.138673,0.362617
0.0417745,-0.15258,-1.47701,0.328941,-0.38912,0.403598,0.0338112,0.140126,0.369249
0.0350948,-0.147573,-1.46923,0.209467,-0.414515,0.41389,0.105858,0.183224,0.260525
0.0275709,-0.141389,-1.46009,0.403952,-0.456518,0.522129,0.16802,0.190914,0.100347
0.0204691,-0.131074,-1.44865,0.588412,-0.412852,0.630871,0.179888,0.173745,0.042072
0.0137929,-0.117587,-1.43541,0.743894,-0.426515,0.71305,0.166417,0.160012,0.02454
0.00668983,-0.100861,-1.42091,0.920612,-0.456121,0.71725,0.13847,0.156116,0.0069806
-0.00104307,-0.0803764,-1.40837,1.16,-0.417421,0.520033,0.048113,0.118608,-0.0122622
-0.00893323,-0.0532205,-1.39968,1.59191,-0.453943,0.376433,0.0503175,0.0648008,-0.123404
-0.0180883,-0.0171977,-1.39124,2.00037,-0.480104,0.453489,0.137042,0.0749967,-0.133658
-0.0276887,0.0237289,-1.37906,2.05703,-0.49544,0.680788,0.204557,0.0881187,-0.00115299
-0.0383655,0.0621472,-1.3624,1.86613,-0.466951,0.833449,0.196897,0.0384866,0.122442
-0.048859,0.0982337,-1.34395,1.85489,-0.477801,0.83087,0.108571,-0.0182115,0.0647922
-0.0619985,0.135128,-1.32617,1.92463,-0.63146,0.720737,0.0258256,-0.0185266,0.0461245
-0.0773014,0.171145,-1.31069,1.72612,-0.636965,0.564322,-0.0160365,-0.0197527,0.128917
-0.0900462,0.200454,-1.29823,1.28538,-0.3797,0.415467,-0.0207171,-0.0493748,0.209267
-0.0962214,0.220745,-1.28934,0.834525,-0.0764666,0.282863,-0.0290152,-0.0805434,0.224029
-0.0973372,0.233504,-1.28291,0.502597,0.0682792,0.23375,-0.00578044,-0.0792196,0.204112
-0.0967692,0.240547,-1.2774,0.25886,0.107355,0.23561,0.0108285,-0.0759446,0.168828
-0.0953634,0.243257,-1.27214,0.0648055,0.162105,0.248524,0.0199057,-0.0801497,0.137276
-0.0923132,0.242624,-1.2672,-0.068016,0.265974,0.225453,-0.0105697,-0.0957783,0.0913336
-0.0873658,0.240818,-1.26384,-0.0646066,0.264496,0.10394,-0.067958,-0.0753758,0.0381942
-0.0838934,0.239912,-1.26346,-0.0372207,0.070182,-0.0563742,-0.093425,-0.0638051,0.0173507
-0.0837279,0.239088,-1.26565,-0.052602,-0.0786951,-0.134008,-0.0520802,-0.0667268,-0.0014993
-0.0846263,0.238631,-1.26878,-0.017273,-0.0692897,-0.166485,-0.0309833,-0.0384232,-0.057251
-0.0845289,0.237895,-1.2725,-0.139177,-0.013534,-0.189457,-0.0240898,-0.0455317,-0.0471213
-0.0831632,0.231451,-1.27733,-0.594367,0.0512676,-0.235374,-0.0388071,-0.0584517,0.0458831
-0.0801681,0.214964,-1.28479,-1.0753,0.0586774,-0.369678,-0.0783925,-0.067373,0.0731199
-0.0782711,0.193202,-1.29514,-1.09974,-0.10642,-0.451029,-0.0744935,-0.0581353,-0.0627631
-0.0801233,0.174816,-1.30523,-0.816016,-0.24538,-0.383204,-0.0300539,-0.0113148,-0.204176
-0.0823983,0.161356,-1.31383,-0.634419,-0.0733216,-0.34923,-0.0534382,0.0364808,-0.192959
-0.0795798,0.150565,-1.32106,-0.506994,0.215022,-0.281671,-0.0301073,0.00795303,-0.129891
-0.0727986,0.143373,-1.32657,-0.235561,0.342984,-0.199622,-0.00836482,-0.00247282,-0.100818
-0.0663097,0.142577,-1.32975,0.130609,0.215205,-0.113325,0.013953,0.0121656,-0.0692832
-0.0641532,0.148228,-1.33128,0.388401,-0.0267671,-0.0852032,0.00623149,-0.00111823,0.00715673
-0.0662803,0.156577,-1.33229,0.385432,-0.187467,-0.0674939,9.85786e-05,-0.0135563,0.111483
-0.0702091,0.162219,-1.33316,0.13996,-0.198656,-0.0605246,-0.00898615,-0.0224668,0.18253
-0.0729458,0.162155,-1.33494,-0.169553,-0.108971,-0.118291,-0.0463154,-0.029579,0.178486
-0.0730202,0.157066,-1.33842,-0.340249,0.0553797,-0.182896,-0.0732675,-0.0277225,0.102109
-0.0697945,0.150465,-1.34273,-0.329917,0.176643,-0.187911,-0.0573167,-0.00424626,0.0144773
-0.0658212,0.145509,-1.34635,-0.187954,0.159094,-0.124524,-0.0128939,-0.00576025,-0.0391233
-0.0628876,0.142979,-1.34805,-0.0861213,0.099623,-0.0330385,0.0130257,0.0142271,-0.0296778
-0.0628876,0.142979,-1.34805,-0.0861213,0.099623,-0.0330385,0.0130257,0.0142271,-0.0296778
-0.0614431,0.142177,-1.3481,-0.0225893,0.0656784,0.0298125,0.0199218,-0.0061595,-0.00181097
-0.0590438,0.140988,-1.34688,-0.116043,0.201269,0.109432,0.0247783,-0.0243042,0.061793
-0.0545132,0.137447,-1.34366,-0.201834,0.282806,0.225657,0.051836,-0.0403227,0.0958175
-0.0498148,0.133518,-1.33833,-0.144391,0.232516,0.324084,0.0481608,-0.0600698,0.0682241
-0.047712,0.131497,-1.33114,-0.0349082,0.0633886,0.392144,0.0350292,-0.0752417,0.0519298
-0.0483137,0.130892,-1.32326,-0.00735184,0.00961721,0.384028,-0.00379986,-0.0938926,0.0600064
-0.0483965,0.129731,-1.31588,-0.0803162,0.0835812,0.354566,-0.0330837,-0.106076,0.0666991
-0.0465671,0.127404,-1.30923,-0.103104,0.185592,0.319636,-0.0339205,-0.114044,0.0421503
-0.0428942,0.126048,-1.30306,-0.000750667,0.243933,0.306867,-0.0223396,-0.108447,-0.00686234
-0.0391418,0.126579,-1.29683,0.0612041,0.198414,0.316553,-0.0047605,-0.108774,0.00488108
-0.036629,0.127472,-1.29014,0.045021,0.144211,0.343918,0.0185623,-0.115,0.0380962
-0.0345915,0.128051,-1.28307,0.0367092,0.15447,0.355392,0.0169216,-0.121978,0.0210198
-0.0323494,0.128681,-1.27604,0.0479557,0.149634,0.33997,0.00343548,-0.119385,-0.00275964
-0.0306113,0.129731,-1.26927,0.0768927,0.107329,0.329802,0.00128122,-0.111065,-0.0203425
-0.0295409,0.131456,-1.2627,0.115888,0.105091,0.317259,0.00445566,-0.0903271,-0.0396543
-0.0271733,0.134346,-1.25633,0.193824,0.22347,0.309041,0.00393003,-0.0811759,-0.068474
-0.022986,0.1391,-1.24975,0.282604,0.256702,0.334959,0.035152,-0.0762075,-0.0530112
-0.0200314,0.144514,-1.24245,0.258392,0.131078,0.383604,0.0742036,-0.0813917,0.0112739
-0.0197255,0.148643,-1.23423,0.167292,0.0406652,0.422483,0.0905973,-0.086767,0.0444599
-0.0197878,0.150749,-1.22555,0.0406649,0.0995341,0.436662,0.0905764,-0.0982339,0.0387582
-0.0177501,0.149061,-1.2165,-0.223612,0.239061,0.464103,0.107533,-0.104817,0.0671701
-0.0139432,0.139892,-1.20695,-0.734194,0.241163,0.498215,0.113523,-0.116103,0.114967
-0.0117811,0.118964,-1.19677,-1.32194,0.107988,0.545016,0.123377,-0.0911553,0.109608
-0.0118553,0.0905656,-1.1855,-1.41048,0.0230989,0.63119,0.120235,-0.0190247,-0.126162
-0.0117236,0.0673301,-1.17105,-0.829579,0.158408,0.867664,0.132409,0.0812869,-0.423568
-0.00971324,0.0582382,-1.15199,-0.0697209,0.124304,1.01148,0.132682,0.11364,-0.480334
-0.00838656,0.0630125,-1.13027,0.459225,0.10296,1.15359,0.125283,0.112135,-0.335684
-0.00912267,0.0726903,-1.10656,0.473902,-0.0111706,1.20977,0.131764,0.0746557,-0.0541196
-0.0119872,0.080247,-1.08153,0.296788,-0.0691409,1.29249,0.144654,0.0656803,0.0773835
-0.0161076,0.08427,-1.05494,0.156829,-0.141986,1.34237,0.139875,0.0813169,0.0878749
-0.0220994,0.0863349,-1.02841,0.112077,-0.224012,1.29681,0.0844694,0.0742649,0.0399317
-0.0291422,0.0876655,-1.00332,0.0793659,-0.248347,1.19435,0.0404549,0.0940078,-0.00569743
-0.0351087,0.0882315,-0.980838,0.0574631,-0.141819,1.04567,0.00553069,0.0990271,-0.0426049
-0.038286,0.0891887,-0.961147,0.131142,-0.0170284,0.924848,-0.00257077,0.112798,-0.0873309
-0.039487,0.0923944,-0.943417,0.255056,0.0562495,0.832515,0.00746323,0.112283,-0.0946106
-0.0391174,0.0977941,-0.92752,0.342493,0.128402,0.730345,-0.00159161,0.104154,-0.0508427
-0.0376227,0.105027,-0.913804,0.431615,0.148915,0.606712,-0.0140614,0.0862032,-0.00488651
-0.0360015,0.113727,-0.902487,0.475593,0.138784,0.488838,-0.016546,0.0736565,0.0478737
-0.0339939,0.123004,-0.893542,0.481403,0.177971,0.365303,-0.0277624,0.0725077,0.093922
-0.0309207,0.131923,-0.887401,0.413673,0.198346,0.210596,-0.052666,0.0646465,0.142357
-0.0270061,0.138473,-0.884767,0.232112,0.229734,0.0330558,-0.0702101,0.0489199,0.192078
-0.0218738,0.141009,-0.885773,0.0202883,0.272474,-0.136272,-0.0784427,0.0361116,0.19751
-0.0155307,0.14041,-0.889803,-0.0700767,0.294676,-0.251549,-0.0660132,0.0384784,0.139957
-0.00896906,0.139435,-0.895755,-0.048667,0.277965,-0.340508,-0.0579975,0.0556403,0.0681815
-0.00236057,0.138362,-0.903324,-0.079024,0.2837,-0.412655,-0.0535245,0.0635038,0.0601121
0.00477666,0.136156,-0.912569,-0.144599,0.302587,-0.509879,-0.066317,0.063546,0.048763
0.0126389,0.132768,-0.924004,-0.182773,0.336277,-0.625192,-0.0923309,0.07058,0.0249031
0.0209572,0.129068,-0.937327,-0.158004,0.304917,-0.690014,-0.0697011,0.0761584,-0.00179106
0.0282274,0.126134,-0.951105,-0.114304,0.259968,-0.687256,-0.0351254,0.0999058,-0.0178306
0.0353549,0.123518,-0.964976,-0.115289,0.287318,-0.710519,-0.0429061,0.0938004,-0.00381374
0.042881,0.12029,-0.979511,-0.146359,0.271458,-0.743888,-0.055284,0.0789085,0.0199832
0.0485285,0.116887,-0.994466,-0.126254,0.079989,-0.763507,-0.0326757,0.0638561,0.0256224
0.0491411,0.113835,-1.00979,-0.11043,-0.195725,-0.77677,-0.0107328,0.0544916,0.032398
0.045005,0.110039,-1.02578,-0.230904,-0.376279,-0.837829,-0.0252629,0.0405113,0.0440624
0.045005,0.110039,-1.02578,-0.230904,-0.376279,-0.837829,-0.0252629,0.0405113,0.0440624
0.0393819,0.101529,-1.04316,-0.581732,-0.31399,-0.939266,-0.0574796,0.0241145,0.0610193
0.0381889,0.0848529,-1.06234,-0.998716,0.0416251,-1.02865,-0.0790275,0.0232582,0.0200135
0.0441051,0.0617587,-1.0822,-1.19707,0.371998,-1.04275,-0.0654455,0.0315833,-0.0808647
0.0535663,0.0369685,-1.1016,-1.1516,0.438671,-1.02001,-0.0539315,0.0395998,-0.15649
0.0615587,0.015663,-1.12043,-0.84176,0.296846,-0.98499,-0.0596355,0.0321114,-0.220721
0.0656587,0.00187526,-1.13879,-0.424725,0.099278,-0.94142,-0.0667254,0.0237869,-0.230687
0.0653369,-0.00388408,-1.15666,-0.0402499,-0.0903997,-0.889506,-0.0508705,-0.0212333,-0.18395
0.0642105,-0.00287431,-1.17385,0.202555,-0.0169568,-0.821982,-0.0537445,-0.0109462,-0.112691
0.0640891,0.000640502,-1.18961,0.22852,-0.000140206,-0.736666,-0.0352215,-0.0350498,0.00115114
0.0635123,0.00397991,-1.2038,0.193399,-0.0753027,-0.662618,-0.0368884,-0.0362118,0.062841
0.0610257,0.00635615,-1.21662,0.116069,-0.18989,-0.611887,-0.0414402,-0.0195686,0.0945386
0.0557889,0.00682015,-1.22826,-0.0139711,-0.30139,-0.543864,-0.0439485,-0.02414,0.116677
0.0517964,0.00420518,-1.23878,-0.206417,-0.107611,-0.539704,-0.0605619,-0.00169999,0.0814137
0.0492696,-0.00183928,-1.24854,-0.312851,-0.17718,-0.435389,-0.0406437,-0.0129324,0.0736902
0.0463043,-0.00771015,-1.25518,-0.246013,-0.0519079,-0.261855,0.01571,0.0144304,0.00350666
0.0495188,-0.0130633,-1.26029,-0.295714,0.433161,-0.31284,-0.0363872,-0.0322279,-0.0153796
0.0611955,-0.0208997,-1.26755,-0.459984,0.607609,-0.441466,-0.0891592,-0.0679716,0.0796821
0.067053,-0.0305785,-1.27602,-0.331996,-0.304854,-0.448516,-0.00338813,-0.0730542,0.122668
0.0484447,-0.0323001,-1.28655,0.0991304,-1.15709,-0.570855,0.0370487,-0.133781,0.058105
0.028511,-0.0296968,-1.29382,0.219751,-0.807561,-0.191692,0.126703,-0.0179126,-0.0211414
0.0160854,-0.0248599,-1.29625,0.176941,-0.379028,-0.0227775,0.106311,-0.0412453,0.00870174
0.0153883,-0.025515,-1.29592,-0.230613,0.286419,0.0231798,0.0464,-0.130584,0.0990282
0.023058,-0.0316489,-1.29563,-0.323813,0.396088,-0.0301517,-0.00903693,-0.116467,0.0743983
0.0293405,-0.0353586,-1.29718,-0.00250131,0.186413,-0.134978,-0.0482695,-0.142422,-0.0627159
0.0282513,-0.0315909,-1.30049,0.365745,-0.285841,-0.165757,-0.0240221,-0.126358,-0.0783667
0.0193499,-0.0227939,-1.30375,0.472575,-0.530707,-0.142074,0.0255933,-0.128596,0.000956893
0.0105729,-0.0152515,-1.30702,0.245966,-0.293801,-0.187163,0.00331391,-0.146141,0.0730243
0.00776539,-0.013479,-1.31144,-0.0525852,-0.0165257,-0.249657,-0.0277232,-0.141988,0.0910808
0.00789367,-0.0160883,-1.31676,-0.165625,0.0116951,-0.275769,-0.0134316,-0.123983,0.0388715
0.00745237,-0.0191131,-1.32191,-0.125843,-0.0659301,-0.23344,0.00458815,-0.0872425,-0.0282255
0.00480127,-0.0202745,-1.32583,0.046043,-0.179823,-0.161768,0.00282903,-0.0580844,-0.0798679
0.00155797,-0.0162218,-1.32877,0.36493,-0.122873,-0.138856,-0.0214401,-0.0490427,-0.159709
0.000272935,-0.00624578,-1.33163,0.59019,-0.0231026,-0.150695,-0.0368331,-0.0473224,-0.13799
-0.00147329,0.00545335,-1.33462,0.542461,-0.206449,-0.143992,-0.00633933,-0.0521181,-0.0117957
-0.00885684,0.0153968,-1.33719,0.476158,-0.510454,-0.117533,0.0272882,-0.0831298,0.0102335
-0.0209801,0.0256599,-1.33908,0.556246,-0.718712,-0.0883584,0.0237792,-0.0731741,-0.0833281
-0.0385565,0.0375599,-1.34008,0.582837,-1.08715,-0.0448908,0.0213383,-0.0809487,-0.111403
-0.0669181,0.0472117,-1.34054,0.346827,-1.82811,-0.0618157,-0.0265597,-0.0634168,-0.0982748
-0.11079,0.053082,-1.34128,0.307143,-2.51187,-0.0595813,-0.0789238,-0.0471779,-0.28109
-0.161805,0.065004,-1.34183,0.958723,-2.46622,-0.139182,-0.206122,0.0321824,-0.652063
-0.204627,0.092284,-1.34009,1.7403,-1.68633,-0.231134,-0.242487,-0.0582223,-0.881597
-0.225744,0.132881,-1.33852,2.1913,-0.476269,-0.502016,-0.345463,-0.0556351,-0.774839
-0.231225,0.179312,-1.33968,2.28479,-0.339284,-0.629118,-0.268554,-0.0203473,-0.415862
-0.246072,0.227144,-1.34164,2.36026,-1.23528,-0.667457,-0.13554,-0.0844658,-0.211408
-0.277344,0.277477,-1.34163,2.53647,-1.76534,-0.639494,-0.0832739,-0.0644951,-0.276892
-0.313003,0.331308,-1.33916,2.68683,-1.6744,-0.720773,-0.166104,-0.00653732,-0.385498
-0.343406,0.387349,-1.33603,2.69659,-1.23436,-0.804156,-0.20253,-0.00825119,-0.399037
-0.365538,0.442538,-1.33314,2.58349,-0.905686,-0.908723,-0.21751,-0.00410777,-0.314621
-0.381355,0.496593,-1.3338,2.46021,-0.756821,-1.1076,-0.28293,-0.0384753,-0.267355
-0.398155,0.551551,-1.33613,2.61987,-1.14185,-1.15084,-0.209326,0.0206063,-0.30512
-0.430021,0.611485,-1.33309,3.00541,-1.86366,-1.02461,-0.0900183,0.0750606,-0.377407
-0.477133,0.676621,-1.32128,3.21811,-2.0592,-1.01442,-0.102998,0.129031,-0.39984
-0.526285,0.742068,-1.30605,3.04914,-1.83376,-1.15231,-0.167699,0.191225,-0.298994
-0.569109,0.803797,-1.2931,2.73272,-1.63058,-1.23896,-0.167822,0.254207,-0.201692
-0.569109,0.803797,-1.2931,2.73272,-1.63058,-1.23896,-0.167822,0.254207,-0.201692
-0.614258,0.861432,-1.27818,2.64709,-1.7665,-1.13241,-0.0472605,0.266726,-0.193117
-0.662578,0.914943,-1.25829,2.34521,-1.42536,-1.12734,-0.0336419,0.295977,-0.171712
-0.690083,0.962788,-1.24902,1.70933,-0.571203,-1.47852,-0.263686,0.290041,-0.106359
-0.684777,1.00422,-1.26202,1.07583,-0.096604,-1.64005,-0.238403,0.353752,-0.0873688
-0.665536,1.03741,-1.28548,0.823867,0.00808179,-1.37176,-0.00957519,0.426202,-0.164789
-0.650162,1.06608,-1.30437,0.924759,-0.171262,-1.17001,-0.00581652,0.415747,-0.24496
-0.64657,1.09697,-1.31729,1.20369,-0.638726,-1.21929,-0.125386,0.356502,-0.268661
-0.657259,1.13427,-1.32556,1.52064,-1.15034,-1.33118,-0.190305,0.309929,-0.292533
-0.677316,1.17451,-1.33079,1.44773,-1.2685,-1.29491,-0.129677,0.283493,-0.188376
-0.694569,1.20957,-1.33825,1.08392,-1.13339,-1.14638,-0.0623071,0.247081,-0.0610702
-0.702978,1.23771,-1.35219,0.826078,-1.08741,-1.04932,-0.0805088,0.17508,-0.0681529
-0.716687,1.26424,-1.36392,1.02579,-1.47928,-0.959859,-0.084696,0.150752,-0.195089
-0.761935,1.29479,-1.35401,1.41079,-2.04479,-0.912935,-0.0735036,0.153832,-0.262719
-0.833041,1.32865,-1.3232,1.46884,-2.02178,-0.965017,-0.126197,0.165772,-0.216794
-0.909886,1.36106,-1.28241,1.31349,-1.67744,-0.918242,-0.0947942,0.183805,-0.124045
-0.993357,1.38866,-1.22917,1.16343,-1.53746,-0.709209,0.000444889,0.164778,-0.0844564
-1.11142,1.41062,-1.14313,1.24601,-1.85467,-0.505286,0.0285138,0.184267,-0.110177
-1.28963,1.4294,-1.00414,1.34462,-2.191,-0.517416,-0.0609564,0.210311,-0.122974
-1.51145,1.44445,-0.824836,1.26049,-2.15189,-0.527977,-0.0934669,0.22497,-0.0757483
-1.75114,1.45221,-0.622731,1.16895,-1.76328,-0.382875,-0.029945,0.239941,-0.118327
-1.9841,1.45122,-0.421498,1.1604,-1.60659,-0.241135,-0.0159518,0.218003,-0.139082
-2.19687,1.44317,-0.240366,1.18338,-1.7359,-0.184316,-0.0502404,0.194137,-0.123777
-2.38219,1.43019,-0.0906945,1.17742,-1.99245,-0.155246,-0.0666776,0.174824,-0.0838293
-2.53742,1.41395,0.0240184,1.15518,-2.12703,-0.158107,-0.0904941,0.150247,-0.0687804
-2.66223,1.39726,0.111187,0.983657,-1.70029,-0.214641,-0.128145,0.140179,-0.0919816
-2.7533,1.38362,0.172932,0.7526,-1.42041,-0.206731,-0.0864838,0.155599,-0.0450031
-2.82509,1.37078,0.215956,0.781972,-1.6007,-0.121306,-0.0188947,0.131278,-0.0756861
-2.89286,1.35535,0.249189,0.883115,-1.90134,-0.129939,-0.0458824,0.119231,-0.0966659
-2.96016,1.33917,0.279493,0.834228,-1.84299,-0.179723,-0.0969607,0.120634,-0.068076
-3.01855,1.32423,0.303186,0.728456,-1.70846,-0.135294,-0.0523663,0.118485,-0.052255
-3.06473,1.31107,0.31623,0.624749,-1.70093,-0.0680049,-0.00594464,0.126113,-0.0334185
-3.10536,1.29964,0.322272,0.522243,-1.78002,-0.0248813,-0.000993147,0.122274,-0.0150186
-3.14072,1.29027,0.322228,0.426643,-1.77738,0.0410508,0.0156237,0.143252,-0.0165936
3.11183,1.28176,0.315729,0.455113,-1.94174,0.108705,0.0240793,0.126534,-0.0473521
3.08247,1.27205,0.305625,0.517186,-1.93672,0.131371,-0.0114244,0.0878766,-0.0908092
3.05608,1.26243,0.294768,0.452562,-1.75083,0.122669,-0.0313551,0.101452,-0.064401
