attitude_roll,attitude_pitch,attitude_yaw,rotationRate_x,rotationRate_y,rotationRate_z,acceleration_x,acceleration_y,acceleration_z
0.050301,0.246978,-0.00624468,-0.227783,0.409368,0.273582,-0.0110802,0.00684945,-0.0321353
0.0523486,0.243149,0.00123251,-0.189327,0.0230705,0.425739,0.0062976,0.0147775,0.0243546
0.0498139,0.240678,0.0103703,-0.0939327,-0.00167331,0.415113,-0.0454284,-0.0213895,-0.0063464
0.0498656,0.239828,0.0180424,-0.0428715,0.175386,0.329766,-0.0930198,-0.0382213,-0.0191779
0.052859,0.238989,0.0243395,-0.0792917,0.254101,0.288511,-0.0878317,-0.0371438,0.0143491
0.055927,0.237226,0.0303775,-0.125434,0.190218,0.29775,-0.0579945,-0.0264216,0.0450284
0.0574191,0.234974,0.0371212,-0.1309,0.131368,0.348307,-0.0400635,-0.0169838,0.0421609
0.0583061,0.232915,0.0448488,-0.120833,0.141069,0.392509,-0.0444468,-0.0176443,0.0272068
0.0591772,0.231029,0.0533288,-0.119352,0.137622,0.417969,-0.0521545,-0.0201356,0.0226917
0.0603291,0.22964,0.0620297,-0.06454,0.205268,0.419209,-0.0620972,-0.0237458,-0.0059132
0.0638173,0.229406,0.0706957,-0.0234565,0.335741,0.43223,-0.0701446,-0.012133,-0.00860369
0.0691253,0.229525,0.0798873,-0.0257379,0.401526,0.469386,-0.0632305,-0.00447951,0.0175611
0.0748601,0.229542,0.0901829,-0.0497405,0.393815,0.534518,-0.0596907,-0.00533278,0.0435532
0.0794519,0.229115,0.101994,-0.0864397,0.344871,0.61272,-0.0623101,-0.0115473,0.0537577
0.083243,0.227923,0.115563,-0.150194,0.337985,0.696866,-0.0826902,-0.0106174,0.0398717
0.0860375,0.225422,0.131044,-0.223273,0.283015,0.788932,-0.0981159,-0.0158312,0.0259498
0.0869145,0.222174,0.148696,-0.244354,0.190309,0.908782,-0.0919499,-0.0229052,-0.0117359
0.0849431,0.219191,0.168902,-0.220947,0.0576706,1.03652,-0.0912949,-0.0151949,-0.0491894
0.0800382,0.216864,0.191419,-0.193792,-0.062122,1.14061,-0.101807,-0.00966974,-0.0810538
0.0723957,0.214923,0.215624,-0.177141,-0.171403,1.20084,-0.118291,-0.00274676,-0.111122
0.0628654,0.213418,0.240374,-0.132661,-0.224091,1.19633,-0.126905,0.00351961,-0.146612
0.0545734,0.212984,0.264601,-0.0444152,-0.0908371,1.17113,-0.133331,0.0103888,-0.174792
0.0496299,0.214169,0.287991,0.0385049,0.0936378,1.13403,-0.113585,0.0251267,-0.15169
0.047297,0.216544,0.311373,0.0845501,0.134848,1.1793,-0.0653554,0.0295377,-0.0680865
0.0438378,0.219875,0.335729,0.143859,0.0403462,1.2033,-0.0596907,0.0325919,0.00657266
0.0381422,0.224275,0.359711,0.195863,-0.0744484,1.15606,-0.0609206,0.028674,0.0580173
0.0310684,0.22893,0.382521,0.175111,-0.116866,1.08254,-0.0453591,0.0164249,0.0998284
0.0232982,0.231831,0.403779,0.0518002,-0.176997,1.01104,-0.0167525,0.0245753,0.137244
0.014642,0.231881,0.424265,-0.0764121,-0.212801,0.993944,0.0300772,0.0297353,0.138186
0.00592402,0.229898,0.44442,-0.1283,-0.189656,0.970595,0.0639035,0.0327639,0.102426
-0.00163416,0.227239,0.464238,-0.141761,-0.104294,0.970746,0.101827,0.0435258,0.0828418
-0.00705461,0.224044,0.484547,-0.176389,0.0183785,1.02063,0.145275,0.0537789,0.0885843
-0.0106903,0.219763,0.505826,-0.242037,0.0659914,1.06766,0.184398,0.0456809,0.113345
-0.0146541,0.213739,0.52809,-0.335646,0.0103924,1.11612,0.214775,0.0360746,0.135556
-0.0202236,0.206032,0.551254,-0.386759,-0.0908195,1.17784,0.262333,0.023334,0.122479
-0.0275525,0.197435,0.575917,-0.416806,-0.13104,1.27041,0.296591,0.0207402,0.0907354
-0.0349699,0.187837,0.602703,-0.471819,-0.0884212,1.41732,0.328827,0.0233588,0.0612471
-0.0422077,0.176558,0.633204,-0.533925,-0.0906054,1.63064,0.378667,0.00729229,0.0284686
-0.0491487,0.164539,0.667635,-0.503968,-0.00942507,1.82346,0.399433,-0.0242825,-0.0511047
-0.0542326,0.152972,0.705721,-0.475648,0.138993,1.98381,0.381606,-0.0416243,-0.113594
-0.0559614,0.140072,0.745637,-0.627667,0.247485,2.02754,0.331111,-0.0766936,-0.141929
-0.0566561,0.123404,0.785391,-0.79682,0.173893,1.9977,0.294675,-0.136736,-0.213131
-0.0608533,0.105652,0.823608,-0.713808,-0.18789,1.9086,0.257559,-0.158811,-0.374116
-0.0725957,0.0922912,0.86075,-0.318498,-0.589247,1.898,0.247257,-0.123813,-0.554425
-0.0879281,0.0895303,0.899295,0.362212,-0.510494,1.96243,0.211441,-0.056448,-0.708277
-0.0969623,0.0993444,0.940186,0.96662,0.0205775,2.00486,0.135121,-0.0104075,-0.713889
-0.0950029,0.11894,0.9826,1.36881,0.630661,2.00194,0.054746,0.0162124,-0.580482
-0.0835649,0.145001,1.02421,1.57657,1.01573,1.86568,-0.0196878,0.026406,-0.364548
-0.0675695,0.174399,1.06239,1.63315,1.17631,1.68392,-0.0632972,0.0453727,-0.151068
-0.0503417,0.204905,1.0967,1.61761,1.17113,1.50944,-0.0907011,0.075575,0.00464964
-0.034937,0.235749,1.12702,1.60007,1.01869,1.32705,-0.107119,0.0991723,0.102606
-0.034937,0.235749,1.12702,1.60007,1.01869,1.32705,-0.107119,0.0991723,0.102606
-0.0237876,0.266537,1.15336,1.5554,0.753621,1.13733,-0.10799,0.122111,0.163299
-0.0174532,0.296479,1.17534,1.48639,0.507228,0.916825,-0.114626,0.144968,0.184344
-0.0139261,0.324559,1.19263,1.33598,0.378898,0.691514,-0.117676,0.172818,0.188148
-0.0112966,0.348627,1.20556,1.08857,0.346932,0.512136,-0.0980867,0.20048,0.179757
-0.00654761,0.367538,1.21511,0.817599,0.472688,0.36835,-0.0908592,0.230809,0.145246
0.00227238,0.381275,1.22152,0.570293,0.642243,0.231638,-0.0987125,0.254093,0.110729
0.0148924,0.390495,1.22509,0.36178,0.752739,0.113191,-0.087959,0.261597,0.0923123
0.0301916,0.396031,1.22673,0.200056,0.844007,0.062148,-0.0659211,0.269976,0.0816485
0.0474358,0.399007,1.22808,0.102423,0.941389,0.0858683,-0.0433269,0.281295,0.07956
0.0662667,0.400603,1.23051,0.0402794,1.03053,0.149578,-0.0355389,0.273397,0.100644
0.0851314,0.400565,1.23443,-0.0845165,0.99789,0.21002,-0.0317279,0.248078,0.163172
0.101956,0.397426,1.23993,-0.278415,0.912523,0.260588,-0.0453697,0.208672,0.214376
0.116534,0.390625,1.24683,-0.468971,0.806852,0.30169,-0.0515274,0.172301,0.230854
0.127869,0.380683,1.25561,-0.60125,0.661401,0.392547,-0.0423728,0.143497,0.226404
0.135505,0.36938,1.26687,-0.658388,0.510769,0.493542,-0.0520957,0.11267,0.198936
0.139224,0.35727,1.28019,-0.712512,0.334534,0.583475,-0.0587837,0.0792558,0.183375
0.139215,0.34439,1.29545,-0.763781,0.197615,0.653395,-0.0717795,0.0423189,0.148606
0.136931,0.330876,1.31179,-0.786656,0.132327,0.687702,-0.0945535,0.00973168,0.0946051
0.133978,0.317091,1.32858,-0.801266,0.0960343,0.706124,-0.111095,-0.0198004,0.0488094
0.129276,0.303239,1.34554,-0.776356,-0.0586748,0.718083,-0.108722,-0.0493633,0.0112755
0.121566,0.290693,1.3624,-0.66795,-0.21368,0.730211,-0.119002,-0.0721481,-0.0568528
0.111217,0.280419,1.37885,-0.546245,-0.348051,0.71051,-0.135675,-0.0834104,-0.110534
0.0995426,0.271831,1.39399,-0.470081,-0.396956,0.64406,-0.150035,-0.120497,-0.147338
0.0887726,0.264216,1.40674,-0.397743,-0.333077,0.493978,-0.178673,-0.149934,-0.182989
0.0809689,0.258044,1.4154,-0.279776,-0.226314,0.284978,-0.195649,-0.164214,-0.210685
0.0763579,0.254209,1.4195,-0.138007,-0.149153,0.0924206,-0.177393,-0.1604,-0.201095
0.0730844,0.252725,1.41999,-0.0216341,-0.17274,-0.0448244,-0.135397,-0.137652,-0.156741
0.0698521,0.253106,1.41818,0.068141,-0.195857,-0.1227,-0.101095,-0.109298,-0.116894
0.0667515,0.254994,1.41477,0.144618,-0.192916,-0.196527,-0.0851291,-0.0870091,-0.0841118
0.0643419,0.258107,1.40966,0.195752,-0.188298,-0.282918,-0.0747103,-0.068998,-0.0458528
0.0622419,0.261678,1.40265,0.197032,-0.205334,-0.36999,-0.0601452,-0.0513569,0.000509501
0.05999,0.264914,1.39409,0.177869,-0.252804,-0.435437,-0.0340892,-0.0320576,0.0343017
0.0570848,0.26779,1.38444,0.165405,-0.292588,-0.479215,-0.00912181,-0.0132002,0.0428042
0.0534851,0.27026,1.37409,0.130045,-0.354126,-0.505375,0.0150856,0.00627029,0.0532964
0.0485467,0.271789,1.36335,0.0756129,-0.430659,-0.524755,0.0419379,0.0137703,0.0488731
0.0425074,0.272236,1.35221,0.0214037,-0.463942,-0.547576,0.059046,0.0198163,0.0163029
0.0364385,0.27162,1.34058,-0.0343877,-0.44724,-0.57484,0.074204,0.0345579,-0.0219515
0.0315196,0.2702,1.32875,-0.0616794,-0.361568,-0.568285,0.094858,0.0483573,-0.063525
0.0282604,0.268766,1.31733,-0.0437806,-0.267154,-0.538727,0.114726,0.0691465,-0.0913395
0.0267008,0.268,1.30691,-0.00487738,-0.170812,-0.465792,0.14021,0.0770133,-0.0960845
0.0266915,0.26831,1.29811,0.0586608,-0.0655139,-0.384536,0.148964,0.08218,-0.0817622
0.027797,0.269723,1.29097,0.0958713,-0.0233258,-0.301262,0.148032,0.0777897,-0.0378551
0.0288298,0.27151,1.28539,0.0934238,-0.023876,-0.241758,0.134507,0.0599341,0.01416
0.0297952,0.273,1.28046,0.0675539,-0.0169266,-0.23695,0.111983,0.0440508,0.0500787
0.030738,0.273886,1.27553,0.0371417,-0.0192317,-0.240419,0.112807,0.0350317,0.0734783
0.0318224,0.274094,1.27055,-0.00716373,-0.0143043,-0.230831,0.121394,0.0257413,0.0872901
0.0323365,0.273049,1.2661,-0.0889572,-0.061764,-0.202587,0.129191,0.0275274,0.104143
0.0314134,0.270114,1.2622,-0.195567,-0.143385,-0.183293,0.131474,0.0174214,0.095757
0.0287739,0.265239,1.25874,-0.269341,-0.197144,-0.165217,0.124748,0.00927117,0.0537571
0.0259364,0.259738,1.25561,-0.261355,-0.157937,-0.152984,0.107108,0.0114049,-0.0222253
0.0244772,0.255019,1.25267,-0.202991,-0.0626076,-0.142419,0.0901932,0.014273,-0.081658
0.0244772,0.255019,1.25267,-0.202991,-0.0626076,-0.142419,0.0901932,0.014273,-0.081658
0.0247233,0.25127,1.24991,-0.175225,0.00797386,-0.135724,0.0795712,0.0161972,-0.0948242
0.0260125,0.247621,1.24716,-0.184986,0.049522,-0.141883,0.0738744,0.00996029,-0.0913766
0.0282423,0.243838,1.24452,-0.181408,0.120175,-0.121077,0.071901,0.0114487,-0.0960696
0.0321181,0.240548,1.2425,-0.135292,0.219416,-0.0854963,0.0607615,0.0174858,-0.0913813
0.0375978,0.238299,1.24112,-0.0845009,0.276705,-0.0589337,0.0502653,0.0157892,-0.0565642
0.0431578,0.236853,1.24008,-0.0636766,0.244453,-0.0498201,0.038764,0.00588502,0.00175464
0.0473845,0.235406,1.23932,-0.0804801,0.160506,-0.0273623,0.0402434,0.000694022,0.0523981
0.0499428,0.233338,1.23916,-0.12704,0.0910145,0.000716858,0.0386197,-0.000844136,0.0788493
0.0508162,0.230081,1.23961,-0.196996,0.00967987,0.0267685,0.0362071,-0.00366367,0.08671
0.0502122,0.225816,1.2406,-0.224313,-0.0422687,0.0468131,0.0341063,-0.00630768,0.0592293
0.0486686,0.221629,1.24195,-0.197913,-0.0897476,0.0695245,0.0285599,-0.00120412,0.0165913
0.0455445,0.218329,1.2441,-0.140607,-0.175763,0.129804,0.030839,0.01239,-0.0160846
0.0406815,0.216288,1.24731,-0.0974123,-0.246349,0.162383,0.00321558,0.0216888,-0.047087
0.034882,0.214083,1.25024,-0.149657,-0.254339,0.111278,-0.0393583,0.0154457,-0.0762488
0.0304096,0.210548,1.25196,-0.205658,-0.152665,0.0485027,-0.066324,0.00405496,-0.132353
0.0287945,0.206777,1.25255,-0.159022,0.010338,0.00663876,-0.0822085,0.0211488,-0.179377
0.0309782,0.20503,1.25284,-0.00550378,0.208443,0.0208338,-0.0866599,0.0426315,-0.19715
0.0363639,0.206809,1.25345,0.184779,0.337365,0.0449643,-0.0988135,0.0484622,-0.155867
0.0433217,0.212018,1.25408,0.319869,0.353613,0.0312121,-0.116542,0.0443413,-0.0484097
0.0499012,0.218737,1.25404,0.335217,0.305685,-0.00546185,-0.119554,0.0327011,0.0659759
0.0554545,0.224346,1.25317,0.209901,0.228208,-0.0486059,-0.112768,0.0284233,0.15792
0.0595754,0.226565,1.25161,0.0212956,0.154014,-0.0990445,-0.112843,0.0140297,0.200513
0.0625825,0.225216,1.24888,-0.136647,0.0775773,-0.174234,-0.112506,-0.00765571,0.195601
0.0639926,0.220991,1.24492,-0.252427,-0.0351363,-0.240171,-0.0932622,-0.0266375,0.167104
0.0632962,0.214926,1.23998,-0.319826,-0.146643,-0.272922,-0.0732731,-0.029706,0.131942
0.0605465,0.207733,1.23516,-0.366711,-0.206192,-0.241738,-0.0538833,-0.0264239,0.076943
0.0579365,0.200157,1.23089,-0.359543,-0.124836,-0.227581,-0.059815,-0.0302413,0.00239301
0.0574854,0.193149,1.22682,-0.314446,-0.000245858,-0.205965,-0.0524943,-0.0424095,-0.0440202
0.0589992,0.187376,1.22357,-0.242821,0.0792102,-0.14138,-0.0305738,-0.0499246,-0.0544761
0.0610556,0.183373,1.22196,-0.142945,0.10399,-0.0412744,-0.0124787,-0.0602524,-0.0538304
0.063514,0.181535,1.22208,-0.0481618,0.130855,0.0378979,-0.016072,-0.0761894,-0.0449353
0.0657039,0.181153,1.22343,-0.0115546,0.103055,0.0877746,-0.0248025,-0.0980804,-0.0136029
0.0671365,0.180797,1.22544,-0.0401869,0.0740181,0.106271,-0.0317365,-0.120326,0.0111629
0.0679811,0.179839,1.22766,-0.0722849,0.0529153,0.106016,-0.0317837,-0.128944,0.00940144
0.0681936,0.178424,1.23011,-0.0853746,0.024844,0.133193,-0.0180324,-0.127041,-0.00606251
0.0681046,0.177137,1.23347,-0.063978,0.0317443,0.187425,-0.0133524,-0.118085,-0.0379186
0.067847,0.176756,1.23786,-0.00143391,0.0145077,0.242023,-0.0104184,-0.115072,-0.0670704
0.0670792,0.177946,1.24318,0.0718084,0.00418832,0.288053,-0.0029821,-0.115717,-0.0845781
0.0652709,0.180222,1.2495,0.105566,-0.0822518,0.352716,-0.00098145,-0.0983241,-0.0782734
0.0617001,0.183654,1.25687,0.198974,-0.11935,0.385842,-0.0283973,-0.079477,-0.100155
0.0591981,0.189709,1.26432,0.367592,0.0378862,0.384299,-0.0353969,-0.0749307,-0.126717
0.0603413,0.199149,1.27196,0.524807,0.204191,0.433788,-0.0209047,-0.0467474,-0.0804325
0.0627376,0.211068,1.28087,0.597679,0.17488,0.509748,-0.00748727,-0.0228871,0.0203787
0.0623001,0.223646,1.29084,0.59007,0.00869163,0.525577,-0.00445002,-0.0352477,0.104216
0.0589275,0.235575,1.30054,0.535622,-0.132129,0.47545,-0.0195012,-0.0443994,0.119023
0.0535965,0.245554,1.30879,0.407623,-0.187662,0.391027,-0.0251999,-0.0509276,0.116223
0.0474145,0.252368,1.31535,0.249585,-0.257528,0.279571,-0.0356109,-0.0318274,0.0776483
0.0410808,0.256509,1.31991,0.155863,-0.261139,0.18522,-0.0280372,-0.018176,0.00699288
0.0355707,0.259377,1.32291,0.134844,-0.199926,0.126358,-0.0228226,0.0205018,-0.0713235
0.0320304,0.262568,1.3253,0.184038,-0.0931294,0.121242,-0.0114418,0.054514,-0.129099
0.0320304,0.262568,1.3253,0.184038,-0.0931294,0.121242,-0.0114418,0.054514,-0.129099
0.0307533,0.267495,1.32783,0.309129,0.0387691,0.142117,-0.00321132,0.0725744,-0.161478
0.0320131,0.275039,1.33073,0.431773,0.15232,0.154844,-0.0119141,0.0855188,-0.141182
0.0349156,0.28432,1.33355,0.480018,0.205365,0.141275,-0.0326982,0.0875421,-0.0746374
0.037998,0.29367,1.33577,0.437037,0.152971,0.103556,-0.0447547,0.0813831,0.00833112
0.0401368,0.301702,1.33707,0.360213,0.103738,0.0509832,-0.0575396,0.0763666,0.0576245
0.0418627,0.307839,1.33718,0.252987,0.0683312,-0.011694,-0.0676082,0.0770634,0.0820536
0.0432842,0.311789,1.3363,0.152512,0.0497407,-0.0523127,-0.062089,0.0749661,0.0872015
0.04456,0.314215,1.33494,0.108486,0.0343329,-0.0670486,-0.0578671,0.0741309,0.0788946
0.045705,0.316186,1.33338,0.0981409,0.0290325,-0.0694272,-0.04672,0.071411,0.0705144
0.0464021,0.317984,1.33191,0.0875703,-0.0103525,-0.0576785,-0.0334246,0.0665132,0.0761492
0.0459364,0.319529,1.33075,0.0721739,-0.0727852,-0.0497205,-0.0300613,0.058672,0.0757624
0.0442406,0.320639,1.32949,0.0438568,-0.127097,-0.0682341,-0.0340223,0.044894,0.0680245
0.0420347,0.320978,1.32781,-0.00534161,-0.135842,-0.0865909,-0.0364887,0.0340312,0.0519557
0.0400947,0.320373,1.32575,-0.0501059,-0.12491,-0.114051,-0.0431865,0.0268196,0.0350708
0.0386914,0.318856,1.32291,-0.0892445,-0.111477,-0.165601,-0.0559275,0.0121039,0.0137339
0.0378953,0.316723,1.31893,-0.1059,-0.0888364,-0.222659,-0.0576692,-0.00100002,-0.00916129
0.0378512,0.314297,1.31378,-0.115453,-0.0768294,-0.273285,-0.0577779,-0.00141403,-0.0164337
0.0382457,0.311732,1.30782,-0.117012,-0.065188,-0.303507,-0.046388,-0.00269479,-0.0139954
0.038775,0.309116,1.30138,-0.124793,-0.0726256,-0.321119,-0.0346543,-0.000867933,-0.00580043
0.0389636,0.306201,1.2947,-0.140992,-0.0909498,-0.333768,-0.0271014,-0.00369126,-0.00117183
0.0391729,0.303223,1.28773,-0.128823,-0.0983103,-0.342148,-0.0256116,-0.00985911,-0.00759566
0.0391286,0.300614,1.28065,-0.107418,-0.112383,-0.338986,-0.0169327,-0.0130367,-0.00712395
0.0388602,0.298197,1.2737,-0.112032,-0.12612,-0.34,-0.0196492,-0.0178943,-0.000465989
0.0380672,0.295706,1.26658,-0.10508,-0.15789,-0.354686,-0.0205217,-0.026746,-0.00720054
0.0366887,0.29366,1.25909,-0.0704841,-0.198672,-0.370176,-0.0137783,-0.0312518,-0.0216637
0.034875,0.292516,1.25151,-0.0173466,-0.194636,-0.360683,-0.00772145,-0.0220468,-0.0376441
0.0333633,0.292291,1.24411,0.0106318,-0.177984,-0.347014,-0.00505627,-0.0127255,-0.0363702
0.0318474,0.292368,1.23701,0.0188654,-0.178652,-0.336138,0.00103398,-0.015368,-0.025313
0.0303517,0.292628,1.22991,0.0274944,-0.178452,-0.348502,-0.007191,-0.0168745,-0.0243971
0.0289488,0.293119,1.22232,0.0376365,-0.182488,-0.382092,-0.0110475,-0.0190433,-0.0208982
0.0278051,0.29364,1.2141,0.028655,-0.168543,-0.402845,-0.00318922,-0.0135706,-0.0139985
0.0270147,0.293799,1.2056,0.0128573,-0.153709,-0.40895,0.00504514,-0.0050261,-0.0113535
0.0267085,0.294009,1.19716,0.0330189,-0.125002,-0.401914,0.0135337,-0.000186771,-0.0196919
0.026597,0.294567,1.18874,0.0422715,-0.132126,-0.406908,0.015903,0.0046044,-0.0122367
0.0266163,0.295119,1.18035,0.0308257,-0.109715,-0.394236,0.0311475,0.00389662,-0.00579047
0.0267367,0.295298,1.17234,0.00310724,-0.118548,-0.37117,0.0371678,0.0143526,0.00861967
0.0265978,0.295115,1.16499,0.00735214,-0.0970019,-0.330026,0.0458442,0.0133231,-0.00707072
0.0269291,0.295386,1.15853,0.0374627,-0.0653006,-0.293243,0.0422946,0.0203111,-0.00941616
0.0272368,0.295871,1.15258,0.0255743,-0.0770036,-0.275395,0.0342832,0.0189748,0.00793636
0.0276478,0.296316,1.14705,0.03474,-0.0437476,-0.255864,0.0345347,0.0109621,0.00617844
0.0283793,0.296779,1.1419,0.0116134,-0.0379382,-0.234379,0.0332136,0.0212013,0.024395
0.0289374,0.296345,1.13747,-0.039221,-0.0324721,-0.192543,0.0413434,0.0162238,0.0372477
0.0297425,0.29535,1.13373,-0.0466485,-0.00482519,-0.173425,0.0379863,0.0108773,0.0275664
0.0304473,0.294113,1.13033,-0.0710947,-0.0304129,-0.149259,0.0371031,0.0134934,0.0358855
0.0302687,0.292307,1.12761,-0.0966342,-0.0798082,-0.11663,0.0449943,0.00346377,0.0295154
0.0290134,0.290493,1.12556,-0.0640243,-0.0843689,-0.0815768,0.0392838,0.0050835,-0.0123476
0.0282863,0.289872,1.1241,-0.00618608,-0.0533909,-0.056967,0.0283022,0.00921804,-0.0401039
0.0280191,0.289939,1.12321,0.00685598,0.00238899,-0.0243946,0.0351046,0.00162286,-0.038819
0.0286847,0.289934,1.12298,-0.014139,0.0307487,0.00244094,0.0272802,0.00428802,-0.0236225
0.0292224,0.289773,1.1232,0.00971866,0.0329526,0.0228676,0.0231475,-0.00454873,-0.0288557
0.0292224,0.289773,1.1232,0.00971866,0.0329526,0.0228676,0.0231475,-0.00454873,-0.0288557
0.0298905,0.290467,1.12384,0.0590055,0.0335606,0.0439118,0.0220709,-0.00153315,-0.0253501
0.030148,0.291683,1.12486,0.0592225,0.0186432,0.060511,0.0123591,-0.00279501,-0.00150567
0.0304257,0.29266,1.12604,0.0392187,0.0405268,0.0592988,0.00679175,-0.01132,0.00586492
0.0310876,0.293235,1.12722,0.0204714,0.0469509,0.0558051,-0.000657203,-0.00904465,0.0147888
0.0317565,0.293558,1.12843,0.011629,0.0430469,0.0626566,0.00384795,-0.0128256,0.0209469
0.031847,0.293726,1.12974,0.00172726,-0.00218605,0.0660573,0.00402231,-0.00689653,0.0263886
0.0311353,0.293828,1.13105,-0.00316279,-0.0348609,0.060096,0.00272045,-0.0110714,0.0140819
0.0301524,0.293938,1.13223,0.00392703,-0.0204503,0.0572835,0.000243789,-0.00734976,-0.00752753
0.0297524,0.29436,1.13344,0.0256568,0.0145749,0.0615262,-0.00239116,-0.0048095,-0.0259032
0.0300947,0.29517,1.13468,0.0433416,0.0501349,0.0595966,-0.00515292,-0.00388202,-0.0313972
0.0311107,0.296287,1.13571,0.0544435,0.0717522,0.0373907,-0.0104021,-0.00823015,-0.0263355
0.0322829,0.297335,1.13624,0.0492666,0.059269,0.0243186,-0.00730133,-0.00631246,-0.0123341
0.0331607,0.298353,1.13668,0.0550272,0.0487734,0.0267597,0.00126912,-0.000640005,-0.0121565
0.0338965,0.299468,1.13732,0.0597935,0.0539692,0.0398262,0.000607859,0.00805506,-0.0128897
0.0349044,0.300747,1.13812,0.0661987,0.0671988,0.0380475,-0.00707057,0.00688097,-0.0127818
0.0357449,0.302151,1.13871,0.0734076,0.0387494,0.0224224,-0.0103145,0.00576541,-0.00663513
0.0360938,0.303559,1.1391,0.0735248,0.0151208,0.016999,-0.00930473,0.00527814,-0.00692934
0.0361667,0.304871,1.13936,0.0657343,0.00562506,0.0107645,-0.0130984,0.0107267,-0.0136572
0.0363356,0.306069,1.13952,0.0647139,0.0246072,0.00924246,-0.0154895,0.0146004,-0.0193942
0.0365795,0.307471,1.13982,0.0911235,0.00750786,0.0247447,-0.0111593,0.0221013,-0.0264632
0.0360174,0.309846,1.14054,0.150138,-0.0389872,0.0477155,-0.0162284,0.0280259,-0.0280802
0.0344078,0.31319,1.14139,0.179441,-0.0844468,0.0395832,-0.0265935,0.0254715,-0.0161569
0.0326321,0.316387,1.14176,0.148775,-0.0621041,-0.000545113,-0.0470896,0.0205623,-0.000808716
0.0320749,0.318736,1.14114,0.112166,-0.00901845,-0.0499445,-0.0579351,0.0224124,0.0110486
0.0325792,0.320613,1.13965,0.107821,0.00170281,-0.0775288,-0.0416862,0.0281611,0.0282965
0.0324294,0.322518,1.13797,0.0978639,-0.0748093,-0.0748903,-0.0230004,0.036316,0.057805
0.0304336,0.323903,1.13636,0.0500242,-0.15924,-0.0829407,-0.0164564,0.0298012,0.0760406
0.0277322,0.324227,1.13433,-0.00625235,-0.160983,-0.114207,-0.0194784,0.0205568,0.0618364
0.0256771,0.323446,1.1315,-0.0581448,-0.118025,-0.154948,-0.0212911,0.0206251,0.0388061
0.0246993,0.321777,1.12805,-0.0946549,-0.0937018,-0.17579,-0.0102913,0.0180961,0.0189728
0.0239761,0.319814,1.12449,-0.08794,-0.0954491,-0.16877,0.00678293,0.0109847,0.00105339
0.0228173,0.318231,1.12116,-0.061387,-0.131196,-0.149726,0.0103127,0.0116175,-0.0115927
0.0206236,0.317262,1.11815,-0.0262535,-0.17786,-0.144946,0.00663692,0.00120619,-0.0273886
0.0180163,0.317165,1.11478,0.0230706,-0.174446,-0.197083,-0.0372278,-0.0236205,-0.0604374
0.0177422,0.318216,1.1083,0.0942164,-0.0298703,-0.437328,-0.148839,-0.0872132,-0.113465
0.021596,0.320129,1.09647,0.0833955,0.00363815,-0.677092,-0.117604,-0.105736,-0.0696422
0.0263091,0.320098,1.08048,-0.0533104,-0.0213006,-0.834552,-0.0958926,-0.118324,-0.0230477
0.0312817,0.317431,1.062,-0.144776,-0.0776414,-0.924034,-0.0846304,-0.117011,-0.0242557
0.0344816,0.314217,1.04185,-0.0932352,-0.249276,-1.01051,-0.085338,-0.115732,-0.0485197
0.0348604,0.312901,1.01986,0.0304106,-0.384072,-1.09423,-0.0924261,-0.114314,-0.0639803
0.0335084,0.313799,0.996392,0.142061,-0.445506,-1.12949,-0.0698452,-0.0960494,-0.0710643
0.0330972,0.317408,0.9731,0.29422,-0.290973,-1.06429,-0.029897,-0.0421734,-0.10072
0.0364294,0.323934,0.95196,0.422643,-0.0541711,-0.919093,-0.00559637,0.0254668,-0.0930589
0.0419935,0.332059,0.933652,0.445127,-0.0127955,-0.785115,0.0292057,0.0444658,-0.0150703
0.0457011,0.340114,0.918199,0.425227,-0.131974,-0.638125,0.0638044,0.0557169,0.0538081
0.0455718,0.347705,0.905405,0.381036,-0.294012,-0.546031,0.0711686,0.0840727,0.083392
0.0429313,0.35416,0.893928,0.317398,-0.369701,-0.509344,0.0367871,0.0778516,0.0741435
0.0382018,0.359926,0.882871,0.319706,-0.492487,-0.503147,0.0356659,0.0843062,0.0559219
0.0315835,0.36641,0.872158,0.357901,-0.526867,-0.472932,0.062208,0.0893908,0.0264615
0.0254894,0.373132,0.86242,0.326532,-0.397311,-0.421048,0.0545142,0.114472,0.0165659
0.0232853,0.378138,0.85364,0.175956,-0.141787,-0.38567,0.0537707,0.106419,0.0338839
0.0232853,0.378138,0.85364,0.175956,-0.141787,-0.38567,0.0537707,0.106419,0.0338839
0.0250433,0.379386,0.845933,-0.0254517,0.0213242,-0.318398,0.0657597,0.0986976,0.0578583
0.0281754,0.377572,0.840062,-0.119249,0.0427886,-0.23709,0.0642821,0.101606,0.0553073
0.0300262,0.375282,0.835475,-0.0813665,-0.0358399,-0.206004,0.0522069,0.0816995,0.0308149
0.0301712,0.374302,0.831137,-0.00977809,-0.10339,-0.203344,0.0422956,0.0676643,0.0132253
0.0291634,0.374058,0.826943,-0.0221245,-0.144455,-0.17756,0.0497919,0.0675439,0.0263733
0.0275464,0.372678,0.823753,-0.111539,-0.117049,-0.120655,0.0639169,0.065756,0.0452753
0.0260487,0.369557,0.821787,-0.185055,-0.0959169,-0.0818174,0.0508012,0.0550805,0.0379145
0.0247149,0.36571,0.820658,-0.186255,-0.0981283,-0.0331884,0.0468072,0.0433879,0.0158451
0.0224709,0.362464,0.82055,-0.134344,-0.128452,0.0116545,0.0451988,0.0345265,0.000326276
0.0190731,0.360285,0.821223,-0.0907193,-0.187947,0.0459044,0.0264489,0.025728,0.00223088
0.0147499,0.358504,0.822245,-0.0890543,-0.204596,0.0441805,0.00132509,0.00359896,0.00872386
0.0107515,0.356312,0.822943,-0.133838,-0.176874,0.0221892,-0.00433866,-0.00965416,0.0145738
0.00749713,0.353039,0.823378,-0.18625,-0.14495,0.0194052,-0.00601229,-0.0139439,0.0188357
0.00502027,0.349101,0.823754,-0.195631,-0.0978283,0.0131099,-0.0216089,-0.0164218,0.00299281
0.00325529,0.345472,0.824037,-0.169558,-0.0739761,0.017679,-0.0152394,-0.0201089,-0.00739235
0.00152262,0.342396,0.824637,-0.151158,-0.0809064,0.0368618,-0.00280748,-0.0179838,-0.00226218
-0.000186505,0.339641,0.825552,-0.143262,-0.0606168,0.0483289,-0.00873523,-0.0181389,-0.00364375
-0.00165777,0.33691,0.826671,-0.150189,-0.0355835,0.057476,-0.00377595,-0.0216312,0.000206411
-0.00278493,0.334017,0.82795,-0.153791,-0.0304365,0.0613049,-0.00451006,-0.0204712,-0.00729716
-0.00405712,0.331277,0.829255,-0.131179,-0.0501765,0.0580052,-0.0116511,-0.0211691,-0.0200021
-0.00515752,0.329185,0.830241,-0.0954339,-0.032953,0.0339721,-0.0243247,-0.0303504,-0.0401415
-0.00587022,0.32742,0.830847,-0.0911413,-0.0205512,0.0290977,-0.0250813,-0.0284048,-0.0417581
-0.00638387,0.325805,0.831459,-0.0732764,-0.00531256,0.0304501,-0.0273534,-0.0246246,-0.0452558
-0.00649208,0.32476,0.832021,-0.0310604,0.0143663,0.0216976,-0.039471,-0.0222115,-0.0505838
-0.00615237,0.324564,0.832473,0.00707431,0.0387593,0.0214668,-0.0481239,-0.0165538,-0.0433169
-0.00545091,0.325011,0.832798,0.0321486,0.0476131,0.00797641,-0.0560527,-0.0116441,-0.0232225
-0.0043738,0.325768,0.832754,0.040675,0.0551287,-0.0164663,-0.0567083,-0.010316,0.00559312
-0.00333362,0.326499,0.832108,0.0286036,0.0260313,-0.0445947,-0.0490275,-0.000971884,0.0393136
-0.00290749,0.326858,0.830958,0.00233683,-0.0108488,-0.0678604,-0.0311209,0.0116821,0.0706784
-0.0033447,0.326278,0.829399,-0.0708761,-0.0831276,-0.0763024,-0.00151616,0.02189,0.100999
-0.00519263,0.323696,0.827903,-0.192204,-0.139151,-0.0549032,0.038355,0.0302002,0.114573
-0.00799439,0.318828,0.827201,-0.284773,-0.154688,-0.00773973,0.0675585,0.0356679,0.0915255
-0.0109682,0.31297,0.82748,-0.295518,-0.13371,0.0440236,0.0893689,0.0368284,0.0415914
-0.0142163,0.30712,0.828891,-0.297655,-0.138433,0.0964034,0.109178,0.0358963,0.00915736
-0.0165649,0.300545,0.831107,-0.381225,-0.0231119,0.125706,0.117171,0.0218405,-0.0254856
-0.0169227,0.291625,0.834098,-0.489119,0.0579753,0.187323,0.112674,0.022861,-0.0624094
-0.0163073,0.282219,0.83843,-0.415382,0.121234,0.232864,0.103842,0.0169523,-0.144455
-0.0150442,0.27611,0.843466,-0.171282,0.145471,0.264045,0.0853052,0.0179159,-0.206733
-0.0137625,0.275443,0.849614,0.106202,0.142487,0.33926,0.0932757,0.0253759,-0.207144
-0.0129564,0.279352,0.857495,0.270641,0.168648,0.415975,0.0916164,0.0340036,-0.160657
-0.0111813,0.285086,0.866874,0.296047,0.276519,0.478485,0.0631133,0.0341083,-0.104006
-0.0075519,0.29057,0.877212,0.262726,0.366601,0.504058,0.0267818,0.0206143,-0.0511935
-0.00274991,0.295544,0.887669,0.24279,0.404406,0.494384,-0.000390507,0.00636315,-0.011423
0.00198445,0.300246,0.897633,0.233096,0.362203,0.459475,-0.028568,0.0040834,0.0143897
0.0060547,0.304813,0.906866,0.21787,0.31218,0.423791,-0.0466691,0.0011647,0.0321785
0.00905541,0.309023,0.915062,0.19807,0.241066,0.364489,-0.061147,-0.00257337,0.0435345
0.0110997,0.312586,0.922159,0.152008,0.17805,0.32007,-0.0661189,-0.00613895,0.050848
0.0123198,0.315288,0.928375,0.117323,0.151299,0.274005,-0.07261,-0.00613299,0.0438815
0.0136525,0.317408,0.933489,0.0880545,0.134622,0.217041,-0.0822297,-0.00375152,0.035576
0.0149539,0.318966,0.937282,0.0655118,0.117153,0.144543,-0.0937279,-0.00604129,0.0293186
0.0160832,0.320052,0.939543,0.0447259,0.0715534,0.0704324,-0.096412,-0.00804681,0.024719
0.0170716,0.320722,0.94027,0.0186728,0.0533667,0.00246874,-0.095134,-0.00448063,0.0166645
0.0181958,0.320778,0.939718,-0.0049271,0.0482172,-0.0497392,-0.0922483,-0.000216037,0.00457358
0.0195001,0.32083,0.938383,0.0125234,0.0555951,-0.0851114,-0.0879009,0.00692853,-0.00987041
0.02093,0.321385,0.936469,0.0410441,0.0636468,-0.107142,-0.0806784,0.012704,-0.00853175
0.0223947,0.322513,0.93429,0.0661021,0.0630295,-0.114327,-0.0700968,0.0152086,0.00615698
0.023443,0.32393,0.932151,0.0748095,0.021418,-0.104847,-0.0586749,0.0161098,0.0352557
0.0234463,0.32511,0.930018,0.0457706,-0.0499408,-0.112454,-0.0504906,0.0102705,0.0630166
0.0224265,0.325349,0.927476,-0.0104872,-0.0997749,-0.138794,-0.0474475,0.00678885,0.0714921
0.02105,0.324652,0.924366,-0.0443705,-0.124738,-0.159551,-0.0355586,0.00530413,0.0574762
0.0196085,0.323671,0.921099,-0.0365708,-0.1149,-0.143542,-0.00889969,0.00831121,0.0419166
0.0182348,0.323313,0.91845,-0.00101975,-0.105093,-0.108697,0.00793376,0.0141665,0.041109
0.0162192,0.323407,0.916585,0.00425575,-0.165214,-0.0645808,0.0355104,0.00429216,0.056447
0.012638,0.323183,0.915596,-0.0300828,-0.213233,-0.0405547,0.0375772,-0.00719669,0.0601836
0.00841661,0.32196,0.914676,-0.0992368,-0.237327,-0.0521467,0.0313684,-0.019221,0.0531214
0.00421984,0.319239,0.91334,-0.173881,-0.218754,-0.0773947,0.0347813,-0.0343005,0.0279878
0.000993822,0.315193,0.911432,-0.229886,-0.164927,-0.107081,0.0309308,-0.0412415,-0.00621903
-0.000949541,0.31054,0.908786,-0.233649,-0.12222,-0.137337,0.0318795,-0.0463103,-0.0436813
-0.00213997,0.306392,0.905839,-0.184621,-0.0999757,-0.133681,0.050075,-0.0414427,-0.0693555
-0.00296178,0.303468,0.903318,-0.114759,-0.0564373,-0.101459,0.0610388,-0.0315061,-0.0840283
-0.00281378,0.301873,0.901624,-0.0575,0.0087387,-0.061875,0.0661784,-0.0261616,-0.0807908
-0.00208513,0.301107,0.900644,-0.0233714,0.0323257,-0.0295013,0.0713121,-0.0301744,-0.0628002
-0.000968243,0.30095,0.900426,0.00688771,0.0616877,0.00571471,0.0678956,-0.0317432,-0.0489887
-3.05102e-06,0.301498,0.900866,0.047995,0.0559486,0.0348322,0.0605651,-0.0291599,-0.0342582
0.000948369,0.302829,0.901876,0.0781188,0.0590142,0.0636806,0.0537976,-0.026241,-0.0212271
0.00142421,0.304323,0.903392,0.0724223,0.0369808,0.0803162,0.0484765,-0.0232592,0.00130552
0.00142421,0.304323,0.903392,0.0724223,0.0369808,0.0803162,0.0484765,-0.0232592,0.00130552
0.00189164,0.305748,0.905278,0.0684746,0.0602693,0.102473,0.0434385,-0.0200081,0.00409657
0.00228756,0.307136,0.907643,0.0742551,0.0428439,0.123627,0.0277268,-0.00722539,0.0114285
0.00245366,0.308862,0.910263,0.0957252,0.0415433,0.128318,0.0252809,-0.0123857,0.0086922
0.00234366,0.310769,0.912953,0.0842888,0.0170244,0.130624,0.0189479,-0.00652629,0.0200894
0.00206699,0.312043,0.915454,0.0352419,0.0116019,0.120511,0.015672,-0.00635055,0.0233005
0.00183048,0.312385,0.917794,0.00176334,0.0225801,0.107895,0.00947338,-0.00485072,0.00294763
0.00198478,0.312472,0.920003,0.00608482,0.0445999,0.107436,0.00513043,0.00255701,-0.0242403
0.0025737,0.312884,0.922112,0.031641,0.0639928,0.0935362,-0.00356258,0.00824344,-0.0406646
0.00346263,0.313817,0.923948,0.0535425,0.0751273,0.0934644,0.00630431,0.0142732,-0.0378267
0.00443728,0.315105,0.926213,0.0711182,0.0932647,0.12564,0.014336,0.0355936,-0.0242973
0.0054686,0.316572,0.929207,0.0745054,0.0909885,0.162053,0.0260075,0.04651,7.03335e-06
0.0052679,0.317762,0.933095,0.0473811,-0.00484591,0.206852,0.0409859,0.0477318,0.0313295
0.00257802,0.318259,0.937872,0.0160738,-0.104835,0.251361,0.0457693,0.0588391,0.0378676
-0.00125542,0.318482,0.943617,0.0180704,-0.0721221,0.294047,0.050997,0.0614471,0.0186655
-0.00377555,0.318649,0.950155,0.00630344,0.0110424,0.336131,0.0565946,0.0710813,0.0199652
-0.00509027,0.318268,0.95788,-0.0361764,0.0735746,0.402056,0.0771766,0.0696059,0.0440351
-0.00628535,0.316839,0.967038,-0.0981769,0.0911782,0.471331,0.0968233,0.0643108,0.0623279
-0.00796758,0.314371,0.977587,-0.138619,0.0620684,0.528692,0.0995876,0.0579365,0.0650509
-0.0106033,0.311281,0.989084,-0.158411,0.0286165,0.569867,0.10543,0.0490916,0.0537409
-0.0138349,0.307777,1.00139,-0.179269,0.0302881,0.609779,0.112443,0.0487908,0.0427465
-0.0167216,0.303681,1.0146,-0.212523,0.0707906,0.66486,0.123515,0.0451134,0.0328746
-0.0193815,0.298863,1.02902,-0.24693,0.0982957,0.723004,0.13487,0.0448155,0.0259116
-0.0220487,0.29315,1.04471,-0.301268,0.0574893,0.790952,0.135288,0.0418842,0.0145549
-0.0266653,0.286311,1.06173,-0.335194,-0.0292087,0.857842,0.133197,0.0237183,-0.00847143
-0.0323113,0.279481,1.07977,-0.289002,-0.0382945,0.884904,0.093537,0.0200278,-0.0745354
-0.0374749,0.273794,1.09775,-0.22004,0.0226347,0.877469,0.0619191,0.0192265,-0.114203
-0.0405677,0.269142,1.11598,-0.178209,0.158907,0.906219,0.0595434,0.0242966,-0.125356
-0.0411359,0.265247,1.13507,-0.133522,0.285189,0.957558,0.0552044,0.0327475,-0.108527
-0.0399402,0.262387,1.15528,-0.0770596,0.34746,1.00423,0.0484812,0.0235924,-0.0644155
-0.0384134,0.26047,1.17624,-0.0415269,0.338466,1.02851,0.0360405,0.0074276,-0.00858003
-0.0373261,0.259034,1.19759,-0.0309081,0.321923,1.0384,0.0194405,-0.00380221,0.036323
-0.0367363,0.257414,1.21875,-0.0647772,0.272014,1.01208,0.00255903,-0.0221524,0.0706623
-0.0370638,0.254728,1.2389,-0.132034,0.207738,0.952057,-0.00776518,-0.0415051,0.0851397
-0.0382666,0.250751,1.2578,-0.19072,0.15384,0.897259,-0.0125149,-0.0549991,0.0729365
-0.0390699,0.24619,1.27538,-0.19546,0.225724,0.825973,-0.0262199,-0.0674008,0.0281746
-0.037702,0.241537,1.2918,-0.2113,0.301907,0.794523,-0.0213386,-0.0567032,0.00995433
-0.0346682,0.236997,1.30737,-0.184562,0.348546,0.726249,-0.0455769,-0.070193,-0.0114315
-0.0315264,0.233197,1.32114,-0.154203,0.284924,0.633681,-0.0444357,-0.0833332,-0.0109341
-0.0291462,0.229756,1.3334,-0.165894,0.236536,0.58266,-0.0260213,-0.0748724,-0.00384915
-0.0271564,0.225857,1.34492,-0.189657,0.224202,0.55975,-0.00652595,-0.0658685,-0.0163879
-0.0253365,0.22172,1.35642,-0.190972,0.212493,0.579709,0.0197088,-0.0545828,-0.0394561
-0.0237861,0.217806,1.3686,-0.167212,0.203863,0.624233,0.0284557,-0.0460423,-0.0666575
-0.022842,0.214547,1.38156,-0.127877,0.167143,0.649883,0.0339284,-0.0502789,-0.0889931
-0.0227719,0.212158,1.39509,-0.0813614,0.129228,0.683412,0.0395782,-0.0527055,-0.114822
-0.0235587,0.210778,1.40957,-0.0132663,0.0955714,0.741087,0.0435889,-0.0412064,-0.144748
-0.0248926,0.211351,1.42551,0.12016,0.129085,0.818121,0.0400376,-0.0291411,-0.18529
-0.0247809,0.214894,1.44293,0.273823,0.260881,0.881759,0.0215687,-0.0131967,-0.200394
-0.0220615,0.221167,1.46181,0.389866,0.425509,0.951314,0.0071029,-0.00687373,-0.162108
-0.0167467,0.229257,1.48177,0.451497,0.536579,0.976756,-0.0153999,-0.00875349,-0.0797374
-0.0104466,0.238283,1.50198,0.475641,0.548977,0.978449,-0.0248676,-0.0144998,0.0179411
-0.00483927,0.247458,1.52214,0.451864,0.494936,0.972429,-0.0341875,-0.0132991,0.101012
-0.000586343,0.255587,1.54201,0.375675,0.453178,0.959614,-0.0319338,-0.0153144,0.155625
0.0028374,0.262408,1.56152,0.292883,0.386366,0.921685,-0.0304807,-0.0151593,0.171315
0.0028374,0.262408,1.56152,0.292883,0.386366,0.921685,-0.0304807,-0.0151593,0.171315
0.00471253,0.267396,1.5802,0.194092,0.313041,0.885948,-0.0254495,-0.0270844,0.174428
0.0049698,0.270378,1.59804,0.105293,0.199561,0.837944,-0.0250528,-0.0197693,0.160039
0.00375954,0.272075,1.61481,0.0613965,0.130549,0.78508,-0.0179034,-0.0191878,0.121931
0.00138193,0.273236,1.63087,0.0551264,0.0730757,0.772634,-0.00172731,-0.00902116,0.0849569
-0.00166425,0.274334,1.64689,0.0542861,0.0524984,0.774768,0.00283805,-0.00272959,0.0511054
-0.00523019,0.275193,1.66266,0.0335073,0.0227388,0.739235,-0.011385,-0.00709134,0.0260193
-0.00898231,0.275355,1.67725,-0.00394997,0.000404392,0.664564,-0.019417,-0.0280073,-0.00172997
-0.0120991,0.275001,1.6901,-0.0101699,0.0589814,0.577929,-0.0212232,-0.0388616,-0.0438253
-0.0131418,0.274951,1.70152,0.0277821,0.141889,0.533281,-0.00866863,-0.0300288,-0.0665296
-0.012586,0.27583,1.71251,0.0717259,0.210147,0.527425,0.00672368,-0.024697,-0.0564772
-0.0110482,0.27748,1.72326,0.106865,0.227945,0.501531,-0.00774609,-0.0301751,-0.0257366
-0.00919219,0.280124,1.73293,0.166862,0.228542,0.422163,-0.0258952,-0.0463092,0.00571924
-0.00744667,0.283759,1.74103,0.196241,0.171361,0.362014,-0.0133589,-0.0482657,0.0493235
-0.00717141,0.287881,1.74839,0.220445,0.0633352,0.339914,0.00617442,-0.0597374,0.0835942
-0.00877514,0.292569,1.75503,0.24904,-0.0103177,0.284009,4.04045e-05,-0.0631185,0.0888473
-0.0105984,0.297179,1.75977,0.204677,-0.0156097,0.166424,-0.00835991,-0.0635601,0.108029
-0.0103063,0.300241,1.76229,0.0856366,0.107895,0.0709791,0.00946373,-0.0639599,0.121703
-0.00693054,0.300161,1.76295,-0.100049,0.266026,0.00803171,0.0355819,-0.0534315,0.143025
-0.00086498,0.296234,1.76301,-0.283044,0.312019,0.015019,0.0599094,-0.0361279,0.149756
0.00431005,0.29016,1.76391,-0.299263,0.210923,0.069237,0.0786034,-0.0469937,0.107969
0.006253,0.285301,1.76552,-0.183346,0.0352017,0.0797588,0.0866207,-0.0501879,0.0553223
0.00579861,0.282708,1.76722,-0.0921365,-0.0080063,0.0865416,0.0884563,-0.0547528,0.0172791
0.00553884,0.280936,1.76954,-0.10032,0.0517211,0.140998,0.106159,-0.0531439,0.00564259
0.00655435,0.278565,1.77299,-0.146046,0.152342,0.186022,0.11554,-0.0576192,-0.00854045
0.00959957,0.275275,1.77717,-0.184886,0.263334,0.217109,0.111657,-0.0623863,-0.032811
0.0142913,0.271943,1.782,-0.144911,0.316599,0.245814,0.117796,-0.0624968,-0.0621924
0.0200078,0.270026,1.78761,-0.06915,0.420398,0.289871,0.138723,-0.063001,-0.0836702
0.0281501,0.268408,1.79407,-0.143236,0.565621,0.325889,0.14762,-0.0638283,-0.0519806
0.0370674,0.263658,1.80147,-0.361479,0.47784,0.372999,0.171238,-0.0792908,-0.0153531
0.0417999,0.255688,1.80985,-0.423725,0.171155,0.408619,0.15589,-0.0742224,-0.0612638
0.0395753,0.249521,1.8191,-0.197956,-0.134126,0.461041,0.13378,-0.057458,-0.170705
0.0347847,0.249186,1.82879,0.114472,-0.0529251,0.479082,0.0998262,-0.0283486,-0.239786
0.0336069,0.253977,1.83918,0.30824,0.198877,0.554034,0.10119,0.00345254,-0.184542
0.0369531,0.261286,1.85102,0.359563,0.413961,0.614496,0.105758,0.0252145,-0.0378205
0.0433668,0.268595,1.86367,0.309895,0.583856,0.63708,0.110972,0.032986,0.112423
0.0520965,0.273998,1.87674,0.160318,0.620145,0.657926,0.108973,0.0486279,0.235408
0.0596769,0.276657,1.89087,0.0411861,0.509544,0.718462,0.149536,0.0523623,0.296382
0.0639784,0.277708,1.90605,-0.0199859,0.338889,0.747003,0.172981,0.0500158,0.289812
0.0645721,0.277562,1.92202,-0.11104,0.158171,0.794536,0.223831,0.0574284,0.267446
0.0615539,0.274607,1.93908,-0.307072,-0.00198996,0.826221,0.269769,0.05306,0.235947
0.0558603,0.267165,1.95729,-0.531022,-0.0610264,0.899046,0.30702,0.0776426,0.130255
0.0481305,0.256457,1.97787,-0.622188,-0.212431,1.04721,0.344987,0.114312,-0.0437589
0.0344122,0.245069,2.00138,-0.595614,-0.598712,1.17025,0.330453,0.132928,-0.224896
0.0145483,0.235685,2.02587,-0.379885,-0.73825,1.17326,0.294143,0.115834,-0.444695
-0.00251497,0.231555,2.04951,-0.0435056,-0.34296,1.13876,0.262519,0.130584,-0.614995
-0.0067651,0.233912,2.07365,0.282571,0.504118,1.24833,0.255864,0.182636,-0.636691
0.00350332,0.24176,2.10191,0.489989,1.09421,1.50251,0.243211,0.241746,-0.477437
0.0188256,0.253209,2.1343,0.619288,1.20257,1.63531,0.203227,0.197548,-0.247314
0.0336907,0.26689,2.16754,0.650363,1.12661,1.59716,0.103525,0.147018,-0.0928821
0.0460062,0.281171,2.19918,0.668859,0.962146,1.50194,0.0130213,0.106781,0.00451446
0.0557636,0.296671,2.22763,0.741467,0.845117,1.29217,-0.0652018,0.0647837,0.0406135
0.0650076,0.313077,2.25091,0.757634,0.803338,1.02696,-0.131674,0.0442543,0.0831853
0.0762032,0.328954,2.26834,0.699556,0.835209,0.726756,-0.188502,0.0135902,0.123505
0.0890194,0.342499,2.2779,0.573578,0.765568,0.251257,-0.275602,-0.0046581,0.15967
0.0890194,0.342499,2.2779,0.573578,0.765568,0.251257,-0.275602,-0.0046581,0.15967
0.103761,0.352063,2.27565,0.394545,0.625611,-0.375458,-0.329583,-0.0208721,0.178717
0.119954,0.356547,2.26102,0.215824,0.495515,-0.898076,-0.287357,-0.0031932,0.173568
0.136486,0.357264,2.23943,0.142553,0.438428,-1.04417,-0.179748,0.0864675,0.115492
0.15381,0.358091,2.21771,0.267154,0.548659,-0.952527,-0.148155,0.161812,5.02467e-05
0.17305,0.36273,2.19723,0.514881,0.637065,-0.885318,-0.184818,0.165924,-0.0767128
0.192618,0.371371,2.17577,0.66365,0.526457,-0.940457,-0.217275,0.134713,-0.0520007
0.209567,0.379682,2.15283,0.525853,0.279105,-1.0031,-0.244322,0.128377,0.0336601
0.218892,0.380782,2.12847,0.0189894,-0.286624,-1.18041,-0.27412,0.19849,0.0890984
0.213883,0.36967,2.10665,-0.668924,-1.0143,-0.949357,-0.134609,0.255138,0.0849212
0.192728,0.349132,2.09771,-1.11697,-1.39162,-0.276314,-0.037388,0.298381,-0.0947412
0.163155,0.3273,2.10199,-1.01015,-1.34506,0.234505,-0.119553,0.224792,-0.348285
0.138448,0.313277,2.1109,-0.489078,-0.831928,0.322808,-0.271349,0.0908772,-0.539952
0.125508,0.308661,2.11615,-0.0816604,-0.336098,0.0862479,-0.382676,0.0113329,-0.479924
0.122017,0.308517,2.11465,0.051631,-0.104492,-0.220491,-0.392518,-0.0129132,-0.281746
0.122471,0.308758,2.10777,0.0468424,-0.0847376,-0.405343,-0.322504,-0.0072664,-0.109829
0.122808,0.308662,2.09803,0.0749768,-0.184842,-0.508859,-0.297603,0.038388,-0.0227115
0.121678,0.310233,2.08634,0.24615,-0.28338,-0.587315,-0.303969,0.0693487,0.0049448
0.119438,0.315909,2.07197,0.477822,-0.384413,-0.719323,-0.316779,0.0836912,0.0478991
0.116621,0.324732,2.05391,0.574609,-0.462518,-0.882852,-0.320358,0.0868926,0.126464
0.11391,0.333416,2.03231,0.511669,-0.504806,-1.05568,-0.318738,0.0949579,0.194452
0.112759,0.33959,2.00685,0.358,-0.4703,-1.2802,-0.310227,0.102983,0.222563
0.11337,0.341244,1.97681,0.120543,-0.484195,-1.51381,-0.266562,0.112873,0.243251
0.11449,0.337664,1.94319,-0.101258,-0.536501,-1.66675,-0.18065,0.14386,0.231604
0.114444,0.330378,1.90825,-0.239893,-0.618604,-1.68836,-0.0983295,0.175063,0.174092
0.111518,0.320289,1.87468,-0.419832,-0.725767,-1.58043,-0.00890222,0.195441,0.126858
0.106343,0.306348,1.84488,-0.665024,-0.720955,-1.39063,0.0523945,0.178151,0.0558738
0.098893,0.288177,1.81995,-0.889785,-0.776598,-1.17436,0.0662739,0.152338,-0.0615764
0.087959,0.267939,1.79938,-0.884107,-0.873702,-0.999373,0.0282039,0.106664,-0.242
0.0749831,0.252549,1.78103,-0.446321,-0.881889,-0.917245,-0.027111,0.0462143,-0.457034
0.0635819,0.248862,1.76261,0.199225,-0.671855,-0.896047,-0.0633211,0.0254458,-0.558797
0.0593074,0.256613,1.74402,0.623557,-0.201028,-0.85832,-0.0884443,0.037711,-0.479682
0.0636452,0.268858,1.72566,0.673167,0.105859,-0.85215,-0.110725,0.0406703,-0.245625
0.0721914,0.280622,1.70652,0.624257,0.20083,-0.925646,-0.135637,0.0165623,-0.0622951
0.0815342,0.290984,1.68516,0.58053,0.116965,-1.04608,-0.171541,0.0184774,0.044181
0.0892516,0.300618,1.66112,0.579516,-0.0678623,-1.17039,-0.177818,0.031157,0.104947
0.0934746,0.309636,1.63448,0.544343,-0.305078,-1.28408,-0.164934,0.0490049,0.149703
0.0941714,0.316854,1.60606,0.415592,-0.47977,-1.34105,-0.131496,0.0683845,0.184169
0.0931391,0.320832,1.57721,0.240829,-0.511103,-1.35045,-0.11693,0.102862,0.176321
0.0922407,0.321557,1.5488,0.0893952,-0.484415,-1.33376,-0.102083,0.126392,0.142404
0.0913578,0.319863,1.52099,-0.00882114,-0.495087,-1.31801,-0.0974371,0.135771,0.105217
0.0892964,0.316846,1.49394,-0.048788,-0.559172,-1.27828,-0.0876989,0.13193,0.0662946
0.0859925,0.313731,1.46768,-0.0353468,-0.580569,-1.25011,-0.0953509,0.128892,0.0153468
0.0824815,0.311224,1.44179,-0.00348331,-0.561322,-1.23901,-0.106186,0.111629,-0.0221174
0.0793363,0.309305,1.41601,0.0056704,-0.545493,-1.22937,-0.106773,0.0905298,-0.03536
0.075657,0.307581,1.39074,0.0177266,-0.593925,-1.19478,-0.112275,0.0739182,-0.0550593
0.0706742,0.30673,1.36567,0.084565,-0.644888,-1.22459,-0.157819,0.0464193,-0.0977141
0.0658843,0.307722,1.33898,0.184892,-0.619552,-1.33843,-0.214416,0.0197923,-0.145416
0.0635386,0.310362,1.30903,0.259413,-0.523349,-1.51413,-0.263267,0.00567484,-0.165345
0.0648607,0.314106,1.27497,0.321347,-0.394174,-1.7086,-0.293547,0.0135867,-0.168175
0.0699122,0.318454,1.23679,0.348431,-0.296252,-1.89615,-0.296735,0.0341072,-0.146105
0.0778321,0.322271,1.19466,0.321491,-0.260242,-2.07592,-0.292852,0.0584662,-0.113313
0.0861538,0.324956,1.14878,0.318247,-0.392777,-2.2458,-0.282166,0.0870288,-0.100406
0.0914087,0.328279,1.09977,0.45007,-0.6587,-2.35007,-0.248989,0.136364,-0.125957
0.0927112,0.334776,1.04888,0.633133,-0.839401,-2.39787,-0.205557,0.195211,-0.147265
0.0927112,0.334776,1.04888,0.633133,-0.839401,-2.39787,-0.205557,0.195211,-0.147265
0.093484,0.343507,0.99682,0.664232,-0.795531,-2.41495,-0.167438,0.238556,-0.116533
0.0963476,0.351157,0.944807,0.557203,-0.704808,-2.3936,-0.137829,0.271704,-0.0509142
0.100494,0.356634,0.893232,0.472703,-0.696777,-2.38395,-0.112689,0.272706,-0.0125969
0.10396,0.360892,0.841956,0.457282,-0.761614,-2.3607,-0.0979428,0.272115,-0.00243717
0.105234,0.365189,0.79139,0.468581,-0.904973,-2.30619,-0.0596152,0.279444,0.00965381
0.104325,0.369828,0.742034,0.469831,-0.953616,-2.24394,-0.0316048,0.27625,0.0115028
0.102858,0.374032,0.693871,0.402066,-0.937226,-2.19504,-0.00986948,0.264709,0.0223928
0.101848,0.376327,0.646736,0.271844,-0.901884,-2.16428,-0.000898674,0.249984,0.0327451
0.100645,0.376116,0.600281,0.14852,-0.938795,-2.15065,0.0166712,0.228807,0.0317147
0.0972777,0.373971,0.554637,0.078676,-1.06803,-2.1122,0.0391051,0.217045,0.00669843
0.0917661,0.371562,0.509943,0.0778962,-1.08363,-2.07284,0.0526774,0.203068,-0.0514225
0.0871489,0.369527,0.466013,0.0784147,-0.948066,-2.04122,0.0558606,0.19493,-0.0857806
0.0856209,0.367207,0.423029,0.0262527,-0.756737,-1.98607,0.0744359,0.183946,-0.0778217
0.0867717,0.363876,0.381457,-0.0142015,-0.623245,-1.92611,0.0839285,0.168491,-0.0574255
0.0889924,0.360348,0.341082,0.000606739,-0.595338,-1.8842,0.0869686,0.14534,-0.0401122
0.0908299,0.357219,0.301361,0.0203552,-0.619471,-1.86234,0.0921602,0.122741,-0.0165435
0.0918825,0.354155,0.262306,-0.000703011,-0.62212,-1.82183,0.102952,0.109081,0.00762242
0.0929665,0.350388,0.224434,-0.0468274,-0.569244,-1.75886,0.119015,0.0984504,0.0168334
0.0949818,0.345836,0.188057,-0.087089,-0.464283,-1.70303,0.120493,0.0807435,0.0180186
0.0984939,0.340505,0.15286,-0.122968,-0.376265,-1.66028,0.126519,0.0607695,0.0278464
0.102334,0.334395,0.118956,-0.162292,-0.379357,-1.59529,0.136581,0.0424464,0.0466161
0.105035,0.327708,0.08652,-0.185868,-0.399541,-1.5363,0.148098,0.0268753,0.0487273
0.107009,0.320515,0.0556218,-0.221281,-0.375204,-1.4599,0.158202,0.0153116,0.0399582
0.109402,0.31268,0.0267646,-0.261787,-0.285527,-1.3587,0.172752,0.00341114,0.0251086
0.111949,0.304275,0.000377937,-0.292275,-0.276438,-1.2462,0.182723,-0.0112353,0.0165432
0.113738,0.295976,-0.0237259,-0.27377,-0.247076,-1.14342,0.190484,-0.0321636,-0.0158031
0.115388,0.288217,-0.0456339,-0.260047,-0.230287,-1.03839,0.188751,-0.039319,-0.0336158
0.116998,0.281372,-0.0652693,-0.194394,-0.131144,-0.917159,0.187389,-0.0571339,-0.0725495
0.119879,0.276406,-0.0824658,-0.108141,-0.0654236,-0.786853,0.181502,-0.0581697,-0.088487
0.122616,0.27356,-0.0973368,0.000930567,-0.0386355,-0.676496,0.171409,-0.0722613,-0.100734
0.126136,0.273102,-0.110237,0.097378,0.0399302,-0.57162,0.153061,-0.0752816,-0.114398
0.130368,0.274176,-0.121331,0.138039,0.0738367,-0.48252,0.128137,-0.0760481,-0.0914187
0.13463,0.276232,-0.131029,0.19746,0.10571,-0.423334,0.0967258,-0.0788905,-0.0958867
0.139517,0.280055,-0.14007,0.304129,0.131568,-0.388038,0.0487108,-0.0559737,-0.104771
0.144688,0.286126,-0.148662,0.418105,0.144499,-0.341195,0.0278924,-0.0352823,-0.0874534
0.150099,0.294295,-0.15662,0.487777,0.159729,-0.294781,0.0174157,-0.0112958,-0.0566221
0.154564,0.302888,-0.16381,0.458235,0.0562503,-0.260049,0.000137791,0.00106755,-0.0108791
0.155869,0.310605,-0.170394,0.419351,-0.119475,-0.238533,-0.0129077,0.00300726,-0.014869
0.153492,0.318034,-0.176739,0.401357,-0.323645,-0.258163,-0.0572713,0.0214402,-0.0538232
0.148086,0.32457,-0.184056,0.348711,-0.409311,-0.339356,-0.116374,0.0342789,-0.116846
0.143416,0.329966,-0.193169,0.325203,-0.377825,-0.436304,-0.163261,0.0526636,-0.189941
0.140547,0.335496,-0.204245,0.390792,-0.246514,-0.515728,-0.186214,0.0744163,-0.21846
0.141486,0.342623,-0.21735,0.486914,-0.107631,-0.614402,-0.210821,0.101889,-0.207718
0.145477,0.350827,-0.232766,0.522796,-0.0343605,-0.706551,-0.210735,0.119904,-0.122192
0.151129,0.358453,-0.250027,0.464843,-0.00512391,-0.781133,-0.205591,0.140209,-0.0198663
0.157204,0.364636,-0.268421,0.425518,-0.0469769,-0.823058,-0.191003,0.156857,0.0566288
0.162284,0.37039,-0.287555,0.427332,-0.13463,-0.85397,-0.176647,0.167231,0.107957
0.165379,0.375687,-0.307319,0.385662,-0.279555,-0.885298,-0.165183,0.177459,0.160132
0.166025,0.379598,-0.327633,0.310322,-0.412495,-0.916687,-0.14854,0.170428,0.192272
0.163915,0.381723,-0.34861,0.221031,-0.576732,-0.965938,-0.114251,0.162025,0.208706
0.158747,0.382008,-0.369923,0.123427,-0.731637,-0.986616,-0.0742379,0.16029,0.20336
0.150918,0.380427,-0.391027,0.0216058,-0.824449,-0.982441,-0.0479981,0.16392,0.17398
0.142372,0.377065,-0.412171,-0.0659049,-0.808481,-1.02527,-0.0371513,0.144682,0.125909
0.134864,0.371836,-0.434368,-0.171571,-0.745063,-1.10531,-0.0255357,0.124526,0.084869
0.134864,0.371836,-0.434368,-0.171571,-0.745063,-1.10531,-0.0255357,0.124526,0.084869
0.12944,0.36393,-0.45807,-0.334039,-0.66676,-1.19707,-0.0130806,0.11454,0.0585845
0.125033,0.352518,-0.482983,-0.496168,-0.653494,-1.26407,0.0143392,0.0977187,0.0174989
0.119845,0.339049,-0.508573,-0.514221,-0.747353,-1.29859,0.0348462,0.0946911,-0.051593
0.112768,0.326917,-0.534924,-0.397262,-0.8154,-1.31943,0.0612472,0.0954931,-0.123309
0.105614,0.31715,-0.56173,-0.320352,-0.726461,-1.31921,0.0898264,0.096635,-0.149954
0.101513,0.307592,-0.588121,-0.392123,-0.504761,-1.28281,0.104834,0.0886993,-0.128761
0.100835,0.296351,-0.613384,-0.469138,-0.325129,-1.23444,0.118583,0.0697423,-0.108844
0.102479,0.285064,-0.637528,-0.400775,-0.219602,-1.1836,0.118763,0.0507346,-0.111019
0.104776,0.275981,-0.66047,-0.277359,-0.19675,-1.10684,0.121907,0.0361779,-0.0804105
0.106397,0.269094,-0.681926,-0.209427,-0.232412,-1.03141,0.119,0.0149885,-0.0157281
0.106207,0.262704,-0.7021,-0.228269,-0.311772,-0.984178,0.102158,-0.0160187,0.0414574
0.104638,0.255843,-0.721611,-0.255936,-0.335895,-0.97724,0.0693933,-0.0448358,0.0520482
0.103069,0.248777,-0.741082,-0.245314,-0.297017,-0.975834,0.0431485,-0.0640531,0.03803
0.102292,0.242438,-0.760555,-0.188668,-0.261757,-0.978132,0.0187012,-0.0752377,0.0305158
0.101693,0.23734,-0.78034,-0.129281,-0.279407,-1.00064,-0.00270908,-0.090627,0.0480918
0.100004,0.232695,-0.800995,-0.141944,-0.377803,-1.05732,-0.0222721,-0.107381,0.082231
0.0966291,0.227267,-0.822917,-0.192092,-0.445986,-1.1352,-0.038044,-0.120189,0.0890187
0.0934324,0.220819,-0.846766,-0.229148,-0.387967,-1.25251,-0.0587741,-0.128918,0.0513425
0.0926527,0.213615,-0.872816,-0.25108,-0.235805,-1.34587,-0.0497527,-0.127605,0.0207476
0.0968075,0.205502,-0.900389,-0.323594,0.109579,-1.4242,-0.0365629,-0.122632,0.0108739
0.108903,0.194555,-0.929034,-0.488984,0.517368,-1.49243,-0.0458006,-0.12245,0.0329233
0.127731,0.179917,-0.958891,-0.603407,0.769192,-1.60482,-0.0540846,-0.152336,0.0439283
0.148293,0.163653,-0.990169,-0.561973,0.700548,-1.67653,-0.0422451,-0.152842,0.0264845
0.164063,0.149049,-1.023,-0.347275,0.301637,-1.76518,-0.0299709,-0.15915,-0.0217726
0.169315,0.139314,-1.05779,-0.0363981,-0.255517,-1.77939,0.0384325,-0.138969,-0.0715027
0.164518,0.135537,-1.09253,0.215795,-0.653279,-1.673,0.109133,-0.0752502,-0.117444
0.154335,0.136423,-1.12509,0.364249,-0.760854,-1.51588,0.157336,-0.0421618,-0.150538
0.144601,0.1393,-1.15551,0.332189,-0.612193,-1.44956,0.166121,-0.0454764,-0.14194
0.137949,0.139824,-1.18475,0.10976,-0.464445,-1.41733,0.188537,-0.049398,-0.092012
0.133705,0.135877,-1.2126,-0.108112,-0.358377,-1.37325,0.20627,-0.036797,-0.0827878
0.130148,0.129769,-1.23843,-0.131245,-0.363437,-1.23318,0.254993,-0.0248154,-0.121302
0.1248,0.125728,-1.26063,0.0344579,-0.456626,-1.00465,0.301982,-0.0144648,-0.155746
0.117616,0.126439,-1.27861,0.23679,-0.479193,-0.765192,0.318925,-0.0110587,-0.157949
0.110259,0.130764,-1.29226,0.323592,-0.424439,-0.540314,0.326618,-0.0273845,-0.112992
0.103613,0.136109,-1.30183,0.296464,-0.385352,-0.350599,0.316428,-0.0412976,-0.077825
0.0960979,0.140928,-1.30753,0.258476,-0.446721,-0.159577,0.316943,-0.0460769,-0.07657
0.087327,0.147016,-1.30958,0.390913,-0.464087,0.00177006,0.255674,-0.0273107,-0.172012
0.0782148,0.156744,-1.30963,0.580105,-0.433936,0.0642641,0.137361,0.00856528,-0.249944
0.0713603,0.170226,-1.3094,0.762635,-0.221401,0.0384531,0.0172246,0.0275596,-0.291849
0.0698873,0.186885,-1.31096,0.909329,0.0261913,-0.0795499,-0.0869861,0.0718316,-0.266988
0.0728497,0.206008,-1.31497,1.02862,0.174598,-0.165126,-0.132098,0.123789,-0.178892
0.0778366,0.226804,-1.32039,1.07557,0.19617,-0.199916,-0.152106,0.172985,-0.0577655
0.0829487,0.247446,-1.32651,1.02155,0.162282,-0.230409,-0.189064,0.207529,0.0524656
0.0876689,0.266043,-1.33388,0.883086,0.139416,-0.336147,-0.238239,0.218756,0.128762
0.0932018,0.280374,-1.3436,0.61303,0.141799,-0.460665,-0.253434,0.225903,0.200922
0.0988696,0.288421,-1.35447,0.295076,0.122891,-0.488276,-0.223904,0.230529,0.240862
0.104031,0.290666,-1.36474,0.045632,0.101266,-0.470078,-0.195298,0.219802,0.235543
0.108627,0.289044,-1.374,-0.0923938,0.088919,-0.429922,-0.186359,0.188799,0.205995
0.112326,0.285934,-1.38221,-0.113802,0.0413442,-0.393108,-0.176966,0.146403,0.181243
0.114435,0.283248,-1.38971,-0.0641946,-0.0407552,-0.356657,-0.163728,0.103297,0.172699
0.114702,0.281707,-1.39697,-0.0177509,-0.137686,-0.366228,-0.148041,0.0534783,0.191575
0.113447,0.280203,-1.40484,-0.0652285,-0.210169,-0.407788,-0.120218,0.010758,0.228061
0.11052,0.276541,-1.41332,-0.218241,-0.299023,-0.43645,-0.066127,-0.032802,0.267049
0.10594,0.269589,-1.42152,-0.389226,-0.397161,-0.422156,-0.0251555,-0.0604923,0.262752
0.10594,0.269589,-1.42152,-0.389226,-0.397161,-0.422156,-0.0251555,-0.0604923,0.262752
0.0989013,0.259804,-1.42887,-0.501672,-0.495204,-0.392202,-0.00510976,-0.107779,0.21744
0.0897328,0.248728,-1.43595,-0.538071,-0.590796,-0.403962,-0.0080127,-0.146437,0.149104
0.0794126,0.236888,-1.44345,-0.583347,-0.608103,-0.425841,-0.00393266,-0.174378,0.0835724
0.0697411,0.224371,-1.45154,-0.602132,-0.540194,-0.456231,0.00284752,-0.192805,0.011642
0.0619691,0.212166,-1.46022,-0.551933,-0.421265,-0.463283,0.0146696,-0.193048,-0.0690686
0.0567164,0.20187,-1.46859,-0.420636,-0.280873,-0.406616,0.0467141,-0.192549,-0.134614
0.054318,0.195045,-1.4754,-0.211607,-0.0821075,-0.290101,0.0758884,-0.187537,-0.180595
0.0554687,0.193182,-1.47968,0.0513703,0.10673,-0.142621,0.0983619,-0.179798,-0.183487
0.0593125,0.196475,-1.4814,0.267053,0.230127,-0.015257,0.0928789,-0.175896,-0.145048
0.0641457,0.203105,-1.48113,0.386347,0.247601,0.0742085,0.087698,-0.18281,-0.0901964
0.0689089,0.211924,-1.47984,0.488918,0.264523,0.100067,0.0574113,-0.183778,-0.0812564
0.0742902,0.22293,-1.47857,0.603553,0.292942,0.105379,0.0312982,-0.164288,-0.097474
0.080642,0.236296,-1.47724,0.724226,0.38568,0.130227,0.0128855,-0.129422,-0.109622
0.0890534,0.251877,-1.47573,0.816848,0.517115,0.145058,-0.0131773,-0.0878593,-0.10401
0.100921,0.268981,-1.47425,0.863964,0.690582,0.157886,-0.0246178,-0.0806251,-0.070099
0.11472,0.285767,-1.47306,0.76757,0.674609,0.124099,-0.0354097,-0.0696691,0.0222004
0.125578,0.298778,-1.47285,0.51233,0.391969,0.0477189,-0.0285586,-0.0746661,0.10491
0.129929,0.30584,-1.47427,0.204418,0.00229337,-0.106388,-0.047425,-0.0671611,0.0943298
0.128925,0.306401,-1.47846,-0.0775768,-0.186561,-0.271189,-0.0723334,-0.0255044,-0.0218335
0.126814,0.302803,-1.4847,-0.153917,-0.154518,-0.342558,-0.0371027,0.00835583,-0.151656
0.129165,0.299927,-1.49102,-0.0564049,0.234033,-0.284768,0.0114046,0.0664928,-0.223941
0.139214,0.298545,-1.49518,-0.0508945,0.639303,-0.101235,0.0544612,0.122834,-0.152663
0.154434,0.296573,-1.49441,-0.170863,0.87557,0.137122,0.106542,0.127694,-0.0526883
0.171122,0.292946,-1.48881,-0.251227,0.951873,0.332286,0.108054,0.105455,0.00170237
0.187255,0.290285,-1.47946,-0.147476,0.902146,0.494584,0.0521401,0.106691,0.0186067
0.199942,0.291661,-1.46799,0.075481,0.665438,0.608009,0.021598,0.105613,0.0488402
0.205801,0.297943,-1.45528,0.285934,0.281972,0.713824,0.0322672,0.109213,0.0933776
0.203605,0.307704,-1.44105,0.367487,-0.0583657,0.811924,0.0460809,0.121246,0.129955
0.195777,0.317523,-1.42529,0.270479,-0.220702,0.849249,0.0323586,0.114201,0.143854
0.185263,0.324055,-1.40869,0.072311,-0.298481,0.816727,-0.000682428,0.110039,0.115065
0.173925,0.326649,-1.39269,-0.069588,-0.309001,0.715977,-0.0200697,0.107111,0.0309477
0.164259,0.327108,-1.37883,-0.096845,-0.206085,0.590395,-0.0331164,0.118455,-0.0734766
0.157133,0.326976,-1.36714,-0.0887659,-0.139077,0.515884,-0.0199766,0.148894,-0.12425
0.151991,0.327348,-1.35645,-0.0212218,-0.0151325,0.498985,0.00728345,0.171646,-0.157798
0.150502,0.329337,-1.34613,0.0768725,0.204686,0.501296,-0.000442833,0.187811,-0.161028
0.153349,0.333406,-1.33595,0.172176,0.388651,0.512802,-0.0100604,0.181923,-0.108865
0.15813,0.338685,-1.32608,0.191183,0.389915,0.488913,-0.0333831,0.160479,-0.00503761
0.161928,0.34377,-1.31713,0.176684,0.281956,0.420468,-0.0479368,0.130985,0.0603846
0.164186,0.348467,-1.30976,0.173674,0.183712,0.343888,-0.0513307,0.109829,0.0765799
0.165088,0.352668,-1.30394,0.148148,0.113688,0.272343,-0.0561563,0.10027,0.0873317
0.16508,0.355859,-1.29957,0.100098,0.0552946,0.181127,-0.0523812,0.0857618,0.088728
0.165166,0.357599,-1.29692,0.0231986,0.0486742,0.0924166,-0.048806,0.077443,0.0827597
0.165761,0.35703,-1.29563,-0.103993,0.044336,0.0237018,-0.0482287,0.074118,0.0862972
0.165797,0.353846,-1.29519,-0.20394,-0.0286305,-0.031082,-0.0415785,0.0614437,0.066129
0.165008,0.349538,-1.2956,-0.201305,-0.0546076,-0.0746953,-0.0386199,0.0528216,0.012829
0.16437,0.345592,-1.2969,-0.171805,-0.0527983,-0.102288,-0.0301767,0.0475702,-0.0165237
0.164132,0.342256,-1.2984,-0.134234,-0.0188083,-0.0888348,-0.0131265,0.0444445,-0.0197871
0.164542,0.339477,-1.29961,-0.135034,0.0115913,-0.0729723,0.000927508,0.0386367,0.00984406
0.164497,0.335903,-1.30021,-0.211324,-0.0422599,-0.0374414,0.0238929,0.0256056,0.0568871
0.162226,0.330786,-1.29956,-0.297235,-0.169953,0.0131362,0.0334895,0.015567,0.0700119
0.156841,0.324642,-1.29785,-0.322448,-0.310447,0.0431386,0.0302895,0.00349435,0.0380298
0.149473,0.318544,-1.29605,-0.302465,-0.361829,0.0362987,0.014245,-0.0111105,-0.0184624
0.141806,0.312965,-1.29454,-0.274118,-0.352743,0.0282646,0.00759323,-0.0129346,-0.0595139
0.141806,0.312965,-1.29454,-0.274118,-0.352743,0.0282646,0.00759323,-0.0129346,-0.0595139
0.134353,0.307878,-1.29308,-0.247271,-0.367886,0.0405259,0.00809127,-0.0156732,-0.0788943
0.12614,0.303841,-1.29158,-0.166141,-0.398821,0.0390046,0.00120331,-0.0355598,-0.104641
0.117997,0.301468,-1.29077,-0.0783821,-0.387915,-0.000563004,-0.0358307,-0.0430889,-0.125362
0.111296,0.300688,-1.2917,0.00630857,-0.310419,-0.10268,-0.0609629,-0.0615493,-0.124782
0.106625,0.300945,-1.29489,0.0493649,-0.244736,-0.193998,-0.0453964,-0.0636387,-0.0935037
0.104204,0.30186,-1.29989,0.0947817,-0.163908,-0.275377,-0.0469445,-0.0628411,-0.0570773
0.102874,0.303423,-1.3067,0.126201,-0.189532,-0.354661,-0.0237521,-0.0623416,0.00229841
0.100869,0.305179,-1.31516,0.124391,-0.266799,-0.432461,0.00641748,-0.0595214,0.0542307
0.0981305,0.306307,-1.32504,0.0777316,-0.29056,-0.490413,0.0465713,-0.0499313,0.0847157
0.0961318,0.305941,-1.3357,-0.0268414,-0.222906,-0.519758,0.101543,-0.0459924,0.103168
0.0948616,0.302734,-1.34627,-0.209102,-0.256638,-0.518529,0.13464,-0.0418651,0.128151
0.0910993,0.295509,-1.35666,-0.410262,-0.434677,-0.545892,0.144385,-0.0409421,0.12003
0.0846132,0.285202,-1.36739,-0.51064,-0.483541,-0.569316,0.153643,-0.0364589,0.0249584
0.0795712,0.274164,-1.37795,-0.488561,-0.283391,-0.521321,0.15189,-0.00170311,-0.0894359
0.0791489,0.265247,-1.38671,-0.317047,0.000402485,-0.382385,0.18589,0.0108816,-0.151961
0.0820542,0.26062,-1.39231,-0.116887,0.105577,-0.18832,0.224196,0.0116776,-0.112262
0.0834432,0.259163,-1.39403,-0.0362535,-0.0373561,0.00337977,0.244571,-0.010605,-0.0169676
0.0803357,0.258604,-1.39248,-0.0423221,-0.230727,0.118749,0.223155,-0.038214,0.0111153
0.0741239,0.257588,-1.3896,-0.0740129,-0.287402,0.148845,0.172055,-0.0468868,-0.0328405
0.0679968,0.256332,-1.38615,-0.0748257,-0.228261,0.18082,0.125377,-0.0244045,-0.102063
0.0633744,0.255617,-1.38186,-0.0131171,-0.127203,0.232784,0.0899556,0.00499386,-0.158504
0.0606636,0.256847,-1.37659,0.108331,-0.0115951,0.276444,0.0598926,0.0218541,-0.1865
0.0601855,0.260353,-1.37105,0.200669,0.102621,0.277183,0.0223832,0.032141,-0.159855
0.0618378,0.265287,-1.36566,0.257819,0.199217,0.278105,0.00324485,0.0429327,-0.102608
0.0652266,0.271392,-1.36019,0.318482,0.280445,0.29003,-0.00742063,0.0615905,-0.0403894
0.0701104,0.278669,-1.35453,0.365304,0.351515,0.305652,-0.0268233,0.087332,0.0332946
0.0756227,0.286354,-1.34858,0.349824,0.369897,0.32159,-0.0387982,0.112733,0.123393
0.0814115,0.293299,-1.34227,0.293281,0.390999,0.330982,-0.0516343,0.12508,0.17939
0.0868898,0.298596,-1.336,0.174142,0.327417,0.312938,-0.0682312,0.126622,0.226712
0.0908531,0.300814,-1.32977,-0.0206999,0.245474,0.307207,-0.092483,0.1207,0.246475
0.0921106,0.298766,-1.32327,-0.240712,0.0677441,0.284468,-0.125641,0.101134,0.248509
0.0898089,0.29247,-1.31784,-0.43038,-0.141917,0.16472,-0.183917,0.0814852,0.207567
0.08439,0.282441,-1.31522,-0.586582,-0.307768,0.0012176,-0.214678,0.0523669,0.130743
0.0774491,0.269736,-1.31517,-0.669717,-0.380857,-0.0841934,-0.193165,0.0383433,0.0417166
0.0706732,0.256352,-1.31612,-0.644096,-0.301539,-0.100457,-0.172647,0.0403422,-0.0429516
0.0662615,0.244439,-1.31717,-0.527689,-0.151761,-0.0761792,-0.160345,0.0376201,-0.0929216
0.0646598,0.235498,-1.31774,-0.36179,-0.0359161,-0.0414063,-0.143367,0.0134937,-0.0993664
0.064336,0.229781,-1.31806,-0.223706,-0.0247277,-0.0328921,-0.130931,-0.0185584,-0.0626915
0.0632597,0.225844,-1.3186,-0.181162,-0.0969666,-0.0468803,-0.12103,-0.0521785,-0.00341827
0.0608997,0.222065,-1.31972,-0.202152,-0.156766,-0.0882292,-0.113185,-0.076188,0.030094
0.0577424,0.217207,-1.32171,-0.278892,-0.195465,-0.132678,-0.105244,-0.0935638,0.0436624
0.0542268,0.210776,-1.32458,-0.339248,-0.221116,-0.18663,-0.101158,-0.11349,0.0206515
0.0505697,0.203685,-1.32863,-0.34193,-0.224662,-0.244336,-0.10088,-0.11959,-0.0180636
0.0473369,0.197116,-1.33364,-0.290519,-0.19526,-0.27179,-0.0823375,-0.118382,-0.0537577
0.0447273,0.191629,-1.33878,-0.237092,-0.167899,-0.25154,-0.0493567,-0.104356,-0.0623927
0.0424358,0.187272,-1.34313,-0.177296,-0.14477,-0.196426,-0.0225317,-0.0956047,-0.0623293
0.0405295,0.184426,-1.34666,-0.0968612,-0.115563,-0.163863,-0.0140745,-0.0894903,-0.0623518
0.0388739,0.183162,-1.34962,-0.0236333,-0.101877,-0.13015,0.00646362,-0.0863536,-0.0480946
0.037447,0.183074,-1.35195,0.0177315,-0.0791384,-0.0990107,0.0232764,-0.0796659,-0.0295313
0.0363553,0.18346,-1.35362,0.016684,-0.0661322,-0.0659403,0.0308367,-0.0697952,-0.00441557
0.035298,0.183388,-1.35471,-0.02409,-0.0633602,-0.0439499,0.0441432,-0.0683094,0.0165851
0.034475,0.182518,-1.35547,-0.063548,-0.0230683,-0.0349354,0.0454652,-0.0682192,0.0128195
0.0349422,0.181008,-1.35615,-0.0901311,0.0601138,-0.0399399,0.0432876,-0.0645163,-0.0032658
0.0370473,0.179219,-1.35695,-0.0934238,0.126451,-0.0370195,0.0500716,-0.0615,-0.00938308
0.0370473,0.179219,-1.35695,-0.0934238,0.126451,-0.0370195,0.0500716,-0.0615,-0.00938308
0.0401399,0.177523,-1.35716,-0.0859673,0.172096,0.0157404,0.0696475,-0.0527166,-0.000364959
0.0438026,0.176218,-1.35601,-0.0719657,0.197428,0.0930777,0.0774034,-0.0442509,0.0145905
0.0476571,0.175369,-1.35321,-0.0610036,0.214422,0.176639,0.0756959,-0.0513437,0.0332422
0.0515411,0.174796,-1.34911,-0.0608198,0.230902,0.225251,0.0634024,-0.0676093,0.0452067
0.0560463,0.174032,-1.34423,-0.0700573,0.276746,0.264747,0.0518237,-0.0830402,0.0611069
0.0611194,0.173381,-1.33824,-0.0397486,0.307967,0.334689,0.0478971,-0.0913723,0.0700058
0.066017,0.173647,-1.33061,0.00819679,0.300408,0.423985,0.0522868,-0.0960992,0.0930451
0.0699627,0.174865,-1.32104,0.0407284,0.270289,0.526127,0.058617,-0.109564,0.111293
0.0733511,0.176402,-1.30955,0.021192,0.278178,0.610194,0.0406753,-0.114169,0.126991
0.0764092,0.177251,-1.29668,-0.0347523,0.244352,0.648194,0.0240432,-0.12789,0.131347
0.0784212,0.176868,-1.28365,-0.103798,0.189521,0.627439,0.0151053,-0.146883,0.110723
0.0794258,0.175307,-1.27094,-0.144941,0.134457,0.612114,0.0208116,-0.148053,0.0649275
0.0794577,0.173392,-1.25814,-0.143632,0.0967794,0.64135,0.0443288,-0.126808,-0.000890553
0.0784268,0.171581,-1.24411,-0.155587,0.0214017,0.736663,0.061842,-0.0867825,-0.0643892
0.0745686,0.169594,-1.2281,-0.150422,-0.105281,0.816501,0.0459388,-0.0601602,-0.153927
0.0687614,0.168341,-1.21131,-0.0941264,-0.212503,0.826176,0.0145088,-0.0506691,-0.253114
0.0604488,0.168081,-1.19459,-0.0393745,-0.317854,0.815971,0.0037022,-0.0372224,-0.325509
0.0518781,0.169043,-1.17878,0.0581449,-0.23459,0.749276,-0.040923,-0.0234109,-0.396958
0.0468839,0.172877,-1.16421,0.285027,0.00271426,0.723476,-0.0711926,0.0120131,-0.438443
0.0474591,0.182691,-1.14951,0.640767,0.317892,0.781727,-0.0681973,0.0487265,-0.415698
0.0535068,0.199516,-1.13391,0.940379,0.561914,0.829772,-0.0709141,0.0667404,-0.262985
0.0628202,0.220496,-1.11796,1.03769,0.707483,0.848896,-0.094218,0.0745488,-0.0600865
0.0744054,0.241569,-1.10232,0.945816,0.797162,0.811535,-0.132359,0.0765219,0.109604
0.0865984,0.259914,-1.08802,0.770046,0.754596,0.710019,-0.162168,0.0600827,0.219459
0.0968662,0.274348,-1.07615,0.561843,0.564697,0.561541,-0.176777,0.0453027,0.275716
0.102764,0.28405,-1.06747,0.320624,0.245891,0.363192,-0.179131,0.0416135,0.298019
0.10312,0.288761,-1.06261,0.114606,-0.04796,0.157157,-0.167782,0.0416314,0.26184
0.100139,0.289852,-1.06092,-0.00424526,-0.166624,0.0371181,-0.13491,0.0763534,0.176431
0.0971747,0.289303,-1.06048,-0.0426714,-0.0979199,0.0173801,-0.0920745,0.125571,0.0941037
0.0958285,0.288695,-1.05925,-0.0266962,-0.0246602,0.108529,-0.0358599,0.156726,0.0464727
0.0937924,0.288791,-1.05589,0.00862475,-0.097903,0.204045,-0.013208,0.162387,0.0309748
0.0892535,0.289673,-1.0514,0.0359829,-0.234622,0.222135,-0.0105924,0.13357,0.00354904
0.0823808,0.290498,-1.04721,-0.00665564,-0.319549,0.170903,-0.0291421,0.110145,-0.0214663
0.0749749,0.289352,-1.04477,-0.137836,-0.323314,0.0536495,-0.0494826,0.09246,-0.0472085
0.0696289,0.285262,-1.04451,-0.263942,-0.205256,-0.0580698,-0.0519906,0.0875765,-0.103986
0.0668554,0.27912,-1.04611,-0.317224,-0.111962,-0.130411,-0.0325734,0.0834928,-0.150346
0.0667412,0.273416,-1.04881,-0.203825,0.0563509,-0.164278,-0.0260522,0.0817896,-0.198179
0.0713197,0.27147,-1.05216,0.0299926,0.30468,-0.168221,-0.0308537,0.0870721,-0.187417
0.0798253,0.273575,-1.05575,0.18358,0.430329,-0.158809,-0.0282828,0.0848424,-0.0575584
0.0899752,0.277376,-1.0593,0.214512,0.493848,-0.14564,-0.0337156,0.0738208,0.0822307
0.100768,0.280894,-1.06264,0.153969,0.466901,-0.152155,-0.0517632,0.0644611,0.199892
0.110056,0.282467,-1.06649,0.0326414,0.353506,-0.21086,-0.0692568,0.0320212,0.275453
0.117148,0.280959,-1.07179,-0.131334,0.191668,-0.325743,-0.0957871,0.00655586,0.314144
0.119921,0.275482,-1.0795,-0.317585,-0.146077,-0.485409,-0.094676,-0.0197526,0.322296
0.116972,0.266644,-1.09018,-0.423268,-0.414611,-0.646645,-0.0858476,-0.0386438,0.25534
0.111056,0.255826,-1.10389,-0.506669,-0.505214,-0.794837,-0.0907564,-0.0250926,0.157845
0.105576,0.242856,-1.12016,-0.617929,-0.451911,-0.912948,-0.0684739,-0.0288269,0.0794017
0.101773,0.227951,-1.13798,-0.675415,-0.344383,-0.964271,-0.0375683,-0.0175181,-0.00339741
0.100182,0.212896,-1.15631,-0.634315,-0.218757,-0.974019,-0.0114681,-0.0181552,-0.0815853
0.101041,0.199811,-1.17483,-0.4755,-0.0785588,-0.960159,0.00131166,-0.0297261,-0.146126
0.103529,0.190649,-1.19288,-0.257866,-0.0323121,-0.895268,0.0212849,-0.0327173,-0.15451
0.106159,0.185708,-1.20973,-0.0771921,-0.0266695,-0.806931,0.0394626,-0.0516096,-0.104316
0.10815,0.183151,-1.22539,-0.0298393,-0.0682751,-0.769166,0.0156161,-0.0773778,-0.0156493
0.108981,0.180469,-1.24121,-0.0745913,-0.137766,-0.823763,-0.0206345,-0.116637,0.0529662
0.108981,0.180469,-1.24121,-0.0745913,-0.137766,-0.823763,-0.0206345,-0.116637,0.0529662
0.108759,0.176337,-1.25851,-0.154917,-0.19688,-0.918452,-0.041691,-0.14414,0.083092
0.107282,0.170309,-1.27728,-0.23954,-0.277973,-0.979463,-0.0279819,-0.153008,0.0967793
0.104127,0.163108,-1.29658,-0.266184,-0.354533,-0.989698,-0.00656658,-0.150068,0.0734697
0.0992565,0.155835,-1.31591,-0.266144,-0.442361,-0.990865,0.00492077,-0.153008,0.0435822
0.0926186,0.148719,-1.33526,-0.255225,-0.500509,-0.990125,0.022121,-0.171714,0.00761116
0.0856189,0.142282,-1.35463,-0.212172,-0.473923,-0.980731,0.0393578,-0.178586,-0.0392132
0.0794266,0.137034,-1.37374,-0.15303,-0.411019,-0.952787,0.0574632,-0.183111,-0.0662848
0.0741881,0.133324,-1.39232,-0.0710943,-0.372214,-0.918784,0.0749446,-0.193669,-0.0780833
0.0694445,0.131641,-1.41031,0.0289604,-0.340501,-0.874026,0.10002,-0.200679,-0.0727634
0.0656847,0.131758,-1.42734,0.0754139,-0.245678,-0.812281,0.131968,-0.212251,-0.0482656
0.0641476,0.130934,-1.44337,-0.103903,-0.114112,-0.804983,0.161222,-0.252069,-0.00245053
0.0644873,0.124639,-1.45987,-0.414699,-0.102664,-0.878024,0.146125,-0.279462,-0.0260857
0.0613329,0.113124,-1.47813,-0.599374,-0.47175,-1.02442,0.136699,-0.283968,-0.130147
0.0492186,0.100118,-1.49937,-0.549301,-0.90173,-1.14582,0.158964,-0.23913,-0.315127
0.0326062,0.0907069,-1.5215,-0.278335,-0.874304,-1.07984,0.224629,-0.161172,-0.505342
0.0220161,0.0881028,-1.54086,0.0486412,-0.322772,-0.838481,0.250685,-0.0421839,-0.580536
0.0231058,0.0903594,-1.55442,0.167191,0.26479,-0.518594,0.261658,0.00371916,-0.501339
0.0319282,0.0935169,-1.56252,0.181568,0.515118,-0.296179,0.218903,-0.011844,-0.36178
0.0432627,0.0979437,-1.56709,0.300966,0.550451,-0.154067,0.151187,-0.00469083,-0.301256
0.053683,0.106273,-1.56934,0.576049,0.463895,-0.0258857,0.0749565,0.0424592,-0.267175
0.0616997,0.121989,-1.56896,1.01768,0.351739,0.165278,0.0433965,0.0889723,-0.251309
0.0671302,0.146981,-1.5651,1.43729,0.232922,0.375648,-0.019329,0.158141,-0.174616
0.0690161,0.178985,-1.55825,1.69226,0.0725364,0.495113,-0.125752,0.195685,-0.0574412
0.0676085,0.213925,-1.55128,1.72002,-0.0838581,0.394379,-0.23658,0.184205,0.0498476
0.0642376,0.247029,-1.5482,1.54983,-0.159203,0.109177,-0.31548,0.171648,0.136238
0.0625031,0.274965,-1.55155,1.25978,-0.0734663,-0.258708,-0.360165,0.18521,0.183059
0.065949,0.296113,-1.56179,0.910135,0.136216,-0.574082,-0.324386,0.208614,0.223686
0.0755116,0.309508,-1.57688,0.533342,0.372829,-0.759285,-0.243211,0.238336,0.252656
0.0902427,0.315965,-1.59396,0.274793,0.545902,-0.787903,-0.182446,0.256428,0.248387
0.106062,0.318882,-1.61029,0.197856,0.509986,-0.720741,-0.123949,0.256452,0.240012
0.119487,0.321331,-1.62511,0.205735,0.363575,-0.649711,-0.0784333,0.223453,0.245609
0.129447,0.323686,-1.63833,0.176118,0.233324,-0.5582,-0.047736,0.186182,0.264158
0.13655,0.324873,-1.64897,0.0597537,0.148519,-0.42604,-0.0170215,0.139867,0.286724
0.141665,0.323255,-1.6567,-0.134936,0.111102,-0.336528,-0.017424,0.0747345,0.283388
0.14501,0.317452,-1.66264,-0.359428,0.0435337,-0.312881,-0.0227799,0.00176769,0.261398
0.147439,0.308027,-1.66791,-0.490432,0.0463433,-0.332925,-0.031181,-0.0687382,0.183561
0.150756,0.29659,-1.67412,-0.55305,0.0948437,-0.432001,-0.0454073,-0.11376,0.104824
0.154581,0.284036,-1.68187,-0.565719,0.0530243,-0.483308,-0.0158998,-0.155177,0.040283
0.156968,0.272333,-1.68996,-0.450334,-0.0394784,-0.467358,0.0141399,-0.186084,-0.0400892
0.158288,0.264611,-1.69826,-0.171316,-0.00079973,-0.449706,0.0286905,-0.204393,-0.133679
0.162922,0.262471,-1.70765,0.0736163,0.23919,-0.490617,-0.00309843,-0.193169,-0.159754
0.173514,0.26311,-1.71849,0.136068,0.531184,-0.532956,-0.00596754,-0.179002,-0.0931792
0.188821,0.263339,-1.7301,0.0842503,0.668386,-0.56582,0.00166187,-0.149652,-0.00179952
0.204889,0.262553,-1.74148,0.0631972,0.614048,-0.513553,0.0308394,-0.105368,0.0418292
0.217924,0.262333,-1.75109,0.125204,0.447745,-0.393356,0.0595805,-0.0676918,0.0372902
0.2277,0.264668,-1.75818,0.257113,0.368268,-0.218872,0.0684385,-0.0249405,0.00417006
0.236684,0.270171,-1.76203,0.341522,0.451651,-0.0160766,0.0512773,0.0170947,0.00317204
0.246874,0.276733,-1.76191,0.275064,0.573876,0.178235,0.0141759,0.0406708,0.0434139
0.258005,0.28219,-1.75814,0.172608,0.631134,0.285723,-0.0402116,0.0257433,0.0674061
0.268795,0.286815,-1.75318,0.161518,0.583382,0.286061,-0.0846772,0.00389197,0.0623121
0.278416,0.291822,-1.74818,0.182185,0.522833,0.329448,-0.0842122,0.00513572,0.0645486
0.286723,0.297253,-1.74161,0.156806,0.516354,0.420905,-0.0895456,0.0223258,0.0755275
0.294782,0.302056,-1.73352,0.0700263,0.534486,0.44825,-0.112873,0.0243517,0.0869613
0.303057,0.304958,-1.7246,-0.0515392,0.56257,0.458682,-0.122331,0.0191861,0.101477
0.303057,0.304958,-1.7246,-0.0515392,0.56257,0.458682,-0.122331,0.0191861,0.101477
0.311294,0.305812,-1.71428,-0.163257,0.566441,0.511865,-0.114604,0.0239679,0.10316
0.318024,0.30553,-1.70216,-0.21462,0.465117,0.585554,-0.081809,0.0141928,0.0986141
0.321536,0.305117,-1.68823,-0.263827,0.273912,0.663983,-0.0497183,0.00707,0.0899124
0.318941,0.303265,-1.67247,-0.380283,-0.0841987,0.704591,-0.0744747,0.0371939,0.0723127
0.306526,0.298845,-1.65646,-0.532277,-0.70318,0.579806,-0.120497,0.0528398,0.0082528
0.284754,0.289222,-1.6433,-0.759828,-1.02155,0.362298,-0.134381,0.0805867,-0.131843
0.2618,0.274766,-1.63239,-0.873862,-0.898943,0.290492,-0.062801,0.113302,-0.31956
0.246262,0.261492,-1.62188,-0.617691,-0.295346,0.38395,0.00220813,0.172722,-0.499342
0.244331,0.255984,-1.60944,-0.23497,0.369913,0.674961,0.0572806,0.240228,-0.511208
0.249202,0.257583,-1.59237,-0.0419492,0.443577,0.936294,0.0417179,0.260008,-0.308041
0.250552,0.262691,-1.5731,0.0640297,0.165412,0.963048,0.00263235,0.184958,-0.141882
0.246522,0.26873,-1.5553,0.0876482,-0.0717172,0.851848,-0.0366808,0.147618,-0.0463927
0.239846,0.274278,-1.53947,0.082022,-0.144743,0.769284,-0.0215513,0.138879,0.0233223
0.233336,0.278943,-1.52512,0.0349336,-0.111853,0.686613,0.00100976,0.141306,0.0914228
0.227731,0.281494,-1.51167,-0.0996399,-0.079169,0.636706,0.0421517,0.139119,0.169085
0.222574,0.280483,-1.4984,-0.286138,-0.0771679,0.582805,0.0725383,0.12939,0.2221
0.217178,0.275422,-1.48577,-0.469204,-0.120972,0.499432,0.0938394,0.11085,0.246834
0.210419,0.266994,-1.47404,-0.58029,-0.245625,0.432291,0.126885,0.0827724,0.226405
0.201795,0.257067,-1.46342,-0.59431,-0.322762,0.371739,0.147985,0.0642733,0.15978
0.193182,0.24729,-1.45383,-0.542906,-0.292736,0.35772,0.170059,0.0636557,0.0831963
0.186002,0.239097,-1.44446,-0.426565,-0.193536,0.385657,0.186205,0.0661559,0.0144563
0.180702,0.233324,-1.43485,-0.325301,-0.12921,0.4286,0.186936,0.0757565,-0.00672877
0.175723,0.228727,-1.42471,-0.319862,-0.144232,0.462028,0.179815,0.071007,0.0117984
0.170192,0.223601,-1.41416,-0.366681,-0.16313,0.455089,0.146567,0.0645006,0.00479472
0.165248,0.217733,-1.40423,-0.36694,-0.109875,0.404231,0.114457,0.0520155,-0.0358126
0.161435,0.21193,-1.39537,-0.348397,-0.0893944,0.365712,0.104336,0.0568289,-0.053731
0.158229,0.206444,-1.38694,-0.329633,-0.0572857,0.365667,0.109265,0.0641269,-0.0622084
0.15573,0.201124,-1.37847,-0.328904,-0.0214618,0.375148,0.105395,0.0672783,-0.0589924
0.153936,0.195862,-1.3699,-0.312942,0.00689131,0.373965,0.094918,0.0558185,-0.0651881
0.152164,0.191143,-1.36149,-0.279096,-0.0422444,0.374446,0.0868399,0.055475,-0.0656892
0.148965,0.187268,-1.35267,-0.233592,-0.103559,0.426092,0.0969775,0.0547055,-0.0686173
0.144845,0.184279,-1.34302,-0.201906,-0.120424,0.473016,0.0924648,0.0535231,-0.0791209
0.140822,0.182009,-1.33254,-0.172626,-0.0815192,0.516637,0.0798571,0.0449433,-0.0951774
0.137389,0.180492,-1.32123,-0.123697,-0.0734999,0.561717,0.0665306,0.0349058,-0.100771
0.133352,0.18037,-1.30935,-0.0426903,-0.13077,0.597867,0.0543348,0.0291101,-0.107263
0.127803,0.181726,-1.29698,0.018152,-0.194456,0.633508,0.0342348,0.0253473,-0.112898
0.121678,0.184403,-1.28401,0.092108,-0.156455,0.667395,0.00806023,0.0165044,-0.130179
0.117213,0.188609,-1.27115,0.166848,-0.0623047,0.630649,-0.0471064,0.0113146,-0.125533
0.11401,0.193281,-1.25974,0.149665,-0.0625986,0.537022,-0.0759848,0.00268807,-0.0592021
0.110196,0.196164,-1.25023,0.0159231,-0.138161,0.425941,-0.0758661,-0.00168601,0.0153998
0.10549,0.195738,-1.24262,-0.128451,-0.156698,0.310031,-0.0814331,0.000231251,0.0244018
0.102648,0.193611,-1.23693,-0.113935,0.00274309,0.23684,-0.0637949,0.000295103,-0.028839
0.103481,0.193265,-1.23185,0.040249,0.168572,0.276001,-0.0241789,0.0296802,-0.0407894
0.106448,0.196475,-1.22539,0.199973,0.246141,0.392374,0.0149378,0.053474,0.0190786
0.109404,0.202079,-1.21704,0.256594,0.218454,0.472357,0.00854467,0.0568162,0.111169
0.111505,0.208156,-1.20775,0.230891,0.175473,0.497404,-0.00782833,0.0451719,0.162584
0.11186,0.212662,-1.19817,0.100971,0.0668986,0.482578,-0.0206263,0.0443757,0.202687
0.110107,0.214026,-1.18879,-0.0726672,-0.0429277,0.444122,-0.0277423,0.0409171,0.208876
0.106385,0.211652,-1.18002,-0.263543,-0.146416,0.390934,-0.0210362,0.0299754,0.182302
0.100573,0.20521,-1.17184,-0.458308,-0.255709,0.347353,-3.42727e-07,0.0170356,0.127193
0.0937402,0.195093,-1.16421,-0.621231,-0.28189,0.292092,0.0039825,5.5626e-05,0.0296553
0.0861679,0.181561,-1.15794,-0.791491,-0.362858,0.198265,-0.0162111,-0.00313491,-0.0706996
0.0768886,0.165333,-1.15304,-0.815728,-0.451472,0.173678,0.0126286,-0.011109,-0.205454
0.0679944,0.152624,-1.14765,-0.438698,-0.31212,0.280931,0.0485856,0.0172515,-0.400856
0.0679944,0.152624,-1.14765,-0.438698,-0.31212,0.280931,0.0485856,0.0172515,-0.400856
0.0646897,0.14966,-1.13964,0.075264,0.138989,0.505678,0.059903,0.0599446,-0.463808
0.0700597,0.155234,-1.12719,0.347505,0.536726,0.749268,0.0200574,0.0779363,-0.336317
0.0793633,0.164025,-1.11147,0.402457,0.615251,0.84891,-0.0277704,0.0275483,-0.125979
0.0886609,0.173652,-1.09512,0.41252,0.585262,0.832798,-0.083429,-0.0124307,0.00271332
0.0969104,0.182738,-1.07944,0.339205,0.518034,0.791628,-0.123407,-0.016153,0.0978001
0.103839,0.189752,-1.06448,0.211296,0.443176,0.748213,-0.138215,-0.0245959,0.153687
0.108786,0.194117,-1.05014,0.0736056,0.328891,0.709199,-0.136516,-0.0241258,0.17865
0.111195,0.195824,-1.03576,-0.0507171,0.209622,0.724329,-0.121236,-0.0149592,0.168723
0.111736,0.195389,-1.02031,-0.157044,0.147612,0.783393,-0.129936,0.000865117,0.119066
0.110773,0.193624,-1.00357,-0.182211,0.0800553,0.825508,-0.159247,0.0136752,0.0465726
0.108053,0.192246,-0.986336,-0.132195,-0.0355729,0.84958,-0.176565,0.0110108,-0.0181351
0.102541,0.192265,-0.968691,-0.0447716,-0.174015,0.872124,-0.194485,0.0160646,-0.0688091
0.0947328,0.193808,-0.951329,0.0239116,-0.271921,0.838857,-0.220277,0.0268866,-0.0967609
0.0860023,0.196582,-0.935005,0.132628,-0.268916,0.790377,-0.212843,0.0296533,-0.125927
0.079092,0.202778,-0.919811,0.378868,-0.118041,0.753947,-0.190123,0.0251067,-0.160224
0.0751362,0.213835,-0.905473,0.590642,-0.0127018,0.738904,-0.168723,0.0564171,-0.0843098
0.0713778,0.226976,-0.891519,0.596296,-0.0856907,0.714976,-0.133331,0.057735,0.0571212
0.0647797,0.238663,-0.878339,0.474488,-0.276978,0.642974,-0.105609,0.0443415,0.15315
0.0546983,0.247313,-0.866696,0.318406,-0.433974,0.539007,-0.0837388,0.0395388,0.179687
0.0431633,0.252156,-0.857107,0.11426,-0.466402,0.411792,-0.0617134,0.0344199,0.174384
0.0326061,0.252231,-0.849978,-0.134163,-0.401507,0.278922,-0.0403732,0.0281902,0.158075
0.0243798,0.247195,-0.84547,-0.367654,-0.307385,0.143618,-0.0191657,0.0169629,0.121551
0.0186336,0.238319,-0.843637,-0.514687,-0.231474,0.0225574,0.00604869,0.0113995,0.0678046
0.0144306,0.227301,-0.843718,-0.574528,-0.193368,-0.0345161,0.0456486,0.016136,0.0189917
0.0109226,0.215846,-0.844256,-0.562865,-0.176794,-0.0239947,0.0900543,0.0294667,-0.0214165
0.0078171,0.205221,-0.843788,-0.485908,-0.0999956,0.0664018,0.129173,0.036608,-0.0563685
0.00654361,0.1966,-0.841415,-0.384256,0.00642387,0.160608,0.136481,0.0422449,-0.0663428
0.00643145,0.189567,-0.83722,-0.322369,0.0724662,0.254063,0.147386,0.0294678,-0.0397392
0.00739152,0.183792,-0.831133,-0.266851,0.117168,0.331324,0.146633,0.0104107,-0.0124745
0.00817803,0.178928,-0.823863,-0.229606,0.101203,0.386184,0.136682,-0.00130104,0.0171291
0.00861808,0.174658,-0.815416,-0.209331,0.0900656,0.440642,0.133588,-0.0146292,0.0338828
0.0087564,0.170691,-0.806092,-0.199081,0.0917754,0.478395,0.122993,-0.0213602,0.0393087
0.00875116,0.166744,-0.79598,-0.203394,0.0697081,0.518281,0.113792,-0.025892,0.0418941
0.00783805,0.162962,-0.785241,-0.177324,0.0243956,0.53381,0.095461,-0.0361833,0.0229146
0.00635646,0.159789,-0.774705,-0.15613,-0.00679962,0.498265,0.0678822,-0.0497527,-0.00598413
0.00439326,0.156831,-0.765103,-0.14484,-0.032041,0.450935,0.058008,-0.061569,-0.036315
0.00286288,0.153944,-0.756683,-0.149618,-0.00321175,0.388934,0.056787,-0.0697006,-0.0698898
0.00214697,0.15096,-0.749187,-0.15134,0.0558896,0.351959,0.0649703,-0.065769,-0.0946118
0.00307066,0.147994,-0.742881,-0.147347,0.123472,0.267846,0.0406793,-0.069373,-0.121531
0.00507689,0.145458,-0.738526,-0.0991464,0.129756,0.162695,0.0325286,-0.0776497,-0.143157
0.00717232,0.14453,-0.736079,0.017993,0.108282,0.089746,0.0473153,-0.0695346,-0.158859
0.0094117,0.146521,-0.7345,0.182117,0.157715,0.0770057,0.0673646,-0.0459586,-0.170076
0.013305,0.151524,-0.73284,0.303673,0.259766,0.0914504,0.0771798,-0.0302689,-0.135386
0.019089,0.15813,-0.731383,0.352932,0.334767,0.0541653,0.0580393,-0.0272055,-0.0707161
0.025836,0.165453,-0.731107,0.376383,0.336948,-0.0173472,0.0444506,-0.0350843,-0.00779021
0.0325601,0.17288,-0.732384,0.365266,0.318518,-0.082412,0.0569811,-0.0279922,0.0329264
0.0390747,0.179603,-0.734539,0.309318,0.285361,-0.103373,0.0684208,-0.00846463,0.0629672
0.0448235,0.184932,-0.736975,0.24166,0.258703,-0.115415,0.0725021,0.000972956,0.0559513
0.0507654,0.189286,-0.739812,0.210834,0.283669,-0.148514,0.0589731,0.00853157,0.0207294
0.0577615,0.193021,-0.743545,0.183649,0.350765,-0.198169,0.036528,0.0180725,-0.00951105
0.066001,0.196107,-0.747887,0.145428,0.378989,-0.205942,0.0371787,0.0360393,-0.0135516
0.0743652,0.198216,-0.751949,0.101362,0.389299,-0.173154,0.0378911,0.0546175,-0.0174075
0.0832699,0.199856,-0.755061,0.0861414,0.430571,-0.118646,0.0313053,0.0610314,-0.0396735
0.0922313,0.2014,-0.757021,0.0874594,0.422237,-0.0602505,0.00915664,0.0692121,-0.0458765
0.0922313,0.2014,-0.757021,0.0874594,0.422237,-0.0602505,0.00915664,0.0692121,-0.0458765
0.100492,0.203376,-0.757835,0.126361,0.390158,-0.00567076,-0.0105631,0.0651969,-0.0572891
0.107721,0.206579,-0.75774,0.194991,0.341026,0.0503369,-0.0306728,0.0674331,-0.0602295
0.114011,0.211362,-0.756481,0.260073,0.319401,0.124226,-0.0450094,0.0677018,-0.044013
0.119605,0.217272,-0.754158,0.295335,0.287517,0.164507,-0.0783678,0.0602623,-0.00581348
0.124156,0.223525,-0.751558,0.295248,0.225261,0.158335,-0.108458,0.0384102,0.0405989
0.127258,0.229526,-0.7494,0.270312,0.1312,0.121749,-0.131307,0.0240091,0.0757482
0.12887,0.234724,-0.748061,0.217736,0.0688606,0.0713534,-0.140905,0.0193331,0.100546
0.129563,0.238126,-0.747548,0.11577,0.0134772,0.0220534,-0.138998,0.0129202,0.115218
0.129524,0.239597,-0.748066,0.0469794,-0.0409206,-0.0642551,-0.150283,-0.00110699,0.101373
0.128344,0.240094,-0.750635,0.0390546,-0.134341,-0.178133,-0.148689,-0.0174089,0.0723813
0.126087,0.240345,-0.755404,0.0358109,-0.204566,-0.274557,-0.129127,-0.0162197,0.0474081
0.123338,0.239881,-0.76162,-0.0119223,-0.210416,-0.323649,-0.10461,-0.000495613,0.0239695
0.120796,0.238371,-0.768466,-0.0487128,-0.204364,-0.360581,-0.0934902,0.00778712,-0.013308
0.118884,0.236741,-0.776242,-0.00773368,-0.161431,-0.417399,-0.0952608,0.00388429,-0.0686896
0.11838,0.236276,-0.785526,0.0644247,-0.114183,-0.485729,-0.0928038,0.00855921,-0.0894433
0.118965,0.236834,-0.796187,0.108754,-0.0731061,-0.538905,-0.0768131,0.0164715,-0.0731915
0.120228,0.237634,-0.807775,0.0904203,-0.0940096,-0.572175,-0.0503751,0.0256722,-0.025261
0.120614,0.237476,-0.819756,0.0363933,-0.135474,-0.586418,-0.0268874,0.0285085,0.00505018
0.120893,0.2365,-0.831887,0.0141676,-0.121809,-0.604148,-0.0155423,0.0299404,-0.00119436
0.121377,0.235099,-0.844375,-0.00656001,-0.123765,-0.62079,-0.00526064,0.031493,0.00455159
0.121462,0.233047,-0.856928,-0.0497118,-0.162857,-0.618374,0.0159619,0.033067,0.01214
0.12106,0.230185,-0.869233,-0.0849589,-0.164123,-0.604856,0.0325062,0.0418786,-0.00331974
0.120638,0.227338,-0.880741,-0.0422514,-0.127655,-0.543505,0.0450893,0.0581794,-0.0351763
0.120859,0.226197,-0.891083,0.0528516,-0.0841958,-0.471977,0.0503372,0.071884,-0.040685
0.121685,0.22683,-0.900076,0.102428,-0.0484351,-0.393753,0.0525927,0.0703793,0.00526512
0.121995,0.22753,-0.90788,0.0497307,-0.107668,-0.360486,0.039143,0.0598463,0.0751706
0.120685,0.226764,-0.915245,-0.0387608,-0.185369,-0.364697,0.0325618,0.0346709,0.102703
0.118421,0.22427,-0.922665,-0.118489,-0.206294,-0.38243,0.0269503,0.0163863,0.0867351
0.116052,0.220593,-0.930097,-0.148279,-0.190138,-0.3774,0.0370381,0.00889288,0.045773
0.113852,0.216949,-0.937137,-0.128165,-0.192568,-0.348116,0.042972,0.00966905,0.00539267
0.111293,0.21397,-0.943747,-0.0962044,-0.197299,-0.335342,0.0316972,0.00376849,-0.0277056
0.109182,0.211518,-0.950577,-0.0754365,-0.149262,-0.365377,0.01355,-0.00995021,-0.0591905
0.108335,0.209386,-0.958177,-0.0508918,-0.0952383,-0.39703,-0.000720017,-0.0134087,-0.0836211
0.108737,0.207921,-0.966419,-0.00265582,-0.031789,-0.415607,-0.00180055,-0.00887489,-0.100757
0.11062,0.207555,-0.974944,0.0540679,0.0461568,-0.421156,-0.00331955,0.00033392,-0.0953144
0.11415,0.208094,-0.983685,0.0936121,0.121908,-0.42567,-0.00678482,0.00476708,-0.059893
0.118617,0.20908,-0.992638,0.10043,0.133244,-0.432529,-0.000787117,0.00965318,-0.0021621
0.12271,0.209703,-1.00147,0.0566831,0.0777053,-0.41999,0.00471461,0.0174038,0.0542037
0.124991,0.208975,-1.00994,-0.0258812,-0.0237444,-0.409264,0.0112249,0.0139449,0.08661
0.125715,0.206922,-1.01777,-0.0768406,-0.0531392,-0.376925,0.0287793,0.00708477,0.0685243
0.126337,0.204208,-1.02478,-0.10364,-0.0232042,-0.339772,0.0285947,0.0115533,0.043729
0.127354,0.201236,-1.03096,-0.113837,-0.0152628,-0.296629,0.0397227,-0.00316766,0.0322031
0.127077,0.198163,-1.0361,-0.128081,-0.11852,-0.245162,0.0440192,-0.00747696,0.036306
0.12498,0.19509,-1.04024,-0.121238,-0.152283,-0.198422,0.0434356,-0.0172504,0.00862616
0.122977,0.192389,-1.04371,-0.106863,-0.114978,-0.180532,0.0282929,-0.0222969,-0.0218189
0.12181,0.189783,-1.04708,-0.114768,-0.0634474,-0.181334,0.0234495,-0.038939,-0.0319453
0.121608,0.187237,-1.05042,-0.0934012,-0.0279899,-0.173071,0.0241217,-0.0398989,-0.0435326
0.121391,0.185272,-1.05341,-0.061255,-0.0539799,-0.143335,0.0274938,-0.0380308,-0.0432371
0.120752,0.184176,-1.05615,-0.0170206,-0.0506052,-0.141617,0.0213185,-0.0446623,-0.0515215
0.120847,0.183717,-1.05896,-0.00513416,0.00763391,-0.137859,0.0150353,-0.0415123,-0.0450256
0.122104,0.183322,-1.06161,-0.00339803,0.0606177,-0.127319,0.017203,-0.0387573,-0.0252215
0.123906,0.183279,-1.06391,0.0304238,0.0712427,-0.0953713,0.0210437,-0.0319181,-0.00647968
0.125163,0.183988,-1.06557,0.0468782,0.00822934,-0.0612926,0.0205199,-0.0262766,0.028425
0.125163,0.183988,-1.06557,0.0468782,0.00822934,-0.0612926,0.0205199,-0.0262766,0.028425
0.124752,0.184539,-1.0668,0.0175765,-0.058564,-0.0563916,0.0109241,-0.035089,0.0502412
0.123689,0.184336,-1.06803,-0.0253899,-0.0614362,-0.0700693,-0.00124276,-0.0314126,0.0390397
0.123012,0.183454,-1.06948,-0.0463913,-0.0354785,-0.0802893,-0.00496592,-0.0235519,0.0147609
0.122585,0.182633,-1.07083,-0.0182518,-0.0488701,-0.0571589,0.00683075,-0.015478,-0.0112236
0.121651,0.183197,-1.07169,0.0723092,-0.071219,-0.0185711,0.0118284,-0.00054957,-0.0362838
0.119966,0.185272,-1.07193,0.112065,-0.0909345,0.0185315,0.0153038,0.00589953,-0.0284811
0.118619,0.187436,-1.07151,0.0837502,-0.0334531,0.0409391,0.00851791,0.00587507,-0.0154161
0.118281,0.188799,-1.07096,0.0478454,0.000221136,0.0261427,-0.0072965,0.0024533,-0.00343817
0.118255,0.189579,-1.0707,0.03607,-0.0094985,0.012044,-0.00516298,-0.00499001,0.00218707
0.117938,0.190315,-1.07056,0.0476353,-0.034084,0.019206,-0.00137448,0.00336179,0.00710595
0.117221,0.191266,-1.07019,0.0459408,-0.0298305,0.0317102,0.00319154,0.0044941,0.0137386
0.116954,0.191971,-1.06959,0.0144326,0.0138977,0.0335986,0.000964612,0.00529271,0.0272467
0.117268,0.191857,-1.0689,-0.0361155,0.0234041,0.0317657,-0.00224295,0.00145832,0.045207
0.117008,0.190797,-1.06808,-0.0701161,-0.0331338,0.0348003,0.00399928,-0.0013833,0.0514338
0.115794,0.189457,-1.06716,-0.07542,-0.0683097,0.0386487,0.00921281,0.00134456,0.0387012
0.114265,0.187669,-1.06606,-0.118681,-0.0609324,0.05327,0.0134277,0.00677533,0.0363684
0.112945,0.185052,-1.06431,-0.158454,-0.0403153,0.0879586,0.020368,0.0070412,0.0247292
0.11179,0.182203,-1.06176,-0.147913,-0.0338727,0.129677,0.0202478,0.00820757,0.00895494
0.110444,0.180145,-1.05837,-0.0923367,-0.0463103,0.18411,0.0257499,0.00683975,0.000498116
0.108448,0.179482,-1.05393,-0.0256935,-0.0760048,0.245317,0.0296113,0.00701165,0.0149601
0.105834,0.17996,-1.04838,0.0104238,-0.0980226,0.303059,0.0351378,-0.00301675,0.0459272
0.102184,0.180857,-1.04194,0.00833131,-0.162778,0.329211,0.0247645,-0.0163247,0.0816776
0.0971986,0.181446,-1.0353,-0.0187488,-0.223783,0.331457,0.0240237,-0.0362384,0.0956252
0.0911217,0.181207,-1.02874,-0.0644393,-0.267875,0.306086,0.0180534,-0.0553791,0.0967947
0.0846157,0.179971,-1.02288,-0.106083,-0.279393,0.255917,0.0200453,-0.0802306,0.0829595
0.0776113,0.177612,-1.01824,-0.177268,-0.348125,0.171698,0.0136063,-0.0884417,0.079679
0.0699677,0.17293,-1.01569,-0.315094,-0.35455,0.0420783,0.00651042,-0.106343,0.0570002
0.0636423,0.165125,-1.01581,-0.468696,-0.260023,-0.111506,0.00799018,-0.107109,0.00615996
0.0600332,0.154154,-1.0186,-0.591361,-0.151042,-0.208301,0.0242866,-0.0882463,-0.0605744
0.0585554,0.142402,-1.02223,-0.533198,-0.0753691,-0.210584,0.068993,-0.073319,-0.138665
0.0570842,0.133704,-1.02533,-0.291897,-0.120066,-0.133172,0.115636,-0.0582985,-0.18066
0.0546402,0.130844,-1.02694,-0.00193011,-0.142603,-0.0455664,0.142341,-0.0541754,-0.160586
0.0517434,0.131981,-1.02728,0.0820878,-0.134857,0.0143366,0.146224,-0.055337,-0.0508257
0.0495652,0.132948,-1.0267,-0.00207605,-0.0920324,0.0422772,0.13798,-0.068218,0.0559829
0.0473693,0.13218,-1.02562,-0.0648228,-0.124946,0.063703,0.140348,-0.0780591,0.106529
0.0436962,0.131233,-1.02373,-0.0267699,-0.220034,0.124487,0.161497,-0.0786308,0.111396
0.0379564,0.131382,-1.0203,0.0284116,-0.299773,0.22351,0.181084,-0.0753552,0.0983185
0.0306752,0.13265,-1.01481,0.074305,-0.354753,0.322563,0.18487,-0.081896,0.0860092
0.0222721,0.134286,-1.00779,0.0506132,-0.394081,0.375815,0.179422,-0.0913217,0.0799696
0.0131882,0.134034,-1.00015,-0.116176,-0.414282,0.373363,0.161506,-0.105915,0.07557
0.00267966,0.128415,-0.993584,-0.476272,-0.585451,0.25501,0.0926945,-0.0979202,0.0415673
-0.0103275,0.11565,-0.990229,-0.762597,-0.649865,0.0954002,0.0521437,-0.0995891,-0.140995
-0.0221344,0.100783,-0.989083,-0.658151,-0.527626,0.0707234,0.0938434,-0.0568735,-0.411248
-0.029136,0.0919608,-0.986754,-0.190927,-0.110165,0.223936,0.161043,-0.00465009,-0.566004
-0.0281304,0.0920746,-0.979448,0.199326,0.255569,0.514259,0.184929,0.0607709,-0.491202
-0.0216072,0.0982605,-0.965752,0.439852,0.4878,0.829252,0.192995,0.0583381,-0.308111
-0.0134247,0.108649,-0.946892,0.629247,0.514536,1.00637,0.137475,0.0310885,-0.120854
-0.00640953,0.121806,-0.925711,0.682792,0.414929,1.08366,0.0731496,0.0229939,0.046724
-0.00234352,0.134916,-0.903261,0.631988,0.304402,1.1326,0.0442991,-0.00250179,0.169514
-0.000607714,0.146794,-0.880167,0.56539,0.187925,1.15543,0.00191336,-0.00882336,0.225359
-0.00167461,0.157346,-0.856732,0.490492,0.0417494,1.16239,-0.0301302,-0.00905888,0.241552
-0.00639113,0.165987,-0.833809,0.380482,-0.138802,1.09353,-0.0676409,-0.0201835,0.240462
-0.0139387,0.172155,-0.813115,0.258578,-0.247779,0.939192,-0.122422,-0.0191387,0.195663
-0.0219627,0.175876,-0.795984,0.143219,-0.24554,0.749194,-0.164428,0.00460634,0.123481
-0.0219627,0.175876,-0.795984,0.143219,-0.24554,0.749194,-0.164428,0.00460634,0.123481
-0.0287086,0.177511,-0.782774,0.0726925,-0.181398,0.556303,-0.179266,0.0234582,0.0439698
-0.0331611,0.178921,-0.772978,0.112942,-0.102649,0.41476,-0.164442,0.0453537,-0.0351052
-0.035975,0.181842,-0.765394,0.208252,-0.0443912,0.332826,-0.153194,0.0922949,-0.0824317
-0.0377498,0.186613,-0.759232,0.288559,0.000391543,0.253172,-0.150613,0.11998,-0.0979416
-0.037061,0.192748,-0.754693,0.333411,0.151224,0.166311,-0.160274,0.126371,-0.10304
-0.0331443,0.199339,-0.752224,0.329862,0.284841,0.0546041,-0.159931,0.127983,-0.0686346
-0.0265564,0.205648,-0.752087,0.299981,0.381108,-0.0571396,-0.156623,0.134484,-0.0288169
-0.018249,0.211075,-0.753709,0.235311,0.393761,-0.0997399,-0.137751,0.156212,0.014173
-0.0110787,0.215036,-0.755482,0.161039,0.278514,-0.0737781,-0.11262,0.174,0.0417128
-0.00664898,0.217676,-0.756485,0.103943,0.150775,-0.0292805,-0.101037,0.174686,0.0407724
-0.00452292,0.219299,-0.756671,0.0632364,0.0693795,0.0103943,-0.103145,0.168076,0.0282711
-0.0034625,0.220261,-0.756035,0.0330753,0.060094,0.0494939,-0.102929,0.156289,0.0207108
-0.00225993,0.220658,-0.75473,0.00963681,0.0962903,0.074303,-0.110298,0.136368,0.01283
-0.000293411,0.220932,-0.753147,0.0243811,0.126453,0.078616,-0.120594,0.109047,0.00885099
0.00145604,0.221459,-0.7516,0.0536314,0.0914201,0.0664164,-0.122026,0.0804781,0.0219179
0.00255587,0.222551,-0.75039,0.0705843,0.0527872,0.0464311,-0.12435,0.0528722,0.029915
0.0030316,0.22389,-0.749852,0.076345,0.0195828,-0.00572926,-0.130825,0.0285127,0.0329894
0.00341709,0.225139,-0.75084,0.0495389,0.0242532,-0.096698,-0.130086,0.00649121,0.0290939
0.00582457,0.225368,-0.753846,-0.0246895,0.179129,-0.199795,-0.13321,-0.00137264,0.0124455
0.0121688,0.223945,-0.758781,-0.100373,0.351249,-0.28335,-0.135858,-0.00489666,-0.00307059
0.0211941,0.221659,-0.765126,-0.0979163,0.40008,-0.337756,-0.133314,-0.0102543,-0.0169182
0.0296511,0.220624,-0.772289,0.0290073,0.311197,-0.370425,-0.137571,-0.00812063,-0.040659
0.0360481,0.222675,-0.780238,0.206602,0.137494,-0.398155,-0.147898,-0.00375429,-0.0573212
0.0393435,0.228112,-0.789066,0.350589,0.0209209,-0.453641,-0.1483,-0.00426838,-0.0549181
0.0422494,0.234705,-0.799558,0.328214,0.0449571,-0.542102,-0.15378,0.00123334,-0.0267286
0.0466524,0.239901,-0.811692,0.251191,0.0988123,-0.615692,-0.152691,0.00887702,-0.0164354
0.0516747,0.244053,-0.825221,0.240262,0.0723025,-0.673861,-0.134792,0.0173182,-0.0282432
0.0564687,0.248289,-0.839913,0.263954,0.0619789,-0.731332,-0.141866,0.0292088,-0.0483546
0.062039,0.252646,-0.855955,0.262383,0.105384,-0.799947,-0.15813,0.0363131,-0.0599449
0.0692886,0.256611,-0.873533,0.241986,0.172328,-0.874854,-0.17245,0.0436596,-0.0631413
0.0776901,0.259727,-0.89225,0.200881,0.178113,-0.906409,-0.17268,0.05389,-0.0523242
0.0854777,0.261868,-0.911262,0.164863,0.111714,-0.913672,-0.185658,0.0532124,-0.0522212
0.0920666,0.26355,-0.930521,0.174426,0.0520298,-0.93524,-0.220369,0.0427213,-0.0819527
0.0981034,0.265482,-0.950599,0.204162,0.0343512,-0.986331,-0.267717,0.0332488,-0.11638
0.104539,0.268059,-0.971947,0.264746,0.0584442,-1.0399,-0.295202,0.0243966,-0.14048
0.112197,0.271784,-0.994462,0.345342,0.0999176,-1.08264,-0.323902,0.0337397,-0.134743
0.120279,0.277036,-1.01786,0.444607,0.0751476,-1.10099,-0.341732,0.0413892,-0.10027
0.127717,0.283823,-1.04232,0.508547,-0.0244195,-1.16848,-0.382833,0.0503224,-0.0465606
0.134072,0.290903,-1.06897,0.532193,-0.0888426,-1.28889,-0.41051,0.0406778,-0.00752109
0.140252,0.298085,-1.09854,0.567575,-0.161439,-1.41921,-0.422584,0.0617112,0.0135614
0.145627,0.30542,-1.13063,0.603907,-0.254323,-1.51696,-0.406311,0.0751838,0.0327067
0.15017,0.312805,-1.16482,0.60377,-0.340632,-1.60464,-0.401914,0.096181,0.0493322
0.153639,0.319261,-1.20126,0.5512,-0.435281,-1.7381,-0.404244,0.10189,0.0675254
0.155958,0.323606,-1.24074,0.459659,-0.570833,-1.90592,-0.385363,0.106715,0.0768619
0.156367,0.325632,-1.28315,0.381411,-0.762968,-2.03684,-0.332193,0.127479,0.065574
0.153576,0.32658,-1.32723,0.362315,-0.926417,-2.07479,-0.253164,0.161595,0.0439992
0.147987,0.327077,-1.37165,0.297296,-1.06995,-2.09624,-0.192228,0.191302,0.0210161
0.139259,0.32545,-1.41631,0.143705,-1.22716,-2.12951,-0.130516,0.187777,0.00899774
0.127729,0.321397,-1.46135,0.0310649,-1.3489,-2.18324,-0.0919132,0.197759,-0.0511979
0.114093,0.316477,-1.50732,0.033931,-1.43702,-2.22018,-0.0410681,0.204928,-0.141428
0.100276,0.313732,-1.55368,0.178088,-1.33683,-2.19942,0.038445,0.209779,-0.227433
0.0903054,0.315085,-1.59903,0.354726,-1.05332,-2.09317,0.110088,0.235496,-0.242313
0.0852508,0.319344,-1.64229,0.40639,-0.829015,-1.98057,0.165419,0.231866,-0.160177
0.0825076,0.323545,-1.6838,0.338548,-0.786541,-1.93446,0.188647,0.196577,-0.0551416
0.0825076,0.323545,-1.6838,0.338548,-0.786541,-1.93446,0.188647,0.196577,-0.0551416
0.0794879,0.32664,-1.72513,0.298718,-0.830053,-1.9638,0.195958,0.160264,-0.00979853
0.0762264,0.329246,-1.76749,0.268487,-0.864678,-2.0293,0.215001,0.153622,-0.000644863
0.0731673,0.330482,-1.81087,0.144871,-0.837713,-2.05743,0.257438,0.153036,0.0114859
0.0707438,0.328769,-1.85408,-0.0104304,-0.810712,-2.03437,0.294276,0.156695,-0.00447428
0.0677982,0.325069,-1.89631,-0.0638241,-0.83113,-1.99874,0.315379,0.15841,-0.0556929
0.0637363,0.321123,-1.93764,-0.0752413,-0.904127,-1.94901,0.31647,0.154148,-0.101141
0.0573408,0.316629,-1.97836,-0.151816,-1.04292,-1.96132,0.299299,0.137766,-0.109346
0.0475929,0.310979,-2.01948,-0.190587,-1.2078,-1.98939,0.281337,0.108375,-0.141451
0.0348179,0.305769,-2.0618,-0.171909,-1.3218,-2.09166,0.253104,0.100068,-0.165431
0.0227003,0.30078,-2.10612,-0.224436,-1.20515,-2.12566,0.236148,0.101303,-0.142903
0.0120439,0.294099,-2.14894,-0.382157,-1.13794,-1.98285,0.238184,0.132803,-0.0815646
0.00124344,0.284866,-2.18745,-0.497697,-1.06152,-1.68812,0.255673,0.139183,-0.0257598
-0.0115782,0.274939,-2.21787,-0.496047,-1.04468,-1.23937,0.260105,0.138477,-0.0354865
-0.02262,0.267526,-2.24107,-0.261626,-0.688801,-1.0432,0.218515,0.128696,-0.0465153
-0.0276611,0.265967,-2.26194,0.0470627,-0.352757,-0.965412,0.163495,0.10081,-0.0820697
-0.025721,0.26923,-2.28061,0.191167,0.0558252,-0.846813,0.145397,0.0813732,-0.0264094
-0.0164178,0.273055,-2.2963,0.14533,0.440679,-0.671926,0.135117,0.0900483,0.0419843
-0.00199303,0.275747,-2.30884,0.126301,0.622223,-0.558789,0.127955,0.0582767,0.0989084
0.013299,0.278429,-2.32026,0.141184,0.573718,-0.550278,0.135834,-0.00213206,0.132012
0.0239558,0.281006,-2.33097,0.150898,0.162163,-0.445201,0.197933,0.0246215,0.141745
0.0245165,0.284986,-2.33827,0.291343,-0.306858,-0.2508,0.235386,0.0253459,0.102535
0.0164257,0.292475,-2.34299,0.447283,-0.617561,-0.27214,0.191166,0.0123225,0.046439
0.00344958,0.302365,-2.35231,0.526285,-0.863541,-0.554749,0.0494107,-0.122677,0.0227444
-0.00808836,0.311084,-2.36227,0.307977,-0.545742,-0.3761,0.0855198,-0.0166171,0.00627714
-0.0119173,0.315217,-2.36905,0.10687,-0.0892475,-0.312064,0.0296098,-0.00890151,-0.0551976
-0.00866862,0.315695,-2.37562,-0.0767942,0.188073,-0.314694,0.0303653,-0.0181666,-0.0334789
-0.00234371,0.311444,-2.3816,-0.337056,0.218705,-0.233839,0.063495,-0.017343,0.0214543
0.00182826,0.303997,-2.3857,-0.367605,0.0248252,-0.181312,0.0900066,-0.0548815,-0.0100719
0.00101295,0.298669,-2.38975,-0.139702,-0.20117,-0.210388,0.053521,-0.0663783,-0.0773371
-0.00337681,0.298215,-2.39443,0.0309511,-0.330231,-0.234987,0.041924,-0.0544975,-0.0718836
-0.0078644,0.298373,-2.39963,-0.0117148,-0.280124,-0.254862,0.0448093,-0.0738327,-0.0343257
-0.0115292,0.29743,-2.40471,-0.0821341,-0.293953,-0.210177,0.0341855,-0.0977895,-0.0495403
-0.0166272,0.295728,-2.41001,-0.143546,-0.328823,-0.339778,-0.0313366,-0.138984,-0.0722285
-0.0200549,0.286949,-2.41731,-0.809265,-0.0933525,-0.309378,0.034767,-0.0646595,-0.00848824
-0.0175086,0.270629,-2.42427,-0.690731,-0.0343672,-0.361392,-0.0673886,-0.0812493,-0.163483
-0.0178418,0.261469,-2.43272,-0.241481,-0.123894,-0.423091,-0.0671619,-0.068389,-0.318597
-0.0176626,0.262467,-2.44102,0.332153,-0.0805493,-0.384709,-0.0777919,-0.0284847,-0.328313
-0.016724,0.273605,-2.44865,0.748883,-0.0132114,-0.377623,-0.0873992,-0.0274032,-0.253152
-0.013137,0.29068,-2.45688,0.895376,0.147045,-0.452432,-0.138202,-0.0283681,-0.136562
-0.00578562,0.307231,-2.467,0.706126,0.282284,-0.523351,-0.16485,-0.0150084,0.0143465
0.00478922,0.318184,-2.47845,0.404769,0.413467,-0.563176,-0.150698,0.0047521,0.112102
0.0171033,0.324485,-2.49036,0.26677,0.426705,-0.566509,-0.148519,0.0263247,0.116927
0.0284352,0.329483,-2.50208,0.283944,0.30694,-0.53103,-0.157197,0.057715,0.114803
0.0354756,0.336309,-2.51297,0.446145,0.016162,-0.496613,-0.165073,0.0751375,0.098323
0.0356532,0.346523,-2.52459,0.615701,-0.382298,-0.56236,-0.176944,0.0772391,0.0906727
0.0295089,0.359944,-2.53722,0.758211,-0.638747,-0.586925,-0.172603,0.108554,0.0510486
0.0214769,0.375216,-2.55081,0.778234,-0.622151,-0.647666,-0.183464,0.141513,0.0361557
0.0158166,0.388341,-2.56569,0.53221,-0.486463,-0.707429,-0.174657,0.149527,0.0886157
0.0138492,0.395533,-2.58145,0.20897,-0.326464,-0.737823,-0.165612,0.153382,0.124333
0.014281,0.397021,-2.59727,-0.0053544,-0.2822,-0.71644,-0.142076,0.154098,0.102619
0.0126287,0.396651,-2.61235,0.0098938,-0.485345,-0.684715,-0.127722,0.144357,0.0520016
0.00682705,0.396841,-2.62735,0.0048045,-0.665496,-0.709225,-0.134989,0.119768,0.0406122
-0.00087766,0.396317,-2.64346,-0.0520843,-0.688568,-0.78431,-0.140731,0.0828461,0.031406
-0.00639342,0.394865,-2.66107,-0.10246,-0.551799,-0.835196,-0.141315,0.0805762,0.0105997
-0.00639342,0.394865,-2.66107,-0.10246,-0.551799,-0.835196,-0.141315,0.0805762,0.0105997
-0.00951589,0.392897,-2.67934,-0.0935887,-0.472949,-0.860017,-0.098265,0.0634849,0.0066781
-0.0115428,0.391647,-2.69824,-0.0580072,-0.442114,-0.878244,-0.0849431,0.0435458,0.00901324
-0.0128747,0.390912,-2.71689,-0.0426224,-0.415031,-0.84341,-0.0599352,0.0322772,0.0322428
-0.0141411,0.390465,-2.73458,-0.0338955,-0.382221,-0.806283,-0.0549169,0.0165592,0.0571317
-0.0147078,0.389295,-2.75196,-0.120215,-0.331663,-0.801572,-0.0581858,-0.0151777,0.101041
-0.0142196,0.385991,-2.76909,-0.231822,-0.277153,-0.778562,-0.037059,-0.0186793,0.117998
-0.0137781,0.381118,-2.78551,-0.268269,-0.311148,-0.740119,-0.0201088,-0.0210474,0.105514
-0.0150113,0.376273,-2.80102,-0.236209,-0.367023,-0.702195,-0.0197766,-0.0233822,0.0818678
-0.0164632,0.371974,-2.81621,-0.226141,-0.300573,-0.709846,-0.0323166,-0.0297485,0.0551274
-0.0150553,0.367547,-2.83137,-0.248104,-0.118898,-0.699169,-0.0207713,-0.0364402,0.0358586
-0.0115791,0.362521,-2.84609,-0.267123,-0.0802977,-0.671053,-0.00164019,-0.0417601,0.0555637
-0.00825128,0.357616,-2.86002,-0.232106,-0.0673827,-0.637304,-0.00231112,-0.052348,0.0407062
-0.00441676,0.353661,-2.87319,-0.165919,-0.0165306,-0.600225,-0.00223478,-0.0692536,0.0202551
-0.000368859,0.350916,-2.88586,-0.113053,-0.022019,-0.586195,-0.00186615,-0.084373,0.0339068
0.00336226,0.349533,-2.89804,-0.0223744,-0.0364511,-0.561292,-0.00497475,-0.0932101,0.029295
0.00643239,0.349983,-2.90976,0.0623336,-0.0492318,-0.543287,-0.00434869,-0.107664,0.0317662
0.00927785,0.351373,-2.9209,0.0762017,-0.0435446,-0.504306,0.00110054,-0.115285,0.0537897
0.0127124,0.352487,-2.93134,0.0407918,0.0535794,-0.477926,-0.0112897,-0.122922,0.0544387
0.0185914,0.352852,-2.94134,0.0194471,0.178048,-0.463062,-0.023167,-0.130026,0.040417
0.0254967,0.353494,-2.95096,0.0746201,0.156572,-0.43542,-0.00984906,-0.131728,0.0276163
0.0305634,0.355559,-2.95975,0.147593,0.0468422,-0.394095,0.000466548,-0.123428,0.0194728
0.0337509,0.358265,-2.96804,0.131322,-0.0152657,-0.380546,-0.0134897,-0.128309,0.0142053
0.0360933,0.359885,-2.97607,0.0429367,-0.0331399,-0.360754,-0.00324085,-0.124686,0.00675428
0.03749,0.359172,-2.9829,-0.0975333,-0.0705463,-0.275198,0.0321255,-0.118868,-0.00486881
0.0376077,0.356153,-2.98802,-0.172774,-0.0762586,-0.229977,0.0267571,-0.111671,-0.0726339
0.0384479,0.352629,-2.99308,-0.167077,-0.0221054,-0.270492,-0.0168014,-0.117097,-0.163269
0.0402989,0.349413,-2.99918,-0.128778,-0.0128235,-0.311494,-0.0343593,-0.100479,-0.203508
0.0419841,0.347032,-3.00548,-0.0803581,-0.0269423,-0.275858,-0.0106458,-0.0546675,-0.206774
0.0437818,0.345949,-3.01054,0.00165824,0.0529988,-0.206829,0.0116817,-0.0294105,-0.198834
0.0470051,0.3471,-3.01409,0.129153,0.144823,-0.135554,0.0114174,-0.0172042,-0.170676
0.0510575,0.350479,-3.017,0.209611,0.134479,-0.126437,0.00527465,-0.0270132,-0.0817147
0.053501,0.354182,-3.02002,0.161337,0.00868303,-0.131215,0.0156854,-0.0210819,0.0256543
0.0536492,0.35639,-3.02212,0.0786689,-0.0574983,-0.0425717,0.0623102,0.0112775,0.0600511
0.0522371,0.357979,-3.02193,0.094458,-0.0789314,0.0667117,0.0740214,0.0447029,0.0280264
0.0494666,0.360487,-3.01972,0.142406,-0.119227,0.147082,0.0754358,0.0670854,0.0241345
0.0456944,0.363677,-3.01638,0.148519,-0.142688,0.177614,0.0603059,0.0774534,0.0540727
0.0415312,0.36653,-3.01248,0.122662,-0.122888,0.199688,0.0631062,0.0850932,0.0734118
0.0375668,0.368814,-3.00796,0.0933384,-0.125139,0.238262,0.0769214,0.0965937,0.0793752
0.0329309,0.370668,-3.00207,0.087469,-0.131949,0.330465,0.113369,0.105219,0.0640417
0.0277734,0.373301,-2.99437,0.169295,-0.113049,0.39108,0.122351,0.104361,0.0214065
0.0228057,0.37707,-2.98605,0.162104,-0.0802493,0.387247,0.0990833,0.0915558,0.0258192
0.0186405,0.379267,-2.97837,0.0286198,-0.0605897,0.322417,0.0790139,0.0637975,0.0656462
0.0153787,0.378469,-2.97221,-0.114728,-0.0426461,0.257746,0.0780259,0.0611027,0.0517413
0.0124945,0.375358,-2.96693,-0.186518,-0.051564,0.235312,0.0837584,0.0744151,0.000906289
0.0098208,0.371847,-2.96201,-0.169846,-0.0353131,0.219264,0.0614835,0.0943549,-0.0537844
0.00807935,0.368865,-2.95731,-0.125983,0.053967,0.223483,0.0478536,0.101234,-0.0795766
0.00933334,0.367064,-2.95224,-0.0598714,0.258052,0.255496,0.037599,0.10729,-0.0770164
0.0142157,0.366554,-2.94667,-0.00493814,0.413297,0.261996,0.0246015,0.086886,-0.0182477
0.0206319,0.366511,-2.94107,-0.0131263,0.413772,0.255653,0.0147974,0.063362,0.0830582
0.0259638,0.365826,-2.93576,-0.0700317,0.299071,0.235438,0.0106691,0.0415126,0.153683
0.0292202,0.363793,-2.93093,-0.158459,0.198461,0.214304,0.00673843,0.02762,0.177762
0.030479,0.359879,-2.92653,-0.234498,0.0820613,0.180645,0.00600852,0.00973803,0.15604
0.0294421,0.35529,-2.92327,-0.23166,-0.0824497,0.112167,-0.0113945,-0.000908047,0.103079
0.0255143,0.35041,-2.92142,-0.270925,-0.218484,0.0530457,-0.00676458,-0.00560957,0.0711591
0.0255143,0.35041,-2.92142,-0.270925,-0.218484,0.0530457,-0.00676458,-0.00560957,0.0711591
0.0206233,0.344286,-2.92023,-0.34697,-0.210664,0.0514936,0.0186743,-0.00111386,0.0392459
0.0173635,0.337322,-2.91864,-0.33247,-0.0694182,0.0852348,0.0132942,-0.0068225,-0.0394843
0.0157813,0.331951,-2.91681,-0.199256,-0.0554775,0.0694683,-0.000804763,-0.0335325,-0.0830755
0.0135617,0.329374,-2.91586,-0.0772818,-0.142868,0.0109442,-0.025787,-0.0567523,-0.0641265
0.0104698,0.32804,-2.91627,-0.0756698,-0.152829,-0.046621,-0.0306328,-0.0670636,-0.0307627
0.00868015,0.325837,-2.91763,-0.147454,-0.0745522,-0.082131,-0.0308674,-0.0788697,-0.00374812
0.00849837,0.322563,-2.91955,-0.168026,-0.0185921,-0.100893,-0.0224185,-0.0813628,-0.00444329
0.0084091,0.319614,-2.9218,-0.126681,-0.0713577,-0.120512,-0.0175351,-0.0848932,-0.000673831
0.00709678,0.317478,-2.92462,-0.0978569,-0.141872,-0.147959,-0.0147835,-0.0922934,0.01917
0.00473575,0.315697,-2.92793,-0.0920448,-0.195076,-0.171857,-0.00276219,-0.0913761,0.0365832
0.00168872,0.313916,-2.93158,-0.0996196,-0.225532,-0.169137,0.0183065,-0.0886445,0.0442699
-0.00269688,0.312079,-2.93499,-0.0984034,-0.326603,-0.154275,0.0327943,-0.0866082,0.0490296
-0.00932125,0.311014,-2.93785,-0.0497772,-0.404407,-0.115672,0.0429315,-0.0844786,0.0155962
-0.0167608,0.310693,-2.94022,0.00692039,-0.396109,-0.121534,0.0274627,-0.0957703,-0.0188371
-0.0233121,0.311059,-2.943,0.023241,-0.360265,-0.147555,0.0165914,-0.113031,-0.0231478
-0.0296162,0.311944,-2.94618,0.0590163,-0.379162,-0.150229,0.0365751,-0.114035,-0.0355713
-0.0364116,0.313871,-2.94927,0.131272,-0.385199,-0.160305,0.0420714,-0.117069,-0.0635231
-0.0419118,0.317318,-2.95294,0.174958,-0.279655,-0.20666,0.0470404,-0.140357,-0.0762257
-0.0469539,0.319562,-2.9576,0.00115384,-0.392971,-0.244827,0.079793,-0.160199,0.00284654
-0.0530045,0.317964,-2.96325,-0.179647,-0.381735,-0.293013,0.0716711,-0.136357,-0.0382764
-0.0585554,0.3135,-2.97017,-0.289328,-0.395019,-0.335643,0.0678156,-0.124044,-0.137101
-0.0638496,0.30848,-2.97745,-0.231231,-0.333504,-0.31217,0.0723453,-0.078485,-0.254391
-0.0662244,0.305938,-2.98325,-0.0453924,-0.070479,-0.224577,0.070702,-0.0372365,-0.318042
-0.0641885,0.307453,-2.98727,0.162339,0.124192,-0.178867,0.0567268,-0.0386465,-0.258572
-0.0604307,0.312103,-2.99049,0.257222,0.121255,-0.161169,0.0393336,-0.0402598,-0.112364
-0.0585223,0.317064,-2.99365,0.202376,-0.0378628,-0.171305,0.0245982,-0.0236095,0.0203818
-0.0592148,0.320426,-2.99705,0.135435,-0.101006,-0.166519,0.00642438,0.00587353,0.0405775
-0.0594901,0.323932,-3.00039,0.215385,-0.0206134,-0.176862,-0.0482514,0.0487503,-0.0332848
-0.0576049,0.329412,-3.00401,0.300216,0.0867709,-0.20184,-0.101315,0.0836795,-0.0328758
-0.0536231,0.335707,-3.00849,0.298525,0.157522,-0.264056,-0.148796,0.0985412,0.0264538
-0.0482859,0.341157,-3.01484,0.20809,0.158395,-0.364038,-0.191911,0.110838,0.0882884
-0.0429862,0.344533,-3.0235,0.0920012,0.0656277,-0.465916,-0.20734,0.124974,0.114329
-0.0392038,0.345641,-3.03414,-0.0211025,-0.0357412,-0.53413,-0.206319,0.155099,0.101009
-0.0361834,0.344688,-3.04599,-0.112494,-0.052152,-0.57857,-0.2102,0.187955,0.0641457
-0.0330098,0.342064,-3.05876,-0.193817,-0.0561359,-0.614371,-0.205618,0.196318,0.0439222
-0.0297085,0.337786,-3.0719,-0.266161,-0.0575609,-0.605918,-0.170262,0.186715,0.0430806
-0.0274029,0.332659,-3.08452,-0.262094,-0.134428,-0.566194,-0.126294,0.163457,0.0449506
-0.0272186,0.32854,-3.09584,-0.177246,-0.212899,-0.495337,-0.0805331,0.132826,0.0384187
-0.0284129,0.325983,-3.10578,-0.126137,-0.216633,-0.447962,-0.0566136,0.0876197,0.0550627
-0.0291836,0.32356,-3.11507,-0.147962,-0.161785,-0.432786,-0.0571583,0.041226,0.0984778
-0.0292946,0.320906,-3.12422,-0.136361,-0.134844,-0.433355,-0.0417086,0.00123301,0.111369
-0.0289725,0.318617,-3.13319,-0.128304,-0.105188,-0.414033,-0.0181134,-0.0281618,0.121894
-0.0281232,0.315729,3.14134,-0.193915,-0.0960609,-0.404557,-0.0063667,-0.0483467,0.161773
-0.0280897,0.311403,3.13273,-0.260576,-0.179515,-0.405304,0.0022296,-0.0760369,0.171683
-0.0301771,0.306236,3.12414,-0.272142,-0.283325,-0.398343,0.0160735,-0.0830498,0.142799
-0.0339551,0.301131,3.11593,-0.267803,-0.333457,-0.370299,0.0377005,-0.0788422,0.108443
-0.037859,0.296054,3.10849,-0.273023,-0.266143,-0.320227,0.0427493,-0.0727693,0.0802453
-0.0407453,0.291082,3.1024,-0.237319,-0.204526,-0.241637,0.0518684,-0.0633984,0.0615394
-0.0426187,0.287465,3.09817,-0.142135,-0.0932333,-0.146419,0.0578863,-0.0511494,0.0286975
-0.0424405,0.28537,3.09599,-0.0824468,0.0507948,-0.0609843,0.0416579,-0.0436215,0.0177755
-0.0402384,0.28413,3.09546,-0.0389494,0.147711,0.0156936,0.0344948,-0.0452853,0.0120465
-0.0372157,0.284455,3.09691,0.0847987,0.187277,0.124242,0.0412509,-0.0341236,-0.0181906
-0.0349693,0.287721,3.10075,0.262381,0.126065,0.224635,0.0258804,-0.0182499,-0.0480407
-0.0349693,0.287721,3.10075,0.262381,0.126065,0.224635,0.0258804,-0.0182499,-0.0480407
-0.0344846,0.294874,3.10614,0.464987,0.103301,0.248615,-0.017288,-0.0234376,-0.101088
-0.0327017,0.30498,3.11123,0.525708,0.258342,0.19462,-0.0564442,-0.0428346,-0.119457
-0.0266625,0.313469,3.11475,0.284347,0.421873,0.117941,-0.0640258,-0.0783588,-0.0668448
-0.0194772,0.314863,3.11623,-0.161629,0.287479,0.00638907,-0.0694026,-0.110007,-0.0264379
-0.0173436,0.307921,3.11438,-0.491179,-0.137774,-0.177592,-0.0974104,-0.122245,-0.0996832
-0.0214762,0.298026,3.10866,-0.46392,-0.3898,-0.342609,-0.099925,-0.0837772,-0.300818
-0.0256151,0.291635,3.10056,-0.161338,-0.172601,-0.394157,-0.0673881,-0.0229062,-0.438657
-0.021287,0.292393,3.09328,0.202329,0.425154,-0.295071,-0.00215521,0.0255947,-0.429089
-0.00639955,0.297747,3.08844,0.273274,0.848013,-0.17888,0.0319969,0.057115,-0.216246
0.0114627,0.302048,3.08584,0.15396,0.825504,-0.0712546,0.0696229,0.034491,-0.00608784
0.0262263,0.304628,3.0858,0.13056,0.654671,0.0735543,0.12449,0.0172696,0.0736103
0.0367306,0.308242,3.08892,0.235034,0.490129,0.23734,0.136136,0.0406583,0.0872049
0.0430801,0.314569,3.09516,0.372473,0.336745,0.384163,0.122895,0.0656017,0.103734
0.0447681,0.323433,3.10437,0.459842,0.120375,0.530268,0.115999,0.0757735,0.131373
0.041726,0.333161,3.11614,0.449309,-0.0341842,0.624558,0.0986261,0.0855458,0.159004
0.0357777,0.341631,3.12942,0.332276,-0.107688,0.657701,0.0735816,0.0929287,0.17206
0.0287033,0.346692,-3.14004,0.131392,-0.132,0.653324,0.0513011,0.111364,0.160055
0.0215553,0.348101,-3.12627,-0.00339803,-0.113974,0.643841,0.0416288,0.125003,0.0837554
0.0147795,0.34808,-3.11288,0.00108646,-0.110185,0.616338,0.0314107,0.143095,-0.00613332
0.00839152,0.348885,-3.10034,0.059517,-0.102534,0.562726,0.0221587,0.152153,-0.0719362
0.00242992,0.349908,-3.08943,0.021702,-0.108968,0.4606,0.00939031,0.146919,-0.0762084
-0.00272036,0.3492,-3.08078,-0.0950073,-0.116107,0.360328,0.00646243,0.151686,-0.0799642
-0.00714013,0.34647,-3.0738,-0.158449,-0.0720767,0.303922,0.0122547,0.166804,-0.128065
-0.00946095,0.343683,-3.06788,-0.0995115,0.0446718,0.262564,0.00968575,0.176251,-0.182576
-0.0090483,0.343326,-3.0625,0.0813182,0.187424,0.258898,0.0220699,0.176358,-0.204059
-0.00633989,0.346748,-3.05669,0.247409,0.260114,0.286479,0.0341913,0.175504,-0.150967
-0.00334937,0.352108,-3.05073,0.271526,0.234658,0.260286,0.00573788,0.153348,-0.0354478
-0.00111639,0.356719,-3.04584,0.177173,0.15508,0.194209,-0.0116034,0.118092,0.0582628
0.000153964,0.358862,-3.04256,0.0362279,0.0967489,0.120142,-0.0139228,0.101438,0.0928523
0.00135907,0.358652,-3.04062,-0.0444099,0.0810717,0.0609365,-0.0195984,0.0888667,0.0674886
0.00151148,0.357618,-3.04013,-0.0486371,-0.0544241,-0.00981632,-0.0245177,0.0766369,0.0355635
0.0001124,0.35715,-3.04101,0.000756495,-0.0748082,-0.0689436,-0.025679,0.0751307,-0.0283131
4.08467e-05,0.357605,-3.04295,0.0341419,-0.0132535,-0.115098,-0.0314866,0.0790662,-0.0562126
0.000888344,0.35787,-3.0459,-0.00802102,-0.0110156,-0.160859,-0.0220265,0.0644222,-0.0359659
0.00225273,0.356923,-3.04963,-0.0847243,0.0276,-0.186013,-0.0168813,0.0667545,-0.0426861
0.00420552,0.354526,-3.05365,-0.142352,0.0175635,-0.19245,-0.00992541,0.0683219,-0.0508598
0.00552727,0.351607,-3.05769,-0.127197,-0.00946817,-0.183867,-0.00491442,0.0698856,-0.0724394
0.00704804,0.349643,-3.06126,-0.0448674,0.0536068,-0.160234,-0.0130913,0.0665159,-0.0870786
0.00983971,0.349382,-3.06491,0.03341,0.104938,-0.193185,-0.0419447,0.0463734,-0.0574094
0.013454,0.350085,-3.06934,0.038392,0.0938794,-0.226536,-0.0420717,0.0391906,0.00143802
0.0164886,0.350218,-3.07437,0.00219061,0.0430493,-0.244517,-0.029937,0.0308775,0.0539926
0.0183963,0.349655,-3.07962,-0.0448304,-0.0305387,-0.251435,-0.0181977,0.0282882,0.0721903
0.0190047,0.348167,-3.08483,-0.0875545,-0.078862,-0.243326,-0.0105085,0.0257606,0.0715134
0.0186321,0.346061,-3.09002,-0.107019,-0.134265,-0.253507,-0.0155581,0.0199815,0.0532541
0.017221,0.343891,-3.09549,-0.10018,-0.189608,-0.268053,-0.0162882,0.0187627,0.036571
0.0154449,0.341879,-3.10126,-0.0946382,-0.175257,-0.281483,-0.0264981,0.019645,0.0116247
0.0138381,0.339619,-3.10759,-0.134673,-0.207052,-0.31845,-0.037034,0.01573,0.00971639
0.0118294,0.336264,-3.11432,-0.184938,-0.208156,-0.312579,-0.0236941,0.0231085,-0.00977689
0.00983899,0.332575,-3.12066,-0.16504,-0.211784,-0.291721,-0.0236124,0.0395514,-0.0434883
0.00747339,0.32982,-3.12676,-0.104251,-0.203583,-0.288809,-0.0160427,0.0345355,-0.0716411
0.00643332,0.328304,-3.1327,-0.0459274,-0.0873574,-0.278088,-0.0231642,0.0385329,-0.077019
0.00760635,0.327785,-3.13869,-0.00522603,-0.00299037,-0.289798,-0.0265952,0.0293286,-0.0489665
0.00943472,0.327941,3.13854,0.0273295,-0.0156761,-0.270465,-0.00955739,0.0287745,-0.0107167
0.0103548,0.328881,3.13295,0.0700557,-0.0881199,-0.262212,-0.0107457,0.0246292,0.0140111
0.0103548,0.328881,3.13295,0.0700557,-0.0881199,-0.262212,-0.0107457,0.0246292,0.0140111
0.00961692,0.330109,3.12738,0.0467144,-0.152818,-0.264325,-0.00879234,0.0111116,0.0343881
0.00844599,0.330197,3.12178,-0.0344832,-0.145937,-0.2683,-0.0223787,0.00779268,0.046317
0.00746315,0.328929,3.11591,-0.0760179,-0.145855,-0.290763,-0.0217724,-0.0039967,0.0351229
0.00641743,0.327187,3.10953,-0.101137,-0.162488,-0.315482,-0.0173227,-0.00531,0.0206916
0.00538095,0.324776,3.10299,-0.13626,-0.152718,-0.305796,-0.00496227,-0.00126228,0.0108801
0.0043566,0.321903,3.09674,-0.150365,-0.142784,-0.289207,0.00708243,0.00483385,-0.00575018
0.00369902,0.318768,3.09103,-0.149462,-0.0983827,-0.254301,0.0138824,0.00704566,-0.0225978
0.00397894,0.316704,3.08596,-0.0430517,-0.0365659,-0.234713,0.00305491,0.00871736,-0.0573699
0.00479449,0.316808,3.08126,0.0428387,-0.0297363,-0.208872,0.00331768,0.00522974,-0.0366231
0.00530479,0.31768,3.07726,0.0390772,-0.0460633,-0.175189,0.00692359,0.000702649,0.0141888
0.00505956,0.318165,3.07369,0.0096653,-0.0813406,-0.162206,0.00477694,-0.0100361,0.035309
0.00460099,0.318027,3.07023,-0.01814,-0.0703832,-0.166848,-0.00791027,-0.0100763,0.0300902
0.00418372,0.317492,3.06664,-0.0223792,-0.0911008,-0.169863,-0.0015637,-0.0142007,0.0216379
0.00326469,0.317019,3.06335,-0.0287729,-0.107828,-0.138718,0.0106004,-0.00447199,0.0133809
0.00186263,0.3163,3.06085,-0.0506268,-0.108659,-0.107695,0.0109098,-0.00423995,0.00660455
0.000486274,0.315198,3.05851,-0.073898,-0.0997764,-0.118979,-0.00427699,-0.0140006,0.00223339
-0.000632208,0.31362,3.05601,-0.10066,-0.0922255,-0.117064,0.000692949,-0.0134866,-0.00869244
-0.00142689,0.311514,3.05372,-0.121858,-0.0576656,-0.0933879,0.00633261,-0.00880757,-0.024586
-0.00210961,0.308992,3.05208,-0.138107,-0.0870377,-0.0591973,0.00582442,-0.0051361,-0.0286237
-0.00364218,0.306891,3.05097,-0.0709419,-0.0684839,-0.0450769,-0.00473721,-0.0100989,-0.0652682
-0.00420921,0.306347,3.05015,-0.000169488,-0.026448,-0.0366433,-0.0162046,-0.0114105,-0.0708894
-0.00415631,0.306512,3.04938,0.00338291,0.0108838,-0.0372718,-0.0145768,-0.0224075,-0.0366829
-0.00322701,0.306231,3.04888,-0.030097,0.0658182,-0.00999966,-0.0121819,-0.0181437,-0.00513124
-0.00205869,0.305447,3.04887,-0.03927,0.0272592,0.00528254,-0.0129292,-0.0207531,0.0169127
-0.00244587,0.305071,3.04906,0.0063992,-0.0543708,0.0080068,-0.0113847,-0.0277798,0.0152243
-0.00412594,0.305704,3.04919,0.0480963,-0.103351,0.00190444,-0.0173514,-0.0202638,0.0162799
-0.00661583,0.306655,3.04925,0.0425015,-0.136422,0.00493742,-0.0113625,-0.0202574,0.0213669
-0.00909519,0.307461,3.04941,0.0276526,-0.101419,0.0103625,-0.0120529,-0.00850245,0.00830251
-0.0107968,0.307942,3.0496,0.00913853,-0.0687575,0.00197684,-0.0203509,-0.00561821,0.00406671
-0.0120635,0.308239,3.04926,0.00392646,-0.0616519,-0.0401377,-0.0274305,-0.0133918,-0.00345296
-0.0129073,0.308732,3.04817,0.0285652,-0.0488134,-0.0659235,-0.0200977,-0.00265276,-0.0106623
-0.0135008,0.309665,3.04663,0.0437652,-0.0576274,-0.0815395,-0.000371046,0.00606439,-0.00477397
-0.0139742,0.310277,3.04502,0.00757259,-0.0228501,-0.0765078,0.0133218,0.0148107,0.00940692
-0.0139277,0.309906,3.04341,-0.0495786,-0.0113147,-0.0822013,0.0171854,0.0137092,0.0196986
-0.0137313,0.308802,3.04182,-0.0551297,-0.00406738,-0.0715605,0.026677,0.0141224,0.00470209
-0.0135094,0.307879,3.04051,-0.0302478,-0.0104814,-0.0553344,0.0287277,0.0190412,-0.011235
-0.0133465,0.307454,3.03967,-0.011269,-0.00564336,-0.0234527,0.0351965,0.0158899,-0.016979
-0.0130138,0.307105,3.03941,-0.0220026,0.0203597,0.00230851,0.0302269,0.0133441,-0.0112996
-0.0125508,0.306387,3.03965,-0.0403675,0.0156417,0.0273336,0.0271485,0.00751811,-0.00762886
-0.0124785,0.305485,3.04028,-0.0297748,0.00201735,0.0350451,0.0147844,0.0037896,-0.0169237
-0.0123351,0.304996,3.04103,-0.0130693,0.00937478,0.043169,0.00653179,0.00165972,-0.0248163
-0.0119997,0.304603,3.04201,-0.018536,0.0400922,0.0605134,0.00267327,0.000644088,-0.0173703
-0.0112762,0.304134,3.04324,-0.0229483,0.0534707,0.059769,-0.00662123,-0.00364929,-0.015482
-0.0105779,0.303889,3.04439,0.00286572,0.0407809,0.0495731,-0.0159232,-0.0103521,-0.0157679
-0.0104086,0.304259,3.0452,0.039926,-0.00484048,0.0277108,-0.0268281,-0.00951096,-0.0125047
-0.0107374,0.305407,3.04568,0.0738805,-0.0096242,0.0224817,-0.0168898,-0.00635558,-0.0159501
-0.0113115,0.306778,3.04625,0.0586968,-0.0235335,0.0281532,-0.0144701,-0.00176772,-0.000317037
-0.0119232,0.307629,3.04695,0.0293253,-0.010475,0.0330112,-0.0180253,-0.00303221,0.00282168
-0.0125962,0.308126,3.04748,0.0245873,-0.0259776,0.0117357,-0.0240233,-0.00719714,-0.000266492
