rotationRate_x,rotationRate_y,rotationRate_z,acceleration_x,acceleration_y,acceleration_z,relativeAltitude
-1.06185,-1.92212,-0.436188,-0.0459361,0.241065,-0.362368,0
-1.33666,-1.37225,-0.190498,-0.00782883,0.0778795,-0.0440064,0
-1.48936,-1.0517,0.394113,0.0815882,-0.0051951,0.0592622,0
-1.66041,-1.14484,0.73507,0.118467,0.0065438,-0.0113356,0
-1.59757,-0.583779,0.569139,0.0972819,0.0745174,0.118296,0
-1.14655,0.30051,0.500059,0.0531825,0.0219443,0.216184,0
-0.583253,0.771056,0.598883,0.0390389,0.0500531,0.15476,0
-0.0957983,0.895932,0.721015,0.0209936,0.0772653,0.1479,0
0.182424,0.232053,0.617196,0.0275213,0.10215,0.133059,0
0.308537,-0.501304,0.36556,0.040337,0.0963492,0.181482,0
0.341019,-0.702998,0.206204,0.0283017,0.0299376,0.312739,0
0.312493,-0.374199,0.28548,0.0637829,-0.0304815,0.409693,0
0.314757,0.0681525,0.608368,0.0550997,-0.0484488,0.383393,0
0.287672,0.265367,0.884681,0.0467064,-0.0392154,0.307996,0
0.236219,0.152874,0.766009,0.0966749,-0.0225485,0.234923,0
0.0908534,-0.0545213,0.493723,0.0582845,-0.0381641,0.0769722,0
-0.0546111,0.105637,0.320331,0.0321952,-0.0445492,0.0353833,0
-0.207041,0.473509,0.306804,0.0159008,-0.0637987,-0.00837916,0
-0.334502,0.8164,0.393673,0.00358856,-0.0308038,-0.0625365,0
-0.342383,1.00492,0.459713,0.00344118,-0.0146482,-0.14942,0
-0.145255,1.05417,0.443366,-0.0122091,0.0360684,-0.218235,0
0.175643,0.75565,0.325278,0.0165515,0.0295021,-0.310121,0
0.355529,0.0766028,0.00334197,0.0207769,0.0236945,-0.330384,0
0.319486,-0.612146,-0.315033,0.0193541,0.028992,-0.356077,0
0.223561,-0.744512,-0.362925,-0.00602908,0.0114509,-0.23832,0
0.014116,-0.462606,-0.152738,-0.0224266,-0.0154764,-0.152628,0
-0.321861,-0.170986,0.0837465,-0.0377169,0.0106765,-0.111396,0
-0.560289,-0.0479497,0.195518,-0.125433,0.112352,-0.155444,0
-0.454096,-0.0168589,0.128771,-0.191191,0.197214,-0.202496,0
-0.0058695,-0.133035,-0.00102623,-0.165793,0.172961,-0.152181,0
0.407411,-0.184542,-0.261612,-0.0845259,0.106539,-0.01975,0
0.519321,-0.190571,-0.276583,-0.0567998,0.0211902,0.0714617,0
0.444,0.137759,0.110008,-0.0443873,-0.025534,0.132497,0
0.364937,0.694018,0.631642,-0.0438818,-0.0305349,0.199784,0
0.282083,0.984194,0.919641,-0.0759728,-0.0150586,0.209378,0
0.242342,0.990867,0.831555,-0.112781,0.0461427,0.19769,0
0.253741,0.803242,0.429976,-0.0491931,0.093402,0.181856,0
0.288583,0.192924,0.0349272,-0.0153514,0.0784881,0.135982,0
0.366936,-0.453901,-0.184702,-0.0203519,0.0745781,0.139838,0
0.442139,-0.712721,-0.227491,-0.0357726,0.0396339,0.239783,0
0.386229,-0.733629,-0.0922325,-0.0571752,-0.00414854,0.29952,0
0.220916,-0.697011,0.115751,-0.0695241,-0.025654,0.318172,0
0.0436227,-0.676674,0.286369,-0.0645873,-0.0603612,0.258225,0
-0.0776783,-0.36716,0.168713,0.0241619,-0.0586488,0.266324,0
-0.297367,-0.378462,-0.038273,0.0471475,-0.0823173,0.12635,0
-0.376366,-0.601557,-0.0814872,0.0359572,-0.0898242,0.0310982,0
-0.23459,-0.78297,0.0544372,0.0306434,-0.0921869,-0.0398709,0
-0.0143495,-0.902171,0.0565287,0.0493416,-0.0784461,-0.130838,0
0.202433,-1.07979,-0.0375589,0.0499016,-0.0564101,-0.223792,0
0.455145,-1.12281,-0.0646607,0.0344568,-0.0401055,-0.277768,0
0.823759,-0.908807,-0.0698105,-0.0305603,-0.0361309,-0.265085,0
1.027,-0.459825,-0.0416371,-0.0840492,-0.0737279,-0.195702,0
1.027,-0.459825,-0.0416371,-0.0840492,-0.0737279,-0.195702,0.0554962
0.901832,-0.0879443,0.00555114,-0.076303,-0.157912,-0.147048,0.0554962
0.448958,0.111969,-0.00215149,-0.045323,-0.248169,-0.109005,0.0554962
-0.239754,0.225753,-0.021317,-0.0366604,-0.234267,-0.123815,0.0554962
-0.95717,0.486059,-0.0299441,-0.0349262,-0.115013,-0.163572,0.0554962
-1.29107,0.92397,0.109744,-0.050808,0.0376551,-0.195095,0.0554962
-0.991721,1.28581,0.305732,-0.0231997,0.153879,-0.202078,0.0554962
-0.34982,0.990433,0.445253,0.045549,0.159063,-0.204827,0.0554962
0.0209483,0.250186,0.383622,0.0963809,0.092895,-0.16255,0.0554962
0.0281683,-0.300711,0.283103,0.104125,0.0425859,-0.075705,0.0554962
-0.0512453,-0.263391,0.294398,0.0727727,0.00719804,0.0298762,0.0554962
-0.135187,0.102371,0.438869,0.0388161,0.000656024,0.081445,0.0554962
-0.216899,0.397687,0.500708,0.0118788,0.00830078,0.0726377,0.0554962
-0.218335,0.481517,0.443386,-0.000314653,0.0370256,0.0599196,0.0554962
-0.00578944,0.398012,0.355803,-0.00320371,0.0532805,0.0573248,0.0554962
0.302736,0.27273,0.303633,0.0139678,0.0544325,0.104927,0.0554962
0.500043,0.175661,0.294347,0.0324407,0.0278652,0.177731,0.0554962
0.506877,0.161053,0.2724,0.0441653,-0.0036419,0.233346,0.0554962
0.528051,0.253444,0.219339,0.0462382,-0.0168201,0.249754,0.0554962
0.529034,0.383705,0.208627,0.0506496,-0.002251,0.258749,0.0554962
0.483404,0.422688,0.250293,0.0506952,-0.00741808,0.231604,0.0554962
0.436608,0.320236,0.296144,0.025548,0.00324392,0.180945,0.0554962
0.389539,0.206715,0.239046,0.00920675,0.00690699,0.144112,0.0554962
0.279136,0.123661,0.0783304,-0.0077951,0.0112053,0.10721,0.0554962
0.127595,0.159168,-0.067784,-0.00422279,0.0050673,0.0878316,0.0554962
0.0314778,0.274829,-0.0472504,0.0108422,-0.00653172,0.0428729,0.0554962
0.0248103,0.35915,0.0685435,0.0211117,0.00863524,-0.013466,0.0554962
0.0450435,0.377801,0.113281,0.0242946,0.00447428,-0.0539495,0.0554962
0.0269758,0.337738,0.0866753,0.0404663,-0.00860512,-0.0892705,0.0554962
-0.0180797,0.213963,0.0353689,0.0462944,-0.0204341,-0.131966,0.0554962
-0.0766689,0.0501513,-0.0207557,0.0477147,-0.0289221,-0.187866,0.0554962
-0.19085,-0.17197,-0.180865,0.00749596,0.0161059,-0.22705,0.0554962
-0.376712,-0.517207,-0.525371,-0.0377103,0.0812357,-0.264491,0.0554962
-0.644178,-0.631737,-0.746824,-0.0434891,0.0824128,-0.22267,0.0554962
-0.94994,-0.430917,-0.717666,-0.0370203,0.0901868,-0.138569,0.0554962
-1.11609,-0.0712819,-0.660328,-0.0551614,0.119537,-0.0989653,0.0554962
-0.949363,0.170252,-0.613559,-0.0742367,0.156856,-0.111863,0.0554962
-0.433207,0.161916,-0.515002,-0.0615315,0.151479,-0.120565,0.0554962
0.0383261,-0.0253701,-0.474089,-0.0398983,0.105462,-0.0991196,0.0554962
0.215314,-0.124806,-0.41949,-0.00482022,0.0399583,-0.0405957,0.0554962
0.0421474,-0.0464179,-0.318159,0.0206093,-0.0107332,0.0214895,0.0554962
-0.148828,0.184481,-0.189286,0.00155261,-0.0245295,0.0230205,0.0554962
-0.281473,0.339652,-0.104249,0.000278264,-0.0201923,0.00089848,0.0554962
-0.364393,0.318736,-0.0595355,0.00545092,0.00321615,-0.0260026,0.0554962
-0.156901,0.200426,0.0120774,-0.00156311,0.0211925,-0.0531972,0.0554962
0.236938,-0.0107475,0.0394005,-0.00136662,0.0496186,-0.0319239,0.0554962
0.526179,-0.270557,0.0256639,0.00390045,0.0408755,0.0133136,0.0554962
0.757511,-0.330428,0.0427307,0.000969923,0.0118109,0.0955547,0.0554962
0.85501,-0.297209,0.0836952,0.00673332,-0.00603956,0.167738,0.0554962
0.788651,-0.255603,0.0646386,-0.00175759,-0.00689335,0.209697,0.0554962
0.72323,-0.137405,-0.0183745,-0.0157854,-0.00598536,0.222644,0.0554962
0.666684,-0.0394991,-0.0814555,-0.0121081,-0.00733534,0.240644,0.0554962
0.666684,-0.0394991,-0.0814555,-0.0121081,-0.00733534,0.240644,0.110977
0.534642,-0.00537166,-0.112272,-0.00894509,-0.00846681,0.240681,0.110977
0.445933,0.0240616,-0.112037,0.00432975,-0.0326745,0.216987,0.110977
0.291725,-0.0421046,-0.133233,0.00892647,-0.036867,0.187227,0.110977
0.0974341,-0.0286482,-0.185474,-0.00987561,-0.0315,0.152265,0.110977
0.0585824,0.0772843,-0.155375,-0.0263637,-0.0349975,0.11997,0.110977
-0.00559041,0.132303,-0.142133,-0.0375454,-0.0289674,0.0812216,0.110977
-0.0923312,0.176103,-0.12208,-0.0345786,-0.0540055,0.0675951,0.110977
-0.136071,0.225791,-0.106083,-0.0282442,-0.0600575,0.0534439,0.110977
-0.143019,0.20116,-0.0555802,-0.0213301,-0.0561819,0.0392323,0.110977
-0.133206,0.049479,-0.0310072,-0.0162051,-0.0611026,0.0305695,0.110977
-0.134876,-0.097505,-0.0956499,-0.0260721,-0.0829656,0.0281138,0.110977
-0.229396,-0.259246,-0.246852,-0.0672209,-0.0648213,0.00248599,0.110977
-0.384556,-0.379444,-0.463554,-0.093938,-0.0428547,-0.0470653,0.110977
-0.46647,-0.228308,-0.556609,-0.0905597,-0.0673489,-0.112231,0.110977
-0.428766,0.174619,-0.414458,-0.0604901,-0.0766687,-0.158087,0.110977
-0.351285,0.507227,-0.192245,-0.0125407,-0.111594,-0.200052,0.110977
-0.414033,0.475916,-0.161137,0.0312589,-0.11897,-0.251507,0.110977
-0.630332,0.222748,-0.15671,0.07286,-0.12815,-0.257657,0.110977
-1.13458,0.107695,-0.0482971,0.0895951,-0.141439,-0.24623,0.110977
-1.61841,0.48289,0.0694194,0.0737881,-0.0379539,-0.211698,0.110977
-1.36165,0.844305,0.231407,0.0328049,0.104581,-0.240743,0.110977
-0.498356,0.801954,0.395808,0.0259859,0.187773,-0.254237,0.110977
0.155797,0.277853,0.380271,0.0588648,0.131707,-0.245647,0.110977
0.313057,-0.238485,0.251726,0.0880098,0.0442537,-0.146296,0.110977
0.145347,-0.335111,0.188327,0.0728235,-0.0165269,-0.0304664,0.110977
-0.0659698,0.0822615,0.219624,0.0425792,-0.0079422,0.0706897,0.110977
-0.155004,0.547987,0.288635,0.0265552,0.029152,0.0787251,0.110977
-0.082004,0.738449,0.339071,0.0448883,0.0590735,0.0413527,0.110977
0.113625,0.563818,0.350209,0.062534,0.085078,0.0147188,0.110977
0.391429,0.0626984,0.310744,0.0805712,0.0845529,0.00317663,0.110977
0.648623,-0.27552,0.326252,0.0803925,0.0764779,0.0741988,0.110977
0.808858,-0.320298,0.432672,0.061874,0.0559281,0.148392,0.110977
0.864509,-0.272916,0.46505,0.0396089,0.0482602,0.197837,0.110977
0.793139,-0.310513,0.377901,0.0306131,0.0462489,0.210441,0.110977
0.702978,-0.33361,0.326962,0.035316,0.0269829,0.222034,0.110977
0.551767,-0.194732,0.372077,0.0341526,0.00894967,0.247348,0.110977
0.270564,0.0683358,0.452754,0.0245925,-0.0104329,0.271883,0.110977
-0.192507,0.190469,0.424053,0.0201131,-0.00676185,0.231338,0.110977
-0.387034,0.253606,0.270394,0.0154823,-0.0232124,0.139543,0.110977
-0.266986,0.179882,0.188153,0.000852898,0.0534935,0.0693551,0.110977
-0.0449107,0.00890449,0.212861,-0.00441429,0.0736842,0.0171873,0.110977
0.165388,-0.139558,0.214603,0.000587262,0.0560958,-0.0104607,0.110977
0.297977,-0.259514,0.192402,0.00396511,0.0419834,-0.0112414,0.110977
0.362332,-0.314965,0.166278,-0.00178954,0.0171246,0.00385129,0.110977
0.382155,-0.245869,0.109407,-0.00414566,0.000533223,0.0339079,0.110977
0.343728,-0.164397,0.092994,0.00999196,-0.0262834,0.051894,0.110977
0.285732,-0.0915716,0.0963847,0.0275254,-0.0430597,0.0488361,0.110977
0.224128,-0.135179,0.101159,0.0451373,-0.0624362,0.0134269,0.110977
0.143959,-0.221529,0.0642085,0.0531124,-0.0668688,-0.0347967,0.110977
0.0180994,-0.282683,0.0263083,0.0484359,-0.0725674,-0.0956387,0.110977
-0.0941433,-0.25277,-0.00166632,0.0475607,-0.0629059,-0.166831,0.110977
-0.0941433,-0.25277,-0.00166632,0.0475607,-0.0629059,-0.166831,0.269516
-0.0726068,-0.209556,-0.00593996,0.0414704,-0.0486622,-0.238917,0.269516
-0.0481411,-0.371949,-0.0563421,0.0431434,-0.0361498,-0.277223,0.269516
-0.291773,-0.655438,-0.125828,0.0221063,-0.0287146,-0.295712,0.269516
-0.863089,-0.562319,-0.15484,-0.0215154,-0.0104412,-0.260461,0.269516
-1.28122,0.069644,-0.156507,-0.0916402,0.0953299,-0.245385,0.269516
-0.907682,0.641571,-0.0539014,-0.124421,0.199724,-0.27167,0.269516
-0.0417113,0.502443,0.0240816,-0.0944721,0.216666,-0.31808,0.269516
0.567986,-0.261849,-0.119138,-0.0415992,0.158371,-0.292301,0.269516
0.70849,-0.94361,-0.26039,-0.00838944,0.0706995,-0.171923,0.269516
0.576467,-0.993578,-0.220258,-0.0209158,-0.0018338,-0.0128935,0.269516
0.322211,-0.542759,-0.152052,-0.0577399,-0.00903992,0.092162,0.269516
0.0563108,0.0180588,-0.157087,-0.0922726,0.0109114,0.112862,0.269516
0.00331988,0.437035,-0.162006,-0.0856113,0.0426578,0.0895912,0.269516
0.188077,0.410231,-0.174813,-0.0428142,0.0645823,0.0389467,0.269516
0.45125,0.0734516,-0.193337,-0.0040854,0.0746511,0.0398285,0.269516
0.695776,-0.202463,-0.168854,0.012543,0.0704778,0.112904,0.269516
0.831807,-0.300587,-0.12146,0.0127882,0.0656811,0.206686,0.269516
0.849619,-0.326763,-0.088147,0.00886575,0.0590629,0.28013,0.269516
0.745481,-0.316939,-0.0944064,0.0102109,0.0440874,0.328325,0.269516
0.575975,-0.204461,-0.101976,0.0118187,0.0418642,0.358612,0.269516
0.377217,-0.0551567,-0.0724779,0.0296495,0.0366309,0.360172,0.269516
0.137575,-0.0386978,-0.0281304,0.0393357,0.0151872,0.329209,0.269516
-0.0935944,-0.150326,-0.0965729,0.0209622,-0.0144137,0.253389,0.269516
-0.251255,-0.225731,-0.257011,-0.00397927,0.0171388,0.211009,0.269516
-0.431558,-0.154136,-0.331184,-0.0179868,0.0212413,0.161226,0.269516
-0.463693,0.0474625,-0.233238,-0.0105167,0.00177589,0.134584,0.269516
-0.462982,0.189406,-0.0843592,4.68269e-05,-0.026938,0.0811688,0.269516
-0.444147,0.217755,-0.0217174,0.00296257,-0.0355129,0.046734,0.269516
-0.430196,0.111865,-0.0313948,-0.0118705,-0.0155592,0.0103414,0.269516
-0.258126,0.0238632,-0.0275557,-0.0198073,-0.020357,0.0105579,0.269516
-0.14531,-0.110282,0.0155138,-0.0127112,-0.0398073,0.0295658,0.269516
-0.120955,-0.243186,0.0786603,-0.00611073,-0.0646073,0.0571036,0.269516
-0.0412684,-0.288137,0.128487,-0.0271501,-0.0866776,0.0687495,0.269516
-0.0336839,-0.317338,0.125967,-0.0418345,-0.104968,0.0772865,0.269516
-0.0844706,-0.313722,0.0810874,-0.0506881,-0.118605,0.0703596,0.269516
-0.0965434,-0.246741,0.0610168,-0.0496026,-0.138031,0.0588406,0.269516
-0.217908,-0.174637,-0.0363573,-0.0441824,-0.165516,0.02452,0.269516
-0.412438,-0.0946868,-0.0845916,-0.040722,-0.200464,-0.0347987,0.269516
-0.574177,0.11405,-0.0796968,-0.0320066,-0.225998,-0.0856616,0.269516
-0.675034,0.350146,-0.0878994,-0.0418444,-0.232635,-0.146816,0.269516
-0.692156,0.50269,-0.149181,-0.0780344,-0.205753,-0.219544,0.269516
-0.821879,0.513288,-0.322917,-0.108434,-0.182338,-0.288155,0.269516
-1.08374,0.683524,-0.477168,-0.103784,-0.149038,-0.359801,0.269516
-1.09365,0.850524,-0.402243,-0.0947382,-0.0516524,-0.429592,0.269516
-0.856004,0.90729,-0.332156,-0.0761414,0.0864365,-0.501574,0.269516
-0.269474,0.675518,-0.366098,-0.065883,0.202041,-0.551679,0.269516
0.473281,0.274762,-0.388921,-0.0319298,0.211575,-0.50356,0.269516
0.952532,-0.0686425,-0.386551,0.0195951,0.163179,-0.364461,0.269516
1.06812,-0.282801,-0.348407,0.0481419,0.113951,-0.207798,0.269516
0.902507,-0.218344,-0.343953,0.0580966,0.0975145,-0.0559528,0.269516
0.632978,-0.00537251,-0.336929,0.0592896,0.0956376,0.0446698,0.269516
0.632978,-0.00537251,-0.336929,0.0592896,0.0956376,0.0446698,0.478256
0.454165,0.233954,-0.26189,0.0760234,0.108605,0.102655,0.478256
0.45467,0.293713,-0.146221,0.0951377,0.128402,0.120033,0.478256
0.533559,0.125281,-0.0705717,0.114222,0.131028,0.136679,0.478256
0.614965,-0.105186,-0.0133885,0.12058,0.127916,0.1865,0.478256
0.636982,-0.221682,0.0346413,0.123095,0.118429,0.239313,0.478256
0.622651,-0.213472,0.129729,0.131155,0.0990078,0.293668,0.478256
0.492811,-0.139534,0.255847,0.133008,0.0903823,0.328791,0.478256
0.419197,-0.0748035,0.352811,0.127064,0.0834135,0.323175,0.478256
0.348935,-0.0949588,0.371698,0.115836,0.0801552,0.308882,0.478256
0.267033,-0.106846,0.265564,0.0932795,0.0901434,0.284047,0.478256
0.281514,-0.0826542,0.182338,0.0835945,0.0785036,0.279803,0.478256
0.071013,-0.00945165,0.135988,0.0993167,0.0462692,0.291339,0.478256
-0.243485,0.161744,0.106138,0.106339,0.00708237,0.268925,0.478256
-0.450464,0.334529,0.173828,0.114627,0.000337064,0.233146,0.478256
-0.667561,0.396643,0.214627,0.114242,0.00194013,0.173042,0.478256
-0.695547,0.406605,0.276856,0.106748,0.00441724,0.0951919,0.478256
-0.640017,0.35104,0.328496,0.108485,0.00665256,0.0419255,0.478256
-0.570877,0.174225,0.364911,0.100035,-0.00766756,-0.0119241,0.478256
-0.50224,0.0523075,0.413557,0.0977535,-0.035281,-0.021203,0.478256
-0.432146,-0.0143061,0.480771,0.0912472,-0.0600532,-0.0272272,0.478256
-0.338336,-0.0914368,0.534739,0.0904847,-0.0882499,-0.0348775,0.478256
-0.17752,-0.154482,0.547383,0.0892839,-0.112982,-0.0397738,0.478256
-0.145939,-0.291203,0.506091,0.0953893,-0.139738,-0.0604019,0.478256
-0.259741,-0.42335,0.455943,0.11095,-0.165921,-0.11285,0.478256
-0.265502,-0.364439,0.482454,0.108961,-0.178404,-0.159478,0.478256
-0.138886,-0.149287,0.568716,0.0944629,-0.167819,-0.215648,0.478256
0.0486576,-0.0339979,0.585553,0.0910216,-0.14772,-0.284057,0.478256
0.166578,-0.0868648,0.536813,0.127884,-0.166833,-0.32371,0.478256
0.0846373,-0.208956,0.522462,0.174519,-0.205395,-0.308169,0.478256
-0.391793,-0.356856,0.604945,0.193483,-0.225375,-0.29219,0.478256
-1.36204,-0.381554,0.643864,0.142177,-0.169942,-0.332798,0.478256
-1.92914,0.169218,0.674739,0.0376232,0.0257147,-0.410294,0.478256
-1.11756,0.76715,0.929551,-0.0538003,0.258587,-0.515225,0.478256
0.313366,0.545806,0.986554,-0.063814,0.365345,-0.598065,0.478256
1.37411,-0.402757,0.784225,-0.0340714,0.303986,-0.502556,0.478256
1.694,-1.09389,0.625157,0.00158077,0.175312,-0.233372,0.478256
1.50491,-1.09324,0.613397,0.00748227,0.0826672,0.0365712,0.478256
1.13557,-0.58553,0.648473,-0.0294121,0.0613688,0.223959,0.478256
0.701575,0.0284487,0.563119,-0.0795683,0.101104,0.294529,0.478256
0.335159,0.482327,0.430876,-0.088575,0.125533,0.289254,0.478256
0.191742,0.741875,0.365024,-0.0513942,0.146614,0.25756,0.478256
0.284959,0.738166,0.416937,-0.00973659,0.157025,0.225996,0.478256
0.459378,0.482361,0.458533,0.0147023,0.173062,0.195542,0.478256
0.621723,0.0863887,0.454664,0.0371522,0.169955,0.192102,0.478256
0.668325,-0.279416,0.456248,0.0583603,0.149803,0.227026,0.478256
0.577177,-0.482294,0.499772,0.0804771,0.123997,0.278391,0.478256
0.443504,-0.508464,0.554581,0.0788138,0.117806,0.30714,0.478256
0.332249,-0.402403,0.653064,0.0708578,0.0993128,0.319943,0.478256
0.189735,-0.169968,0.726508,0.0658134,0.0892633,0.328211,0.478256
0.0101044,0.110157,0.756356,0.0485293,0.0813844,0.316587,0.478256
-0.133661,0.345055,0.813344,0.0505738,0.0585776,0.284235,0.478256
-0.133661,0.345055,0.813344,0.0505738,0.0585776,0.284235,0.692291
-0.212807,0.444141,0.882234,0.0700709,0.0503489,0.237785,0.692291
-0.24963,0.37729,0.948664,0.0840611,0.0318024,0.191705,0.692291
-0.280283,0.221173,0.980428,0.0858751,0.0174038,0.16053,0.692291
-0.299569,0.0542695,1.03045,0.0767206,-0.009709,0.13406,0.692291
-0.341758,0.0294964,1.06028,0.0490658,-0.0246787,0.124215,0.692291
-0.391804,0.0756627,1.0389,0.0112955,-0.0386681,0.10012,0.692291
-0.400793,0.0931717,1.05332,-0.00740904,-0.0560883,0.0553593,0.692291
-0.388466,0.120168,1.05325,-0.0194876,-0.0770369,0.00864029,0.692291
-0.294106,0.152725,1.02244,-0.0411867,-0.0888391,-0.0400743,0.692291
-0.143422,0.126345,1.01312,-0.0373195,-0.0975338,-0.0865296,0.692291
0.00647453,0.0741205,1.00652,-0.024311,-0.10309,-0.108025,0.692291
0.185295,0.0357418,0.965391,-0.0107893,-0.104291,-0.108351,0.692291
0.354397,0.00986918,0.924677,0.00712202,-0.104949,-0.108172,0.692291
0.503545,-0.0404942,0.873689,0.0357999,-0.119395,-0.115029,0.692291
0.535128,-0.106349,0.849783,0.0855262,-0.159554,-0.105195,0.692291
0.272231,-0.287711,0.827833,0.138667,-0.199084,-0.113446,0.692291
-0.31806,-0.388639,0.78277,0.14566,-0.142144,-0.142525,0.692291
-0.586576,-0.0797968,0.903166,0.131859,-0.0452173,-0.142888,0.692291
-0.222152,0.490115,1.18032,0.137455,0.0540939,-0.113502,0.692291
0.247295,0.793885,1.41857,0.186728,0.0578249,-0.0964723,0.692291
0.399946,0.759661,1.43275,0.252655,0.0381899,-0.0477915,0.692291
0.459992,0.625318,1.47995,0.325014,-0.0121346,0.0366918,0.692291
0.391618,0.62384,1.65083,0.390517,-0.0560445,0.110359,0.692291
0.227704,0.765785,1.91021,0.415705,-0.0558426,0.145881,0.692291
0.0425986,0.906987,2.12931,0.409197,-0.0170807,0.123145,0.692291
-0.0923626,0.926254,2.24621,0.396083,0.0229102,0.0680035,0.692291
-0.146036,0.834674,2.27248,0.375741,0.075395,0.000423372,0.692291
-0.166983,0.658886,2.29541,0.368002,0.101755,-0.0559611,0.692291
-0.313518,0.514669,2.30522,0.352511,0.141285,-0.106074,0.692291
-0.367251,0.548757,2.32305,0.321664,0.194492,-0.148179,0.692291
-0.137987,0.646952,2.38578,0.282346,0.24959,-0.181031,0.692291
0.240413,0.609802,2.41837,0.245576,0.279355,-0.195283,0.692291
0.518112,0.422149,2.33264,0.211907,0.258961,-0.169819,0.692291
0.622805,0.267633,2.20507,0.179902,0.216045,-0.085336,0.692291
0.577221,0.282239,2.1168,0.156166,0.169666,0.00256234,0.692291
0.489611,0.429316,2.08142,0.139111,0.13953,0.065818,0.692291
0.396116,0.610896,2.06204,0.127391,0.123576,0.0959397,0.692291
0.265549,0.704312,2.01811,0.120442,0.107568,0.103388,0.692291
0.147415,0.664921,1.94775,0.119609,0.0988326,0.0780434,0.692291
0.119025,0.557193,1.89138,0.114371,0.0872684,0.0697594,0.692291
0.0806521,0.479267,1.79975,0.0956274,0.08035,0.0660525,0.692291
0.107798,0.442666,1.72229,0.0679171,0.0836662,0.0418495,0.692291
0.102841,0.371726,1.67002,0.0624006,0.0563032,0.0215538,0.692291
0.0173304,0.315238,1.55849,0.0420492,0.0431639,0.0105903,0.692291
-0.0316273,0.28866,1.43841,0.0193897,0.038815,-0.0213234,0.692291
-0.0947178,0.258419,1.37851,0.0194591,0.0155219,-0.038294,0.692291
-0.157668,0.272489,1.28781,0.00655158,-0.00523943,-0.0635381,0.692291
-0.107481,0.294456,1.10721,-0.0153911,-0.0340058,-0.120247,0.692291
-0.363692,0.297659,0.923166,-0.0135768,-0.0148142,-0.134072,0.692291
-0.363692,0.297659,0.923166,-0.0135768,-0.0148142,-0.134072,0.895752
-0.780221,0.452094,0.898069,0.0238612,-0.0447113,-0.127608,0.895752
-1.05039,0.584771,1.03004,0.0246069,0.0593764,-0.168847,0.895752
-0.722437,0.650293,1.18779,0.00263025,0.178759,-0.23133,0.895752
0.129862,0.494011,1.29572,-0.0166093,0.262978,-0.25854,0.895752
0.779181,0.108341,1.22007,0.00227998,0.237274,-0.215254,0.895752
0.871352,-0.124879,1.18114,0.0681532,0.135736,-0.0548186,0.895752
0.511934,-0.143248,1.2461,0.125992,0.0230694,0.0698798,0.895752
-0.0886664,0.0517626,1.36125,0.15149,-0.0203656,0.126969,0.895752
-0.562702,0.316597,1.46301,0.137655,0.0171612,0.115824,0.895752
-0.603488,0.43878,1.47673,0.107188,0.0812861,0.0393313,0.895752
-0.375662,0.305182,1.39798,0.10106,0.112375,-0.030966,0.895752
-0.183851,-0.00265078,1.25675,0.109434,0.108469,-0.059406,0.895752
-0.106847,-0.289618,1.20112,0.126158,0.0763154,-0.036439,0.895752
-0.0943666,-0.334767,1.25765,0.116103,0.0523864,0.0161579,0.895752
-0.071576,-0.202706,1.32081,0.0826883,0.0614146,0.0548355,0.895752
-0.0457896,-0.128788,1.34493,0.0619598,0.0658178,0.0583133,0.895752
0.00316221,-0.156659,1.35492,0.0508055,0.0501974,0.0467687,0.895752
0.0686063,-0.248043,1.35413,0.0335262,0.0420543,0.0473691,0.895752
0.15916,-0.326488,1.30403,0.00154078,0.0398096,0.0458185,0.895752
0.208563,-0.348694,1.24866,-0.0186811,0.0234859,0.0615024,0.895752
0.150632,-0.275878,1.16173,-0.0474495,0.00735437,0.076879,0.895752
0.13952,-0.12298,1.08518,-0.0836002,-0.0111354,0.0615313,0.895752
0.124467,0.00949228,1.03348,-0.0907755,-0.0375052,0.0505466,0.895752
0.124801,0.0626802,0.991693,-0.0883391,-0.0799727,0.0314337,0.895752
0.117851,0.0495283,0.964079,-0.0863487,-0.106222,0.00151956,0.895752
0.200404,-0.00572319,0.947626,-0.0912356,-0.103248,-0.0277004,0.895752
0.420908,-0.154278,0.930732,-0.100167,-0.0968655,-0.0575377,0.895752
0.611323,-0.38509,0.866487,-0.102446,-0.0866498,-0.0516688,0.895752
0.691927,-0.541751,0.798455,-0.101283,-0.0935777,-0.0215967,0.895752
0.619058,-0.549183,0.724346,-0.0950604,-0.0948854,0.00644439,0.895752
0.499744,-0.336066,0.73655,-0.0744933,-0.104275,0.0227835,0.895752
0.36798,0.0344223,0.802769,-0.0698644,-0.0986565,0.023612,0.895752
0.313632,0.185079,0.892966,-0.0766192,-0.109756,-0.0480704,0.895752
0.31556,0.0387559,0.917852,-0.10156,-0.124296,-0.12769,0.895752
0.283042,-0.143311,0.847549,-0.147167,-0.130598,-0.152331,0.895752
0.202256,-0.105874,0.644154,-0.199221,-0.118351,-0.144076,0.895752
0.0524871,0.147465,0.257897,-0.200738,-0.081254,-0.126882,0.895752
-0.105836,0.242484,0.0402746,-0.069952,-0.0790312,-0.182585,0.895752
-0.38188,0.23191,0.255674,0.0789742,-0.0956756,-0.221272,0.895752
-0.795525,0.294958,0.510869,0.177915,-0.0541262,-0.300489,0.895752
-0.75442,0.680195,0.392251,0.227818,0.114719,-0.322562,0.895752
-0.108907,0.86112,0.273715,0.322743,0.16396,-0.362755,0.895752
0.470752,0.710226,0.228735,0.443666,0.118676,-0.322765,0.895752
0.655984,0.544185,0.335126,0.489269,0.0241168,-0.180905,0.895752
0.374606,0.6251,0.492331,0.455675,0.00122699,-0.027571,0.895752
0.0477582,1.14574,0.619024,0.360368,0.0250878,0.0844888,0.895752
-0.101504,1.74345,0.803389,0.280759,0.0723382,0.116666,0.895752
-0.0188549,1.95032,0.990268,0.256978,0.103406,0.0801822,0.895752
-0.0188549,1.95032,0.990268,0.256978,0.103406,0.0801822,0.898392
0.113802,1.67662,1.07926,0.229247,0.133829,0.059396,0.898392
0.149445,1.00187,1.02996,0.171358,0.148206,0.0478943,0.898392
0.0104597,0.468919,0.932723,0.129786,0.138168,0.0913748,0.898392
-0.107559,0.368286,0.979887,0.0959359,0.129408,0.141777,0.898392
-0.0705932,0.529404,1.18116,0.0639583,0.147426,0.150127,0.898392
-0.00559876,0.589461,1.31073,0.037266,0.168162,0.123212,0.898392
0.0673469,0.478961,1.32573,0.0235168,0.1654,0.0934339,0.898392
0.120555,0.233573,1.31513,0.00748757,0.157312,0.0827714,0.898392
0.141082,-0.00976375,1.2677,-0.00450773,0.147718,0.0835045,0.898392
0.146906,-0.155625,1.22232,-0.0333009,0.129866,0.0967732,0.898392
0.0770686,-0.104425,1.15622,-0.0621237,0.12421,0.111301,0.898392
0.0267526,0.0178172,1.08041,-0.0857368,0.124831,0.114085,0.898392
0.059611,0.187673,0.991251,-0.083159,0.117335,0.0999432,0.898392
0.222989,0.196119,1.00995,-0.0568447,0.0910603,0.080251,0.898392
0.259484,0.0144606,0.964755,-0.0385682,0.0568345,0.0630974,0.898392
0.261109,-0.177785,0.868759,-0.025802,0.0107298,0.0326865,0.898392
0.170643,-0.3249,0.797073,-0.0229911,-0.0192085,0.0133293,0.898392
-0.0959617,-0.405919,0.609052,-0.0156664,-0.0540285,-0.0553918,0.898392
-0.130202,-0.366647,0.524489,-0.0200102,-0.0537999,-0.169566,0.898392
0.0161535,-0.327994,0.493205,-0.00982112,-0.00608395,-0.266163,0.898392
0.0848134,-0.46841,0.391105,-0.00251638,0.0159624,-0.35581,0.898392
0.15811,-0.584157,0.291409,-0.00546879,0.0643239,-0.373189,0.898392
0.294621,-0.543181,0.255262,-2.10628e-05,0.105538,-0.308872,0.898392
0.169268,-0.446084,0.2209,0.0226743,0.0959109,-0.209679,0.898392
-0.267167,-0.31704,0.133699,0.0419183,0.0606817,-0.12498,0.898392
-0.67412,-0.200006,0.00727427,0.0277313,0.0652553,-0.0696699,0.898392
-0.75532,-0.126915,-0.0984283,0.00571229,0.107646,-0.0438063,0.898392
-0.419816,-0.122036,-0.0704137,-0.0103567,0.113185,-0.0258687,0.898392
-0.0490178,-0.200138,0.000492302,-0.0291053,0.0784216,-0.000164628,0.898392
0.0346411,-0.293723,-0.0244416,-0.0561281,0.0510817,0.0485331,0.898392
-0.155858,-0.285797,-0.164999,-0.0900643,0.022543,0.0768277,0.898392
-0.301326,-0.020829,-0.345021,-0.107766,0.02952,0.102595,0.898392
-0.234585,0.303878,-0.4317,-0.0999058,0.0674116,0.094816,0.898392
-0.120641,0.472898,-0.376586,-0.0383646,0.040329,0.0883275,0.898392
-0.114721,0.363875,-0.326121,0.0111724,0.0157939,0.0797775,0.898392
-0.171657,0.113278,-0.315064,0.0348109,-0.000782087,0.0820184,0.898392
-0.174949,-0.0955895,-0.289598,0.0341006,-0.00313202,0.0892895,0.898392
-0.105629,-0.151743,-0.224903,0.0205645,-0.00236152,0.112425,0.898392
0.00202379,-0.140644,-0.175463,0.00452537,-0.00283137,0.124381,0.898392
0.164679,-0.092503,-0.14669,-0.00771668,-0.00185961,0.137214,0.898392
0.304959,-0.102278,-0.133087,0.00227308,-0.00457333,0.137141,0.898392
0.407877,-0.0903281,-0.132741,0.0207224,-0.00444806,0.145774,0.898392
0.48694,-0.0808852,-0.116076,0.0363421,0.0101845,0.163154,0.898392
0.526224,-0.0640902,-0.0779444,0.0637854,0.0184355,0.166929,0.898392
0.650783,-0.113724,-0.0698126,0.0751077,0.0315462,0.111759,0.898392
0.794261,-0.209592,-0.0844224,0.0814773,0.070029,0.0835868,0.898392
0.793228,-0.253867,0.0348413,0.0845253,0.0373469,0.0927712,0.898392
0.793228,-0.253867,0.0348413,0.0845253,0.0373469,0.0927712,1.04901
0.610882,-0.239287,0.118934,0.0671063,-0.00711754,0.138448,1.04901
0.295781,-0.253524,0.102083,0.0410074,-0.0461825,0.163718,1.04901
-0.0435922,-0.250845,0.0614373,0.0136362,-0.0855539,0.168121,1.04901
-0.402139,-0.120025,0.0301182,-0.017643,-0.120114,0.146759,1.04901
-0.675188,0.0842644,0.0404021,-0.0442684,-0.145633,0.104516,1.04901
-0.741683,0.147754,0.0566049,-0.0699004,-0.139524,-0.00662291,1.04901
-0.571208,0.0590123,0.0209051,-0.0916771,-0.122374,-0.115657,1.04901
-0.373446,-0.0623448,-0.0217179,-0.0927375,-0.141583,-0.191657,1.04901
-0.308238,0.00884321,-0.0331894,-0.0838595,-0.189525,-0.21612,1.04901
-0.337918,0.258953,-0.0137476,-0.0707853,-0.216151,-0.224491,1.04901
-0.430794,0.488124,-0.0120443,-0.0473399,-0.206826,-0.245431,1.04901
-0.587232,0.572426,-0.0298205,-0.0162463,-0.179564,-0.270829,1.04901
-0.860037,0.583653,-0.0179335,0.00637927,-0.122732,-0.268522,1.04901
-0.98702,0.605611,0.00870759,0.0128297,-0.0275719,-0.272837,1.04901
-0.653727,0.639352,0.046698,-0.00340942,0.0931003,-0.270109,1.04901
-0.0913252,0.582673,0.126574,-0.000266161,0.119076,-0.209773,1.04901
0.19693,0.497964,0.13378,0.00819853,0.05919,-0.10844,1.04901
0.132666,0.496101,0.0936725,0.0280373,-0.0202293,0.00715244,1.04901
-0.118161,0.61237,0.105345,0.0490851,-0.0706604,0.0930802,1.04901
-0.345203,0.782137,0.150065,0.0631062,-0.0793853,0.12872,1.04901
-0.44903,0.884636,0.221279,0.0756656,-0.073338,0.117542,1.04901
-0.461668,0.820484,0.324702,0.0966182,-0.0759798,0.0790859,1.04901
-0.384396,0.578396,0.456201,0.118691,-0.0751033,0.0317747,1.04901
-0.219313,0.184771,0.550372,0.125911,-0.0598004,-0.00414991,1.04901
0.0302063,-0.19446,0.565535,0.104425,-0.0291578,-0.0149561,1.04901
0.280218,-0.396691,0.577809,0.0825612,-0.0180009,0.0168323,1.04901
0.477383,-0.342048,0.62746,0.0558971,-0.00945823,0.070309,1.04901
0.672793,-0.202867,0.650378,0.0304139,0.000821561,0.106744,1.04901
0.867649,-0.15066,0.629924,0.015039,0.0108712,0.116859,1.04901
1.01424,-0.144411,0.564718,0.0129899,0.0126458,0.139754,1.04901
1.07045,-0.142308,0.503959,0.0168368,-0.00309154,0.164211,1.04901
1.01448,-0.0933581,0.476553,0.030754,-0.0249342,0.189124,1.04901
0.812567,-0.00847134,0.444982,0.029937,-0.0394464,0.191917,1.04901
0.558365,0.115796,0.36938,0.0305587,-0.0414437,0.156927,1.04901
0.369859,0.202918,0.267384,0.0195422,-0.0177753,0.0901886,1.04901
0.27755,0.268862,0.129358,0.00272927,0.0267569,0.014779,1.04901
0.351674,0.29122,0.0584217,-0.00374063,0.0579599,-0.0479236,1.04901
0.41515,0.245219,0.0344957,0.00903334,0.0655434,-0.0906841,1.04901
0.380936,0.129881,-0.00655592,0.0146922,0.0531327,-0.136761,1.04901
0.246568,-0.0437429,-0.0639896,0.0120229,0.0477935,-0.180959,1.04901
0.12979,-0.19921,-0.171986,-0.00616287,0.0729387,-0.21706,1.04901
0.0952403,-0.318419,-0.263294,-0.0171257,0.0940194,-0.222292,1.04901
0.0258257,-0.37113,-0.303632,-0.0137576,0.0689809,-0.174146,1.04901
-0.300272,-0.303823,-0.34908,0.0021926,0.0124876,-0.0985585,1.04901
-0.94667,-0.261089,-0.415201,0.00823615,-0.0324177,-0.0896187,1.04901
-1.40155,-0.169192,-0.472773,-0.013507,0.0189478,-0.125769,1.04901
-1.15907,-0.141299,-0.351659,-0.0481519,0.126015,-0.19919,1.04901
-1.15907,-0.141299,-0.351659,-0.0481519,0.126015,-0.19919,1.18112
-0.395042,-0.274129,-0.116775,-0.075085,0.198283,-0.239734,1.18112
0.245131,-0.69326,0.00222832,-0.08412,0.171555,-0.232633,1.18112
0.361139,-1.01993,-0.0461642,-0.0749489,0.102066,-0.128693,1.18112
0.21803,-1.10228,-0.117562,-0.0913877,0.0444607,-0.0278279,1.18112
0.0180498,-0.897315,-0.203397,-0.105594,0.0354355,0.0610322,1.18112
-0.109484,-0.54526,-0.294225,-0.11391,0.0496441,0.108538,1.18112
-0.087087,-0.190416,-0.349531,-0.104916,0.0645524,0.141253,1.18112
0.00893465,0.00394515,-0.35594,-0.0660991,0.0501723,0.165878,1.18112
0.0457968,-0.0126226,-0.329794,-0.00773846,0.00657959,0.195036,1.18112
-0.00281761,-0.143021,-0.3249,0.0270213,-0.0169945,0.232716,1.18112
-0.0204576,-0.281475,-0.327585,0.0380317,-0.018232,0.287168,1.18112
-0.0157925,-0.36444,-0.346346,0.0408247,-0.0338931,0.345678,1.18112
-0.0567128,-0.411975,-0.373733,0.0585188,-0.0569687,0.374281,1.18112
-0.162148,-0.447672,-0.337511,0.0667028,-0.0879062,0.36209,1.18112
-0.332008,-0.385425,-0.27223,0.0637834,-0.112191,0.320209,1.18112
-0.511816,-0.234385,-0.272879,0.039689,-0.104799,0.243119,1.18112
-0.644428,-0.00978282,-0.292408,0.00839879,-0.079604,0.15404,1.18112
-0.584183,0.22326,-0.306669,-0.0111502,-0.0363586,0.0530428,1.18112
-0.36374,0.324059,-0.25247,-0.00573283,-0.0102816,-0.0289255,1.18112
-0.167145,0.252549,-0.178819,0.0111847,-0.0217833,-0.0790289,1.18112
-0.0413827,0.132673,-0.154919,0.00590291,-0.0372102,-0.0892053,1.18112
0.0326556,0.126541,-0.151847,-0.00674278,-0.0349486,-0.0718105,1.18112
0.133381,0.263548,0.00243765,0.00845736,-0.0350374,-0.0384394,1.18112
0.144786,0.411101,0.28953,0.035682,-0.089397,-0.0405779,1.18112
0.0717286,0.457043,0.541202,0.0392928,-0.105682,-0.0717469,1.18112
0.0426595,0.215444,0.652699,0.0158049,-0.0792217,-0.164449,1.18112
0.168972,-0.189941,0.616965,-0.0154446,-0.0309934,-0.255333,1.18112
0.398881,-0.349809,0.596086,-0.0452132,-0.000676528,-0.242368,1.18112
0.567448,-0.257011,0.646123,-0.0488098,-0.0208012,-0.173001,1.18112
0.430225,-0.0493548,0.646967,-0.0328586,-0.0893187,-0.0985172,1.18112
0.0611842,0.17921,0.592015,-0.00879613,-0.149994,-0.0618557,1.18112
-0.389872,0.359566,0.544907,0.028138,-0.173216,-0.0776058,1.18112
-0.692911,0.487036,0.55191,0.0363311,-0.127345,-0.132618,1.18112
-0.8084,0.672389,0.554038,0.0354132,-0.0486883,-0.177916,1.18112
-0.675716,0.825139,0.564111,0.0441855,0.00927514,-0.210237,1.18112
-0.458106,0.921556,0.617475,0.067107,0.0286932,-0.220404,1.18112
-0.28654,0.814149,0.721332,0.0908652,0.0244065,-0.227347,1.18112
-0.154191,0.552266,0.754616,0.0803549,0.0307728,-0.223862,1.18112
-0.0733352,0.329594,0.706061,0.0467449,0.0399448,-0.176213,1.18112
-0.0298781,0.228569,0.612683,0.0175336,0.0241729,-0.0947731,1.18112
-0.0771143,0.186835,0.487901,0.00312572,0.0148324,-0.00321943,1.18112
-0.162975,0.0917297,0.286723,0.00830089,0.00851938,0.0597315,1.18112
-0.239058,-0.465182,-0.0231433,0.047509,-5.31673e-05,0.0718682,1.18112
-0.293787,-1.59817,-0.342287,0.120464,-0.015261,0.0716724,1.18112
-0.294052,-2.2587,-0.435539,0.134067,-0.0173586,0.158803,1.18112
-0.21913,-1.72078,-0.283375,0.0661947,-0.00724578,0.332252,1.18112
-0.257343,-0.423023,0.0167907,0.00778263,0.0089334,0.451314,1.18112
-0.11291,0.527378,0.309149,-0.0210276,-0.00537205,0.410882,1.18112
-0.11291,0.527378,0.309149,-0.0210276,-0.00537205,0.410882,1.29738
0.0455792,0.770329,0.402269,0.0152429,0.0226655,0.305089,1.29738
0.195535,0.508355,0.413402,0.0399773,0.0340138,0.190776,1.29738
0.36784,0.179365,0.372013,0.0307709,0.0498771,0.165033,1.29738
0.36233,0.0208382,0.247863,0.00230417,0.0437631,0.152672,1.29738
0.251236,-0.0106183,0.107802,-0.017171,0.0442634,0.144478,1.29738
0.150113,-0.0199937,0.0496005,-0.0021773,0.0161447,0.129496,1.29738
0.0771456,-0.151731,0.0603515,0.0274221,-0.00215513,0.104797,1.29738
0.0422737,-0.333507,0.0512585,0.0314537,-0.00452031,0.0766949,1.29738
0.0259956,-0.435336,0.0204961,0.00616564,0.0017752,0.0617702,1.29738
-0.000228719,-0.316232,0.0208295,-0.0228365,-0.00155734,0.0745168,1.29738
-0.0779078,0.00964678,0.0379742,-0.0303078,-0.0130533,0.0806152,1.29738
-0.124001,0.298776,0.113816,-0.025839,-0.0369122,0.0469741,1.29738
-0.124042,0.415168,0.159183,-0.00902411,-0.0403042,-0.00949979,1.29738
-0.0500888,0.400404,0.154878,0.00354181,-0.0387031,-0.0488884,1.29738
-0.0306649,0.302698,0.168975,0.00945437,-0.0652205,-0.10365,1.29738
-0.0839657,0.232109,0.16003,0.0058284,-0.0717861,-0.148998,1.29738
-0.13744,0.1625,0.131345,0.00621264,-0.0745006,-0.24463,1.29738
0.0468085,0.0656127,0.195107,0.000239149,-0.0419273,-0.317478,1.29738
0.495553,-0.299577,0.437079,0.00896218,-0.0465091,-0.358783,1.29738
0.710998,-0.673524,0.512081,0.0106582,-0.040781,-0.34867,1.29738
0.436222,-0.92691,0.302301,-0.0157157,-0.0291638,-0.2737,1.29738
-0.291309,-1.00777,-0.00838087,-0.0689972,-0.0501893,-0.222646,1.29738
-1.10274,-0.637646,-0.164618,-0.100147,-0.0435804,-0.167421,1.29738
-1.51546,-0.0318585,-0.125266,-0.112057,0.0318928,-0.149199,1.29738
-1.25727,0.174696,-0.117972,-0.123909,0.137656,-0.235322,1.29738
-0.594315,-0.0649004,-0.234888,-0.114515,0.212303,-0.280079,1.29738
0.00554473,-0.574401,-0.418497,-0.0899464,0.188104,-0.253177,1.29738
0.217341,-0.819332,-0.568207,-0.0760068,0.12839,-0.112501,1.29738
0.175576,-0.725578,-0.623906,-0.0817498,0.0728052,0.0293412,1.29738
0.0373645,-0.419767,-0.676336,-0.101652,0.053768,0.117619,1.29738
-0.142354,-0.0435462,-0.784593,-0.112681,0.0632234,0.159903,1.29738
-0.203305,0.245268,-0.889652,-0.0952458,0.0683642,0.166036,1.29738
-0.0935332,0.288005,-0.915777,-0.0572269,0.0647942,0.15487,1.29738
0.101276,0.171572,-0.891703,-0.0079405,0.0531777,0.152742,1.29738
0.188185,-0.0141321,-0.859648,0.0373528,0.0325137,0.166279,1.29738
0.226211,-0.177012,-0.821173,0.0648383,0.0266525,0.192049,1.29738
0.229105,-0.338349,-0.741323,0.079988,0.0128216,0.217999,1.29738
0.186405,-0.311899,-0.675636,0.0708243,0.0194959,0.24311,1.29738
0.194682,-0.204628,-0.600986,0.0596352,0.0238051,0.252618,1.29738
0.14105,-0.0762615,-0.548698,0.0628359,0.0111392,0.250549,1.29738
0.081079,-0.000316128,-0.469797,0.0666925,-0.00448222,0.233586,1.29738
0.0497519,0.0290169,-0.390663,0.075753,-0.015623,0.225714,1.29738
0.0433743,0.0420953,-0.3169,0.0635371,-0.0288318,0.217253,1.29738
-0.0337134,0.107885,-0.214347,0.0574706,-0.070677,0.231462,1.29738
-0.177849,0.179991,-0.121362,0.024398,-0.122837,0.202146,1.29738
-0.307551,0.292664,-0.117653,-0.0112103,-0.128608,0.175395,1.29738
-0.322323,0.324711,-0.16516,-0.0378322,-0.123764,0.117623,1.29738
-0.322323,0.324711,-0.16516,-0.0378322,-0.123764,0.117623,1.42157
-0.299984,0.25554,-0.259173,-0.0472022,-0.117999,0.0577607,1.42157
-0.282012,0.144365,-0.332952,-0.0477096,-0.118448,0.00468796,1.42157
-0.24817,0.0580085,-0.323913,-0.0310471,-0.121494,-0.0300372,1.42157
-0.146935,0.070191,-0.256239,-0.0274898,-0.114853,-0.0528361,1.42157
-0.06763,0.0791364,-0.181983,-0.0240553,-0.119786,-0.072505,1.42157
-0.0341585,0.0457273,-0.122141,-0.0241193,-0.110301,-0.0975736,1.42157
0.00303094,0.0405104,-0.078332,-0.0189884,-0.108386,-0.130014,1.42157
0.0481019,0.0289506,-0.0136334,-0.0118457,-0.0905555,-0.175237,1.42157
0.147289,0.0577117,0.0616785,-0.00306267,-0.0739448,-0.233247,1.42157
0.379472,-0.0741013,0.160381,0.00961909,-0.0937499,-0.303442,1.42157
0.565617,-0.480843,0.228337,0.00784189,-0.105028,-0.360278,1.42157
0.678405,-1.02994,0.166942,-0.0280968,-0.0710425,-0.36755,1.42157
0.586993,-1.36809,0.00335812,-0.0689939,-0.0139169,-0.325295,1.42157
0.638875,-1.28434,-0.00165992,-0.0507055,0.0448181,-0.290641,1.42157
1.16054,-1.11866,0.262625,-0.00474204,0.124678,-0.250962,1.42157
1.87807,-0.923331,0.569333,0.0321541,0.16195,-0.135804,1.42157
2.19119,-0.682723,0.68022,0.0593743,0.110316,-0.0085187,1.42157
1.80877,-0.481976,0.562398,0.0801838,0.0251555,0.0664775,1.42157
1.01565,-0.287179,0.329896,0.110726,-0.0561916,0.0611217,1.42157
0.247196,-0.0633767,0.162457,0.113452,-0.0694478,0.0190213,1.42157
-0.149887,0.166003,0.0836171,0.0899862,0.0194243,-0.00781453,1.42157
-0.23801,0.406776,0.0188282,0.086179,0.0852732,0.00612444,1.42157
-0.164722,0.61802,-0.0336259,0.0937351,0.113481,0.0298601,1.42157
-0.0439566,0.761865,-0.0463851,0.105063,0.100066,0.0946457,1.42157
-0.0721283,0.853675,-0.0725157,0.12145,0.0467029,0.177858,1.42157
-0.269265,0.917035,-0.183228,0.133216,0.00430369,0.216325,1.42157
-0.449592,0.964369,-0.24324,0.13696,-0.014848,0.23729,1.42157
-0.527566,1.00388,-0.227577,0.126092,-0.0092766,0.207661,1.42157
-0.51427,0.986996,-0.160043,0.118738,0.00222608,0.183016,1.42157
-0.40712,0.871222,-0.115454,0.104869,0.0229495,0.12926,1.42157
-0.197168,0.732234,-0.0752479,0.0898817,0.0389886,0.0998334,1.42157
-0.00389734,0.61865,-0.0496258,0.0760229,0.0509889,0.0850099,1.42157
0.164776,0.511297,0.0299009,0.0727908,0.0276642,0.0907703,1.42157
0.165546,0.440435,0.0794833,0.0669181,0.00384897,0.111046,1.42157
0.142371,0.403094,0.0915959,0.050065,-0.0078548,0.12324,1.42157
0.11664,0.358503,0.099179,0.043402,-0.0198821,0.123941,1.42157
0.0169991,0.316495,0.163495,0.0406782,-0.037653,0.120866,1.42157
-0.114669,0.277219,0.222077,0.036232,-0.0476618,0.10557,1.42157
-0.240802,0.115491,0.164229,0.0244811,-0.0411237,0.0514118,1.42157
-0.270489,-0.0807197,0.0637395,0.015929,-0.0329969,-0.0018149,1.42157
-0.163554,-0.0822099,0.0571599,-0.000797071,-0.0353125,-0.050292,1.42157
-0.0594966,0.0509129,0.130767,-0.00841956,-0.0495049,-0.0928529,1.42157
-0.0586043,0.291845,0.175602,-0.0132681,-0.0580168,-0.134692,1.42157
-0.166907,0.570465,0.151386,-0.0390086,-0.0236542,-0.213745,1.42157
-0.307379,0.625094,0.071576,-0.0382949,0.0411957,-0.331806,1.42157
-0.232153,0.39164,0.0564659,-0.00276643,0.0825243,-0.442671,1.42157
0.0246057,-0.219053,0.234441,0.0113589,0.0627923,-0.521241,1.42157
0.0246057,-0.219053,0.234441,0.0113589,0.0627923,-0.521241,1.59332
0.112556,-0.9055,0.219405,0.0220216,0.030512,-0.513514,1.59332
-0.0799002,-1.36523,0.0332435,0.00301223,-0.00693819,-0.44104,1.59332
-0.378697,-1.51512,-0.114129,-0.039214,-0.0280326,-0.378781,1.59332
-0.464799,-1.34519,-0.0964184,-0.0916274,-0.00219752,-0.301761,1.59332
-0.270766,-1.02228,-0.0662098,-0.137656,0.0785039,-0.234834,1.59332
0.113881,-0.795201,-0.116835,-0.173029,0.130131,-0.188781,1.59332
0.445485,-0.61157,-0.252066,-0.153029,0.117795,-0.0788569,1.59332
0.543502,-0.45294,-0.420919,-0.098517,0.0689499,0.0287325,1.59332
0.460779,-0.329098,-0.448588,-0.0436397,-0.000703737,0.115991,1.59332
0.28756,-0.147509,-0.386887,0.0179017,-0.0452299,0.201192,1.59332
0.168814,-0.0562558,-0.23095,0.0522018,-0.0683342,0.246122,1.59332
0.0435284,0.010111,-0.19747,0.0806379,-0.0672416,0.270947,1.59332
-0.00116486,-0.0770009,-0.232229,0.0904723,-0.0529052,0.257052,1.59332
0.00345036,-0.324609,-0.31405,0.113544,-0.0476026,0.256678,1.59332
-0.0279326,-0.680761,-0.376163,0.137107,-0.0440988,0.266042,1.59332
-0.0941352,-0.86566,-0.344345,0.150286,-0.0299412,0.302339,1.59332
-0.120232,-0.908862,-0.306965,0.147166,0.00709562,0.300387,1.59332
-0.162974,-1.12615,-0.331831,0.146925,0.0316238,0.264289,1.59332
-0.213819,-1.47349,-0.500808,0.152332,0.0688624,0.170678,1.59332
-0.0914842,-1.67925,-0.596023,0.157113,0.105336,0.142922,1.59332
0.214871,-1.46572,-0.575573,0.139156,0.104592,0.149825,1.59332
0.504428,-0.988881,-0.473396,0.0946512,0.107264,0.169649,1.59332
0.503767,-0.440295,-0.394967,0.0787963,0.0674864,0.19554,1.59332
0.168566,0.0131835,-0.327297,0.0803254,-0.000778526,0.195425,1.59332
-0.243082,0.389171,-0.206367,0.0814905,-0.0614009,0.167452,1.59332
-0.484467,0.659545,-0.0443692,0.0701391,-0.0904142,0.113301,1.59332
-0.484856,0.791781,0.11848,0.0572742,-0.103619,0.0377646,1.59332
-0.37759,0.72848,0.270826,0.0650097,-0.158432,-0.0361921,1.59332
-0.288115,0.355832,0.378519,0.0795781,-0.22971,-0.137382,1.59332
-0.233881,-0.133783,0.461695,0.086724,-0.267103,-0.212403,1.59332
-0.122521,-0.416,0.508106,0.0473671,-0.246603,-0.260734,1.59332
0.0687106,-0.289359,0.495981,0.00989425,-0.201106,-0.283726,1.59332
0.336254,0.186688,0.514157,-0.0210857,-0.164182,-0.268312,1.59332
0.536557,0.728446,0.660037,0.0217271,-0.157601,-0.24897,1.59332
0.531315,1.00878,0.844084,0.0943969,-0.173727,-0.23213,1.59332
0.204896,0.926598,0.92448,0.13121,-0.140863,-0.23438,1.59332
-0.25853,0.812441,0.86182,0.116628,-0.0501311,-0.235142,1.59332
-0.45518,1.01356,0.788318,0.0793425,0.0563413,-0.207035,1.59332
-0.304896,1.43737,0.87231,0.0716695,0.111988,-0.170785,1.59332
-0.0228825,1.68514,0.989006,0.0905571,0.118712,-0.150958,1.59332
0.091516,1.60455,0.946747,0.111743,0.110176,-0.11089,1.59332
0.0487527,1.31822,0.887731,0.137387,0.0812875,-0.060764,1.59332
-0.0102288,0.976444,0.89998,0.147803,0.0521702,-0.0159599,1.59332
-0.026739,0.747978,0.962517,0.146161,0.032685,0.0347973,1.59332
-0.0549488,0.647264,1.02818,0.136197,0.02181,0.0854335,1.59332
-0.108209,0.644386,1.05205,0.122188,0.0259963,0.117281,1.59332
-0.158464,0.677428,1.0368,0.118101,0.0331281,0.132665,1.59332
-0.158464,0.677428,1.0368,0.118101,0.0331281,0.132665,1.83113
-0.167643,0.723246,1.04683,0.12186,0.0459082,0.136916,1.83113
-0.0388792,0.790611,1.1245,0.137313,0.0492355,0.14293,1.83113
0.171575,0.787639,1.26672,0.152574,0.0507345,0.156741,1.83113
0.351419,0.588402,1.35174,0.16051,0.0437175,0.154546,1.83113
0.481461,0.334254,1.36984,0.169438,0.03411,0.167505,1.83113
0.547721,0.106522,1.39912,0.163428,0.0228225,0.186987,1.83113
0.499454,0.0646787,1.44283,0.15517,0.0121485,0.212638,1.83113
0.401902,0.190367,1.51296,0.139852,0.000318065,0.225102,1.83113
0.289589,0.339476,1.52647,0.125151,-0.00534722,0.214026,1.83113
0.14924,0.368857,1.468,0.117137,-0.00892285,0.170998,1.83113
0.0264727,0.316299,1.39007,0.114523,-0.0203787,0.130448,1.83113
-0.0592735,0.287289,1.31322,0.102679,-0.0206558,0.100419,1.83113
-0.0582991,0.394527,1.22853,0.0879147,-0.011682,0.079797,1.83113
0.0290205,0.521707,1.19078,0.0781911,-0.0104656,0.0447657,1.83113
0.095085,0.650358,1.14908,0.0886117,-0.0246761,0.0146527,1.83113
0.164041,0.701386,1.1127,0.103841,-0.0448321,-0.0264241,1.83113
0.171525,0.678486,1.04164,0.118684,-0.0689584,-0.0698338,1.83113
0.105866,0.668571,0.956948,0.129994,-0.0760337,-0.131305,1.83113
0.230333,0.737904,0.98666,0.143712,-0.0969637,-0.192497,1.83113
0.396666,0.723707,1.05522,0.147111,-0.144001,-0.232165,1.83113
-0.0118406,0.32839,0.911798,0.109324,-0.126841,-0.296395,1.83113
-0.829801,0.237569,0.606629,0.0668357,-0.0652514,-0.331557,1.83113
-0.950024,0.627632,0.806379,0.0176559,0.055857,-0.274412,1.83113
-0.268744,1.11886,1.22846,-0.0184642,0.198679,-0.24438,1.83113
0.564274,0.978552,1.42202,-0.0197039,0.251689,-0.245932,1.83113
1.0669,0.344581,1.39291,0.019952,0.223785,-0.175268,1.83113
1.24591,-0.269402,1.42618,0.0494406,0.171625,-0.0404666,1.83113
1.25519,-0.559153,1.57538,0.0550916,0.141681,0.12246,1.83113
1.15861,-0.620735,1.67512,0.0351809,0.144066,0.2314,1.83113
0.937642,-0.551342,1.60184,0.000419695,0.152364,0.285606,1.83113
0.658683,-0.386362,1.41213,-0.0242556,0.13444,0.301421,1.83113
0.320043,-0.198033,1.19825,-0.0236539,0.118117,0.293366,1.83113
-0.0434146,0.141441,0.985231,-0.0104466,0.0895011,0.287394,1.83113
-0.344334,0.524027,0.831888,0.00976979,0.0782776,0.269116,1.83113
-0.54324,0.748699,0.724238,0.0485366,0.0685799,0.215832,1.83113
-0.733239,0.774865,0.658665,0.091175,0.0546589,0.178031,1.83113
-0.871526,0.716634,0.626588,0.114937,0.0574671,0.134517,1.83113
-0.810233,0.516569,0.719745,0.127197,0.0515348,0.102539,1.83113
-0.780974,0.266738,0.819512,0.124699,0.0324946,0.0807687,1.83113
-0.675651,0.127486,0.85766,0.0795065,0.0280897,0.0637062,1.83113
-0.522189,0.0697951,0.906117,0.047588,0.01918,0.070762,1.83113
-0.508852,0.106693,0.90065,0.0318494,-0.00822565,0.0593011,1.83113
-0.484316,0.239534,0.886606,0.0142701,-0.0178503,0.0227647,1.83113
-0.349211,0.286959,0.968235,0.0208601,-0.0434235,-0.0259078,1.83113
-0.279332,0.213949,1.02043,0.0360435,-0.0739686,-0.082031,1.83113
-0.230325,0.0668732,1.02094,0.0340378,-0.0899139,-0.118115,1.83113
-0.183227,-0.0332456,0.962314,0.0362232,-0.0722583,-0.130641,1.83113
-0.0688432,0.0160201,0.899322,0.0719807,-0.0540637,-0.117662,1.83113
-0.0688432,0.0160201,0.899322,0.0719807,-0.0540637,-0.117662,2.06102
-0.0662836,0.236409,0.95611,0.172815,-0.123711,-0.0572782,2.06102
-0.451704,0.351523,1.08336,0.26298,-0.189261,-0.0280708,2.06102
-1.14054,0.44834,1.23466,0.301162,-0.201388,-0.0438581,2.06102
-1.50417,0.666802,1.38818,0.29273,-0.106082,-0.0862917,2.06102
-1.28774,0.651349,1.55569,0.25543,-0.00492946,-0.208191,2.06102
-0.756144,0.399188,1.65075,0.237656,0.0869906,-0.276848,2.06102
-0.168011,0.0142947,1.722,0.228006,0.102106,-0.268229,2.06102
0.122691,-0.0991693,1.85117,0.248326,0.0617935,-0.161436,2.06102
0.171387,-0.0185966,2.07818,0.267641,0.0181555,-0.059073,2.06102
0.164479,0.072535,2.31661,0.270563,0.0124821,-0.00699806,2.06102
0.150939,0.0552405,2.48534,0.255049,0.0292774,0.00178236,2.06102
0.142536,-0.0633939,2.48856,0.229611,0.0575115,-0.0132483,2.06102
0.128217,-0.175968,2.41582,0.208329,0.0685073,-0.0267689,2.06102
0.213999,-0.154755,2.38038,0.182303,0.0967152,-0.0458756,2.06102
0.353266,-0.124016,2.33645,0.164308,0.132875,-0.0664199,2.06102
0.541645,-0.149332,2.23381,0.147396,0.16037,-0.0841379,2.06102
0.782395,-0.214387,2.06574,0.125923,0.174438,-0.0939416,2.06102
0.932112,-0.250635,1.83593,0.111516,0.185622,-0.0647264,2.06102
0.981085,-0.126045,1.58603,0.0924351,0.173299,-0.00337505,2.06102
0.88231,0.130588,1.35316,0.091651,0.151486,0.0721779,2.06102
0.677569,0.411815,1.15367,0.105052,0.143871,0.117585,2.06102
0.51664,0.591675,1.014,0.124829,0.152641,0.135499,2.06102
0.421712,0.633115,0.893537,0.13867,0.162863,0.139935,2.06102
0.342964,0.608058,0.795289,0.138931,0.16063,0.141822,2.06102
0.297165,0.55081,0.70974,0.125024,0.147852,0.132946,2.06102
0.255709,0.502743,0.655177,0.09386,0.137394,0.121081,2.06102
0.208842,0.598891,0.579388,0.0396854,0.134035,0.119626,2.06102
0.154089,0.749774,0.488957,-0.00468645,0.121193,0.0989549,2.06102
0.0667573,0.802765,0.388977,-0.0155263,0.0978431,0.0457866,2.06102
-0.0790147,0.668349,0.313313,-0.0011704,0.0660461,-0.0323246,2.06102
-0.232298,0.422487,0.269245,-0.00878514,0.046876,-0.111248,2.06102
-0.268747,0.276082,0.193172,-0.0590366,0.0632062,-0.167749,2.06102
-0.308853,0.168702,0.0359864,-0.0952186,0.0797529,-0.184846,2.06102
-0.577025,0.160505,-0.0597205,-0.0875293,0.0621337,-0.169038,2.06102
-0.794795,0.413912,0.0503714,-0.0639494,0.0617345,-0.119401,2.06102
-0.666369,0.48758,0.324489,-0.0411532,0.0891518,-0.122612,2.06102
-0.210452,0.259236,0.513032,-0.0324972,0.120956,-0.113524,2.06102
0.324493,-0.279506,0.57894,-0.0264913,0.0898329,-0.0767317,2.06102
0.556679,-0.801122,0.557344,-0.00530114,0.0282412,0.0117455,2.06102
0.467975,-0.988689,0.55439,0.0225046,-0.0297519,0.0997479,2.06102
0.223781,-0.87641,0.666681,0.0463875,-0.0777886,0.16074,2.06102
-0.206621,-0.6067,0.729759,0.0510351,-0.0850361,0.173289,2.06102
-0.691452,-0.279417,0.669941,0.0468868,-0.0554759,0.136688,2.06102
-0.901956,0.0619462,0.638433,0.0506507,-0.00757155,0.0710343,2.06102
-0.798389,0.167185,0.658314,0.092788,0.027951,-0.0154706,2.06102
-0.488949,-0.0582844,0.658348,0.137384,0.0491719,-0.0938429,2.06102
-0.0704763,-0.508212,0.603781,0.17255,0.0540802,-0.12164,2.06102
-0.0704763,-0.508212,0.603781,0.17255,0.0540802,-0.12164,2.27768
0.245981,-0.836679,0.544369,0.183628,0.0390559,-0.0653672,2.27768
0.35687,-0.951674,0.566809,0.197547,-0.0148049,0.0232537,2.27768
0.314409,-0.849495,0.645766,0.180983,-0.0624219,0.0992279,2.27768
0.105046,-0.576159,0.684352,0.143086,-0.0794342,0.135676,2.27768
-0.0799208,-0.281034,0.67599,0.103338,-0.0709325,0.126753,2.27768
-0.158065,-0.0513974,0.633828,0.0674701,-0.0469327,0.0917999,2.27768
-0.243854,0.105697,0.568016,0.0504274,-0.0243478,0.0556172,2.27768
-0.196831,0.246715,0.600917,0.047148,-0.00998607,0.0117902,2.27768
0.0227266,0.216347,0.694187,0.0418986,0.0180642,-0.0397602,2.27768
0.279681,-0.000653949,0.706588,0.0336977,0.0439377,-0.0689029,2.27768
0.542521,-0.277893,0.705535,0.022659,0.0433172,-0.051532,2.27768
0.706605,-0.471225,0.761991,0.0285519,0.00750613,-0.00268221,2.27768
0.727307,-0.565195,0.832033,0.0251124,-0.0251514,0.0539876,2.27768
0.573119,-0.58366,0.838795,0.0132629,-0.0532645,0.0786062,2.27768
0.327041,-0.535086,0.799512,0.00604773,-0.0814774,0.0520723,2.27768
0.0813311,-0.426409,0.829341,0.017642,-0.0761594,-0.0127242,2.27768
-0.08754,-0.158343,0.934786,0.0319809,-0.0746829,-0.106901,2.27768
-0.0854022,0.186423,1.11127,0.0193757,-0.0444329,-0.189154,2.27768
0.0534816,0.404322,1.21206,0.00914697,0.00858131,-0.251484,2.27768
0.207252,0.366278,1.23498,0.0379137,-0.0110731,-0.283698,2.27768
0.171829,0.21635,1.28649,0.0734393,-0.057265,-0.274958,2.27768
-0.0545137,0.0873145,1.3597,0.0702156,-0.0643373,-0.256043,2.27768
-0.399092,0.130098,1.3304,0.0176986,-0.00916849,-0.243109,2.27768
-0.429257,0.390892,1.22297,-0.0437991,0.102492,-0.229675,2.27768
-0.022889,0.583569,1.19205,-0.0406779,0.182393,-0.199086,2.27768
0.404569,0.389643,1.18469,0.0206512,0.151003,-0.173533,2.27768
0.544742,0.0172722,1.10836,0.0682351,0.0875006,-0.101525,2.27768
0.492339,-0.215965,1.01502,0.0804693,0.0393454,-0.0177756,2.27768
0.371819,-0.175751,0.911107,0.0715112,0.00444274,0.0672963,2.27768
0.161493,0.0312373,0.840687,0.0788735,-0.0169973,0.112968,2.27768
-0.0346048,0.288568,0.819691,0.101414,-0.031622,0.1384,2.27768
-0.0744236,0.350051,0.817257,0.123647,-0.0160492,0.101882,2.27768
-0.00899519,0.22776,0.794826,0.148166,-0.00173183,0.0762601,2.27768
0.104193,0.0743351,0.774427,0.16528,0.00525895,0.076647,2.27768
0.206342,-0.0839568,0.766544,0.179253,-0.00185548,0.102618,2.27768
0.228282,-0.110557,0.763724,0.178027,8.1405e-05,0.120974,2.27768
0.27488,-0.00463994,0.778702,0.163268,0.00573602,0.125459,2.27768
0.358038,0.143071,0.789067,0.14906,0.019067,0.107848,2.27768
0.411652,0.205653,0.799822,0.147488,0.0302082,0.0666934,2.27768
0.445674,0.130695,0.768585,0.138581,0.0398137,-0.00229502,2.27768
0.581301,0.028854,0.702297,0.112347,0.0714311,-0.0521485,2.27768
0.769133,-0.00272605,0.636952,0.0788492,0.095455,-0.083935,2.27768
0.818187,0.0857489,0.558575,0.0505952,0.106091,-0.0812337,2.27768
0.782904,0.251901,0.489109,0.0269901,0.111063,-0.0663268,2.27768
0.72835,0.363134,0.420742,0.0149274,0.12366,-0.0717489,2.27768
0.657559,0.395555,0.350022,0.00987063,0.126811,-0.0807211,2.27768
0.564638,0.373827,0.296389,0.0103404,0.122653,-0.0754093,2.27768
0.437494,0.322067,0.217579,0.00594181,0.118111,-0.0785968,2.27768
0.437494,0.322067,0.217579,0.00594181,0.118111,-0.0785968,2.46265
0.317758,0.253617,0.169461,0.016137,0.0861666,-0.08261,2.46265
0.225831,0.162051,0.130234,0.0290569,0.049207,-0.0885968,2.46265
0.140336,-0.0473539,0.126513,0.0572261,-0.00705624,-0.113946,2.46265
0.112388,-0.31193,0.166764,0.0896919,-0.0688687,-0.122478,2.46265
-0.037911,-0.555361,0.248349,0.101113,-0.135164,-0.0948913,2.46265
-0.641777,-0.508831,0.209576,0.0530714,-0.190719,-0.0920408,2.46265
-1.27011,0.132459,0.110181,-0.0166529,-0.132825,-0.0775941,2.46265
-1.3034,0.801545,0.266917,-0.0419039,0.0205238,-0.136746,2.46265
-0.589475,0.90182,0.588241,-0.0525427,0.147158,-0.244189,2.46265
0.280235,0.175515,0.584618,-0.0754201,0.234004,-0.314801,2.46265
0.686956,-0.750204,0.257781,-0.0960105,0.213914,-0.253657,2.46265
0.502824,-1.01838,0.0062001,-0.111385,0.162794,-0.0690257,2.46265
0.104479,-0.532704,-0.0656482,-0.147513,0.134776,0.0991178,2.46265
-0.154088,0.220513,-0.13138,-0.195158,0.1631,0.17397,2.46265
-0.143127,0.696399,-0.293636,-0.189878,0.192065,0.162266,2.46265
0.036162,0.783474,-0.437094,-0.136597,0.179182,0.162372,2.46265
0.222617,0.603935,-0.487316,-0.066969,0.140093,0.19687,2.46265
0.330739,0.356448,-0.466424,-0.0232229,0.101861,0.259977,2.46265
0.349676,0.102864,-0.479847,-0.010554,0.099683,0.316678,2.46265
0.247,-0.136309,-0.544586,-0.0143325,0.0969563,0.342966,2.46265
0.049512,-0.168908,-0.602292,-0.0200237,0.0872986,0.352153,2.46265
-0.0689351,-0.0229235,-0.537154,-0.0238819,0.0834778,0.340956,2.46265
-0.15607,0.190025,-0.460558,-0.0255041,0.0865443,0.310724,2.46265
-0.210841,0.205113,-0.436428,-0.0167588,0.0833054,0.243155,2.46265
-0.338208,0.160249,-0.432253,0.00920668,0.0309237,0.216111,2.46265
-0.588027,0.206662,-0.377585,0.0462214,-0.0498019,0.194022,2.46265
-0.779944,0.167932,-0.26695,0.0761337,-0.100036,0.115355,2.46265
-0.801385,0.116414,-0.190519,0.0997437,-0.158714,0.0155587,2.46265
-0.689399,0.0411378,-0.0553603,0.157946,-0.272074,-0.071516,2.46265
-0.485134,-0.268276,0.269142,0.20673,-0.389723,-0.175822,2.46265
-0.238131,-0.79217,0.486124,0.150929,-0.369787,-0.28503,2.46265
0.0648552,-1.18278,0.356186,0.0159328,-0.280193,-0.35884,2.46265
0.413109,-1.13739,0.0820196,-0.0990244,-0.191414,-0.38213,2.46265
0.741392,-0.569108,-0.101556,-0.178213,-0.123485,-0.33411,2.46265
0.969065,0.14095,-0.184199,-0.197028,-0.0912726,-0.288216,2.46265
1.11592,0.514698,-0.229871,-0.163891,-0.069279,-0.264816,2.46265
1.18817,0.540463,-0.310088,-0.114856,-0.0517478,-0.244129,2.46265
1.07582,0.398528,-0.394047,-0.0708513,-0.0534943,-0.19453,2.46265
0.66911,0.260694,-0.414361,-0.02009,-0.0720878,-0.158081,2.46265
0.19288,0.0394212,-0.321329,0.0449039,-0.074262,-0.164266,2.46265
-0.085538,-0.87782,-0.102701,0.180712,-0.0147302,-0.318472,2.46265
0.131024,-2.07203,0.174683,0.28519,0.0798281,-0.412358,2.46265
0.828391,-2.61518,0.379673,0.217408,0.200281,-0.306128,2.46265
1.49229,-2.18284,0.451224,0.0473163,0.285965,-0.0628676,2.46265
1.31607,-0.704941,0.423215,-0.041456,0.181175,0.231723,2.46265
0.482717,1.0246,0.489974,0.0066804,0.054538,0.412355,2.46265
-0.256137,2.1256,0.640476,0.106024,0.0151319,0.385762,2.46265
-0.256137,2.1256,0.640476,0.106024,0.0151319,0.385762,2.52342
-0.567611,2.41233,0.774807,0.158771,0.017565,0.280121,2.52342
-0.585998,2.18038,0.768057,0.136403,0.0374606,0.195619,2.52342
-0.59879,1.62605,0.604641,0.0846868,0.0488996,0.159822,2.52342
-0.606339,1.01356,0.364131,0.0535968,0.0565445,0.146592,2.52342
-0.464958,0.66044,0.213639,0.0461451,0.0675762,0.141664,2.52342
-0.229408,0.522398,0.250174,0.050058,0.0798438,0.134134,2.52342
-0.00200495,0.394412,0.344891,0.0551212,0.090748,0.12655,2.52342
0.156794,0.190368,0.354142,0.0527948,0.086019,0.126169,2.52342
0.218895,0.0507931,0.287859,0.0399829,0.0627809,0.156725,2.52342
0.157988,0.0868185,0.202757,0.0340666,0.0287046,0.189884,2.52342
0.0402249,0.264124,0.177263,0.0328359,-0.00156397,0.18997,2.52342
-0.0731099,0.482888,0.219896,0.0346017,-0.0243924,0.161289,2.52342
-0.158553,0.573657,0.26788,0.0429735,-0.0335853,0.0956307,2.52342
-0.17915,0.396956,0.277907,0.0517034,-0.0282879,0.0104465,2.52342
-0.13503,0.0861344,0.256611,0.0553697,-0.0230323,-0.0593292,2.52342
-0.043863,-0.125812,0.239729,0.0453625,-0.0205172,-0.0818645,2.52342
0.0190788,-0.150331,0.241143,0.0174542,-0.0236735,-0.0780337,2.52342
-0.0250011,-0.0768277,0.258621,-0.0177654,-0.0246849,-0.0751041,2.52342
-0.178198,-0.107265,0.222742,-0.0587891,0.011921,-0.103768,2.52342
-0.259264,-0.220051,0.088897,-0.105365,0.0488521,-0.154633,2.52342
-0.243243,-0.332734,-0.0856338,-0.110084,0.0801054,-0.179461,2.52342
-0.167588,-0.44635,-0.135479,-0.0549877,0.0547124,-0.190012,2.52342
-0.253688,-0.528809,-0.0950251,-0.00298441,-0.0107935,-0.137388,2.52342
-0.696936,-0.468351,-0.0974281,0.0387499,-0.086641,-0.0802635,2.52342
-1.30571,-0.326316,-0.103645,0.024786,-0.0822118,-0.0884032,2.52342
-1.4895,-0.261551,-0.175972,-0.0315529,0.0314725,-0.167853,2.52342
-1.01668,-0.229508,-0.258609,-0.0726671,0.152298,-0.244039,2.52342
-0.243746,-0.353417,-0.218464,-0.0768337,0.190222,-0.25326,2.52342
0.0733139,-0.504959,-0.213523,-0.0424807,0.117696,-0.147268,2.52342
-0.00588127,-0.383553,-0.250917,-0.0351141,0.0317776,0.00250554,2.52342
-0.214339,-0.0691451,-0.235991,-0.0273864,-0.00366084,0.0920925,2.52342
-0.263804,0.312049,-0.101609,0.00996912,-0.018298,0.104769,2.52342
-0.19661,0.771754,0.209123,0.0380706,-0.0119351,0.11576,2.52342
-0.0394956,0.945636,0.435143,0.0264259,0.0337563,0.131474,2.52342
0.0973263,0.708408,0.308582,-0.00948841,0.0545739,0.129576,2.52342
0.168855,0.467163,0.0616197,-0.011357,-0.00640234,0.187657,2.52342
0.0700025,0.348885,-0.0393041,0.00745042,-0.037595,0.232321,2.52342
-0.0393471,0.326874,-0.0559352,0.00452878,-0.0429891,0.235708,2.52342
-0.00553078,0.281017,-0.113104,-0.0197151,-0.00929227,0.181859,2.52342
0.136315,0.102606,-0.200523,-0.0371444,0.00871627,0.128999,2.52342
0.281173,-0.0697529,-0.304547,-0.0326951,0.00283459,0.12605,2.52342
0.330411,-0.143094,-0.390726,-0.0193565,-0.0262381,0.125616,2.52342
0.287747,-0.108335,-0.396896,-0.0169161,-0.0388743,0.12994,2.52342
0.217779,-0.0230758,-0.328691,-0.0286297,-0.0515926,0.131722,2.52342
0.08987,0.0332185,-0.339537,-0.0461759,-0.0589159,0.114976,2.52342
-0.0202121,0.0296447,-0.435666,-0.0534732,-0.0657766,0.0960061,2.52342
-0.0755511,-0.0334699,-0.483848,-0.0497715,-0.0812458,0.0773705,2.52342
-0.0755511,-0.0334699,-0.483848,-0.0497715,-0.0812458,0.0773705,2.58154
-0.111578,-0.101614,-0.48066,-0.0417945,-0.0885036,0.0512269,2.58154
-0.164361,-0.146085,-0.477593,-0.0384375,-0.10422,0.0337959,2.58154
-0.269003,-0.0987694,-0.446122,-0.0399957,-0.108711,0.03815,2.58154
-0.428268,0.0196189,-0.366648,-0.0352729,-0.092542,0.0262524,2.58154
-0.601937,0.0380957,-0.307699,-0.02211,-0.0913618,-0.0368646,2.58154
-0.728392,-0.0415143,-0.344268,-0.00888125,-0.0881497,-0.137209,2.58154
-0.822144,-0.184787,-0.281712,0.0267166,-0.0517772,-0.236352,2.58154
-0.714615,-0.19194,0.00723543,0.0621648,-0.0208649,-0.247561,2.58154
-0.565823,-0.292639,0.212023,0.0702734,-0.0164014,-0.258951,2.58154
-0.80432,-0.43517,0.272894,0.0630373,-0.0374055,-0.24786,2.58154
-1.26341,-0.313153,0.160462,0.00812715,0.0143045,-0.237492,2.58154
-1.30388,0.184692,0.0068658,-0.0490619,0.103581,-0.204999,2.58154
-0.814934,0.551577,0.103533,-0.0506979,0.12257,-0.175628,2.58154
-0.351231,0.70067,0.26335,0.0182697,0.048459,-0.0901696,2.58154
-0.29039,0.582735,0.311045,0.0776117,-0.0609697,-0.0336056,2.58154
-0.446953,0.376063,0.188784,0.0942553,-0.0876705,-0.0209699,2.58154
-0.442698,0.194285,0.050925,0.075922,-0.0625409,-0.0555002,2.58154
-0.199883,0.157439,0.00147402,0.0560076,-0.0230373,-0.0885064,2.58154
0.112009,0.161519,0.0731307,0.0497952,-0.0136992,-0.0946823,2.58154
0.345418,0.180675,0.154371,0.0587256,-0.0209912,-0.0617486,2.58154
0.495154,0.179289,0.238755,0.0642339,-0.039156,-0.0133979,2.58154
0.588225,0.162007,0.288225,0.0665405,-0.0450216,0.0469615,2.58154
0.630428,0.128649,0.340895,0.071008,-0.0587785,0.105196,2.58154
0.623672,0.131817,0.451345,0.065494,-0.0654888,0.157668,2.58154
0.557026,0.222489,0.501624,0.0559556,-0.0549688,0.183223,2.58154
0.520044,0.294662,0.524623,0.0393578,-0.0417916,0.172886,2.58154
0.506416,0.260348,0.539967,0.0382482,-0.0343785,0.144037,2.58154
0.544949,0.170239,0.500229,0.0309837,-0.0164248,0.129944,2.58154
0.572842,0.186186,0.437963,0.038656,-0.00492342,0.14153,2.58154
0.445962,0.481926,0.541494,0.0606302,-0.0602024,0.20299,2.58154
0.150802,0.611653,0.575789,0.0240864,-0.0263714,0.117176,2.58154
0.175181,0.578349,0.363371,-0.0317378,0.0466946,0.0629599,2.58154
0.294771,0.313074,0.0805165,-0.0491803,0.067833,-0.00372237,2.58154
0.239452,0.202279,-0.126607,-0.00986009,0.0551736,0.00351769,2.58154
0.115348,0.264392,-0.170083,0.00934566,0.0508324,0.000685692,2.58154
0.0772574,0.310374,-0.169202,0.0132449,0.0498245,-0.0321357,2.58154
0.0390681,0.205423,-0.243154,0.0072905,0.0804622,-0.0691323,2.58154
-0.042642,0.0670107,-0.377596,0.023266,0.0773956,-0.0890545,2.58154
-0.158153,0.027737,-0.367547,0.0688492,0.0309854,-0.0768405,2.58154
-0.331722,0.150609,-0.148179,0.0786463,-0.0598176,-0.0205702,2.58154
-0.789969,0.0732892,-0.0996905,0.0335829,-0.0805192,0.021282,2.58154
-1.43412,-0.629689,-0.585794,0.0170595,-0.0471231,-0.0967504,2.58154
-1.65699,-1.03733,-0.862974,0.0303858,0.0551778,-0.176374,2.58154
-1.10153,-0.770319,-0.5388,0.018818,0.172373,-0.13917,2.58154
-0.416242,-0.601782,-0.127433,0.0143725,0.176175,-0.166185,2.58154
-0.0797754,-0.684052,0.0247949,0.0267228,0.103637,-0.142577,2.58154
-0.0977476,-0.666465,0.0129841,0.00717724,0.0755136,-0.0911069,2.58154
-0.146133,-0.324324,0.0192316,-0.0445678,0.0752699,-0.0456219,2.58154
-0.146133,-0.324324,0.0192316,-0.0445678,0.0752699,-0.0456219,2.65289
-0.0556566,0.215621,-0.0114001,-0.0912099,0.105499,-0.0306404,2.65289
0.22713,0.641038,-0.00129615,-0.0950223,0.104554,-0.0141817,2.65289
0.47777,0.783051,0.0186906,-0.0665339,0.0703493,0.00874895,2.65289
0.580425,0.680259,-0.0351717,-0.0479647,0.0472009,0.049949,2.65289
0.582409,0.51262,-0.0807746,-0.0304573,-0.000494704,0.110155,2.65289
0.468289,0.397211,-0.0848944,-0.0208453,-0.0254001,0.154639,2.65289
0.363036,0.397964,-0.0363956,-0.0236242,-0.038367,0.206241,2.65289
0.302379,0.426328,-0.0125138,-0.0458169,-0.0303453,0.227273,2.65289
0.235182,0.367899,0.0149068,-0.0511175,-0.0348383,0.237465,2.65289
0.225288,0.196743,0.0130107,-0.0556813,-0.0389328,0.215594,2.65289
0.125077,0.0143261,-0.0454826,-0.058528,-0.042244,0.20598,2.65289
-0.0564322,0.0393718,-0.0868863,-0.0530569,-0.0523077,0.196455,2.65289
-0.179896,0.142635,-0.0015659,-0.0377273,-0.0754261,0.179516,2.65289
-0.28317,0.274073,-0.00201267,-0.0357457,-0.0565769,0.0981829,2.65289
-0.0589996,0.256929,0.064511,-0.0292193,-0.0382988,0.00889301,2.65289
0.0412711,0.045248,0.109715,-0.00547579,-0.0503194,-0.0394957,2.65289
0.0887482,-0.0949526,0.0598288,-0.00489578,-0.0486708,-0.086246,2.65289
0.423165,-0.248604,0.135185,-0.00292898,-0.0460561,-0.129032,2.65289
0.555429,-0.461623,0.193475,0.00710117,-0.0801732,-0.146318,2.65289
0.523917,-0.497879,0.186495,-0.0126278,-0.106167,-0.136941,2.65289
0.48436,-0.427992,0.163696,-0.0450429,-0.103252,-0.138528,2.65289
0.451554,-0.258817,0.13454,-0.0595652,-0.085965,-0.151873,2.65289
0.579696,-0.00662592,0.205674,-0.0582637,-0.0659042,-0.160231,2.65289
0.843288,0.215234,0.258423,-0.0488846,-0.060423,-0.155473,2.65289
1.03204,0.434493,0.191542,-0.00863805,-0.0618849,-0.0763219,2.65289
0.718916,0.334049,0.140068,0.045084,-0.143687,0.0156388,2.65289
-0.422162,0.38379,-0.148335,0.0698863,-0.171482,0.0622998,2.65289
-1.40468,0.722771,-0.194423,0.0374604,-0.121633,0.0530486,2.65289
-2.00936,1.24875,-0.104348,0.00341856,0.0192045,-0.101023,2.65289
-1.63026,1.81434,0.125119,0.00654212,0.193426,-0.282947,2.65289
-0.40913,1.61419,0.48726,0.0572593,0.279414,-0.454636,2.65289
0.676459,0.376477,0.581631,0.120075,0.221173,-0.51586,2.65289
1.21831,-0.868672,0.512205,0.133891,0.108855,-0.356569,2.65289
1.2829,-1.35286,0.50324,0.10156,0.00303659,-0.0973418,2.65289
1.12202,-1.15828,0.533336,0.0296949,-0.0380045,0.100788,2.65289
0.945016,-0.618616,0.428256,-0.0534067,-0.0235583,0.224172,2.65289
0.852651,-0.153269,0.282587,-0.082578,-0.0152404,0.28831,2.65289
0.793365,0.15179,0.124356,-0.0702707,-0.0185976,0.317324,2.65289
0.714117,0.309275,0.0427867,-0.026308,-0.0486497,0.355719,2.65289
0.519664,0.314053,0.0555397,0.0184771,-0.0852999,0.393097,2.65289
0.255366,0.361364,0.0584312,0.0296098,-0.102076,0.422572,2.65289
0.0342436,0.435585,0.0173526,0.0216294,-0.0990594,0.439817,2.65289
-0.190555,0.445946,-0.0389667,0.0222302,-0.0964254,0.427005,2.65289
-0.442866,0.364212,-0.121997,0.0381317,-0.100271,0.378847,2.65289
-0.637177,0.253817,-0.120891,0.0599439,-0.0883919,0.301832,2.65289
-0.654983,0.181364,-0.0421913,0.0720965,-0.0536682,0.205031,2.65289
-0.544475,0.11701,0.0416026,0.0869533,-0.0226409,0.117119,2.65289
-0.544475,0.11701,0.0416026,0.0869533,-0.0226409,0.117119,2.74274
-0.422781,0.0456211,0.0802541,0.0943824,-0.00192636,0.0283515,2.74274
-0.296002,0.0312224,0.115387,0.100663,-0.000784248,-0.0353196,2.74274
-0.211659,0.098079,0.169298,0.105296,-0.00775124,-0.0684627,2.74274
-0.177252,0.200687,0.213594,0.103,-0.0154177,-0.100696,2.74274
-0.162317,0.279526,0.195788,0.101672,-0.00857112,-0.136714,2.74274
-0.142877,0.356983,0.179212,0.103014,-0.00640184,-0.180016,2.74274
-0.125643,0.436365,0.16499,0.120919,0.00656554,-0.215033,2.74274
-0.0767214,0.344817,0.14455,0.133842,0.0123912,-0.272364,2.74274
0.0262157,-0.00351541,0.0928428,0.148623,0.0172076,-0.317804,2.74274
0.0834175,-0.62648,0.0277382,0.153794,0.00168189,-0.321299,2.74274
-0.291491,-1.28513,-0.245372,0.0998625,-0.00493377,-0.317337,2.74274
-0.94544,-1.20494,-0.659955,0.00825721,-0.00662373,-0.25947,2.74274
-1.23133,-0.380337,-0.821499,-0.0726624,0.126244,-0.202286,2.74274
-0.959768,0.508837,-0.725213,-0.100451,0.24678,-0.220163,2.74274
-0.452983,0.669837,-0.548031,-0.0449547,0.261981,-0.29822,2.74274
0.0339699,0.163461,-0.379512,-0.00177239,0.198184,-0.299427,2.74274
0.324884,-0.417806,-0.255976,-0.022654,0.161013,-0.213781,2.74274
0.481913,-0.717115,-0.148011,-0.0938184,0.144071,-0.0791661,2.74274
0.528442,-0.681762,-0.100442,-0.156812,0.129468,0.0420578,2.74274
0.474863,-0.437304,-0.0768825,-0.191985,0.0976948,0.131782,2.74274
0.370698,-0.201508,-0.0544711,-0.181451,0.0538237,0.194997,2.74274
0.283964,-0.102739,-0.0412787,-0.148085,0.0220278,0.217766,2.74274
0.271738,-0.180288,-0.0374484,-0.107208,-0.00703239,0.223923,2.74274
0.233027,-0.358404,-0.0177239,-0.0712852,-0.035786,0.237541,2.74274
0.186448,-0.513651,-0.0125904,-0.0406267,-0.0401353,0.251066,2.74274
0.170591,-0.666099,-0.000904822,-0.0251569,-0.0324452,0.250676,2.74274
0.180786,-0.718714,0.00811959,-0.0087844,-0.0143579,0.257464,2.74274
0.260679,-0.630025,0.0676045,-0.00557167,-0.00940773,0.27639,2.74274
0.244768,-0.416517,0.0769806,-0.0129546,-0.0115989,0.288762,2.74274
0.302408,-0.180134,-0.00691724,-0.0225033,0.00135748,0.264433,2.74274
0.357138,-0.123096,-0.148133,-0.015425,0.0236446,0.234918,2.74274
0.250255,-0.120973,-0.265009,0.0190828,-0.0131071,0.218874,2.74274
0.0638431,-0.0730834,-0.293605,0.0372342,-0.0550057,0.210765,2.74274
-0.133954,0.057288,-0.333428,0.0229296,-0.0740063,0.188086,2.74274
-0.294212,0.204357,-0.446337,-0.00629274,-0.0594339,0.147753,2.74274
-0.375223,0.379005,-0.548958,-0.0203422,-0.0608438,0.107596,2.74274
-0.402508,0.66257,-0.559948,-0.0359846,-0.0873193,0.102235,2.74274
-0.455548,0.963382,-0.536398,-0.0432787,-0.119226,0.0923918,2.74274
-0.561986,1.17041,-0.491286,-0.0227462,-0.152476,0.0633208,2.74274
-0.660414,1.04195,-0.38363,0.00883868,-0.18506,-0.0274476,2.74274
-0.601162,0.504431,-0.313204,0.0301451,-0.196018,-0.171456,2.74274
-0.355107,-0.140874,-0.241434,0.0377691,-0.191236,-0.288642,2.74274
-0.0696459,-0.458618,-0.151355,0.0299995,-0.169626,-0.31879,2.74274
0.221046,-0.468282,-0.0518971,0.00842643,-0.13299,-0.322331,2.74274
0.336571,-0.355733,0.00870368,0.00925089,-0.111442,-0.298413,2.74274
0.0151543,-0.313357,-0.0769667,0.0522098,-0.153985,-0.312784,2.74274
-0.707229,-0.18506,-0.270801,0.0945367,-0.159747,-0.34488,2.74274
-1.21309,0.280183,-0.276296,0.104123,-0.106299,-0.351507,2.74274
-1.21309,0.280183,-0.276296,0.104123,-0.106299,-0.351507,2.89334
-1.10702,0.908867,-0.0721583,0.106797,0.0559183,-0.378501,2.89334
-0.361839,1.01653,0.216508,0.141215,0.15631,-0.452775,2.89334
0.452009,0.446822,0.430596,0.201831,0.146952,-0.440967,2.89334
0.948236,-0.202977,0.593512,0.231198,0.075959,-0.288622,2.89334
1.04502,-0.460143,0.745736,0.207509,0.0180269,-0.0789531,2.89334
0.967013,-0.261313,0.881352,0.152259,-0.00498728,0.0790415,2.89334
0.931924,0.103309,1.03426,0.101836,0.0172802,0.129867,2.89334
1.07779,0.344564,1.13671,0.0760382,0.0704518,0.122235,2.89334
1.35891,0.264165,1.1442,0.0601045,0.123846,0.109024,2.89334
1.62226,0.0500316,1.10249,0.0589207,0.139024,0.160996,2.89334
1.74903,-0.0455664,1.06308,0.0589608,0.122127,0.264387,2.89334
1.63517,0.043648,1.00903,0.059525,0.0858365,0.364887,2.89334
1.2759,0.209197,0.910584,0.0672184,0.0509216,0.41904,2.89334
0.798853,0.36882,0.755938,0.0676791,0.025369,0.434019,2.89334
0.293288,0.46088,0.533423,0.0633699,0.0282446,0.423277,2.89334
-0.14146,0.60488,0.376533,0.0778762,0.0331475,0.414075,2.89334
-0.380238,0.790893,0.443959,0.102932,0.0457032,0.399655,2.89334
-0.466573,0.810545,0.546926,0.110127,0.0574677,0.347599,2.89334
-0.547473,0.625035,0.55868,0.108835,0.0476401,0.286481,2.89334
-0.705691,0.463077,0.519695,0.106008,0.0260295,0.254457,2.89334
-0.938175,0.398142,0.516808,0.103277,-0.00542903,0.22481,2.89334
-1.15903,0.402864,0.5125,0.088751,-0.0208162,0.153729,2.89334
-1.20951,0.405353,0.551475,0.0810057,-0.00788721,0.0443318,2.89334
-1.13347,0.289058,0.585055,0.0825564,0.00454807,-0.0917563,2.89334
-1.00563,0.00302838,0.575898,0.0965813,-0.0309089,-0.238834,2.89334
-0.830794,-0.40462,0.484238,0.0841837,-0.0237875,-0.369556,2.89334
-0.52134,-0.790913,0.390498,0.0416305,-0.00499995,-0.470396,2.89334
-0.360435,-0.922921,0.152885,0.0186626,0.0642806,-0.528228,2.89334
-0.162842,-0.677321,0.0515436,0.00343461,0.078133,-0.51656,2.89334
-0.0919136,-0.309209,-0.042594,0.0127584,0.0499755,-0.466575,2.89334
-0.23542,-0.0571114,-0.16123,0.0433345,-0.00448403,-0.416443,2.89334
-0.275943,0.141452,-0.198907,0.0514763,0.0123464,-0.382312,2.89334
0.0316234,0.247042,-0.139287,0.04271,0.0743757,-0.348147,2.89334
0.523309,0.232842,-0.0460301,0.0450875,0.097675,-0.278007,2.89334
0.868278,0.0462226,0.0911835,0.0663543,0.0644089,-0.164839,2.89334
0.925013,-0.223141,0.191651,0.0622438,0.0287744,-0.0574546,2.89334
0.825015,-0.361933,0.247142,0.031983,0.010172,0.0450964,2.89334
0.75521,-0.34396,0.311516,-0.00223078,0.021111,0.127712,2.89334
0.685729,-0.168507,0.336318,-0.0398115,0.0370158,0.190579,2.89334
0.504766,0.0314187,0.320714,-0.0545034,0.0352435,0.240787,2.89334
0.280979,0.193768,0.339267,-0.0468473,0.0305215,0.274201,2.89334
0.219351,0.333485,0.34573,-0.0619225,0.0721104,0.278613,2.89334
0.296187,0.365649,0.391718,-0.0582225,0.0936446,0.290804,2.89334
0.354666,0.224338,0.444519,-0.0407632,0.0966936,0.312721,2.89334
0.400176,-0.012578,0.523175,-0.0359108,0.0899845,0.34248,2.89334
0.395028,-0.180052,0.586122,-0.0376229,0.0852977,0.38169,2.89334
0.298617,-0.278641,0.544811,-0.0540053,0.0846691,0.412491,2.89334
0.298617,-0.278641,0.544811,-0.0540053,0.0846691,0.412491,3.14964
0.279944,-0.334213,0.448689,-0.0712866,0.0706328,0.41503,3.14964
0.12433,-0.333002,0.31096,-0.0499622,0.0360988,0.410061,3.14964
-0.0958823,-0.279315,0.182009,-0.0220577,-0.0069595,0.382311,3.14964
-0.414404,-0.203441,0.130487,0.00971395,-0.0546985,0.329918,3.14964
-0.895541,-0.223633,0.0610093,0.037703,-0.0958266,0.256304,3.14964
-1.40442,-0.266808,0.00987571,0.0557334,-0.0972241,0.174736,3.14964
-1.56659,-0.245405,0.0912395,0.0488791,-0.0588407,0.0936165,3.14964
-1.24834,-0.187532,0.213168,0.0107988,0.0079302,0.0192767,3.14964
-0.760364,-0.254105,0.225454,-0.025012,0.0303981,-0.0628653,3.14964
-0.327214,-0.364687,0.135066,-0.042806,-0.00149362,-0.100737,3.14964
-0.106464,-0.390783,0.0958291,-0.0297541,-0.0711982,-0.0846471,3.14964
-0.0145662,-0.30398,0.172894,-0.0021725,-0.156041,-0.0620911,3.14964
0.0227517,-0.264266,0.26115,0.0125603,-0.191135,-0.064237,3.14964
0.0627261,-0.333065,0.302015,0.0422651,-0.214204,-0.078894,3.14964
0.0960193,-0.51036,0.345821,0.0877493,-0.255075,-0.103343,3.14964
0.0312038,-0.681991,0.424366,0.131268,-0.280338,-0.107683,3.14964
-0.0132168,-0.714649,0.527729,0.152946,-0.275156,-0.11758,3.14964
0.172929,-0.570219,0.719673,0.174681,-0.262218,-0.123438,3.14964
0.329848,-0.404547,0.879029,0.201511,-0.295945,-0.135074,3.14964
0.152285,-0.145278,0.934913,0.231213,-0.311011,-0.1176,3.14964
-0.146357,0.14184,1.05169,0.270887,-0.317828,-0.133882,3.14964
-0.166907,0.431644,1.26195,0.305605,-0.216307,-0.153189,3.14964
0.189842,0.564059,1.54975,0.337495,-0.113549,-0.166194,3.14964
0.699546,0.473257,1.84644,0.380114,-0.0666401,-0.131268,3.14964
0.973969,0.239714,2.07235,0.4218,-0.0916697,-0.0594306,3.14964
0.865898,0.0452128,2.2686,0.456604,-0.14462,0.0254939,3.14964
0.558672,0.0112397,2.44003,0.463185,-0.161639,0.0729821,3.14964
0.258183,0.07483,2.57115,0.434715,-0.105446,0.0621533,3.14964
0.123697,0.209378,2.58872,0.38834,-0.00278383,0.0161505,3.14964
0.262731,0.35077,2.54151,0.349325,0.106489,-0.0510601,3.14964
0.595128,0.458437,2.56806,0.33786,0.177077,-0.0935151,3.14964
0.889565,0.48025,2.62136,0.345676,0.205404,-0.104646,3.14964
1.04123,0.354127,2.5392,0.338062,0.207695,-0.105663,3.14964
1.10041,0.20256,2.3309,0.312018,0.207031,-0.0864719,3.14964
1.0722,0.243969,2.04935,0.268738,0.207882,-0.0499465,3.14964
0.950092,0.526028,1.74234,0.224796,0.208151,-0.00777161,3.14964
0.743899,0.930132,1.45441,0.19362,0.214485,0.0330207,3.14964
0.502189,1.31905,1.19055,0.179338,0.222122,0.0570449,3.14964
0.286405,1.54091,1.00399,0.169663,0.22145,0.0606976,3.14964
0.14243,1.5564,0.829052,0.14806,0.231525,0.0421533,3.14964
0.0635272,1.40887,0.628537,0.116201,0.245937,0.024648,3.14964
0.00782716,1.26513,0.461468,0.0845644,0.261468,-0.00138992,3.14964
-0.026628,1.17325,0.413104,0.0589593,0.263943,-0.0205876,3.14964
-0.0873955,1.13714,0.429014,0.0453803,0.268219,-0.025022,3.14964
-0.187999,1.10604,0.526771,0.040225,0.242812,-0.022408,3.14964
-0.211921,0.874144,0.636276,0.0347492,0.165392,-0.0565705,3.14964
-0.337591,0.462541,0.534606,0.010752,0.130845,-0.0811514,3.14964
-0.337591,0.462541,0.534606,0.010752,0.130845,-0.0811514,3.40067
-0.727055,0.229204,0.300674,-0.0252336,0.127065,-0.068273,3.40067
-1.09219,0.420342,0.289061,-0.046979,0.118939,0.00504881,3.40067
-1.19974,0.773724,0.539339,-0.0531479,0.12838,0.0304183,3.40067
-1.02878,0.898046,0.834278,-0.049583,0.118618,0.011842,3.40067
-0.782817,0.595746,0.951882,-0.0380396,0.104353,-0.0322175,3.40067
-0.639596,0.139946,0.923549,-0.0295333,0.0907163,-0.0396127,3.40067
-0.535203,-0.220614,0.943192,-0.0285708,0.082437,-0.0106295,3.40067
-0.400377,-0.431773,0.96289,-0.0467726,0.0735392,0.0228463,3.40067
-0.326869,-0.504801,0.892723,-0.0594518,0.0755765,0.0726862,3.40067
-0.36967,-0.479318,0.793644,-0.0491329,0.0584059,0.124955,3.40067
-0.473745,-0.452953,0.693697,-0.0216615,0.0367758,0.155156,3.40067
-0.584502,-0.491651,0.587569,0.00148018,0.0255309,0.155567,3.40067
-0.598006,-0.536443,0.480269,0.0137703,0.0239539,0.145004,3.40067
-0.39991,-0.537669,0.492796,0.0214073,0.0172705,0.146591,3.40067
-0.131522,-0.504966,0.62062,0.0425602,-0.0139023,0.148044,3.40067
-0.0513212,-0.522238,0.709172,0.0860311,-0.0635836,0.126211,3.40067
-0.158059,-0.51747,0.724468,0.13331,-0.120322,0.0879794,3.40067
-0.324214,-0.358132,0.769868,0.16412,-0.167636,0.0496646,3.40067
-0.411963,-0.141283,0.866609,0.166887,-0.176893,-0.0239436,3.40067
-0.317742,0.0756461,0.974135,0.168359,-0.160235,-0.115861,3.40067
-0.0402014,0.231092,1.14392,0.18241,-0.15635,-0.188124,3.40067
0.314089,0.169815,1.31769,0.195567,-0.158318,-0.247212,3.40067
0.625929,-0.12255,1.42808,0.198312,-0.16768,-0.277681,3.40067
0.761734,-0.620526,1.40534,0.196117,-0.188252,-0.28686,3.40067
0.735868,-0.970242,1.30587,0.178462,-0.167821,-0.268669,3.40067
0.853575,-0.816421,1.35969,0.142338,-0.137565,-0.222319,3.40067
0.902611,-0.433108,1.47236,0.101576,-0.167336,-0.198547,3.40067
0.424428,-0.0164723,1.44234,0.104666,-0.200825,-0.206171,3.40067
-0.151382,0.404049,1.41988,0.11397,-0.141871,-0.207505,3.40067
-0.233483,0.811366,1.52534,0.127917,-0.00955513,-0.204047,3.40067
0.20024,1.05051,1.79241,0.167511,0.0915368,-0.154841,3.40067
0.775487,0.999609,2.08009,0.214733,0.0997334,-0.0548543,3.40067
1.02082,0.754816,2.22347,0.277454,0.0524189,0.0625118,3.40067
0.847591,0.410609,2.30863,0.314111,-0.00939563,0.135965,3.40067
0.428983,0.26023,2.3644,0.32826,-0.026722,0.194186,3.40067
-0.0090874,0.217993,2.3629,0.307571,0.00898919,0.169659,3.40067
-0.271355,0.237265,2.25183,0.257296,0.111823,0.100216,3.40067
-0.257526,0.330927,2.05342,0.212355,0.208793,0.0294842,3.40067
0.00476514,0.434855,1.9401,0.203624,0.254597,-0.0067575,3.40067
0.294663,0.416804,1.89638,0.223329,0.236689,-0.00970274,3.40067
0.397428,0.346108,1.77255,0.23372,0.199264,0.0179539,3.40067
0.36702,0.299754,1.60179,0.230669,0.157609,0.0568649,3.40067
0.22375,0.361874,1.44714,0.226577,0.116724,0.0870416,3.40067
0.0825347,0.62805,1.2763,0.183305,0.112714,0.0894189,3.40067
-0.032008,0.856489,1.15871,0.158538,0.100124,0.0667788,3.40067
-0.138943,0.978984,1.07299,0.149189,0.0851328,0.0103167,3.40067
-0.0886588,0.945951,0.980002,0.114453,0.0816495,-0.048944,3.40067
-0.0670598,0.790417,0.87249,0.0967977,0.064183,-0.0800786,3.40067
-0.0670598,0.790417,0.87249,0.0967977,0.064183,-0.0800786,3.62526
-0.0742052,0.726065,0.719946,0.0716637,0.0565201,-0.0957196,3.62526
0.0225157,0.730185,0.580836,0.0367349,0.049876,-0.124323,3.62526
0.0483248,0.75471,0.463232,0.0346605,0.0462966,-0.148359,3.62526
0.0502042,0.787794,0.443198,0.0544489,0.0290547,-0.165809,3.62526
0.0260801,0.686262,0.467142,0.0607694,0.0223607,-0.204143,3.62526
-0.0218163,0.470403,0.40452,0.0469507,0.0540733,-0.229674,3.62526
-0.131241,0.120739,0.295005,-0.00817729,0.0788016,-0.282867,3.62526
-0.294343,-0.299238,0.168655,-0.0795631,0.106118,-0.320663,3.62526
-0.555805,-0.427764,-0.0163274,-0.11385,0.123977,-0.303084,3.62526
-0.884925,-0.218254,-0.140686,-0.123683,0.151151,-0.269619,3.62526
-1.02051,0.0463047,-0.147002,-0.117941,0.185086,-0.24907,3.62526
-0.853102,0.144193,-0.066798,-0.0925397,0.226422,-0.242635,3.62526
-0.429189,0.0124657,0.107966,-0.0605557,0.216009,-0.215317,3.62526
-0.0228086,-0.321566,0.239215,-0.053435,0.172596,-0.183547,3.62526
0.168453,-0.596277,0.224344,-0.0647757,0.13492,-0.115622,3.62526
0.231265,-0.587238,0.215388,-0.0762527,0.0918497,-0.00657165,3.62526
0.20743,-0.392936,0.241128,-0.0794926,0.0509915,0.0761712,3.62526
0.166182,-0.167256,0.223978,-0.0695351,0.0366212,0.133317,3.62526
0.165664,-0.0404737,0.167778,-0.0460103,0.0219357,0.157364,3.62526
0.16032,-0.0668038,0.129233,-0.00836904,-0.00143307,0.176916,3.62526
0.136584,-0.127009,0.0845567,0.0222805,-0.0128231,0.195297,3.62526
0.0882726,-0.194417,0.0288026,0.0282116,-0.00752392,0.188927,3.62526
0.0782205,-0.16317,-0.0156504,0.0200587,0.0284889,0.187327,3.62526
0.156029,-0.0843196,-0.0030824,0.0121213,0.0535311,0.180696,3.62526
0.230866,-0.0601197,0.0143692,0.0183656,0.0619504,0.179539,3.62526
0.272106,-0.0875891,0.0119753,0.0268117,0.0583022,0.182684,3.62526
0.253322,-0.143209,0.00825256,0.0436673,0.0334216,0.198808,3.62526
0.166499,-0.143264,0.0141703,0.0551443,0.0105923,0.209377,3.62526
0.103975,-0.10854,0.0623644,0.0558318,-0.0136557,0.195261,3.62526
0.0137375,-0.0703159,0.0850593,0.0536483,-0.031418,0.164658,3.62526
-0.0721132,-0.0456072,0.06888,0.0379226,-0.0433759,0.100676,3.62526
-0.113903,-0.0154046,0.0761272,0.0251452,-0.0493323,0.0433157,3.62526
-0.155062,0.0448242,0.11342,0.0155171,-0.0493406,-0.0047161,3.62526
-0.138166,0.030746,0.191694,0.00766416,-0.0616025,-0.0442171,3.62526
-0.064541,-0.0885626,0.215824,-0.00511384,-0.0647717,-0.0795922,3.62526
-0.0169934,-0.202763,0.179516,0.00135157,-0.0795415,-0.082616,3.62526
-0.0791845,-0.212476,0.205158,0.0218927,-0.10075,-0.0617266,3.62526
-0.224385,-0.0911336,0.310756,0.0370406,-0.109599,-0.0420734,3.62526
-0.349113,0.0852741,0.480017,0.0355007,-0.116005,-0.0312258,3.62526
-0.562845,0.241881,0.579707,0.0298125,-0.106392,-0.0546399,3.62526
-0.883379,0.202352,0.615233,0.0196006,-0.0904415,-0.111577,3.62526
-1.43682,0.183739,0.461588,-0.0045911,-0.0310413,-0.212617,3.62526
-1.64861,0.462825,0.330933,-0.0339003,0.0833726,-0.299142,3.62526
-1.16932,0.837126,0.472183,-0.050632,0.205998,-0.345825,3.62526
-0.380716,0.849584,0.786799,-0.00517891,0.207065,-0.349038,3.62526
0.197361,0.29357,0.93638,0.0471991,0.130371,-0.324513,3.62526
0.395839,-0.378394,0.784699,0.0641351,0.0870701,-0.242785,3.62526
0.395839,-0.378394,0.784699,0.0641351,0.0870701,-0.242785,3.84193
0.336311,-0.404267,0.433285,-0.00693707,0.042045,0.0124764,3.84193
0.167524,0.0309027,0.291403,-0.0289513,0.0622857,0.0818824,3.84193
0.127133,0.419474,0.170849,-0.0244898,0.0902191,0.112936,3.84193
0.230417,0.535648,0.122894,0.013485,0.090055,0.138329,3.84193
0.350935,0.429716,0.120121,0.0584931,0.0789328,0.17586,3.84193
0.433412,0.238055,0.14951,0.0884221,0.0526112,0.227783,3.84193
0.441073,0.0651743,0.186053,0.0977245,0.0274383,0.278355,3.84193
0.382538,0.00280726,0.220857,0.0905398,-0.000239894,0.320793,3.84193
0.279159,0.071272,0.289654,0.0899068,-0.028026,0.356681,3.84193
0.136911,0.227977,0.362814,0.0843645,-0.0572186,0.3416,3.84193
0.00429772,0.307974,0.465415,0.0865527,-0.0834785,0.301937,3.84193
-0.121913,0.326942,0.514853,0.0915102,-0.0923113,0.226714,3.84193
-0.109883,0.283596,0.581321,0.0921252,-0.0885878,0.137082,3.84193
0.0650715,0.217222,0.791505,0.096625,-0.0604468,0.0590098,3.84193
0.313564,0.112206,1.00953,0.100528,-0.0631297,0.00205088,3.84193
0.429855,-0.0663383,1.09731,0.0961754,-0.0702474,-0.0389904,3.84193
0.36747,-0.230948,0.961466,0.0767012,-0.0829147,-0.0651061,3.84193
0.20775,-0.293287,0.797763,0.0528201,-0.0985366,-0.0882495,3.84193
0.0507482,-0.186702,0.715386,0.0210749,-0.0930562,-0.098428,3.84193
-0.0529071,-0.0898104,0.663494,-0.0091064,-0.0593104,-0.153201,3.84193
-0.133707,-0.101947,0.54653,-0.0313151,-0.0290558,-0.244508,3.84193
-0.222454,-0.175433,0.357841,-0.0530677,-0.0124117,-0.322352,3.84193
-0.317114,-0.308411,0.154902,-0.069148,0.0206374,-0.380255,3.84193
-0.371056,-0.509365,-0.0818579,-0.0960268,0.0796417,-0.410675,3.84193
-0.506665,-0.580302,-0.331778,-0.0979446,0.115911,-0.393444,3.84193
-0.766493,-0.490578,-0.468705,-0.068889,0.135677,-0.387612,3.84193
-0.845233,-0.240265,-0.425543,-0.0415476,0.230891,-0.39631,3.84193
-0.263309,0.0871491,-0.212705,-0.0508977,0.295847,-0.352588,3.84193
0.536293,0.154083,0.00427858,-0.0456161,0.273984,-0.252187,3.84193
0.971816,0.0571553,0.0645951,-0.038297,0.192672,-0.0791147,3.84193
1.03556,-0.0236573,0.0454455,-0.058404,0.11257,0.0987707,3.84193
0.889986,0.0399652,0.00729865,-0.0808989,0.0327958,0.241089,3.84193
0.623233,0.114849,-0.0473181,-0.105129,-0.0121936,0.31326,3.84193
0.343874,0.220114,-0.174581,-0.126675,-0.0318294,0.350171,3.84193
0.0643204,0.273961,-0.39895,-0.150351,-0.0576031,0.380445,3.84193
-0.170562,0.134345,-0.71229,-0.139605,-0.0540175,0.370798,3.84193
-0.276957,-0.0804033,-0.841234,-0.107366,-0.0619467,0.360773,3.84193
-0.280187,-0.195928,-0.786325,-0.0404208,-0.0439077,0.357548,3.84193
-0.205042,-0.307544,-0.657009,-0.00896287,-0.0373767,0.313826,3.84193
-0.123343,-0.474803,-0.606557,-0.00621235,-0.00848481,0.257792,3.84193
-0.100619,-0.558922,-0.655944,-0.000461474,0.0131772,0.215334,3.84193
-0.0394329,-0.495938,-0.662878,0.0109985,0.0143864,0.200933,3.84193
0.0132568,-0.304954,-0.606574,0.0193178,0.0101206,0.178437,3.84193
0.0124032,-0.144659,-0.510691,0.0289615,-0.00721565,0.140631,3.84193
-0.0591134,-0.109262,-0.494182,0.0326292,-0.0198982,0.0801411,3.84193
-0.0421978,-0.276352,-0.480463,0.0117451,-0.0364305,0.00829393,3.84193
0.0695359,-0.53567,-0.485669,-0.0305128,-0.0659502,-0.0437106,3.84193
0.0695359,-0.53567,-0.485669,-0.0305128,-0.0659502,-0.0437106,3.97934
0.262688,-0.752112,-0.590606,-0.0793768,-0.0726704,-0.0509377,3.97934
0.399051,-0.854171,-0.733598,-0.102498,-0.116399,-0.0315537,3.97934
0.271019,-0.750748,-0.829155,-0.0820639,-0.165617,-0.00857824,3.97934
-0.0305273,-0.501093,-0.805708,-0.0476621,-0.208655,-0.0321543,3.97934
-0.261159,-0.180115,-0.723883,-0.0199327,-0.195657,-0.103043,3.97934
-0.29257,0.130337,-0.542905,-0.00106776,-0.143482,-0.179038,3.97934
-0.118364,0.38243,-0.244899,0.0332958,-0.112605,-0.216739,3.97934
-0.0382525,0.277982,0.052896,0.0923395,-0.13056,-0.263556,3.97934
-0.278429,-0.0465893,0.18597,0.119888,-0.119678,-0.272019,3.97934
-0.704709,-0.179012,0.169527,0.106005,-0.0630841,-0.260595,3.97934
-0.83113,0.0793357,0.263285,0.0669881,0.0481196,-0.216853,3.97934
-0.441153,0.459642,0.559297,0.0596489,0.131375,-0.165022,3.97934
0.0932084,0.475672,0.849606,0.0904661,0.119249,-0.114258,3.97934
0.263819,0.137195,0.857114,0.126138,0.054876,-0.0642471,3.97934
0.115324,-0.267519,0.703838,0.133029,0.00466526,-0.00258988,3.97934
-0.0944279,-0.29493,0.583794,0.113591,-0.00988643,0.0854021,3.97934
-0.255444,0.0374615,0.554352,0.0906214,-0.00142741,0.150744,3.97934
-0.29426,0.364476,0.580933,0.0854124,0.0134511,0.133532,3.97934
-0.230608,0.487793,0.602185,0.0957992,0.0161117,0.106891,3.97934
-0.0775691,0.389176,0.565993,0.0999959,0.025971,0.0791685,3.97934
0.089616,0.190535,0.539369,0.108506,0.0105146,0.0924599,3.97934
0.207739,0.0698888,0.540094,0.10582,-0.00180743,0.12067,3.97934
0.297581,0.0532304,0.558239,0.0935646,-0.0106452,0.133417,3.97934
0.353418,0.10382,0.555825,0.0776154,-0.0111481,0.134421,3.97934
0.391216,0.168393,0.54037,0.0555919,-0.00284868,0.103758,3.97934
0.437852,0.216538,0.495809,0.0377076,0.00638299,0.0658325,3.97934
0.510899,0.256213,0.446445,0.0167294,0.0252093,0.0351302,3.97934
0.599554,0.297855,0.392512,0.00384269,0.0316164,0.0238177,3.97934
0.609421,0.316278,0.344469,0.00587998,0.0232451,0.0289996,3.97934
0.538872,0.359701,0.326392,0.0134595,0.00335499,0.0533202,3.97934
0.425459,0.419539,0.317055,0.0118699,-0.00581217,0.066191,3.97934
0.353044,0.464762,0.301695,0.00685685,-0.00617826,0.0732148,3.97934
0.265891,0.4727,0.3081,0.0125558,-0.0196112,0.0693878,3.97934
0.0887768,0.436364,0.296679,0.0116509,-0.0334126,0.036069,3.97934
-0.0806765,0.436744,0.243766,-0.0115796,0.00761515,-0.0327497,3.97934
-0.0341104,0.361293,0.259951,-0.0374734,0.0483487,-0.126214,3.97934
0.0834108,0.133771,0.21914,-0.0483496,0.0802356,-0.19383,3.97934
0.143122,-0.227439,0.108309,-0.0501191,0.0925261,-0.213561,3.97934
-0.00853232,-0.511275,-0.000395925,-0.0404701,0.0676521,-0.175163,3.97934
-0.471934,-0.652781,-0.119926,-0.0413564,0.0323297,-0.146119,3.97934
-1.12242,-0.507265,-0.33604,-0.0632532,0.0352592,-0.154839,3.97934
-1.55845,-0.133179,-0.499487,-0.0994463,0.114145,-0.202736,3.97934
-1.36559,0.293913,-0.455993,-0.108728,0.226531,-0.27386,3.97934
-0.550346,0.418028,-0.22647,-0.100495,0.27543,-0.307206,3.97934
0.249536,-0.0079718,-0.042625,-0.0585574,0.223462,-0.271294,3.97934
0.590886,-0.56881,-0.0622873,-0.0298507,0.134773,-0.147381,3.97934
0.556043,-0.828186,-0.116856,-0.0486593,0.0792612,0.00433612,3.97934
0.430955,-0.731816,-0.118503,-0.0839787,0.041618,0.114254,3.97934
0.269304,-0.382574,-0.1436,-0.117036,0.0410304,0.18182,4.09824
0.12991,0.00541485,-0.186582,-0.119427,0.0296869,0.205427,4.09824
0.055469,0.202715,-0.224296,-0.0865416,0.0165078,0.195357,4.09824
0.0650801,0.196697,-0.227364,-0.0436083,-0.00138238,0.177771,4.09824
0.124287,0.0665823,-0.212262,-0.0170188,-0.0128251,0.167932,4.09824
0.200229,-0.15236,-0.219053,-0.00528635,-0.0113833,0.161517,4.09824
0.312578,-0.302036,-0.240231,-0.00778519,-0.00347288,0.168789,4.09824
0.370509,-0.329083,-0.256031,-0.00644712,-0.0140875,0.198981,4.09824
0.343121,-0.250313,-0.293487,-0.00923168,-0.0204379,0.221115,4.09824
0.257419,-0.180992,-0.342978,0.00183062,-0.0334939,0.216253,4.09824
0.150786,-0.147976,-0.395126,0.014064,-0.0339948,0.190646,4.09824
0.0863241,-0.1358,-0.414969,0.0251689,-0.0343031,0.158184,4.09824
0.0230244,-0.118376,-0.424338,0.0296909,-0.0296052,0.133228,4.09824
-0.0109903,-0.0815119,-0.434981,0.0220084,-0.0211643,0.109972,4.09824
-0.0358621,-0.0224988,-0.44306,0.0183603,-0.0154479,0.0958688,4.09824
0.000463473,0.0194905,-0.44231,0.0157012,-0.0152772,0.0796899,4.09824
0.0338346,0.03501,-0.431554,0.0191589,-0.0266422,0.0866238,4.09824
-0.0088356,0.00444181,-0.418568,0.0301589,-0.0617994,0.104026,4.09824
-0.097563,-0.000195871,-0.40654,0.0335437,-0.0931481,0.125033,4.09824
-0.173477,0.00956385,-0.344175,0.0335227,-0.122641,0.116033,4.09824
-0.319744,0.00481279,-0.291804,0.0260218,-0.156659,0.0947494,4.09824
-0.471984,0.0238649,-0.297414,0.00345437,-0.158855,0.0353193,4.09824
-0.521269,0.0438582,-0.266132,-0.0200725,-0.165404,-0.0390942,4.09824
-0.534586,0.116747,-0.256628,-0.0329078,-0.160086,-0.100917,4.09824
-0.412349,0.257398,-0.194795,-0.0379117,-0.139362,-0.148887,4.09824
-0.176664,0.30254,-0.0792686,-0.0154808,-0.110704,-0.19443,4.09824
0.0457243,0.206819,0.0529257,0.0314485,-0.113401,-0.227133,4.09824
0.120056,0.0250804,0.186622,0.0670428,-0.146636,-0.229643,4.09824
-0.0490637,-0.1725,0.266625,0.0605363,-0.166179,-0.235087,4.09824
-0.584135,-0.33009,0.177675,0.00833372,-0.163405,-0.292876,4.09824
-1.08343,-0.0746024,0.000840791,-0.054035,-0.0549837,-0.338471,4.09824
-0.911132,0.548432,0.0789507,-0.0964549,0.0932949,-0.337266,4.09824
-0.233974,0.920088,0.382528,-0.0552829,0.157109,-0.322824,4.09824
0.326659,0.753336,0.575218,0.0348406,0.0935144,-0.246629,4.09824
0.517421,0.149465,0.604546,0.0998556,0.00377205,-0.152335,4.09824
0.429138,-0.401032,0.559982,0.116928,-0.05686,-0.0527091,4.09824
0.247428,-0.429046,0.504566,0.0775742,-0.051784,0.0445623,4.09824
0.169196,-0.100522,0.501468,0.0369647,-0.0203282,0.0773245,4.09824
0.272292,0.252742,0.504264,0.023205,0.0228645,0.0489288,4.09824
0.486448,0.347967,0.498198,0.0503647,0.0400919,0.010338,4.09824
0.672487,0.244023,0.517738,0.0940355,0.0229458,0.0256933,4.09824
0.743284,0.0873959,0.537894,0.13322,0.00107616,0.0744753,4.09824
0.745093,0.00580004,0.581742,0.144817,-0.0152034,0.133846,4.09824
0.688716,0.061162,0.615972,0.131061,-0.0144278,0.17872,4.09824
0.624164,0.20362,0.658598,0.11268,-0.00899489,0.203064,4.09824
0.555748,0.250196,0.681929,0.10203,-0.0107088,0.180299,4.09824
0.474931,0.174296,0.666448,0.0859309,0.00210628,0.136442,4.09824
0.474931,0.174296,0.666448,0.0859309,0.00210628,0.136442,4.25414
0.452606,0.0896936,0.640499,0.0544349,0.0359245,0.110996,4.25414
0.52259,0.0405789,0.598795,0.0121433,0.0792419,0.0948122,4.25414
0.644392,0.00550459,0.531379,-0.02149,0.1048,0.0959759,4.25414
0.684969,-0.0321359,0.431438,-0.0286077,0.102215,0.119774,4.25414
0.565013,-0.00628213,0.330599,-0.0205661,0.0852331,0.156191,4.25414
0.378902,0.0875249,0.27848,-0.0138235,0.068371,0.193793,4.25414
0.202828,0.224793,0.257664,-0.00490025,0.0595633,0.214172,4.25414
0.0518287,0.339377,0.260049,-0.00388462,0.0366822,0.213748,4.25414
-0.141842,0.382644,0.207884,-0.00175708,0.0135424,0.199262,4.25414
-0.363834,0.310932,0.115361,0.00216398,-0.0216065,0.157894,4.25414
-0.629795,0.236457,0.011236,-0.000833288,-0.0418286,0.11057,4.25414
-0.839355,0.184352,-0.0566296,-0.010317,-0.034137,0.0541356,4.25414
-0.924351,0.126815,-0.126019,-0.039441,-0.00110105,-0.00375021,4.25414
-0.951817,0.0485016,-0.193004,-0.0565601,-0.00328261,-0.0539902,4.25414
-1.03898,-0.0279818,-0.328547,-0.0752163,0.0177832,-0.0917748,4.25414
-1.17093,-0.0298857,-0.485607,-0.0804675,0.00242793,-0.102557,4.25414
-1.70142,-0.0651532,-0.72044,-0.0500062,-0.0438572,-0.141209,4.25414
-2.49617,0.013845,-0.978017,-0.0225418,-0.0289429,-0.275442,4.25414
-2.82952,0.28924,-1.03181,-0.0311484,0.0789999,-0.459536,4.25414
-2.10921,0.515714,-0.836131,-0.06821,0.258178,-0.655928,4.25414
-0.647658,0.339819,-0.450258,-0.0762003,0.306927,-0.722624,4.25414
0.777268,-0.384982,-0.221309,-0.0610342,0.23057,-0.657172,4.25414
1.41679,-1.00281,-0.320641,-0.0724191,0.179724,-0.447819,4.25414
1.55909,-1.21075,-0.457083,-0.0970349,0.112036,-0.19948,4.25414
1.52468,-0.888731,-0.49834,-0.103303,0.0531539,0.0594265,4.25414
1.35055,-0.268015,-0.46881,-0.0902854,0.0192207,0.253459,4.25414
1.11709,0.278284,-0.369537,-0.0478305,-0.00161965,0.36454,4.25414
0.866744,0.527958,-0.251549,0.0121992,-0.01982,0.404012,4.25414
0.636527,0.408604,-0.157709,0.062501,-0.0484552,0.38354,4.25414
0.461199,0.0817801,-0.139405,0.0841463,-0.0615725,0.344183,4.25414
0.384579,-0.240361,-0.204626,0.0543519,-0.0102596,0.30075,4.25414
0.431222,-0.384896,-0.265739,0.012032,0.0476102,0.263704,4.25414
0.577791,-0.356613,-0.318188,-0.0127334,0.0994989,0.246296,4.25414
0.680512,-0.270759,-0.316818,-0.0083582,0.093046,0.244968,4.25414
0.561632,-0.194227,-0.297336,0.0244994,0.0593001,0.250979,4.25414
0.320067,-0.165738,-0.267812,0.0488245,0.0147289,0.250562,4.25414
0.0510358,-0.135496,-0.285491,0.0474427,-0.00883383,0.234196,4.25414
-0.139004,-0.0611813,-0.3439,0.0202098,-0.0040881,0.196381,4.25414
-0.238054,0.0422174,-0.421504,-0.00741593,0.0106839,0.150726,4.25414
-0.251285,0.114989,-0.433687,-0.00944654,0.00839074,0.104286,4.25414
-0.189167,0.0986274,-0.37372,0.0028144,-0.013981,0.0724434,4.25414
-0.133094,-0.0163691,-0.326178,0.00829215,-0.0383298,0.0559648,4.25414
-0.134343,-0.141149,-0.334141,0.00817627,-0.0716466,0.0530143,4.25414
-0.136647,-0.240305,-0.296223,0.0150085,-0.105996,0.0504903,4.25414
-0.147476,-0.279051,-0.221608,0.0233449,-0.143832,0.0532415,4.25414
-0.178012,-0.289471,-0.130304,0.0315056,-0.180752,0.0437081,4.25414
-0.249681,-0.277027,-0.0576089,0.0338887,-0.197555,0.0179822,4.25414
-0.249681,-0.277027,-0.0576089,0.0338887,-0.197555,0.0179822,4.39418
-0.274082,-0.27533,0.0290821,0.0350844,-0.201548,-0.0231033,4.39418
-0.221219,-0.286453,0.0951855,0.0322095,-0.188567,-0.0757153,4.39418
-0.112238,-0.281526,0.146358,0.0382589,-0.179022,-0.122529,4.39418
-0.0357514,-0.225437,0.244298,0.0560519,-0.186037,-0.155812,4.39418
0.021105,-0.105714,0.335393,0.0718464,-0.204708,-0.197671,4.39418
0.0651971,-0.0492889,0.430181,0.0957908,-0.230007,-0.240158,4.39418
-0.152906,-0.24219,0.472905,0.0892572,-0.241351,-0.309036,4.39418
-0.82761,-0.33143,0.241746,0.0505051,-0.200002,-0.417098,4.39418
-1.21407,0.136592,0.0547669,0.00546345,-0.052066,-0.435731,4.39418
-0.834774,0.810721,0.280375,-0.0109527,0.129798,-0.430762,4.39418
0.04623,1.10911,0.782086,0.0502828,0.18561,-0.39251,4.39418
0.784561,0.851572,1.08377,0.110723,0.135028,-0.302009,4.39418
0.989304,0.227268,1.06972,0.141668,0.0924385,-0.184518,4.39418
0.882939,-0.301917,0.96423,0.132829,0.0396735,-0.0693322,4.39418
0.715406,-0.390041,0.890824,0.0990384,0.0153829,0.0648866,4.39418
0.562118,-0.230419,0.862943,0.0671763,0.0147194,0.139657,4.39418
0.390202,0.11067,0.807871,0.0379191,0.0306573,0.192734,4.39418
0.27052,0.45709,0.740857,0.0310735,0.0408649,0.230497,4.39418
0.265939,0.625083,0.731559,0.0484617,0.0472234,0.237408,4.39418
0.324296,0.612532,0.741234,0.0719902,0.0485072,0.247011,4.39418
0.435655,0.485277,0.75388,0.0793257,0.0484633,0.250089,4.39418
0.547613,0.354461,0.765684,0.0769446,0.0376754,0.278031,4.39418
0.476585,0.308819,0.67466,0.0677411,0.0292811,0.291152,4.39418
0.402823,0.333256,0.634107,0.061709,0.00462472,0.275247,4.39418
0.264744,0.423228,0.626083,0.0612931,-0.0135425,0.25573,4.39418
0.151691,0.495435,0.574532,0.0553556,0.0090003,0.156763,4.39418
0.24932,0.402155,0.578592,0.0487428,0.035798,0.05614,4.39418
0.264835,0.230025,0.496905,0.0531085,0.0437105,0.000311494,4.39418
0.246049,0.103919,0.441763,0.0482861,0.0415403,-0.0385258,4.39418
0.234974,0.0815113,0.442862,0.0360672,0.0463108,-0.030992,4.39418
0.180533,0.166418,0.420045,0.0249291,0.0550426,-0.0214555,4.39418
0.221398,0.259915,0.494884,0.0013462,0.0473036,-0.0561614,4.39418
0.168231,0.251646,0.468662,-0.0091337,0.0351716,-0.0826652,4.39418
-0.0556369,0.0781502,0.32281,-0.0111979,0.0166579,-0.12001,4.39418
-0.292589,-0.0859842,0.170572,-0.0212907,0.020331,-0.15679,4.39418
-0.413593,-0.182914,0.0853015,-0.0538698,0.039911,-0.194899,4.39418
-0.550029,-0.230402,-0.00750345,-0.0699505,0.033738,-0.197293,4.39418
-0.819207,-0.268803,-0.153441,-0.0726522,0.0101054,-0.190909,4.39418
-1.10937,-0.238558,-0.301743,-0.0660891,0.00425743,-0.19383,4.39418
-1.13327,-0.128729,-0.348924,-0.0744147,0.0468195,-0.194545,4.39418
-0.789792,-0.0973685,-0.257634,-0.0757901,0.088549,-0.209124,4.39418
-0.310185,-0.333912,-0.175333,-0.0738653,0.101244,-0.228135,4.39418
-0.0511895,-0.624962,-0.21031,-0.0811222,0.101181,-0.190202,4.39418
0.0205883,-0.739268,-0.23982,-0.0947468,0.0874763,-0.114889,4.39418
0.0629349,-0.616159,-0.239934,-0.128748,0.0893734,-0.0391532,4.39418
0.0995542,-0.326802,-0.285433,-0.152458,0.100018,0.0332865,4.39418
0.184627,-0.0446711,-0.321281,-0.141741,0.0937678,0.0911022,4.39418
0.25714,0.0558218,-0.352792,-0.0943049,0.0696968,0.12438,4.39418
0.25714,0.0558218,-0.352792,-0.0943049,0.0696968,0.12438,4.56065
0.312426,0.0268996,-0.37233,-0.0461096,0.0343249,0.172566,4.56065
0.307945,-0.0774686,-0.368517,-0.00378442,0.00336328,0.221075,4.56065
0.265904,-0.202077,-0.372403,0.0211234,-0.0195774,0.265489,4.56065
0.162171,-0.249918,-0.406408,0.0309302,-0.0225597,0.303695,4.56065
0.0872327,-0.184274,-0.41307,0.0359015,-0.0159738,0.327342,4.56065
0.0388609,-0.0809263,-0.385717,0.0454979,-0.00574091,0.306655,4.56065
0.0237504,-0.0138574,-0.3483,0.0633069,-0.00791594,0.270217,4.56065
0.000379153,0.00325788,-0.33202,0.0834478,0.000931203,0.216762,4.56065
0.0533135,-0.041696,-0.263999,0.0977017,-0.00398833,0.154401,4.56065
0.0616929,-0.120688,-0.218371,0.110292,-0.00833684,0.0958803,4.56065
-0.0046756,-0.154733,-0.200296,0.104812,-0.0182923,0.0555499,4.56065
0.0060814,-0.0920772,-0.154541,0.0820801,-0.0076721,-0.0115392,4.56065
0.113939,-0.086533,-0.0801684,0.072805,-0.00729018,-0.0539478,4.56065
0.189345,-0.0706812,-0.0205502,0.0697982,-0.0243917,-0.0939712,4.56065
0.337427,-0.069928,0.123162,0.0625096,-0.0531775,-0.114508,4.56065
0.358967,-0.044854,0.19478,0.0522127,-0.086475,-0.0966623,4.56065
0.294619,0.0756405,0.282039,0.0485812,-0.128332,-0.0705339,4.56065
0.210838,0.232148,0.429327,0.0422891,-0.160879,-0.0657445,4.56065
0.148658,0.382719,0.565659,0.0359877,-0.173591,-0.0790828,4.56065
0.172379,0.362235,0.681124,0.0281074,-0.190544,-0.125461,4.56065
-0.00910082,0.128012,0.702081,0.0458575,-0.195147,-0.166811,4.56065
-0.475907,-0.108148,0.668341,0.0513185,-0.204897,-0.23027,4.56065
-0.823934,-0.0398046,0.651897,0.0395943,-0.118678,-0.265443,4.56065
-0.595456,0.229083,0.78281,0.0226051,0.0293669,-0.276535,4.56065
0.0687402,0.424926,1.03194,0.0342326,0.107681,-0.271678,4.56065
0.53797,0.324816,1.20363,0.0760042,0.0728361,-0.239264,4.56065
0.525685,0.137277,1.18831,0.107661,0.00987653,-0.150153,4.56065
0.335705,0.0248088,1.1497,0.114544,-0.0214539,-0.0776872,4.56065
0.274852,0.0806116,1.15322,0.0935941,0.00281763,-0.0132127,4.56065
0.350801,0.204491,1.15812,0.079085,0.0352314,0.0330791,4.56065
0.445437,0.302741,1.13876,0.0823455,0.042602,0.0838161,4.56065
0.509841,0.357664,1.13581,0.100148,0.0367179,0.142207,4.56065
0.524567,0.381442,1.13234,0.120129,0.0181449,0.200999,4.56065
0.470386,0.389402,1.11447,0.136511,0.015676,0.239795,4.56065
0.432273,0.386992,1.12056,0.153971,0.00930831,0.259091,4.56065
0.42664,0.401579,1.14259,0.165203,0.00814624,0.28223,4.56065
0.419843,0.426798,1.12134,0.167516,0.0252761,0.270037,4.56065
0.474323,0.422604,1.11448,0.172778,0.0272699,0.239204,4.56065
0.494721,0.422354,1.11182,0.181212,0.0230046,0.22506,4.56065
0.452191,0.438974,1.09265,0.188641,0.0158578,0.201603,4.56065
0.46106,0.469275,1.0767,0.182001,0.0263795,0.158876,4.56065
0.425317,0.505251,1.04746,0.181142,0.0264769,0.125724,4.56065
0.28681,0.599457,0.998124,0.181831,0.0212952,0.0983506,4.56065
0.172387,0.738743,1.01475,0.177402,0.020086,0.0675558,4.56065
0.0750357,0.834779,1.02238,0.172352,0.0317139,0.0303261,4.56065
-0.00744054,0.874053,1.02427,0.166009,0.040686,-0.00168979,4.56065
-0.0516854,0.890824,1.07403,0.158973,0.0392217,-0.0106385,4.56065
-0.0854145,0.907069,1.14253,0.143715,0.0263748,-0.00138897,4.56065
-0.0854145,0.907069,1.14253,0.143715,0.0263748,-0.00138897,4.78261
-0.159113,0.926635,1.1822,0.127325,0.0110802,0.0156196,4.78261
-0.252228,0.894377,1.20758,0.106585,-0.0097779,0.0130568,4.78261
-0.343178,0.812407,1.22861,0.0871777,-0.0262101,-0.00442106,4.78261
-0.379433,0.695568,1.25961,0.0601274,-0.0306401,-0.046583,4.78261
-0.310408,0.528919,1.2752,0.0257645,-0.0269282,-0.108932,4.78261
-0.127236,0.352545,1.27976,-0.0121747,-0.00243115,-0.153989,4.78261
0.117151,0.178162,1.26577,-0.0398271,-0.00310802,-0.167219,4.78261
0.26447,0.0279731,1.2283,-0.0415187,-0.0600996,-0.151498,4.78261
0.0969969,-0.180844,1.13704,-0.0342433,-0.126528,-0.11817,4.78261
-0.494254,-0.108654,0.900262,-0.0507517,-0.110616,-0.11623,4.78261
-0.772498,0.252804,0.813222,-0.0758597,-0.00757718,-0.125367,4.78261
-0.438668,0.593179,0.964285,-0.0801062,0.134933,-0.152829,4.78261
0.254655,0.453026,1.18015,-0.0558528,0.194681,-0.178781,4.78261
0.834962,-0.0608479,1.16562,-0.0371104,0.205046,-0.129826,4.78261
1.13964,-0.553314,1.04069,-0.0319036,0.162403,0.00972778,4.78261
1.11208,-0.689138,0.947753,-0.0291718,0.101782,0.173756,4.78261
0.836674,-0.538177,0.916189,-0.0238218,0.0408487,0.28249,4.78261
0.366127,-0.219192,0.85909,-0.0232102,0.00295371,0.33804,4.78261
-0.177543,0.0903252,0.714001,-0.0164954,-0.0113131,0.322605,4.78261
-0.54989,0.297147,0.555239,-0.00571954,-0.0024164,0.258712,4.78261
-0.708256,0.429971,0.444211,0.00941451,0.035098,0.188752,4.78261
-0.631991,0.482124,0.403277,0.0239447,0.0635026,0.133208,4.78261
-0.475202,0.408935,0.377206,0.0429897,0.0611778,0.0918247,4.78261
-0.371971,0.254876,0.320901,0.0554745,0.0430381,0.079417,4.78261
-0.360273,0.144254,0.2699,0.0615497,0.00186452,0.0915768,4.78261
-0.43612,0.14343,0.224361,0.0559012,-0.0396434,0.094999,4.78261
-0.517602,0.18742,0.19014,0.0406099,-0.0578364,0.0664056,4.78261
-0.554662,0.255487,0.168813,0.0366065,-0.0701468,0.0388403,4.78261
-0.53399,0.276923,0.150703,0.0324091,-0.0563472,-0.0083769,4.78261
-0.428181,0.308445,0.183657,0.0354966,-0.0484088,-0.0436916,4.78261
-0.25628,0.310465,0.291271,0.0501934,-0.0599026,-0.0584328,4.78261
-0.0580565,0.262577,0.433326,0.0622902,-0.0726395,-0.0672893,4.78261
0.109983,0.150666,0.596489,0.0626494,-0.0965549,-0.0702674,4.78261
0.20337,-0.00492271,0.703532,0.0642837,-0.119532,-0.0765718,4.78261
0.210387,-0.226155,0.735348,0.0604937,-0.140714,-0.0982623,4.78261
0.162531,-0.389347,0.732218,0.0464683,-0.132198,-0.119618,4.78261
0.135262,-0.367971,0.785224,0.040095,-0.126707,-0.128703,4.78261
0.135406,-0.162253,0.906614,0.0455559,-0.166428,-0.113308,4.78261
-0.123761,0.0710646,0.930718,0.0488577,-0.171712,-0.140676,4.78261
-0.518042,0.300461,0.9256,0.0785039,-0.14399,-0.139848,4.78261
-0.697293,0.411995,1.046,0.122201,-0.103038,-0.145808,4.78261
-0.564531,0.365959,1.26294,0.160419,-0.0493682,-0.133291,4.78261
-0.205604,0.160031,1.45927,0.172013,-0.0119862,-0.094069,4.78261
0.172397,-0.0320875,1.52134,0.168354,0.00538558,-0.0236906,4.78261
0.400336,-0.0933241,1.544,0.174439,-0.0305317,0.0734338,4.78261
0.402313,0.0049102,1.62708,0.210735,-0.0951763,0.158681,4.78261
0.169287,0.120369,1.77304,0.25835,-0.134459,0.171069,4.78261
0.169287,0.120369,1.77304,0.25835,-0.134459,0.171069,5.0574
-0.130495,0.191924,1.92398,0.28422,-0.147035,0.139581,5.0574
-0.300417,0.13011,2.00008,0.295024,-0.119746,0.0703804,5.0574
-0.303921,-0.0904467,1.99007,0.295787,-0.0731785,-0.0203151,5.0574
-0.221348,-0.371996,1.93147,0.283222,-0.0110372,-0.0813634,5.0574
-0.142438,-0.491565,1.8269,0.258997,0.0478708,-0.118319,5.0574
0.0632089,-0.347642,1.79059,0.23478,0.0911233,-0.110886,5.0574
0.392131,-0.0829344,1.81359,0.221744,0.109739,-0.0919075,5.0574
0.676295,0.06348,1.76235,0.220617,0.115341,-0.0904976,5.0574
0.811022,0.114452,1.59667,0.219376,0.107292,-0.0689532,5.0574
0.85251,0.12834,1.41462,0.221416,0.0911348,-0.0290148,5.0574
0.814157,0.184952,1.24969,0.218516,0.0878156,0.00804216,5.0574
0.740664,0.312308,1.11838,0.19978,0.106788,0.0441141,5.0574
0.702492,0.439715,1.0266,0.179513,0.122649,0.0532017,5.0574
0.689761,0.482587,0.930745,0.16315,0.138812,0.0491458,5.0574
0.630523,0.436732,0.820072,0.145568,0.138406,0.0382802,5.0574
0.530955,0.361162,0.700105,0.119868,0.137183,0.0321235,5.0574
0.401322,0.315263,0.580339,0.082817,0.138278,0.0231133,5.0574
0.312787,0.33374,0.472189,0.0471415,0.14364,0.0129595,5.0574
0.228734,0.371898,0.396096,0.0282264,0.141701,0.00225556,5.0574
0.11847,0.366616,0.375152,0.0267641,0.12863,-0.0179276,5.0574
0.0248806,0.299884,0.407567,0.0325849,0.0765686,-0.0430579,5.0574
-0.163816,0.143957,0.38974,0.028853,0.0485944,-0.0643016,5.0574
-0.450446,0.0907991,0.33276,0.00626398,0.0427408,-0.0648158,5.0574
-0.655736,0.225572,0.372163,-0.0116572,0.057127,-0.0444546,5.0574
-0.625914,0.430612,0.532729,-0.0179913,0.081209,-0.0306867,5.0574
-0.37048,0.481551,0.7103,-0.00285077,0.0830031,-0.0449247,5.0574
-0.113669,0.224407,0.803728,0.0276856,0.0732201,-0.0746229,5.0574
0.0467386,-0.085421,0.854296,0.0457099,0.0567556,-0.060833,5.0574
0.12164,-0.362352,0.921496,0.0548765,0.0372722,-0.0321832,5.0574
0.0624942,-0.55225,0.96643,0.0495436,0.0265095,-0.00553745,5.0574
-0.0986818,-0.514695,0.937868,0.0301464,0.0350561,0.0259408,5.0574
-0.179918,-0.319844,0.915824,0.0181584,0.0404771,0.0627679,5.0574
-0.174994,-0.126245,0.883767,0.0315676,0.0414146,0.0777537,5.0574
-0.157879,-0.0718446,0.826737,0.0647587,0.029163,0.0921751,5.0574
-0.169177,-0.0953192,0.72417,0.0939249,0.0225403,0.109168,5.0574
-0.18545,-0.133846,0.650192,0.121205,2.33203e-05,0.127073,5.0574
-0.257651,-0.115207,0.65688,0.151731,-0.0235246,0.148119,5.0574
-0.345337,-0.0589025,0.736156,0.166773,-0.0304122,0.152324,5.0574
-0.35818,-0.0206885,0.782874,0.163065,-0.0325467,0.13916,5.0574
-0.389588,-0.037118,0.773812,0.16445,-0.0353613,0.102408,5.0574
-0.436863,-0.0393298,0.788504,0.163463,-0.0484469,0.0557172,5.0574
-0.488327,0.0345957,0.845983,0.15217,-0.0533948,-0.00804836,5.0574
-0.532024,0.1393,0.90025,0.125084,-0.0304569,-0.0967786,5.0574
-0.410423,0.186533,0.938015,0.09163,0.0207115,-0.182835,5.0574
-0.0599082,0.142166,0.975082,0.0606171,0.0501746,-0.227975,5.0574
0.264876,0.00779259,0.954488,0.0370947,0.0528757,-0.23299,5.0574
0.418481,-0.11344,0.905575,0.0238878,0.00757717,-0.183669,5.0574
0.386965,-0.136252,0.875754,0.00883655,-0.0324702,-0.133641,5.0574
0.386965,-0.136252,0.875754,0.00883655,-0.0324702,-0.133641,5.24501
0.260861,0.0196386,0.898772,-0.0114047,-0.0561194,-0.101018,5.24501
0.158204,0.338841,0.933033,-0.0329127,-0.0461462,-0.0997848,5.24501
0.18195,0.696829,1.00102,-0.0402035,-0.0195482,-0.112236,5.24501
0.152785,0.960361,1.06371,-0.0115299,-0.0228321,-0.136186,5.24501
-0.0405447,0.98651,1.1079,0.03026,-0.0255325,-0.177251,5.24501
-0.435403,0.877135,1.12632,0.0498499,-0.0198905,-0.20886,5.24501
-0.914828,0.907289,1.10306,0.0585203,0.0486703,-0.216688,5.24501
-0.877833,1.09582,1.24195,0.0374241,0.150804,-0.192115,5.24501
-0.250302,1.25557,1.44814,0.0198189,0.214714,-0.125194,5.24501
0.222947,1.18059,1.40751,0.0282302,0.194824,-0.0544091,5.24501
0.190387,0.94405,1.16347,0.0513113,0.154308,0.0353761,5.24501
-0.150951,0.799287,0.961054,0.0784767,0.118716,0.0974236,5.24501
-0.435086,0.797124,0.942025,0.100366,0.0971928,0.13666,5.24501
-0.467605,0.805968,0.983351,0.0841084,0.0983916,0.125448,5.24501
-0.322136,0.772327,0.907629,0.0671277,0.109184,0.0951759,5.24501
-0.176704,0.682452,0.81132,0.0706872,0.0804763,0.0774539,5.24501
-0.127471,0.630021,0.758755,0.101254,0.0381192,0.0846263,5.24501
-0.151746,0.540164,0.79351,0.137714,-0.0143875,0.0766176,5.24501
-0.194007,0.445856,0.903906,0.170925,-0.0443843,0.0771787,5.24501
-0.218662,0.293946,1.02726,0.19091,-0.0515936,0.0668272,5.24501
-0.22101,0.0612161,1.12668,0.18589,-0.0343701,0.0414544,5.24501
-0.104112,-0.13619,1.23137,0.17113,-0.010171,0.0357028,5.24501
0.0778591,-0.30212,1.33014,0.151921,-0.00267415,0.0435878,5.24501
0.234524,-0.438091,1.36025,0.15593,-0.012538,0.0611737,5.24501
0.354298,-0.532159,1.3663,0.165894,-0.028534,0.0590947,5.24501
0.311055,-0.636562,1.32377,0.147011,-0.0203439,0.0408853,5.24501
0.174427,-0.576642,1.22597,0.123117,-0.00249676,0.0439235,5.24501
0.053661,-0.450388,1.04316,0.0724936,0.0264052,-0.0120547,5.24501
0.0538369,-0.277596,0.84832,0.0410765,0.0537725,-0.0436457,5.24501
0.0797409,-0.236137,0.723427,0.0434788,0.0595369,-0.0682607,5.24501
-0.0551316,-0.39541,0.58266,0.0211071,0.0661981,-0.106872,5.24501
-0.350411,-0.47204,0.260514,0.0173804,0.0747387,-0.107997,5.24501
-0.715335,-0.291675,-0.419677,0.0332675,0.130689,-0.0936106,5.24501
-0.978677,-0.28445,-1.31037,-0.0255697,0.240331,-0.0899557,5.24501
-1.37489,-1.15105,-1.74365,-0.044436,0.0695166,-0.295522,5.24501
-1.6918,-1.55213,-2.15523,-0.0498286,0.0393163,-0.0971059,5.24501
-2.23684,-1.94813,-2.41527,-0.0501842,-0.0224325,-0.0628619,5.24501
-2.47514,-1.51445,-2.63694,-0.0418282,0.0387439,0.139617,5.24501
-2.01894,-0.649176,-2.4774,-0.0970452,0.128862,0.160547,5.24501
-1.07156,-0.107148,-1.77553,-0.160539,0.154297,-0.038398,5.24501
0.00993892,0.506862,-0.742424,-0.115381,0.114724,-0.0184288,5.24501
0.858975,0.855553,0.172015,-0.108988,0.09535,-0.0382115,5.24501
1.58015,1.26839,0.630565,-0.118307,0.11399,0.0578372,5.24501
1.95081,2.1331,0.553686,-0.141794,0.156546,0.196565,5.24501
2.015,2.30264,0.335892,-0.181218,0.105192,0.0478693,5.24501
1.24372,-0.0986705,0.147776,-0.255494,0.00671216,-0.4407,5.24501
0.370869,-0.60078,-0.443499,-0.0464037,0.0367283,0.0530374,5.24501
0.370869,-0.60078,-0.443499,-0.0464037,0.0367283,0.0530374,5.41412
0.0565837,0.0523392,-0.699279,-0.0269431,0.108695,0.390943,5.41412
0.0992434,-0.39858,-0.478949,-0.0617094,-0.0600773,0.0778946,5.41412
0.387532,-0.66963,-0.0524894,-0.0572416,-0.119377,0.109946,5.41412
0.483054,-0.667885,0.0253499,-0.00240424,0.00978612,0.127615,5.41412
0.369533,-0.139323,-0.0410634,-0.023361,0.0619346,0.238665,5.41412
0.188359,0.368854,0.166949,-0.0607645,-0.00457351,0.179996,5.41412
0.0374665,0.555308,0.440802,-0.0444662,-0.0652214,0.132669,5.41412
-0.115606,0.453482,0.57924,-0.0308024,-0.0478439,0.120512,5.41412
-0.127806,0.282642,0.583409,-0.0182561,-0.0407352,0.0965095,5.41412
-0.0332865,0.384416,0.443294,-0.0303663,-0.0538862,0.143762,5.41412
0.054675,0.421413,0.270475,-0.0576828,-0.0511136,0.121527,5.41412
0.0640197,0.409205,0.112267,-0.0507839,-0.0611236,0.113312,5.41412
0.0134932,0.179164,0.0232461,-0.022319,-0.0817803,0.0570391,5.41412
0.0392119,0.11612,-0.0776904,0.00349498,-0.0768135,0.052931,5.41412
0.00358732,0.089619,-0.109956,-0.00178019,-0.0956823,0.027972,5.41412
-0.0666135,0.10305,-0.0763984,-0.00967829,-0.116428,0.00330883,5.41412
-0.0587117,0.225092,-0.126364,0.00605622,-0.0880735,0.00355202,5.41412
-0.0114248,0.0965215,-0.128191,-0.00669185,-0.117457,-0.102185,5.41412
0.0721777,-0.0442833,-0.146518,-0.0243486,-0.115104,-0.142332,5.41412
0.179365,-0.0528241,-0.17423,-0.0490307,-0.097702,-0.161714,5.41412
0.305174,0.0431668,-0.109608,-0.0451835,-0.085088,-0.154943,5.41412
0.303896,0.137225,-0.0338753,-0.0055414,-0.0866198,-0.155308,5.41412
0.104787,0.27307,-0.0131439,0.00298471,-0.0813835,-0.157384,5.41412
-0.151752,0.241916,-0.0242884,0.00886309,-0.0662689,-0.181867,5.41412
-0.551193,-0.117845,-0.123834,-0.0119943,-0.00359612,-0.260976,5.41412
-0.745291,-0.360708,-0.243816,0.000244506,0.0585469,-0.316726,5.41412
-0.441239,-0.184527,-0.189428,-0.0104381,0.126757,-0.292115,5.41412
0.0996401,0.304169,-0.0386727,0.0022147,0.17797,-0.178914,5.41412
0.51187,0.429343,0.206642,0.0395155,0.0752199,-0.114332,5.41412
0.465223,0.292504,0.169942,0.0838608,0.0665592,-0.06442,5.41412
0.137692,0.240219,0.011957,0.11026,0.0297922,-0.0176955,5.41412
-0.251249,0.48233,-0.0520351,0.126585,0.0273907,0.0294355,5.41412
-0.459529,0.69693,0.050437,0.150862,0.0486788,0.0250266,5.41412
-0.434358,0.840526,0.300169,0.175515,0.0571398,0.065594,5.41412
-0.267361,0.776097,0.545955,0.177539,0.0415943,0.100113,5.41412
-0.0948771,0.583942,0.613505,0.164603,0.0336542,0.150646,5.41412
0.101457,0.443587,0.634398,0.131712,-0.0110064,0.210946,5.41412
0.245508,0.370856,0.631349,0.105423,-0.0283262,0.250691,5.41412
0.28518,0.361573,0.617117,0.0875761,-0.0409476,0.275149,5.41412
0.228669,0.342821,0.627654,0.0748116,-0.0538122,0.266807,5.41412
0.164256,0.328496,0.682257,0.0703351,-0.0687434,0.25148,5.41412
0.095825,0.32401,0.720499,0.0589536,-0.0678427,0.232915,5.41412
0.077981,0.297983,0.747923,0.051819,-0.0708725,0.21536,5.41412
0.0389287,0.151119,0.712582,0.0514399,-0.076091,0.170143,5.41412
0.0438682,0.0131376,0.645909,0.0498036,-0.0717602,0.149328,5.41412
0.0345204,-0.0747692,0.608808,0.0361267,-0.0742538,0.145147,5.41412
-0.0147475,-0.226529,0.566147,0.019747,-0.0813405,0.0671969,5.41412
0.00580789,-0.237898,0.479493,0.0093981,-0.0519145,0.0620143,5.41412
0.00580789,-0.237898,0.479493,0.0093981,-0.0519145,0.0620143,5.57001
0.0543848,-0.262961,0.434849,0.00305834,-0.0644642,0.0317025,5.57001
0.142656,-0.265245,0.424764,-0.00533441,-0.0663568,0.00342786,5.57001
0.195646,-0.317581,0.397302,0.00490414,-0.0724329,-0.0192877,5.57001
0.193152,-0.576674,0.317083,0.0268741,-0.0775698,-0.107638,5.57001
0.382747,-0.801587,0.199961,0.0410999,-0.0558866,-0.193465,5.57001
0.620807,-1.07081,0.0505618,0.0411741,-0.00121975,-0.262299,5.57001
0.781282,-1.34097,-0.0310255,0.0371813,0.00891864,-0.312039,5.57001
0.871075,-1.3715,-0.0155643,0.0124418,0.0318122,-0.300382,5.57001
0.984566,-1.0169,0.142539,-0.0233958,0.0141901,-0.236485,5.57001
0.869607,-0.591427,0.21585,-0.0303533,0.00773057,-0.19414,5.57001
0.359911,-0.362915,0.138345,-0.043581,-0.0152777,-0.187198,5.57001
-0.490372,-0.516176,-0.0768159,-0.0958092,0.00785992,-0.257709,5.57001
-1.18974,-0.7231,-0.424387,-0.157732,0.0748274,-0.355747,5.57001
-1.10843,-0.321294,-0.705968,-0.210862,0.188479,-0.309731,5.57001
-0.52266,0.396102,-0.854657,-0.223102,0.294812,-0.212209,5.57001
0.284465,0.78181,-0.520877,-0.201787,0.165625,-0.0928308,5.57001
0.742878,0.644698,-0.253233,-0.140893,0.125502,-0.0216428,5.57001
0.77065,0.200572,-0.227585,-0.108735,0.112861,0.0200136,5.57001
0.748514,-0.433289,-0.201774,-0.0620116,0.0822043,0.0503041,5.57001
0.788972,-1.14731,-0.133864,-0.0205427,0.0663398,0.128086,5.57001
0.765217,-1.75188,-0.183602,0.0405404,0.0565365,0.20252,5.57001
0.740419,-1.68638,-0.303691,0.04883,0.0237963,0.288553,5.57001
0.595458,-0.94668,-0.31685,0.0136794,-0.00537367,0.369487,5.57001
0.356282,-0.117881,-0.177824,-0.0116554,-0.0268351,0.378051,5.57001
0.128168,0.356738,0.0420448,0.0016131,-0.0411188,0.333365,5.57001
-0.0375653,0.393849,0.227708,0.0121894,-0.0435671,0.259932,5.57001
-0.0580602,0.234763,0.207364,0.0368566,0.00432028,0.224543,5.57001
0.0260041,0.0388547,0.0770527,0.0313695,0.0128144,0.21068,5.57001
0.145403,-0.0555069,-0.0554282,0.0272611,-0.0135948,0.214422,5.57001
0.221332,-0.126702,-0.170707,0.0319597,-0.0299262,0.19996,5.57001
0.243926,-0.162414,-0.281754,0.0447304,-0.0445206,0.173573,5.57001
0.248271,-0.162893,-0.385191,0.0380964,-0.0675144,0.132171,5.57001
0.217385,-0.154351,-0.515059,0.0284851,-0.0813082,0.0871487,5.57001
0.104854,-0.135526,-0.612643,0.0192049,-0.108186,0.0347399,5.57001
-0.0689918,-0.0684934,-0.6647,-0.00127046,-0.126091,-0.0116189,5.57001
-0.210155,0.0677999,-0.681798,-0.0151792,-0.130963,-0.062698,5.57001
-0.24275,0.166406,-0.623302,-0.0195892,-0.136781,-0.11891,5.57001
-0.210756,0.164652,-0.511421,-0.0393743,-0.144792,-0.173921,5.57001
-0.137621,0.221969,-0.369775,-0.0664196,-0.142113,-0.197401,5.57001
0.0203376,0.420186,-0.210621,-0.0808249,-0.150322,-0.204519,5.57001
0.160114,0.606511,-0.0493213,-0.0447738,-0.1683,-0.196832,5.57001
0.0749351,0.546894,0.0619124,-0.0134523,-0.171724,-0.208547,5.57001
-0.287435,0.256453,0.0333904,-0.0133531,-0.130291,-0.274459,5.57001
-0.603827,0.11989,-0.115233,-0.0220115,-0.0339866,-0.293852,5.57001
-0.469963,0.443153,-0.11677,-0.0463906,0.0968338,-0.207015,5.57001
0.0366041,1.03361,0.158473,-0.026724,0.156095,-0.0675362,5.57001
0.433565,1.32883,0.590433,0.033887,0.118778,0.0111008,5.57001
0.433565,1.32883,0.590433,0.033887,0.118778,0.0111008,5.68628
0.361899,0.777958,0.887518,0.0832106,0.0357599,0.0800627,5.68628
0.217554,0.449265,0.62815,0.0969768,0.0367999,0.11921,5.68628
0.0869958,0.1796,0.297139,0.0952508,0.0443597,0.150136,5.68628
-0.0319261,0.0512555,0.172071,0.0657881,0.0194753,0.172256,5.68628
-0.0895755,0.0492367,0.204929,0.0372773,0.0188178,0.169327,5.68628
-0.0935007,0.0447956,0.293503,0.0354974,0.0249862,0.139784,5.68628
-0.0601722,0.0876893,0.39184,0.0285194,0.0245337,0.134534,5.68628
-0.0122441,0.140225,0.415068,0.0140061,0.0225339,0.121243,5.68628
0.0408413,0.171605,0.33131,0.0135152,0.029272,0.107601,5.68628
0.196401,0.223806,0.239066,0.0072199,0.0299815,0.114227,5.68628
0.346549,0.217047,0.173665,0.00882214,0.030439,0.113588,5.68628
0.40112,0.138081,0.139481,0.0253706,0.014645,0.133593,5.68628
0.352611,-0.0626179,0.160794,0.0264895,-0.00698441,0.122326,5.68628
0.299106,-0.157403,0.167856,0.0188702,-0.0102833,0.117273,5.68628
0.262339,-0.125841,0.131464,0.00434053,-0.00313383,0.119573,5.68628
0.199398,-0.0733813,0.0671864,-0.0066336,-0.00773582,0.0920258,5.68628
0.150006,-0.0356831,-0.0251098,-0.00434896,-0.00339627,0.056137,5.68628
0.0635192,-0.00708779,-0.0781154,0.0168131,-0.00485831,0.0163345,5.68628
-0.0356806,-0.0632875,-0.0143021,0.0335567,-0.0280644,-0.046748,5.68628
-0.0977317,-0.179075,0.0871724,0.0344459,-0.0357862,-0.11399,5.68628
-0.0903757,-0.272531,0.134561,0.0267662,-0.021806,-0.182539,5.68628
0.0321635,-0.263957,0.139763,0.00430046,-0.0115084,-0.223643,5.68628
0.145426,-0.294209,0.102742,-0.021336,0.0119198,-0.234061,5.68628
0.0737823,-0.388475,0.0467578,-0.027041,0.0146194,-0.196289,5.68628
-0.202536,-0.528802,-0.0369548,-0.0349951,0.00640106,-0.160927,5.68628
-0.694193,-0.802566,-0.250311,-0.0419114,0.036548,-0.165938,5.68628
-1.04759,-0.993041,-0.472413,-0.0769125,0.0869081,-0.179198,5.68628
-0.961397,-0.872959,-0.601155,-0.131122,0.163409,-0.184477,5.68628
-0.420083,-0.298699,-0.595338,-0.149128,0.194064,-0.119954,5.68628
0.0800843,0.238512,-0.41132,-0.12369,0.144685,-0.0586204,5.68628
0.199895,0.443299,-0.248726,-0.0621147,0.063774,0.00157499,5.68628
0.039837,0.276885,-0.157495,-0.0317853,-0.0031721,0.0128109,5.68628
-0.133896,0.0159382,-0.162765,-0.00805041,-0.0489596,0.032998,5.68628
-0.245872,-0.198818,-0.299791,-0.00128245,-0.0384288,0.0345517,5.68628
-0.158636,-0.262651,-0.397637,-0.0112282,-0.0176043,0.0602611,5.68628
0.0914708,-0.182069,-0.439633,-0.0267065,0.00956568,0.102964,5.68628
0.307074,-0.103367,-0.479273,-0.00973893,0.0340801,0.149432,5.68628
0.299575,-0.0436301,-0.441908,0.00443962,0.0181826,0.187244,5.68628
0.180365,0.102276,-0.329192,-0.0126972,-0.00800174,0.223979,5.68628
0.0297192,0.1454,-0.266714,-0.0178815,-0.00405005,0.225566,5.68628
-0.00581196,0.132298,-0.250881,-0.020018,-0.00317737,0.216498,5.68628
0.0596142,0.0299211,-0.289588,-0.0296213,0.00519469,0.200132,5.68628
0.158307,-0.148478,-0.343827,-0.0164901,-0.000497013,0.172375,5.68628
0.231429,-0.328721,-0.383247,-0.0018169,-0.0160417,0.14337,5.68628
0.277703,-0.356773,-0.36977,0.010712,-0.0260369,0.134694,5.68628
