attitude_roll,attitude_pitch,attitude_yaw,rotationRate_x,rotationRate_y,rotationRate_z,acceleration_x,acceleration_y,acceleration_z
0.0525327,0.231782,-0.00611687,-0.397891,-0.0565573,-0.420523,-0.0406673,-0.0213097,0.0489269
0.0475879,0.223881,-0.0133301,-0.364949,-0.65431,-0.299504,0.0310556,0.00575307,0.0372327
0.0296768,0.217154,-0.0173357,-0.261284,-1.14644,-0.133244,0.0612954,-0.0310389,-0.0718433
0.00703193,0.214193,-0.019299,-0.0329651,-1.10032,-0.0832976,-0.0101976,-0.0530663,-0.202533
-0.0114652,0.215194,-0.0209911,0.119987,-0.770441,-0.0727357,-0.0404962,-0.0493105,-0.231686
-0.0217082,0.218884,-0.0216736,0.241933,-0.264565,0.0118553,-0.0148527,-0.0582658,-0.214657
-0.0239904,0.22431,-0.0200311,0.288305,0.0160613,0.142682,0.0231278,-0.0555506,-0.136402
-0.0249252,0.229738,-0.0156855,0.258712,-0.0575709,0.25637,0.0357119,-0.0514676,-0.0635484
-0.029045,0.234375,-0.0102365,0.218294,-0.231199,0.242129,0.00450423,-0.056461,-0.0500742
-0.0365309,0.237806,-0.00590541,0.123048,-0.407947,0.163526,-0.0272797,-0.0653626,-0.0493144
-0.0465766,0.238528,-0.00343209,-0.0515771,-0.552565,0.0808168,-0.0466469,-0.0743659,-0.0593352
-0.0596657,0.235784,-0.00249387,-0.209406,-0.727614,0.0233944,-0.0577423,-0.0777501,-0.0932263
-0.074967,0.230641,-0.00338225,-0.308398,-0.8099,-0.0830991,-0.0859915,-0.0804953,-0.135217
-0.0898543,0.224114,-0.00715521,-0.377427,-0.747513,-0.235931,-0.117818,-0.0730611,-0.164791
-0.101412,0.217099,-0.0144147,-0.387899,-0.555487,-0.397814,-0.134583,-0.0451616,-0.177096
-0.107414,0.210935,-0.0245917,-0.344228,-0.257266,-0.520043,-0.114056,-0.0118016,-0.165755
-0.106873,0.205765,-0.0362972,-0.305789,0.0622431,-0.548024,-0.0781973,0.0327307,-0.104408
-0.10078,0.201275,-0.0473053,-0.249251,0.309301,-0.47161,-0.0448235,0.064146,-0.0313847
-0.0910446,0.198381,-0.056027,-0.110536,0.470403,-0.353314,-0.0362763,0.0833591,0.0284656
-0.080356,0.198498,-0.0620882,0.0707915,0.443597,-0.248163,-0.047863,0.0893781,0.0854616
-0.0726822,0.202017,-0.0663404,0.247559,0.200915,-0.195204,-0.0854289,0.0926894,0.136288
-0.0713669,0.208973,-0.0696247,0.41119,-0.134032,-0.187331,-0.126885,0.102185,0.154908
-0.0755786,0.218344,-0.0736812,0.465846,-0.371197,-0.28912,-0.173417,0.113067,0.169394
-0.0831288,0.227319,-0.0806944,0.349876,-0.516802,-0.476177,-0.192342,0.113351,0.17553
-0.090717,0.233148,-0.0922017,0.122662,-0.49261,-0.70147,-0.208215,0.111001,0.164347
-0.0955322,0.234486,-0.10902,-0.146967,-0.373108,-0.941301,-0.209378,0.128247,0.150358
-0.0963566,0.230875,-0.13063,-0.415654,-0.211847,-1.10741,-0.168705,0.148827,0.148135
-0.0934729,0.222688,-0.154764,-0.60535,-0.056058,-1.1403,-0.112993,0.161037,0.137844
-0.0880371,0.211944,-0.178053,-0.662989,0.0922556,-1.00632,-0.0384031,0.155688,0.136649
-0.0815989,0.200763,-0.198071,-0.60173,0.163995,-0.875769,-0.0499047,0.155334,0.140213
-0.0741968,0.19042,-0.215266,-0.600541,0.186279,-0.698376,-0.0479845,0.120866,0.191793
-0.0684114,0.179082,-0.229658,-0.620228,0.120239,-0.699624,-0.093929,0.139812,0.237657
-0.0628865,0.168652,-0.246739,-0.512792,0.247461,-0.874928,-0.077756,0.118522,0.221321
-0.0524046,0.160309,-0.263976,-0.452241,0.46135,-0.756456,0.0136536,0.018785,0.210478
-0.0414283,0.150669,-0.278363,-0.60532,0.423622,-0.626122,0.0405963,0.00739911,0.207885
-0.0306556,0.13703,-0.289872,-0.793612,0.457966,-0.473548,0.0510087,-0.0192827,0.158816
-0.0209495,0.121067,-0.299074,-0.783422,0.422377,-0.420089,0.0302704,-0.0810417,0.0390477
-0.0111806,0.10798,-0.308437,-0.51303,0.446379,-0.507003,0.0142281,-0.14078,-0.061352
-0.00133282,0.101181,-0.320141,-0.189942,0.40102,-0.65366,0.021193,-0.175343,-0.0829657
0.00710103,0.0993471,-0.334181,-0.0216951,0.303414,-0.731123,0.0511158,-0.198073,-0.0420195
0.0136287,0.0987722,-0.348719,-0.0416552,0.195666,-0.708903,0.0868257,-0.21044,-0.00696534
0.0175053,0.0968039,-0.362072,-0.134769,0.0460972,-0.618613,0.109653,-0.225247,-0.0185367
0.0177954,0.093372,-0.373154,-0.176087,-0.108498,-0.491061,0.104979,-0.230403,-0.098935
0.0152112,0.0900927,-0.381635,-0.122261,-0.225433,-0.374294,0.0751526,-0.231028,-0.209417
0.0108875,0.0886903,-0.388795,-0.0171633,-0.271945,-0.355801,0.0130508,-0.235797,-0.319846
0.00580413,0.0885548,-0.396322,-0.0167678,-0.289206,-0.401884,-0.0250227,-0.229768,-0.376097
0.00115966,0.0864582,-0.40514,-0.21988,-0.265746,-0.480715,-0.024135,-0.225432,-0.401243
-0.0035991,0.0796162,-0.415078,-0.452835,-0.285048,-0.50204,0.0185566,-0.223294,-0.455231
-0.00803334,0.0700781,-0.425183,-0.473494,-0.207057,-0.505854,0.0249203,-0.199175,-0.54779
-0.00952271,0.0627074,-0.435003,-0.253582,0.0101152,-0.451337,0.0117622,-0.136003,-0.586361
-0.00569349,0.0614561,-0.442362,0.145581,0.347497,-0.26481,0.0316532,-0.0747215,-0.540509
0.00524455,0.0691946,-0.445159,0.632034,0.73279,-0.00875903,0.0530719,-0.0320722,-0.411266
0.00524455,0.0691946,-0.445159,0.632034,0.73279,-0.00875903,0.0530719,-0.0320722,-0.411266
0.023354,0.0866429,-0.442831,1.0955,1.09388,0.271546,0.0642144,0.00840956,-0.213511
0.0470538,0.111891,-0.435524,1.36962,1.32419,0.546194,0.0332138,0.0619905,0.021547
0.0725284,0.140706,-0.423424,1.40545,1.34794,0.816995,0.00146306,0.089736,0.225902
0.0950632,0.168863,-0.407525,1.24969,1.12499,0.974996,-0.0424225,0.0793017,0.371264
0.109294,0.193338,-0.389496,1.01475,0.59009,1.02944,-0.0676768,0.0592164,0.435398
0.111011,0.213828,-0.371043,0.820446,-0.0710473,0.980413,-0.103744,0.0459117,0.412495
0.0975205,0.229557,-0.354272,0.553257,-0.928752,0.79728,-0.154565,0.052772,0.38598
0.0680521,0.237847,-0.341578,0.15285,-1.67152,0.489371,-0.205779,0.0619504,0.292566
0.0304233,0.237669,-0.335634,-0.186852,-1.90804,0.0810647,-0.219276,0.0599309,0.0977673
-0.00652836,0.231791,-0.338113,-0.379096,-1.78224,-0.312815,-0.173303,0.0912632,-0.0692447
-0.0354902,0.223625,-0.347134,-0.42707,-1.31513,-0.509301,-0.0700455,0.144907,-0.169328
-0.0524078,0.217951,-0.357245,-0.152501,-0.554979,-0.397247,0.0434084,0.220762,-0.276371
-0.0556177,0.218642,-0.361509,0.170116,0.0856299,0.0109211,0.142431,0.285447,-0.208727
-0.051856,0.223975,-0.356174,0.367238,0.351332,0.46249,0.180741,0.284058,-0.0642371
-0.0472886,0.231806,-0.343156,0.462327,0.370345,0.733922,0.157564,0.228591,0.0598268
-0.0445556,0.240519,-0.326716,0.463337,0.282604,0.803577,0.100937,0.181688,0.15154
-0.0434737,0.248475,-0.310186,0.388199,0.240071,0.757303,0.061565,0.142914,0.215092
-0.0422434,0.254637,-0.295505,0.298208,0.25785,0.632615,0.0420898,0.107088,0.231479
-0.0393154,0.259613,-0.283922,0.249559,0.330701,0.474616,0.0484862,0.085411,0.229888
-0.0346441,0.263521,-0.275342,0.161113,0.356826,0.350712,0.0661869,0.0835409,0.260035
-0.0291938,0.265029,-0.269005,0.00548491,0.350171,0.2569,0.0890531,0.0718586,0.281141
-0.0234828,0.263531,-0.264442,-0.134706,0.354682,0.199355,0.102657,0.0581289,0.245407
-0.0172969,0.259536,-0.260111,-0.257383,0.361555,0.235016,0.100961,0.0534006,0.201167
-0.0120097,0.253141,-0.254859,-0.375067,0.294823,0.284835,0.0653834,0.0256536,0.138776
-0.009014,0.244992,-0.248611,-0.41005,0.148295,0.321563,0.013185,-0.00502503,0.00987947
-0.00934983,0.237204,-0.242861,-0.369681,-0.0473044,0.211176,-0.0869204,-0.0606994,-0.12837
-0.0124455,0.229316,-0.24155,-0.433637,-0.218891,-0.0857499,-0.134075,-0.140151,-0.206475
-0.0159453,0.219948,-0.246847,-0.502093,-0.200769,-0.424222,-0.124118,-0.219306,-0.313354
-0.0146197,0.210052,-0.258972,-0.505532,0.105889,-0.733851,-0.138168,-0.217118,-0.397664
-0.00460946,0.200098,-0.275903,-0.508254,0.56872,-0.888901,-0.14566,-0.165095,-0.426045
0.0139464,0.189854,-0.294318,-0.508938,0.893048,-0.912315,-0.135872,-0.151372,-0.40756
0.0362447,0.179622,-0.312644,-0.467628,0.96067,-0.929574,-0.113184,-0.165367,-0.3699
0.0571375,0.170445,-0.331672,-0.361294,0.767937,-0.992552,-0.0914199,-0.172253,-0.339433
0.0727595,0.162935,-0.351558,-0.261354,0.489258,-1.00396,-0.0527658,-0.15004,-0.296403
0.0844932,0.157759,-0.370541,-0.0859186,0.433256,-0.887332,-0.0129101,-0.0970301,-0.289669
0.0972473,0.157696,-0.385838,0.235098,0.615147,-0.595006,0.0182159,-0.016236,-0.258407
0.112441,0.1652,-0.394517,0.600891,0.755735,-0.158956,0.027476,0.0654963,-0.142051
0.127592,0.180434,-0.394697,0.90323,0.725858,0.318651,-0.000302866,0.11125,0.00910944
0.138515,0.201893,-0.387119,1.11272,0.484476,0.685158,-0.074935,0.124978,0.142852
0.141719,0.227051,-0.374167,1.1819,0.0950535,0.904254,-0.154801,0.143425,0.250165
0.135316,0.252193,-0.358391,1.08504,-0.365112,0.931432,-0.240362,0.141237,0.308469
0.119979,0.274098,-0.343837,0.895721,-0.783524,0.706725,-0.331943,0.10744,0.315155
0.0980911,0.290206,-0.335535,0.61693,-1.17259,0.237618,-0.404431,0.0791187,0.289028
0.0726216,0.299888,-0.337611,0.363359,-1.409,-0.355613,-0.41487,0.0669436,0.21132
0.0479312,0.303682,-0.351191,0.0832617,-1.44295,-0.897499,-0.32781,0.0790044,0.14028
0.027554,0.302063,-0.374113,-0.155905,-1.24555,-1.27407,-0.206357,0.119619,0.0541395
0.0152147,0.296429,-0.403103,-0.350448,-0.814293,-1.48866,-0.120019,0.182258,-0.00202256
0.0135782,0.288027,-0.434295,-0.41266,-0.252648,-1.4891,-0.0333279,0.224476,-0.0537181
0.0216947,0.280791,-0.463692,-0.23743,0.192886,-1.34673,0.0485383,0.228288,-0.0581884
0.0346552,0.277665,-0.489904,-0.0203344,0.353863,-1.19408,0.0847209,0.213258,0.033951
0.0346552,0.277665,-0.489904,-0.0203344,0.353863,-1.19408,0.0847209,0.213258,0.033951
0.0487135,0.277369,-0.513203,0.0610441,0.413654,-1.0548,0.100765,0.17501,0.155005
0.0631054,0.277208,-0.534016,0.018739,0.45671,-0.962518,0.0827615,0.136098,0.246652
0.0778448,0.27514,-0.553509,-0.103593,0.480891,-0.932453,0.052585,0.0894,0.303726
0.0919904,0.269856,-0.572396,-0.266263,0.410644,-0.931985,0.0396071,0.0345064,0.326556
0.103512,0.261651,-0.590995,-0.366432,0.244734,-0.946187,0.041303,-0.0183174,0.306146
0.111231,0.251686,-0.609635,-0.433843,0.0614159,-0.950759,0.0424135,-0.0422377,0.265503
0.115245,0.240948,-0.627384,-0.422912,-0.0741893,-0.874695,0.0646621,-0.0648741,0.173334
0.11737,0.231964,-0.643036,-0.289048,-0.0585744,-0.736665,0.0846745,-0.0804589,0.0537555
0.119771,0.225696,-0.655561,-0.211667,0.00724246,-0.553303,0.10112,-0.097382,0.00563532
0.122059,0.220127,-0.664483,-0.252649,0.00879133,-0.382321,0.108416,-0.123138,-0.0252872
0.122697,0.213843,-0.66987,-0.297181,-0.0724955,-0.231501,0.0933801,-0.150027,-0.122379
0.12051,0.207692,-0.673161,-0.262087,-0.218834,-0.175582,0.039515,-0.177404,-0.271065
0.115655,0.202944,-0.676294,-0.173561,-0.320831,-0.203032,0.0123984,-0.20877,-0.384412
0.110508,0.199729,-0.681046,-0.10426,-0.263663,-0.303966,0.00445835,-0.219748,-0.462031
0.107936,0.197006,-0.68779,-0.101318,-0.11661,-0.380281,0.0224392,-0.201177,-0.480845
0.109148,0.19431,-0.695307,-0.0851138,0.0804397,-0.368983,0.0528173,-0.162394,-0.482269
0.113016,0.192604,-0.701619,-0.0111494,0.173843,-0.255803,0.092725,-0.118338,-0.443713
0.117876,0.193301,-0.705139,0.13375,0.258626,-0.0769044,0.111211,-0.0805903,-0.394652
0.124419,0.198212,-0.705317,0.367311,0.400448,0.119991,0.11855,-0.0548993,-0.32144
0.133389,0.208149,-0.702386,0.570768,0.563922,0.297658,0.0984688,-0.0134745,-0.189258
0.144893,0.221841,-0.696228,0.699557,0.710757,0.494017,0.0810911,0.0236602,-0.0336596
0.157637,0.238374,-0.686516,0.789648,0.771534,0.688089,0.0509303,0.0624927,0.120381
0.169217,0.256791,-0.673541,0.812612,0.692971,0.849804,0.0112754,0.086376,0.258067
0.176977,0.275476,-0.65773,0.754614,0.480638,0.96996,-0.0167369,0.102602,0.358917
0.177854,0.292513,-0.639385,0.606538,0.0972874,1.06259,-0.0274346,0.110014,0.419835
0.16941,0.306428,-0.619328,0.427806,-0.347625,1.05628,-0.050472,0.0990788,0.400401
0.151995,0.315872,-0.599241,0.175053,-0.772168,0.979677,-0.0661304,0.0940624,0.342948
0.127429,0.318718,-0.580483,-0.148037,-1.09085,0.811617,-0.0845512,0.0838416,0.240232
0.0990286,0.314297,-0.565333,-0.447829,-1.2488,0.561723,-0.0737448,0.0643516,0.0937239
0.0719018,0.303997,-0.555717,-0.635351,-1.13867,0.269709,-0.0410648,0.0602463,-0.0780571
0.050755,0.291282,-0.551249,-0.637417,-0.824501,0.107857,0.0412782,0.082606,-0.209525
0.0373033,0.279921,-0.548259,-0.503016,-0.440517,0.170461,0.11174,0.146931,-0.239649
0.0299038,0.271726,-0.541843,-0.339103,-0.144628,0.448554,0.157019,0.201011,-0.173505
0.0253273,0.267127,-0.529006,-0.147529,-0.0112852,0.770396,0.155841,0.198562,-0.0864505
0.0197521,0.266968,-0.51064,0.0976802,-0.092274,0.978975,0.12664,0.157332,-0.00364578
0.0113315,0.271758,-0.489715,0.331497,-0.177212,1.02915,0.0697121,0.121804,0.048459
0.00188408,0.279204,-0.468862,0.362147,-0.195915,0.977297,0.0266465,0.110964,0.13237
-0.0065865,0.285222,-0.449712,0.238232,-0.09797,0.861535,-0.00230084,0.0983104,0.173141
-0.0119807,0.288139,-0.433213,0.0611173,0.00331294,0.721213,-0.00865511,0.0781901,0.197643
-0.0154267,0.287494,-0.419906,-0.0955648,0.0254014,0.55929,-0.0174641,0.0584977,0.202191
-0.0174948,0.2848,-0.409987,-0.144764,0.0397263,0.405421,-0.0130111,0.0290425,0.168433
-0.0193661,0.28149,-0.403015,-0.188731,-0.0530867,0.275009,-0.00643693,0.0194408,0.175947
-0.0234227,0.276311,-0.398803,-0.331723,-0.234262,0.143672,0.0197703,-0.00699162,0.175382
-0.0294451,0.268149,-0.397486,-0.480291,-0.320313,0.0011671,0.0249555,-0.0417544,0.102532
-0.0352827,0.257213,-0.399594,-0.626643,-0.29702,-0.167613,-0.00424571,-0.0359882,0.0343719
-0.0386602,0.243776,-0.405131,-0.723564,-0.153563,-0.315952,-0.0160353,-0.0393016,-0.0460386
-0.0379827,0.22948,-0.413079,-0.728911,0.011895,-0.382433,0.0136474,-0.0545264,-0.0934458
-0.0354754,0.215755,-0.421111,-0.664912,0.0551442,-0.341553,0.0559621,-0.0743065,-0.115169
-0.0328503,0.204188,-0.42784,-0.50495,0.0730859,-0.273586,0.0571713,-0.0957665,-0.161561
-0.0294897,0.196278,-0.432655,-0.314717,0.162169,-0.174905,0.0383645,-0.0972769,-0.177281
-0.0254733,0.190813,-0.435535,-0.261732,0.173068,-0.100432,0.0255728,-0.112544,-0.125737
-0.0254733,0.190813,-0.435535,-0.261732,0.173068,-0.100432,0.0255728,-0.112544,-0.125737
-0.0219754,0.185754,-0.437493,-0.237148,0.13537,-0.090395,0.00136244,-0.150151,-0.124648
-0.0195227,0.181769,-0.43967,-0.16996,0.060173,-0.115396,-0.0368761,-0.158418,-0.151611
-0.0187555,0.178883,-0.442143,-0.122044,-0.0166831,-0.1202,-0.0567707,-0.143526,-0.160509
-0.0183333,0.177291,-0.444737,-0.0363783,0.0294876,-0.136061,-0.08248,-0.12425,-0.18448
-0.0165216,0.177271,-0.447836,0.00178632,0.0785054,-0.162313,-0.0748177,-0.0990925,-0.160779
-0.0158541,0.176469,-0.451062,-0.109624,-0.10465,-0.153195,-0.0594508,-0.0645121,-0.103011
-0.0202737,0.172851,-0.454142,-0.257182,-0.389597,-0.149338,-0.0412938,-0.0537321,-0.117338
-0.0289989,0.16688,-0.457635,-0.326016,-0.494388,-0.186061,-0.031787,-0.0566564,-0.199655
-0.0363483,0.161565,-0.461979,-0.181534,-0.269942,-0.213705,-0.000586171,-0.0393174,-0.301166
-0.0373351,0.161178,-0.465405,0.140232,0.122963,-0.0936195,0.0537951,0.0217179,-0.317818
-0.0322804,0.166978,-0.464481,0.425275,0.352144,0.183832,0.0851096,0.0961656,-0.206805
-0.0267249,0.1771,-0.457451,0.592455,0.275293,0.468841,0.0700507,0.11128,-0.0688187
-0.0265446,0.18935,-0.445855,0.649765,-0.0638938,0.618765,0.0144094,0.103931,0.0370786
-0.0336178,0.201905,-0.432814,0.639989,-0.358524,0.602774,-0.0637357,0.0969589,0.069587
-0.0439338,0.213728,-0.421312,0.58784,-0.392919,0.460063,-0.133395,0.102134,0.0657663
-0.0516865,0.224349,-0.413866,0.509988,-0.196158,0.196232,-0.183762,0.102186,0.0677993
-0.0529803,0.233398,-0.412567,0.398259,0.0941313,-0.114539,-0.179514,0.100685,0.106378
-0.0478603,0.240083,-0.417288,0.253886,0.289044,-0.366545,-0.121331,0.103613,0.169928
-0.0390547,0.244321,-0.426326,0.139241,0.350883,-0.514298,-0.056765,0.116242,0.214023
-0.0296181,0.246822,-0.437414,0.0844378,0.328905,-0.554111,0.0181573,0.120559,0.225036
-0.0205945,0.248637,-0.448151,0.0785539,0.316759,-0.476985,0.0655378,0.132726,0.228122
-0.0120127,0.250789,-0.456673,0.12712,0.335784,-0.361215,0.0795078,0.124465,0.228977
-0.00356804,0.253876,-0.46295,0.160639,0.345602,-0.257154,0.0718131,0.0983251,0.255462
0.00461656,0.256406,-0.467475,0.0814478,0.372692,-0.187123,0.0601859,0.0625202,0.29408
0.0135842,0.256542,-0.471243,-0.0784186,0.423358,-0.193517,0.0292802,0.017455,0.306463
0.0231668,0.252562,-0.476134,-0.32147,0.404791,-0.299729,0.00741636,-0.0316395,0.318907
0.0318952,0.243531,-0.483341,-0.545859,0.258243,-0.418966,0.0167959,-0.0866734,0.278059
0.0363667,0.231587,-0.491902,-0.595211,-0.0105416,-0.435753,0.0438509,-0.108032,0.183475
0.0360929,0.220268,-0.499267,-0.487297,-0.160249,-0.306402,0.0654338,-0.095214,0.0614308
0.0339307,0.213208,-0.503276,-0.181497,-0.0964826,-0.109771,0.0713361,-0.100782,-0.0738797
0.0341638,0.213139,-0.503534,0.16212,0.124689,0.0800311,0.0602589,-0.110233,-0.125631
0.0385719,0.218852,-0.500664,0.374785,0.373972,0.208678,0.0377359,-0.130821,-0.106305
0.0459386,0.227015,-0.496199,0.397217,0.427177,0.253339,0.0183356,-0.153882,-0.0420663
0.0524532,0.234322,-0.491257,0.302708,0.305868,0.260146,-0.00619658,-0.170847,-0.0307562
0.0547447,0.239574,-0.486564,0.20395,0.0186352,0.215047,-0.0381705,-0.184174,-0.0761587
0.0515779,0.242961,-0.483815,0.119452,-0.248878,0.0552011,-0.066795,-0.198754,-0.179877
0.0453308,0.243963,-0.484833,-0.0243385,-0.37499,-0.157082,-0.0705847,-0.200345,-0.271865
0.0401416,0.241926,-0.490319,-0.15144,-0.242615,-0.383149,-0.0599429,-0.174993,-0.378262
0.0401962,0.237952,-0.499521,-0.200703,0.0397003,-0.509244,-0.00693326,-0.120763,-0.446916
0.046434,0.233728,-0.509773,-0.170686,0.341573,-0.494921,0.0472063,-0.0524216,-0.448664
0.0574855,0.230487,-0.518684,-0.10735,0.532792,-0.373751,0.106511,0.000729844,-0.381416
0.0705149,0.228973,-0.524364,0.00711797,0.633779,-0.182835,0.159532,0.0215331,-0.289491
0.0840565,0.230748,-0.525818,0.187829,0.682948,0.0627183,0.181299,0.053794,-0.186085
0.0973058,0.236753,-0.522248,0.378383,0.727873,0.344219,0.178675,0.0942884,-0.0571367
0.110194,0.246827,-0.513308,0.519692,0.780153,0.620055,0.152502,0.123555,0.0880789
0.12277,0.259264,-0.499445,0.536634,0.827407,0.848576,0.128457,0.13375,0.22972
0.134497,0.271118,-0.481669,0.403351,0.800981,1.00403,0.113604,0.131059,0.348234
0.143364,0.280007,-0.460587,0.195145,0.638676,1.13056,0.112905,0.121028,0.407951
0.14689,0.285186,-0.436756,-0.0144279,0.369862,1.20548,0.104819,0.10737,0.410961
0.143138,0.28628,-0.411177,-0.245974,-0.0382236,1.24352,0.103574,0.095984,0.37901
0.143138,0.28628,-0.411177,-0.245974,-0.0382236,1.24352,0.103574,0.095984,0.37901
0.131134,0.282229,-0.384158,-0.508203,-0.383703,1.28969,0.111598,0.100244,0.300503
0.112902,0.273679,-0.355398,-0.649419,-0.644221,1.35323,0.105657,0.10783,0.159595
0.0905425,0.263925,-0.326337,-0.588531,-0.808163,1.33975,0.115669,0.0815355,0.0105523
0.0667993,0.255681,-0.298111,-0.443444,-0.805633,1.33059,0.160609,0.0578966,-0.0912306
0.0459418,0.24995,-0.270234,-0.281681,-0.554693,1.34499,0.186138,0.0590007,-0.153573
0.0316523,0.246827,-0.241847,-0.144845,-0.178555,1.40716,0.197248,0.071767,-0.150422
0.0240211,0.245642,-0.212242,-0.0690338,0.109171,1.45437,0.189501,0.0611874,-0.0835363
0.0200257,0.244985,-0.182664,-0.0669392,0.177825,1.41151,0.169889,0.0165893,0.0133883
0.0166508,0.244383,-0.154837,-0.0399975,0.162434,1.28915,0.139927,-0.0117956,0.0488723
0.0135325,0.243988,-0.129916,-0.0470511,0.122605,1.13622,0.117713,-0.0217922,0.0866874
0.0104216,0.24306,-0.108286,-0.0699802,0.0922146,0.968504,0.118333,-0.0371733,0.100863
0.00764247,0.241556,-0.0902308,-0.0995283,0.0532856,0.792383,0.120357,-0.037489,0.111243
0.00506345,0.239507,-0.0755892,-0.108389,0.057271,0.636005,0.134272,-0.0376482,0.0997843
0.00385574,0.237432,-0.0637838,-0.10957,0.095799,0.521341,0.138113,-0.0170352,0.0871723
0.00372309,0.235315,-0.0537864,-0.102768,0.115208,0.458561,0.157451,-0.00542144,0.0717993
0.00392791,0.233717,-0.0449582,-0.0608767,0.101854,0.402164,0.159417,0.00423905,0.0310934
0.00339799,0.232577,-0.0372815,-0.064756,0.0317893,0.345811,0.155873,0.0131247,0.00851619
0.00275029,0.231018,-0.0310675,-0.0963228,0.0617701,0.26094,0.133889,0.0306199,-0.0567518
0.00398963,0.228829,-0.0265154,-0.123002,0.17173,0.183755,0.102209,0.0691377,-0.122816
0.00788916,0.226145,-0.0235984,-0.155989,0.269388,0.0914479,0.0652641,0.0752355,-0.163249
0.013471,0.222282,-0.0230532,-0.250312,0.302945,-0.0488781,0.00785691,0.0784422,-0.167209
0.0200975,0.215321,-0.0253728,-0.453886,0.308083,-0.18306,-0.0311677,0.0615921,-0.168965
0.0276735,0.204618,-0.0304475,-0.5916,0.342773,-0.350574,-0.0804222,0.0205154,-0.220684
0.0364348,0.191895,-0.0390323,-0.649212,0.355848,-0.523034,-0.113563,-0.00796521,-0.256113
0.0456349,0.178901,-0.0499847,-0.603485,0.360098,-0.591603,-0.122848,-0.0223084,-0.272081
0.0549518,0.166944,-0.0616133,-0.551585,0.38801,-0.610186,-0.131126,-0.0220324,-0.24496
0.0653544,0.15554,-0.0729938,-0.514726,0.477166,-0.574378,-0.139761,-0.023553,-0.212515
0.077321,0.145833,-0.0832576,-0.364411,0.553765,-0.504498,-0.155465,-0.0153739,-0.196203
0.0893818,0.140404,-0.0916261,-0.0949828,0.519257,-0.355137,-0.161535,0.0105947,-0.15303
0.0991712,0.141173,-0.0966114,0.216434,0.369826,-0.118331,-0.177385,0.0558654,-0.0827603
0.104298,0.148379,-0.0969199,0.496391,0.130108,0.158673,-0.219115,0.0946126,-0.00690198
0.103638,0.161038,-0.0929506,0.71354,-0.134772,0.330205,-0.296222,0.0973236,0.0589136
0.0978836,0.177254,-0.0883185,0.832338,-0.363052,0.244836,-0.396459,0.086895,0.111807
0.0883651,0.19355,-0.0879543,0.754703,-0.580487,-0.0926,-0.475717,0.0765144,0.173879
0.076822,0.20529,-0.0957356,0.445614,-0.713714,-0.59175,-0.498215,0.0771874,0.225962
0.0666107,0.208439,-0.113662,-0.0154125,-0.657424,-1.12974,-0.45126,0.0816126,0.224904
0.060284,0.20225,-0.140697,-0.403218,-0.511282,-1.524,-0.350569,0.110542,0.156594
0.0583112,0.190814,-0.172989,-0.506389,-0.320892,-1.67918,-0.237244,0.159934,0.0451381
0.0593675,0.180409,-0.205885,-0.307763,-0.204346,-1.59015,-0.112523,0.187763,-0.0503572
0.0608077,0.175903,-0.235688,0.0347448,-0.191977,-1.35962,-0.0148648,0.186365,-0.0657889
0.0603712,0.178032,-0.260651,0.304042,-0.304755,-1.09462,0.0320345,0.168075,0.00609809
0.0570643,0.183946,-0.281651,0.383505,-0.390234,-0.963633,0.0402271,0.106601,0.0950394
0.0533822,0.189884,-0.301544,0.297831,-0.332122,-0.977866,0.0350046,0.0451748,0.157202
0.0523621,0.193009,-0.322349,0.116934,-0.155015,-1.04967,0.0428109,0.00657168,0.190001
0.0551475,0.192198,-0.344033,-0.0767566,0.0151952,-1.07693,0.065097,-0.0137867,0.204872
0.0606815,0.188328,-0.365294,-0.171728,0.110887,-1.02205,0.10359,-0.0374841,0.192989
0.0661323,0.183891,-0.384542,-0.129047,0.0623432,-0.895454,0.137957,-0.0638328,0.164737
0.0697626,0.181577,-0.400848,0.0141402,0.00571303,-0.715995,0.161726,-0.08599,0.128034
0.0721678,0.182434,-0.413402,0.154413,0.0310192,-0.523303,0.161666,-0.0990328,0.11114
0.0756157,0.185777,-0.422852,0.230482,0.140063,-0.390382,0.140264,-0.122342,0.108952
0.0802514,0.189632,-0.430118,0.191959,0.17025,-0.292049,0.130683,-0.137751,0.12877
0.0802514,0.189632,-0.430118,0.191959,0.17025,-0.292049,0.130683,-0.137751,0.12877
0.0840534,0.192013,-0.435288,0.0819185,0.100604,-0.194401,0.125581,-0.152274,0.112434
0.0852646,0.192231,-0.43855,-0.0321007,-0.0587126,-0.138101,0.108027,-0.172034,0.0475184
0.0828399,0.190559,-0.441411,-0.101193,-0.224185,-0.172293,0.0719509,-0.192443,-0.0698695
0.0788794,0.188034,-0.445955,-0.118384,-0.238748,-0.307047,0.0260917,-0.19326,-0.201925
0.0763634,0.184141,-0.453848,-0.244681,-0.160858,-0.498605,-0.00204719,-0.170628,-0.278484
0.0753283,0.175532,-0.464861,-0.543346,-0.14198,-0.637129,0.0369375,-0.155431,-0.324616
0.0747066,0.161606,-0.477107,-0.716206,-0.126945,-0.650441,0.0995837,-0.125519,-0.429693
0.0748269,0.147401,-0.488131,-0.581244,-0.00875621,-0.525172,0.131803,-0.0656564,-0.54094
0.0782658,0.138693,-0.495895,-0.213918,0.270524,-0.291698,0.134143,-0.0159265,-0.571213
0.0880023,0.13798,-0.498805,0.156706,0.676558,0.00208744,0.11865,0.0126496,-0.479478
0.104911,0.144144,-0.496678,0.41762,1.01692,0.257346,0.0899859,0.0207813,-0.286869
0.126182,0.154965,-0.490569,0.572751,1.18105,0.465563,0.0519303,0.0210749,-0.0668657
0.148394,0.168553,-0.481084,0.639064,1.18008,0.647905,0.00184384,0.0348217,0.114185
0.168702,0.183762,-0.468758,0.665396,1.05606,0.787388,-0.0453095,0.0411428,0.238264
0.184399,0.199358,-0.45441,0.613668,0.769105,0.868352,-0.0830905,0.0352137,0.330977
0.192635,0.213642,-0.438827,0.496519,0.364655,0.897629,-0.099798,0.036316,0.383459
0.191941,0.224945,-0.422247,0.280335,-0.0921877,0.907672,-0.097641,0.0444486,0.389324
0.180872,0.230855,-0.404469,-0.0225959,-0.592498,0.909783,-0.0787101,0.0524035,0.341243
0.160985,0.23091,-0.38564,-0.276825,-0.956364,0.893096,-0.10617,0.0708132,0.19633
0.135337,0.22614,-0.36746,-0.445235,-1.18793,0.769406,-0.130817,0.0569045,0.0216125
0.108078,0.218675,-0.352989,-0.445594,-1.16946,0.537463,-0.119185,0.0233022,-0.179214
0.0858302,0.211793,-0.343467,-0.321259,-0.814212,0.345051,-0.0752034,0.0356832,-0.319538
0.0733373,0.207674,-0.336766,-0.133453,-0.288299,0.3076,-0.0217704,0.0796129,-0.357323
0.071142,0.207883,-0.329506,0.101796,0.186217,0.419917,0.0197733,0.119597,-0.301044
0.0753896,0.212876,-0.319814,0.317755,0.395331,0.554977,0.017599,0.129226,-0.151844
0.0809859,0.221634,-0.30831,0.457759,0.389929,0.620484,-0.0190737,0.116522,0.0126101
0.0854092,0.232443,-0.29673,0.516023,0.305182,0.584956,-0.0721775,0.102319,0.14296
0.0877208,0.243385,-0.286585,0.477904,0.164307,0.485815,-0.106999,0.0983656,0.246291
0.0876627,0.252352,-0.278868,0.34222,0.0184474,0.332495,-0.121277,0.0849634,0.31869
0.0852052,0.257529,-0.27426,0.130686,-0.1581,0.152534,-0.123021,0.0725625,0.361113
0.080156,0.258443,-0.27316,-0.0414755,-0.31015,-0.0397533,-0.114291,0.0622773,0.335725
0.073288,0.256057,-0.275563,-0.170185,-0.423192,-0.205049,-0.0743141,0.0547057,0.291002
0.0660478,0.251719,-0.280456,-0.227496,-0.413953,-0.283225,-0.0162667,0.0617678,0.215519
0.0595478,0.246734,-0.285788,-0.230896,-0.378077,-0.258756,0.0273269,0.0764526,0.160684
0.0529113,0.241978,-0.290381,-0.226862,-0.412311,-0.215211,0.0422821,0.069396,0.120218
0.044748,0.236917,-0.294355,-0.264942,-0.507081,-0.200763,0.0403025,0.0390583,0.0805903
0.0348327,0.230979,-0.298676,-0.311593,-0.580868,-0.257428,0.0168042,0.0027498,0.0105109
0.0243366,0.224071,-0.305119,-0.370015,-0.602935,-0.403244,-0.0264877,-0.0316143,-0.0657693
0.0145219,0.215306,-0.315027,-0.493782,-0.586973,-0.583529,-0.028331,-0.0697398,-0.127257
0.00700515,0.204143,-0.328626,-0.600951,-0.418567,-0.753125,-0.0117272,-0.0928195,-0.213019
0.00479791,0.191856,-0.344896,-0.60656,-0.128462,-0.838033,0.0326132,-0.103356,-0.289401
0.00769678,0.18051,-0.361707,-0.513646,0.0823761,-0.804488,0.0742765,-0.0897557,-0.312114
0.0123044,0.171449,-0.376529,-0.388694,0.0878318,-0.659976,0.104377,-0.0761091,-0.285
0.0147597,0.164226,-0.388543,-0.33912,-0.0543011,-0.555324,0.0951044,-0.102029,-0.240201
0.013781,0.157056,-0.399411,-0.374011,-0.213248,-0.540657,0.0759124,-0.130393,-0.221569
0.0101974,0.148977,-0.410364,-0.422121,-0.281235,-0.553516,0.0576953,-0.113384,-0.241719
0.00757972,0.14069,-0.421293,-0.37864,-0.103751,-0.532055,0.0538814,-0.0816826,-0.297262
0.0101437,0.134698,-0.431416,-0.198158,0.231456,-0.469613,0.0590859,-0.0499287,-0.311904
0.018907,0.132961,-0.439393,0.0408473,0.525905,-0.310783,0.0752094,-0.00331041,-0.235398
0.0318702,0.136238,-0.443384,0.297159,0.697666,-0.0629396,0.0633401,0.0447222,-0.116611
0.0457851,0.144374,-0.442364,0.509717,0.675394,0.187343,0.0129804,0.0731024,0.0180544
0.0565374,0.156251,-0.437572,0.639893,0.443533,0.323174,-0.066851,0.0746832,0.128528
0.0606693,0.169693,-0.431658,0.644923,0.0490882,0.314398,-0.135811,0.0743974,0.201749
0.0568992,0.181427,-0.42728,0.479231,-0.332246,0.168497,-0.200405,0.0863174,0.222413
0.0481295,0.188322,-0.426617,0.198683,-0.501554,-0.0836366,-0.256931,0.0979772,0.179806
0.0389813,0.189029,-0.431754,-0.0884681,-0.49067,-0.428138,-0.282891,0.0993894,0.0998034
0.0330016,0.185161,-0.443923,-0.235952,-0.3179,-0.772114,-0.260917,0.113762,-0.00621498
0.0323824,0.179663,-0.461564,-0.238207,-0.0495913,-0.955651,-0.188167,0.147158,-0.0821635
0.0375092,0.175215,-0.480809,-0.12518,0.212715,-0.928326,-0.109543,0.184543,-0.0888032
0.0469042,0.173651,-0.498181,0.0475374,0.427067,-0.786129,-0.0694667,0.202366,-0.042139
0.0590687,0.175239,-0.512853,0.178638,0.507124,-0.658418,-0.0685977,0.184811,0.0647852
0.0705512,0.17897,-0.525659,0.276947,0.397653,-0.589171,-0.0710757,0.127311,0.177869
0.0790184,0.184339,-0.537712,0.335337,0.236865,-0.56022,-0.0712206,0.0947803,0.257319
0.0845608,0.189613,-0.549484,0.271241,0.111974,-0.557965,-0.0838618,0.0675382,0.32009
0.0880911,0.192513,-0.56124,0.110937,0.0159374,-0.569282,-0.0766779,0.0231899,0.353346
0.0897361,0.191623,-0.573331,-0.0864827,-0.0714311,-0.634955,-0.084115,-0.0287554,0.338937
0.0903223,0.187148,-0.586818,-0.231097,-0.115948,-0.730863,-0.0926834,-0.0727618,0.277072
0.0904778,0.180291,-0.601807,-0.310093,-0.13815,-0.799014,-0.0816878,-0.104849,0.200822
0.0905145,0.172575,-0.617654,-0.299704,-0.12863,-0.821645,-0.0487803,-0.133517,0.112598
0.0917721,0.165935,-0.633293,-0.20286,0.0145472,-0.771146,-0.0186378,-0.136324,0.0225041
0.0971711,0.16273,-0.647326,0.0223042,0.298566,-0.626823,0.0250674,-0.138494,-0.055281
0.106821,0.164028,-0.658407,0.197034,0.4578,-0.445539,0.0548473,-0.145453,-0.0207854
0.11723,0.167649,-0.666092,0.218208,0.43296,-0.276864,0.0715068,-0.170888,0.0452525
0.125289,0.170067,-0.670887,0.0537592,0.271629,-0.175902,0.0558725,-0.196139,0.0598642
0.128759,0.16855,-0.674165,-0.152196,0.0167771,-0.184168,0.012729,-0.229754,-0.0154956
0.128759,0.16855,-0.674165,-0.152196,0.0167771,-0.184168,0.012729,-0.229754,-0.0154956
0.126439,0.163379,-0.678517,-0.296795,-0.338834,-0.333473,-0.0262173,-0.265951,-0.143858
0.117157,0.155363,-0.686469,-0.400503,-0.708688,-0.542539,-0.0174896,-0.266984,-0.284763
0.103033,0.145752,-0.697736,-0.426022,-0.805422,-0.65094,0.0418097,-0.221081,-0.447399
0.0907919,0.136354,-0.70992,-0.393158,-0.547461,-0.620837,0.0788603,-0.128823,-0.55804
0.0855876,0.128605,-0.72042,-0.278949,-0.110075,-0.482401,0.0985724,-0.0775141,-0.599764
0.0881808,0.124446,-0.728164,-0.046947,0.260433,-0.314065,0.100404,-0.0428974,-0.568611
0.0967801,0.126655,-0.732986,0.324032,0.534716,-0.148334,0.0919959,-0.0280264,-0.481982
0.109977,0.136569,-0.735833,0.675334,0.739401,-0.0359374,0.063218,-0.0112706,-0.313041
0.126451,0.152134,-0.737337,0.867304,0.879767,0.0781567,0.0460885,0.0202006,-0.102984
0.144696,0.170428,-0.736983,0.934089,0.946646,0.205431,0.0314508,0.05054,0.0892271
0.163115,0.189654,-0.73449,0.921439,0.927133,0.328403,0.0159185,0.0716829,0.235712
0.179485,0.208074,-0.729998,0.813096,0.77657,0.427755,0.0124006,0.0831168,0.347692
0.19024,0.224335,-0.723045,0.669808,0.425779,0.542683,0.0343171,0.081497,0.404695
0.191829,0.238112,-0.713639,0.503004,-0.0522518,0.612527,0.0319031,0.08972,0.408153
0.183058,0.248091,-0.70171,0.248048,-0.538442,0.723852,0.050678,0.111872,0.382752
0.164527,0.252499,-0.686409,-0.0692792,-0.92582,0.79695,0.0195694,0.148766,0.298157
0.13872,0.250546,-0.670303,-0.35196,-1.23256,0.700177,-0.0321668,0.133035,0.152235
0.109446,0.24328,-0.656786,-0.508627,-1.33185,0.51221,-0.0125972,0.101728,-0.028586
0.0826958,0.234371,-0.646875,-0.444268,-1.04238,0.381094,0.050745,0.11071,-0.216927
0.0659652,0.227846,-0.638398,-0.265614,-0.411635,0.432486,0.125987,0.16811,-0.302698
0.0617451,0.22501,-0.626707,-0.0879552,0.217708,0.712771,0.176361,0.222811,-0.246228
0.0655255,0.226305,-0.608933,0.112319,0.487072,1.01358,0.17731,0.213087,-0.110094
0.0700531,0.231836,-0.586667,0.279462,0.438471,1.17362,0.127128,0.165648,0.0491672
0.0716204,0.239663,-0.562439,0.312682,0.286262,1.22507,0.073995,0.127191,0.18867
0.069976,0.247028,-0.538191,0.243219,0.142125,1.16601,0.0308517,0.0981759,0.279053
0.0661653,0.252188,-0.515797,0.114045,0.0333079,1.03472,0.00839259,0.0671503,0.32654
0.0611739,0.254129,-0.4962,-0.043506,-0.0346408,0.881072,0.00465529,0.0503832,0.341194
0.0554509,0.252684,-0.47933,-0.190186,-0.122222,0.752245,0.0241878,0.0354803,0.333013
0.0485623,0.249142,-0.464662,-0.225562,-0.190743,0.65899,0.0505203,0.0242212,0.276927
0.0411997,0.24549,-0.451556,-0.195352,-0.213053,0.605956,0.0722447,0.0292869,0.211306
0.0348886,0.241865,-0.439458,-0.234319,-0.12257,0.553061,0.0752341,0.016735,0.173122
0.0307397,0.23607,-0.428949,-0.387391,-0.0545629,0.433693,0.0572148,-0.0209076,0.140079
0.0279123,0.226878,-0.422062,-0.557369,-0.0930988,0.201473,0.0131966,-0.0722587,0.0550638
0.0235133,0.213995,-0.420383,-0.737464,-0.331777,-0.0701474,0.00513186,-0.109061,-0.0468529
0.0152407,0.198039,-0.423834,-0.829429,-0.543959,-0.277404,0.0411034,-0.115875,-0.193182
0.00615572,0.182529,-0.430162,-0.683199,-0.410689,-0.338266,0.0964399,-0.0989703,-0.389876
0.00369322,0.171433,-0.43633,-0.43886,0.0842813,-0.251894,0.104683,-0.056014,-0.483049
0.0106044,0.163731,-0.439683,-0.359358,0.503154,-0.0845867,0.0905203,-0.0394841,-0.419054
0.021413,0.156443,-0.440506,-0.373905,0.503391,-0.0377146,0.0641925,-0.104098,-0.310534
0.0292204,0.148898,-0.441792,-0.374166,0.249479,-0.118926,0.0240398,-0.149152,-0.268811
0.0325299,0.141479,-0.444653,-0.358871,0.0651899,-0.17572,0.014981,-0.119384,-0.268068
0.0341888,0.134483,-0.447761,-0.332335,0.0960349,-0.144572,0.0237894,-0.0686654,-0.282893
0.0379701,0.128467,-0.449475,-0.254633,0.279275,-0.0380007,0.0402785,-0.0365594,-0.27191
0.0456268,0.124871,-0.448407,-0.0983357,0.49522,0.145423,0.0547045,-0.00451232,-0.229842
0.0559452,0.125308,-0.44296,0.130289,0.580442,0.416314,0.0555453,0.0291547,-0.151407
0.0653089,0.131345,-0.431911,0.405839,0.462768,0.716287,0.0120666,0.0698104,-0.0572966
0.0696763,0.142934,-0.415779,0.636989,0.179406,0.943844,-0.0612195,0.0884016,0.039845
0.067069,0.158506,-0.396749,0.779889,-0.157449,1.02449,-0.140031,0.0907654,0.111068
0.0573956,0.17605,-0.377361,0.841784,-0.47819,0.98312,-0.198628,0.101076,0.14732
0.0422962,0.193522,-0.35974,0.806794,-0.680501,0.816814,-0.254202,0.112742,0.150362
0.0258113,0.208827,-0.346675,0.663988,-0.681976,0.499272,-0.312403,0.114386,0.137342
0.0123985,0.220107,-0.340939,0.44348,-0.514955,0.0761521,-0.325652,0.106716,0.129776
0.00557803,0.226255,-0.344245,0.170023,-0.228959,-0.389944,-0.289677,0.100794,0.123195
0.00699047,0.226891,-0.356228,-0.0857488,0.0853759,-0.749614,-0.215582,0.117543,0.110608
0.00699047,0.226891,-0.356228,-0.0857488,0.0853759,-0.749614,-0.215582,0.117543,0.110608
0.0139936,0.223569,-0.373225,-0.196807,0.195527,-0.880396,-0.118366,0.15535,0.0978197
0.0213348,0.220235,-0.390528,-0.0839133,0.151939,-0.795934,-0.0239001,0.174804,0.0600662
0.026691,0.220158,-0.404874,0.11442,0.0759544,-0.606497,0.0251953,0.171311,0.0601559
0.0305492,0.224127,-0.416016,0.29797,0.071884,-0.494764,0.0159196,0.135082,0.0892339
0.0345494,0.230107,-0.42646,0.300483,0.106728,-0.522377,-0.0035722,0.0885856,0.172829
0.0405469,0.234486,-0.437846,0.173016,0.252683,-0.569902,0.00221473,0.0490086,0.220858
0.0500332,0.235863,-0.45013,0.0174987,0.399904,-0.624381,-0.00497225,0.0249118,0.253445
0.0617163,0.234063,-0.46333,-0.123507,0.441961,-0.671341,0.00589214,-0.0150927,0.268533
0.072898,0.229293,-0.477289,-0.252601,0.341606,-0.717035,0.021831,-0.051306,0.27277
0.0816097,0.222277,-0.491849,-0.334194,0.195933,-0.756146,0.0341644,-0.08741,0.233107
0.0866984,0.213969,-0.506357,-0.360425,0.000961346,-0.706771,0.080729,-0.0980543,0.17929
0.0885342,0.206674,-0.518321,-0.243303,-0.0398806,-0.505501,0.119594,-0.0876253,0.0715653
0.0896578,0.202963,-0.525721,-0.0636912,0.0120404,-0.250322,0.130959,-0.0895806,-0.00279301
0.0911214,0.202845,-0.528422,0.0632027,0.0740657,-0.0231165,0.130704,-0.122502,-0.0234371
0.0920228,0.204693,-0.527564,0.107241,0.00292064,0.107731,0.108298,-0.165066,-0.0221201
0.0896122,0.207166,-0.524914,0.11294,-0.192387,0.167961,0.0842047,-0.194856,-0.061579
0.083149,0.209365,-0.521508,0.0707975,-0.378546,0.170036,0.0361921,-0.190324,-0.132241
0.0745553,0.210276,-0.518999,0.00346586,-0.399514,0.0641637,-0.011139,-0.213389,-0.230173
0.0684877,0.210078,-0.519754,-0.00745515,-0.190251,-0.142646,-0.0307816,-0.227285,-0.346239
0.06892,0.209795,-0.524473,0.00975932,0.138446,-0.303548,0.00185835,-0.198646,-0.391115
0.0759983,0.209712,-0.5311,0.0271812,0.405553,-0.319762,0.0699338,-0.147519,-0.368391
0.0860688,0.209952,-0.536543,0.0426837,0.45956,-0.197079,0.119844,-0.104972,-0.317373
0.0950922,0.211071,-0.539002,0.0930225,0.381442,-0.0344647,0.144982,-0.0854299,-0.276244
0.101669,0.213787,-0.538579,0.180301,0.298439,0.0965689,0.141662,-0.0792348,-0.252497
0.106718,0.21851,-0.536157,0.257024,0.276316,0.191998,0.131033,-0.0603857,-0.212331
0.111952,0.224541,-0.531729,0.297372,0.362226,0.310955,0.134647,-0.0280885,-0.16054
0.119376,0.232067,-0.524836,0.383364,0.549697,0.451622,0.129018,0.0132075,-0.115291
0.130187,0.242165,-0.515187,0.500536,0.752758,0.61239,0.109351,0.0593245,-0.0278882
0.142825,0.254591,-0.502474,0.543491,0.794063,0.782989,0.0934187,0.0939668,0.102444
0.15298,0.267178,-0.486298,0.450193,0.621232,0.951119,0.0893358,0.115558,0.223245
0.156868,0.277589,-0.466371,0.28509,0.278088,1.11708,0.0840079,0.125539,0.278448
0.151615,0.284971,-0.442861,0.10333,-0.141076,1.22761,0.070053,0.13344,0.274268
0.137944,0.289274,-0.41669,-0.0295475,-0.464406,1.32376,0.0599481,0.148598,0.196982
0.119124,0.291465,-0.388668,-0.0877691,-0.58863,1.358,0.0194246,0.170763,0.0784163
0.0997274,0.292119,-0.360637,-0.14108,-0.524954,1.3181,0.00576041,0.1599,-0.0105165
0.0829272,0.291342,-0.33364,-0.160553,-0.374525,1.26013,0.0232128,0.146704,-0.0624306
0.0697861,0.290767,-0.307516,-0.0712077,-0.180609,1.24669,0.0601658,0.146214,-0.0896567
0.0608975,0.292478,-0.281264,0.0774908,0.0399671,1.2914,0.0755443,0.165813,-0.0638044
0.0551983,0.296645,-0.253695,0.172116,0.165988,1.37486,0.0706525,0.17827,0.0293288
0.0502436,0.302019,-0.224772,0.214895,0.1738,1.41115,0.0468078,0.159249,0.127178
0.0445897,0.307802,-0.1958,0.226417,0.128636,1.37555,0.0142675,0.138017,0.192838
0.0383325,0.31304,-0.168398,0.180404,0.0877,1.24598,-0.0223157,0.108444,0.239094
0.0323532,0.316329,-0.144453,0.0570734,0.0495137,1.04114,-0.0447654,0.077941,0.274227
0.0267515,0.316416,-0.124927,-0.101784,-0.0114216,0.823067,-0.037307,0.0534112,0.276814
0.0208546,0.313558,-0.109505,-0.207282,-0.103097,0.652342,-0.0139769,0.0435986,0.236039
0.0146455,0.309535,-0.0965424,-0.199285,-0.097999,0.596164,0.025846,0.041402,0.148403
0.00982277,0.306595,-0.0841982,-0.0961543,-0.0054771,0.579398,0.0350538,0.0330461,0.0728428
0.00715741,0.305788,-0.0723003,-0.0187873,0.0796634,0.550835,0.0397293,0.000981033,0.0621976
0.00490526,0.304795,-0.0617909,-0.110316,-0.00615569,0.441639,0.014196,-0.0391357,0.0935607
0.00124039,0.300904,-0.0543799,-0.285107,-0.145188,0.255534,-0.0203802,-0.0722078,0.0703027
-0.00457773,0.293503,-0.0513183,-0.457192,-0.349489,0.0480464,-0.0443088,-0.0841826,-0.00690013
-0.0130237,0.282915,-0.0521031,-0.59571,-0.501349,-0.10238,-0.0365972,-0.0897554,-0.116755
-0.0213756,0.270969,-0.0555455,-0.571919,-0.380358,-0.196698,-0.0219474,-0.0958604,-0.271419
-0.0246925,0.261548,-0.0602445,-0.383041,-0.0576119,-0.216039,-0.0163261,-0.0810085,-0.369051
-0.0246925,0.261548,-0.0602445,-0.383041,-0.0576119,-0.216039,-0.0163261,-0.0810085,-0.369051
-0.0214755,0.255246,-0.0643836,-0.278782,0.261411,-0.162226,-0.0229994,-0.0468487,-0.339827
-0.0141552,0.249943,-0.0672953,-0.266621,0.342978,-0.126341,-0.0255002,-0.0723843,-0.244259
-0.0082875,0.244505,-0.0704845,-0.2831,0.145443,-0.185512,-0.0371709,-0.10291,-0.169714
-0.00610236,0.238879,-0.0749946,-0.276566,-0.0135662,-0.241925,-0.033576,-0.0992014,-0.1664
-0.00572439,0.233482,-0.0801379,-0.270788,-0.049933,-0.245187,-0.0263371,-0.0565515,-0.174564
-0.00523183,0.228028,-0.0848919,-0.274106,-0.00953257,-0.216474,-0.00576787,-0.0403465,-0.176488
-0.00433296,0.222954,-0.088979,-0.222714,0.0131831,-0.182602,0.00692651,-0.0272558,-0.177104
-0.00271588,0.219719,-0.0921003,-0.0891825,0.0952956,-0.122429,0.00278793,-0.00344943,-0.177289
0.000867178,0.219918,-0.0938915,0.107603,0.230573,-0.0541655,-0.015983,0.0310616,-0.143836
0.00663238,0.223926,-0.0942538,0.278516,0.324988,0.0222053,-0.033368,0.0628944,-0.0644779
0.0125803,0.230376,-0.0931956,0.35569,0.26746,0.0877139,-0.0451456,0.0857958,0.037972
0.0155352,0.237659,-0.0911921,0.365793,0.0632716,0.10568,-0.0738748,0.103837,0.104358
0.0140741,0.244711,-0.089361,0.335108,-0.149155,0.0708475,-0.0989204,0.119412,0.118595
0.00971653,0.250751,-0.0889798,0.262032,-0.25771,-0.0388571,-0.130491,0.135293,0.102088
0.00535062,0.254796,-0.0917354,0.139149,-0.233856,-0.233851,-0.154302,0.140109,0.0811349
0.00317631,0.256392,-0.098765,0.0290472,-0.156758,-0.44509,-0.142324,0.140998,0.0553953
0.00372817,0.256534,-0.10948,-0.00102147,-0.0594522,-0.580759,-0.100622,0.157355,0.0325305
0.00678326,0.256847,-0.121819,0.0539957,0.0549995,-0.601786,-0.0493005,0.171406,0.026286
0.0117559,0.258749,-0.133713,0.147752,0.132129,-0.552499,-0.0233577,0.172344,0.0621947
0.0173391,0.261857,-0.145,0.171841,0.130793,-0.548181,-0.0318992,0.140314,0.136115
0.0229097,0.264967,-0.156783,0.163661,0.124041,-0.596796,-0.0352613,0.0878511,0.186894
0.029219,0.26753,-0.169993,0.120163,0.165289,-0.67634,-0.0445635,0.0612399,0.219707
0.0372359,0.268701,-0.184789,0.0444649,0.243747,-0.752953,-0.0464963,0.0346295,0.248803
0.047008,0.267776,-0.201203,-0.078071,0.273445,-0.83054,-0.0422642,0.0103305,0.277414
0.0562506,0.264113,-0.218655,-0.19961,0.179491,-0.869475,-0.0180624,-0.0163216,0.290855
0.0629044,0.257988,-0.236443,-0.296706,0.0182053,-0.885223,0.0041742,-0.0464844,0.256024
0.0665195,0.250786,-0.253602,-0.302466,-0.0685232,-0.807409,0.0458536,-0.0625337,0.174415
0.0692699,0.244535,-0.268454,-0.216739,-0.00102857,-0.67598,0.0491471,-0.0620487,0.0760776
0.0734604,0.240644,-0.280777,-0.0849598,0.123411,-0.550569,0.0601445,-0.0863483,0.0186448
0.0792065,0.239375,-0.290651,0.0251698,0.205039,-0.414332,0.0759797,-0.108973,-0.000156939
0.084891,0.239868,-0.29757,0.0688353,0.188275,-0.247543,0.0956933,-0.117452,0.001517
0.0884037,0.240838,-0.301109,0.0458618,0.067678,-0.0956258,0.0849444,-0.130136,-0.0157624
0.0883246,0.240901,-0.302034,-0.029398,-0.0994454,-0.00112676,0.0480654,-0.147836,-0.0681539
0.0843774,0.239873,-0.302158,-0.0659087,-0.285837,-0.0517895,-0.0209818,-0.182938,-0.160994
0.0785996,0.238224,-0.305197,-0.079829,-0.338175,-0.270618,-0.0719677,-0.217087,-0.259711
0.0748305,0.235557,-0.312821,-0.142594,-0.192249,-0.478266,-0.0518984,-0.211851,-0.327227
0.0755069,0.231141,-0.323405,-0.218844,0.00364074,-0.561452,0.0150262,-0.181495,-0.362803
0.0788139,0.225969,-0.333954,-0.197931,0.059687,-0.488511,0.0770779,-0.148523,-0.40183
0.0818397,0.223021,-0.342342,-0.0137632,0.0501404,-0.351213,0.0887637,-0.118865,-0.454788
0.0839248,0.224747,-0.348216,0.232871,0.0299879,-0.20675,0.0773243,-0.0877479,-0.452363
0.0857247,0.231086,-0.351844,0.416831,0.0846949,-0.10538,0.0586392,-0.0605315,-0.386464
0.089538,0.240754,-0.354206,0.564051,0.257441,-0.0455685,0.0462478,-0.0356436,-0.289339
0.0968965,0.253001,-0.355727,0.660503,0.438887,0.0159754,0.0444575,0.0107479,-0.149123
0.107467,0.26671,-0.355886,0.70398,0.609705,0.114474,0.0511186,0.0595032,0.0037865
0.120317,0.281241,-0.353996,0.717137,0.721078,0.223072,0.0435177,0.10256,0.143739
0.133819,0.295566,-0.350201,0.641972,0.723842,0.323929,0.0388695,0.132865,0.274989
0.144812,0.307365,-0.343772,0.43253,0.536203,0.458297,0.0568994,0.14111,0.370999
0.148996,0.315465,-0.333674,0.240416,0.178673,0.620818,0.0828948,0.138536,0.384623
0.143987,0.320834,-0.319479,0.0961334,-0.227113,0.793388,0.0872515,0.154119,0.333043
0.130546,0.323664,-0.301254,-0.0584436,-0.529947,0.956837,0.0899475,0.158802,0.259589
0.110765,0.32363,-0.279851,-0.1766,-0.757163,1.04655,0.07887,0.140673,0.161317
0.0874569,0.321687,-0.257716,-0.218613,-0.855515,1.01736,0.0570581,0.11733,0.0377899
0.0642519,0.318399,-0.236985,-0.265484,-0.779837,0.919349,0.0507596,0.0996066,-0.060065
0.0451171,0.313587,-0.218623,-0.29536,-0.549122,0.800512,0.0719354,0.078584,-0.144477
0.0451171,0.313587,-0.218623,-0.29536,-0.549122,0.800512,0.0719354,0.078584,-0.144477
0.0327043,0.309133,-0.202485,-0.190761,-0.192073,0.732924,0.0986733,0.0663182,-0.215285
0.0279137,0.307305,-0.186996,-0.0395124,0.172933,0.754881,0.116021,0.0833444,-0.184731
0.0288232,0.308013,-0.170485,0.0607463,0.390903,0.823509,0.107989,0.0884438,-0.0815765
0.031715,0.310667,-0.153148,0.158346,0.396981,0.8276,0.086889,0.0578305,0.022467
0.03322,0.315442,-0.13642,0.263336,0.2599,0.776748,0.0609237,0.0325115,0.106125
0.0318037,0.321701,-0.121175,0.304212,0.081641,0.68847,0.0408932,0.0177645,0.175423
0.0280893,0.327671,-0.108188,0.240306,-0.0274841,0.554142,0.0272112,-0.00157106,0.220316
0.0242357,0.331347,-0.0985079,0.099645,-0.0348481,0.37252,0.0114476,-0.0191499,0.235321
0.0220196,0.33234,-0.0926019,0.00345686,0.0179587,0.193231,0.0120391,-0.0336834,0.203033
0.0228995,0.332373,-0.0901044,0.00630637,0.142599,0.0558969,0.0296252,-0.0356664,0.141083
0.0263741,0.333103,-0.0894913,0.0665685,0.231697,0.0305117,0.0798606,-0.0383492,0.105623
0.0308684,0.335251,-0.0880717,0.144908,0.244474,0.11859,0.116988,-0.0294535,0.0959623
0.0339297,0.338751,-0.084505,0.187298,0.163603,0.224008,0.129855,-0.0440179,0.0889136
0.0347067,0.342854,-0.0791998,0.197553,0.109229,0.284662,0.115178,-0.0670679,0.0544674
0.0347717,0.3463,-0.0733432,0.103887,0.079205,0.272071,0.0710131,-0.0678064,0.0347623
0.0330781,0.346568,-0.0682786,-0.104845,-0.104699,0.196363,0.039161,-0.0886576,0.0088619
0.0277762,0.342679,-0.0653142,-0.280684,-0.31012,0.0706757,0.0273547,-0.108568,-0.0817447
0.0205485,0.336323,-0.0646748,-0.336167,-0.354973,-0.0138753,0.0249919,-0.0806264,-0.218365
0.0151683,0.330254,-0.065418,-0.257717,-0.188754,-0.0582385,0.0181074,-0.032345,-0.328517
0.0149777,0.326066,-0.0662108,-0.172753,0.152406,-0.0141929,0.0253781,-0.00628,-0.344377
0.0211827,0.323198,-0.0655917,-0.121786,0.465688,0.0684204,0.0177115,0.0288276,-0.289338
0.030424,0.320805,-0.0635162,-0.13885,0.46397,0.115619,0.0115379,0.0419848,-0.169011
0.0360387,0.317366,-0.0607497,-0.212113,0.17296,0.129854,-0.00383606,0.0418012,-0.0880316
0.0360712,0.312533,-0.0579736,-0.274408,-0.0605505,0.122833,-0.0140527,0.0564328,-0.0829358
0.0335629,0.307353,-0.055073,-0.233393,-0.0620304,0.143012,-0.00380103,0.0769051,-0.128393
0.032848,0.304121,-0.0514973,-0.0913822,0.102118,0.189485,-0.0136958,0.111101,-0.142763
0.0358021,0.303919,-0.0466175,0.0468839,0.324481,0.280877,-0.0345355,0.135611,-0.0935748
0.0413473,0.306227,-0.0401291,0.164178,0.409699,0.343781,-0.060729,0.138423,-0.0133406
0.0470478,0.310966,-0.0329828,0.271229,0.360977,0.354483,-0.0875452,0.134714,0.0592004
0.0507903,0.317045,-0.0262109,0.282091,0.21625,0.307969,-0.131063,0.140847,0.127692
0.0514109,0.321947,-0.0211242,0.164367,0.00472703,0.191882,-0.16914,0.139107,0.172496
0.0488848,0.32335,-0.0190606,-0.0403304,-0.182931,0.00392739,-0.204094,0.124477,0.172309
0.0444219,0.320436,-0.0211816,-0.229443,-0.32117,-0.221592,-0.218767,0.110955,0.126247
0.0399306,0.314647,-0.0281476,-0.312011,-0.31798,-0.463835,-0.210766,0.104006,0.0476056
0.038329,0.307461,-0.0397827,-0.369493,-0.184089,-0.657525,-0.181237,0.113751,0.00266749
0.0407757,0.299057,-0.0540541,-0.408425,-0.00480546,-0.725984,-0.118942,0.111773,-0.0105727
0.0458114,0.290983,-0.0686076,-0.319833,0.0732878,-0.688701,-0.057649,0.102675,-0.0143563
0.0509258,0.28564,-0.0814924,-0.152877,0.0584622,-0.570538,-0.0263193,0.0984216,0.0104075
0.0545558,0.283266,-0.0918977,-0.0441306,0.0112041,-0.450783,-0.0281247,0.0738047,0.0679569
0.0571103,0.28221,-0.10075,-0.0218745,-0.00457109,-0.429318,-0.0577053,0.0258393,0.127135
0.0597856,0.280781,-0.110199,-0.0704648,0.0120364,-0.494835,-0.0829686,-0.0127649,0.168214
0.0633818,0.278023,-0.121196,-0.138864,0.0363287,-0.581107,-0.0844515,-0.0455829,0.183531
0.067401,0.27372,-0.133826,-0.208928,0.0133994,-0.657787,-0.0734639,-0.0639598,0.188217
0.0706987,0.267992,-0.147307,-0.268845,-0.0517999,-0.669253,-0.0464813,-0.0727444,0.189236
0.0721841,0.261434,-0.160401,-0.282155,-0.145929,-0.638617,-0.0243369,-0.083285,0.159092
0.0718574,0.255597,-0.172782,-0.20166,-0.18999,-0.599884,-0.0129904,-0.0923007,0.103733
0.0715558,0.251841,-0.184389,-0.0960956,-0.122194,-0.550887,-0.00222288,-0.0963936,0.0628703
0.0730765,0.250018,-0.195263,-0.0155659,0.0103565,-0.521229,0.00567461,-0.109863,0.046095
0.0767199,0.249111,-0.205831,-0.0183351,0.083576,-0.508377,0.0308543,-0.124368,0.0735506
0.0811558,0.24717,-0.215805,-0.10262,0.107343,-0.465404,0.0717113,-0.141111,0.0848714
0.0850244,0.243697,-0.224245,-0.16133,0.0582649,-0.376758,0.112961,-0.151774,0.0426
0.0860528,0.239998,-0.230254,-0.147163,-0.128739,-0.233032,0.15611,-0.15651,-0.036284
0.0817996,0.237375,-0.233116,-0.0825824,-0.339057,-0.0737988,0.170568,-0.169725,-0.122859
0.0817996,0.237375,-0.233116,-0.0825824,-0.339057,-0.0737988,0.170568,-0.169725,-0.122859
0.0755736,0.236506,-0.233879,-0.0101579,-0.263196,-0.0270174,0.144511,-0.185859,-0.207004
0.0731789,0.23635,-0.234629,-0.0128592,0.0258677,-0.0535189,0.130411,-0.203329,-0.253242
0.076922,0.235729,-0.236006,-0.0437728,0.297264,-0.078193,0.147386,-0.208663,-0.260176
0.0848557,0.234614,-0.237453,-0.0587229,0.438232,-0.0580219,0.163479,-0.196945,-0.243725
0.093751,0.233343,-0.237754,-0.0521216,0.432955,0.0305392,0.189746,-0.183868,-0.22635
0.101362,0.233058,-0.235743,0.00831985,0.368086,0.162823,0.200574,-0.16521,-0.230149
0.106807,0.234094,-0.230991,0.038385,0.283023,0.31275,0.202273,-0.139193,-0.220379
0.110147,0.235794,-0.22322,0.0589538,0.256166,0.453714,0.187124,-0.107983,-0.223855
0.113893,0.239234,-0.212889,0.190872,0.396912,0.589091,0.161684,-0.06335,-0.236633
0.121059,0.246701,-0.199825,0.406392,0.635893,0.769619,0.139027,0.00961803,-0.189061
0.131828,0.258893,-0.183273,0.591679,0.836518,0.984724,0.133737,0.0675954,-0.054821
0.143585,0.274674,-0.162799,0.688448,0.855178,1.18975,0.113706,0.107918,0.0939968
0.152337,0.291817,-0.138601,0.647066,0.682124,1.36666,0.0805126,0.139866,0.220359
0.15471,0.307575,-0.110704,0.500116,0.355051,1.50718,0.0734752,0.141204,0.291465
0.148025,0.320428,-0.079877,0.322892,-0.0739441,1.57959,0.0619106,0.137925,0.296983
0.132552,0.329037,-0.0476834,0.0908367,-0.428677,1.55605,0.0183435,0.148113,0.255924
0.111167,0.331629,-0.0164169,-0.197559,-0.686269,1.4015,-0.0322917,0.138007,0.173091
0.0868867,0.327675,0.0112107,-0.443227,-0.831167,1.16041,-0.0258706,0.112003,0.0482785
0.063158,0.31918,0.0338736,-0.527238,-0.778039,0.934357,0.0270317,0.104682,-0.0990005
0.0456465,0.311102,0.0524674,-0.349517,-0.346988,0.817843,0.0737778,0.140428,-0.253554
0.0390439,0.307446,0.0700753,-0.0985071,0.214468,0.882572,0.128598,0.19885,-0.256677
0.0412602,0.307895,0.0906958,0.0487481,0.57583,1.0913,0.165495,0.232649,-0.12169
0.0464175,0.31079,0.114769,0.134425,0.650926,1.19285,0.138317,0.199213,0.0326251
0.0517893,0.314816,0.139206,0.137437,0.63712,1.14454,0.0820341,0.16514,0.151178
0.057001,0.318154,0.162149,0.0683932,0.601599,1.05638,0.0490384,0.150934,0.234633
0.0617942,0.31953,0.182969,-0.0509521,0.524082,0.926876,0.0321455,0.13251,0.286988
0.0655005,0.318434,0.201006,-0.173267,0.420364,0.784853,0.0375073,0.108353,0.297696
0.0681195,0.315094,0.216816,-0.252005,0.320137,0.707671,0.0542113,0.104767,0.277572
0.0683289,0.310444,0.231567,-0.309953,0.157871,0.667834,0.0870876,0.0971684,0.253214
0.0668843,0.304833,0.245666,-0.33401,0.155522,0.633736,0.117124,0.0548335,0.181699
0.0672665,0.298771,0.258633,-0.35996,0.283666,0.567123,0.1261,0.0480994,0.11551
0.0709122,0.292091,0.270459,-0.388586,0.413651,0.514868,0.138798,0.0344453,0.0762699
0.0766521,0.284736,0.280967,-0.427517,0.447692,0.438614,0.145333,0.0103964,0.0445794
0.0819251,0.276376,0.290145,-0.470423,0.295713,0.3913,0.164711,-0.00123742,-0.00548589
0.082879,0.267235,0.299859,-0.536177,0.062193,0.50122,0.186237,0.00832838,-0.077014
0.0788159,0.256663,0.313508,-0.618572,-0.0876852,0.732549,0.145814,0.00760797,-0.177804
0.0722754,0.24581,0.330905,-0.57491,-0.133929,0.843205,0.024639,-0.0469563,-0.299743
0.0652314,0.236985,0.348617,-0.411825,-0.131638,0.795188,-0.0837185,-0.113311,-0.378665
0.0598551,0.231338,0.363585,-0.264878,-0.0456408,0.603211,-0.16699,-0.166411,-0.398103
0.0583053,0.226597,0.373517,-0.300938,0.108812,0.338188,-0.240819,-0.178551,-0.354246
0.0601334,0.219262,0.378403,-0.463608,0.151364,0.102319,-0.263798,-0.180669,-0.300532
0.0623613,0.209006,0.37865,-0.540653,0.0791365,-0.139061,-0.279547,-0.161485,-0.314725
0.0650078,0.1986,0.374314,-0.452436,0.116783,-0.337478,-0.281611,-0.105636,-0.365401
0.0701644,0.191135,0.367212,-0.228001,0.281939,-0.381796,-0.239408,-0.0281053,-0.375073
0.0792526,0.189589,0.360903,0.143711,0.508617,-0.221959,-0.191307,0.0594112,-0.33492
0.0907656,0.196835,0.358689,0.599039,0.555897,0.0730815,-0.196862,0.133036,-0.214249
0.0995622,0.212979,0.361288,0.95934,0.342483,0.312856,-0.254668,0.174965,-0.0423121
0.101616,0.234551,0.366228,1.11228,-0.043628,0.349945,-0.319077,0.166198,0.111065
0.0957288,0.257295,0.369498,1.10188,-0.461156,0.155575,-0.384886,0.141077,0.200508
0.0840605,0.277569,0.366718,0.916745,-0.752731,-0.274484,-0.431105,0.118287,0.254578
0.0713364,0.291621,0.354327,0.554346,-0.848286,-0.805635,-0.40187,0.106871,0.281042
0.0612021,0.296947,0.331875,0.125786,-0.783204,-1.2951,-0.319901,0.115554,0.260261
0.0566238,0.294357,0.301154,-0.18302,-0.568811,-1.63341,-0.238089,0.166345,0.179347
0.0571907,0.287432,0.266137,-0.287169,-0.403944,-1.73143,-0.135183,0.214765,0.114176
0.0571907,0.287432,0.266137,-0.287169,-0.403944,-1.73143,-0.135183,0.214765,0.114176
0.0598183,0.280408,0.230951,-0.195746,-0.328211,-1.67445,-0.0436385,0.234008,0.0661879
0.0627139,0.276187,0.19793,-0.0253747,-0.292304,-1.50616,0.0381979,0.230346,0.0573026
0.0646577,0.275785,0.169425,0.155279,-0.30401,-1.25174,0.0762567,0.221323,0.0884818
0.0646871,0.278296,0.145237,0.224119,-0.345405,-1.08044,0.0531253,0.181151,0.149089
0.064014,0.281193,0.123058,0.192884,-0.311208,-1.0605,0.0109909,0.108618,0.190004
0.0654678,0.282708,0.0998214,0.0961973,-0.185049,-1.18082,-0.0296972,0.0593073,0.207087
0.0702889,0.281472,0.0738476,-0.0530771,-0.0614847,-1.3227,-0.0396963,0.031325,0.214227
0.0778411,0.277108,0.0454897,-0.173118,0.0222072,-1.42959,-0.021909,0.00393713,0.201385
0.0866802,0.27085,0.015753,-0.201733,0.0393993,-1.4716,0.0146373,-0.0128753,0.156658
0.0957242,0.265208,-0.0136122,-0.0859072,0.113054,-1.38449,0.0668364,-0.01676,0.0809814
0.106286,0.262668,-0.0399776,0.0895058,0.250025,-1.16699,0.0932165,-0.00283873,0.0378116
0.117322,0.263411,-0.0616876,0.196655,0.266054,-0.918168,0.0960451,-0.0153811,0.0502703
0.125758,0.265227,-0.0788852,0.174986,0.121666,-0.723331,0.0649941,-0.0590383,0.0636742
0.129919,0.26645,-0.0932954,0.121049,-0.0975261,-0.661927,0.00253597,-0.100217,0.01104
0.129294,0.266182,-0.107351,0.0252282,-0.322919,-0.707225,-0.0629615,-0.135219,-0.0770079
0.126153,0.263778,-0.12307,-0.0655039,-0.366729,-0.846558,-0.0977088,-0.174909,-0.191186
0.124763,0.259556,-0.141911,-0.125183,-0.233096,-1.01939,-0.101487,-0.18535,-0.294533
0.128107,0.253643,-0.163685,-0.204162,0.0145954,-1.13948,-0.0813416,-0.169798,-0.337382
0.13545,0.245764,-0.186714,-0.275434,0.107972,-1.16837,-0.0302099,-0.164707,-0.336342
0.141612,0.237448,-0.209043,-0.231287,-0.0493823,-1.08572,0.0339181,-0.15853,-0.342414
0.143479,0.231471,-0.229102,-0.0709543,-0.210825,-0.932838,0.0670945,-0.125464,-0.377995
0.143298,0.229496,-0.246337,0.118139,-0.165598,-0.766064,0.0730024,-0.0950689,-0.394827
0.145521,0.231732,-0.261051,0.312315,0.0773853,-0.628239,0.0739861,-0.0673184,-0.358489
0.152728,0.238217,-0.273326,0.503288,0.352605,-0.451114,0.0919377,-0.0334085,-0.259919
0.163724,0.248775,-0.281949,0.667022,0.525252,-0.206655,0.0953045,0.00897351,-0.118637
0.17532,0.262782,-0.285967,0.774128,0.504704,0.0573835,0.0868593,0.0392171,0.0324875
0.183347,0.279095,-0.285357,0.80751,0.300135,0.282102,0.068798,0.0451087,0.148776
0.185094,0.295697,-0.281568,0.749268,-0.0228841,0.353926,0.0342301,0.0539644,0.218275
0.180176,0.310184,-0.277176,0.584576,-0.329554,0.318509,0.02988,0.0562256,0.251758
0.169743,0.319987,-0.272556,0.29621,-0.549921,0.293378,0.0417637,0.0749458,0.249898
0.155912,0.323801,-0.266897,0.00692811,-0.64275,0.298971,0.0360919,0.111599,0.176692
0.140688,0.323037,-0.260818,-0.145273,-0.694288,0.252376,0.0328764,0.120625,0.0579404
0.12461,0.320015,-0.255907,-0.20981,-0.743976,0.180259,0.0496092,0.128637,-0.0332118
0.109506,0.316109,-0.251615,-0.208857,-0.606015,0.203847,0.104853,0.15311,-0.116917
0.0982736,0.313529,-0.245693,-0.0913975,-0.319554,0.342941,0.150457,0.193321,-0.167642
0.0923608,0.314262,-0.236111,0.0809196,0.00307349,0.588063,0.169001,0.228701,-0.143376
0.0894703,0.318664,-0.22133,0.222991,0.129912,0.842808,0.14673,0.225896,-0.0458581
0.085725,0.325763,-0.202681,0.32054,0.0722536,0.969399,0.0908495,0.18519,0.066517
0.0797306,0.334006,-0.182495,0.332173,-0.0137659,1.00059,0.0332301,0.160655,0.152078
0.0724148,0.341489,-0.162334,0.266621,-0.0405472,0.952606,-0.00954948,0.135855,0.210753
0.0649935,0.347197,-0.14357,0.187128,-0.0691283,0.845902,-0.0402135,0.106743,0.24053
0.0576771,0.351079,-0.127486,0.104274,-0.12375,0.692398,-0.0557921,0.0771879,0.260179
0.049871,0.352704,-0.114666,-0.00459066,-0.21138,0.523764,-0.0556318,0.040062,0.271946
0.0416207,0.352045,-0.10554,-0.0944571,-0.288745,0.335395,-0.0513096,0.00729409,0.257147
0.033719,0.349648,-0.100161,-0.160166,-0.31359,0.162012,-0.0451615,-0.00696558,0.211786
0.0269194,0.345628,-0.0982811,-0.254044,-0.309162,0.00731284,-0.0370431,-0.0283079,0.172761
0.0208474,0.339099,-0.0996797,-0.40439,-0.359152,-0.15954,-0.0336969,-0.0581245,0.131723
0.0142612,0.329525,-0.104887,-0.535324,-0.473418,-0.349998,-0.0267991,-0.0841826,0.0560549
0.00662616,0.31839,-0.113961,-0.551382,-0.57933,-0.513003,-0.00600316,-0.0893825,-0.069613
-0.00160179,0.308433,-0.12535,-0.4247,-0.574123,-0.545036,0.0277866,-0.0530932,-0.198329
-0.00801593,0.302344,-0.135665,-0.176153,-0.332105,-0.419063,0.0777511,-0.0243386,-0.293314
-0.00804633,0.301463,-0.142622,0.0645943,0.125603,-0.246601,0.0914084,-0.00900578,-0.285469
-0.00129498,0.303143,-0.146278,0.0599442,0.377975,-0.113895,0.0670929,-0.0187696,-0.141118
0.00595665,0.302809,-0.147898,-0.0963207,0.255225,-0.0550864,0.030432,-0.0576324,-0.0286228
0.00595665,0.302809,-0.147898,-0.0963207,0.255225,-0.0550864,0.030432,-0.0576324,-0.0286228
0.0085114,0.299537,-0.149377,-0.222308,-0.0667051,-0.101941,-0.00799499,-0.0946931,-0.0204982
0.0041407,0.293921,-0.152494,-0.348447,-0.464541,-0.204616,-0.0399128,-0.0993609,-0.0653082
-0.00666154,0.284936,-0.157907,-0.554565,-0.724236,-0.312006,-0.0736394,-0.0816051,-0.171766
-0.0186039,0.272703,-0.165562,-0.657009,-0.640296,-0.408795,-0.079985,-0.0491306,-0.318508
-0.0259589,0.260679,-0.174921,-0.534892,-0.32468,-0.448805,-0.0702426,0.00798064,-0.420829
-0.0259599,0.252622,-0.183391,-0.290488,0.105987,-0.337272,-0.0379619,0.0712323,-0.418449
-0.0188929,0.249563,-0.188357,-0.0163701,0.45083,-0.132007,-0.0175363,0.111009,-0.317514
-0.00811907,0.252518,-0.188836,0.313366,0.584345,0.077551,-0.0284697,0.131465,-0.167747
0.00218226,0.261468,-0.185197,0.569001,0.515138,0.275747,-0.0645013,0.157379,0.00560582
0.00839434,0.274264,-0.178256,0.689602,0.265322,0.386477,-0.113839,0.162563,0.158987
0.00768304,0.288086,-0.170119,0.665254,-0.121535,0.384268,-0.162106,0.157485,0.263662
-0.000472314,0.299928,-0.163509,0.501106,-0.497758,0.229637,-0.224814,0.12849,0.295842
-0.0138477,0.307496,-0.162299,0.246814,-0.788894,-0.151274,-0.267457,0.0823663,0.282669
-0.0287923,0.309855,-0.170615,-0.0202287,-0.936243,-0.653121,-0.272784,0.0562632,0.232424
-0.0409537,0.307887,-0.189415,-0.239867,-0.816311,-1.12148,-0.219421,0.0697845,0.149122
-0.045994,0.301926,-0.217002,-0.468824,-0.504247,-1.46579,-0.143266,0.105191,0.0911154
-0.0438253,0.292162,-0.249715,-0.624429,-0.277117,-1.58008,-0.0373147,0.135817,0.0465782
-0.0395872,0.281348,-0.28192,-0.542281,-0.227143,-1.44652,0.0595814,0.153124,-0.0167399
-0.0360593,0.274364,-0.310073,-0.245192,-0.177615,-1.2455,0.0913437,0.147811,-0.0721618
-0.031941,0.272728,-0.334349,-0.0232104,-0.0499751,-1.11072,0.0764401,0.116665,-0.0350865
-0.0254149,0.273348,-0.356804,-0.00903649,0.0835965,-1.0784,0.0581449,0.0688309,0.0785282
-0.0169736,0.272558,-0.379366,-0.121947,0.151469,-1.10388,0.0448649,0.0293738,0.166468
-0.00773751,0.268846,-0.402386,-0.272586,0.147291,-1.11177,0.0407847,0.0052129,0.208403
0.000470043,0.262364,-0.425106,-0.372314,0.070011,-1.07834,0.0498238,-0.020924,0.201879
0.0058321,0.254621,-0.446607,-0.384653,-0.0796896,-1.00949,0.0636156,-0.0437301,0.165344
0.00835475,0.247299,-0.466428,-0.32757,-0.137462,-0.914655,0.0858021,-0.0673783,0.106598
0.0106831,0.241433,-0.483665,-0.247534,-0.0317327,-0.758851,0.114841,-0.0741989,0.0604795
0.0146377,0.237138,-0.497187,-0.168288,0.108983,-0.561981,0.13479,-0.0897398,0.0468309
0.0198821,0.234358,-0.506808,-0.0997728,0.169347,-0.381243,0.14825,-0.128896,0.0619947
0.0244467,0.232612,-0.512878,-0.072532,0.140507,-0.214465,0.159274,-0.164164,0.0801682
0.0270985,0.231007,-0.515565,-0.0822048,0.0580259,-0.0577651,0.152808,-0.18721,0.0710861
0.0269755,0.229461,-0.515401,-0.0631202,-0.0730037,0.0602921,0.12823,-0.203746,0.0254979
0.0239818,0.228598,-0.513422,-0.0341595,-0.179548,0.120392,0.109182,-0.220607,-0.0369152
0.0194905,0.227764,-0.510871,-0.0613794,-0.184449,0.12215,0.0850637,-0.226212,-0.103892
0.0173231,0.226193,-0.508989,-0.0938256,0.0337925,0.0480364,0.0787153,-0.242986,-0.177596
0.0214743,0.22464,-0.50894,-0.0590822,0.378292,-0.0395546,0.090456,-0.23864,-0.232733
0.0320387,0.22382,-0.5096,-0.0211826,0.650204,-0.00898469,0.136826,-0.202483,-0.223014
0.0476151,0.223805,-0.508979,0.0115935,0.908919,0.0830473,0.162193,-0.188321,-0.195967
0.0662668,0.224145,-0.506203,0.00497078,1.00177,0.196026,0.16461,-0.177721,-0.142085
0.0840778,0.224735,-0.501374,0.0279497,0.855298,0.274886,0.154034,-0.175055,-0.115047
0.0957168,0.22631,-0.494971,0.0716421,0.425011,0.361054,0.174399,-0.170117,-0.107841
0.0980895,0.229109,-0.486798,0.141333,0.0491656,0.475195,0.178232,-0.122088,-0.169118
0.0963535,0.234317,-0.475972,0.280672,0.0843414,0.623354,0.159156,-0.0511162,-0.272332
0.0977331,0.243262,-0.462711,0.488119,0.410406,0.752802,0.133124,0.00927186,-0.305635
0.106204,0.256591,-0.446934,0.68122,0.831172,0.918394,0.0925037,0.0860142,-0.248974
0.120792,0.273443,-0.427881,0.773161,1.06751,1.09512,0.0441953,0.146605,-0.104014
0.135165,0.291747,-0.406169,0.76845,0.935988,1.20969,-0.00569209,0.160352,0.055117
0.143299,0.309694,-0.382351,0.6871,0.561258,1.29844,-0.0483533,0.178867,0.153312
0.141856,0.325691,-0.356542,0.536962,0.0993079,1.35562,-0.0872718,0.201448,0.179704
0.130706,0.337985,-0.329413,0.333098,-0.30593,1.35006,-0.120916,0.21182,0.148238
0.11303,0.346418,-0.302686,0.212967,-0.529028,1.23732,-0.161677,0.210197,0.0507735
0.0937266,0.351816,-0.279437,0.0816742,-0.575475,0.986728,-0.186322,0.200454,-0.0104097
0.0772462,0.352453,-0.261678,-0.177798,-0.425391,0.674305,-0.186973,0.202303,-0.0354614
0.068172,0.346999,-0.250299,-0.421569,-0.0830201,0.377501,-0.16167,0.208562,-0.0800516
0.068172,0.346999,-0.250299,-0.421569,-0.0830201,0.377501,-0.16167,0.208562,-0.0800516
0.0675016,0.338737,-0.243413,-0.398974,0.225939,0.249628,-0.0946234,0.237341,-0.122098
0.0722659,0.333324,-0.237251,-0.173972,0.444158,0.324194,-0.0364754,0.289848,-0.0925864
0.0795838,0.332232,-0.228489,-0.0204309,0.559759,0.496823,-0.0212127,0.310864,0.0406066
0.0865581,0.333086,-0.216863,0.000717833,0.488222,0.584339,-0.045047,0.270946,0.197741
0.0903652,0.333668,-0.204938,-0.0552759,0.267673,0.532173,-0.0732565,0.207501,0.30554
0.0896892,0.332075,-0.194686,-0.19945,0.016373,0.416783,-0.0736436,0.157762,0.357767
0.0858475,0.327098,-0.18713,-0.359045,-0.137225,0.25175,-0.0669442,0.113898,0.350154
0.0811785,0.318744,-0.182998,-0.510473,-0.192678,0.0753902,-0.0463499,0.0767253,0.312424
0.0766494,0.306874,-0.181991,-0.68826,-0.231457,-0.0672019,-0.0108327,0.0532091,0.27841
0.0719756,0.291423,-0.183281,-0.829748,-0.271244,-0.157996,0.034207,0.0216443,0.216449
0.0673835,0.274889,-0.185667,-0.779704,-0.238287,-0.174464,0.087585,-0.0111828,0.0967609
0.0643109,0.260912,-0.187902,-0.595181,-0.107962,-0.119883,0.125286,-0.022846,0.00990379
0.0644779,0.250564,-0.18871,-0.451607,0.0978458,-0.0280638,0.141391,-0.0420737,-0.00672048
0.0673064,0.241818,-0.188058,-0.442618,0.172733,0.021163,0.128625,-0.0907014,0.0303056
0.069902,0.232572,-0.186961,-0.488868,0.0876365,0.0126392,0.0922831,-0.146594,0.0345585
0.0694841,0.222176,-0.186694,-0.552051,-0.157357,-0.0893722,0.0369994,-0.18637,-0.00973678
0.0641375,0.209916,-0.189823,-0.659655,-0.430102,-0.30115,0.00474198,-0.239376,-0.090674
0.0563267,0.195307,-0.197263,-0.744156,-0.453922,-0.51252,0.0280254,-0.248864,-0.219222
0.0522147,0.180192,-0.207775,-0.686177,-0.109329,-0.565339,0.0919951,-0.22572,-0.356551
0.0559482,0.167849,-0.216982,-0.484777,0.292674,-0.367349,0.175061,-0.16619,-0.414095
0.064093,0.160477,-0.220162,-0.238611,0.405262,0.0211034,0.228201,-0.112458,-0.364393
0.0697101,0.158233,-0.216013,-0.0209368,0.193283,0.345743,0.203128,-0.108586,-0.294798
0.069731,0.159756,-0.207383,0.0898037,-0.0394037,0.49634,0.152892,-0.119701,-0.248348
0.0660355,0.161948,-0.196456,0.0434161,-0.118757,0.601143,0.113373,-0.0774365,-0.231377
0.0617972,0.16293,-0.183282,-0.0148875,-0.0844108,0.697152,0.0695074,-0.0210176,-0.258169
0.0583193,0.163964,-0.168754,0.0500713,-0.0157362,0.745294,0.0135252,0.00748374,-0.297179
0.0560732,0.167704,-0.153403,0.258775,0.0597008,0.792642,-0.0337732,0.0501283,-0.315994
0.0558009,0.176575,-0.137487,0.537156,0.198365,0.819802,-0.0692175,0.0901792,-0.287162
0.0586451,0.190636,-0.121725,0.768005,0.369166,0.80452,-0.129235,0.137299,-0.187361
0.0639148,0.208182,-0.107112,0.885187,0.432465,0.726829,-0.200294,0.172761,-0.0578608
0.0691373,0.226903,-0.0948574,0.898313,0.328224,0.577632,-0.264867,0.185349,0.0547427
0.0714967,0.244654,-0.0866354,0.807628,0.0880965,0.337964,-0.309741,0.180728,0.125411
0.0699358,0.259531,-0.0838761,0.661779,-0.161846,0.0258259,-0.346729,0.167012,0.133902
0.0664456,0.27118,-0.0880842,0.528054,-0.266457,-0.358158,-0.361852,0.149949,0.0974531
0.0651038,0.279336,-0.100134,0.360857,-0.172669,-0.749621,-0.345617,0.146186,0.0736126
0.0693546,0.28383,-0.119711,0.219138,0.0607677,-1.08509,-0.296308,0.140798,0.0586953
0.0791282,0.285498,-0.144319,0.134535,0.198348,-1.23056,-0.241541,0.169727,0.068122
0.0902228,0.286114,-0.169788,0.156732,0.182908,-1.19466,-0.206982,0.184113,0.0705123
0.100324,0.288248,-0.194337,0.284559,0.111136,-1.14681,-0.209809,0.157854,0.0808299
0.108145,0.292933,-0.218946,0.424831,-0.0230314,-1.17113,-0.216664,0.110813,0.105388
0.114726,0.29927,-0.245038,0.460654,-0.0629647,-1.25406,-0.21661,0.0736617,0.144247
0.122594,0.304517,-0.273166,0.36571,0.0292752,-1.35805,-0.198936,0.04112,0.188745
0.133149,0.306946,-0.302952,0.237741,0.116545,-1.43405,-0.170863,0.0140627,0.228942
0.144427,0.306527,-0.333646,0.13122,0.0575122,-1.47688,-0.134577,-0.0189448,0.251628
0.153512,0.303965,-0.364834,0.0668692,-0.0774792,-1.51342,-0.0857197,-0.0556135,0.235325
0.160454,0.300313,-0.396371,0.0590956,-0.145997,-1.51633,-0.0274481,-0.0745882,0.171535
0.166674,0.297018,-0.426896,0.0936051,-0.114815,-1.40706,0.0387792,-0.0615321,0.105301
0.173354,0.294592,-0.454362,0.108629,0.00244815,-1.22898,0.100034,-0.0624181,0.0559661
0.182539,0.292418,-0.477958,0.0665349,0.254989,-1.03104,0.165214,-0.0832064,0.00342363
0.196002,0.290012,-0.496612,0.0451994,0.555648,-0.759083,0.221297,-0.0972912,-0.0504634
0.211696,0.28937,-0.508997,0.149212,0.624521,-0.419531,0.253696,-0.0880798,-0.0965872
0.225323,0.292768,-0.515324,0.311686,0.545162,-0.112333,0.253585,-0.103837,-0.126721
0.235915,0.299719,-0.516957,0.370862,0.47175,0.102405,0.230011,-0.106451,-0.110214
0.243678,0.306677,-0.514785,0.236645,0.374333,0.253885,0.220423,-0.117725,-0.069314
0.243678,0.306677,-0.514785,0.236645,0.374333,0.253885,0.220423,-0.117725,-0.069314
0.248319,0.310854,-0.509573,0.0460223,0.245288,0.321337,0.20326,-0.128454,-0.0757876
0.249517,0.31193,-0.50269,-0.0897743,0.0695539,0.331271,0.179836,-0.130482,-0.125552
0.245982,0.310487,-0.495684,-0.227801,-0.252847,0.275758,0.145514,-0.113499,-0.178147
0.235744,0.305965,-0.489285,-0.346498,-0.533267,0.20266,0.13275,-0.0924174,-0.269504
0.223918,0.29979,-0.484622,-0.319617,-0.462117,0.0892596,0.10702,-0.0567315,-0.378786
0.217148,0.295627,-0.482506,-0.123915,-0.13878,0.0385165,0.0811935,0.0245546,-0.420902
0.217731,0.295296,-0.481149,0.0484137,0.233335,0.0860825,0.0750275,0.100379,-0.346008
0.214064,0.296469,-0.478687,0.250685,0.479876,0.294669,-0.00267972,0.0888676,-0.280939
0.228672,0.306929,-0.472038,0.50654,0.834407,0.488918,0.0267993,0.30729,-0.113709
0.246112,0.320716,-0.462185,0.592468,1.18464,0.778395,-0.0230975,0.274216,0.0731079
0.262545,0.335638,-0.447504,0.433594,0.838942,0.80919,-0.046525,0.241298,0.228923
0.256973,0.337291,-0.436851,-0.410299,-0.287769,0.463766,0.0507697,0.0447536,0.287668
0.257097,0.3388,-0.420455,0.21156,0.429875,0.934037,-0.0355041,0.198261,0.0198057
0.254451,0.352881,-0.406633,0.784072,-0.0548026,0.702029,-0.168654,0.363028,0.144281
0.247813,0.371701,-0.396297,0.673095,-0.370082,0.722607,-0.0214263,0.173122,0.329167
0.231969,0.383036,-0.38412,0.147584,-0.694098,0.609739,0.0012884,0.161641,0.388515
0.212816,0.383305,-0.373272,-0.322211,-0.817097,0.376647,-0.0191136,0.147226,0.315523
0.191708,0.373974,-0.365833,-0.736541,-1.04242,0.11223,-0.0277392,0.100379,0.240688
0.167886,0.356252,-0.36316,-1.02775,-1.18996,-0.195486,-0.0489097,0.0708713,0.109443
0.148854,0.333096,-0.367644,-1.18081,-0.75215,-0.587748,-0.122347,0.0830586,-0.0366836
0.146711,0.308705,-0.379467,-1.00237,0.26589,-0.831033,-0.16552,0.0883408,-0.306485
0.162677,0.29079,-0.393287,-0.566581,0.798408,-0.709,-0.0643563,0.118877,-0.177968
0.181303,0.281513,-0.403251,-0.210025,0.713808,-0.360095,0.0766798,0.16288,-0.00554836
0.19282,0.278497,-0.406429,-0.0603797,0.330386,-0.0318603,0.0565546,0.139138,0.144076
0.195015,0.277535,-0.40576,-0.0639787,-0.0684452,0.0266673,-0.0294446,0.0648185,0.220863
0.191894,0.274884,-0.407247,-0.17467,-0.232957,-0.268122,-0.142649,-0.010517,0.181622
0.190919,0.26853,-0.41596,-0.295768,-0.0683549,-0.674759,-0.222161,-0.0571644,0.0974306
0.195493,0.258548,-0.431391,-0.381873,0.113647,-0.962441,-0.220082,-0.0493613,0.0258467
0.20381,0.247805,-0.450634,-0.275285,0.230985,-1.05087,-0.15261,-0.0398032,-0.0450579
0.213225,0.240262,-0.470157,-0.0479168,0.191667,-0.943099,-0.10559,-0.0260042,-0.144623
0.218353,0.239227,-0.48844,0.348488,-0.14709,-0.848717,-0.123967,-0.0695971,-0.192309
0.216072,0.24581,-0.508709,0.700472,-0.539724,-0.969602,-0.192783,-0.117925,-0.187593
0.208775,0.256503,-0.533964,0.823997,-0.812699,-1.21346,-0.193034,-0.11831,-0.128229
0.199456,0.265756,-0.564842,0.651451,-0.845866,-1.53172,-0.124408,-0.0797989,-0.0375726
0.19415,0.268699,-0.600295,0.30831,-0.616354,-1.74344,-0.00327045,-0.0273696,-0.0446582
0.193403,0.265504,-0.636817,0.085381,-0.467713,-1.76144,0.0725612,-0.035578,-0.0875306
0.191267,0.259781,-0.671567,-0.00125762,-0.747164,-1.63491,0.0356667,-0.0873844,-0.155777
0.178193,0.253367,-0.70368,-0.0453423,-1.35969,-1.58814,-0.0620495,-0.107246,-0.295332
0.155281,0.247055,-0.738381,0.0138111,-1.74722,-1.89572,-0.162901,-0.0840638,-0.455619
0.12909,0.243809,-0.78198,0.291821,-1.89759,-2.35399,-0.12787,0.0348124,-0.442861
0.106742,0.246918,-0.834521,0.581867,-1.53709,-2.64517,-0.0119389,0.221925,-0.294088
0.0960919,0.253354,-0.890401,0.561942,-0.92654,-2.63648,0.0136099,0.399517,-0.0945249
0.095875,0.258251,-0.942452,0.405128,-0.46,-2.31183,0.0418305,0.474918,0.0585283
0.0997541,0.261054,-0.986182,0.309918,-0.316512,-1.87697,0.063133,0.471966,0.146649
0.102378,0.264469,-1.02099,0.401164,-0.356285,-1.4417,0.0759602,0.445372,0.158648
0.100341,0.271974,-1.04719,0.605329,-0.559358,-1.00878,0.0632228,0.414828,0.167519
0.0912454,0.284362,-1.0655,0.808924,-0.836716,-0.638426,0.0208015,0.344052,0.14257
0.0764527,0.301727,-1.07758,1.03319,-1.00346,-0.384552,-0.090155,0.300664,0.115396
0.0568845,0.323999,-1.08596,1.21926,-1.21761,-0.305792,-0.212969,0.271332,0.11468
0.0342096,0.349088,-1.09359,1.32054,-1.27031,-0.336664,-0.297719,0.232147,0.128116
0.0133414,0.373559,-1.10521,1.13904,-1.33974,-0.702647,-0.384247,0.179766,0.153364
-0.00797056,0.391957,-1.12669,0.677471,-1.56241,-1.35231,-0.43848,0.0951787,0.206742
-0.0245659,0.399201,-1.1651,-0.0559512,-1.57502,-2.22344,-0.464871,0.0627855,0.208691
-0.032084,0.390864,-1.2221,-0.924144,-1.32937,-2.9853,-0.45435,0.110006,0.157488
-0.032084,0.390864,-1.2221,-0.924144,-1.32937,-2.9853,-0.45435,0.110006,0.157488
-0.0284447,0.367527,-1.2919,-1.556,-0.897109,-3.38317,-0.421807,0.226527,0.034419
-0.017034,0.335685,-1.36577,-1.70358,-0.531726,-3.46495,-0.360596,0.314203,-0.128675
-0.00248617,0.305454,-1.43815,-1.33651,-0.319982,-3.37708,-0.272623,0.344488,-0.286344
0.0119549,0.284402,-1.50644,-0.730443,-0.233652,-3.17811,-0.19696,0.348378,-0.325655
0.024109,0.274685,-1.56976,-0.158855,-0.30462,-2.9527,-0.159266,0.34383,-0.29871
0.0321952,0.273774,-1.62902,0.196763,-0.500856,-2.78504,-0.138581,0.318951,-0.223655
0.0349881,0.277131,-1.68588,0.291144,-0.759206,-2.7194,-0.129197,0.284355,-0.147158
0.0332985,0.280184,-1.74286,0.18396,-0.933909,-2.78517,-0.127026,0.246122,-0.102303
0.0305825,0.279952,-1.80196,-0.0236577,-0.923637,-2.92062,-0.133422,0.226734,-0.087919
0.0308065,0.276073,-1.86349,-0.158371,-0.70405,-3.01436,-0.126666,0.237347,-0.102715
0.0361107,0.270589,-1.92571,-0.177543,-0.43761,-3.00848,-0.0950461,0.264216,-0.0997891
0.0452481,0.264886,-1.98705,-0.151809,-0.281943,-2.94293,-0.0542293,0.265263,-0.0651318
0.0548713,0.259291,-2.04666,-0.11713,-0.314685,-2.85943,-0.00578449,0.237855,-0.0293284
0.0612884,0.254231,-2.10464,-0.0537911,-0.508839,-2.7979,0.0446311,0.204306,-0.022455
0.0637367,0.250564,-2.16159,0.029669,-0.62813,-2.75186,0.0748463,0.175853,-0.0378941
0.0649778,0.24772,-2.21745,0.0195257,-0.576027,-2.68755,0.0932238,0.163682,-0.0329688
0.0683941,0.243632,-2.27146,-0.0933129,-0.362858,-2.59105,0.108787,0.140246,-0.0190138
0.076214,0.236761,-2.32312,-0.231473,-0.0888823,-2.47384,0.128285,0.111508,-0.0181305
0.0867986,0.227334,-2.37144,-0.316289,0.0121064,-2.29742,0.172941,0.0633788,-0.0259486
0.0953413,0.217123,-2.41536,-0.299011,-0.133937,-2.07892,0.201655,0.0112282,-0.051107
0.0991222,0.208489,-2.45516,-0.166824,-0.300454,-1.90067,0.180466,-0.0241735,-0.113585
0.100479,0.203434,-2.49187,0.0207194,-0.269939,-1.74893,0.143732,-0.0405961,-0.179736
0.10442,0.202238,-2.52604,0.190218,-0.00118175,-1.60508,0.126303,-0.0469707,-0.199026
0.113163,0.20367,-2.55724,0.268044,0.218253,-1.41462,0.135552,-0.0397703,-0.142106
0.123648,0.206414,-2.58393,0.316486,0.264049,-1.15435,0.13667,-0.0393572,-0.0883166
0.132921,0.210924,-2.60571,0.419712,0.212367,-0.91702,0.102371,-0.038485,-0.076976
0.140147,0.218595,-2.62362,0.588361,0.131704,-0.723966,0.0707885,-0.0418091,-0.0738191
0.145594,0.229821,-2.63844,0.710823,0.0882853,-0.559846,0.042343,-0.0393472,-0.0435072
0.150199,0.242552,-2.65061,0.71112,0.101209,-0.431005,0.00913385,-0.0395126,-0.00344253
0.154723,0.254874,-2.66067,0.652911,0.108028,-0.360353,-0.0185889,-0.0446145,0.0227553
0.159272,0.265729,-2.66995,0.554844,0.112649,-0.371901,-0.0483122,-0.0527105,0.0327362
0.164158,0.274025,-2.67983,0.422319,0.110725,-0.444253,-0.0668852,-0.0607815,0.0425819
0.168974,0.27994,-2.69086,0.355527,0.0552552,-0.500725,-0.0625037,-0.0515831,0.0367398
0.172078,0.285257,-2.70223,0.364541,-0.0656694,-0.474575,-0.0330396,-0.0191021,0.0323922
0.17212,0.291152,-2.71232,0.386005,-0.217516,-0.370962,-0.00836259,0.0114822,0.0333287
0.168954,0.297981,-2.71994,0.420532,-0.31706,-0.233848,0.00867733,0.0314449,0.0246716
0.163324,0.306306,-2.7249,0.484111,-0.383017,-0.105477,0.0123429,0.0449466,0.00914037
0.156464,0.316205,-2.72781,0.530731,-0.390517,-0.0129954,0.00854594,0.0607945,0.00158697
0.148769,0.326614,-2.72903,0.506673,-0.430116,0.0525086,0.00613025,0.0701662,0.0145686
0.139238,0.336396,-2.72904,0.470414,-0.539546,0.0849102,0.0121181,0.0754639,0.0228887
0.126689,0.345918,-2.72826,0.464714,-0.684217,0.104834,0.00563046,0.0746406,0.0105719
0.11277,0.354987,-2.72765,0.413795,-0.667464,0.0531519,-0.00398289,0.0756054,0.00397617
0.100172,0.362111,-2.72792,0.288203,-0.602137,-0.000107533,0.00457901,0.07602,0.0200629
0.0894146,0.366249,-2.72926,0.136434,-0.534872,-0.0920061,-0.00308145,0.0724862,0.0342565
0.080467,0.367254,-2.73287,-0.0071552,-0.500452,-0.237203,0.00395934,0.0517878,0.0324544
0.072734,0.365638,-2.73937,-0.0945934,-0.503205,-0.378673,0.0232441,0.0422069,0.0192869
0.0660672,0.363072,-2.74827,-0.0966169,-0.47419,-0.461771,0.0585544,0.0503232,-0.00173861
0.0613343,0.360644,-2.75845,-0.0921646,-0.345604,-0.497922,0.0919545,0.0632495,-0.00671756
0.0596414,0.358038,-2.76862,-0.108134,-0.175383,-0.451684,0.117834,0.0841713,0.00659156
0.0606502,0.35542,-2.77689,-0.110946,-0.0248921,-0.33161,0.131255,0.103798,0.0209053
0.0627026,0.353016,-2.78245,-0.0938796,0.0251335,-0.210549,0.138087,0.0912736,0.0353826
0.0642013,0.351335,-2.78604,-0.0533974,-0.0158371,-0.148237,0.125446,0.0711265,0.0438827
0.0639064,0.350215,-2.78904,-0.0459737,-0.120968,-0.149117,0.0977742,0.0486513,0.0467564
0.0639064,0.350215,-2.78904,-0.0459737,-0.120968,-0.149117,0.0977742,0.0486513,0.0467564
0.0613516,0.349177,-2.79236,-0.0381499,-0.248021,-0.174019,0.0721171,0.0388262,0.0435384
0.0566026,0.348149,-2.79648,-0.0510192,-0.362583,-0.22133,0.0563492,0.0348234,0.0389488
0.0505048,0.346248,-2.80178,-0.132251,-0.415039,-0.298369,0.035429,0.0268866,0.0361938
0.0448606,0.341824,-2.8092,-0.285697,-0.382708,-0.433121,0.0059973,0.00914153,0.0241131
0.0416946,0.334168,-2.81993,-0.432119,-0.28484,-0.624001,-0.029306,-0.0136459,-0.0110019
0.0423066,0.324414,-2.83472,-0.472987,-0.14017,-0.806733,-0.0487548,-0.0203583,-0.0584425
0.0459829,0.314837,-2.85229,-0.404306,-0.0478726,-0.882674,-0.0377259,-0.0166777,-0.0744656
0.0511895,0.307308,-2.86992,-0.273068,0.0235726,-0.825469,-0.0340759,-0.00414649,-0.0650345
0.0571943,0.301888,-2.88639,-0.192503,0.0782633,-0.781882,-0.0562413,-0.0269414,-0.0132149
0.0628962,0.297623,-2.90237,-0.149813,0.00608681,-0.7857,-0.0813774,-0.0525458,0.0444931
0.0673084,0.293335,-2.91926,-0.194417,-0.0354992,-0.871127,-0.0947039,-0.0868754,0.0928429
0.0723351,0.287273,-2.93784,-0.300253,0.0081678,-0.944948,-0.105916,-0.0964838,0.120254
0.0780026,0.278881,-2.95718,-0.392995,0.0191826,-0.970665,-0.111992,-0.0952495,0.134665
0.0830221,0.269311,-2.97678,-0.408776,-0.0586925,-0.996697,-0.11459,-0.108246,0.122103
0.0856046,0.259849,-2.99691,-0.373481,-0.207689,-1.02426,-0.105243,-0.123131,0.109817
0.0849584,0.251375,-3.01729,-0.308711,-0.377414,-1.01615,-0.0911463,-0.119398,0.0924736
0.0811604,0.244147,-3.03734,-0.261032,-0.470623,-0.988214,-0.0776142,-0.117905,0.0660419
0.0764549,0.237584,-3.05679,-0.250296,-0.434324,-0.95235,-0.0659952,-0.117092,0.0436857
0.0729095,0.231321,-3.07536,-0.239815,-0.36609,-0.899487,-0.0455599,-0.113693,0.0322867
0.0695991,0.225758,-3.09288,-0.197916,-0.365542,-0.844969,-0.0266253,-0.113405,0.0219173
0.0662767,0.221207,-3.10901,-0.14864,-0.326335,-0.759644,-0.0139552,-0.113006,0.00875449
0.0627891,0.217881,-3.12346,-0.0932519,-0.351871,-0.673377,0.014404,-0.118312,0.00653821
0.057703,0.216101,-3.13589,-0.0159817,-0.411419,-0.542909,0.0383359,-0.121927,-0.010694
0.0523856,0.215251,3.1379,-0.0501638,-0.288171,-0.39859,0.028818,-0.10347,-0.0484499
0.0506587,0.213102,3.13044,-0.124285,-0.0597721,-0.354596,0.0125811,-0.138803,-0.0794621
0.0507861,0.210225,3.12349,-0.146202,-0.122884,-0.343937,-0.00499941,-0.161559,-0.0733716
0.0466027,0.206267,3.1163,-0.243336,-0.449955,-0.398091,-0.0270436,-0.184979,-0.0832497
0.0362921,0.19926,3.10681,-0.420849,-0.749405,-0.578238,-0.0485514,-0.219796,-0.151337
0.0224725,0.189563,3.09298,-0.486739,-0.879578,-0.81313,-0.0693093,-0.21512,-0.272952
0.00841057,0.180597,3.07503,-0.368414,-0.829429,-0.947913,-0.0616642,-0.157541,-0.353701
-0.00276475,0.174701,3.05585,-0.21868,-0.605964,-0.918012,-0.0153895,-0.0791468,-0.357785
-0.00915625,0.171991,3.03884,-0.0625051,-0.327976,-0.743687,0.0401184,-0.0117777,-0.325861
-0.0104562,0.172386,3.02592,0.0824492,-0.0357775,-0.544571,0.0587629,0.02746,-0.273634
-0.00764459,0.175752,3.01655,0.261726,0.141455,-0.387684,0.0271343,0.0305611,-0.220084
-0.00275914,0.18356,3.00998,0.529996,0.209316,-0.27054,-0.0235171,0.0529073,-0.159931
0.00232205,0.197131,3.00546,0.821758,0.21464,-0.174295,-0.0353429,0.101924,-0.0551978
0.0072881,0.215205,3.00253,0.959095,0.214403,-0.110026,-0.0495546,0.139542,0.0701684
0.0113827,0.233755,3.00037,0.87515,0.126191,-0.0942538,-0.0646008,0.161548,0.182885
0.0134146,0.24936,2.99773,0.688376,0.0150326,-0.154601,-0.0918873,0.166584,0.214421
0.0122029,0.261619,2.9929,0.553008,-0.263079,-0.321386,-0.118889,0.168923,0.190266
0.00764802,0.27141,2.98329,0.443187,-0.430985,-0.608512,-0.131452,0.14895,0.134966
0.00261251,0.279035,2.96723,0.323002,-0.480096,-0.942923,-0.131738,0.161353,0.10028
3.67003e-05,0.283978,2.94463,0.171243,-0.392272,-1.21036,-0.0766801,0.190531,0.0928678
0.00121759,0.285939,2.91822,0.03646,-0.217696,-1.30379,-0.00919429,0.225357,0.0924835
0.00643303,0.285872,2.89176,-0.030092,-0.0130219,-1.22817,0.0360034,0.245495,0.0889434
0.0149494,0.284366,2.86784,-0.104354,0.191492,-1.07511,0.0570168,0.213914,0.0890507
0.0264844,0.281208,2.84716,-0.154261,0.380671,-0.933988,0.0271406,0.13329,0.0650136
0.0406142,0.278206,2.82859,-0.0782755,0.520689,-0.880494,-0.0325721,0.0484191,0.0549647
0.0567134,0.276147,2.81047,-0.065741,0.576834,-0.879531,-0.0503241,-0.00219044,0.109492
0.073018,0.273023,2.79256,-0.141797,0.577702,-0.861948,-0.0233455,-0.036966,0.155386
0.0892034,0.268115,2.77566,-0.21456,0.590211,-0.799002,-0.00324547,-0.0536278,0.160008
0.104753,0.262155,2.76068,-0.240541,0.566127,-0.700545,0.00919493,-0.0691148,0.151518
0.118793,0.256173,2.74817,-0.214386,0.505666,-0.56984,0.0163195,-0.0879132,0.137139
0.12971,0.251661,2.7384,-0.11901,0.348655,-0.438138,0.0178093,-0.109019,0.103721
0.12971,0.251661,2.7384,-0.11901,0.348655,-0.438138,0.0178093,-0.109019,0.103721
0.136716,0.249684,2.73069,0.0217967,0.151386,-0.338374,0.0149542,-0.132174,0.0652801
0.139777,0.250427,2.72418,0.125866,0.00254214,-0.276877,0.0126527,-0.143555,0.0415267
0.140399,0.253039,2.71884,0.2011,-0.0641498,-0.196873,0.00286944,-0.130252,0.0369682
0.13982,0.256498,2.71481,0.180583,-0.103558,-0.150798,0.00296655,-0.128858,0.0376481
0.137974,0.259166,2.71147,0.115857,-0.151489,-0.13585,0.020423,-0.134168,-0.00235963
0.136694,0.260512,2.7087,0.0461148,0.00230539,-0.115294,0.0172094,-0.107171,-0.0921478
0.14097,0.261017,2.70682,0.0315411,0.381531,-0.0505551,0.0173322,-0.0670401,-0.165175
0.152557,0.261554,2.70626,0.014513,0.744503,-0.00997774,0.0356366,-0.0686423,-0.18674
0.168869,0.261401,2.70605,-0.0253463,0.844251,-0.020049,0.0474346,-0.105473,-0.164946
0.184753,0.260637,2.70521,-0.0406443,0.69492,-0.0816669,0.0546933,-0.125025,-0.154038
0.195885,0.258977,2.70328,-0.0983238,0.350619,-0.125086,0.063412,-0.118878,-0.156753
0.199182,0.256428,2.7012,-0.0794983,-0.0812103,-0.107165,0.0949177,-0.0925494,-0.207523
0.196137,0.256006,2.69964,0.0685597,-0.199025,-0.0689487,0.129921,-0.0387739,-0.273338
0.19385,0.259693,2.69859,0.308318,0.0400703,0.0473084,0.145608,0.0522859,-0.271329
0.198784,0.267859,2.69975,0.446479,0.505617,0.235004,0.145548,0.132008,-0.177789
0.211159,0.278028,2.70525,0.425215,0.836066,0.488745,0.163918,0.164719,-0.0242069
0.225738,0.287896,2.71581,0.309387,0.866405,0.720656,0.157273,0.160217,0.113151
0.235423,0.296408,2.73118,0.175222,0.521418,0.888648,0.14853,0.137256,0.182788
0.236478,0.30257,2.74899,0.0277238,0.0874938,0.902484,0.114116,0.109239,0.183394
0.227837,0.306297,2.76696,-0.0522186,-0.388251,0.845162,0.0688516,0.103623,0.153884
0.212824,0.30765,2.78317,-0.168576,-0.594982,0.69331,0.0527854,0.0993749,0.0988731
0.196256,0.305286,2.79692,-0.323875,-0.632528,0.554193,0.0624307,0.104582,0.0479551
0.180576,0.300325,2.80894,-0.347557,-0.564969,0.504777,0.0828367,0.114297,-0.0166208
0.16724,0.296747,2.82102,-0.189053,-0.402026,0.592985,0.0740602,0.131111,-0.056958
0.1583,0.297131,2.83508,0.00963442,-0.0769689,0.754688,0.0291841,0.148385,-0.0473371
0.154683,0.301819,2.85223,0.18489,0.200853,0.936038,-0.0065539,0.132707,0.0183792
0.153503,0.30929,2.8718,0.247382,0.237244,1.01036,-0.0338901,0.083481,0.141621
0.151293,0.316656,2.89182,0.175974,0.144033,0.979422,-0.0525253,0.0358169,0.238606
0.146699,0.321567,2.91084,0.0393508,-0.00936299,0.87526,-0.0789429,0.00681934,0.270628
0.140828,0.323129,2.92708,-0.110266,-0.0532367,0.668784,-0.10136,-0.0235905,0.255632
0.135068,0.321426,2.93952,-0.219411,-0.126787,0.486182,-0.0816648,-0.0355049,0.227345
0.1292,0.317708,2.94894,-0.266192,-0.160989,0.366824,-0.0516377,-0.0345493,0.186955
0.123367,0.313018,2.95676,-0.298057,-0.17761,0.310893,-0.024546,-0.0430966,0.144007
0.1182,0.307409,2.96306,-0.330254,-0.137968,0.23952,-0.00720239,-0.0762241,0.101927
0.113138,0.301729,2.96894,-0.290531,-0.227788,0.236042,0.00736184,-0.0662931,0.0488022
0.106507,0.297341,2.97397,-0.200441,-0.226892,0.20877,0.0220472,-0.0857286,0.00729585
0.101888,0.294182,2.97858,-0.179672,-0.124012,0.194217,0.0153138,-0.081396,-0.0162311
0.0989989,0.290273,2.98259,-0.268942,-0.0740384,0.144009,0.0104153,-0.0973614,0.000364423
0.0955787,0.2837,2.98547,-0.416831,-0.215884,0.0648245,0.00873862,-0.122648,0.00500679
0.0891021,0.274564,2.98675,-0.495351,-0.375996,-0.030118,-0.00880799,-0.139532,-0.0714568
0.0813865,0.264692,2.98614,-0.473907,-0.382324,-0.0995636,-0.0108537,-0.142013,-0.172253
0.0755644,0.255998,2.98459,-0.395167,-0.218622,-0.125814,-0.0452003,-0.142862,-0.241694
0.0740449,0.248338,2.98156,-0.36685,-0.0243172,-0.227255,-0.0736915,-0.143763,-0.256402
0.0748821,0.240713,2.97705,-0.358419,-0.0440626,-0.251316,-0.0156942,-0.154809,-0.220549
0.0733014,0.233751,2.97275,-0.300922,-0.215639,-0.218799,0.0101768,-0.138657,-0.21125
0.0687152,0.228161,2.96926,-0.239865,-0.302788,-0.15928,0.00306459,-0.114557,-0.243913
0.0630715,0.223935,2.96648,-0.150682,-0.32144,-0.133948,-0.025491,-0.110024,-0.265372
0.0572843,0.221957,2.96415,-0.0337349,-0.318246,-0.120214,-0.0434125,-0.0962218,-0.260491
0.051837,0.222522,2.96109,0.11285,-0.275595,-0.180969,-0.0504905,-0.0961432,-0.235103
0.0486262,0.225922,2.95663,0.243813,-0.122356,-0.233162,-0.0388422,-0.0479375,-0.191313
0.0495512,0.231718,2.9514,0.36164,0.100189,-0.243842,-0.0328568,0.012624,-0.145078
0.0546471,0.239863,2.94632,0.469875,0.274386,-0.196858,-0.0172438,0.0758875,-0.0652358
0.0608415,0.249966,2.94277,0.56424,0.233831,-0.0829821,-0.00201425,0.128673,0.0275223
0.0641425,0.262057,2.94137,0.652038,0.0321845,0.0193791,-0.00449134,0.1619,0.0969449
0.0641425,0.262057,2.94137,0.652038,0.0321845,0.0193791,-0.00449134,0.1619,0.0969449
0.0619847,0.275523,2.94149,0.681334,-0.280285,0.0645029,-0.0123675,0.18355,0.135163
0.0526411,0.288619,2.94134,0.610326,-0.640779,-0.0243584,-0.0356242,0.179542,0.151646
0.0389241,0.299143,2.93845,0.446081,-0.776061,-0.222339,-0.0671544,0.177377,0.120774
0.0268946,0.305484,2.93093,0.207963,-0.620357,-0.478794,-0.070202,0.196904,0.063647
0.0210816,0.307478,2.91877,0.0378704,-0.324072,-0.65291,-0.0389971,0.226637,0.00499678
0.0213929,0.307316,2.9047,-0.0137942,-0.0913455,-0.678019,0.000668062,0.24905,-0.0240741
0.0253368,0.306793,2.8909,-0.000417678,0.0605045,-0.636561,0.0412022,0.23903,-0.023226
0.0319151,0.306833,2.87809,0.0340521,0.220093,-0.588789,0.0585699,0.21911,-0.0082044
0.0420775,0.306969,2.866,0.0132767,0.433988,-0.572109,0.0457319,0.189317,0.0428488
0.0561504,0.306045,2.85403,-0.048639,0.604011,-0.580712,0.0273432,0.149206,0.110355
0.0726424,0.30365,2.84175,-0.10925,0.666469,-0.601427,0.0449539,0.113932,0.162077
0.0894938,0.300171,2.82973,-0.14339,0.640709,-0.565483,0.0632425,0.0949394,0.200669
0.104059,0.29627,2.81917,-0.141494,0.498413,-0.471947,0.0791822,0.0844961,0.234111
0.114376,0.292553,2.81093,-0.152848,0.265703,-0.360709,0.0872101,0.0605841,0.26258
0.118949,0.288169,2.80477,-0.229464,0.0234091,-0.285117,0.0770055,0.0205411,0.27064
0.118089,0.28211,2.80014,-0.317682,-0.227032,-0.226885,0.0455341,-0.0141126,0.240234
0.112707,0.274712,2.79707,-0.379608,-0.368052,-0.155732,0.0227914,-0.0319072,0.156882
0.105502,0.266606,2.79556,-0.398348,-0.390779,-0.0819483,0.0122905,-0.0475454,0.0735646
0.0983008,0.259063,2.79528,-0.348552,-0.326611,-0.0244418,0.0224115,-0.0628096,0.00380337
0.0923432,0.25243,2.79597,-0.331834,-0.270852,0.0296706,0.0382738,-0.0660226,-0.0205127
0.0858013,0.245952,2.798,-0.32551,-0.354208,0.112099,0.0643285,-0.0757796,-0.0362866
0.0783825,0.239946,2.8017,-0.307105,-0.274277,0.205311,0.0653289,-0.0926266,-0.0810394
0.0724819,0.235007,2.80795,-0.229468,-0.151101,0.364724,0.0598822,-0.0722346,-0.125729
0.0699054,0.23184,2.81667,-0.141353,0.0913626,0.459583,0.0548535,-0.100584,-0.141986
0.0702341,0.231432,2.82705,0.0323596,0.146791,0.544056,0.0468679,-0.118453,-0.116036
0.0714913,0.233875,2.83786,0.0936618,0.246345,0.510826,0.0241269,-0.149187,-0.0591128
0.0741496,0.236136,2.84795,0.0429961,0.256164,0.479857,0.0167193,-0.167526,0.00267386
0.0763413,0.237166,2.85722,-0.0086173,0.182113,0.427167,0.0229288,-0.180594,0.0117487
0.0778899,0.237428,2.86565,-0.0220206,0.186334,0.4087,0.056055,-0.179652,-0.0279796
0.0806507,0.238466,2.87473,0.0720986,0.327851,0.492203,0.0775393,-0.151971,-0.095193
0.0861961,0.242393,2.8853,0.224496,0.517262,0.55953,0.0661465,-0.13856,-0.117997
0.0954065,0.248708,2.89651,0.286416,0.638351,0.580922,0.0849306,-0.145343,-0.0669301
0.104888,0.256528,2.90891,0.38117,0.51514,0.695268,0.106097,-0.148254,-0.0309286
0.114272,0.262494,2.91976,-0.0332194,0.791185,0.351124,0.0733236,-0.237855,-0.019465
0.130707,0.258422,2.92564,-0.395888,0.874457,0.255194,0.166122,-0.193556,0.0437986
0.142564,0.248856,2.93195,-0.602529,0.528094,0.199424,0.142508,-0.116406,-0.0153996
0.149232,0.237715,2.93746,-0.551337,0.252718,0.189979,0.156619,-0.0376197,-0.168425
0.15008,0.230063,2.94411,-0.250401,0.0461554,0.377418,0.21543,0.0720177,-0.290863
0.149282,0.231626,2.95546,0.246957,0.1802,0.749243,0.243534,0.187355,-0.327142
0.152405,0.243755,2.97337,0.657048,0.579856,1.1707,0.21371,0.26532,-0.238228
0.160571,0.262863,2.99847,0.815409,0.854523,1.50541,0.133162,0.28333,-0.063099
0.171805,0.283361,3.02777,0.698656,1.06226,1.58329,0.0489301,0.22186,0.106188
0.185103,0.299563,3.05776,0.367045,1.07634,1.54221,-0.00567029,0.19557,0.248882
0.193986,0.308659,3.0879,-0.00942464,0.670077,1.44361,-0.0123817,0.161325,0.313366
0.192706,0.310909,3.11593,-0.267568,0.0234059,1.20543,-0.031546,0.137956,0.275574
0.178203,0.308296,3.13873,-0.38414,-0.717799,0.868987,-0.0682415,0.136001,0.160053
0.156166,0.302076,-3.12888,-0.473503,-0.945894,0.50763,-0.0635898,0.152529,-0.00282013
0.136646,0.293583,-3.1194,-0.486688,-0.662862,0.306343,-0.0342466,0.217454,-0.129835
0.126852,0.285547,-3.11161,-0.401504,-0.0840258,0.367861,0.0147346,0.292166,-0.182357
0.127779,0.279588,-3.10074,-0.338659,0.452297,0.611809,0.0262901,0.319036,-0.110723
0.135167,0.275012,-3.08416,-0.333062,0.682285,0.896687,-0.025429,0.295575,0.000152409
0.143167,0.271553,-3.06336,-0.278037,0.672064,1.01228,-0.0799398,0.213586,0.0634087
0.14956,0.270004,-3.0422,-0.176579,0.516164,0.968427,-0.126256,0.155987,0.0963674
0.153205,0.269938,-3.0234,-0.118712,0.361023,0.822522,-0.16005,0.091562,0.125686
0.153205,0.269938,-3.0234,-0.118712,0.361023,0.822522,-0.16005,0.091562,0.125686
0.155206,0.269368,-3.00803,-0.184609,0.245723,0.629616,-0.17971,0.0454344,0.154806
0.156225,0.266094,-2.99672,-0.313744,0.148804,0.386567,-0.188811,-0.012121,0.152107
0.156417,0.259161,-2.99078,-0.463116,0.0462374,0.0673964,-0.190327,-0.0662252,0.126802
0.156879,0.248645,-2.99058,-0.569448,0.0127697,-0.202849,-0.171252,-0.095096,0.0818102
0.158385,0.23579,-2.99477,-0.631786,0.0503949,-0.39093,-0.142571,-0.0962992,0.0393529
0.162011,0.221553,-3.00155,-0.668338,0.163891,-0.481528,-0.0992551,-0.10487,0.00501853
0.167833,0.206879,-3.00933,-0.641309,0.238126,-0.506397,-0.0609911,-0.116722,-0.025492
0.173688,0.193748,-3.01746,-0.501062,0.166553,-0.495377,-0.0244254,-0.134977,-0.0502747
0.177161,0.18461,-3.02539,-0.263628,0.0305149,-0.43157,0.000342518,-0.147644,-0.0609427
0.177881,0.179928,-3.03268,-0.0937648,-0.0733841,-0.366131,0.0108026,-0.162121,-0.0360777
0.176793,0.177726,-3.03933,-0.0200599,-0.152864,-0.324139,0.0128405,-0.17915,-0.00211692
0.174277,0.176512,-3.0455,0.00761067,-0.223286,-0.293748,0.0109694,-0.190141,0.0198731
0.169747,0.176533,-3.05091,0.0990332,-0.317565,-0.232553,0.0249768,-0.196834,0.0165282
0.163343,0.179472,-3.0554,0.259814,-0.39022,-0.156398,0.051435,-0.203204,0.00169426
0.156179,0.185406,-3.05877,0.348209,-0.368315,-0.0848893,0.0854941,-0.201748,0.0199255
0.150293,0.191748,-3.06085,0.289484,-0.282536,-0.0235134,0.100803,-0.219215,0.0541484
0.145405,0.196305,-3.0619,0.158378,-0.218884,-0.0271407,0.102259,-0.247992,0.0313874
0.140238,0.197987,-3.06317,0.0525069,-0.373702,-0.0768318,0.127234,-0.270146,-0.0355849
0.130676,0.199095,-3.06591,0.0658127,-0.623742,-0.190984,0.0990608,-0.243273,-0.206929
0.117902,0.19821,-3.07074,-0.100202,-0.693419,-0.268385,0.0932921,-0.197571,-0.33527
0.107419,0.19587,-3.07581,-0.00267191,-0.391541,-0.252827,0.0710918,-0.138067,-0.538783
0.107705,0.198875,-3.08157,0.336543,0.291799,-0.27928,0.0492244,0.00030072,-0.528504
0.12016,0.201726,-3.08785,-0.158214,0.297036,-0.300186,0.112784,0.0464602,-0.0484297
0.124154,0.192902,-3.09187,-0.555329,0.290668,-0.215029,0.219633,0.00938071,-0.235682
0.130768,0.184759,-3.09372,-0.101598,0.233916,-0.0106801,0.149778,0.169183,-0.409049
0.134108,0.192414,-3.09115,0.820501,0.172352,0.341717,0.104784,0.190176,-0.382279
0.133808,0.215291,-3.08457,1.27063,-0.121192,0.631658,0.077999,0.270623,-0.0610846
0.126046,0.243267,-3.07166,1.31639,-0.315015,0.960054,0.0373822,0.285995,0.1712
0.115351,0.270752,-3.05402,1.19508,-0.321581,1.04849,-0.086443,0.299881,0.287016
0.102215,0.294418,-3.0349,0.935065,-0.46628,1.00244,-0.135091,0.282584,0.360576
0.0856112,0.31148,-3.01807,0.624681,-0.700505,0.722502,-0.201158,0.219081,0.319641
0.0667205,0.321958,-3.00892,0.355562,-0.903881,0.192905,-0.266218,0.186878,0.238148
0.0488525,0.326279,-3.01156,0.0964535,-0.93318,-0.391207,-0.273796,0.181147,0.168737
0.0346822,0.325516,-3.02404,-0.126285,-0.893502,-0.76977,-0.214297,0.238331,0.110139
0.0235029,0.320805,-3.04192,-0.278593,-0.757365,-0.899001,-0.13804,0.270653,0.0330092
0.0167621,0.314484,-3.05981,-0.310673,-0.484971,-0.797635,-0.101526,0.283615,-0.0319198
0.0157205,0.307716,-3.07542,-0.349409,-0.080944,-0.7164,-0.0927708,0.229061,-0.0538955
0.0228953,0.300717,-3.08994,-0.311334,0.356969,-0.703357,-0.0862428,0.136262,-0.0529231
0.0372809,0.295203,-3.10484,-0.194696,0.62218,-0.743554,-0.113754,0.0968422,0.00745469
0.0557335,0.291151,-3.12066,-0.162039,0.722003,-0.790143,-0.105225,0.0453859,0.0995696
0.0741677,0.286429,-3.13695,-0.21762,0.658354,-0.801591,-0.0604913,0.0117157,0.178973
0.0905698,0.279976,3.13012,-0.313263,0.525363,-0.803765,-0.0210826,-0.000248432,0.220917
0.103772,0.271039,3.1145,-0.410552,0.366854,-0.749419,0.029667,-0.0174695,0.234082
0.111414,0.26137,3.10155,-0.409381,0.0618974,-0.607855,0.0502615,-0.0144682,0.200495
0.113081,0.252765,3.09155,-0.32406,-0.1568,-0.440506,0.0714547,-0.0254157,0.164296
0.109381,0.246561,3.08488,-0.235769,-0.34754,-0.294434,0.0570568,-0.0353634,0.123889
0.104074,0.242179,3.08031,-0.150325,-0.295249,-0.183149,0.0351314,-0.0618477,0.0897256
0.0991721,0.239509,3.07764,-0.103024,-0.223239,-0.114782,0.0089649,-0.0741452,0.0729282
0.0964685,0.23786,3.0763,-0.0420117,-0.10305,-0.0240617,0.0240993,-0.0919827,0.0651347
0.0957312,0.237354,3.07692,-0.0254564,0.0647182,0.0750903,0.0206812,-0.100455,0.050109
0.098276,0.236647,3.07964,-0.0806881,0.242496,0.183508,0.0281366,-0.130607,0.0312815
0.102705,0.234526,3.08467,-0.187585,0.284532,0.281319,0.0191632,-0.155176,0.00939995
0.10559,0.23046,3.09154,-0.281989,0.144307,0.326217,-0.00878163,-0.186049,-0.0349432
0.104439,0.224985,3.09828,-0.321944,-0.106369,0.253929,-0.0548845,-0.227394,-0.132473
0.104439,0.224985,3.09828,-0.321944,-0.106369,0.253929,-0.0548845,-0.227394,-0.132473
0.0996441,0.219213,3.10252,-0.291429,-0.261757,0.0955988,-0.0637734,-0.238136,-0.250834
0.0937627,0.213982,3.10367,-0.245894,-0.254946,-0.0243211,-0.0274642,-0.203464,-0.328842
0.0907989,0.209741,3.10316,-0.16462,-0.00905859,-0.0481352,0.00274356,-0.165939,-0.382481
0.0942757,0.208029,3.10259,0.00294232,0.336791,-0.0260222,0.0166276,-0.12878,-0.389888
0.103327,0.209669,3.10207,0.150671,0.53988,-0.00269069,0.0325688,-0.113733,-0.326448
0.114599,0.213177,3.10207,0.180964,0.56089,0.0438439,0.0562236,-0.0905123,-0.220606
0.124491,0.216876,3.10331,0.180374,0.445168,0.118928,0.0674751,-0.07199,-0.157036
0.13146,0.221301,3.10567,0.242684,0.304291,0.158157,0.0629258,-0.0689527,-0.133773
0.13593,0.227615,3.10826,0.35556,0.216998,0.184581,0.0596183,-0.0605243,-0.103504
0.139876,0.236054,3.11126,0.437035,0.270911,0.224835,0.0475824,-0.0236542,-0.0653037
0.146023,0.24568,3.11525,0.45957,0.451963,0.305059,0.056161,0.0214144,-0.0232456
0.155504,0.255725,3.12096,0.451046,0.634945,0.398258,0.0691066,0.0644396,0.0265306
0.16729,0.265922,3.1289,0.442449,0.720358,0.528922,0.0902728,0.0929385,0.0739548
0.178412,0.276658,3.13922,0.439685,0.662773,0.62411,0.0747803,0.108958,0.111133
0.187032,0.287067,-3.13232,0.392982,0.491227,0.694832,0.0817362,0.104307,0.156098
0.189748,0.297009,-3.11907,0.324513,0.187583,0.70941,0.0551352,0.101652,0.162229
0.187546,0.304566,-3.10595,0.183998,-0.03685,0.687706,0.0889167,0.10835,0.163964
0.179884,0.309166,-3.09181,0.02473,-0.299718,0.720931,0.111382,0.138447,0.144752
0.168362,0.31046,-3.07704,-0.140637,-0.382398,0.69059,0.100819,0.135483,0.0819182
0.156084,0.309042,-3.06224,-0.211436,-0.387419,0.689255,0.121017,0.161949,0.0231982
0.143961,0.307046,-3.04716,-0.190066,-0.358795,0.709611,0.115107,0.175565,-0.0276536
0.1325,0.306107,-3.0314,-0.0942452,-0.317019,0.778979,0.11672,0.190173,-0.0463294
0.12126,0.308198,-3.01382,0.0874697,-0.264198,0.917711,0.106356,0.20947,-0.0245436
0.111215,0.313211,-2.99413,0.176574,-0.143094,0.99415,0.0616958,0.198343,0.039649
0.10318,0.318882,-2.9739,0.168512,-0.0186524,0.976336,0.0256395,0.159498,0.140078
0.09752,0.32331,-2.95443,0.0826699,0.0364426,0.904342,-0.00822975,0.147663,0.229054
0.0922041,0.325584,-2.93673,-0.0198706,-0.0152701,0.791266,-0.0203113,0.123802,0.289661
0.0862048,0.325302,-2.92141,-0.137894,-0.108125,0.659141,-0.0131622,0.10617,0.307637
0.0797846,0.321371,-2.90896,-0.413177,-0.0616712,0.462175,-0.0173768,0.0800585,0.294128
0.0794407,0.309351,-2.90053,-0.790567,0.238572,0.29529,0.0222492,0.0572024,0.264408
0.0810937,0.294298,-2.89179,-0.727881,0.133809,0.426956,0.0180284,0.0638715,0.179325
0.0781763,0.283444,-2.88089,-0.426032,-0.131077,0.51419,0.00752379,0.0294506,0.108655
0.0687383,0.278143,-2.86926,-0.211262,-0.516434,0.586846,0.0129045,-0.0358852,0.109931
0.0498449,0.275217,-2.85583,-0.178782,-0.978796,0.658677,-0.0158752,-0.0905332,0.0699661
0.0250247,0.272502,-2.84233,-0.142235,-1.08876,0.621044,-0.0796102,-0.145241,-0.0396423
0.00189466,0.269556,-2.83064,-0.178562,-0.87901,0.486167,-0.181468,-0.180657,-0.153498
-0.0159301,0.265776,-2.82283,-0.188763,-0.751185,0.253866,-0.2438,-0.202323,-0.212586
-0.0316238,0.261938,-2.82065,-0.19723,-0.773429,-0.0392979,-0.260018,-0.237675,-0.228074
-0.0451504,0.257659,-2.82493,-0.255195,-0.645639,-0.369702,-0.27299,-0.261678,-0.270538
-0.051475,0.252292,-2.83712,-0.345504,-0.271518,-0.791889,-0.300625,-0.260248,-0.319836
-0.0470126,0.245767,-2.85762,-0.408095,0.22005,-1.14003,-0.265574,-0.222184,-0.311806
-0.0332276,0.237384,-2.88359,-0.541535,0.494678,-1.3375,-0.199903,-0.182381,-0.220795
-0.0159051,0.225865,-2.91293,-0.672985,0.524254,-1.50242,-0.143038,-0.181736,-0.186503
-0.000353828,0.21264,-2.94479,-0.648292,0.324935,-1.58313,-0.0592245,-0.155048,-0.22374
0.0100902,0.201373,-2.97597,-0.442039,0.0965003,-1.45543,0.0383774,-0.100507,-0.291924
0.0167134,0.195282,-3.00306,-0.111713,0.0616308,-1.20305,0.0966879,-0.0442227,-0.339838
0.0226782,0.196774,-3.02404,0.308116,0.132766,-0.851855,0.123223,0.0152389,-0.321018
0.0285602,0.206658,-3.03787,0.699302,0.156921,-0.492315,0.109396,0.0565544,-0.216761
0.0322175,0.223161,-3.04555,0.963501,0.0242488,-0.222477,0.0780076,0.0730434,-0.0788616
0.0317097,0.244076,-3.04905,1.13331,-0.148414,-0.0705972,0.0453461,0.0901855,0.0215548
0.0277397,0.267319,-3.05066,1.18781,-0.298615,-0.0225746,0.0075049,0.122941,0.0949404
0.0202849,0.291242,-3.0512,1.21236,-0.464097,0.0270411,-0.0124408,0.163668,0.137943
0.00930605,0.314961,-3.05117,1.14558,-0.630368,-0.00291576,-0.0431194,0.187846,0.163338
0.00930605,0.314961,-3.05117,1.14558,-0.630368,-0.00291576,-0.0431194,0.187846,0.163338
-0.00289816,0.336038,-3.05215,0.950601,-0.5777,-0.0711251,-0.0414687,0.221443,0.161044
-0.0136671,0.352383,-3.0545,0.674164,-0.573555,-0.201893,-0.0701046,0.228253,0.150013
-0.0214778,0.363505,-3.06143,0.438479,-0.470385,-0.475574,-0.0929948,0.190635,0.103523
-0.0271744,0.370529,-3.07416,0.252139,-0.564079,-0.72021,-0.0809656,0.190722,0.0590196
-0.0311849,0.37461,-3.09155,0.101317,-0.330313,-0.91916,-0.114186,0.187306,-0.0602961
-0.0211438,0.375676,-3.11379,-0.034562,0.514461,-1.17218,-0.189103,0.174977,-0.276415
0.00423306,0.375622,-3.1408,0.0387754,0.946172,-1.30587,-0.111772,0.184264,-0.214321
0.034775,0.377396,3.11461,0.188965,1.07794,-1.25624,-0.0317872,0.192186,-0.0705839
0.0671791,0.380764,3.08825,0.24931,1.20044,-1.19492,-0.0552866,0.196261,0.0337239
0.102286,0.383354,3.0624,0.199494,1.34551,-1.1823,-0.067581,0.17808,0.156012
0.139272,0.384064,3.03744,0.165017,1.39685,-1.08957,-0.0653088,0.160306,0.237767
0.172828,0.384291,3.01516,0.181356,1.11547,-0.966376,-0.0473657,0.158364,0.286697
0.199356,0.384729,2.99499,0.20713,0.766363,-0.869213,-0.0163866,0.10744,0.30875
0.217192,0.385154,2.9766,0.179656,0.328521,-0.800036,-0.00651079,0.0750431,0.315948
0.226733,0.383819,2.95934,-0.00164261,0.0287051,-0.808147,-0.0101975,0.0544726,0.314352
0.231008,0.378034,2.94443,-0.220262,-0.181796,-0.637069,0.0135104,0.0540301,0.294734
0.227873,0.371453,2.93516,-0.188465,-0.457016,-0.35606,0.0281782,0.0641719,0.19319
0.218994,0.36795,2.93081,-0.0690738,-0.561523,-0.134331,0.0391297,0.0340203,0.0950468
0.208737,0.367269,2.92979,0.0189321,-0.472702,0.0159166,0.0389403,-0.00790551,0.0239989
0.201067,0.368204,2.93104,0.0343453,-0.226899,0.11527,0.0137595,-0.0294636,-0.000798464
0.198095,0.36861,2.93409,-0.066038,0.0126214,0.164832,-0.0115704,-0.0602739,-0.0089981
0.19753,0.366283,2.93789,-0.229988,0.0280856,0.125316,-0.0356011,-0.119667,-0.0138119
0.195475,0.360876,2.94068,-0.348863,-0.148178,0.0161492,-0.0467573,-0.169778,-0.0410466
0.19054,0.353033,2.94115,-0.419929,-0.309305,-0.122152,-0.0311487,-0.188525,-0.100626
0.185067,0.343781,2.93909,-0.449917,-0.281181,-0.234442,0.0041987,-0.18117,-0.173146
0.183136,0.333905,2.93542,-0.480607,0.0391939,-0.295359,0.0286887,-0.156518,-0.226532
0.189087,0.322626,2.9313,-0.547598,0.396425,-0.279242,0.0648536,-0.151142,-0.236971
0.199111,0.311362,2.92859,-0.498182,0.480654,-0.194126,0.0984256,-0.152202,-0.20695
0.207789,0.301576,2.92736,-0.446846,0.315407,-0.122632,0.10468,-0.170062,-0.154949
0.210838,0.292698,2.92734,-0.421078,-0.016321,-0.063724,0.121002,-0.174049,-0.126081
0.207914,0.284854,2.92855,-0.368654,-0.200002,0.0157712,0.146885,-0.144062,-0.160346
0.202653,0.278801,2.93135,-0.259467,-0.264735,0.142709,0.158752,-0.0944256,-0.181152
0.197897,0.275729,2.93646,-0.150297,-0.0686551,0.274172,0.154126,-0.0393665,-0.183232
0.196654,0.275531,2.94437,0.00124309,0.122713,0.492558,0.171157,0.0263306,-0.146476
0.196176,0.280557,2.95682,0.236219,0.233729,0.771114,0.150927,0.094259,-0.0669292
0.197945,0.289398,2.97359,0.304967,0.346987,0.997969,0.14389,0.148672,0.0180088
0.19674,0.300897,2.99529,0.411014,0.186716,1.24206,0.120072,0.151282,0.118287
0.191428,0.313862,3.01999,0.383543,0.011157,1.31635,0.0981624,0.135806,0.175489
0.180373,0.325263,3.04636,0.264611,-0.299609,1.3567,0.0806502,0.127084,0.204121
0.162932,0.333716,3.07363,0.129737,-0.554631,1.33119,0.0494498,0.119762,0.167395
0.140583,0.339144,3.10024,0.0355992,-0.801274,1.23117,0.0349291,0.100365,0.0847829
0.11484,0.342099,3.12439,-0.0312738,-0.951348,1.05988,0.00334959,0.0905923,-0.0189409
0.0890911,0.343112,-3.13788,-0.0432816,-0.897289,0.93222,-0.0193799,0.091211,-0.130123
0.0668594,0.344734,-3.11893,0.0930529,-0.657438,0.87634,-0.0454381,0.127421,-0.228479
0.0511235,0.35042,-3.10049,0.396849,-0.29254,0.901186,-0.0576546,0.15805,-0.261293
0.0424015,0.362336,-3.08166,0.682594,0.0651286,0.910146,-0.0662479,0.169996,-0.165775
0.0401561,0.377167,-3.06357,0.690302,0.368264,0.822654,-0.0944372,0.158785,0.0164865
0.0451986,0.389127,-3.04856,0.415996,0.704026,0.610721,-0.120007,0.133302,0.173701
0.0578626,0.394093,-3.03823,0.0323087,0.932889,0.368394,-0.135932,0.114364,0.274385
0.0744163,0.392051,-3.03267,-0.235733,0.899666,0.138342,-0.119427,0.0879872,0.297714
0.0893908,0.386607,-3.03123,-0.296233,0.633744,-0.0430476,-0.0940202,0.0713379,0.28181
0.0991192,0.380687,-3.03284,-0.272632,0.285818,-0.143619,-0.0677942,0.0607066,0.26716
0.103344,0.375244,-3.03586,-0.246027,0.052866,-0.196405,-0.0613442,0.0507949,0.242914
0.105208,0.369749,-3.04035,-0.262133,-0.00485237,-0.282868,-0.0743112,0.0262981,0.203218
0.105208,0.369749,-3.04035,-0.262133,-0.00485237,-0.282868,-0.0743112,0.0262981,0.203218
0.107664,0.363741,-3.04659,-0.276401,0.0371782,-0.362011,-0.071434,0.00364622,0.156212
0.111079,0.356745,-3.05414,-0.357922,0.0171217,-0.410328,-0.0459037,-0.0168475,0.136922
0.112883,0.347508,-3.06175,-0.482752,-0.114586,-0.399143,0.000824943,-0.0505264,0.0970361
0.111602,0.336161,-3.06878,-0.564132,-0.249118,-0.394516,-0.000431083,-0.0840904,0.0138998
0.107727,0.323901,-3.07607,-0.580475,-0.382695,-0.430941,-0.0184925,-0.120072,-0.077346
0.100761,0.311518,-3.084,-0.562379,-0.557378,-0.44856,-0.0376435,-0.142807,-0.150584
0.0915206,0.300623,-3.09234,-0.431432,-0.591139,-0.448183,-0.0385881,-0.162,-0.23488
0.0832789,0.293144,-3.10073,-0.250707,-0.458474,-0.415547,-0.0355972,-0.164131,-0.276416
0.0788234,0.288428,-3.10853,-0.187238,-0.203275,-0.366972,-0.049656,-0.154641,-0.247059
0.0788137,0.283704,-3.11515,-0.241548,-0.00958587,-0.308301,-0.0485462,-0.168542,-0.196642
0.0806509,0.278213,-3.12104,-0.250867,0.00381169,-0.316406,-0.0534026,-0.195897,-0.179349
0.0814198,0.272848,-3.12798,-0.242444,-0.140018,-0.407736,-0.0811137,-0.203486,-0.158881
0.0783414,0.267114,-3.13713,-0.262547,-0.420018,-0.519876,-0.102326,-0.193891,-0.143448
0.0702317,0.260898,3.13472,-0.264282,-0.672231,-0.61328,-0.111561,-0.155733,-0.181883
0.0587235,0.255893,3.12195,-0.128036,-0.797879,-0.639832,-0.0982826,-0.104313,-0.235051
0.046609,0.255301,3.10912,0.136913,-0.67954,-0.600689,-0.0780562,-0.0466724,-0.252626
0.0405069,0.25914,3.09725,0.260323,-0.200925,-0.528122,-0.067815,0.00980458,-0.1906
0.0434575,0.263348,3.08703,0.189741,0.191112,-0.443915,-0.0723568,0.0576471,-0.0652949
0.0510593,0.266341,3.07819,0.17381,0.291182,-0.403178,-0.0743383,0.0687754,0.00507867
0.0582181,0.270387,3.06974,0.286716,0.18725,-0.390664,-0.0885267,0.102569,0.0368183
0.0622332,0.276678,3.06144,0.389928,-0.00405846,-0.368195,-0.0872936,0.14337,0.0717545
0.0632245,0.284728,3.05343,0.459226,-0.113692,-0.352157,-0.0744477,0.16496,0.0848957
0.0621043,0.294077,3.04576,0.552011,-0.215462,-0.2906,-0.0822729,0.188905,0.103067
0.0551963,0.305998,3.0395,0.628326,-0.676216,-0.310449,-0.126641,0.225501,0.109107
0.0437811,0.316976,3.02976,0.51729,-0.731155,-0.555689,-0.127662,0.151355,0.10598
0.0329712,0.325465,3.01545,0.378857,-0.815977,-0.779828,-0.16095,0.198549,0.0776483
0.0228477,0.330473,2.99589,0.167205,-0.804106,-1.06255,-0.137744,0.201551,0.0560393
0.0163573,0.331379,2.97098,-0.00330521,-0.635223,-1.27892,-0.102198,0.19667,0.000155687
0.0145109,0.329952,2.9427,-0.0997784,-0.473963,-1.39567,-0.0813699,0.236794,-0.025996
0.0169869,0.32646,2.91269,-0.205295,-0.224527,-1.45459,-0.0457826,0.223952,-0.0228019
0.0256753,0.320995,2.8818,-0.27624,0.122645,-1.49266,-0.0387044,0.197896,-0.0172111
0.0413498,0.313982,2.85062,-0.302993,0.451413,-1.49091,-0.0428724,0.165477,0.000285983
0.061024,0.307728,2.82013,-0.16059,0.551176,-1.45464,-0.0349432,0.141639,0.0596793
0.0806156,0.304061,2.79008,-0.0210303,0.510203,-1.44917,-0.0223605,0.10085,0.142818
0.0994089,0.301212,2.75983,-0.0212096,0.472404,-1.44945,0.000300452,0.0723582,0.209662
0.116996,0.297164,2.73061,-0.0837848,0.430138,-1.36986,0.0236715,0.0686885,0.24567
0.13244,0.291195,2.70391,-0.186926,0.336594,-1.24576,0.0478068,0.050174,0.273182
0.144242,0.283046,2.68035,-0.312631,0.181241,-1.12004,0.0665671,0.0151061,0.277859
0.152609,0.272573,2.65949,-0.408869,0.0944678,-1.03314,0.0735355,-0.0300909,0.244079
0.159158,0.261331,2.64094,-0.412997,0.0574177,-0.889893,0.0984964,-0.0468546,0.184382
0.16292,0.25203,2.62601,-0.252866,-0.0674513,-0.700529,0.0739874,-0.077275,0.0860624
0.163618,0.246779,2.6135,-0.0750454,-0.12024,-0.567087,0.106664,-0.119106,0.0251126
0.162974,0.245457,2.60475,0.0764804,-0.177733,-0.273706,0.121556,-0.113888,-0.0013997
0.159492,0.247018,2.60133,0.11404,-0.189817,-0.0534905,0.117718,-0.142144,-0.0199861
0.156025,0.249431,2.60194,0.095285,-0.216233,0.127769,0.0927021,-0.177342,-0.0482877
0.150149,0.249989,2.60424,-0.0675303,-0.254268,0.0965753,0.0838396,-0.238812,-0.0789126
0.143451,0.248467,2.60645,-0.101351,-0.395624,0.0622004,0.0255542,-0.245064,-0.182114
0.135639,0.246812,2.60599,-0.0427601,-0.36151,-0.143342,0.00339541,-0.280512,-0.271693
0.130887,0.245979,2.60104,0.0101493,-0.215172,-0.328554,0.0099505,-0.243447,-0.308721
0.131078,0.244982,2.59368,-0.0430761,0.0680466,-0.38584,0.0540922,-0.19812,-0.280124
0.137067,0.241407,2.58616,-0.220291,0.324449,-0.37325,0.089568,-0.166235,-0.225696
0.145209,0.234694,2.58018,-0.347745,0.309699,-0.292324,0.121093,-0.142378,-0.201392
0.150287,0.227118,2.57632,-0.311598,0.108616,-0.190426,0.148603,-0.120518,-0.232784
0.151683,0.223217,2.57436,-0.017082,0.0112315,-0.0554299,0.149553,-0.0668249,-0.291805
0.151683,0.223217,2.57436,-0.017082,0.0112315,-0.0554299,0.149553,-0.0668249,-0.291805
0.152543,0.226776,2.57489,0.35266,0.115091,0.176489,0.171656,-0.000474408,-0.263511
0.155873,0.236953,2.57986,0.538369,0.340061,0.461954,0.170415,0.0720832,-0.14811
0.162897,0.248702,2.58986,0.437035,0.627116,0.676937,0.174599,0.0999365,-0.0034526
0.174587,0.258196,2.60457,0.286724,0.88753,0.903582,0.163736,0.124417,0.098242
0.187117,0.267374,2.62455,0.28447,0.831187,1.15418,0.133083,0.16456,0.149034
0.19521,0.278086,2.64842,0.332779,0.622112,1.2963,0.123232,0.153941,0.187429
0.19772,0.28977,2.67426,0.311514,0.332888,1.37225,0.110751,0.138698,0.225939
0.19249,0.30004,2.70214,0.159176,-0.0509727,1.45963,0.107648,0.119792,0.260496
0.178265,0.307163,2.73251,0.0184193,-0.450526,1.50998,0.0775898,0.113696,0.224528
0.15782,0.311607,2.76299,-0.0621159,-0.628154,1.41363,0.017334,0.0999997,0.14564
0.136993,0.313319,2.79064,-0.160612,-0.589053,1.21549,-0.0157351,0.0829521,0.0888417
0.11885,0.312322,2.81474,-0.220433,-0.506884,1.06307,-0.0063282,0.0972773,0.0440766
0.103201,0.309827,2.83611,-0.235394,-0.365221,0.957639,0.0109873,0.121789,0.00582123
0.0925184,0.307595,2.85642,-0.168825,-0.074033,0.96715,0.0271994,0.141681,-0.0226608
0.08847,0.306353,2.87734,-0.147656,0.304566,1.02322,0.0289794,0.158777,0.0112649
0.0904814,0.305231,2.89984,-0.158059,0.540763,1.10473,0.0232393,0.138389,0.0964825
0.0944606,0.304207,2.9235,-0.143758,0.532091,1.13019,0.000861347,0.101966,0.168795
0.0968131,0.303817,2.94691,-0.113695,0.400818,1.08818,-0.0231889,0.0520184,0.208782
0.096629,0.30364,2.96872,-0.10999,0.23838,0.980738,-0.0540708,0.00427181,0.225636
0.0938648,0.303099,2.98779,-0.116334,0.0508258,0.834017,-0.0867386,-0.0306989,0.221928
0.088158,0.302706,3.00401,-0.0638027,-0.149433,0.707817,-0.104106,-0.0566321,0.185003
0.0791199,0.303198,3.01746,0.00159746,-0.342976,0.58151,-0.0904621,-0.085856,0.153977
0.0677405,0.30386,3.02824,-0.03432,-0.458056,0.452413,-0.0788395,-0.106251,0.126057
0.0553014,0.302355,3.03645,-0.164155,-0.553191,0.323129,-0.0623332,-0.134467,0.077263
0.041015,0.298835,3.04195,-0.194963,-0.727127,0.18011,-0.0719774,-0.153286,-0.0428042
0.0241973,0.295452,3.04398,-0.146509,-0.889858,0.00235923,-0.0722494,-0.166958,-0.159729
0.00627982,0.293463,3.04231,-0.0468739,-0.928523,-0.154021,-0.0771478,-0.155357,-0.257508
-0.00996319,0.293417,3.03803,0.0322989,-0.808054,-0.243383,-0.0892329,-0.119497,-0.302476
-0.0227228,0.294469,3.03265,0.0409621,-0.639943,-0.270779,-0.0840005,-0.089956,-0.298357
-0.033176,0.294543,3.02641,-0.0756339,-0.605048,-0.336628,-0.0849883,-0.0853539,-0.251233
-0.0430786,0.291181,3.01785,-0.297782,-0.641387,-0.488566,-0.109977,-0.107707,-0.228164
-0.0516586,0.284032,3.00468,-0.456572,-0.573775,-0.746318,-0.138086,-0.124938,-0.282802
-0.0566717,0.275456,2.98622,-0.483088,-0.435359,-0.969334,-0.150404,-0.0651116,-0.350996
-0.0575038,0.267671,2.9642,-0.400245,-0.230081,-1.09134,-0.131663,0.0105034,-0.389423
-0.0545863,0.262598,2.94115,-0.215886,-0.0941892,-1.08798,-0.0877988,0.0888448,-0.362899
-0.0498104,0.262544,2.91969,0.12546,0.0101338,-0.967868,-0.0424163,0.150713,-0.311878
-0.0438965,0.270107,2.90233,0.551384,0.130361,-0.725855,-0.0254424,0.219624,-0.216675
-0.0372635,0.284704,2.89159,0.830935,0.233239,-0.36657,-0.0369683,0.288427,-0.0623143
-0.0313351,0.302281,2.8878,0.894446,0.230038,-0.0891803,-0.076307,0.280487,0.0873395
-0.0275013,0.319384,2.88716,0.790216,0.113818,-0.0804255,-0.144211,0.229509,0.186817
-0.0246097,0.3328,2.88278,0.525437,0.0622963,-0.381443,-0.182248,0.156891,0.24259
-0.0210109,0.341165,2.87154,0.313764,-0.124194,-0.709375,-0.21743,0.130575,0.240665
-0.0201127,0.346607,2.85241,0.199767,-0.439806,-1.09795,-0.195608,0.141238,0.221194
-0.0231486,0.350316,2.82672,0.122996,-0.715266,-1.29134,-0.113361,0.169855,0.183382
-0.0275971,0.352582,2.79889,0.0353081,-0.635771,-1.32222,-0.0868358,0.212433,0.127
-0.0274138,0.353126,2.77121,-0.0524803,-0.274233,-1.27915,-0.0611492,0.213142,0.0889142
-0.0191471,0.35187,2.74471,-0.12803,0.179768,-1.21635,-0.0437948,0.189106,0.0921984
-0.00310387,0.349138,2.71926,-0.165266,0.525746,-1.1828,-0.0341928,0.145936,0.126874
0.0171833,0.345633,2.69446,-0.167347,0.627591,-1.16106,-0.0166546,0.0991529,0.187915
0.0368709,0.341968,2.67045,-0.13372,0.51249,-1.10456,0.00402918,0.0704336,0.227253
0.0519445,0.338856,2.64833,-0.0822518,0.243663,-1.0018,0.0305143,0.0479237,0.234496
0.06054,0.336686,2.62909,-0.0200689,-0.0210761,-0.814386,0.0442123,0.023018,0.211947
0.0623681,0.336167,2.61401,0.0607333,-0.274081,-0.620471,0.0225667,0.00977248,0.159994
0.05942,0.337767,2.60254,0.172479,-0.364878,-0.463149,0.0141913,-0.0258275,0.0829758
0.05942,0.337767,2.60254,0.172479,-0.364878,-0.463149,0.0141913,-0.0258275,0.0829758
0.0562526,0.342112,2.59368,0.303753,-0.23045,-0.353226,-0.0158401,-0.0522481,0.0217806
0.0553162,0.348251,2.58693,0.329065,-0.103203,-0.245037,-0.0218941,-0.0649197,0.0286976
0.0546285,0.353988,2.5826,0.252189,-0.151666,-0.135828,-0.0123213,-0.0866629,0.0469502
0.0494819,0.357445,2.58057,0.0988133,-0.469279,-0.0464163,-0.0161689,-0.120654,0.0328763
0.0367971,0.35805,2.5796,-0.0258725,-0.825058,-0.0705506,-0.0702528,-0.182617,-0.0759692
0.0194656,0.356511,2.57601,-0.117374,-0.988006,-0.30601,-0.144232,-0.248237,-0.205819
0.00432941,0.352336,2.56503,-0.352982,-0.818096,-0.781639,-0.185048,-0.264619,-0.299553
0.00538345,0.34068,2.54387,-0.750062,0.199617,-1.14318,-0.12748,-0.23356,-0.363104
0.023073,0.325715,2.51985,-0.660072,0.689753,-1.11085,-0.017204,-0.094091,-0.374485
0.04565,0.314873,2.4995,-0.360533,0.909891,-0.837428,0.135351,-0.0492366,-0.297332
0.0691644,0.309235,2.48621,-0.161596,1.03271,-0.456851,0.180385,-0.0241913,-0.184797
0.0912921,0.306348,2.48074,-0.095005,0.975954,-0.106286,0.163598,-0.030071,-0.0685344
0.107571,0.305192,2.48144,-0.0223889,0.644578,0.142934,0.155349,-0.0627129,-0.00846529
0.114907,0.305918,2.48571,0.0457095,0.225299,0.256428,0.140028,-0.0784091,0.018892
0.114311,0.307843,2.49136,0.0787435,-0.081623,0.299817,0.129794,-0.0744072,0.00907141
0.110146,0.310204,2.49793,0.0821003,-0.0851467,0.353745,0.10533,-0.0318593,-0.0268881
0.107775,0.31297,2.50592,0.113159,0.106808,0.427979,0.088897,0.0125518,-0.0643966
0.109089,0.316685,2.51532,0.169497,0.304257,0.516817,0.107341,0.0463116,-0.0549026
0.112512,0.322689,2.52774,0.306053,0.401145,0.748852,0.125927,0.0953315,-0.0109948
0.114328,0.331863,2.54511,0.407801,0.318251,0.984077,0.124079,0.126571,0.056071
0.111762,0.3427,2.5666,0.433278,0.131723,1.15333,0.116376,0.118106,0.114106
0.103537,0.35342,2.59145,0.372269,-0.113279,1.28395,0.115575,0.115991,0.149464
0.0896678,0.362345,2.61845,0.264758,-0.295838,1.30648,0.0863565,0.102789,0.144065
0.0734993,0.368204,2.64502,0.109719,-0.362784,1.20533,0.0300757,0.079987,0.123877
0.0565098,0.370218,2.66863,-0.0449395,-0.496424,0.997905,0.0156299,0.0583366,0.0847216
0.0385423,0.369263,2.68732,-0.123486,-0.600917,0.751054,0.0290975,0.0610781,0.020234
0.0228441,0.366556,2.70158,-0.192538,-0.410396,0.595919,0.0515361,0.104588,-0.0369677
0.0142834,0.362327,2.71399,-0.244985,0.0371619,0.584104,0.0767323,0.15894,-0.0571471
0.0156542,0.357637,2.72734,-0.234635,0.563216,0.679776,0.0786138,0.195566,-0.0264771
0.0242951,0.35391,2.74364,-0.154405,0.814246,0.84771,0.0589999,0.202724,0.0651436
0.033213,0.352639,2.76321,-0.03364,0.718707,0.972813,0.0233866,0.178322,0.169621
0.0383347,0.352886,2.78399,-0.0350769,0.532399,0.964071,0.00105411,0.12405,0.23899
0.0413327,0.352061,2.80362,-0.122218,0.460566,0.876483,-0.042418,0.0668942,0.261639
0.0435003,0.350253,2.82162,-0.103653,0.360894,0.821341,-0.0785661,0.0437276,0.251798
0.0430223,0.349638,2.83867,-0.0388325,0.164091,0.77803,-0.0834367,0.0262123,0.248244
0.0389575,0.349355,2.85424,-0.0624355,-0.0321162,0.685383,-0.0916486,-0.00925505,0.260261
0.0321529,0.34789,2.86764,-0.138936,-0.190061,0.562306,-0.0880676,-0.0506868,0.249469
0.0234443,0.344256,2.87825,-0.258897,-0.318119,0.437754,-0.0830409,-0.0805483,0.209134
0.0126268,0.337719,2.887,-0.413096,-0.476516,0.377913,-0.092739,-0.102777,0.151293
-0.0019329,0.328238,2.89415,-0.531369,-0.79102,0.284598,-0.116716,-0.136105,0.0714421
-0.0239232,0.31698,2.89856,-0.584765,-1.29871,0.140049,-0.132956,-0.17199,-0.0405541
-0.0546946,0.305161,2.89856,-0.587644,-1.73343,-0.102372,-0.158628,-0.193342,-0.196676
-0.0881752,0.294276,2.89332,-0.527703,-1.70069,-0.303705,-0.160262,-0.195258,-0.350737
-0.114626,0.285161,2.88495,-0.468592,-1.11798,-0.38995,-0.167542,-0.148147,-0.441533
-0.126224,0.277326,2.87589,-0.415906,-0.279942,-0.367076,-0.145095,-0.0984537,-0.453194
-0.122708,0.270318,2.86834,-0.377666,0.33814,-0.279253,-0.0971323,-0.106039,-0.380917
-0.112049,0.263737,2.86137,-0.35911,0.498455,-0.338479,-0.118645,-0.145636,-0.273496
-0.100735,0.257623,2.85211,-0.34348,0.351748,-0.499846,-0.141279,-0.162347,-0.204713
-0.093905,0.252166,2.8394,-0.320236,0.000947779,-0.668501,-0.123539,-0.127558,-0.177219
-0.0927019,0.247595,2.82376,-0.274969,-0.224048,-0.799872,-0.102652,-0.0793894,-0.208227
-0.0935034,0.244462,2.80584,-0.207674,-0.297477,-0.909263,-0.0876314,-0.00984231,-0.233159
-0.0936051,0.243641,2.78691,0.00395246,-0.156684,-0.873782,-0.0135554,0.0511589,-0.236984
-0.0912259,0.249038,2.77155,0.409969,0.0126076,-0.643383,0.00496074,0.157208,-0.216521
-0.0869806,0.261638,2.76195,0.725589,0.164324,-0.424776,0.0149143,0.189648,-0.0855358
-0.0869806,0.261638,2.76195,0.725589,0.164324,-0.424776,0.0149143,0.189648,-0.0855358
-0.0817682,0.277732,2.75532,0.798,0.176521,-0.374688,-0.00108845,0.163565,0.0594492
-0.0761583,0.293603,2.74837,0.733354,0.15971,-0.4145,-0.0180525,0.167058,0.144023
-0.0721378,0.308384,2.74063,0.695703,0.0138558,-0.443867,-0.0408219,0.206366,0.178298
-0.0702416,0.322441,2.73128,0.635651,-0.119427,-0.555155,-0.0450512,0.212406,0.195271
-0.0696056,0.334588,2.71875,0.477455,-0.214957,-0.7288,-0.0402339,0.204921,0.208387
-0.0686216,0.342816,2.7018,0.22562,-0.23796,-0.924709,-0.0384189,0.204045,0.220525
-0.0664956,0.345888,2.68077,-0.042805,-0.263116,-1.06023,-0.031605,0.212476,0.204473
-0.0629559,0.344195,2.65744,-0.270323,-0.132393,-1.12246,-0.0198621,0.2051,0.153395
-0.0544139,0.338012,2.63291,-0.472086,0.185162,-1.14657,-0.0155849,0.17997,0.0857421
-0.0392926,0.328891,2.6087,-0.535061,0.513069,-1.112,-0.0181209,0.152889,0.0308452
-0.0190377,0.319348,2.58502,-0.463336,0.755835,-1.09947,-0.00374599,0.103345,0.0261116
