attitude_roll,attitude_pitch,attitude_yaw,rotationRate_x,rotationRate_y,rotationRate_z,acceleration_x,acceleration_y,acceleration_z
-0.0012954,0.191889,0.00012467,-0.106749,-0.296084,-1.89696,-0.00750218,0.11355,-0.180526
0.00148453,0.190381,-0.0378207,-0.0400303,-0.155948,-1.83221,-0.0100484,0.120691,-0.168063
0.00591164,0.19044,-0.0742804,0.0627906,-0.108007,-1.76155,-0.0106113,0.108832,-0.124938
0.0097412,0.192144,-0.109588,0.11771,-0.188828,-1.72405,-0.0259955,0.0910337,-0.0435501
0.0116756,0.193803,-0.144419,0.081102,-0.281685,-1.7084,-0.0398534,0.0672714,0.0333971
0.0121885,0.194711,-0.179428,0.0590982,-0.336142,-1.74241,-0.0544536,0.0406201,0.0570654
0.0118525,0.195497,-0.215074,0.0623598,-0.38372,-1.75703,-0.0489037,0.037195,0.0607622
0.0107792,0.1964,-0.250337,0.0631393,-0.407656,-1.70514,-0.0128758,0.0402935,0.069189
0.0091115,0.196934,-0.284111,0.0206654,-0.418261,-1.614,0.0179202,0.0433963,0.0797972
0.00708846,0.196561,-0.315985,-0.0311741,-0.405067,-1.5264,0.0386261,0.0249639,0.0708072
0.00506337,0.195158,-0.34628,-0.0910078,-0.391769,-1.45791,0.0446849,0.00550646,0.0645005
0.00297496,0.192561,-0.37538,-0.153761,-0.373752,-1.41312,0.0435736,-0.0235931,0.0510016
0.00100051,0.189322,-0.403708,-0.158723,-0.359734,-1.38337,0.0458313,-0.0452815,0.0169979
-0.000749625,0.185849,-0.431583,-0.196804,-0.353398,-1.35887,0.0565076,-0.0512569,-0.0043422
-0.00374159,0.181403,-0.458239,-0.242197,-0.436863,-1.25366,0.0885496,-0.0467326,-0.0186736
-0.00884023,0.177198,-0.482022,-0.174133,-0.485853,-1.09277,0.103535,-0.024228,-0.080669
-0.014457,0.175373,-0.50276,-0.0337329,-0.406892,-0.963125,0.0966933,-0.0189451,-0.124038
-0.0177165,0.176113,-0.521318,0.0680643,-0.240994,-0.880934,0.0848397,-0.0323616,-0.105985
-0.0184287,0.178225,-0.538811,0.100541,-0.159853,-0.85515,0.0748527,-0.0479828,-0.0326545
-0.0186291,0.180173,-0.555921,0.0503186,-0.175497,-0.835476,0.0686652,-0.0513302,0.0458063
-0.019358,0.180546,-0.572635,-0.0457966,-0.196692,-0.812363,0.072219,-0.0478043,0.0815992
-0.0204856,0.179199,-0.588717,-0.11536,-0.19501,-0.770144,0.0774224,-0.0425683,0.0768284
-0.0213034,0.176823,-0.603941,-0.152727,-0.155209,-0.728681,0.0800517,-0.0470891,0.0562056
-0.02149,0.173956,-0.618233,-0.159027,-0.117202,-0.676157,0.0774079,-0.0564429,0.0344393
-0.0215045,0.171136,-0.631445,-0.146467,-0.111577,-0.620658,0.0757999,-0.0617846,0.017345
-0.0214901,0.168631,-0.643152,-0.135029,-0.0775439,-0.527462,0.0837447,-0.0585314,0.00363898
-0.0207957,0.166201,-0.652895,-0.128891,-0.0117771,-0.426201,0.0857084,-0.0620565,0.00106758
-0.0189262,0.164037,-0.660561,-0.102615,0.0796389,-0.32683,0.0856724,-0.0723851,0.000696898
-0.0157011,0.162346,-0.666159,-0.0817521,0.14329,-0.222559,0.0837923,-0.082598,0.0160107
-0.0120723,0.16073,-0.669641,-0.09357,0.14982,-0.122309,0.0767053,-0.0913347,0.0468075
-0.00911459,0.158477,-0.671134,-0.135153,0.12602,-0.0256941,0.0659308,-0.0954052,0.0677195
-0.00678198,0.155396,-0.670975,-0.167955,0.112223,0.0407157,0.0580155,-0.102751,0.0578434
-0.00496379,0.151882,-0.669551,-0.181101,0.0918841,0.108904,0.0554743,-0.102577,0.0365258
-0.00332206,0.148298,-0.666568,-0.170168,0.127843,0.194382,0.0651905,-0.0962181,0.00121039
-0.000697003,0.145435,-0.661741,-0.111409,0.214347,0.286174,0.0672332,-0.0877585,-0.030119
0.00364882,0.143885,-0.655027,-0.0493056,0.31163,0.382005,0.0769706,-0.0820293,-0.0303597
0.00915051,0.143373,-0.646195,-0.0154775,0.355269,0.494081,0.0836254,-0.0770423,0.00275975
0.0142601,0.143128,-0.63512,-0.0290944,0.29885,0.602773,0.0868688,-0.0800161,0.0463909
0.0168378,0.142414,-0.622076,-0.061914,0.14062,0.68309,0.0804404,-0.0852095,0.064321
0.0156932,0.140968,-0.607749,-0.107159,-0.0396203,0.739509,0.0739864,-0.0930493,0.044173
0.0122477,0.138785,-0.592187,-0.12372,-0.0662935,0.802705,0.06656,-0.0809444,-0.0195466
0.00905603,0.136789,-0.575687,-0.0872082,-0.0226905,0.827653,0.0396737,-0.074636,-0.0907872
0.0064886,0.135789,-0.559127,-0.0239726,-0.0247134,0.817703,0.0195111,-0.0778998,-0.125773
0.00361359,0.136314,-0.542827,0.0710982,-0.035986,0.803253,0.0164395,-0.076739,-0.150854
0.00106325,0.138951,-0.526614,0.186972,0.00992772,0.811384,0.0253905,-0.062225,-0.165538
-0.000232338,0.143868,-0.510055,0.303191,0.097173,0.831982,0.0278178,-0.0462035,-0.154511
-2.9786e-05,0.150918,-0.493145,0.393249,0.169248,0.845399,0.0198506,-0.030349,-0.112593
0.00116221,0.159383,-0.476133,0.447029,0.200613,0.837516,0.011441,-0.0195592,-0.0436049
0.00227193,0.168422,-0.45961,0.450342,0.179017,0.792791,-0.00570353,-0.0097256,0.0241932
0.00292005,0.176846,-0.444285,0.38354,0.142723,0.7201,-0.0192624,-0.00542481,0.0756163
0.00194311,0.183695,-0.430797,0.299195,-0.00309324,0.609295,-0.021167,-0.0107111,0.109623
-0.00130661,0.188844,-0.419596,0.216377,-0.10453,0.501464,-0.00872639,-0.0111138,0.111295
-0.00130661,0.188844,-0.419596,0.216377,-0.10453,0.501464,-0.00872639,-0.0111138,0.111295
-0.00523587,0.192759,-0.410066,0.186987,-0.090123,0.439663,0.0087552,0.00788239,0.0770928
-0.00777384,0.196558,-0.401653,0.195891,0.00513308,0.387467,0.0291847,0.0158212,0.0387746
-0.0079198,0.200349,-0.394318,0.184051,0.121278,0.335787,0.0426734,0.0210027,0.0391858
-0.0057709,0.20384,-0.388006,0.165248,0.212452,0.28171,0.0511378,0.0247428,0.0654618
-0.00230092,0.206682,-0.382876,0.113172,0.233727,0.219135,0.0495695,0.0265485,0.103867
0.00141733,0.20846,-0.379054,0.0680497,0.216128,0.152174,0.0554981,0.0202923,0.129519
0.00526373,0.209528,-0.376687,0.0310079,0.221161,0.0799609,0.0516904,0.0116937,0.132001
0.0094723,0.209442,-0.375558,-0.0412983,0.221164,0.0305416,0.0566375,0.00738281,0.141327
0.0136027,0.20784,-0.375326,-0.120096,0.186856,-0.012286,0.0622672,0.00302307,0.132395
0.017122,0.204731,-0.376075,-0.18815,0.161208,-0.0628454,0.0630093,-0.0112653,0.113738
0.0205779,0.200502,-0.377778,-0.227556,0.159368,-0.108929,0.0535967,-0.0147207,0.0797195
0.0246024,0.195861,-0.380188,-0.224362,0.196925,-0.13558,0.0500129,-0.0109709,0.0405203
0.0294163,0.191443,-0.383082,-0.211563,0.225766,-0.159857,0.0471751,-0.0136579,0.0220317
0.0347839,0.18715,-0.386258,-0.205474,0.251985,-0.162983,0.0468088,-0.0262822,0.0243789
0.0405981,0.183007,-0.38934,-0.196478,0.284074,-0.154931,0.031502,-0.0254711,0.032158
0.0471148,0.178962,-0.392271,-0.198669,0.30281,-0.156914,0.0176807,-0.0389566,0.0486414
0.0533187,0.174613,-0.395467,-0.221723,0.256321,-0.180001,-0.00226638,-0.0561004,0.0733601
0.0582016,0.169971,-0.398955,-0.218944,0.164134,-0.184316,0.000866465,-0.0722557,0.0804937
0.0610937,0.165737,-0.402398,-0.183447,0.0745718,-0.181716,-0.00264766,-0.0788257,0.0703334
0.0627453,0.162049,-0.405896,-0.175037,0.049908,-0.188051,-0.00762239,-0.0888726,0.0664386
0.0645499,0.157892,-0.40951,-0.21914,0.0616898,-0.200079,-0.0116397,-0.0985157,0.0758973
0.0662245,0.152834,-0.413483,-0.255021,0.0477609,-0.227653,-0.0156611,-0.111661,0.0802475
0.0672775,0.147118,-0.418041,-0.284443,-0.0274964,-0.258402,-0.0191678,-0.127368,0.0745757
0.0665507,0.141027,-0.423121,-0.287467,-0.132177,-0.285012,-0.012222,-0.14307,0.050472
0.0632274,0.134859,-0.428577,-0.293339,-0.272282,-0.289699,0.0139265,-0.157954,0.0183746
0.0575609,0.128727,-0.433658,-0.289048,-0.347837,-0.247416,0.0409998,-0.154084,-0.030653
0.0517866,0.122637,-0.437814,-0.31395,-0.298259,-0.210996,0.0770127,-0.170776,-0.0803285
0.0458862,0.115177,-0.441924,-0.420689,-0.353097,-0.231093,0.0752682,-0.168509,-0.12022
0.0384508,0.105793,-0.446214,-0.486326,-0.430149,-0.237447,0.0832183,-0.154337,-0.204751
0.0305344,0.0965596,-0.450712,-0.399718,-0.37871,-0.24232,0.0962452,-0.15002,-0.322978
0.0249294,0.0904447,-0.455162,-0.197433,-0.210701,-0.207824,0.110017,-0.135768,-0.408968
0.0229463,0.0881871,-0.458295,-0.0422214,-0.0254723,-0.10594,0.132907,-0.103898,-0.388212
0.0236044,0.0879382,-0.459595,0.00415512,0.0569745,-0.036512,0.132358,-0.092946,-0.311759
0.0241461,0.0880292,-0.460152,0.00266452,-0.0285668,-0.0289498,0.0858282,-0.0806025,-0.247433
0.022366,0.0882687,-0.461028,0.0367252,-0.154436,-0.0593777,0.0441292,-0.0624501,-0.222877
0.0192744,0.0907678,-0.462582,0.246425,-0.116506,-0.0820602,0.0235002,-0.0340516,-0.256117
0.0202515,0.0988442,-0.464264,0.574504,0.219053,-0.0582287,0.0145777,0.00978562,-0.269383
0.0282751,0.113179,-0.465078,0.851229,0.555591,0.0118711,-0.00295919,0.0612867,-0.156133
0.0410839,0.131697,-0.465229,0.968172,0.678533,0.0225237,-0.0487581,0.0881795,0.0240581
0.0530291,0.150019,-0.465805,0.839828,0.445818,-0.000482204,-0.0978038,0.0947386,0.206449
0.0569345,0.164154,-0.467413,0.569582,-0.100353,-0.09719,-0.127397,0.081631,0.296772
0.0506486,0.172411,-0.471363,0.288906,-0.558116,-0.248463,-0.140056,0.0775638,0.27015
0.0385431,0.176128,-0.478181,0.131966,-0.729339,-0.412185,-0.150105,0.089129,0.135593
0.0259796,0.177578,-0.487851,0.0512345,-0.671374,-0.518134,-0.116068,0.112315,0.0221046
0.0169783,0.178202,-0.498311,0.0456489,-0.38471,-0.495322,-0.0523227,0.131576,-0.0549336
0.0148447,0.179979,-0.507198,0.166792,0.0232076,-0.372259,-0.00836353,0.149315,-0.0882518
0.0203149,0.18506,-0.513793,0.345405,0.369102,-0.280549,-0.0131765,0.138779,-0.0350236
0.0295753,0.192378,-0.519351,0.364691,0.420442,-0.257426,-0.0289339,0.108247,0.126036
0.0384335,0.198104,-0.525044,0.21043,0.347387,-0.292726,-0.0537095,0.0742374,0.284374
0.0459607,0.199999,-0.531896,0.00879033,0.263945,-0.372163,-0.0718384,0.0432119,0.350339
0.0513979,0.198485,-0.539806,-0.107826,0.108835,-0.406927,-0.0525181,0.00748681,0.350517
0.0513979,0.198485,-0.539806,-0.107826,0.108835,-0.406927,-0.0525181,0.00748681,0.350517
0.0527778,0.195818,-0.547747,-0.100951,-0.115339,-0.375558,-0.0294063,-0.00138423,0.30365
0.0505838,0.193885,-0.55466,-0.0640406,-0.220503,-0.313633,-0.0145806,-0.00759882,0.238583
0.0474499,0.192029,-0.560495,-0.105194,-0.193905,-0.272787,-0.00810806,-0.012793,0.193924
0.0449177,0.188918,-0.565652,-0.188793,-0.162868,-0.255446,-0.00720793,-0.0297946,0.156373
0.0428253,0.184212,-0.570624,-0.257635,-0.140206,-0.251325,-0.00844226,-0.0458169,0.108385
0.0409976,0.178687,-0.575028,-0.268489,-0.120413,-0.194558,0.00890654,-0.0568359,0.0423179
0.039368,0.173515,-0.57767,-0.235273,-0.0912079,-0.081697,0.0426541,-0.0570902,-0.0142534
0.0378337,0.169161,-0.577872,-0.206973,-0.0636159,0.0386509,0.0546952,-0.0615029,-0.0451456
0.0367048,0.16505,-0.576076,-0.21974,-0.0198733,0.115572,0.0545309,-0.0873161,-0.0535914
0.0362685,0.160403,-0.573055,-0.261375,0.0212231,0.161375,0.0513173,-0.113492,-0.0464299
0.0362528,0.154857,-0.569179,-0.307578,0.0432067,0.199235,0.0526898,-0.132519,-0.0439724
0.0365053,0.148646,-0.564831,-0.327127,0.0449282,0.204,0.0435867,-0.151187,-0.0517102
0.0371349,0.142381,-0.56065,-0.312787,0.0843641,0.18297,0.0344774,-0.166754,-0.0694868
0.0393721,0.136404,-0.557034,-0.300998,0.213065,0.15575,0.033605,-0.161428,-0.0763558
0.0453239,0.130414,-0.553884,-0.327068,0.393099,0.128265,0.0570204,-0.158194,-0.058567
0.0509379,0.122943,-0.551018,-0.439156,0.157525,0.136142,0.103765,-0.152604,0.0126949
0.0512683,0.113801,-0.547232,-0.480936,-0.0476581,0.194203,0.155186,-0.131043,-0.0289987
0.0485578,0.104371,-0.54226,-0.48655,-0.174258,0.264189,0.179905,-0.0938623,-0.134727
0.0437612,0.095693,-0.53491,-0.397394,-0.204512,0.445477,0.237321,-0.0706975,-0.243733
0.0403784,0.0904917,-0.523225,-0.158263,0.0105908,0.704513,0.269688,-0.0225468,-0.355703
0.0425152,0.0910694,-0.506565,0.142126,0.377123,0.950316,0.249651,0.0186932,-0.388375
0.0524217,0.0975427,-0.485495,0.394279,0.777677,1.17234,0.207419,0.0251987,-0.309969
0.0672328,0.108819,-0.461061,0.579059,0.931964,1.32251,0.157596,0.0309827,-0.128492
0.0827328,0.123445,-0.434228,0.655744,0.894945,1.44799,0.120291,0.0386898,0.0449804
0.0940964,0.138456,-0.405205,0.569125,0.574886,1.56066,0.0951282,0.0395795,0.192958
0.0957207,0.1513,-0.373946,0.411853,0.0313182,1.64354,0.0836178,0.0225343,0.261684
0.0865912,0.160981,-0.341288,0.257419,-0.399716,1.65616,0.0473408,0.0227743,0.224293
0.0709626,0.167465,-0.308796,0.139253,-0.613323,1.59037,0.0225419,0.0196955,0.120446
0.0525319,0.17136,-0.278252,0.0566739,-0.707901,1.43768,-0.00741193,0.0195519,0.00540262
0.0330826,0.172689,-0.250775,-0.037409,-0.75993,1.28929,-0.0270762,0.0491814,-0.0892805
0.014052,0.172817,-0.225439,0.0242498,-0.674055,1.2308,0.0212529,0.0685036,-0.197885
-0.00043499,0.176058,-0.200264,0.314838,-0.296081,1.26767,0.067689,0.102198,-0.299791
-0.00577216,0.185881,-0.17383,0.663448,0.234339,1.33539,0.0623591,0.146803,-0.290756
-0.00286621,0.200432,-0.146556,0.760312,0.526221,1.32761,0.0233014,0.169582,-0.108463
0.00267697,0.214794,-0.120231,0.66902,0.54546,1.24373,-0.0279603,0.156277,0.0996212
0.00717561,0.227166,-0.096348,0.562078,0.409441,1.09675,-0.0720699,0.142362,0.22021
0.00837251,0.237707,-0.0754836,0.481899,0.189634,0.947247,-0.0864451,0.136582,0.279998
0.00576483,0.246618,-0.0578122,0.387057,-0.0232734,0.771469,-0.0940914,0.125885,0.300477
0.000466684,0.253164,-0.0442326,0.254999,-0.144626,0.550477,-0.101572,0.107524,0.293289
-0.00458182,0.256855,-0.0352465,0.121452,-0.117587,0.318968,-0.0905697,0.0882993,0.251348
-0.00693985,0.258297,-0.0307508,0.0267026,-0.00170463,0.13067,-0.0617566,0.0740073,0.201438
-0.00679809,0.257962,-0.0290117,-0.0539886,0.0398856,0.054568,-0.00470315,0.0594776,0.173326
-0.00667249,0.256506,-0.0280941,-0.0837876,-0.0105692,0.0375395,0.0286862,0.0328311,0.149252
-0.00772936,0.254554,-0.0276939,-0.120266,-0.0954866,0.000434894,0.0322452,0.00845093,0.115177
-0.0101704,0.251412,-0.0282462,-0.200029,-0.147646,-0.0601417,0.0118036,-0.0117414,0.0737519
-0.0123552,0.246295,-0.0304153,-0.324521,-0.118604,-0.153304,-0.00678629,-0.0447315,0.0186071
-0.0137391,0.237882,-0.0350168,-0.534377,-0.145281,-0.284045,-0.0305936,-0.0749934,-0.024621
-0.0156314,0.225192,-0.042145,-0.723181,-0.204343,-0.379736,-0.0572431,-0.0984996,-0.108772
-0.0179338,0.211322,-0.0503245,-0.624267,-0.158857,-0.382052,-0.0470566,-0.115565,-0.279864
-0.0170382,0.202227,-0.0583744,-0.304051,0.0704872,-0.402728,-0.0456572,-0.148605,-0.434324
-0.0170382,0.202227,-0.0583744,-0.304051,0.0704872,-0.402728,-0.0456572,-0.148605,-0.434324
-0.012759,0.198093,-0.0671509,-0.166693,0.161765,-0.454605,-0.0979187,-0.119073,-0.408811
-0.0075918,0.194535,-0.0770021,-0.2206,0.150415,-0.512907,-0.0950753,-0.121098,-0.299545
-0.00325757,0.189548,-0.0883025,-0.268765,0.0866842,-0.587307,-0.0799917,-0.123429,-0.253115
0.000969216,0.184954,-0.100285,-0.169724,0.117873,-0.580543,-0.059577,-0.0964335,-0.268017
0.00554329,0.183499,-0.111294,0.0307899,0.13873,-0.493329,-0.0445127,-0.0421839,-0.260227
0.00990387,0.185806,-0.119924,0.202436,0.144929,-0.34966,-0.0321942,0.00593661,-0.191501
0.0144254,0.191492,-0.125699,0.376355,0.20516,-0.226944,-0.0460673,0.0325479,-0.112726
0.0195386,0.200491,-0.129916,0.518548,0.205796,-0.184566,-0.100796,0.0545279,-0.0163882
0.0233339,0.211373,-0.133973,0.571308,0.068665,-0.195528,-0.142808,0.0679106,0.0869443
0.02362,0.222875,-0.138926,0.583319,-0.145948,-0.274135,-0.182519,0.0841478,0.155399
0.0204986,0.233953,-0.146168,0.533537,-0.319278,-0.417135,-0.216579,0.108534,0.196354
0.0156878,0.243474,-0.156906,0.429752,-0.407758,-0.618291,-0.226086,0.121996,0.212223
0.010912,0.250121,-0.172147,0.241888,-0.420345,-0.856286,-0.204283,0.12954,0.223067
0.00866831,0.252575,-0.191816,0.0258959,-0.282972,-1.03649,-0.15352,0.137425,0.212026
0.0100361,0.251492,-0.214142,-0.0968127,-0.136728,-1.11639,-0.0959323,0.15632,0.178378
0.013812,0.249284,-0.236881,-0.0881319,-0.0584381,-1.08491,-0.0398739,0.165458,0.151294
0.0179657,0.247936,-0.25843,-0.0121178,-0.0592806,-1.01298,-0.00800072,0.154842,0.151348
0.0216749,0.24788,-0.278804,0.0241894,-0.073428,-0.975172,-0.0034174,0.12717,0.179229
0.025024,0.247241,-0.298922,-0.0591212,-0.0806964,-0.992869,-0.00572111,0.0942014,0.222202
0.0284857,0.244014,-0.319721,-0.220499,-0.0824563,-1.03511,-0.00484146,0.0630873,0.243771
0.0317313,0.23748,-0.340814,-0.357333,-0.0883123,-1.02355,0.0236078,0.0390414,0.221902
0.0345654,0.229205,-0.36072,-0.393399,-0.0911701,-0.942688,0.0481324,0.0229341,0.155547
0.0368409,0.221025,-0.378703,-0.35854,-0.0824335,-0.838415,0.0541208,0.008765,0.0882925
0.0383792,0.214003,-0.394081,-0.282072,-0.103544,-0.68698,0.0729944,-0.01396,0.0423564
0.0388181,0.209157,-0.406273,-0.153618,-0.0994668,-0.528734,0.0858778,-0.0442418,-0.00200748
0.0394028,0.207015,-0.415759,-0.0320701,-0.034648,-0.414887,0.0651319,-0.0690274,-0.0339668
0.0407302,0.206704,-0.423284,0.0173167,0.00304704,-0.328503,0.0601692,-0.10699,-0.0313916
0.0417918,0.206484,-0.429383,-0.0335488,-0.0302112,-0.267925,0.0681471,-0.136716,-0.00685328
0.0414963,0.204478,-0.434094,-0.147764,-0.104071,-0.203203,0.0723254,-0.154152,-0.00911778
0.0392021,0.200778,-0.437637,-0.190894,-0.182341,-0.16518,0.0647447,-0.17566,-0.0728584
0.0360984,0.197074,-0.440822,-0.168395,-0.176266,-0.169383,0.0398643,-0.18129,-0.160132
0.0347484,0.193657,-0.444533,-0.164137,-0.00261125,-0.213028,0.0201835,-0.182581,-0.225645
0.0392926,0.190291,-0.449854,-0.163506,0.359375,-0.331817,0.00743183,-0.198963,-0.263438
0.0487169,0.185654,-0.457492,-0.275458,0.352064,-0.427994,0.0375121,-0.208111,-0.199167
0.0545779,0.17896,-0.465685,-0.333783,0.0817363,-0.388752,0.0965432,-0.178439,-0.177852
0.0558798,0.172928,-0.472019,-0.225113,-0.0155121,-0.265897,0.133749,-0.139609,-0.276966
0.0575533,0.170586,-0.475892,0.0253568,0.165973,-0.125722,0.142654,-0.109598,-0.36397
0.0641723,0.173873,-0.476935,0.296596,0.474499,0.0475078,0.138117,-0.0566464,-0.343857
0.0756926,0.181407,-0.474977,0.413255,0.684126,0.184854,0.113655,-0.022696,-0.18547
0.0890419,0.189896,-0.470884,0.394436,0.712168,0.278253,0.0771182,-0.0119726,0.00289851
0.101866,0.197964,-0.465498,0.361484,0.662746,0.325918,0.0468112,-0.00991553,0.13481
0.112584,0.205434,-0.459203,0.314252,0.525567,0.373602,0.0261096,0.011075,0.219647
0.119114,0.211614,-0.451358,0.203656,0.268196,0.466175,0.0247175,0.0377211,0.274843
0.118481,0.215163,-0.441216,0.0190214,-0.125855,0.562668,0.0336766,0.0439509,0.299896
0.10912,0.21493,-0.428689,-0.182698,-0.53979,0.648188,0.0321061,0.0544502,0.264927
0.0914556,0.211583,-0.41469,-0.263863,-0.923429,0.671157,-0.00532241,0.0803846,0.122021
0.0692039,0.208118,-0.401166,-0.170339,-0.958949,0.617509,-0.0376273,0.0959778,-0.0802102
0.0505898,0.207459,-0.389152,0.0333436,-0.605797,0.563937,-0.0280606,0.117397,-0.23145
0.0412161,0.210481,-0.377267,0.193508,-0.0845951,0.631356,0.00415381,0.157447,-0.247906
0.0403693,0.215236,-0.363436,0.210878,0.23039,0.741668,0.00810402,0.202439,-0.131246
0.0420272,0.220134,-0.347702,0.233718,0.255603,0.804624,-0.0254827,0.1856,0.0122226
0.0420272,0.220134,-0.347702,0.233718,0.255603,0.804624,-0.0254827,0.1856,0.0122226
0.0425859,0.226408,-0.331592,0.330173,0.142954,0.786883,-0.0755136,0.161872,0.104882
0.0408279,0.234149,-0.316451,0.361774,0.0337639,0.713862,-0.10707,0.146704,0.193307
0.0377338,0.241112,-0.303418,0.263438,-0.0349877,0.571875,-0.117887,0.114835,0.27925
0.0338496,0.244872,-0.293816,0.0714836,-0.136599,0.368731,-0.126416,0.0878302,0.334939
0.0281284,0.244424,-0.288435,-0.124396,-0.30553,0.158137,-0.101843,0.0561607,0.342009
0.0204337,0.240817,-0.286928,-0.222447,-0.402879,-0.00899782,-0.0536104,0.0406046,0.273156
0.0133582,0.23632,-0.287998,-0.221296,-0.308519,-0.0918395,-0.00233587,0.0480765,0.160871
0.00930539,0.231958,-0.290331,-0.214768,-0.149197,-0.136907,0.0377121,0.0524693,0.0910044
0.00836917,0.227609,-0.293677,-0.223743,-0.0445222,-0.198758,0.0674693,0.029314,0.0689011
0.00881615,0.222413,-0.298278,-0.308739,-0.0421801,-0.256944,0.0829691,0.0199156,0.0784032
0.0083268,0.214723,-0.303939,-0.460752,-0.131786,-0.298777,0.107145,0.00130004,0.0719723
0.00599959,0.204131,-0.310205,-0.59883,-0.233537,-0.327665,0.131332,-0.0151184,0.0118127
0.00174,0.190687,-0.316804,-0.754937,-0.329261,-0.322139,0.132599,-0.0231435,-0.081619
-0.00439587,0.174556,-0.322848,-0.826534,-0.359615,-0.27329,0.14442,-0.0548449,-0.209862
-0.00889797,0.159327,-0.328238,-0.68312,-0.148266,-0.258193,0.122311,-0.0956183,-0.37681
-0.0085913,0.147404,-0.33364,-0.540402,0.0636089,-0.266843,0.0628651,-0.0997264,-0.432115
-0.00684335,0.136647,-0.339408,-0.563442,-0.0130964,-0.295876,0.0387161,-0.116692,-0.367453
-0.00756869,0.125047,-0.345396,-0.589368,-0.102321,-0.285342,0.0253013,-0.122821,-0.353372
-0.00697257,0.114767,-0.350604,-0.415067,0.138145,-0.213047,0.0129386,-0.102144,-0.438869
-0.000201479,0.109909,-0.353388,-0.0652537,0.496249,-0.0563013,-0.00297357,-0.0578694,-0.473945
0.0115651,0.111526,-0.352725,0.201271,0.654313,0.115651,-0.037616,-0.012713,-0.366463
0.0240522,0.117322,-0.349622,0.377487,0.609252,0.18561,-0.123677,-0.00578041,-0.219778
0.0346034,0.127184,-0.346696,0.612088,0.494066,0.12053,-0.208023,8.63373e-05,-0.118015
0.0438205,0.141566,-0.346121,0.811298,0.445669,-0.0111058,-0.270099,0.028423,-0.0192244
0.0525855,0.15843,-0.34871,0.866392,0.382091,-0.157658,-0.303276,0.0763472,0.107159
0.0595707,0.174842,-0.354378,0.786609,0.206318,-0.315808,-0.310978,0.114184,0.21639
0.0631228,0.187926,-0.363628,0.564112,-0.0256006,-0.517751,-0.320927,0.148415,0.289809
0.0632272,0.19548,-0.377071,0.275066,-0.201533,-0.764252,-0.305756,0.150475,0.306555
0.0622609,0.19732,-0.395368,0.0356062,-0.237267,-1.00958,-0.278268,0.148389,0.262402
0.0619123,0.195295,-0.417394,-0.0822908,-0.224726,-1.14284,-0.21655,0.159129,0.186966
0.0623645,0.192114,-0.440613,-0.0841559,-0.174946,-1.14157,-0.141225,0.168748,0.119862
0.0630521,0.189287,-0.462747,-0.0661826,-0.190554,-1.03941,-0.0790358,0.178775,0.0994039
0.0622651,0.187056,-0.482151,-0.0336539,-0.247165,-0.880432,-0.0296147,0.160439,0.0969239
0.0602798,0.185953,-0.498756,0.0224801,-0.25137,-0.778369,-0.0262153,0.127678,0.0822481
0.0587717,0.185783,-0.514382,0.0377976,-0.177886,-0.771897,-0.0550263,0.0897909,0.0846565
0.0589699,0.184839,-0.530504,-0.0541284,-0.109642,-0.830372,-0.0607089,0.0414691,0.122355
0.0603416,0.18156,-0.54772,-0.171124,-0.0857158,-0.878143,-0.0495786,0.00919288,0.15084
0.061407,0.176327,-0.565113,-0.233222,-0.1221,-0.857018,-0.0198895,-0.00138845,0.134159
0.0613144,0.17103,-0.58119,-0.18458,-0.168127,-0.754575,0.0147523,-0.0118248,0.0795971
0.0598802,0.167451,-0.595133,-0.0896223,-0.191109,-0.635457,0.0312484,-0.0258502,0.0383685
0.0588782,0.16623,-0.60667,0.034724,-0.0749749,-0.515712,0.0364951,-0.0420696,0.00370228
0.0611545,0.167333,-0.616531,0.12611,0.145549,-0.456748,0.0208682,-0.0652435,0.00599414
0.0669689,0.169585,-0.625395,0.139445,0.246988,-0.401276,0.0199023,-0.0884438,0.0632641
0.0723143,0.171354,-0.63252,0.081237,0.14779,-0.279871,0.044972,-0.105912,0.130592
0.0740624,0.172019,-0.636929,0.0221551,-0.0550588,-0.157028,0.0491524,-0.125062,0.142513
0.0714341,0.171891,-0.639425,-0.00853787,-0.238289,-0.0998376,0.0333924,-0.156575,0.0876087
0.0661665,0.171615,-0.641097,-0.00421898,-0.296288,-0.0741331,0.0249562,-0.184176,-0.00415051
0.0616983,0.171549,-0.642712,0.00235228,-0.160124,-0.0939484,0.0167147,-0.202628,-0.0904974
0.0608287,0.171147,-0.644925,-0.0252053,0.0585294,-0.125022,0.0229521,-0.216635,-0.136504
0.0649987,0.170324,-0.647834,-0.0517255,0.292881,-0.169816,0.0479254,-0.227944,-0.161449
0.0649987,0.170324,-0.647834,-0.0517255,0.292881,-0.169816,0.0479254,-0.227944,-0.161449
0.0725044,0.167967,-0.651212,-0.170625,0.345702,-0.177004,0.0745747,-0.2068,-0.129167
0.0764881,0.162859,-0.654375,-0.309417,-0.0633171,-0.177032,0.0776432,-0.1875,-0.109761
0.0704754,0.156201,-0.657165,-0.291855,-0.527209,-0.136935,0.0983174,-0.174755,-0.223077
0.0598646,0.152792,-0.658789,-0.00701527,-0.472631,-0.0454956,0.116329,-0.138283,-0.430825
0.0556537,0.156629,-0.658925,0.375085,0.0872574,0.0532042,0.122241,-0.0884561,-0.537956
0.0625209,0.166473,-0.657358,0.555043,0.574047,0.157725,0.0993638,-0.0237781,-0.432591
0.0752815,0.177824,-0.654136,0.554222,0.729573,0.24042,0.0850485,0.0109028,-0.209383
0.0893933,0.189897,-0.649602,0.634494,0.751802,0.302805,0.05587,0.0298222,-0.0691997
0.102243,0.204294,-0.643921,0.742293,0.629781,0.399437,0.0294067,0.0801948,0.0471958
0.110683,0.220394,-0.636008,0.75744,0.363614,0.543024,0.0350672,0.121294,0.157218
0.112203,0.235705,-0.625593,0.635732,0.026153,0.630819,0.0221094,0.143212,0.2374
0.106956,0.247603,-0.613828,0.414623,-0.250554,0.625807,-0.00439025,0.13946,0.253895
0.0972253,0.254622,-0.602364,0.175252,-0.429146,0.54641,-0.0452364,0.151537,0.208748
0.0857759,0.257184,-0.592311,0.00525505,-0.431997,0.44598,-0.0516488,0.159754,0.114739
0.0761554,0.256913,-0.583953,-0.0899337,-0.305333,0.369446,-0.0398628,0.173164,0.0198566
0.070029,0.255281,-0.576432,-0.107611,-0.122352,0.365805,-0.0106363,0.185745,-0.0388533
0.067047,0.254553,-0.56815,-0.00165762,0.0279362,0.440197,0.0326048,0.182141,-0.0678914
0.0661716,0.256907,-0.558022,0.169952,0.123867,0.557427,0.0371058,0.188264,-0.0562221
0.0655811,0.262412,-0.545863,0.283117,0.118852,0.640668,0.0104093,0.177624,0.013694
0.063984,0.268859,-0.533107,0.262081,0.0543729,0.617211,-0.0452858,0.149756,0.114415
0.0616886,0.273928,-0.521751,0.169121,0.0309974,0.506763,-0.0949497,0.115851,0.178124
0.0599177,0.277064,-0.512975,0.0974072,0.0354752,0.354832,-0.124294,0.0937234,0.194695
0.0590985,0.278981,-0.507243,0.0631137,0.0243736,0.213865,-0.126544,0.0737311,0.192752
0.0578467,0.280168,-0.50381,0.0349708,-0.0577435,0.131201,-0.115192,0.0590339,0.193395
0.0545926,0.280858,-0.501702,0.0281409,-0.210495,0.0716451,-0.102125,0.0402113,0.185003
0.0491026,0.28126,-0.501158,0.00378637,-0.314678,-0.0218551,-0.106252,0.018304,0.158386
0.0429506,0.280558,-0.502789,-0.078844,-0.339214,-0.139843,-0.108962,0.0040499,0.122338
0.0368795,0.277782,-0.506795,-0.181278,-0.379184,-0.250904,-0.0915185,-0.00595877,0.0757736
0.0308083,0.273182,-0.51272,-0.252271,-0.384714,-0.334334,-0.0825634,-0.0051516,0.00808418
0.0253307,0.267542,-0.520223,-0.285844,-0.370006,-0.412347,-0.0899481,-0.00851145,-0.0662507
0.0203203,0.261381,-0.529734,-0.310095,-0.396361,-0.52628,-0.101294,-0.024422,-0.126863
0.0155514,0.254909,-0.541836,-0.314134,-0.369517,-0.655258,-0.106311,-0.0409032,-0.187887
0.0127448,0.248787,-0.556236,-0.269758,-0.247011,-0.740172,-0.0712815,-0.0633108,-0.239546
0.0139997,0.244314,-0.571612,-0.165525,0.000307667,-0.758675,-0.0355104,-0.0770482,-0.275107
0.0181441,0.240477,-0.587469,-0.217438,-0.00266399,-0.79748,-0.0520906,-0.073861,-0.208867
0.0208815,0.234907,-0.604402,-0.298063,-0.144557,-0.881817,-0.0750551,-0.0814561,-0.162488
0.0211871,0.22859,-0.624076,-0.289572,-0.244769,-1.05911,-0.10822,-0.0916636,-0.186251
0.0224311,0.222745,-0.646986,-0.245143,-0.112586,-1.16862,-0.0829408,-0.0963534,-0.217761
0.0270693,0.217951,-0.670665,-0.18084,0.0258284,-1.14156,-0.0320867,-0.0547052,-0.196409
0.0315017,0.214186,-0.692662,-0.132007,-0.0875335,-1.01171,0.00422688,-0.0247216,-0.122319
0.0311599,0.211717,-0.711977,-0.0469721,-0.364473,-0.90116,0.0108005,-0.024633,-0.091437
0.0261441,0.211606,-0.729789,0.0898304,-0.460371,-0.857041,-0.0264583,-0.0123819,-0.12675
0.0218438,0.214596,-0.746904,0.253425,-0.307199,-0.813739,-0.0653169,0.0291906,-0.163597
0.0212975,0.220883,-0.762865,0.398145,-0.109916,-0.733192,-0.0831106,0.0894067,-0.13232
0.0234722,0.229064,-0.777415,0.433319,-0.0180822,-0.685919,-0.109542,0.123108,-0.0272891
0.0263315,0.23673,-0.792048,0.348024,-0.0593646,-0.736812,-0.178716,0.150587,0.0870836
0.0273276,0.241485,-0.808482,0.172083,-0.239966,-0.852534,-0.22337,0.166741,0.176676
0.0251727,0.243043,-0.827379,0.051993,-0.416456,-0.978672,-0.213594,0.167034,0.192272
0.0213567,0.243421,-0.848475,0.0405803,-0.453445,-1.06838,-0.181172,0.183346,0.161109
0.0180245,0.243735,-0.87096,0.0253159,-0.430515,-1.11568,-0.137257,0.200405,0.161875
0.0149919,0.24332,-0.894083,-0.0302439,-0.429917,-1.13027,-0.0911337,0.19425,0.196692
0.0120325,0.242073,-0.917227,-0.066799,-0.425259,-1.11933,-0.0468986,0.178543,0.219613
0.00891034,0.240226,-0.939924,-0.0952524,-0.416369,-1.09052,-0.0151546,0.163597,0.231103
0.00614596,0.237875,-0.962043,-0.135404,-0.394565,-1.06934,0.00650883,0.137234,0.242025
0.00296343,0.234257,-0.983816,-0.226456,-0.441576,-1.05169,0.0289016,0.101734,0.2579
-0.00143768,0.228502,-1.00506,-0.348857,-0.483161,-1.02317,0.0369228,0.0700549,0.247733
-0.00638411,0.220568,-1.02603,-0.449741,-0.471032,-1.02466,0.032856,0.0374335,0.197342
-0.0110201,0.210968,-1.04698,-0.531853,-0.449557,-1.00965,0.0609922,-0.0030877,0.132509
-0.0153494,0.200057,-1.0671,-0.581692,-0.377056,-0.942295,0.101667,-0.0307668,0.0573323
-0.0175204,0.189008,-1.08526,-0.53912,-0.178707,-0.817679,0.126033,-0.0475437,-0.0383605
-0.0161155,0.180061,-1.1002,-0.367751,0.0581191,-0.62597,0.164139,-0.0724976,-0.108901
-0.011301,0.174796,-1.11059,-0.18701,0.218098,-0.393764,0.182653,-0.0844391,-0.127621
-0.00561199,0.172396,-1.11629,-0.068987,0.235951,-0.171839,0.178838,-0.111019,-0.0866468
-0.0014998,0.171811,-1.11804,0.00607864,0.131248,-0.00673659,0.160551,-0.143853,-0.0489802
-0.000191303,0.172383,-1.11673,0.0483959,0.0286446,0.122595,0.130331,-0.164498,-0.0427296
-0.00075778,0.173594,-1.11337,0.0730715,-0.00529395,0.196828,0.0910479,-0.175146,-0.0813751
-0.000707431,0.175321,-1.10897,0.0982235,0.0986879,0.22989,0.0610604,-0.184997,-0.137232
0.00212214,0.177699,-1.10448,0.146478,0.288835,0.209589,0.03557,-0.195381,-0.174929
0.00970012,0.181574,-1.10089,0.240555,0.531535,0.141376,0.0195427,-0.205179,-0.198157
0.0220899,0.187172,-1.09858,0.306594,0.733048,0.108425,0.0495867,-0.191925,-0.162252
0.0358038,0.192978,-1.09591,0.240625,0.647424,0.191217,0.12768,-0.157873,-0.0565298
0.0446286,0.196617,-1.09049,0.113766,0.33562,0.361727,0.185723,-0.124288,-0.0012005
0.0464066,0.198576,-1.08195,0.0338438,0.0294649,0.474739,0.189049,-0.102333,-0.053193
0.0441725,0.199124,-1.07154,-0.0131491,0.0321272,0.547902,0.178333,-0.0857131,-0.164591
0.0452768,0.199982,-1.05971,0.0622931,0.331908,0.620783,0.175154,-0.0545983,-0.291351
0.0526313,0.203141,-1.04619,0.173773,0.663321,0.726572,0.16431,0.00765455,-0.326209
0.0526313,0.203141,-1.04619,0.173773,0.663321,0.726572,0.16431,0.00765455,-0.326209
0.0648173,0.208065,-1.03012,0.226345,0.859957,0.890679,0.173136,0.0574889,-0.249162
0.0782453,0.215102,-1.01032,0.347408,0.89365,1.09487,0.17742,0.0941085,-0.159122
0.0910029,0.225203,-0.986874,0.460585,0.893715,1.2771,0.144175,0.140556,-0.0610839
0.102377,0.237391,-0.960062,0.47764,0.845133,1.43904,0.115985,0.167358,0.0528337
0.110089,0.249104,-0.930192,0.359802,0.634568,1.57152,0.087586,0.192489,0.157954
0.111599,0.257775,-0.897536,0.141722,0.330157,1.67475,0.0698179,0.201692,0.220924
0.105727,0.261835,-0.862317,-0.108239,0.00321764,1.7591,0.053142,0.207584,0.223096
0.0940624,0.261166,-0.825389,-0.30125,-0.188961,1.78392,0.0201622,0.212172,0.159771
0.0803657,0.257472,-0.788532,-0.362166,-0.211198,1.72904,-0.0189934,0.205061,0.0469235
0.067943,0.252919,-0.753495,-0.341044,-0.138497,1.63466,-0.0316427,0.188188,-0.0312552
0.057986,0.248855,-0.720141,-0.263049,-0.0182372,1.58522,-0.0235602,0.200167,-0.0720152
0.050846,0.246504,-0.687151,-0.145587,0.0884364,1.61586,-0.000963196,0.224896,-0.073001
0.0440463,0.246262,-0.65306,-0.036935,0.0559775,1.69676,0.0182094,0.242087,-0.0313696
0.0361859,0.24788,-0.61775,0.052286,0.0180286,1.72382,-0.000495821,0.225101,0.0126996
0.0278043,0.250383,-0.583036,0.0746617,0.00552044,1.64781,-0.0452901,0.192966,0.0627271
0.0197866,0.252294,-0.550624,0.0296874,-0.00713899,1.49745,-0.0732666,0.149284,0.111784
0.0119769,0.252446,-0.521851,-0.0606985,-0.0691284,1.29404,-0.088776,0.110476,0.146961
0.00325505,0.250532,-0.497446,-0.145743,-0.198477,1.07368,-0.0855509,0.0761516,0.146495
-0.0062796,0.247507,-0.477465,-0.140331,-0.243564,0.877721,-0.0609589,0.0494467,0.0945985
-0.0147561,0.245123,-0.46102,-0.0808433,-0.196389,0.724377,-0.036482,0.0488738,0.0341346
-0.0211464,0.243632,-0.447652,-0.0564121,-0.122754,0.575538,-0.0198697,0.042407,0.0184843
-0.0257463,0.241813,-0.437665,-0.112443,-0.102745,0.395376,-0.0110468,0.0345529,0.032809
-0.0288554,0.238497,-0.431489,-0.204836,-0.0569288,0.218003,-0.00339836,0.0324155,0.0325232
-0.0294955,0.233609,-0.428871,-0.270321,0.0684556,0.0446662,0.00503908,0.028365,0.0107138
-0.0263431,0.227549,-0.429891,-0.348747,0.211954,-0.119401,0.0102039,0.0300791,0.0146711
-0.0210292,0.219308,-0.433465,-0.488143,0.220139,-0.195371,0.0335855,0.0324958,0.0577263
-0.0163075,0.208554,-0.437853,-0.581642,0.15089,-0.21221,0.0532001,0.0232533,0.05065
-0.0129467,0.196939,-0.442359,-0.577755,0.110082,-0.214186,0.0465249,0.0106404,-0.0056181
-0.00949642,0.185861,-0.447002,-0.536208,0.154929,-0.229135,0.0312596,-0.00946701,-0.0612578
-0.0050244,0.175533,-0.451722,-0.509191,0.197767,-0.223842,0.0214267,-0.0258827,-0.0829142
-0.000110726,0.165321,-0.455908,-0.51703,0.216009,-0.178563,0.0191522,-0.0270352,-0.0885857
0.00397241,0.155413,-0.458767,-0.463309,0.134389,-0.105649,0.00817569,-0.0347259,-0.115347
0.00563081,0.147387,-0.45996,-0.330601,0.00679153,-0.0154472,-0.00454739,-0.0503815,-0.162804
0.00503225,0.142598,-0.459118,-0.13641,-0.0301142,0.0999888,-0.0122291,-0.063253,-0.202835
0.00535905,0.142123,-0.456027,0.090961,0.120606,0.200569,-0.0330607,-0.0660885,-0.233851
0.00913762,0.145865,-0.451573,0.25522,0.307777,0.223613,-0.0635754,-0.0889809,-0.195948
0.0132119,0.150549,-0.447796,0.172185,0.0785063,0.155379,-0.0765387,-0.134916,-0.0497884
0.0102749,0.152135,-0.445022,-0.0234371,-0.330598,0.119548,-0.0740903,-0.110658,0.0290318
0.00078442,0.14978,-0.443464,-0.204981,-0.529851,0.0148277,-0.0962804,-0.0799058,-0.0354578
-0.00840421,0.144692,-0.44486,-0.285382,-0.375727,-0.153625,-0.0996854,-0.102043,-0.162447
-0.0119044,0.13976,-0.449283,-0.188196,-0.0207511,-0.257057,-0.0609506,-0.0869674,-0.25332
-0.00832271,0.138021,-0.454021,0.0108793,0.277114,-0.185308,0.0020484,-0.0275168,-0.245338
-0.00163837,0.140188,-0.455871,0.200184,0.338334,0.0112054,0.0568744,0.0212443,-0.134857
0.00387551,0.145979,-0.453384,0.376414,0.225542,0.226008,0.0595507,0.0468287,-0.0200735
0.00577619,0.154972,-0.44744,0.513899,0.0500164,0.353339,0.0164336,0.0487004,0.0767293
0.00442421,0.165955,-0.440016,0.565257,-0.0713262,0.372418,-0.0368494,0.0369444,0.141708
0.000197012,0.176877,-0.433096,0.51201,-0.224617,0.304498,-0.084926,0.0316992,0.19326
-0.00612749,0.185933,-0.428364,0.396651,-0.31559,0.150397,-0.128317,0.0216703,0.20441
-0.0130515,0.192566,-0.427446,0.267939,-0.357099,-0.0776774,-0.160499,0.019732,0.187869
-0.0195788,0.196637,-0.431621,0.138388,-0.372669,-0.341381,-0.158992,0.0141132,0.155804
-0.0252327,0.198554,-0.44098,0.0460167,-0.363029,-0.571676,-0.128372,0.0240345,0.106689
-0.0291287,0.199586,-0.454108,0.0340313,-0.275557,-0.702403,-0.072131,0.0563725,0.0413326
-0.0304326,0.201035,-0.468948,0.0685032,-0.142841,-0.748747,-0.013642,0.0942603,0.00661319
-0.0304326,0.201035,-0.468948,0.0685032,-0.142841,-0.748747,-0.013642,0.0942603,0.00661319
-0.0287247,0.202958,-0.484112,0.0712838,0.00247211,-0.739669,0.0394075,0.103422,0.0192471
-0.0245199,0.204434,-0.498804,0.0393202,0.119204,-0.702223,0.0717975,0.0965222,0.0573118
-0.0186733,0.205411,-0.512568,0.0342821,0.168953,-0.653166,0.0807492,0.0769401,0.0867472
-0.0125175,0.206404,-0.525594,0.0415364,0.193342,-0.625169,0.0733782,0.047456,0.109358
-0.00604997,0.207229,-0.537943,0.0206188,0.175917,-0.586143,0.0766602,0.0196221,0.134608
-0.000639014,0.207358,-0.549178,-0.00980233,0.147086,-0.514892,0.0834653,0.00270477,0.145372
0.00422141,0.207177,-0.558824,0.00223912,0.147791,-0.428144,0.0887796,-0.0157833,0.121093
0.00910403,0.207867,-0.566622,0.0811658,0.191499,-0.332276,0.0965456,-0.0366234,0.0861752
0.014538,0.210269,-0.5724,0.159316,0.222494,-0.229152,0.0960122,-0.0453967,0.0702939
0.0197507,0.213958,-0.575849,0.21284,0.231498,-0.103058,0.0991549,-0.0519983,0.0736414
0.0244716,0.218634,-0.576608,0.254259,0.2185,0.0409793,0.103723,-0.0617295,0.0764884
0.0283063,0.224006,-0.574518,0.276172,0.210795,0.176626,0.105171,-0.0760191,0.0710145
0.0308315,0.229246,-0.570056,0.21716,0.126845,0.264881,0.0816437,-0.0863552,0.0751818
0.0309225,0.232507,-0.564323,0.0824346,0.0131529,0.289644,0.052495,-0.105596,0.0603799
0.028268,0.232653,-0.559069,-0.0878182,-0.153169,0.215591,0.000420829,-0.112305,-0.00592256
0.0236013,0.229589,-0.555212,-0.211508,-0.20343,0.15463,-0.0272981,-0.110115,-0.122916
0.020686,0.225503,-0.55246,-0.175801,0.0422825,0.110471,-0.0123789,-0.104666,-0.270247
0.026372,0.223531,-0.550179,-0.0316856,0.549889,0.114372,0.00890934,-0.0823271,-0.353236
0.0374334,0.223695,-0.5469,0.0180461,0.563773,0.238503,0.0535194,-0.052473,-0.269221
0.045687,0.224525,-0.539622,0.0460826,0.439437,0.470038,0.0965122,-0.0125858,-0.170832
0.0513169,0.226773,-0.528747,0.118833,0.352253,0.580536,0.087882,-0.0364116,-0.13121
0.0538808,0.229606,-0.516315,0.0880571,0.201465,0.653758,0.0822327,-0.0534427,-0.0752796
0.0544977,0.231483,-0.502191,0.0279432,0.204718,0.725303,0.068549,-0.0331367,-0.0692097
0.0553407,0.232379,-0.487041,-0.0220303,0.208596,0.749855,0.0439068,-0.0233382,-0.0819421
0.0552432,0.23227,-0.47146,-0.0665127,0.141537,0.778567,0.0486083,-0.0242835,-0.0815914
0.0534801,0.232021,-0.454473,-0.0328213,0.079586,0.883536,0.0730083,-0.00868712,-0.0960588
0.0506293,0.233328,-0.435194,0.0736684,0.099845,0.993337,0.0699501,0.00653087,-0.112069
0.0489314,0.236932,-0.41442,0.188941,0.237691,1.03644,0.052537,0.0138504,-0.100909
0.0511575,0.242957,-0.393433,0.304267,0.480955,1.03495,0.0361057,0.0335581,-0.0579065
0.0569991,0.2505,-0.372181,0.328286,0.603064,1.08165,0.0404366,0.0868779,0.0653598
0.063109,0.258006,-0.349287,0.282872,0.562554,1.18658,0.0711157,0.108318,0.193156
0.0660745,0.264386,-0.323884,0.195937,0.372844,1.3064,0.0849036,0.117518,0.287289
0.0636823,0.269271,-0.296345,0.12671,0.127587,1.36959,0.0785465,0.101142,0.319662
0.0565209,0.27301,-0.26846,0.0830277,-0.0900274,1.33962,0.05725,0.0814901,0.311035
0.045482,0.274909,-0.241153,-0.0423116,-0.274336,1.30654,0.055652,0.0816856,0.304625
0.0309788,0.273252,-0.214149,-0.218918,-0.433128,1.29385,0.0822969,0.0840883,0.279514
0.014472,0.268259,-0.187663,-0.326919,-0.497635,1.24925,0.0905536,0.0857924,0.191565
-0.00207705,0.261543,-0.162576,-0.347809,-0.482605,1.17167,0.083351,0.0868487,0.0776997
-0.0163448,0.254918,-0.139482,-0.282588,-0.323237,1.07421,0.102837,0.0702966,-0.0247243
-0.0254077,0.249986,-0.118269,-0.168191,-0.0321194,0.998893,0.127292,0.0659329,-0.0850009
-0.0283063,0.246953,-0.0982007,-0.0912787,0.210847,0.965961,0.155953,0.0739028,-0.0746719
-0.0280775,0.2448,-0.0783144,-0.0790989,0.269101,0.974283,0.178192,0.0696782,-0.0117639
-0.0281262,0.242528,-0.0583677,-0.0950166,0.195558,0.970031,0.179933,0.0565484,0.0329111
-0.030025,0.239873,-0.0389152,-0.128285,0.0821957,0.918985,0.174333,0.0329432,0.0349259
-0.0337591,0.235693,-0.021169,-0.249919,-0.0421325,0.819349,0.147306,0.0194206,0.0170258
-0.0395966,0.228862,-0.00594197,-0.370047,-0.190973,0.683982,0.130793,0.00190905,-0.037794
-0.0467491,0.220628,0.00596102,-0.388368,-0.236155,0.519719,0.113241,-0.00944412,-0.149787
-0.052088,0.21318,0.0146847,-0.303992,-0.0696679,0.380031,0.115446,-0.0087679,-0.249014
-0.0512979,0.208011,0.0212163,-0.179405,0.282136,0.294299,0.111816,0.00668553,-0.293031
-0.0434233,0.205537,0.0269274,-0.0462087,0.593381,0.288276,0.103531,0.0251226,-0.244994
-0.0313951,0.205414,0.0328284,0.0498981,0.708889,0.289261,0.0831745,0.0260553,-0.124152
-0.0177845,0.206787,0.0386466,0.0943664,0.764377,0.2731,0.0433446,0.00977468,0.00460297
-0.00376774,0.208108,0.0433888,0.0199852,0.715245,0.180568,-0.00401925,-0.0105237,0.120827
0.00832444,0.206585,0.0459116,-0.181171,0.533813,0.0691323,-0.0244132,-0.0352838,0.213139
0.00832444,0.206585,0.0459116,-0.181171,0.533813,0.0691323,-0.0244132,-0.0352838,0.213139
0.0168988,0.200857,0.0466454,-0.381694,0.346683,0.000495507,-0.0270716,-0.0580593,0.219304
0.0226207,0.19259,0.0460453,-0.422037,0.23975,-0.0698985,-0.0342855,-0.0581554,0.141447
0.0275544,0.184643,0.0446034,-0.368475,0.235032,-0.0839026,-0.0294477,-0.0639778,0.0583275
0.0320481,0.177421,0.0435193,-0.360639,0.186003,-0.0343488,-0.0130307,-0.0545878,0.0286729
0.0349057,0.170345,0.0440124,-0.339703,0.0987059,0.0579132,0.00747658,-0.0629759,-0.00549144
0.0361078,0.164717,0.0462311,-0.223385,0.0883867,0.137526,0.00340538,-0.0718058,-0.0710477
0.0362591,0.161079,0.0497943,-0.181081,-0.0702147,0.197216,0.00511168,-0.0891438,-0.0886824
0.0306864,0.156669,0.0544415,-0.28797,-0.404855,0.240118,-0.0227374,-0.06234,-0.0806293
0.02078,0.15034,0.0593582,-0.337137,-0.450855,0.218188,-0.0612545,-0.0537015,-0.17934
0.0139106,0.144692,0.0634055,-0.1985,-0.122575,0.18126,-0.0756087,-0.0624317,-0.283388
0.0155034,0.143618,0.0674657,0.0756184,0.318161,0.228967,-0.0431446,-0.0503416,-0.289223
0.0228602,0.14638,0.0730398,0.154907,0.43574,0.344561,-0.011246,-0.0223401,-0.104138
0.029118,0.14948,0.0815723,0.127492,0.285494,0.5105,0.00716047,-0.0408498,0.0577502
0.0286822,0.152453,0.0928306,0.14809,-0.188752,0.604043,0.01415,-0.0577165,0.122608
0.0176257,0.155724,0.104975,0.130332,-0.711443,0.582864,0.0203846,-0.0923102,0.125197
-0.000963787,0.157046,0.115286,-0.0226365,-0.946361,0.434527,-0.00841697,-0.109956,0.0826639
-0.0206515,0.155289,0.122217,-0.123565,-0.887039,0.242572,-0.0345454,-0.106717,-0.0352999
-0.0369102,0.153033,0.124731,-0.0834267,-0.690864,0.0191767,-0.0335215,-0.0899038,-0.163635
-0.0475736,0.152522,0.123145,0.0282436,-0.379241,-0.155116,-0.0096065,-0.0580755,-0.242082
-0.0510977,0.154596,0.119086,0.162573,-0.0452275,-0.235786,0.0180567,-0.00396289,-0.264269
-0.0495542,0.159317,0.114291,0.28231,0.0834373,-0.252561,0.0426658,0.0478042,-0.232794
-0.0477578,0.165906,0.109609,0.344155,0.011224,-0.242805,0.0531876,0.0897519,-0.180108
-0.0471732,0.173307,0.105052,0.373524,-0.00396789,-0.241737,0.0386978,0.130479,-0.161004
-0.0456629,0.181317,0.100512,0.410351,0.0831663,-0.244502,0.0213086,0.166043,-0.159157
-0.0420807,0.190007,0.095828,0.434668,0.195719,-0.254264,0.00784867,0.191307,-0.126029
-0.0356799,0.198603,0.0909325,0.399047,0.363851,-0.25901,0.00817665,0.204472,-0.0542163
-0.0257519,0.205915,0.0860076,0.316271,0.511653,-0.244973,0.00147765,0.213008,0.029804
-0.014178,0.211605,0.081441,0.253787,0.541059,-0.213197,0.00223413,0.213066,0.111645
-0.0030078,0.216206,0.0774633,0.206376,0.486358,-0.183811,0.00795791,0.195666,0.184218
0.00631322,0.219514,0.0740254,0.117682,0.372143,-0.145838,0.0139036,0.182889,0.253831
0.0131242,0.2204,0.0715064,-0.0250541,0.253453,-0.0961961,0.0283618,0.166709,0.304675
0.0177446,0.21852,0.0700485,-0.162919,0.16909,-0.0569972,0.037793,0.144383,0.314139
0.0203798,0.213943,0.0693817,-0.289298,0.0783927,-0.0196067,0.048705,0.119999,0.311227
0.0211545,0.207206,0.0693945,-0.376901,0.00301463,0.00716991,0.0623532,0.0947797,0.281003
0.020645,0.199234,0.0701847,-0.421761,-0.0346645,0.0608363,0.0846538,0.0712246,0.23239
0.0195284,0.190679,0.0727585,-0.440977,-0.014066,0.181132,0.116218,0.0619159,0.175597
0.0188325,0.181725,0.0777608,-0.471917,0.0363981,0.292312,0.12041,0.0442367,0.116873
0.0187001,0.172014,0.0845866,-0.51343,0.0609898,0.361837,0.106592,0.0114384,0.0641713
0.0183731,0.16189,0.0927692,-0.499288,0.0392124,0.430129,0.0929674,-0.0174657,-0.00481939
0.0170373,0.153287,0.102423,-0.367871,-0.0279015,0.502622,0.0789884,-0.0396195,-0.0834326
0.0138196,0.147814,0.11304,-0.206926,-0.118347,0.536011,0.0503269,-0.0499435,-0.146406
0.0096143,0.144798,0.124193,-0.112722,-0.109226,0.565958,0.0306629,-0.0536599,-0.183835
0.00798473,0.143467,0.135532,-0.0227898,0.141015,0.557067,0.00172568,-0.052734,-0.223364
0.0131311,0.144668,0.14655,0.136581,0.53487,0.531106,-0.0313956,-0.0570231,-0.24364
0.0256045,0.149138,0.156848,0.28258,0.826559,0.499245,-0.0488618,-0.0698892,-0.160961
0.0415854,0.155508,0.166553,0.309204,0.89509,0.49452,-0.0508985,-0.0733894,-0.00294191
0.0569497,0.162381,0.176607,0.327083,0.78226,0.533653,-0.0264003,-0.0812824,0.109986
0.0693683,0.169739,0.18715,0.334749,0.62684,0.551332,-0.0239897,-0.0849044,0.171903
0.0791222,0.177006,0.19783,0.300401,0.52846,0.543054,-0.0227815,-0.0925019,0.194659
0.08799,0.183172,0.208084,0.225301,0.583191,0.514213,-0.00316972,-0.109522,0.195119
0.0977966,0.186487,0.217612,-0.0165264,0.503077,0.445313,0.0375208,-0.14676,0.209961
0.102076,0.183157,0.225976,-0.411096,0.0468888,0.323634,0.0361881,-0.129481,0.226462
0.0970993,0.17152,0.23149,-0.791253,-0.424162,0.0889591,0.013866,-0.151235,0.113086
0.0853527,0.153999,0.232901,-0.909443,-0.677763,-0.0823306,0.0405156,-0.154104,-0.125188
0.0853527,0.153999,0.232901,-0.909443,-0.677763,-0.0823306,0.0405156,-0.154104,-0.125188
0.0728634,0.138662,0.232649,-0.552478,-0.507566,-0.0333668,0.15756,-0.12492,-0.400181
0.0684379,0.133666,0.234948,0.0318259,0.150134,0.26493,0.213338,0.00123425,-0.57725
0.0765621,0.138862,0.244372,0.365004,0.713532,0.700205,0.226999,0.0942118,-0.500885
0.0900057,0.1491,0.260899,0.519484,0.841046,0.989062,0.20544,0.0744974,-0.279227
0.104222,0.16323,0.280827,0.693602,0.877503,1.08954,0.101237,0.0540006,-0.140137
0.117563,0.180306,0.30149,0.753434,0.782705,1.12833,0.0145068,0.0640963,-0.00569838
0.126675,0.197338,0.322572,0.668799,0.495272,1.13118,-0.0279064,0.0738367,0.111788
0.127751,0.211556,0.34339,0.466697,0.0132823,1.06598,-0.0538696,0.0799763,0.171627
0.118735,0.220785,0.362845,0.221004,-0.471312,0.933334,-0.0773576,0.0819255,0.161147
0.102285,0.225215,0.379506,0.0577075,-0.79273,0.729019,-0.127863,0.106617,0.0329145
0.0822799,0.22669,0.391529,0.00353588,-0.906126,0.454282,-0.17652,0.150245,-0.126919
0.0644098,0.228073,0.398242,0.112137,-0.672556,0.221758,-0.166565,0.177639,-0.267708
0.0555274,0.232729,0.401356,0.344853,-0.12015,0.137289,-0.137453,0.243527,-0.35222
0.0576722,0.241876,0.40419,0.535135,0.362728,0.195914,-0.116952,0.31858,-0.293083
0.0660543,0.253436,0.40783,0.58448,0.522887,0.206301,-0.14187,0.325652,-0.0992858
0.0754775,0.265217,0.410037,0.566764,0.45012,0.0743834,-0.217331,0.295963,0.0637743
0.082711,0.275688,0.408721,0.494339,0.21311,-0.124403,-0.276412,0.273277,0.18188
0.0853006,0.284249,0.40298,0.399956,-0.122294,-0.36842,-0.2947,0.243877,0.239204
0.0823701,0.290087,0.391892,0.264881,-0.471601,-0.649496,-0.309552,0.235712,0.258803
0.0753315,0.292578,0.375295,0.117453,-0.697369,-0.921773,-0.30453,0.230453,0.236206
0.0665735,0.292163,0.353233,-0.00432593,-0.804939,-1.19199,-0.306473,0.246673,0.176846
0.057217,0.28922,0.325755,-0.127662,-0.942031,-1.4604,-0.301103,0.260165,0.120579
0.0457156,0.283936,0.292962,-0.230056,-1.14648,-1.71146,-0.279282,0.26387,0.058277
0.0311779,0.277476,0.255421,-0.267342,-1.34234,-1.92369,-0.254361,0.280598,-0.0381836
0.014939,0.270995,0.21353,-0.295979,-1.39185,-2.1327,-0.241795,0.304143,-0.134167
0.000493201,0.263972,0.167265,-0.374643,-1.25015,-2.34985,-0.225406,0.311943,-0.192277
-0.00879536,0.256265,0.116527,-0.417365,-0.991556,-2.56417,-0.208121,0.311957,-0.241205
-0.0131562,0.24839,0.0617607,-0.437336,-0.851602,-2.73591,-0.178059,0.311899,-0.234052
-0.0170079,0.240014,0.00399998,-0.487378,-0.970281,-2.87102,-0.16361,0.325134,-0.180646
-0.024286,0.231041,-0.056727,-0.524262,-1.16879,-3.03657,-0.156705,0.32886,-0.157153
-0.0337093,0.222237,-0.121079,-0.535251,-1.17943,-3.22416,-0.137399,0.326812,-0.173081
-0.0407037,0.213786,-0.188588,-0.551496,-0.964724,-3.34132,-0.0892165,0.341617,-0.184387
-0.0433429,0.20566,-0.257354,-0.52838,-0.740279,-3.35007,-0.0289187,0.367803,-0.162435
-0.0432659,0.198691,-0.325309,-0.448188,-0.642775,-3.29008,0.0202304,0.377913,-0.116234
-0.0436855,0.193544,-0.391653,-0.350871,-0.691922,-3.217,0.0529881,0.366715,-0.066635
-0.0451255,0.189966,-0.456627,-0.290262,-0.698659,-3.16157,0.0728936,0.343931,-0.0290446
-0.0475169,0.187316,-0.520446,-0.257609,-0.744276,-3.10977,0.0789099,0.335072,0.00370699
-0.0518574,0.185639,-0.583054,-0.207558,-0.836769,-3.04638,0.0969945,0.327549,0.0209108
-0.058017,0.184922,-0.644282,-0.199382,-0.901543,-2.9857,0.105214,0.331621,0.0269206
-0.0652091,0.183739,-0.704667,-0.296955,-0.921764,-2.96299,0.103281,0.333586,0.0303026
-0.0721312,0.180312,-0.765497,-0.453103,-0.855117,-3.00686,0.0876239,0.319748,0.00570482
-0.0768368,0.174624,-0.827889,-0.564556,-0.72025,-3.09361,0.0664691,0.320283,-0.0588698
-0.0790543,0.167671,-0.891644,-0.611512,-0.586265,-3.1186,0.0692128,0.329774,-0.125486
-0.0785997,0.160512,-0.954688,-0.579515,-0.37665,-3.02567,0.0978342,0.335773,-0.180697
-0.0740106,0.154518,-1.0148,-0.454512,-0.0938614,-2.85524,0.11983,0.327809,-0.204301
-0.0649996,0.150904,-1.07077,-0.291987,0.132304,-2.65633,0.10955,0.313524,-0.168771
-0.053973,0.149091,-1.12255,-0.210534,0.174267,-2.46089,0.0939825,0.276316,-0.0558379
-0.0442593,0.147239,-1.17072,-0.215763,0.0813297,-2.31538,0.0571938,0.227122,0.0627351
-0.0372398,0.144466,-1.21647,-0.246776,-0.0501422,-2.22294,0.0188837,0.179425,0.121008
-0.0338002,0.140507,-1.26055,-0.295437,-0.212071,-2.13734,0.0147534,0.123322,0.154268
-0.0330589,0.135691,-1.30314,-0.32599,-0.28685,-2.0835,0.00384894,0.0840512,0.134783
-0.0334112,0.130356,-1.34495,-0.345089,-0.29287,-2.05909,-0.0134025,0.050565,0.0971636
-0.0338795,0.12464,-1.38634,-0.363675,-0.279294,-2.03998,-0.00786313,0.0155685,0.0665479
-0.0342623,0.118668,-1.42731,-0.367601,-0.251518,-2.01369,0.00580119,-0.00699132,0.0284562
-0.0342623,0.118668,-1.42731,-0.367601,-0.251518,-2.01369,0.00580119,-0.00699132,0.0284562
-0.0340365,0.112975,-1.46757,-0.33249,-0.189422,-1.97549,0.0146022,-0.0273564,-0.0189285
-0.032454,0.108322,-1.507,-0.257104,-0.0738435,-1.93538,0.0270396,-0.0486126,-0.0631168
-0.0283155,0.105171,-1.54528,-0.169759,0.0853221,-1.86748,0.0357542,-0.0593604,-0.0869024
-0.0213229,0.10376,-1.58187,-0.0569753,0.233487,-1.78014,0.0452392,-0.0722226,-0.0895887
-0.0119965,0.104348,-1.61673,0.0562031,0.329187,-1.69899,0.0363908,-0.0809913,-0.0693536
-0.00157909,0.106408,-1.65004,0.121864,0.357511,-1.62469,0.0263199,-0.0876866,-0.0248833
0.00903997,0.109087,-1.68188,0.156855,0.371431,-1.55,0.011537,-0.0865029,0.00928938
0.0201237,0.111994,-1.71243,0.175556,0.405357,-1.48908,-0.0015789,-0.0842848,0.0202369
0.0315991,0.114845,-1.74166,0.190293,0.422592,-1.41406,-0.0215896,-0.0745399,0.0159422
0.0431254,0.118127,-1.76923,0.244965,0.387747,-1.31835,-0.0414841,-0.0625366,-0.0067783
0.051797,0.122481,-1.79466,0.320691,0.171878,-1.18261,-0.0460759,-0.0412768,-0.0249206
0.056,0.129178,-1.81701,0.487102,-0.00921644,-1.00321,-0.0517355,-0.020824,-0.0936266
0.0572973,0.13993,-1.83629,0.697289,-0.0909883,-0.859097,-0.0928237,0.00122899,-0.170396
0.0566346,0.154401,-1.85356,0.84909,-0.204824,-0.78248,-0.146553,0.015345,-0.177116
0.0542382,0.171875,-1.87047,0.990796,-0.364102,-0.815707,-0.223976,0.0252937,-0.182733
0.0474405,0.192043,-1.88938,1.11398,-0.64684,-0.973337,-0.279217,0.034584,-0.157046
0.0375393,0.213177,-1.91309,1.07277,-0.796205,-1.2726,-0.310225,0.0453368,-0.115579
0.0285796,0.231769,-1.94293,0.875082,-0.737907,-1.58155,-0.299861,0.0695284,-0.0709897
0.0236346,0.246193,-1.97867,0.66687,-0.596264,-1.86251,-0.270845,0.101623,-0.0381902
0.0238328,0.256708,-2.01977,0.483703,-0.425044,-2.10334,-0.242395,0.135749,-0.012017
0.0269545,0.263611,-2.06557,0.3299,-0.485478,-2.31757,-0.219792,0.167063,0.0390182
0.028187,0.267579,-2.11562,0.204188,-0.71895,-2.5104,-0.168767,0.187295,0.0721392
0.0259991,0.268883,-2.16896,0.0694617,-0.887568,-2.6323,-0.0973888,0.215621,0.0632755
0.0228304,0.268009,-2.22389,-0.0173822,-0.860924,-2.67109,-0.0297039,0.247951,0.0131209
0.0212402,0.266337,-2.27865,-0.0268306,-0.739405,-2.61109,0.0502042,0.278672,-0.0307155
0.021395,0.265059,-2.33096,0.00649286,-0.624922,-2.4376,0.134612,0.297473,-0.0492123
0.0221157,0.264845,-2.37873,0.0772478,-0.562239,-2.1853,0.19495,0.298305,-0.0448229
0.0216887,0.266384,-2.42118,0.171882,-0.5998,-1.92599,0.221021,0.284791,-0.029074
0.019104,0.270154,-2.45869,0.276619,-0.641096,-1.70664,0.224754,0.263217,-0.0147327
0.0150894,0.275747,-2.49258,0.319483,-0.661758,-1.57453,0.195,0.243503,0.020218
0.0109374,0.281318,-2.52467,0.258518,-0.629753,-1.52566,0.159842,0.222538,0.0662694
0.00749208,0.284897,-2.55632,0.116811,-0.598871,-1.5255,0.1414,0.206001,0.109734
0.00468783,0.285517,-2.58822,-0.0390338,-0.578984,-1.55169,0.130954,0.192694,0.132067
0.00254338,0.283065,-2.62102,-0.193289,-0.566818,-1.61362,0.12445,0.181034,0.134365
0.000646959,0.277726,-2.65525,-0.338885,-0.569595,-1.69119,0.125995,0.168792,0.12373
-0.000806327,0.269754,-2.69099,-0.459481,-0.54241,-1.75603,0.136123,0.16188,0.0963741
-0.00143114,0.259763,-2.72763,-0.540869,-0.475271,-1.78201,0.164866,0.163986,0.055546
-0.000564242,0.248369,-2.76406,-0.603367,-0.353035,-1.74413,0.204725,0.165547,0.0187836
0.00196405,0.235869,-2.79902,-0.649392,-0.231829,-1.65297,0.236173,0.16098,0.0011183
0.00569985,0.222363,-2.83153,-0.692243,-0.133547,-1.51905,0.263239,0.143478,-0.00200796
0.0102993,0.208293,-2.86074,-0.691555,-0.0316215,-1.35811,0.276011,0.114459,-0.00363064
0.0153932,0.194431,-2.88654,-0.666806,0.0160815,-1.19619,0.265125,0.0769058,0.00774443
0.0198174,0.180806,-2.90917,-0.666382,-0.0105638,-1.06104,0.243996,0.0330631,0.0392006
0.0222112,0.166619,-2.9293,-0.71362,-0.0965331,-0.959428,0.207987,-0.0156998,0.0635141
0.0225084,0.151745,-2.94731,-0.7311,-0.150607,-0.859467,0.180633,-0.0654199,0.0415726
0.0217285,0.137077,-2.96334,-0.70237,-0.148081,-0.760237,0.156593,-0.112742,-0.0121166
0.0212359,0.123237,-2.97752,-0.653913,-0.0987311,-0.683583,0.117843,-0.158401,-0.0740615
0.0209815,0.110767,-2.99044,-0.556538,-0.073841,-0.637667,0.0697248,-0.209375,-0.125915
0.0214327,0.10051,-3.00314,-0.467211,-0.0177938,-0.673083,0.025247,-0.276506,-0.179119
0.0213705,0.0901966,-3.01758,-0.568141,-0.194479,-0.79964,-0.052471,-0.304091,-0.192403
0.014596,0.077217,-3.03517,-0.671624,-0.626287,-0.997073,-0.119578,-0.320824,-0.25333
0.00150284,0.0643747,-3.05732,-0.576206,-0.782701,-1.2317,-0.141057,-0.327546,-0.413922
-0.0101187,0.0549706,-3.08414,-0.38194,-0.471226,-1.43749,-0.164625,-0.273228,-0.559606
-0.0127257,0.0500033,-3.11383,-0.144156,0.056336,-1.49694,-0.159227,-0.186834,-0.615482
-0.0127257,0.0500033,-3.11383,-0.144156,0.056336,-1.49694,-0.159227,-0.186834,-0.615482
-0.0057576,0.0500855,3.14019,0.136062,0.484735,-1.41169,-0.124651,-0.101821,-0.587178
0.00874359,0.0568977,3.11385,0.590057,0.803975,-1.20683,-0.112184,-0.0351588,-0.504906
0.0275299,0.0742508,3.09181,1.18931,0.885956,-0.971542,-0.158936,0.0455876,-0.365941
0.0453641,0.102491,3.07315,1.68487,0.707337,-0.793059,-0.248709,0.152452,-0.150741
0.0583033,0.138318,3.05645,1.94407,0.36608,-0.700706,-0.328847,0.243468,0.0658843
0.064321,0.176115,3.03939,1.89928,-0.0294859,-0.777066,-0.421284,0.315908,0.246198
0.0644485,0.210313,3.01927,1.63123,-0.331334,-0.997073,-0.483227,0.347514,0.362837
0.0610785,0.237956,2.99356,1.27909,-0.582348,-1.35661,-0.501688,0.351042,0.415337
0.0560212,0.257597,2.95986,0.870086,-0.746825,-1.8022,-0.490408,0.344953,0.434696
0.0514136,0.26827,2.91737,0.414544,-0.814666,-2.23988,-0.436165,0.346805,0.413305
0.048317,0.270115,2.86753,0.0372496,-0.815639,-2.53556,-0.354591,0.366726,0.358917
0.046487,0.266472,2.81387,-0.124208,-0.794278,-2.6348,-0.241943,0.387521,0.262446
0.0448677,0.261601,2.76013,-0.109494,-0.766702,-2.56233,-0.136955,0.395987,0.186044
0.0432662,0.257579,2.70888,-0.0767975,-0.708166,-2.41428,-0.0661635,0.380213,0.160334
0.0418754,0.25397,2.66065,-0.0999009,-0.65912,-2.29069,-0.0277029,0.332486,0.173983
0.0409483,0.249211,2.61409,-0.200303,-0.589026,-2.26494,-0.0135033,0.25491,0.209323
0.0411483,0.24166,2.56743,-0.375137,-0.544974,-2.3052,-0.0114226,0.188839,0.24043
0.0411986,0.230111,2.52009,-0.596168,-0.565743,-2.35463,0.0185382,0.132977,0.248984
0.0399557,0.214169,2.47222,-0.79721,-0.607872,-2.37855,0.068893,0.0869097,0.219522
0.0376098,0.195603,2.42519,-0.862146,-0.579194,-2.29192,0.14198,0.0504521,0.126874
0.0347578,0.177044,2.38125,-0.830548,-0.49923,-2.08811,0.225192,0.0264474,0.044153
0.0333149,0.160125,2.3427,-0.740019,-0.285279,-1.77131,0.303925,-0.006727,-0.0182232
0.0337747,0.145003,2.31091,-0.689502,-0.181525,-1.43252,0.352191,-0.0628413,-0.0350304
0.0333578,0.129897,2.28575,-0.759244,-0.224197,-1.13048,0.372615,-0.1427,-0.0257152
0.0298804,0.113129,2.26586,-0.849172,-0.376177,-0.913659,0.353906,-0.215299,-0.0556181
0.0224848,0.0955215,2.24963,-0.858633,-0.525835,-0.761095,0.321812,-0.276145,-0.151554
0.0129283,0.0789651,2.23584,-0.766895,-0.523888,-0.651069,0.306967,-0.325444,-0.280726
0.00365571,0.0646365,2.22397,-0.668975,-0.507453,-0.54461,0.292403,-0.33676,-0.39182
-0.00700892,0.0517643,2.21451,-0.622411,-0.615616,-0.385808,0.297542,-0.322847,-0.460989
-0.0185785,0.0409653,2.20889,-0.438378,-0.524166,-0.158285,0.303474,-0.312058,-0.560185
-0.0254788,0.0360027,2.20791,-0.0457021,-0.121694,0.06606,0.266152,-0.283677,-0.656566
-0.0220238,0.0393554,2.21111,0.373272,0.48064,0.239172,0.209185,-0.241447,-0.648554
-0.00848326,0.0497217,2.21699,0.643947,0.854974,0.320025,0.168019,-0.21452,-0.480886
0.0100762,0.0638992,2.22408,0.764933,1.03571,0.40188,0.132095,-0.176867,-0.261781
0.0307003,0.0802494,2.23309,0.851359,1.07186,0.542757,0.104764,-0.102332,-0.0957442
0.0501868,0.0983389,2.24505,0.906033,0.97179,0.729819,0.0811039,-0.0265449,0.031498
0.0655051,0.117325,2.26063,0.886488,0.703383,0.924812,0.0564517,0.0348722,0.143003
0.0733162,0.135375,2.27962,0.769144,0.297335,1.0765,0.0329953,0.0754982,0.215987
0.0713902,0.150149,2.3012,0.536344,-0.168585,1.17066,0.00381375,0.110187,0.245645
0.0607547,0.160102,2.32526,0.323481,-0.492271,1.27732,-0.0100141,0.147456,0.194664
0.0452985,0.167357,2.35139,0.292289,-0.59826,1.33149,-0.0269501,0.171292,0.0617383
0.0296214,0.174935,2.37807,0.36677,-0.484167,1.33264,-0.0438593,0.184206,-0.042046
0.017501,0.183913,2.40511,0.472295,-0.237959,1.36284,-0.0252616,0.181413,-0.0764785
0.00980912,0.194903,2.43303,0.588145,-0.02801,1.40292,-0.00431318,0.185203,-0.0463549
0.00427998,0.207551,2.46185,0.642367,0.0149305,1.43225,-0.00871997,0.192148,0.049071
-0.00219597,0.22018,2.49091,0.613415,-0.0393287,1.40896,-0.0299005,0.180014,0.152965
-0.00984196,0.231947,2.51884,0.574633,-0.0882286,1.30001,-0.049931,0.155166,0.20822
-0.0178229,0.242438,2.54385,0.497342,-0.116644,1.11279,-0.0664853,0.126178,0.250493
-0.025397,0.250798,2.56471,0.383898,-0.132144,0.904926,-0.0610325,0.0978625,0.287265
-0.0326645,0.256891,2.58144,0.259839,-0.186139,0.708084,-0.0369707,0.0908516,0.298898
-0.0402505,0.260357,2.59451,0.138394,-0.226998,0.552885,-0.0028798,0.090204,0.29329
-0.0472017,0.262048,2.60474,0.0883772,-0.208995,0.434095,0.0412246,0.0790209,0.237063
-0.0532243,0.263348,2.61278,0.0780759,-0.178464,0.342925,0.0785105,0.0791162,0.182571
-0.0574492,0.264001,2.61914,0.00956479,-0.0774259,0.267693,0.0839928,0.0839275,0.154298
-0.0574492,0.264001,2.61914,0.00956479,-0.0774259,0.267693,0.0839928,0.0839275,0.154298
-0.0597907,0.262692,2.62394,-0.125108,-0.0486022,0.19245,0.0862696,0.0693889,0.1486
-0.0616727,0.25815,2.62628,-0.32348,-0.082513,0.0482523,0.0701504,0.0336276,0.130034
-0.0635457,0.249563,2.6245,-0.551455,-0.166271,-0.184221,0.0279511,-0.00193594,0.0779045
-0.0662981,0.236702,2.61689,-0.782464,-0.274756,-0.465899,-0.0162709,-0.0195916,-0.0179188
-0.0687761,0.220235,2.60409,-0.923508,-0.234206,-0.654217,0.0169521,-0.045137,-0.149676
-0.0677904,0.203083,2.5888,-0.863066,0.0586616,-0.6998,0.0727094,-0.0536658,-0.297184
-0.0588333,0.188715,2.57429,-0.677158,0.553984,-0.627046,0.108476,-0.0583291,-0.40573
-0.0425078,0.176202,2.56123,-0.683361,0.77971,-0.603712,0.0392736,-0.0308395,-0.371582
-0.0258838,0.161583,2.54815,-0.829979,0.618475,-0.647339,-0.00726262,-0.0588606,-0.263692
-0.0138313,0.144785,2.53398,-0.852239,0.408172,-0.710175,-0.0334024,-0.0941846,-0.273085
-0.00348979,0.130142,2.52036,-0.591233,0.471901,-0.595166,-0.0244023,-0.0798656,-0.373209
0.00856222,0.122371,2.51091,-0.188025,0.620118,-0.335103,0.0162517,-0.0455827,-0.398414
0.0220165,0.121809,2.50701,0.100628,0.649372,-0.060029,0.0126791,-0.0143106,-0.28214
0.0331919,0.125517,2.50796,0.259668,0.480459,0.146678,-0.0268518,-0.00925757,-0.133413
0.0406217,0.13244,2.5119,0.425498,0.336956,0.256132,-0.0874045,-0.00338416,-0.0494615
0.0456114,0.142872,2.51717,0.594232,0.242225,0.307537,-0.142543,0.0146552,0.00166017
0.0486236,0.15651,2.52297,0.731303,0.13072,0.32011,-0.188818,0.0424377,0.0497508
0.0484038,0.172385,2.52817,0.821681,-0.0848191,0.26182,-0.231582,0.0625082,0.109315
0.0435172,0.188813,2.53111,0.784567,-0.357526,0.0902387,-0.276739,0.0870613,0.165578
0.0341662,0.202389,2.52974,0.549215,-0.576423,-0.186563,-0.299408,0.103247,0.213148
0.0238378,0.209813,2.52222,0.201764,-0.567791,-0.540095,-0.302671,0.0984901,0.21058
0.0174986,0.210318,2.50738,-0.1017,-0.355967,-0.902699,-0.272117,0.100921,0.154008
0.0172948,0.206436,2.48663,-0.221869,-0.104613,-1.10787,-0.196004,0.126162,0.0720661
0.021403,0.20218,2.46386,-0.138499,0.0380689,-1.10877,-0.105331,0.1669,0.0292878
0.0269835,0.200816,2.44262,0.0493697,0.0813831,-0.966395,-0.0181067,0.18241,0.0382327
0.0319534,0.202673,2.4245,0.160185,0.0425348,-0.817488,0.0155504,0.180735,0.109754
0.0354675,0.205188,2.40869,0.11788,-0.00654776,-0.737336,0.0182471,0.143937,0.207258
0.0380733,0.205849,2.39354,0.000288592,-0.0292547,-0.761043,0.00155787,0.086784,0.265822
0.0410539,0.203848,2.37747,-0.138066,-0.0159922,-0.826974,-0.0149545,0.0449374,0.283157
0.0436582,0.199289,2.3604,-0.233845,-0.0702546,-0.853262,0.00874841,0.00581856,0.270182
0.044655,0.193592,2.34371,-0.251093,-0.152613,-0.799726,0.0547503,-0.0187053,0.222315
0.0444586,0.188274,2.32856,-0.210666,-0.141108,-0.706515,0.0936248,-0.0383311,0.157521
0.0445752,0.183988,2.3157,-0.160577,-0.0877786,-0.5795,0.124283,-0.0624856,0.109816
0.0450616,0.180943,2.3054,-0.10254,-0.0550635,-0.445217,0.147416,-0.0897117,0.0808816
0.045019,0.178634,2.29783,-0.1195,-0.106309,-0.320736,0.161218,-0.114215,0.0738648
0.0425798,0.174513,2.29254,-0.281901,-0.234799,-0.22737,0.159786,-0.136583,0.0688033
0.0369004,0.166951,2.2886,-0.456926,-0.406662,-0.203582,0.152632,-0.158927,-0.00427562
0.0284491,0.156003,2.28455,-0.621042,-0.490492,-0.239,0.113227,-0.158578,-0.130097
0.0203995,0.14289,2.27971,-0.652434,-0.326983,-0.268644,0.107511,-0.168341,-0.294196
0.0189829,0.13131,2.27459,-0.481034,0.119192,-0.245685,0.140758,-0.167971,-0.436858
0.0245161,0.12351,2.27138,-0.322077,0.319447,-0.0592139,0.185375,-0.107654,-0.447323
0.0293722,0.117792,2.27352,-0.260095,0.177789,0.262268,0.256205,-0.0815769,-0.362476
0.0317197,0.114057,2.28176,-0.125772,0.19153,0.529027,0.255052,-0.0900327,-0.357171
0.036352,0.114215,2.29424,0.102978,0.441244,0.703648,0.208735,-0.0940102,-0.367325
0.0455863,0.118764,2.3097,0.267111,0.634472,0.855301,0.176003,-0.0759123,-0.268894
0.0561809,0.125423,2.3282,0.293496,0.618774,1.02031,0.172164,-0.0589415,-0.105856
0.0639132,0.132564,2.35009,0.292329,0.401361,1.20124,0.166168,-0.04092,-0.00255775
0.0657155,0.140697,2.37587,0.374669,0.135869,1.4136,0.168852,-0.0233565,0.0286766
0.0629376,0.15199,2.40584,0.574083,0.0641047,1.61649,0.151177,0.00846094,0.00157511
0.0593594,0.167169,2.43907,0.718366,0.104553,1.74543,0.0960587,0.0485178,0.00809622
0.054955,0.183492,2.47416,0.698839,0.0618295,1.80242,0.0588793,0.0577849,0.0849539
0.0477101,0.197969,2.50995,0.551652,-0.130401,1.78724,0.0238115,0.0665968,0.142972
0.0349446,0.208365,2.54537,0.346725,-0.432479,1.72416,-0.00371,0.0663419,0.156316
0.0349446,0.208365,2.54537,0.346725,-0.432479,1.72416,-0.00371,0.0663419,0.156316
0.0172556,0.214799,2.57904,0.231753,-0.603695,1.58013,-0.0401736,0.0672469,0.080786
-0.00134798,0.219501,2.60907,0.225703,-0.591207,1.35501,-0.0836606,0.0800621,-0.0328904
-0.0173991,0.22433,2.63459,0.286675,-0.435102,1.14646,-0.0770624,0.0940813,-0.101651
-0.0281042,0.230273,2.65661,0.360511,-0.126479,1.00735,-0.0304873,0.118929,-0.112947
-0.0319306,0.237491,2.6767,0.415175,0.19542,0.94291,0.00101501,0.162252,-0.0557858
-0.030993,0.245018,2.69589,0.389306,0.317337,0.899977,-5.83865e-05,0.188741,0.060945
-0.0296164,0.251727,2.7139,0.34497,0.252982,0.82152,-0.0125504,0.174583,0.166622
-0.0298351,0.258153,2.73,0.351522,0.142859,0.725942,-0.00921321,0.156312,0.217257
-0.0316999,0.264838,2.74447,0.348841,0.0517745,0.654727,-0.000278985,0.15929,0.242757
-0.034807,0.2709,2.7575,0.285478,-0.0197548,0.580402,0.0086895,0.154226,0.267146
-0.0386822,0.275027,2.76874,0.156239,-0.0748311,0.488359,0.0102416,0.141309,0.269376
-0.0429973,0.276856,2.7779,0.0792537,-0.0912463,0.390386,0.0261342,0.109911,0.23131
-0.046132,0.278331,2.78507,0.107128,-0.0220377,0.298894,0.0308216,0.101824,0.153287
-0.047531,0.280453,2.79067,0.122156,0.024314,0.238197,0.039065,0.0951353,0.117743
-0.0483899,0.282518,2.79533,0.101396,0.0123074,0.198186,0.0601101,0.0734825,0.114079
-0.0497847,0.283392,2.79882,-0.0100849,-0.063441,0.128563,0.066639,0.050595,0.11383
-0.0522028,0.281237,2.8005,-0.203616,-0.122553,0.0436913,0.0603372,0.02875,0.093895
-0.0549115,0.275208,2.8,-0.398532,-0.172132,-0.0681267,0.0252307,0.0156586,0.0286978
-0.0583695,0.265976,2.79637,-0.533612,-0.259818,-0.234298,-0.0304917,-0.00532216,-0.0702082
-0.0608979,0.255162,2.78917,-0.588798,-0.172289,-0.398153,-0.0306489,-0.0571221,-0.184745
-0.060464,0.243417,2.77855,-0.656709,-0.0278042,-0.55993,-0.0377288,-0.069038,-0.259708
-0.0557289,0.230093,2.76498,-0.757139,0.170885,-0.672167,-0.0371375,-0.0521745,-0.295277
-0.0482082,0.214691,2.74976,-0.86197,0.221566,-0.72464,-0.00652092,-0.0573401,-0.295379
-0.0400343,0.197703,2.73431,-0.870507,0.27804,-0.695587,0.0153335,-0.0570772,-0.321199
-0.0303883,0.183009,2.72062,-0.618183,0.435597,-0.593623,0.0375056,-0.051547,-0.378039
-0.0187675,0.174487,2.70983,-0.272141,0.520407,-0.439928,0.0593292,-0.042217,-0.361961
-0.00733941,0.171626,2.703,-0.0465274,0.486589,-0.225288,0.0855701,-0.0270912,-0.246194
0.00164756,0.172453,2.70087,0.129888,0.376424,0.00957269,0.0773869,0.0062094,-0.142688
0.00810475,0.177174,2.70306,0.347935,0.335151,0.199044,0.0407435,0.0217225,-0.0862432
0.0140821,0.186287,2.70812,0.542994,0.363495,0.289534,-0.0441724,0.0412299,-0.0389595
0.0197995,0.198466,2.71371,0.647512,0.293411,0.257073,-0.127625,0.0471721,0.0461723
0.0230357,0.211333,2.71731,0.611577,0.084451,0.10825,-0.199661,0.0565347,0.13208
0.022185,0.222122,2.71723,0.449516,-0.161504,-0.102525,-0.245912,0.0848785,0.183551
0.0183335,0.228942,2.71236,0.247044,-0.304984,-0.362649,-0.265519,0.10532,0.181187
0.0144096,0.232101,2.70217,0.0994965,-0.296363,-0.622,-0.250595,0.117352,0.145585
0.0137843,0.233033,2.68717,0.0181735,-0.0902145,-0.829288,-0.216155,0.152133,0.106774
0.0188288,0.23209,2.66889,-0.0977783,0.165455,-0.941556,-0.168759,0.18985,0.122811
0.0283097,0.228366,2.64936,-0.224578,0.322233,-0.957476,-0.1062,0.20063,0.184035
0.0388901,0.222735,2.63024,-0.263336,0.291881,-0.923522,-0.065233,0.190151,0.227657
0.0472881,0.217109,2.61249,-0.223509,0.155937,-0.826345,-0.0155669,0.171904,0.256347
0.0518332,0.212029,2.59692,-0.218707,-0.038431,-0.729739,0.0149478,0.152399,0.288869
0.0523186,0.206353,2.58308,-0.294311,-0.182907,-0.661496,0.0401386,0.111523,0.304304
0.0499968,0.198237,2.57006,-0.4606,-0.306745,-0.659138,0.0487964,0.0694385,0.308673
0.0458181,0.18685,2.55721,-0.610156,-0.347355,-0.661253,0.0686426,0.0269818,0.25883
0.0415947,0.173387,2.54448,-0.667803,-0.289479,-0.647273,0.0953018,-0.00408591,0.165307
0.0392023,0.15978,2.53248,-0.642384,-0.141131,-0.583122,0.135837,-0.0260646,0.0595782
0.0391598,0.147205,2.52256,-0.583015,-0.0186964,-0.438065,0.170121,-0.0454801,-0.013023
0.0402452,0.136415,2.51624,-0.450956,0.0245543,-0.227564,0.196071,-0.0762877,-0.0715395
0.0408968,0.129483,2.5142,-0.217143,-0.0130224,-0.00684613,0.19638,-0.105147,-0.127959
0.0399947,0.127819,2.51593,0.0251648,-0.0649265,0.155276,0.16745,-0.13321,-0.161127
0.0371043,0.129428,2.51951,0.0924614,-0.183422,0.188485,0.115451,-0.165244,-0.138441
0.0322231,0.130636,2.52231,0.00626856,-0.251084,0.0764692,0.0658353,-0.203887,-0.131472
0.0279979,0.129647,2.52209,-0.0998518,-0.145049,-0.101953,0.0281946,-0.219303,-0.184776
0.0279703,0.127022,2.51873,-0.137791,0.113821,-0.21878,0.0281058,-0.208906,-0.25318
0.0279703,0.127022,2.51873,-0.137791,0.113821,-0.21878,0.0281058,-0.208906,-0.25318
0.033994,0.124976,2.51421,-0.0383417,0.433696,-0.220237,0.0686184,-0.19522,-0.283687
0.0462642,0.12512,2.51034,0.03259,0.732866,-0.157107,0.113675,-0.180627,-0.236479
0.0611861,0.124119,2.50831,-0.160108,0.661119,-0.0436839,0.147162,-0.189356,-0.0804726
0.0708204,0.118613,2.50896,-0.377982,0.284346,0.0681535,0.17261,-0.219677,-0.0173584
0.0725342,0.110759,2.51176,-0.41219,-0.0511889,0.156366,0.196696,-0.248629,-0.120054
0.070371,0.103912,2.51705,-0.275181,-0.0576889,0.337828,0.195874,-0.224919,-0.28993
0.0695117,0.102327,2.52635,0.077292,0.10062,0.589532,0.224273,-0.178628,-0.40427
0.0721108,0.108443,2.54087,0.401673,0.308845,0.906524,0.22081,-0.104202,-0.40511
0.0769788,0.119436,2.56139,0.526256,0.387166,1.20231,0.169708,-0.0521279,-0.296792
0.0821205,0.133544,2.58648,0.714074,0.463449,1.37589,0.104539,-0.0528267,-0.213568
0.0886347,0.15295,2.61338,0.987227,0.560634,1.44891,0.0359583,-0.0271653,-0.146611
0.0952977,0.177187,2.64156,1.15025,0.550388,1.55886,0.0115304,0.0254284,-0.0122952
0.0982771,0.20343,2.67203,1.157,0.276902,1.68801,0.00636702,0.069522,0.128996
0.091249,0.228673,2.7056,1.02635,-0.282339,1.82658,-0.00684114,0.110704,0.213889
0.0717539,0.250374,2.74237,0.862413,-0.742411,1.89511,-0.0505055,0.138056,0.19762
0.0457116,0.268981,2.77897,0.809106,-0.900407,1.7179,-0.152955,0.142138,0.0647503
0.0195194,0.286059,2.81019,0.798966,-0.812372,1.32373,-0.223086,0.128578,-0.0387136
0.000117528,0.301552,2.83312,0.723842,-0.425531,0.90544,-0.215322,0.132848,-0.079013
-0.00838761,0.31503,2.84915,0.633695,0.0530477,0.650434,-0.130865,0.173065,-0.0584169
-0.00786508,0.32664,2.86199,0.534328,0.370389,0.586798,-0.055646,0.24556,0.0306995
-0.00368748,0.336394,2.87469,0.460318,0.418233,0.610252,-0.0166608,0.274864,0.133184
-0.001331,0.345666,2.88769,0.481991,0.238683,0.611054,0.00137433,0.255464,0.205437
-0.00321284,0.355364,2.90008,0.484087,0.0117414,0.555934,0.00273745,0.244767,0.261444
-0.00844598,0.364202,2.91111,0.395989,-0.122474,0.470859,0.00972296,0.238055,0.301959
-0.0140188,0.37032,2.92011,0.208914,-0.0996143,0.362314,0.0267246,0.228308,0.318289
-0.0181576,0.372056,2.92664,-0.0232507,-0.0750163,0.252424,0.0537949,0.211676,0.333528
-0.0208627,0.369575,2.93119,-0.204206,-0.0382379,0.189589,0.0673195,0.209623,0.310345
-0.0231402,0.364298,2.93488,-0.306349,-0.0692379,0.16955,0.0803355,0.200577,0.270336
-0.0260585,0.35745,2.93784,-0.378881,-0.116365,0.118977,0.0781501,0.171634,0.21806
-0.0292601,0.34893,2.93954,-0.468886,-0.138317,0.0612295,0.0707669,0.145374,0.166708
-0.0317985,0.338637,2.93958,-0.568609,-0.113889,-0.0315239,0.0614207,0.109179,0.109159
-0.0328553,0.325947,2.937,-0.723791,-0.0817794,-0.168645,0.0413279,0.0772556,0.0620558
-0.0326234,0.309592,2.93169,-0.936295,-0.0772738,-0.278956,0.0337067,0.0412419,0.0118116
-0.032314,0.28912,2.9243,-1.12258,-0.111902,-0.353171,0.0273511,0.0127396,-0.0633218
-0.0320567,0.266301,2.91618,-1.16178,-0.0472857,-0.345791,0.0339274,-0.0260959,-0.18461
-0.0284471,0.244148,2.90835,-1.08225,0.21882,-0.358639,0.0216488,-0.0700841,-0.310719
-0.0198931,0.222998,2.89948,-1.09172,0.398784,-0.470278,-0.0424141,-0.0897586,-0.354269
-0.00970262,0.199873,2.88806,-1.24989,0.346091,-0.612928,-0.0570953,-0.137621,-0.330669
-0.00161418,0.174303,2.87474,-1.27828,0.231858,-0.659415,-0.0409976,-0.161447,-0.383684
0.00486704,0.151177,2.86265,-0.98758,0.233376,-0.511867,0.0041454,-0.149706,-0.494465
0.0114767,0.13708,2.85516,-0.395292,0.337352,-0.231626,0.0323782,-0.125831,-0.570878
0.0194152,0.135023,2.85364,0.156462,0.409807,0.0758606,0.0177958,-0.0937802,-0.518123
0.026266,0.141472,2.85741,0.448499,0.309656,0.298235,-0.0203395,-0.0813203,-0.334566
0.0303109,0.152506,2.86424,0.642011,0.217328,0.39195,-0.0982376,-0.0761115,-0.189307
0.0330859,0.167348,2.87149,0.820097,0.163181,0.356866,-0.199701,-0.0526547,-0.106337
0.0341231,0.185439,2.87695,0.963159,0.0112728,0.231378,-0.269539,-0.0234929,-0.0179303
0.0315064,0.205743,2.87913,1.05349,-0.240688,0.0458114,-0.299285,0.00943935,0.0722806
0.0250168,0.226785,2.8774,1.04351,-0.430154,-0.154078,-0.303182,0.0679548,0.142074
0.0168974,0.246169,2.87151,0.884791,-0.510122,-0.388995,-0.298003,0.117943,0.203311
0.00993988,0.260798,2.8602,0.579062,-0.460483,-0.702027,-0.29096,0.143395,0.245113
0.00667556,0.268387,2.84203,0.195515,-0.341052,-1.04374,-0.249417,0.140024,0.265539
0.00757941,0.269231,2.81781,-0.0646018,-0.219492,-1.27409,-0.182157,0.150527,0.229115
0.0111804,0.266947,2.79058,-0.109397,-0.150626,-1.33498,-0.112011,0.194848,0.167081
0.0153211,0.265493,2.76364,0.0153833,-0.153414,-1.25864,-0.0288371,0.212107,0.123877
0.0153211,0.265493,2.76364,0.0153833,-0.153414,-1.25864,-0.0288371,0.212107,0.123877
0.0184067,0.266985,2.73918,0.162943,-0.179969,-1.10441,0.0297165,0.216401,0.127722
0.0205184,0.270448,2.71756,0.197062,-0.173677,-0.992558,0.0334667,0.211927,0.17318
0.0228442,0.273123,2.69715,0.0983097,-0.139511,-0.987264,0.00926978,0.170131,0.230825
0.0264432,0.273261,2.67602,-0.0309808,-0.0667214,-1.05761,-0.00379157,0.119726,0.258977
0.0321792,0.270791,2.65322,-0.159062,0.0235121,-1.15105,-0.0167342,0.0961833,0.262072
0.0392113,0.264945,2.62895,-0.347085,0.0160125,-1.20899,-0.00199052,0.0778805,0.281214
0.0451189,0.255343,2.6043,-0.48997,-0.0566954,-1.21279,0.0349111,0.0454239,0.258554
0.0497552,0.244559,2.58044,-0.455091,-0.0648715,-1.13955,0.0766537,0.018618,0.163974
0.0535654,0.235763,2.55919,-0.311014,-0.0544629,-0.94817,0.127675,0.00627431,0.0732368
0.0565622,0.230081,2.54285,-0.177369,-0.0414794,-0.666396,0.178066,-0.0202346,0.0245963
0.0573013,0.22633,2.53245,-0.165533,-0.136418,-0.370426,0.184211,-0.0403678,0.0252958
0.0537384,0.221778,2.52776,-0.280157,-0.337922,-0.133041,0.16176,-0.0753699,0.022165
0.0451749,0.214366,2.52653,-0.458094,-0.522839,-0.0467792,0.0930658,-0.116526,-0.0510156
0.0348249,0.203791,2.52588,-0.573971,-0.483672,-0.0742645,0.0329955,-0.165018,-0.176912
0.0287667,0.192788,2.52373,-0.486265,-0.113352,-0.171865,0.00907783,-0.207757,-0.323833
0.0331135,0.18504,2.51992,-0.272309,0.486158,-0.211383,0.0236864,-0.216909,-0.397401
0.047991,0.180321,2.5159,-0.24453,0.845192,-0.189476,0.080735,-0.20777,-0.292524
0.0646202,0.172835,2.51376,-0.509834,0.716284,-0.047592,0.136857,-0.188544,-0.0958275
0.0738641,0.160908,2.51541,-0.638569,0.195693,0.118054,0.175249,-0.204898,-0.0594172
0.0708849,0.150737,2.52002,-0.362011,-0.359962,0.266866,0.206497,-0.225977,-0.190656
0.0619288,0.14811,2.52747,0.0316571,-0.3432,0.458616,0.212424,-0.177901,-0.343853
0.0566535,0.152457,2.53889,0.316413,0.0116153,0.698971,0.210437,-0.11301,-0.361131
0.0576846,0.161305,2.55426,0.457909,0.307788,0.854809,0.192119,-0.0796588,-0.281133
0.063077,0.172114,2.57204,0.515862,0.521884,0.961666,0.160537,-0.0610491,-0.161708
0.0712731,0.184437,2.59157,0.597168,0.631557,1.04397,0.11838,-0.0294061,-0.0702526
0.0805745,0.199304,2.61274,0.728135,0.696463,1.1497,0.0898682,0.0170174,0.00233895
0.0890286,0.216666,2.63589,0.795064,0.604919,1.26644,0.0716303,0.0599608,0.0924875
0.0929272,0.234631,2.66165,0.754443,0.340108,1.40727,0.0712023,0.0938119,0.171331
0.0890733,0.25116,2.6905,0.63061,-0.020702,1.53336,0.0652942,0.111274,0.208269
0.0773653,0.264595,2.72161,0.45582,-0.344887,1.56977,0.0405444,0.115599,0.188248
0.060278,0.274029,2.75282,0.281626,-0.523312,1.48461,-0.00487793,0.107343,0.121585
0.0401857,0.279189,2.78116,0.0861008,-0.721693,1.25767,-0.0668023,0.11156,0.0269856
0.0184996,0.279498,2.8042,-0.121012,-0.779289,0.968478,-0.0742229,0.0976655,-0.0843804
-0.000493296,0.27606,2.82179,-0.203104,-0.572071,0.743966,-0.0145095,0.0949855,-0.20101
-0.00983505,0.273466,2.83603,-0.00889341,0.0671304,0.657714,0.0547117,0.129719,-0.32491
-0.00484176,0.276534,2.85047,0.323939,0.790129,0.755397,0.102161,0.187925,-0.324106
0.00974295,0.284946,2.86755,0.482725,1.0676,0.89473,0.112553,0.221108,-0.097757
0.0251202,0.295482,2.88697,0.525928,1.00174,0.974108,0.080509,0.206545,0.131989
0.0367266,0.306225,2.90708,0.479101,0.740978,0.978835,0.0333187,0.195215,0.295594
0.0425533,0.315218,2.92654,0.336417,0.44334,0.907295,-0.000512213,0.176723,0.399697
0.0428538,0.320639,2.94445,0.13388,0.135633,0.811092,-0.0153735,0.158939,0.45242
0.0387441,0.322254,2.96026,-0.0292735,-0.0281605,0.69739,-0.0145543,0.140344,0.426664
0.0331367,0.320927,2.97391,-0.148482,-0.0878445,0.599022,-0.00676563,0.137025,0.363248
0.0278734,0.317341,2.98572,-0.241917,-0.0633874,0.515415,-0.00908321,0.145431,0.288536
0.0237183,0.312093,2.99614,-0.297465,-0.0337123,0.458583,-0.000139967,0.130553,0.214563
0.020211,0.306432,3.00519,-0.285363,-0.0558759,0.388012,0.00770934,0.0999073,0.14243
0.0158636,0.30072,3.01244,-0.31581,-0.165264,0.293672,-0.000853613,0.0905195,0.0984359
0.0102707,0.293402,3.0176,-0.437196,-0.257431,0.181965,-0.00566597,0.0829728,0.0605475
0.00310475,0.282705,3.01906,-0.657477,-0.419208,-0.0687812,-0.0458739,0.0689171,0.0052979
-0.00451164,0.266349,3.01455,-0.988522,-0.429699,-0.354537,-0.0631371,0.0430267,-0.0844506
-0.00849137,0.244038,3.0051,-1.21357,-0.162963,-0.522278,-0.0245515,0.01825,-0.224031
-0.00490635,0.219984,2.99371,-1.16474,0.260556,-0.557001,0.0232817,-0.0100268,-0.383471
0.00614439,0.198905,2.98281,-0.945328,0.578403,-0.506571,-0.0027273,0.0182141,-0.452963
0.0194302,0.180676,2.97301,-0.920302,0.505896,-0.490534,-0.0283138,0.00289114,-0.358535
0.0194302,0.180676,2.97301,-0.920302,0.505896,-0.490534,-0.0283138,0.00289114,-0.358535
0.0286624,0.160385,2.96354,-1.08554,0.280592,-0.489531,-0.0322274,-0.0579685,-0.25886
0.035283,0.138902,2.95494,-0.974131,0.278675,-0.418367,-0.046029,-0.0869931,-0.343133
0.0425233,0.123272,2.94877,-0.555293,0.358458,-0.229035,-0.0331242,-0.0669965,-0.431169
0.0496594,0.116061,2.94782,-0.188801,0.320237,0.111531,0.0189323,-0.0540603,-0.354372
0.0541662,0.115038,2.95362,0.0420554,0.181224,0.453681,0.00684133,-0.0338058,-0.222498
0.0540128,0.118643,2.96515,0.258075,-0.0577773,0.693467,-0.0516844,-0.0411201,-0.134058
0.0492648,0.12665,2.9798,0.463936,-0.219695,0.783458,-0.133644,-0.066392,-0.0810055
0.0425605,0.138465,2.99478,0.645531,-0.241414,0.742024,-0.207485,-0.0752643,-0.0398715
0.0361006,0.153143,3.0075,0.765841,-0.233339,0.557471,-0.268886,-0.0712863,0.0231751
0.0296997,0.169254,3.01567,0.808244,-0.298786,0.292191,-0.302007,-0.0655308,0.100312
0.0211608,0.185034,3.01838,0.756766,-0.522274,0.0197928,-0.312455,-0.0258743,0.172209
0.00947761,0.198883,3.01559,0.621942,-0.692108,-0.274795,-0.307859,0.0190926,0.19788
-0.003166,0.209491,3.00649,0.444281,-0.722728,-0.626809,-0.310197,0.0548095,0.179975
-0.0123883,0.216835,2.98964,0.280204,-0.535217,-1.02766,-0.294497,0.0747741,0.136756
-0.0149548,0.221198,2.96494,0.12568,-0.258517,-1.37626,-0.252103,0.115959,0.109041
-0.0115873,0.223087,2.93472,0.0407284,-0.110558,-1.55584,-0.17028,0.164647,0.107279
-0.00673601,0.224411,2.90249,0.083432,-0.13749,-1.57727,-0.0787601,0.202986,0.102482
-0.00289477,0.227347,2.87092,0.198062,-0.170123,-1.50361,-0.00610612,0.223989,0.0984093
0.00107255,0.232253,2.84085,0.274016,-0.106091,-1.44412,0.0259643,0.225319,0.122854
0.00668689,0.237312,2.8113,0.224752,-0.0214292,-1.44446,0.0323952,0.207229,0.186673
0.0137656,0.240237,2.78135,0.0889263,0.00493689,-1.46678,0.0388457,0.18146,0.247404
0.0211819,0.239941,2.75102,-0.0674834,0.0173188,-1.48439,0.0489912,0.156331,0.265461
0.0290764,0.23649,2.72067,-0.199688,0.057236,-1.47502,0.0598106,0.127983,0.24086
0.0375034,0.23051,2.69106,-0.296517,0.10422,-1.43205,0.0755272,0.0970806,0.203014
0.0464399,0.222876,2.66252,-0.348878,0.142427,-1.38772,0.0840128,0.0596428,0.164507
0.0552606,0.214003,2.63532,-0.408223,0.148284,-1.30867,0.106489,0.0253917,0.14127
0.063448,0.203655,2.61045,-0.486664,0.158195,-1.1823,0.133706,-0.00665753,0.114769
0.0705593,0.191538,2.58874,-0.583891,0.114687,-1.02966,0.151003,-0.035629,0.0818852
0.0751667,0.177667,2.57059,-0.658794,0.00765523,-0.848498,0.170746,-0.0642024,0.0256231
0.0759193,0.163018,2.55622,-0.697052,-0.193063,-0.679338,0.176639,-0.0950885,-0.060778
0.0719226,0.148019,2.54541,-0.716479,-0.346673,-0.494124,0.167695,-0.109952,-0.174884
0.0669831,0.13416,2.53848,-0.60117,-0.212153,-0.296133,0.184416,-0.14827,-0.321664
0.0650848,0.123994,2.53487,-0.378002,-0.00959951,-0.11893,0.167806,-0.158672,-0.432233
0.0669099,0.118875,2.53526,-0.140479,0.167314,0.138162,0.165042,-0.140194,-0.462404
0.0715221,0.119069,2.54074,0.128381,0.367577,0.395773,0.154005,-0.146563,-0.426764
0.0795683,0.125118,2.54985,0.398278,0.531946,0.538678,0.104426,-0.167262,-0.34462
0.0892383,0.135602,2.56056,0.534559,0.554371,0.61028,0.0486001,-0.152335,-0.192123
0.0979413,0.147529,2.57216,0.524696,0.450596,0.636963,0.0193968,-0.145577,-0.0550928
0.102205,0.157767,2.58363,0.359469,0.126319,0.596798,0.00966771,-0.141989,0.0414785
0.099576,0.163482,2.59472,0.109252,-0.205384,0.554892,0.0323919,-0.148967,0.0623149
0.0917904,0.165629,2.60543,0.036749,-0.360281,0.515161,0.0365613,-0.125547,-0.0530394
0.0830704,0.167879,2.61573,0.105072,-0.317982,0.533289,0.0421845,-0.0621567,-0.20154
0.0770077,0.172293,2.62741,0.268197,-0.0585842,0.67168,0.0920236,-0.0103663,-0.271708
0.0775437,0.181671,2.64236,0.56783,0.375533,0.879325,0.126064,0.0467013,-0.284458
0.0847389,0.196708,2.66114,0.742024,0.643524,1.08359,0.117922,0.114799,-0.141639
0.0932339,0.213455,2.68381,0.719993,0.632981,1.27614,0.101763,0.134689,0.0764844
0.0982978,0.229506,2.7099,0.629008,0.406146,1.41236,0.0806727,0.146122,0.219429
0.0956201,0.243451,2.73884,0.474967,-0.00831013,1.53276,0.078453,0.142985,0.309661
0.0826479,0.253613,2.77043,0.261379,-0.505912,1.60825,0.0845918,0.13724,0.343294
0.0609659,0.259408,2.80331,0.098457,-0.779391,1.60227,0.0649812,0.127831,0.279566
0.0366976,0.26173,2.83542,-0.00815681,-0.798864,1.50299,0.0337435,0.126108,0.15641
0.0139856,0.261506,2.86494,-0.0860399,-0.69602,1.35553,0.0286198,0.119177,0.0619919
-0.00528411,0.259363,2.89142,-0.136347,-0.545343,1.21828,0.0552325,0.108638,-0.00719953
-0.0204824,0.256891,2.91554,-0.0623868,-0.331335,1.13549,0.0965759,0.10164,-0.0750563
-0.0204824,0.256891,2.91554,-0.0623868,-0.331335,1.13549,0.0965759,0.10164,-0.0750563
-0.0305672,0.256756,2.93857,0.122161,-0.100983,1.12056,0.127263,0.116509,-0.113494
-0.0364368,0.260436,2.96205,0.314453,0.103724,1.13968,0.159102,0.120447,-0.0959328
-0.0394132,0.266897,2.98588,0.407072,0.205653,1.14108,0.155989,0.117133,-0.0268777
-0.0415415,0.274795,3.00965,0.482352,0.200008,1.11414,0.137765,0.102862,0.0353047
-0.0446351,0.28455,3.03258,0.596595,0.120904,1.04594,0.121424,0.0808358,0.0618441
-0.0484446,0.29661,3.05376,0.695284,0.12378,0.922372,0.10315,0.0624829,0.0695754
-0.0504717,0.309978,3.07188,0.70665,0.222418,0.732963,0.0886495,0.0499413,0.0944228
-0.0491819,0.322365,3.0853,0.578719,0.31043,0.476284,0.0695789,0.0342326,0.139145
-0.0456093,0.33146,3.09296,0.367865,0.28531,0.214461,0.0527859,0.0330042,0.169591
-0.0411422,0.336921,3.09531,0.202709,0.240822,-0.0133721,0.0583493,0.0329139,0.139481
-0.0359233,0.339777,3.09282,0.0689909,0.201245,-0.232615,0.0479309,0.0444122,0.0767882
-0.029555,0.339802,3.08593,-0.0929631,0.223845,-0.414046,0.0431655,0.0514094,0.0156054
-0.0206244,0.336756,3.07548,-0.221713,0.334488,-0.5614,0.048441,0.054075,-0.0489686
-0.00837744,0.332019,3.06234,-0.267829,0.460552,-0.668849,0.0489507,0.0640044,-0.111638
0.00692335,0.32653,3.04825,-0.270413,0.617282,-0.646557,0.0591316,0.0783262,-0.134252
0.0245723,0.321337,3.03561,-0.232953,0.727786,-0.553452,0.0570253,0.0962305,-0.139393
0.0426738,0.316912,3.02567,-0.174003,0.763921,-0.403862,0.0514588,0.0799594,-0.11626
0.0594941,0.313581,3.01838,-0.138153,0.67975,-0.321748,0.0208331,0.0456345,-0.0848565
0.0731798,0.309396,3.01257,-0.284458,0.480929,-0.256374,-0.0310381,0.0548034,-0.0148753
0.0812266,0.300533,3.00841,-0.56846,0.209139,-0.216015,-0.0635846,0.0347221,0.0238833
0.0846254,0.286881,3.00511,-0.737055,0.063328,-0.212529,-0.0907746,-0.0151641,-0.0543263
0.0867807,0.271711,3.00227,-0.738017,0.120052,-0.1732,-0.110363,-0.0167764,-0.159422
0.0905056,0.25806,3.00086,-0.579455,0.224895,-0.07229,-0.102099,-0.0236799,-0.200416
0.0954964,0.249042,3.00105,-0.330326,0.247701,0.00920919,-0.117526,-0.0181422,-0.185245
0.0988038,0.244245,3.0026,-0.180262,0.0971271,0.0963731,-0.109113,-0.0234805,-0.0781897
0.0978931,0.241695,3.00571,-0.108086,-0.105051,0.175496,-0.0955979,-0.0195621,0.0174173
0.0932297,0.240458,3.00997,-0.0555358,-0.251685,0.221141,-0.09742,-0.00936513,0.0589454
0.0859191,0.240298,3.01486,-0.00651155,-0.357845,0.251207,-0.0928845,0.00486782,0.072787
0.0769002,0.241109,3.02007,0.0509686,-0.414239,0.259874,-0.0773946,0.0115152,0.0634035
0.0674138,0.24307,3.02508,0.110715,-0.404835,0.236908,-0.075377,0.0228489,0.0446167
0.0588549,0.24609,3.02935,0.166924,-0.355118,0.198675,-0.0714836,0.0362463,0.0291215
0.0513024,0.250055,3.03272,0.204406,-0.328232,0.144387,-0.0693841,0.054571,0.0283235
0.0443893,0.253984,3.03475,0.167179,-0.323129,0.0693079,-0.0937629,0.0936084,0.0377664
0.0375452,0.256324,3.0351,0.0624319,-0.357582,-0.0307806,-0.0999697,0.109102,0.0391414
0.0308586,0.256502,3.03308,-0.0333165,-0.357892,-0.16751,-0.103376,0.108664,0.00542754
0.0253548,0.255038,3.02828,-0.0966541,-0.310141,-0.298321,-0.104748,0.118402,-0.054401
0.0216576,0.252699,3.02131,-0.118594,-0.231471,-0.375435,-0.0901362,0.138247,-0.102787
0.0201219,0.250204,3.01314,-0.103334,-0.113658,-0.413511,-0.0673609,0.147947,-0.134667
0.0217191,0.248605,3.00469,-0.030397,0.0657331,-0.402154,-0.0387347,0.144734,-0.148739
0.0266696,0.248834,2.99703,0.0752508,0.228183,-0.334487,-0.0301176,0.144787,-0.126664
0.0334433,0.250978,2.99058,0.145275,0.260744,-0.293063,-0.043803,0.136703,-0.049816
0.0398023,0.25351,2.98445,0.115646,0.227297,-0.292936,-0.0567389,0.116037,0.0485398
0.0457072,0.254875,2.97837,0.0458481,0.219436,-0.290927,-0.0566206,0.0948373,0.106027
0.0516378,0.254819,2.97244,-0.0234212,0.235504,-0.286326,-0.0613312,0.0876411,0.132191
0.0579542,0.252812,2.96653,-0.156271,0.24401,-0.300926,-0.0529983,0.06452,0.155323
0.0639082,0.247683,2.9607,-0.315813,0.200321,-0.288433,-0.0322221,0.0384631,0.160268
0.0677256,0.239983,2.95611,-0.408146,0.060515,-0.192392,0.00552407,0.0338895,0.123397
0.0679891,0.231682,2.95454,-0.399278,-0.052814,-0.0122477,0.0494943,0.0391094,0.0303437
0.0665593,0.224759,2.95679,-0.290074,-0.0211235,0.183152,0.0643131,0.0370807,-0.0898413
0.0654373,0.2215,2.96275,-0.0636234,0.0329401,0.38322,0.0784494,0.0327276,-0.177947
0.0642141,0.223296,2.97281,0.163468,0.0638543,0.615899,0.108032,0.0479377,-0.192212
0.0621063,0.228389,2.98769,0.218897,0.0427509,0.86848,0.138551,0.0705553,-0.127836
0.0574892,0.232651,3.00753,0.0642076,-0.0761093,1.08163,0.135207,0.0780768,-0.0558774
0.0574892,0.232651,3.00753,0.0642076,-0.0761093,1.08163,0.135207,0.0780768,-0.0558774
0.0480936,0.232896,3.03162,-0.141588,-0.319355,1.26427,0.0921389,0.0928724,-0.0448009
0.0344284,0.231937,3.05883,0.0186024,-0.353971,1.36232,0.0604485,0.0420583,-0.174586
0.0234148,0.237544,3.08648,0.476222,-0.0874238,1.34174,0.0303759,0.0120043,-0.294568
0.0191099,0.251042,3.11378,0.773361,0.296687,1.35241,0.0193167,0.0228734,-0.210432
0.0194731,0.267262,-3.14153,0.765046,0.410901,1.37751,0.0238525,0.0513234,0.00360602
0.019508,0.281812,-3.11331,0.643058,0.336253,1.36496,0.00566152,0.0474292,0.156034
0.0167877,0.293886,-3.08607,0.522425,0.148637,1.26303,-0.0248257,0.0218512,0.213399
0.0104889,0.303291,-3.0619,0.390799,-0.0718818,1.05237,-0.038727,-0.0250224,0.229636
0.00148382,0.309565,-3.043,0.219986,-0.245789,0.753631,-0.0419864,-0.0509464,0.214764
-0.00758432,0.311812,-3.03028,0.00735996,-0.240598,0.465897,-0.0257862,-0.0506226,0.16658
-0.0131559,0.310024,-3.02297,-0.162744,-0.0754224,0.247417,0.00251855,-0.0248287,0.0740089
-0.0138205,0.306102,-3.01951,-0.206494,0.107303,0.102162,0.0334566,0.00492653,-0.0179195
-0.0111446,0.302195,-3.01825,-0.178259,0.18847,0.0364837,0.0688669,0.0366148,-0.074869
-0.00707399,0.29925,-3.01752,-0.103889,0.268297,0.0449985,0.103043,0.0710485,-0.107836
-0.000110409,0.298137,-3.01607,-0.00552466,0.481989,0.0977903,0.125746,0.0967034,-0.133226
0.0111007,0.298674,-3.0133,0.050643,0.711802,0.172039,0.142604,0.102786,-0.100529
0.0250397,0.299481,-3.00874,0.0131999,0.790565,0.273317,0.149188,0.113186,-0.021769
0.0384238,0.299161,-3.00161,-0.0600398,0.751968,0.405976,0.146153,0.114512,0.0486746
0.0489588,0.29791,-2.99173,-0.0997084,0.581542,0.533776,0.129883,0.11588,0.0735354
0.0556038,0.296226,-2.97905,-0.137783,0.441081,0.671753,0.125907,0.112882,0.0757553
0.0582666,0.293731,-2.96355,-0.197803,0.290947,0.803632,0.121446,0.114553,0.0770212
0.0578694,0.290158,-2.94526,-0.253027,0.206343,0.924114,0.102677,0.110658,0.0464842
0.0558512,0.286091,-2.92479,-0.25736,0.177448,1.00819,0.0728506,0.105294,-0.000469804
0.0534805,0.282412,-2.90311,-0.220113,0.203513,1.0517,0.0465324,0.0847794,-0.0380268
0.0517939,0.279668,-2.88095,-0.165488,0.247249,1.0648,0.0220181,0.0682269,-0.0470234
0.0512351,0.277778,-2.85879,-0.137214,0.300921,1.0565,0.00330174,0.0545997,-0.0276929
0.0513841,0.275858,-2.83719,-0.173932,0.290767,1.01096,-0.0111658,0.0395386,0.0190732
0.0510043,0.272687,-2.81651,-0.243676,0.231973,0.960321,-0.0141405,0.0214106,0.0612856
0.0500912,0.268157,-2.79738,-0.298283,0.196505,0.857364,-0.0222188,-0.000898957,0.0614705
0.0496065,0.262599,-2.78048,-0.338084,0.203152,0.744834,-0.0206798,-0.0210788,0.0481793
0.0503656,0.256184,-2.76593,-0.36966,0.249423,0.634181,-0.0140943,-0.0308497,0.0339016
0.0523221,0.249143,-2.75334,-0.394058,0.261889,0.560999,0.00560617,-0.0290457,0.0240264
0.0544112,0.241764,-2.74165,-0.399186,0.223083,0.543611,0.039284,-0.031275,0.0119454
0.0553602,0.234443,-2.72986,-0.39333,0.157882,0.56702,0.0620265,-0.0230398,-0.0120614
0.055627,0.227622,-2.71741,-0.342788,0.164943,0.606541,0.0675857,-0.0224459,-0.0585512
0.0563923,0.222521,-2.70442,-0.230436,0.197317,0.633855,0.0656327,-0.0325758,-0.11312
0.0576442,0.219966,-2.69096,-0.104759,0.233551,0.674642,0.0634811,-0.0322766,-0.144033
0.0597226,0.219652,-2.67663,-0.0124925,0.285853,0.722897,0.0477192,-0.0221303,-0.151102
0.0627313,0.221063,-2.66176,0.0681284,0.337583,0.735859,0.0175708,-0.0216236,-0.144998
0.0666295,0.224195,-2.64706,0.15072,0.367176,0.717632,-0.00807496,-0.0287313,-0.131392
0.0707751,0.228757,-2.63306,0.208183,0.362383,0.683306,-0.0411791,-0.0199985,-0.0980998
0.0751154,0.234187,-2.61984,0.241213,0.372532,0.640956,-0.0621626,-0.0163148,-0.0674388
0.0798034,0.240127,-2.60783,0.263178,0.383186,0.570169,-0.0884788,-0.0119303,-0.0418542
0.085026,0.246312,-2.59742,0.268556,0.385029,0.4922,-0.1027,-0.00609455,-0.014917
0.0901774,0.252281,-2.58853,0.249274,0.344617,0.420533,-0.110749,0.00501499,0.0192205
0.0942962,0.257515,-2.58102,0.20815,0.251003,0.353351,-0.113497,0.0122463,0.0471262
0.0968755,0.261822,-2.57476,0.169699,0.169574,0.296133,-0.10771,0.0129154,0.0526537
0.0982474,0.265561,-2.56953,0.159415,0.117955,0.244219,-0.103165,0.0189207,0.0426742
0.099547,0.268953,-2.56541,0.138498,0.114269,0.183764,-0.102341,0.0200095,0.031741
0.100578,0.271499,-2.56248,0.0922674,0.0647294,0.126503,-0.104955,0.0280941,0.035604
0.100941,0.273327,-2.56067,0.0830146,0.00927068,0.0636464,-0.101454,0.0250635,0.0233303
0.100746,0.27504,-2.56019,0.0857413,0.00234694,0.00109811,-0.0965362,0.0262698,0.000503123
0.101445,0.276675,-2.56089,0.0800822,0.0428455,-0.0466607,-0.0851666,0.0275077,-0.00659966
0.102822,0.278018,-2.56235,0.0732925,0.0717564,-0.0787401,-0.0739197,0.0325532,0.00118488
0.102822,0.278018,-2.56235,0.0732925,0.0717564,-0.0787401,-0.0739197,0.0325532,0.00118488
0.104609,0.279223,-2.56451,0.0734389,0.057209,-0.1213,-0.0695662,0.0322154,0.0162875
0.105977,0.2801,-2.56764,0.0496876,0.00867541,-0.17693,-0.0716114,0.030877,0.0360805
0.10661,0.280089,-2.57194,0.0082918,-0.0339034,-0.235416,-0.0573397,0.0227178,0.0541312
0.107477,0.279252,-2.57714,-0.034627,-0.0191541,-0.276894,-0.0438347,0.0287496,0.0348932
0.108436,0.277552,-2.58277,-0.0615598,-0.0283799,-0.28612,-0.0183123,0.0154723,0.0335036
0.108896,0.275636,-2.58856,-0.0626941,-0.0749793,-0.289183,-0.01681,0.0238371,0.0182745
0.108448,0.273758,-2.59435,-0.0658111,-0.112493,-0.291727,-0.00735772,0.016018,0.00620848
0.107595,0.27169,-2.60045,-0.0778137,-0.118116,-0.316991,-0.00237463,0.0076631,-0.00727868
0.107368,0.269443,-2.60697,-0.0800595,-0.0768348,-0.331012,0.00032755,0.00977018,-0.0282186
0.108036,0.267428,-2.61363,-0.0464041,-0.0368692,-0.330294,0.00732014,0.0103909,-0.0464486
0.10904,0.266159,-2.62022,-0.0108773,-0.0458127,-0.317944,0.0135995,0.0092133,-0.0441459
0.109723,0.265531,-2.6264,0.014481,-0.0412784,-0.285439,0.0228594,0.00825575,-0.0364854
0.110675,0.265451,-2.6321,0.0371378,-0.0129868,-0.269073,0.0172904,0.00857556,-0.0316218
0.112096,0.265607,-2.63772,0.0337102,-0.00113497,-0.270456,0.00544943,0.00555205,-0.0162203
0.11376,0.265558,-2.64339,0.0262065,0.0122725,-0.276447,-0.0031052,0.000653118,0.00175411
0.115231,0.265304,-2.64926,0.00873695,-0.0273098,-0.290717,-0.0153109,0.00469556,0.0233867
0.115554,0.264369,-2.65523,-0.0424841,-0.102808,-0.298425,-0.0159696,0.00432736,0.0493507
0.114286,0.26208,-2.66125,-0.11612,-0.183739,-0.309672,-0.0130823,0.00230038,0.0589632
0.111835,0.25859,-2.66745,-0.157301,-0.210294,-0.327615,-0.00295699,-0.00575724,0.0362127
0.10954,0.254731,-2.67373,-0.149166,-0.172516,-0.313913,0.00774742,-0.00788745,-0.00514042
0.10803,0.251759,-2.67944,-0.0810581,-0.123885,-0.267312,0.0263316,-0.00548467,-0.0384824
0.106958,0.250328,-2.68428,-0.0133941,-0.112018,-0.212062,0.0337805,-0.00168313,-0.0395433
0.105671,0.250176,-2.68813,0.0345389,-0.1114,-0.171067,0.0355347,-0.012557,-0.0194915
0.104491,0.250752,-2.69179,0.052508,-0.101612,-0.186578,0.0167583,-0.0235352,0.00204724
0.103812,0.251265,-2.69611,0.0388838,-0.0724356,-0.229664,0.00466955,-0.03584,0.0233816
0.103703,0.251222,-2.70146,0.0105068,-0.0749512,-0.28999,0.00239379,-0.0387806,0.0420647
0.10386,0.250412,-2.70796,-0.0206443,-0.0680409,-0.341971,0.00750062,-0.0352777,0.046445
0.104435,0.249028,-2.71529,-0.0407109,-0.0554861,-0.377883,0.0231918,-0.0321937,0.0374346
0.105419,0.247263,-2.72315,-0.0539138,-0.0434944,-0.397577,0.0372133,-0.0214843,0.0256353
0.106572,0.245154,-2.73116,-0.0699884,-0.0341008,-0.398534,0.0529995,-0.0151681,0.00947237
0.107971,0.242935,-2.73901,-0.0674751,-0.0134264,-0.381462,0.0672937,-0.00895929,-0.0155458
0.109959,0.240836,-2.74639,-0.0587786,0.0401247,-0.352545,0.0738193,-0.00173502,-0.0428133
0.113069,0.239322,-2.75308,-0.013559,0.10789,-0.306436,0.0760262,0.00160123,-0.0666108
0.117118,0.23915,-2.75885,0.0610618,0.157915,-0.258263,0.0737311,0.00526391,-0.072805
0.122083,0.240427,-2.76396,0.113251,0.211801,-0.21993,0.0667818,0.00622942,-0.0583007
0.127643,0.242084,-2.76831,0.103905,0.231505,-0.182179,0.0515098,0.0150869,-0.0227297
0.133006,0.243462,-2.77193,0.0831024,0.204424,-0.148035,0.0426373,0.0169584,0.00551647
0.137561,0.244723,-2.77472,0.086232,0.18681,-0.100873,0.0358276,0.0214322,0.0130107
0.141739,0.24623,-2.77652,0.0906124,0.186798,-0.0539438,0.0271499,0.0284174,0.0168295
0.14552,0.247752,-2.77737,0.0700339,0.166056,-0.00704487,0.0137785,0.0321053,0.0350558
0.148295,0.248785,-2.77738,0.0377945,0.108896,0.0232105,0.00404388,0.0250351,0.0516227
0.149712,0.249449,-2.77671,0.0234804,0.0469124,0.0514333,-0.00501056,0.0222149,0.0497006
0.149862,0.250012,-2.77563,0.0180534,-0.0093318,0.0634395,-0.0148834,0.0230044,0.0374412
0.149267,0.250319,-2.7744,-0.00565356,-0.0146689,0.0596997,-0.0195819,0.0182211,0.0259772
0.14903,0.250056,-2.77325,-0.0364616,0.0220504,0.0496352,-0.0224312,0.0112676,0.0174546
0.149591,0.249285,-2.77228,-0.0505997,0.0474012,0.0327219,-0.0272696,0.00864366,0.010955
0.150215,0.248281,-2.77153,-0.0578244,0.0255476,0.020427,-0.028668,0.00693831,0.0187079
0.150225,0.246941,-2.7712,-0.0780676,-0.0117523,-0.00943437,-0.031229,0.00010033,0.0240818
0.149789,0.245059,-2.77142,-0.106068,-0.0311193,-0.0396401,-0.0271716,-0.00509737,0.020814
0.149279,0.242522,-2.77214,-0.137239,-0.0351466,-0.0641699,-0.0227598,-0.00487369,0.0105223
0.148634,0.239414,-2.7731,-0.151624,-0.0471123,-0.0746933,-0.0131871,-0.00982982,-0.0105171
0.147661,0.236406,-2.77425,-0.135589,-0.0594748,-0.0804183,-0.00422326,-0.0135007,-0.0389275
0.146687,0.23373,-2.77545,-0.120345,-0.0569636,-0.0782889,0.00266439,-0.0142723,-0.0604957
0.14603,0.23151,-2.77663,-0.0840693,-0.0238745,-0.067362,0.00912783,-0.0186304,-0.0781149
0.14603,0.23151,-2.77663,-0.0840693,-0.0238745,-0.067362,0.00912783,-0.0186304,-0.0781149
0.146171,0.230312,-2.77763,-0.0194767,0.0183888,-0.0461592,0.00829595,-0.0151267,-0.0922681
0.147156,0.230593,-2.77829,0.0562602,0.0591776,-0.0157949,0.00811903,-0.0155702,-0.0809515
0.148429,0.232142,-2.77872,0.0983605,0.054326,-0.00534571,-0.00054577,-0.0157408,-0.0414767
0.149435,0.234157,-2.77912,0.0993593,0.0340144,-0.0112771,-0.0133625,-0.0160234,0.00331253
0.149793,0.235731,-2.7798,0.0615825,-0.0201518,-0.036412,-0.0170694,-0.0185362,0.0429222
0.149005,0.236238,-2.78088,0.00380568,-0.0803427,-0.0586951,-0.0153482,-0.0179525,0.0603295
0.147323,0.235733,-2.78208,-0.0311755,-0.111479,-0.0626558,-0.00209075,-0.0135451,0.0501895
0.145154,0.234841,-2.7831,-0.0430065,-0.127328,-0.0499744,0.00800687,-0.00476855,0.0246404
0.142744,0.233864,-2.78375,-0.0488762,-0.128871,-0.030736,0.0170696,-0.000439942,0.00498354
0.140249,0.233009,-2.78399,-0.0395422,-0.125497,-0.00895706,0.0246931,0.000635669,-0.0147116
0.137883,0.232475,-2.78389,-0.025084,-0.111362,0.0166179,0.0299321,0.0064788,-0.0294529
0.135894,0.232427,-2.78312,0.0103704,-0.0704051,0.0578157,0.0387301,0.00675315,-0.0390503
0.134787,0.233238,-2.78171,0.0513008,-0.0171102,0.0880533,0.0355499,0.00696191,-0.0377322
0.134274,0.234712,-2.77977,0.0698435,-0.0072313,0.120149,0.0346558,0.00726649,-0.0113774
0.133433,0.236434,-2.7774,0.07236,-0.0327275,0.135614,0.0308502,0.00328067,0.0150513
0.132089,0.237984,-2.77481,0.0525551,-0.0591357,0.143195,0.0246712,0.00240634,0.0299696
0.13021,0.238969,-2.77198,0.019256,-0.0762851,0.146474,0.0235058,0.00139517,0.0317477
0.128229,0.239582,-2.76908,0.0159757,-0.0656859,0.143917,0.0176662,0.00113626,0.0169743
0.126692,0.240409,-2.76636,0.0379805,-0.0411421,0.13105,0.0108404,-0.000715703,-0.00471365
0.125712,0.241611,-2.76407,0.0512601,-0.0176981,0.106948,0.00361203,0.00278679,-0.00950193
0.125241,0.242787,-2.76216,0.0360129,-0.0153262,0.0921174,0.00541246,0.00829239,-0.00281245
0.124861,0.243312,-2.7606,0.00319609,0.00274132,0.071471,0.00771701,0.00741355,0.00162482
0.125203,0.243526,-2.7594,0.0110311,0.0548194,0.053472,0.00974375,0.00954312,-0.0143215
0.126635,0.24409,-2.7584,0.0352697,0.105719,0.0549053,0.0134028,0.0202074,-0.0176218
0.128333,0.244864,-2.75719,0.0279729,0.0778003,0.0744722,0.0173011,0.0348595,0.0105168
0.128956,0.245218,-2.75554,-0.0110967,0.0165168,0.0897839,0.024342,0.0345926,0.0409937
0.128249,0.244696,-2.75348,-0.0545916,-0.0235588,0.106525,0.0244873,0.0322856,0.042199
0.127653,0.243775,-2.75085,-0.0435064,0.0293725,0.140406,0.0281911,0.0311325,0.00669658
0.12809,0.243682,-2.74747,0.014008,0.0824523,0.189677,0.0242734,0.0366725,-0.0188937
0.128851,0.244919,-2.74325,0.0657716,0.0744032,0.234148,0.0147439,0.0383003,-0.0115795
0.128924,0.246899,-2.7385,0.08057,0.032753,0.246105,-0.0020027,0.0311263,0.0134158
0.128359,0.248721,-2.73374,0.0523885,0.0214626,0.232776,-0.0250989,0.0220589,0.0261654
0.128066,0.249831,-2.72958,0.0200502,0.0443932,0.181928,-0.0491812,0.0115229,0.0215966
0.128215,0.250117,-2.72663,-0.0151927,0.0366082,0.107643,-0.0640865,0.000644937,0.0146416
0.128616,0.249797,-2.72526,-0.0273551,0.0356967,0.0187341,-0.0784585,-0.00529553,-0.00093931
0.129527,0.248966,-2.72568,-0.0473019,0.0535019,-0.0678595,-0.0766294,-0.0109983,-0.0112868
0.131329,0.247645,-2.72753,-0.0591245,0.0852405,-0.12474,-0.0617564,-0.0114243,-0.0212476
0.133566,0.246202,-2.7301,-0.0490196,0.0952182,-0.144954,-0.0560637,-0.00081557,-0.0290425
0.135721,0.245286,-2.73298,-0.0109396,0.0931765,-0.163485,-0.0480483,0.000783756,-0.0340005
0.137886,0.244848,-2.73642,-0.00222206,0.089601,-0.192756,-0.0503114,0.00238807,-0.0188313
0.140103,0.244006,-2.74043,-0.033935,0.0809268,-0.215591,-0.0448712,-0.00163333,0.00353342
0.142227,0.242508,-2.74467,-0.0587338,0.0724407,-0.219295,-0.0407226,0.00750211,0.0169978
0.144146,0.240618,-2.74876,-0.0674308,0.056842,-0.210905,-0.0345891,0.0113438,0.0240306
0.145335,0.238694,-2.75268,-0.0676432,-1.17347e-06,-0.202042,-0.0282149,0.00727725,0.034463
0.145302,0.236634,-2.75644,-0.0914717,-0.0647105,-0.197527,-0.0234468,0.0029716,0.0484667
0.144209,0.233994,-2.75986,-0.12857,-0.110574,-0.179464,-0.0107043,0.00134957,0.0554397
0.142091,0.230502,-2.76284,-0.17857,-0.155306,-0.158398,0.000910282,0.00025551,0.0522262
0.139421,0.226392,-2.76532,-0.188178,-0.160564,-0.140155,0.0129838,-0.0109652,0.0275728
0.136833,0.222686,-2.76754,-0.150104,-0.139605,-0.12351,0.0213046,-0.0146388,-0.00397754
0.134672,0.219933,-2.76917,-0.109256,-0.113501,-0.0729019,0.0420489,-0.0156918,-0.0125845
0.132764,0.217899,-2.76996,-0.092031,-0.103486,-0.0317247,0.0520764,-0.0193411,-0.00365847
0.130557,0.216153,-2.77008,-0.0868418,-0.125579,-0.00492785,0.0560856,-0.0303379,0.00775439
0.128051,0.214576,-2.76999,-0.0772824,-0.12635,-0.00713826,0.0535721,-0.034564,-0.00110191
0.126083,0.213232,-2.77002,-0.0682902,-0.083042,-0.00885387,0.0551686,-0.0355419,-0.0147659
0.126083,0.213232,-2.77002,-0.0682902,-0.083042,-0.00885387,0.0551686,-0.0355419,-0.0147659
0.125198,0.212106,-2.77,-0.055617,-0.0346572,0.00457161,0.0661139,-0.033652,-0.0251486
0.124927,0.21124,-2.76953,-0.0383135,-0.00218225,0.0369195,0.0721223,-0.0263042,-0.036669
0.124828,0.211084,-2.76832,0.00308276,0.00425809,0.0776464,0.074167,-0.0224134,-0.0486943
0.124825,0.211881,-2.76649,0.0461623,0.03397,0.108935,0.0704062,-0.0214817,-0.0557569
0.125512,0.213338,-2.76431,0.0660481,0.0791309,0.120401,0.0555578,-0.0210949,-0.0526972
0.127029,0.215022,-2.76192,0.0707276,0.116884,0.134583,0.0454043,-0.0188852,-0.0432749
0.12894,0.216944,-2.75932,0.0867414,0.116256,0.148456,0.0312148,-0.0138648,-0.032264
0.130288,0.21912,-2.75644,0.0855554,0.0774659,0.162583,0.0183897,-0.00435473,-0.0176878
0.131084,0.221291,-2.7532,0.0875084,0.0748218,0.175388,0.0106619,-0.00254136,-0.0127661
0.132043,0.223611,-2.74994,0.0995217,0.0987827,0.172486,-0.00472489,0.00043866,-0.015975
0.133595,0.226167,-2.74662,0.113751,0.122758,0.183207,-0.0122517,0.00790493,-0.00534195
0.134968,0.228833,-2.74302,0.103886,0.0906393,0.200622,-0.0194784,0.0131264,0.0203571
0.135471,0.231182,-2.73921,0.0783764,0.0419955,0.200671,-0.028376,0.0135524,0.0444185
0.134821,0.232951,-2.73542,0.0527302,-0.0127852,0.184483,-0.039382,0.00733899,0.0505247
0.133428,0.234117,-2.73213,0.0266829,-0.042874,0.148602,-0.049981,0.00409418,0.0408865
0.131932,0.234861,-2.72949,0.0193105,-0.03655,0.116548,-0.0525594,0.00104871,0.0251148
0.130826,0.235427,-2.72756,0.0124147,-0.0265495,0.079215,-0.0548021,0.00253026,0.0109953
0.130059,0.235812,-2.72625,0.0105604,-0.0160851,0.0472842,-0.0518546,-0.000208691,0.0031144
0.129392,0.236165,-2.72571,0.0175831,-0.0287776,0.00697611,-0.053047,-0.0018032,-0.00384158
0.128796,0.236703,-2.72596,0.0343805,-0.0310014,-0.0289179,-0.0435143,-0.00294366,-0.00811851
0.128136,0.237093,-2.72683,0.0101037,-0.0417001,-0.0533015,-0.0396926,0.00726242,-0.000696123
0.127308,0.236834,-2.72797,-0.0155399,-0.0514591,-0.0696696,-0.0289532,0.00229631,-0.0043329
0.126366,0.236392,-2.7296,-0.00301671,-0.0429741,-0.0976643,-0.0276911,0.000554353,-0.0242558
0.126116,0.236354,-2.7317,0.0290786,-0.00348276,-0.109421,-0.018785,0.000425756,-0.0395973
0.126543,0.23697,-2.73386,0.0574078,0.0125019,-0.0971232,-0.00829834,0.00552534,-0.0340706
0.126896,0.237944,-2.73575,0.0653371,-0.00815823,-0.0766401,-6.48275e-05,0.00551097,-0.0131316
0.126585,0.238917,-2.73734,0.0556083,-0.044309,-0.0681307,0.000202343,-0.000715181,0.000640333
0.125723,0.239857,-2.73891,0.0657248,-0.0605882,-0.0743113,-0.00307321,-0.00498988,-0.00307637
0.125103,0.241133,-2.74073,0.0964138,-0.0389143,-0.0842726,-0.001858,-0.00594839,-0.0112523
0.124908,0.242772,-2.7427,0.092325,-0.0322857,-0.0848182,-0.000553422,-0.00118315,-0.00371438
0.124371,0.244181,-2.74463,0.0739274,-0.0658879,-0.0833645,0.00696369,-0.00361462,0.0125995
0.123369,0.245331,-2.74668,0.0687946,-0.0787815,-0.0977545,0.00579615,-0.00280422,0.00994068
0.122498,0.246466,-2.74904,0.0711705,-0.0608977,-0.115285,0.00527956,0.00137916,0.000782549
0.122224,0.247521,-2.75169,0.0652652,-0.037532,-0.125599,0.0135856,0.00189832,0.00287837
0.122375,0.24835,-2.75452,0.0474116,-0.024123,-0.127934,0.0205153,0.00888205,0.0123632
0.122645,0.248783,-2.75707,0.0242533,-0.0185454,-0.111251,0.0331168,0.0172207,0.0225711
0.122693,0.248758,-2.75913,-3.31248e-05,-0.0329583,-0.0911937,0.0387302,0.0203088,0.0309791
0.122415,0.248182,-2.76081,-0.0305146,-0.0541146,-0.0813459,0.0390873,0.0188354,0.0313662
0.121701,0.247119,-2.76235,-0.0492342,-0.0543896,-0.0758957,0.0417869,0.0144628,0.0223555
0.121335,0.24591,-2.76354,-0.0474435,-0.0230863,-0.0466956,0.0507865,0.01619,0.00372469
0.121486,0.245126,-2.76398,-0.0217222,-0.00225598,0.00433407,0.0555463,0.0261867,-0.00669348
0.121427,0.244954,-2.76337,-0.000852047,-0.0105526,0.0578455,0.0598246,0.0234416,-0.00403607
0.120873,0.24524,-2.76181,0.00920563,-0.0264845,0.102968,0.053042,0.0199189,-0.000408232
0.120395,0.245687,-2.75968,0.0182718,0.00523583,0.11839,0.0355257,0.0157447,-0.00334418
0.12046,0.246134,-2.75741,0.0151157,0.0189238,0.113447,0.0194853,0.0114172,-0.00300193
0.120753,0.246452,-2.75537,0.0087297,0.0220341,0.100789,0.00535727,0.00815558,0.00410414
0.120947,0.246632,-2.75355,-0.000748444,0.0118367,0.0843003,-0.0015384,0.00945887,0.0127812
0.12099,0.246491,-2.75205,-0.029477,0.00781296,0.064789,-0.00669558,0.0119775,0.0199514
0.120819,0.245475,-2.75083,-0.0805844,-0.00116848,0.0465764,-0.00659144,0.0134185,0.0284109
0.120691,0.243688,-2.7498,-0.0954822,0.0119196,0.0368984,-0.00107303,0.0103262,0.0131542
0.120977,0.242236,-2.7488,-0.0548335,0.0420799,0.0490984,0.0035539,0.0157831,-0.0110532
0.121662,0.241605,-2.7475,-0.0304813,0.048934,0.0671394,0.00434004,0.0166198,-0.00825232
0.121964,0.241039,-2.74586,-0.0487152,0.0270427,0.0760284,0.0018352,0.00853285,0.015299
0.122009,0.239955,-2.74422,-0.0764358,0.0218044,0.0653222,-0.00731838,0.0012694,0.0222791
0.122009,0.239955,-2.74422,-0.0764358,0.0218044,0.0653222,-0.00731838,0.0012694,0.0222791
0.12226,0.238441,-2.74274,-0.0811751,0.0404584,0.0588772,-0.0104578,-0.00525172,0.0125193
0.122667,0.236942,-2.74142,-0.0813387,0.0239041,0.0508164,-0.0123275,-0.00791395,0.00792319
0.122529,0.23525,-2.74025,-0.0993365,-0.010401,0.0407549,-0.0150662,-0.0122139,0.0109721
0.121996,0.233297,-2.73924,-0.105351,-0.0100742,0.0326856,-0.0115247,-0.0194088,0.000453293
0.12176,0.231495,-2.73838,-0.0901058,0.017994,0.0295549,-0.00821866,-0.0200791,-0.0180582
0.122128,0.230071,-2.73753,-0.0714399,0.0325015,0.0360947,-0.00641697,-0.0208087,-0.023348
0.122249,0.22905,-2.73643,-0.0488166,0.0154935,0.0570237,0.0023344,-0.024046,-0.0187219
0.122065,0.228546,-2.73499,-0.0332742,0.00934582,0.0710566,0.00373419,-0.024766,-0.0138412
0.121888,0.228341,-2.73332,-0.0230785,0.0177336,0.0844358,-0.00131926,-0.02289,-0.00525981
0.121716,0.228196,-2.73159,-0.0236277,0.00640688,0.0776674,-0.00654291,-0.0264648,0.00295669
0.12124,0.227994,-2.73006,-0.0192318,-0.0179432,0.0669346,-0.0104527,-0.0324452,0.0079869
0.120499,0.228118,-2.7288,0.00960886,-0.0185077,0.0598084,-0.00880158,-0.035467,-0.00397795
0.120116,0.228949,-2.72776,0.0477051,0.00496007,0.0528077,-0.00790541,-0.0298819,-0.0139009
0.12018,0.23027,-2.72696,0.059333,0.0117891,0.0336312,-0.0165372,-0.0248423,-0.0070352
0.119959,0.231532,-2.72668,0.0393454,-0.0211316,0.00527401,-0.0136495,-0.0276571,0.00935107
0.119416,0.232155,-2.72697,0.00791695,-0.0269998,-0.0263749,-0.0134124,-0.0240443,0.00605243
0.119192,0.232251,-2.72782,0.00404046,-0.00676694,-0.0584134,-0.0146276,-0.0179394,-0.0141461
0.119723,0.232493,-2.72932,0.0273825,0.0349155,-0.0828642,-0.00738235,-0.0119202,-0.0315513
0.121095,0.233195,-2.73098,0.047075,0.0674891,-0.0691832,0.00690601,0.00215925,-0.0289732
0.122616,0.234155,-2.73208,0.0481259,0.061258,-0.0251352,0.022417,0.0138508,-0.00985771
0.123546,0.235254,-2.73222,0.0523696,0.0374331,0.0176346,0.0244498,0.0200313,0.0107126
0.123779,0.23629,-2.73178,0.0413354,0.00514202,0.029025,0.0149165,0.0187038,0.0239334
0.123616,0.236821,-2.73121,0.0117945,-0.0044084,0.0290196,0.0063758,0.0149025,0.0287731
0.123385,0.236752,-2.73065,-0.0170225,-0.00999477,0.0318013,0.00490285,0.0155064,0.0277793
0.123026,0.23622,-2.72977,-0.0367158,-0.0198326,0.0530819,0.00808804,0.0170795,0.0210185
0.122172,0.235522,-2.72842,-0.0340092,-0.0471247,0.0706997,0.00745758,0.0142651,0.00641972
0.121013,0.235199,-2.72689,-0.0121838,-0.0346595,0.0713779,0.00188354,0.00683981,-0.0128847
0.120404,0.235288,-2.72551,0.00889724,0.00846376,0.061429,-0.00803898,0.00428699,-0.0233473
0.12086,0.23558,-2.72439,0.00889221,0.0448575,0.0476483,-0.0158258,-0.000754073,-0.0145878
0.12157,0.235702,-2.72362,0.000666498,0.0388916,0.0300291,-0.0193149,-0.00350413,0.00733423
0.12189,0.23564,-2.72328,-0.00213248,0.0029501,0.000148079,-0.0269504,-0.0085395,0.0167103
0.121673,0.235558,-2.72355,-0.000187311,-0.0161549,-0.027817,-0.0250189,-0.0117464,0.0181586
0.12158,0.235367,-2.7243,-0.0128291,-0.00332774,-0.0532597,-0.0208295,-0.0124054,0.0190378
0.121682,0.234672,-2.72554,-0.0460203,-0.00976729,-0.0813795,-0.0215129,-0.00903755,0.0231231
0.121499,0.233365,-2.72711,-0.0688886,-0.0330146,-0.0934033,-0.0101113,-0.0127963,0.0161977
0.121205,0.232089,-2.72887,-0.0437319,-0.0217529,-0.0949259,-0.00363815,-0.0126036,-0.0113534
0.121252,0.231607,-2.7306,0.00309477,-0.00304553,-0.0789178,0.00490903,-0.00782423,-0.0334351
0.121522,0.231968,-2.73205,0.03851,0.00210121,-0.0624668,0.00883976,-0.00521447,-0.0361432
0.121822,0.232863,-2.73331,0.0567292,0.00941379,-0.0537526,0.00598103,-0.00657116,-0.0321872
0.122421,0.23413,-2.73455,0.077495,0.0242569,-0.0549313,0.000356436,-0.00770351,-0.0263389
0.123379,0.235552,-2.73598,0.0777581,0.0423027,-0.0680533,-0.00743949,-0.00780085,-0.0137047
0.124492,0.236765,-2.73771,0.0659424,0.0227418,-0.0877894,-0.0120948,-0.00895581,0.00364107
0.125197,0.237586,-2.73985,0.0451357,-0.00285556,-0.105139,-0.0135746,-0.00675388,0.0150068
0.125648,0.238115,-2.74235,0.0396296,-0.00604025,-0.12818,-0.0128034,-0.00492734,0.0136839
0.126208,0.238524,-2.74516,0.0324495,-0.000183806,-0.136389,-0.00689161,0.00149679,0.0113685
0.126825,0.238676,-2.74794,0.0124046,-0.00312024,-0.13184,0.00332131,0.00764124,0.01614
0.127208,0.238392,-2.75039,-0.00825456,-0.0071137,-0.111791,0.0101609,0.0125991,0.0165866
0.127498,0.238119,-2.7525,0.0050687,-0.00700108,-0.0997847,0.0139779,0.01357,0.00512481
0.127736,0.238168,-2.75434,0.0158572,-0.00292327,-0.076093,0.0167863,0.016562,0.00163549
0.127981,0.23822,-2.75555,-0.000742047,-0.00369905,-0.0404825,0.0241356,0.0184749,0.00751323
0.128015,0.237986,-2.75611,-0.00984393,-0.00327225,-0.0166597,0.0229356,0.0155001,0.0088914
0.128061,0.237889,-2.75627,0.00879394,-0.00607991,-0.00159422,0.0199432,0.0096688,0.00188923
0.12789,0.238113,-2.75623,0.0157403,-0.0173764,0.0113623,0.0124094,0.00775002,0.00288051
0.127469,0.238273,-2.75599,0.00329823,-0.0352745,0.0134765,0.0117214,0.00222996,0.00864756
0.127469,0.238273,-2.75599,0.00329823,-0.0352745,0.0134765,0.0117214,0.00222996,0.00864756
0.126864,0.238168,-2.75574,-0.00508886,-0.0292402,0.0100886,0.00857872,-0.00228246,0.00462699
0.126567,0.238025,-2.75566,-0.00169654,-0.0100343,-0.00469329,0.00104818,-0.00571698,-0.00729656
0.126712,0.238051,-2.75594,0.0122262,0.00511438,-0.021408,-0.00450785,-0.00820936,-0.0141259
0.127002,0.238269,-2.75668,0.0144904,0.002084,-0.04098,-0.00394219,-0.0107903,-0.0125646
0.127385,0.238512,-2.75768,0.0182311,0.00957239,-0.0496015,0.0022117,-0.00797503,-0.0128213
0.127955,0.238777,-2.75877,0.0211577,0.0240851,-0.0525833,0.00104485,-0.00256068,-0.0132896
0.12884,0.239244,-2.75994,0.039465,0.0361059,-0.0551219,0.0022056,-0.00428814,-0.0146691
0.129773,0.240133,-2.76127,0.0593232,0.0340362,-0.0623326,9.80496e-05,-0.00145623,-0.0139576
0.130752,0.241139,-2.76268,0.0546291,0.0352446,-0.0577616,-0.00110398,0.00399143,-0.00467533
0.131817,0.242106,-2.76389,0.0600182,0.0460345,-0.0464963,0.00310424,0.00686845,-0.00101185
0.133038,0.243193,-2.765,0.0572163,0.0492593,-0.0502745,-0.00561936,0.0082434,0.00789613
0.133958,0.24399,-2.7663,0.0346678,0.0144755,-0.06648,-0.0132081,0.00637735,0.0268584
0.134256,0.244073,-2.7679,-0.0010968,-0.0106973,-0.0867235,-0.0114778,0.0043526,0.0317437
0.134533,0.243481,-2.76971,-0.0283361,-0.00345344,-0.0914905,-0.0054915,0.00704275,0.0211989
0.134801,0.242512,-2.77142,-0.0401022,-0.0109537,-0.0836243,0.000322878,0.0119162,0.00573939
0.134614,0.241722,-2.77275,-0.0168275,-0.0323611,-0.0519982,0.0126838,0.0120033,-0.011703
0.134158,0.241692,-2.77352,0.0218557,-0.0178769,-0.0259113,0.0141287,0.0128444,-0.0290469
0.134368,0.242405,-2.77393,0.0461591,0.0295584,-0.00735944,0.00848691,0.0120409,-0.0309371
0.135203,0.243235,-2.77412,0.0390621,0.0338225,-0.00149094,0.00372805,0.0101154,-0.00538027
0.135641,0.243786,-2.77425,0.0267409,0.00536004,-0.00233287,-0.00486867,0.00570653,0.0173037
0.135544,0.244112,-2.77448,0.0199041,-0.0225996,-0.0149497,-0.0105173,-0.0020342,0.0257987
0.135248,0.244246,-2.77507,0.00868022,-0.0215596,-0.0359424,-0.0130974,-0.00213242,0.0287348
0.135013,0.24399,-2.77606,-0.0203922,-0.0337966,-0.0634952,-0.0144815,-0.00351003,0.0293
0.134408,0.243092,-2.77749,-0.0473908,-0.0566395,-0.0812543,-0.00437742,-0.00694504,0.0215519
0.133629,0.241951,-2.77903,-0.0476734,-0.0564803,-0.0817766,0.00788651,-0.00403991,-0.00151289
0.133212,0.241069,-2.78051,-0.0234359,-0.0149403,-0.0726923,0.0165605,-0.00158466,-0.0275409
0.133454,0.240982,-2.78172,0.0232445,0.00990941,-0.0489278,0.0263656,-0.00101346,-0.0397127
0.134088,0.24165,-2.78265,0.0472537,0.0259069,-0.0317668,0.0265697,0.00323662,-0.031332
0.134593,0.242472,-2.78324,0.0392072,0.00691374,-0.0182149,0.0258666,0.00406514,-0.00864357
0.134741,0.243118,-2.78356,0.0303562,-0.0014538,-0.0089993,0.0240208,0.00159413,0.000750601
0.134859,0.243655,-2.78385,0.0316523,0.00326975,-0.0120928,0.0146924,0.00269574,-0.00102597
0.135291,0.244289,-2.78425,0.0438115,0.0220071,-0.0162504,0.0117954,-0.000519305,-0.0065136
0.135953,0.245134,-2.78475,0.0459666,0.0264717,-0.0166802,0.00895868,0.00538144,-0.00332427
0.136719,0.245949,-2.78517,0.0379526,0.0264244,-0.00708647,0.0111032,0.00821704,0.00631189
0.137239,0.246548,-2.78549,0.029165,0.012379,-0.0161144,0.00502335,0.0074088,0.0129497
0.137737,0.246939,-2.7861,0.021691,0.0156998,-0.0363001,0.000255436,0.00478263,0.00847059
0.138423,0.247089,-2.78698,0.00998941,0.0302999,-0.041514,0.00120392,0.00782695,0.00654221
0.139291,0.24713,-2.78781,0.0100254,0.0313083,-0.0360349,0.00557527,0.0118493,0.00386763
0.140088,0.247241,-2.78846,0.0115977,0.0232816,-0.0234814,0.00769767,0.013086,0.00373316
0.14056,0.247344,-2.78899,0.009653,0.0121829,-0.0248555,0.00523393,0.0139946,0.00524634
0.140966,0.247424,-2.78946,0.00921202,0.0178029,-0.022752,0.00353478,0.0132029,-0.000733554
0.141686,0.247657,-2.78995,0.0246661,0.0387433,-0.0229656,0.000104859,0.0122072,-0.00470287
0.142686,0.248,-2.79047,0.0191832,0.040793,-0.0221205,-0.00329942,0.0136235,0.00323981
0.143402,0.248012,-2.79093,-0.00741786,0.0160125,-0.0269922,-0.00172807,0.011118,0.0193884
0.143585,0.247413,-2.79148,-0.0361619,-0.00622167,-0.0344935,-0.00361855,0.00968207,0.0207903
0.143722,0.246387,-2.79209,-0.0478846,0.00456274,-0.0360713,-0.000657603,0.00653595,0.00902599
0.143977,0.245416,-2.79263,-0.0323293,0.00997098,-0.02707,0.00133704,0.0109804,-0.00638527
0.144229,0.244898,-2.7929,-0.0144361,0.00652673,-0.00894373,0.00301558,0.0117749,-0.0116823
0.144328,0.244644,-2.79291,-0.00804508,0.00591288,-0.00019147,0.00339986,0.00711881,-0.00623357
0.144534,0.244367,-2.79289,-0.0203757,0.0147831,0.000372726,0.00229177,0.00465232,0.00198275
0.144908,0.243888,-2.79279,-0.0263777,0.0203638,0.00241967,0.00156531,0.000968412,0.0118868
0.144951,0.243257,-2.79259,-0.0337786,-0.013883,0.0105603,0.0012885,0.00317928,0.017143
0.144253,0.242541,-2.79218,-0.0398383,-0.0441059,0.0165648,0.00225383,0.000683248,0.0153664
0.144253,0.242541,-2.79218,-0.0398383,-0.0441059,0.0165648,0.00225383,0.000683248,0.0153664
0.143211,0.241711,-2.79186,-0.0480614,-0.0465921,0.00269117,-0.00110637,-0.00289932,0.00501186
0.14251,0.240663,-2.79185,-0.059766,-0.0276387,-0.00977996,0.00279689,-0.00274241,-0.0035851
0.141956,0.239513,-2.79169,-0.0559531,-0.0302293,0.00929599,0.0191137,-0.0013265,-0.0120119
0.141137,0.238741,-2.7909,-0.0273324,-0.035703,0.0608767,0.0286649,0.00549161,-0.0256346
0.140048,0.238838,-2.78916,0.0066745,-0.036835,0.102248,0.0268936,0.00773813,-0.0371668
0.138874,0.239526,-2.78701,0.0270813,-0.0259525,0.112314,0.00683567,0.00376776,-0.0357202
0.138068,0.240323,-2.78498,0.020164,-0.010288,0.0935444,-0.00470668,-0.00551362,-0.0241724
0.137758,0.240867,-2.78336,0.0146957,0.010195,0.0762781,-0.0141719,-0.00495493,-0.00645244
0.13755,0.241308,-2.78189,0.0145063,-0.0141739,0.0709846,-0.0129655,-0.00376374,0.0114763
0.13652,0.241646,-2.78044,0.00548039,-0.0555309,0.0727246,-0.0152448,-0.00375608,0.0284396
0.134558,0.241693,-2.779,-0.019968,-0.0999291,0.0596673,-0.0171546,-0.00758614,0.0317835
0.132498,0.241401,-2.77793,-0.0174361,-0.0735112,0.0339657,-0.0177303,-0.018398,0.0138847
0.131144,0.241277,-2.77757,-0.00179191,-0.0526578,0.000754386,-0.0191616,-0.0182897,0.000186145
0.130098,0.241199,-2.77765,-0.0131657,-0.0573779,-0.00586814,-0.00875804,-0.0158479,0.00410587
0.128664,0.241033,-2.77769,-0.0111346,-0.0830385,-0.00136894,0.00131546,-0.0134302,9.81092e-05
0.12693,0.241144,-2.7778,0.0093893,-0.0818122,-0.0151544,0.00102051,-0.0154583,-0.0167882
0.125513,0.241383,-2.77835,0.00691078,-0.0665913,-0.0388124,0.000821188,-0.0180493,-0.0237975
0.124767,0.241472,-2.77935,0.0117058,-0.0254168,-0.0559471,0.00572337,-0.0183904,-0.0354164
0.125023,0.242067,-2.78063,0.0593356,0.0167678,-0.0560017,0.009462,-0.00726935,-0.0522511
0.125849,0.243576,-2.78162,0.0962676,0.0376079,-0.0184258,0.0227654,0.00359532,-0.0413132
0.126604,0.245725,-2.78181,0.116767,0.0304225,0.0228763,0.024057,0.0149877,-0.0150662
0.127245,0.248183,-2.78138,0.121014,0.0447988,0.0475334,0.0109432,0.0187601,0.0102752
0.128028,0.250563,-2.78071,0.0982731,0.0354444,0.043009,-0.00676297,0.0170839,0.0395339
0.12836,0.251931,-2.78019,0.0323783,0.0176794,0.0290758,-0.0178116,0.017158,0.0733503
0.128484,0.252114,-2.77987,-0.0166378,-0.00433153,-0.000232538,-0.018795,0.00767615,0.0846879
0.12799,0.251129,-2.7801,-0.0818063,-0.059167,-0.0285577,-0.0184886,0.00815666,0.0914163
0.126274,0.248728,-2.78042,-0.148169,-0.12338,-0.0323341,-0.000358634,0.00279373,0.0837476
0.123467,0.245515,-2.78055,-0.15999,-0.149008,-0.0154107,0.0164034,0.000150979,0.0366791
0.120825,0.242767,-2.78014,-0.111212,-0.097071,0.0247378,0.0288621,-0.00105026,-0.0260089
0.119518,0.241371,-2.7791,-0.0375782,-0.00841903,0.052606,0.0275028,-0.00643422,-0.0657009
0.119602,0.241286,-2.77798,0.00867032,0.0327937,0.0492173,0.0158533,-0.0153359,-0.0618759
0.120119,0.241634,-2.77711,0.0088189,0.0276573,0.0370074,0.00779637,-0.023513,-0.0316533
0.120278,0.241704,-2.77662,-0.00493153,-0.00227941,0.0158756,0.00280821,-0.0243908,-0.0125083
0.120266,0.241611,-2.77647,-0.000455834,0.00642074,-0.005582,-0.00369854,-0.0288755,-0.0192903
0.120725,0.24174,-2.77685,0.0207818,0.0268572,-0.0289748,-0.00743309,-0.0273309,-0.0304067
0.121483,0.242222,-2.77757,0.0322203,0.0315429,-0.0337741,-0.00810359,-0.0214004,-0.0276347
0.122078,0.242851,-2.77833,0.0348419,0.00547296,-0.0398051,-0.00917758,-0.0163042,-0.0174024
0.122344,0.243477,-2.77941,0.0388183,0.00235301,-0.0611524,-0.0178535,-0.0176798,-0.017309
0.123128,0.244146,-2.78107,0.0452184,0.0408936,-0.0871541,-0.0205726,-0.016558,-0.0201716
0.124877,0.244901,-2.78305,0.0533898,0.0789475,-0.0891181,-0.0177479,-0.00650167,-0.0104007
0.126616,0.245799,-2.78492,0.0592177,0.046931,-0.0792419,-0.0105743,-0.00340362,0.0128533
0.127465,0.246868,-2.7866,0.0628595,0.00925679,-0.0733194,-0.00935901,-0.00630349,0.0307551
0.127976,0.247878,-2.78828,0.0531906,0.0178452,-0.0828645,-0.0165639,-0.00379774,0.0373129
0.128983,0.248504,-2.79022,0.0310403,0.0405391,-0.100128,-0.0177717,-0.00528204,0.0464349
0.130109,0.248477,-2.7925,-0.00338533,0.00923025,-0.119219,-0.0175119,-0.00541455,0.0611014
0.130346,0.247887,-2.7949,-0.0251636,-0.0476203,-0.120164,-0.00840467,-0.0043845,0.0653048
0.12969,0.24689,-2.7972,-0.046998,-0.0591303,-0.116864,-0.00655478,0.00368196,0.0536817
