attitude_roll,attitude_pitch,attitude_yaw,rotationRate_x,rotationRate_y,rotationRate_z,acceleration_x,acceleration_y,acceleration_z
0.164128,0.328853,-0.0439796,1.32186,-0.0881525,-1.20158,-0.198048,0.099447,-0.30921
0.182678,0.352942,-0.0847472,1.63702,0.619564,-1.9785,-0.136378,0.0242946,-0.197356
0.219617,0.375135,-0.132757,1.26418,1.30334,-1.90135,-0.068505,-0.180583,-0.114992
0.264139,0.378901,-0.173514,-0.11742,1.5521,-1.63002,-0.0854714,-0.0292702,-0.113786
0.302998,0.354589,-0.19615,-1.4844,1.49832,-1.051,-0.073598,-0.126916,-0.212108
0.33202,0.318212,-0.201735,-1.55592,1.08783,-0.626096,-0.0121497,-0.173673,-0.298502
0.346995,0.29317,-0.20397,-0.680593,0.317063,-0.428372,-0.0109425,-0.148999,-0.369806
0.346219,0.284429,-0.208329,-0.101605,-0.522692,-0.246847,-0.0179554,-0.105682,-0.311426
0.328008,0.282407,-0.210275,-0.0829026,-1.29026,-0.000325312,-0.0302823,-0.0860013,-0.214472
0.298495,0.279673,-0.208064,-0.239632,-1.47952,0.080373,-0.0459005,-0.0660306,-0.0903433
0.271373,0.274952,-0.205663,-0.240237,-1.09064,0.00510943,-0.0453544,-0.0578751,0.00933939
0.255199,0.27156,-0.204939,-0.0928528,-0.50225,-0.00689328,-0.0591967,-0.0374139,0.0957582
0.249185,0.271549,-0.204019,0.0580706,-0.121645,0.108426,-0.062483,-0.0337165,0.167229
0.24766,0.274939,-0.201293,0.211323,0.0194667,0.220746,-0.0565012,-0.0409046,0.228563
0.246283,0.281805,-0.197479,0.347162,-0.100568,0.294817,-0.0381851,-0.0545516,0.28086
0.239539,0.290428,-0.192845,0.359182,-0.466462,0.328204,-0.0379266,-0.0549003,0.291177
0.225559,0.298308,-0.188284,0.302607,-0.751062,0.259193,-0.0456375,-0.0399593,0.290937
0.208559,0.304756,-0.185138,0.260363,-0.822456,0.183942,-0.0406642,-0.0419809,0.281439
0.191946,0.30981,-0.182476,0.17513,-0.73527,0.165959,-0.0533762,-0.0290759,0.251261
0.177523,0.31295,-0.179479,0.0891753,-0.582638,0.170394,-0.0609746,-0.0142307,0.201369
0.167169,0.314716,-0.176017,0.0334231,-0.341726,0.176339,-0.0822307,-0.00418976,0.174277
0.161065,0.316211,-0.17297,0.0956828,-0.173262,0.128354,-0.0962813,0.0410399,0.114023
0.15915,0.320092,-0.171591,0.259794,0.0269753,0.0553757,-0.116005,0.0865046,0.10077
0.161862,0.326861,-0.172509,0.384333,0.217766,-0.0401869,-0.109106,0.111203,0.101668
0.169059,0.334956,-0.175468,0.465203,0.413065,-0.0854945,-0.0681448,0.0999068,0.10572
0.180663,0.343969,-0.178824,0.469549,0.589946,-0.0710797,-0.0197277,0.0562356,0.0987092
0.193406,0.351538,-0.18221,0.304792,0.537014,-0.116287,0.0383932,0.0297972,0.00646859
0.203517,0.354599,-0.186886,0.084384,0.280054,-0.271718,0.0961805,0.0109716,-0.113322
0.209122,0.353264,-0.1949,-0.0471002,0.0295064,-0.473094,0.124493,0.0470276,-0.212137
0.213231,0.349849,-0.204711,-0.0793668,0.0940248,-0.445123,0.167961,0.0131817,-0.249561
0.217565,0.345423,-0.212205,-0.311501,-0.00372405,-0.380505,0.224036,-0.0580883,-0.29945
0.215975,0.329571,-0.218837,-1.12109,-0.32029,-0.575452,0.213677,0.0482767,-0.430979
0.215975,0.329571,-0.218837,-1.12109,-0.32029,-0.575452,0.213677,0.0482767,-0.430979
0.214048,0.299706,-0.225449,-1.52169,0.0447268,-0.623689,0.131585,0.113035,-0.386281
0.223074,0.269661,-0.228612,-1.21692,0.765749,-0.218885,0.096077,0.109514,-0.304605
0.241215,0.255011,-0.221787,-0.338492,1.08213,0.510657,0.0893688,-0.0188007,-0.142462
0.255171,0.25863,-0.20545,0.208944,0.648231,1.06046,0.103991,-0.102657,-0.0981157
0.256327,0.269783,-0.182902,0.254889,0.0513098,1.24574,0.0651652,-0.141147,-0.0159802
0.245764,0.278133,-0.16018,-0.0344094,-0.459288,1.01743,0.0302277,-0.16036,0.0298592
0.228681,0.277135,-0.143011,-0.445409,-0.710589,0.535676,-0.00725807,-0.144292,0.0525714
0.213195,0.266773,-0.134501,-0.699288,-0.532297,0.0619645,-0.0362068,-0.106832,0.0964433
0.205616,0.252391,-0.132921,-0.69489,-0.179469,-0.172403,-0.0362483,-0.0643818,0.12123
0.205083,0.239502,-0.133909,-0.512949,0.0770859,-0.137708,-0.011297,-0.0393622,0.13692
0.207796,0.232426,-0.133334,-0.169878,0.183271,0.0454266,-0.00783959,-0.0136186,0.154142
0.211171,0.233255,-0.130982,0.198398,0.194951,0.179804,0.00482647,0.015554,0.167142
0.21382,0.241056,-0.128371,0.485057,0.124728,0.209598,0.0112717,0.0233815,0.177015
0.215773,0.253287,-0.127455,0.670213,0.100841,0.122237,0.00958683,0.047249,0.199063
0.218919,0.267871,-0.129515,0.77583,0.172576,-0.00620094,0.00420928,0.0651397,0.226721
0.225102,0.28353,-0.134625,0.847501,0.313576,-0.121108,0.0088349,0.0880499,0.25943
0.235243,0.299871,-0.141941,0.88351,0.485079,-0.182618,0.0188074,0.0992454,0.299117
0.248696,0.315535,-0.150611,0.81049,0.575273,-0.251519,0.0281272,0.119163,0.316861
0.263112,0.328446,-0.160409,0.657129,0.522501,-0.309144,0.0539258,0.131701,0.30081
0.2752,0.337246,-0.170012,0.408754,0.349152,-0.329896,0.0563272,0.151599,0.247103
0.282244,0.339646,-0.178438,0.0102776,0.0694271,-0.369723,0.0831787,0.144249,0.114642
0.28303,0.332233,-0.185345,-0.554014,-0.222654,-0.467637,0.165464,0.0840133,-0.0588165
0.278304,0.314036,-0.190878,-0.984698,-0.378739,-0.510063,0.270922,-0.0312794,-0.246481
0.272192,0.291087,-0.19468,-1.05897,-0.310871,-0.441494,0.222325,0.000402749,-0.361987
0.26915,0.270467,-0.196209,-0.824251,0.0201479,-0.222689,0.0776016,0.098862,-0.428439
0.274694,0.259148,-0.193615,-0.306749,0.611621,0.201286,0.0142184,0.0488292,-0.422201
0.289264,0.259837,-0.183359,0.028494,1.05046,0.750576,0.0628293,-0.157887,-0.405964
0.307111,0.264474,-0.165519,-0.193893,1.11737,0.943974,-0.00225979,-0.12869,-0.36193
0.320735,0.260292,-0.143975,-0.847358,0.772243,0.890974,-0.125385,-0.0494766,-0.395799
0.327409,0.247058,-0.119682,-1.01756,0.531283,0.924986,-0.226194,-0.0652924,-0.376077
0.329787,0.238467,-0.0952309,-0.471748,0.274314,1.03829,-0.277446,-0.0912863,-0.37122
0.327318,0.243571,-0.0735433,0.247009,-0.00396677,1.07647,-0.306323,-0.102183,-0.321231
0.320999,0.259432,-0.0569188,0.671007,-0.182399,0.911051,-0.321604,-0.0740347,-0.206186
0.314458,0.277819,-0.0464414,0.693962,-0.157763,0.59945,-0.308092,-0.060122,-0.0585985
0.311105,0.291777,-0.0416878,0.464823,-0.0280175,0.26517,-0.287237,-0.0585822,0.0630805
0.311986,0.298989,-0.0411633,0.210193,0.132815,0.0187972,-0.27438,-0.0438091,0.158373
0.316129,0.300969,-0.0432456,0.0613184,0.199102,-0.141069,-0.263972,-0.0197463,0.207329
0.320784,0.300531,-0.0475601,0.0420042,0.123018,-0.259456,-0.245347,-0.00594348,0.224829
0.323877,0.299774,-0.054476,0.10021,-0.029398,-0.386818,-0.217809,0.0124674,0.225158
0.324438,0.299469,-0.0641061,0.152236,-0.182682,-0.477779,-0.188164,0.022674,0.22524
0.323111,0.298955,-0.0749472,0.104452,-0.260721,-0.5103,-0.167295,0.0265168,0.222064
0.320183,0.296823,-0.0855565,0.0102666,-0.333664,-0.515261,-0.134167,0.0400273,0.184511
0.316,0.292963,-0.0952399,-0.0815654,-0.347647,-0.477771,-0.115245,0.0533927,0.168869
0.312208,0.28823,-0.103381,-0.108379,-0.241732,-0.402652,-0.102946,0.0553128,0.170503
0.310803,0.2845,-0.109784,-0.0426068,-0.0780525,-0.283654,-0.0817074,0.0601424,0.163328
0.311579,0.283415,-0.1139,0.0616644,0.0160739,-0.120688,-0.0766805,0.0606265,0.165053
0.31191,0.285607,-0.115681,0.213272,-0.0433449,0.0223713,-0.0662959,0.0622269,0.151674
0.310174,0.292323,-0.115944,0.435485,-0.13952,0.163218,-0.0463348,0.0590672,0.155778
0.306298,0.304438,-0.11448,0.659169,-0.195126,0.340952,-0.0244973,0.0450121,0.163976
0.300726,0.321037,-0.110323,0.774946,-0.242789,0.530317,0.0188623,0.00831529,0.160168
0.291702,0.339454,-0.102532,0.738293,-0.426554,0.696202,0.103293,-0.0835775,0.090725
0.27659,0.356665,-0.0911356,0.596575,-0.694358,0.792785,0.193831,-0.192323,0.000998974
0.27659,0.356665,-0.0911356,0.596575,-0.694358,0.792785,0.193831,-0.192323,0.000998974
0.255182,0.370908,-0.0784723,0.473315,-0.995274,0.677652,0.241001,-0.217204,-0.093345
0.228825,0.382603,-0.069681,0.465612,-1.27035,0.374913,0.205828,-0.112732,-0.169118
0.201422,0.39184,-0.0667158,0.323733,-1.29716,0.135657,0.192206,-0.060997,-0.192713
0.177034,0.394944,-0.0637054,-0.136413,-0.979094,0.198834,0.243376,-0.2194,-0.209099
0.158749,0.384252,-0.0593618,-1.03618,-0.685629,-0.0429495,0.235525,-0.151043,-0.306136
0.14862,0.352872,-0.0594526,-1.99493,-0.284856,-0.429432,0.150296,0.00913793,-0.416336
0.149122,0.307386,-0.0643007,-2.25396,0.189946,-0.642585,0.0852917,0.13434,-0.497712
0.160197,0.266813,-0.0702471,-1.53933,0.715539,-0.481849,0.0717781,0.130739,-0.454626
0.17697,0.245469,-0.072739,-0.53895,0.830663,-0.0896686,0.054999,0.111908,-0.380591
0.191829,0.242886,-0.0694816,0.171243,0.715121,0.343464,0.0255428,0.0646323,-0.221977
0.202255,0.252761,-0.0608141,0.58403,0.52954,0.628048,-0.0253979,0.025499,-0.0278288
0.207591,0.269269,-0.0501332,0.782646,0.279144,0.672444,-0.0661389,0.00372851,0.112505
0.208234,0.287516,-0.0411694,0.793641,0.0408493,0.513402,-0.102208,0.012056,0.211673
0.205749,0.303713,-0.0364874,0.677316,-0.141486,0.251883,-0.121434,0.0349054,0.284097
0.201568,0.315908,-0.0364019,0.507551,-0.267743,0.00719912,-0.114737,0.0460927,0.326229
0.196717,0.323987,-0.0402497,0.358681,-0.321502,-0.193127,-0.0998176,0.0661817,0.334522
0.192463,0.329074,-0.0469215,0.268632,-0.310943,-0.310309,-0.0749193,0.079759,0.32221
0.189252,0.332357,-0.0551145,0.191069,-0.262238,-0.391238,-0.0579261,0.0939109,0.296883
0.18871,0.333636,-0.0654911,0.123475,-0.115992,-0.555847,-0.0558638,0.138165,0.29077
0.193299,0.333593,-0.0796673,0.146359,0.129818,-0.74419,-0.0439038,0.166643,0.313688
0.204468,0.334529,-0.0969516,0.270663,0.404626,-0.807689,-0.031253,0.170121,0.375679
0.219854,0.337709,-0.114634,0.36721,0.514109,-0.727909,-0.0201909,0.164533,0.423719
0.234169,0.341597,-0.12975,0.292835,0.358349,-0.561127,0.00926192,0.123521,0.415666
0.240775,0.342396,-0.140933,0.0137618,-0.117863,-0.451388,0.0722922,0.0806027,0.312745
0.235841,0.338162,-0.14868,-0.227626,-0.616869,-0.340477,0.150376,-0.020541,0.173767
0.219385,0.330817,-0.153102,-0.386561,-1.16704,-0.263697,0.224377,-0.147627,-0.0396907
0.193371,0.319903,-0.158123,-0.588225,-1.51201,-0.453163,0.243042,-0.144677,-0.263647
0.166585,0.303912,-0.167198,-0.827628,-1.36115,-0.660124,0.179018,-0.0764163,-0.43048
0.147643,0.28408,-0.178745,-0.883465,-0.80035,-0.679221,0.0980313,0.0124677,-0.552858
0.141407,0.268514,-0.186344,-0.492679,-0.0210609,-0.164925,0.0956202,-0.0764517,-0.585191
0.146698,0.263062,-0.18098,-0.172438,0.60421,0.565162,0.183533,-0.275011,-0.581242
0.155635,0.260419,-0.164638,-0.451242,0.6397,0.852506,0.116867,-0.209525,-0.560457
0.161966,0.246088,-0.145758,-1.22488,0.490416,0.667265,-0.0395032,-0.0546669,-0.599232
0.170077,0.221755,-0.13034,-1.23075,0.66767,0.438104,-0.132139,-0.00916836,-0.523105
0.182303,0.206913,-0.117851,-0.355182,0.792181,0.559132,-0.154006,-0.0715378,-0.428234
0.194952,0.212406,-0.104075,0.586811,0.725876,0.847299,-0.201481,-0.0832094,-0.2777
0.204477,0.233402,-0.0889317,1.10097,0.542914,0.970632,-0.222848,-0.0875438,-0.104756
0.210349,0.260721,-0.0758596,1.24861,0.384261,0.768075,-0.224008,-0.0962877,0.0522834
0.216044,0.28671,-0.0699766,1.12788,0.359445,0.305109,-0.222691,-0.0812151,0.193397
0.224848,0.306613,-0.0735285,0.862935,0.415441,-0.198068,-0.216298,-0.0557886,0.303844
0.237193,0.318294,-0.085468,0.531083,0.444177,-0.619857,-0.184568,-0.0349234,0.362037
0.251103,0.322234,-0.103294,0.279399,0.370264,-0.894949,-0.127515,-0.0151614,0.364782
0.263671,0.321866,-0.123956,0.206621,0.237298,-0.973963,-0.0878187,0.00536305,0.348631
0.273876,0.320718,-0.144494,0.20084,0.136858,-0.910838,-0.065451,0.0276654,0.332539
0.281345,0.319711,-0.162629,0.166052,0.0368104,-0.748357,-0.0344833,0.0314702,0.298049
0.285536,0.318726,-0.176381,0.100971,-0.0317295,-0.519234,0.00207618,0.00310013,0.240974
0.287587,0.3177,-0.184933,0.0282819,-0.0403262,-0.290966,0.00475562,0.00475055,0.180367
0.288054,0.31639,-0.189286,-0.0334,-0.036551,-0.158826,-0.0190094,0.0550954,0.0938562
0.288264,0.315091,-0.191609,-0.00311238,-0.0131739,-0.0900141,-0.0529311,0.108564,0.0174037
0.288997,0.316985,-0.19345,0.288532,0.0421968,-0.00852848,-0.0731613,0.137188,-0.0290284
0.292013,0.328269,-0.195205,0.857726,0.215854,0.194608,-0.105775,0.15404,0.00690097
0.292013,0.328269,-0.195205,0.857726,0.215854,0.194608,-0.105775,0.15404,0.00690097
0.298353,0.352108,-0.195358,1.37605,0.39142,0.475112,-0.149157,0.168623,0.0957124
0.306565,0.384501,-0.193496,1.59559,0.487635,0.617575,-0.150509,0.16216,0.176094
0.316068,0.418143,-0.191474,1.48523,0.526338,0.55162,-0.116114,0.122297,0.222657
0.326731,0.445748,-0.191367,1.07034,0.526581,0.300065,-0.0367962,0.0388908,0.206239
0.3365,0.460767,-0.194458,0.409315,0.232824,-0.100705,0.075114,-0.0721796,0.0870385
0.338638,0.45899,-0.202798,-0.330524,-0.431756,-0.686429,0.125215,-0.0303302,-0.101618
0.330449,0.440242,-0.218995,-0.892564,-1.00673,-1.25272,0.136585,0.115429,-0.277994
0.317696,0.413788,-0.240196,-0.8797,-1.05864,-1.28567,0.156383,0.148327,-0.323238
0.305583,0.395768,-0.256248,-0.353743,-0.763901,-0.585464,0.216653,-0.0139278,-0.297613
0.292863,0.390014,-0.259508,-0.21557,-0.636917,0.0552653,0.248718,-0.0593586,-0.299521
0.27997,0.383074,-0.252558,-0.700196,-0.360138,0.321361,0.181705,-0.0357111,-0.198911
0.271048,0.365717,-0.239446,-1.23866,-0.06046,0.359556,0.123454,-0.0535139,-0.148292
0.266793,0.342506,-0.224186,-1.29476,0.129699,0.423711,0.0843767,-0.0933043,-0.11776
0.262705,0.322178,-0.206835,-1.05715,-0.0164128,0.638462,0.0257471,-0.114733,-0.127041
0.253286,0.308723,-0.186796,-0.710845,-0.312732,0.827505,-0.0379643,-0.116538,-0.0990983
0.238291,0.302742,-0.167156,-0.328952,-0.574291,0.796925,-0.0745355,-0.112369,-0.0432135
0.220756,0.302243,-0.15172,-0.0901252,-0.698216,0.607369,-0.0734068,-0.138632,0.0312349
0.203281,0.302934,-0.141373,-0.0843058,-0.713493,0.3631,-0.0666995,-0.156756,0.0847909
0.188347,0.300684,-0.136057,-0.251253,-0.603422,0.0854345,-0.0716421,-0.130386,0.122294
0.177047,0.293284,-0.135738,-0.471637,-0.539101,-0.181764,-0.063912,-0.0875352,0.10269
0.166672,0.282522,-0.139781,-0.456753,-0.626287,-0.362665,-0.0444718,-0.0293573,0.0325725
0.155552,0.27575,-0.146995,-0.0480623,-0.640677,-0.410574,-0.032907,0.0316529,0.026623
0.146111,0.279141,-0.155587,0.504617,-0.526013,-0.330906,-0.0351889,0.0863821,0.0921478
0.139245,0.293319,-0.163062,0.967235,-0.337944,-0.171307,-0.0226224,0.11126,0.168391
0.136532,0.314753,-0.168552,1.16396,-0.102126,-0.0709643,0.0122565,0.0928157,0.258659
0.137875,0.337331,-0.173245,1.08532,0.0789146,-0.0788213,0.0295784,0.0665959,0.311823
0.142128,0.356165,-0.178809,0.813508,0.139394,-0.187356,0.0238256,0.0612378,0.325724
0.14819,0.368095,-0.186058,0.462359,0.22825,-0.296867,0.0103288,0.0430661,0.303373
0.157167,0.373635,-0.193865,0.226457,0.400912,-0.328425,0.000517964,0.0259062,0.240882
0.171568,0.377201,-0.202168,0.313033,0.781371,-0.389967,-0.054096,0.0474579,0.18288
0.197999,0.38563,-0.214727,0.762109,1.38323,-0.621813,-0.0721699,0.0576613,0.164425
0.239048,0.401865,-0.235415,1.17583,1.86254,-0.871607,0.0458181,-0.102014,0.104535
0.288242,0.420259,-0.263167,1.19063,1.84801,-1.09091,0.209311,-0.276298,-0.0348228
0.334597,0.432884,-0.295242,0.86514,1.37999,-1.28552,0.299406,-0.345326,-0.17049
0.369407,0.435753,-0.328226,0.442838,0.706591,-1.36001,0.301614,-0.27386,-0.298081
0.389912,0.433514,-0.353802,0.252096,0.262822,-0.757657,0.314189,-0.398648,-0.37148
0.392987,0.433387,-0.365554,0.097863,-0.468498,-0.307765,0.278203,-0.333761,-0.50221
0.379415,0.430573,-0.366305,-0.335513,-0.813017,0.192591,0.0468511,-0.0760475,-0.535676
0.358528,0.42672,-0.352062,-0.356824,-0.59863,0.878537,-0.145221,0.0360491,-0.534503
0.341948,0.434324,-0.327317,0.368308,0.00370681,1.43408,-0.255454,0.0501769,-0.440014
0.334032,0.45919,-0.300005,1.08967,0.306478,1.62946,-0.31144,0.00201467,-0.379606
0.32865,0.492884,-0.276624,1.3298,0.174019,1.33587,-0.383499,-0.0116492,-0.29513
0.322983,0.523633,-0.263985,1.16058,-0.127221,0.636614,-0.460919,0.0126337,-0.171233
0.31914,0.543262,-0.266329,0.734865,-0.343459,-0.211609,-0.495126,0.0175874,-0.0512724
0.321051,0.549366,-0.283581,0.318752,-0.320889,-0.955348,-0.494213,0.0379092,0.0642985
0.331254,0.545143,-0.311734,0.0773711,-0.091436,-1.39602,-0.474744,0.0849159,0.155401
0.349568,0.535852,-0.344934,0.00430877,0.220526,-1.56326,-0.426429,0.105575,0.234528
0.373608,0.524316,-0.379858,-0.0224696,0.384978,-1.64074,-0.3732,0.129772,0.276134
0.398564,0.511194,-0.414862,-0.0527881,0.36184,-1.65046,-0.31686,0.126975,0.300611
0.421467,0.496864,-0.448811,-0.0793227,0.291433,-1.63041,-0.272809,0.137835,0.336363
0.442037,0.48129,-0.48141,-0.146885,0.219881,-1.61612,-0.233723,0.153673,0.373587
0.458238,0.463297,-0.511612,-0.307735,-0.0121083,-1.56025,-0.185394,0.147721,0.36023
0.458238,0.463297,-0.511612,-0.307735,-0.0121083,-1.56025,-0.185394,0.147721,0.36023
0.465045,0.442774,-0.537567,-0.481911,-0.476808,-1.41222,-0.140903,0.127224,0.30883
0.457739,0.420638,-0.557674,-0.676206,-1.09266,-1.18433,-0.112322,0.117572,0.229135
0.435866,0.39828,-0.571224,-0.769799,-1.5888,-0.889075,-0.101217,0.105378,0.16325
0.403618,0.377658,-0.579698,-0.765949,-1.8963,-0.684798,-0.0898338,0.0949255,0.0788382
0.368093,0.360212,-0.587319,-0.529349,-1.83662,-0.641387,-0.0994082,0.107523,0.00901574
0.338561,0.349528,-0.597843,-0.124787,-1.43274,-0.648644,-0.136831,0.131166,-0.00839168
0.320291,0.347182,-0.610961,0.295704,-0.801229,-0.562854,-0.155296,0.136987,0.0179557
0.314096,0.352568,-0.623357,0.520257,-0.30121,-0.362645,-0.0946705,0.0357998,0.0659906
0.311827,0.359924,-0.632425,0.381775,-0.309394,-0.231423,-0.000594795,-0.0631869,0.0137131
0.304837,0.362182,-0.638533,-0.0215645,-0.62875,-0.297405,0.0552865,-0.164025,-0.075776
0.291955,0.354654,-0.647329,-0.425307,-0.918115,-0.755676,0.0621946,-0.144327,-0.174869
0.279355,0.339415,-0.665427,-0.489575,-0.884701,-1.26905,0.0485129,-0.10397,-0.221199
0.272686,0.323835,-0.692335,-0.313479,-0.64409,-1.54429,0.115956,-0.125063,-0.239472
0.272029,0.309925,-0.722549,-0.30613,-0.354155,-1.53111,0.191273,-0.143148,-0.264076
0.275121,0.29315,-0.749214,-0.673273,-0.134123,-1.36035,0.264996,-0.199373,-0.34725
0.279305,0.2672,-0.770313,-1.25573,-0.0680769,-1.32267,0.323726,-0.225897,-0.500934
0.282754,0.232487,-0.789532,-1.44658,-0.0587018,-1.40622,0.2999,-0.16868,-0.654747
0.285929,0.199549,-0.809808,-1.08528,-0.0408451,-1.3776,0.181312,-0.0325771,-0.728461
0.288848,0.176937,-0.829636,-0.53811,-0.0358527,-1.07332,0.0651802,0.0415243,-0.710217
0.290769,0.166844,-0.844103,-0.0264108,-0.0255759,-0.55997,-0.0368892,0.0524846,-0.631818
0.291351,0.170327,-0.851304,0.59963,-0.0372891,-0.0175282,-0.121515,0.0496162,-0.528996
0.290338,0.191133,-0.85238,1.43783,-0.0854461,0.503895,-0.219555,0.0447842,-0.382864
0.287261,0.23194,-0.848729,2.35065,-0.140104,0.96246,-0.310575,0.0676647,-0.203727
0.282337,0.291296,-0.843252,3.12653,-0.216922,1.14206,-0.376178,0.134835,-0.0226796
0.275838,0.362281,-0.841271,3.5453,-0.384175,0.923811,-0.401266,0.198937,0.127052
0.269151,0.43506,-0.848371,3.53732,-0.552852,0.354701,-0.362785,0.228166,0.243855
0.266372,0.500787,-0.868567,3.20648,-0.616725,-0.340431,-0.270384,0.219924,0.328888
0.270417,0.554768,-0.900392,2.65887,-0.572293,-0.835568,-0.178257,0.176176,0.388163
0.280142,0.59402,-0.938098,1.92983,-0.498461,-1.10746,-0.0864589,0.135121,0.386007
0.292011,0.616838,-0.976331,1.11459,-0.495503,-1.25205,-0.026269,0.115751,0.337394
0.301721,0.623133,-1.01268,0.372703,-0.669854,-1.39225,-0.00722814,0.151453,0.250865
0.305937,0.616782,-1.04842,-0.043307,-0.994963,-1.56302,-0.0265448,0.204481,0.153536
0.303748,0.606048,-1.08568,0.0119475,-1.32903,-1.60325,-0.0231594,0.18231,0.0783021
0.296232,0.601187,-1.12106,0.380397,-1.40272,-1.30096,0.0250576,-0.0977082,0.0729246
0.28457,0.6002,-1.15591,0.183487,-1.77983,-1.63041,0.000729352,-0.0805779,-0.00149941
0.27088,0.58227,-1.20273,-0.931811,-2.10099,-2.60937,-0.061515,0.0532017,-0.0904873
0.261283,0.536093,-1.26358,-2.07899,-2.07888,-3.47529,-0.104375,0.125009,-0.192799
0.249473,0.473022,-1.33204,-2.28208,-2.41454,-3.77674,-0.141383,0.253659,-0.497805
0.228764,0.419607,-1.40112,-1.23865,-2.50797,-3.42876,-0.178125,0.339713,-0.570108
0.206018,0.398221,-1.46428,0.382923,-2.17477,-2.64383,-0.239735,0.390907,-0.459022
0.187112,0.407043,-1.51577,1.18676,-1.72337,-1.84219,-0.22458,0.394171,-0.300278
0.16838,0.423928,-1.55322,0.952434,-1.75553,-1.25771,-0.172358,0.320967,-0.281998
0.138372,0.434593,-1.57921,0.509186,-2.3031,-0.948591,-0.145602,0.303579,-0.3644
0.0981614,0.443472,-1.60047,0.707875,-2.52217,-0.888096,-0.186653,0.371553,-0.267997
0.0586017,0.462427,-1.62324,1.34238,-2.36173,-1.0232,-0.148486,0.327744,-0.117916
0.0267992,0.492368,-1.65053,1.62164,-2.00859,-1.27073,-0.0700151,0.252987,0.065531
0.00751141,0.520989,-1.68312,1.16214,-1.46569,-1.51906,-0.00750662,0.186169,0.25573
0.00276767,0.536169,-1.72106,0.328718,-0.919064,-1.73089,0.0501872,0.111524,0.378238
0.00978473,0.534362,-1.76355,-0.452757,-0.576234,-1.89086,0.11896,0.0464171,0.398623
0.0225174,0.519119,-1.80818,-0.956388,-0.416186,-1.96441,0.160001,-0.0017941,0.386744
0.0358716,0.495943,-1.85334,-1.19273,-0.474112,-2.02612,0.208142,-0.0552818,0.341921
0.0454178,0.470185,-1.89889,-1.15955,-0.688548,-2.08446,0.250968,-0.107267,0.275529
0.0454178,0.470185,-1.89889,-1.15955,-0.688548,-2.08446,0.250968,-0.107267,0.275529
0.0493599,0.447197,-1.94477,-0.908495,-0.927781,-2.10696,0.28704,-0.160654,0.227255
0.048498,0.429983,-1.99013,-0.602818,-1.05438,-2.04011,0.316087,-0.216094,0.198843
0.0452258,0.418722,-2.03253,-0.352823,-0.986963,-1.8301,0.332749,-0.287682,0.18387
0.0420697,0.411506,-2.06848,-0.259821,-0.780068,-1.44208,0.322232,-0.384037,0.159391
0.0371398,0.404431,-2.09485,-0.359415,-0.79087,-1.0148,0.263014,-0.468321,0.0466833
0.0259505,0.395593,-2.11465,-0.43452,-1.14548,-0.895394,0.209989,-0.523306,-0.1358
0.00742643,0.388896,-2.13574,-0.103486,-1.42627,-1.05962,0.163554,-0.519347,-0.308843
-0.0105525,0.393375,-2.15985,0.532986,-1.22651,-1.15807,0.105602,-0.510857,-0.355346
-0.0197013,0.409208,-2.18499,0.937841,-0.609439,-1.13768,0.0743174,-0.484807,-0.343545
-0.0162984,0.428687,-2.20973,0.885403,-0.115887,-1.19495,0.0390081,-0.447085,-0.363832
-0.00347682,0.445029,-2.239,0.745899,0.157787,-1.46243,-0.0270132,-0.239727,-0.391139
0.0182119,0.461751,-2.27412,1.01273,0.499719,-1.63971,-0.0631482,-0.0660344,-0.34459
0.0510713,0.486644,-2.31148,1.58815,1.10574,-1.52332,-0.0610834,0.0408887,-0.194363
0.0967571,0.521209,-2.34547,1.98368,1.78686,-1.16767,-0.0641863,0.073292,-0.0314764
0.151444,0.557764,-2.37505,1.84997,2.06267,-0.92941,-0.0452977,0.0414361,0.0301209
0.207352,0.58601,-2.40337,1.2902,1.91977,-0.942797,-0.0334442,-0.00549144,0.0412137
0.259583,0.599754,-2.43326,0.628159,1.60578,-1.1686,-0.0491919,-0.00506401,0.0209324
0.307297,0.599498,-2.466,0.128005,1.29056,-1.41642,-0.0828204,0.0592083,0.00766069
0.34909,0.588986,-2.5003,-0.170868,0.969506,-1.5768,-0.094362,0.119696,-0.0375569
0.383966,0.572674,-2.53363,-0.332553,0.69163,-1.55751,-0.114487,0.180584,-0.0595176
0.410375,0.554667,-2.56204,-0.378201,0.401651,-1.30098,-0.1416,0.23032,-0.0691837
0.425359,0.539219,-2.58213,-0.30858,0.0474593,-0.868607,-0.168382,0.251656,-0.0892661
0.428496,0.530369,-2.5936,-0.0435714,-0.323297,-0.387741,-0.15873,0.258156,-0.121007
0.420539,0.532782,-2.59842,0.456383,-0.730386,0.108278,-0.167678,0.299375,-0.120716
0.401872,0.549178,-2.59776,1.0072,-1.0406,0.585229,-0.201485,0.357146,-0.0948837
0.377503,0.577842,-2.59101,1.3661,-0.982978,1.00908,-0.227777,0.359145,0.0131601
0.351522,0.61245,-2.57665,1.37538,-0.78428,1.29381,-0.215596,0.323302,0.0959804
0.325681,0.64543,-2.55525,1.1052,-0.543125,1.39085,-0.201027,0.287409,0.164701
0.300962,0.67139,-2.52957,0.724093,-0.375964,1.29964,-0.182676,0.248006,0.192406
0.277821,0.688787,-2.50448,0.386214,-0.381786,1.03564,-0.16846,0.217328,0.188917
0.255889,0.697865,-2.48417,0.0808803,-0.53095,0.689003,-0.1477,0.158529,0.172846
0.234383,0.699325,-2.47128,-0.177772,-0.809802,0.294716,-0.0924031,0.0751742,0.15753
0.211769,0.693673,-2.46755,-0.433173,-1.1943,-0.147735,-0.0400334,0.0162887,0.110551
0.188917,0.681091,-2.47397,-0.695146,-1.47835,-0.579217,-0.0141056,0.0102414,0.0944693
0.166966,0.662758,-2.48935,-0.851393,-1.59792,-0.875847,0.0152625,-0.00787544,0.0466838
0.147814,0.643245,-2.50789,-0.837946,-1.41979,-0.869469,0.0678862,-0.190381,0.0467381
0.131757,0.623154,-2.52912,-0.923335,-1.46154,-1.15557,0.0808475,-0.199497,-0.0483595
0.119568,0.599645,-2.55974,-1.12664,-1.51263,-1.62656,0.0706864,-0.248853,-0.101897
0.10938,0.56835,-2.60216,-1.57642,-1.9004,-2.24741,0.0588631,-0.232235,-0.259369
0.0932496,0.529277,-2.65674,-1.7117,-2.52936,-2.67562,0.0623263,-0.146854,-0.450469
0.066928,0.496158,-2.71487,-1.05232,-2.83424,-2.54205,0.0403836,-0.0588157,-0.541451
0.0370666,0.48328,-2.76639,0.0141949,-2.41659,-2.00933,-0.00348668,0.03654,-0.471654
0.0158873,0.491513,-2.80472,0.810566,-1.44221,-1.34315,-0.0585769,0.0843562,-0.314536
0.00829015,0.510987,-2.8293,1.08095,-0.520821,-0.822412,-0.0710281,0.0749912,-0.171713
0.0124863,0.53213,-2.84513,0.995334,0.0992299,-0.567709,-0.0880911,0.0535432,-0.0432919
0.0244792,0.550147,-2.85844,0.815467,0.348315,-0.568978,-0.107398,0.0443889,0.0623818
0.0388586,0.564575,-2.87404,0.671534,0.222609,-0.712282,-0.127715,0.0720134,0.142747
0.0516065,0.575985,-2.89356,0.53218,-0.00950283,-0.859715,-0.126894,0.0932301,0.23703
0.0516065,0.575985,-2.89356,0.53218,-0.00950283,-0.859715,-0.126894,0.0932301,0.23703
0.0610766,0.583627,-2.91569,0.313775,-0.254213,-0.92182,-0.107118,0.0984175,0.320462
0.0659337,0.586147,-2.93802,0.0393927,-0.495843,-0.893263,-0.0735801,0.0765321,0.389602
0.0648569,0.582669,-2.95848,-0.286565,-0.734096,-0.820414,-0.0459844,0.0409775,0.444585
0.0576707,0.57194,-2.97656,-0.71462,-0.960543,-0.758603,-0.0335578,0.00565076,0.488105
0.0461501,0.550955,-2.99358,-1.31191,-1.04755,-0.800735,-0.0419927,-0.00137097,0.49037
0.0352063,0.518013,-3.0121,-1.87595,-0.949902,-0.917354,-0.0514399,0.0099256,0.455348
0.027823,0.47542,-3.03302,-2.25826,-0.781551,-1.05129,-0.0705106,0.0142149,0.364037
0.0255334,0.428823,-3.05721,-2.25083,-0.466693,-1.23634,-0.0896405,0.033812,0.271632
0.0305435,0.386109,-3.08463,-1.8868,-0.116358,-1.36344,-0.0858467,0.0256955,0.175232
0.0421174,0.352458,-3.11263,-1.35987,0.269584,-1.31848,-0.0750238,0.00484306,0.129299
0.0588964,0.328285,-3.13739,-0.963276,0.537721,-1.10102,-0.062326,-0.0244117,0.113504
0.0757103,0.309603,3.12617,-0.795192,0.458418,-0.883251,-0.0342,-0.04914,0.091587
0.0857657,0.293478,3.11026,-0.667614,0.0231093,-0.763603,0.00137591,-0.061028,0.0506184
0.084305,0.28118,3.09577,-0.414581,-0.581661,-0.724593,0.0358772,-0.0585546,0.00142968
0.0714863,0.275136,3.08119,-0.0639488,-1.04505,-0.709808,0.0541552,-0.0341997,-0.0280153
0.0523687,0.276945,3.06665,0.330177,-1.19761,-0.66383,0.0485878,0.009487,-0.0294747
0.0332411,0.286565,3.05315,0.651488,-1.03648,-0.580142,0.0424459,0.0463006,-0.00622958
0.0192516,0.301179,3.04198,0.805505,-0.641328,-0.428022,0.0425444,0.0569001,0.02259
0.0138658,0.317892,3.03534,0.849623,-0.0731825,-0.156887,0.0375037,0.036778,0.0688846
0.0185557,0.333679,3.0348,0.681263,0.499826,0.111548,0.045396,-0.0264063,0.0800114
0.0311879,0.343613,3.03822,0.257247,0.809776,0.191326,0.0786875,-0.0941543,0.00213611
0.0473356,0.342897,3.04037,-0.360595,0.827129,-0.0494945,0.127342,-0.147044,-0.156514
0.0631213,0.328421,3.03475,-1.03467,0.532463,-0.575664,0.121566,-0.0701209,-0.356266
0.0750637,0.301956,3.0203,-1.42467,0.235897,-0.909681,0.153528,-0.0625511,-0.505299
0.0841134,0.271759,3.00327,-1.40918,0.219212,-0.917721,0.188677,-0.0960147,-0.548254
0.0932161,0.241437,2.98786,-1.52916,0.31505,-0.810013,0.148556,-0.00865845,-0.495043
0.104188,0.205322,2.97672,-1.95972,0.570031,-0.608661,0.0897592,0.0053502,-0.445838
0.121375,0.162438,2.97198,-2.14313,1.06634,-0.309826,0.0321582,-0.0287814,-0.406945
0.146591,0.122725,2.97512,-1.74039,1.42333,0.10473,-0.0148414,-0.0788006,-0.402001
0.174421,0.0963667,2.9858,-1.00281,1.38274,0.505769,-0.0841095,-0.0909924,-0.368909
0.196622,0.0862696,3.00094,-0.27926,0.907679,0.753235,-0.139379,-0.101719,-0.312466
0.20674,0.0900307,3.01654,0.309214,0.224079,0.810981,-0.177171,-0.105602,-0.214635
0.203626,0.104385,3.02974,0.817181,-0.371624,0.747841,-0.215739,-0.0819312,-0.100774
0.191213,0.128143,3.0393,1.30665,-0.712291,0.636021,-0.244247,-0.03305,0.0400547
0.174715,0.160405,3.04516,1.72885,-0.814199,0.508531,-0.245601,0.0201616,0.176877
0.158432,0.199328,3.04763,2.02138,-0.742279,0.370251,-0.234069,0.0734382,0.312101
0.144979,0.241833,3.04729,2.1289,-0.603831,0.236131,-0.216378,0.135936,0.422125
0.135104,0.284061,3.04448,2.03806,-0.450724,0.0812947,-0.201851,0.205091,0.500754
0.129201,0.322871,3.03925,1.83935,-0.302499,-0.0627272,-0.183799,0.248001,0.558787
0.126648,0.356866,3.03184,1.59513,-0.20331,-0.194545,-0.165547,0.276158,0.579699
0.1271,0.385195,3.02198,1.30335,-0.111661,-0.368773,-0.146355,0.295951,0.577896
0.131301,0.406347,3.00792,0.943925,-0.0203439,-0.660821,-0.116037,0.308495,0.530293
0.13887,0.419313,2.98764,0.590041,-0.0585335,-0.996137,-0.0725992,0.330183,0.442586
0.146668,0.425316,2.96138,0.373896,-0.259815,-1.25425,-0.0291647,0.331264,0.319357
0.150779,0.429115,2.9319,0.442148,-0.54758,-1.27629,0.0611184,0.197301,0.184357
0.149568,0.436087,2.90393,0.593997,-0.712335,-1.13004,0.179648,-0.0695625,0.0705625
0.145682,0.441661,2.87607,0.19068,-0.837554,-1.34017,0.152378,-0.0387146,-0.0278203
0.145682,0.441661,2.87607,0.19068,-0.837554,-1.34017,0.152378,-0.0387146,-0.0278203
0.143777,0.430607,2.84409,-0.93214,-0.63592,-1.63424,0.0604411,0.0441471,-0.0834672
0.148468,0.396236,2.81215,-1.94258,-0.156429,-1.69171,0.0735601,-0.0451117,-0.175824
0.159905,0.347968,2.78615,-2.34781,0.323057,-1.36341,0.150093,-0.202239,-0.307002
0.174047,0.296746,2.77041,-2.42902,0.520188,-0.991891,0.163943,-0.218516,-0.42667
0.186943,0.244814,2.76075,-2.459,0.475389,-0.880294,0.0991502,-0.0846805,-0.535537
0.196832,0.19555,2.75191,-2.12821,0.301757,-0.896887,0.0948152,-0.0604547,-0.594885
0.202119,0.15516,2.74275,-1.63914,0.0662511,-0.730225,0.0668489,-0.0439787,-0.581579
0.202743,0.124663,2.73796,-1.25939,-0.0353602,-0.32979,0.00256756,-0.0612677,-0.504738
0.203181,0.102892,2.73923,-0.863657,0.129357,-0.0173344,-0.0518389,-0.0743373,-0.390786
0.208191,0.0912693,2.74248,-0.324029,0.386206,0.0767072,-0.0794723,-0.120756,-0.236863
0.217049,0.0905267,2.74441,0.200308,0.475366,0.0835304,-0.0977064,-0.161535,-0.0920823
0.226327,0.0989141,2.74376,0.58748,0.420268,0.0257214,-0.0984098,-0.188448,0.07122
0.234362,0.111657,2.73983,0.682955,0.330294,-0.121392,-0.079211,-0.198557,0.21624
0.241504,0.123144,2.73277,0.567604,0.317751,-0.284673,-0.0367293,-0.209672,0.332035
0.250207,0.130792,2.72367,0.373698,0.433454,-0.390716,-0.00792602,-0.187741,0.434234
0.260337,0.133386,2.71432,0.107952,0.404077,-0.423718,0.0412515,-0.158025,0.444979
0.267401,0.131426,2.7067,-0.0829208,0.184019,-0.33458,0.100495,-0.141459,0.405072
0.268913,0.127648,2.70262,-0.163665,-0.0954694,-0.137591,0.128094,-0.0962703,0.364572
0.263501,0.124294,2.70361,-0.157759,-0.42369,0.159366,0.130235,-0.0474124,0.295423
0.252175,0.124563,2.71063,0.039081,-0.560144,0.522551,0.116116,-0.023815,0.231972
0.239858,0.13097,2.72293,0.258455,-0.503645,0.765789,0.0975081,0.0079461,0.168802
0.229078,0.139697,2.73671,0.232342,-0.360947,0.718837,0.0727091,0.0771097,0.0709714
0.222817,0.14631,2.74848,0.177683,-0.0701803,0.567438,0.040004,0.110205,0.0053097
0.223936,0.153916,2.75833,0.387483,0.334327,0.577619,-0.023323,0.139301,0.00137669
0.232822,0.168483,2.76946,0.786878,0.703664,0.855174,-0.0837348,0.123925,0.0333077
0.245896,0.192291,2.78561,1.10858,0.840341,1.23291,-0.0955829,0.0518715,0.0540327
0.257187,0.22126,2.80668,1.10437,0.666121,1.40875,-0.0709755,-0.0136798,0.0238855
0.261965,0.246041,2.82798,0.686978,0.295277,1.14351,-0.0465437,-0.0139715,-0.0833774
0.259156,0.25761,2.84247,0.067971,-0.252388,0.453716,0.0105377,-0.0222991,-0.254285
0.248167,0.254669,2.84461,-0.367768,-0.725635,-0.284919,0.035885,0.069949,-0.435528
0.234926,0.242592,2.83704,-0.587894,-0.719641,-0.645306,0.0434083,0.128037,-0.53382
0.225204,0.227196,2.82594,-0.646819,-0.48848,-0.721766,0.0657582,0.156292,-0.606865
0.220186,0.21074,2.81571,-0.741898,-0.234988,-0.553517,0.0395791,0.226349,-0.604052
0.218375,0.193958,2.81246,-0.794499,-0.0382425,-0.0806028,-0.0161393,0.208858,-0.516908
0.216615,0.180226,2.81959,-0.665555,-0.0452814,0.442165,-0.0475037,0.107918,-0.398822
0.212334,0.171931,2.8335,-0.425883,-0.129812,0.649946,-0.0682764,0.0303682,-0.265585
0.207508,0.168774,2.84707,-0.150708,-0.109062,0.549015,-0.0896614,-0.024577,-0.117952
0.204737,0.170189,2.8553,0.113307,-0.0363152,0.243373,-0.0898222,-0.0734136,0.0315278
0.203576,0.173853,2.85582,0.200196,-0.1022,-0.11527,-0.0706312,-0.103221,0.145693
0.200469,0.176049,2.84982,0.121159,-0.322687,-0.395673,-0.0397553,-0.11621,0.217649
0.193454,0.175552,2.83991,0.0229217,-0.551392,-0.555672,-0.00950059,-0.119614,0.270447
0.182185,0.173689,2.82763,0.0473704,-0.763384,-0.651467,0.0354602,-0.105808,0.265208
0.168564,0.174455,2.81358,0.286498,-0.816554,-0.688459,0.0720541,-0.0864841,0.280586
0.15563,0.180683,2.79786,0.564987,-0.73953,-0.731805,0.104875,-0.0358895,0.296051
0.144751,0.191218,2.78044,0.699291,-0.667766,-0.802895,0.149811,0.00287572,0.28602
0.135661,0.203073,2.76135,0.714669,-0.604539,-0.870681,0.201594,0.0450181,0.26278
0.128674,0.214531,2.74156,0.664644,-0.489263,-0.881687,0.225376,0.0955492,0.242207
0.125302,0.225314,2.72244,0.646006,-0.226968,-0.806239,0.204204,0.172662,0.235362
0.125302,0.225314,2.72244,0.646006,-0.226968,-0.806239,0.204204,0.172662,0.235362
0.128585,0.237229,2.70596,0.743479,0.193238,-0.612013,0.166636,0.220697,0.273279
0.139614,0.252302,2.69377,0.90388,0.591463,-0.347873,0.146006,0.213699,0.321726
0.156048,0.271071,2.68619,1.0332,0.838816,-0.111945,0.130899,0.175082,0.366115
0.174711,0.291287,2.68169,0.982762,0.845288,-0.00365287,0.113147,0.139236,0.384822
0.190256,0.308575,2.67823,0.762126,0.565228,-0.0280439,0.11511,0.0900482,0.33122
0.199669,0.321903,2.67378,0.661519,0.232526,-0.135572,0.132796,0.00625262,0.24386
0.203456,0.335172,2.66608,0.799157,-0.0780718,-0.337894,0.189101,-0.135699,0.109797
0.203495,0.349643,2.65221,0.817646,-0.397389,-0.632384,0.234191,-0.203488,-0.014598
0.19951,0.359486,2.63393,0.417212,-0.580077,-0.82979,0.141415,-0.115217,-0.128587
0.196587,0.357035,2.61457,-0.334721,-0.292073,-0.958219,-0.00110605,0.0700327,-0.221246
0.204583,0.339002,2.59997,-1.1514,0.626413,-0.661645,0.0218743,-0.0771221,-0.282665
0.224915,0.306397,2.5965,-1.93068,1.18964,-0.377481,0.0938213,-0.134089,-0.466812
0.250011,0.262292,2.60378,-2.4401,1.47362,0.0854732,-0.00122115,0.0168017,-0.578389
0.274284,0.21625,2.62533,-2.40068,1.38148,0.735944,-0.0658643,0.0351708,-0.66205
0.292368,0.182458,2.65613,-1.57712,0.981351,1.12688,-0.0989267,-0.0485788,-0.669369
0.301466,0.16782,2.68383,-0.658849,0.39734,0.972157,-0.148462,-0.0761617,-0.618846
0.302553,0.165367,2.70067,-0.136046,0.0442344,0.500379,-0.199533,-0.0737733,-0.443896
0.301687,0.166202,2.70544,0.0354382,-0.0216793,-0.00913816,-0.194343,-0.0722181,-0.227953
0.302073,0.166262,2.70184,0.0690363,0.0119378,-0.277602,-0.144472,-0.109726,-0.0482659
0.303941,0.166344,2.69552,0.132937,0.0683931,-0.276147,-0.103365,-0.135737,0.0912317
0.306579,0.168715,2.69025,0.251819,0.0933996,-0.13481,-0.0919318,-0.137794,0.201935
0.308111,0.174608,2.68707,0.395275,-0.0208884,-0.000938469,-0.0889313,-0.136748,0.277744
0.306131,0.183656,2.68454,0.531805,-0.229516,0.0270711,-0.0737238,-0.127601,0.329424
0.299942,0.194297,2.68129,0.549427,-0.450662,-0.0246102,-0.0576055,-0.115349,0.37323
0.289702,0.203859,2.67717,0.480402,-0.635459,-0.0685709,-0.0193754,-0.103519,0.385048
0.277001,0.212508,2.67352,0.449109,-0.684318,-0.0200442,0.0174087,-0.0943247,0.397686
0.264066,0.221333,2.67176,0.457339,-0.630399,0.103097,0.0635817,-0.070341,0.377167
0.252305,0.231995,2.67325,0.532549,-0.492549,0.319068,0.08539,-0.0234525,0.350448
0.242987,0.245127,2.67967,0.572194,-0.278821,0.617308,0.0856811,0.0355415,0.317753
0.235821,0.25965,2.69265,0.525755,-0.125282,0.929375,0.073934,0.0769171,0.266375
0.229512,0.274352,2.71127,0.514723,-0.00845894,1.12987,0.0389249,0.146457,0.189343
0.224861,0.29147,2.73278,0.70626,0.151083,1.24359,-0.00175941,0.19506,0.130105
0.222611,0.313503,2.75529,0.940005,0.275376,1.31643,-0.00954594,0.180906,0.0683653
0.221228,0.338032,2.77751,0.926349,0.25714,1.21918,-0.00841732,0.132703,-0.00183964
0.217884,0.357827,2.79504,0.59208,-0.0409941,0.737027,0.00013414,0.114477,-0.120932
0.211484,0.36525,2.80017,-0.00868615,-0.389011,-0.145694,0.00866327,0.168478,-0.241057
0.206594,0.356074,2.79062,-0.673153,-0.359473,-0.815443,0.0434116,0.170924,-0.315401
0.20716,0.333828,2.77538,-1.19324,-0.113508,-1.00464,0.10769,0.0605419,-0.365872
0.211663,0.300818,2.76052,-1.73175,0.118657,-1.01777,0.11348,0.108894,-0.422437
0.219365,0.258019,2.75035,-2.16678,0.33449,-0.807424,0.0416532,0.137719,-0.478393
0.227857,0.213609,2.74786,-1.95955,0.434527,-0.372175,-0.012978,0.101317,-0.506011
0.235151,0.182251,2.75315,-1.1436,0.36706,0.152713,-0.0260667,-0.0126043,-0.45244
0.238281,0.169731,2.76372,-0.361366,0.0799151,0.5301,-0.0367487,-0.128049,-0.329175
0.233158,0.170485,2.77694,0.0804792,-0.368522,0.718165,-0.0530491,-0.19327,-0.186854
0.219965,0.177748,2.79088,0.289612,-0.672993,0.757435,-0.0826164,-0.203847,-0.0202296
0.202987,0.187749,2.80386,0.412064,-0.749111,0.676993,-0.100824,-0.180021,0.119742
0.186885,0.199267,2.81402,0.507474,-0.64773,0.506055,-0.0940488,-0.155779,0.230631
0.174023,0.211006,2.8201,0.516397,-0.51348,0.281352,-0.0784551,-0.107009,0.302514
0.174023,0.211006,2.8201,0.516397,-0.51348,0.281352,-0.0784551,-0.107009,0.302514
0.164896,0.221185,2.8217,0.448042,-0.35078,0.0478035,-0.0551554,-0.0408984,0.353182
0.160362,0.229521,2.81955,0.415658,-0.143342,-0.101409,-0.0176404,0.00722013,0.389291
0.160364,0.237711,2.81552,0.463796,0.0350308,-0.1338,0.0159703,0.0446221,0.398939
0.162938,0.24775,2.81171,0.591809,0.126304,-0.0623758,0.0315775,0.0712276,0.380881
0.167034,0.261128,2.8088,0.764011,0.199787,-0.00326912,0.0338203,0.111366,0.364458
0.17194,0.2777,2.80563,0.898621,0.190502,-0.0344707,0.0330774,0.150518,0.334502
0.176721,0.295901,2.80022,0.975282,0.147813,-0.170227,0.0397843,0.180762,0.288917
0.182714,0.314947,2.7916,1.02105,0.199565,-0.275626,0.0645583,0.168302,0.252506
0.191113,0.332784,2.78147,0.848176,0.303711,-0.33977,0.110386,0.0694583,0.17152
0.200436,0.343398,2.77037,0.356463,0.208772,-0.510747,0.162335,-0.062329,0.00998408
0.207953,0.3425,2.755,-0.127751,0.0529695,-0.952724,0.0729135,0.0453618,-0.140707
0.21758,0.331683,2.73114,-0.419799,0.182115,-1.44286,-0.0154879,0.188809,-0.185943
0.2336,0.316038,2.70258,-0.470797,0.488447,-1.38566,0.0627585,0.0886661,-0.150949
0.248502,0.300053,2.68339,-0.720429,0.27253,-0.777522,0.235862,-0.301291,-0.197392
0.249564,0.275386,2.67634,-1.60202,-0.312332,-0.515837,0.194408,-0.14811,-0.275836
0.240245,0.230766,2.67918,-2.70014,-0.457731,-0.29329,0.091685,-0.0745149,-0.389291
0.229709,0.174392,2.68967,-2.76732,-0.404366,0.021221,0.0715509,-0.0662821,-0.542379
0.219867,0.131509,2.70548,-1.62208,-0.353531,0.555859,0.0511328,-0.120411,-0.655914
0.209167,0.115977,2.72573,-0.377562,-0.476352,1.0306,-0.0334596,-0.100912,-0.682588
0.196018,0.120675,2.74803,0.29936,-0.565689,1.15729,-0.111104,-0.0800728,-0.53286
0.183064,0.133958,2.76755,0.590976,-0.412142,0.93387,-0.131814,-0.101901,-0.330161
0.177293,0.149408,2.77984,0.677022,0.0211798,0.525657,-0.11277,-0.12019,-0.0981592
0.181098,0.163744,2.78464,0.624965,0.4116,0.228381,-0.0684933,-0.114986,0.0736538
0.191562,0.175526,2.78647,0.483616,0.620507,0.207608,-0.0361307,-0.097499,0.191783
0.203144,0.184428,2.7905,0.308245,0.563037,0.364553,-0.0165503,-0.082134,0.226057
0.211267,0.19133,2.79812,0.235239,0.376047,0.481257,-0.0266428,-0.0649007,0.215859
0.215806,0.199036,2.80624,0.387177,0.246048,0.436745,-0.0614851,-0.0253442,0.197617
0.21985,0.211623,2.81134,0.736564,0.287881,0.316418,-0.0931159,0.0146275,0.213299
0.226891,0.230267,2.81252,1.01172,0.433368,0.214583,-0.11072,0.0523498,0.271986
0.237822,0.252095,2.81138,1.10288,0.636661,0.187588,-0.114981,0.0765667,0.357746
0.253597,0.274457,2.80981,1.06808,0.900194,0.215443,-0.12521,0.107633,0.441948
0.274177,0.29474,2.80919,0.875811,1.10316,0.249009,-0.126282,0.12504,0.492517
0.29652,0.310508,2.80984,0.602664,1.10087,0.243206,-0.10662,0.118897,0.491008
0.316093,0.320548,2.81166,0.299427,0.886911,0.226531,-0.077782,0.115532,0.432317
0.330951,0.32559,2.81533,0.0897135,0.715211,0.27488,-0.059595,0.128996,0.360601
0.342591,0.328712,2.82152,0.0195542,0.681793,0.390078,-0.0300245,0.131143,0.25152
0.354475,0.331277,2.83114,-0.114852,0.828423,0.544737,0.00667414,0.0951634,0.135632
0.36956,0.330776,2.84474,-0.395376,1.12963,0.602674,0.0701647,-0.00754386,-0.00687236
0.389503,0.324993,2.85953,-0.626193,1.2586,0.44197,0.148236,-0.107882,-0.167671
0.408016,0.315172,2.87052,-0.638519,0.843477,0.12178,0.189742,-0.102419,-0.331924
0.416702,0.304707,2.87432,-0.432465,0.128393,-0.203345,0.219641,-0.0883989,-0.419794
0.41216,0.295117,2.87009,-0.358912,-0.73727,-0.588792,0.272475,-0.11726,-0.456667
0.39292,0.277041,2.85824,-0.926515,-1.39861,-1.13001,0.228132,0.10307,-0.527278
0.370236,0.245513,2.84404,-1.38064,-1.0396,-1.19533,0.199964,0.167218,-0.499797
0.362308,0.215442,2.83519,-1.00497,0.0874298,-0.610546,0.152844,0.0936472,-0.372165
0.372753,0.201153,2.83567,-0.355247,0.846915,0.137143,0.136342,0.0578623,-0.292696
0.389531,0.201575,2.84476,0.00490538,0.890356,0.639217,0.115529,-0.00961074,-0.194916
0.400547,0.208534,2.85771,0.115481,0.419167,0.74253,0.083964,-0.055486,-0.0863152
0.400547,0.208534,2.85771,0.115481,0.419167,0.74253,0.083964,-0.055486,-0.0863152
0.400837,0.215813,2.86991,0.0633673,-0.0939472,0.61444,0.0605274,-0.115098,0.013054
0.396842,0.219301,2.8804,-0.168288,0.0448285,0.47131,0.000114113,-0.135526,0.138036
0.401086,0.216977,2.89105,-0.432899,0.585331,0.408434,-0.0411462,-0.0960619,0.225772
0.413664,0.211469,2.90302,-0.493753,0.854074,0.456958,-0.0221633,-0.0875278,0.227273
0.426909,0.207796,2.91572,-0.314052,0.64778,0.516622,-0.0149242,-0.062373,0.213666
0.43129,0.209193,2.92673,0.0020886,-0.0517673,0.500138,-0.0098663,-0.0399948,0.197979
0.421062,0.215775,2.93374,0.294256,-0.767511,0.379362,0.00199324,-0.0188357,0.211987
0.401686,0.22513,2.93609,0.441709,-1.04122,0.202019,0.0203541,0.0090912,0.2544
0.381369,0.234683,2.93532,0.44885,-0.960308,0.111706,0.0523325,0.0508181,0.267642
0.364692,0.243672,2.93471,0.41407,-0.68529,0.18381,0.0712326,0.096889,0.250278
0.354359,0.253524,2.93677,0.456168,-0.281238,0.355114,0.0642793,0.146401,0.240165
0.351689,0.26691,2.94192,0.642819,0.142001,0.574109,0.0458882,0.17812,0.242144
0.355369,0.285476,2.94976,0.801766,0.388379,0.745379,0.02964,0.177305,0.256981
0.359843,0.305586,2.9592,0.727269,0.292639,0.779803,0.0177024,0.170832,0.223142
0.360457,0.323041,2.96985,0.532182,0.0892799,0.770166,0.0240625,0.104027,0.156652
0.355825,0.336022,2.98158,0.283401,-0.198322,0.698267,0.0810462,-0.0391926,0.00984484
0.343622,0.342735,2.99121,0.056162,-0.717034,0.310049,0.0922868,-0.115229,-0.240677
0.325381,0.343418,2.9909,0.0383417,-1.01548,-0.3033,0.00778788,-0.0121847,-0.407099
0.311017,0.341,2.97984,0.0625061,-0.725255,-0.697589,-0.0881653,0.0766937,-0.435604
0.305807,0.338622,2.96529,0.115583,-0.301111,-0.57824,-0.0922401,0.0274087,-0.41787
0.304148,0.338681,2.95818,0.0728132,-0.13915,-0.0354999,-0.0542269,-0.128923,-0.398192
0.299889,0.33972,2.96204,-0.121066,-0.184458,0.352057,-0.0749937,-0.193083,-0.313282
0.291372,0.335052,2.97163,-0.630165,-0.371825,0.317515,-0.131614,-0.171349,-0.254943
0.278269,0.318393,2.98034,-1.15237,-0.658173,-0.0176632,-0.169318,-0.135171,-0.266238
0.260421,0.293085,2.98353,-1.27907,-1.0255,-0.318928,-0.16176,-0.0867335,-0.30292
0.23746,0.269756,2.98274,-0.883772,-1.24734,-0.277705,-0.1237,-0.0722183,-0.291116
0.212813,0.257928,2.98209,-0.246809,-1.15538,-0.0277721,-0.0950931,-0.027683,-0.185645
0.192821,0.258438,2.98443,0.198109,-0.727133,0.243248,-0.0746228,0.00348055,-0.00893611
0.183596,0.264978,2.98927,0.302083,-0.0428787,0.281312,-0.0438094,0.0362872,0.173213
0.190266,0.270646,2.9919,0.186802,0.783748,0.0441187,-0.0162358,0.0872546,0.305218
0.213548,0.272203,2.9899,-0.00568916,1.42433,-0.16044,0.057898,0.0816137,0.375293
0.245027,0.269708,2.98835,-0.202413,1.5577,0.0318531,0.111158,0.0435193,0.38707
0.2704,0.265856,2.99588,-0.346146,1.10025,0.607975,0.111926,0.00547242,0.339568
0.280532,0.263445,3.01658,-0.418218,0.44144,1.19696,0.069874,-0.0315532,0.285986
0.275465,0.26243,3.04541,-0.427732,-0.172631,1.36001,0.0107096,-0.0405439,0.197861
0.261991,0.261609,3.0724,-0.310717,-0.400596,1.05628,-0.08764,0.00808549,0.121153
0.251975,0.262675,3.0894,0.0408532,-0.0603963,0.556747,-0.171735,0.0585079,0.0944752
0.255419,0.270035,3.0959,0.504413,0.565383,0.289789,-0.202678,0.0601913,0.138077
0.270433,0.284464,3.09869,0.758147,0.947196,0.380134,-0.189152,0.0379214,0.187425
0.288637,0.301725,3.10406,0.72414,0.971868,0.579756,-0.181409,0.0421626,0.204115
0.303912,0.318631,3.11293,0.637678,0.81288,0.689275,-0.165815,0.0346112,0.192949
0.316406,0.334162,3.12268,0.553716,0.78204,0.629729,-0.136532,-0.0107068,0.142863
0.331043,0.346824,3.13031,0.383066,0.954647,0.417727,-0.08331,-0.0890881,0.0578203
0.353433,0.351811,3.13296,-0.0310853,1.40703,-0.0734753,-0.0304109,-0.12818,-0.0565909
0.388812,0.343688,3.12596,-0.442164,1.82373,-0.850825,0.0849752,-0.120451,-0.199878
0.432626,0.32474,3.10697,-0.516342,1.83775,-1.48182,0.251445,-0.110519,-0.337505
0.473873,0.303134,3.08133,-0.318808,1.434,-1.48368,0.406862,-0.0582527,-0.405356
0.473873,0.303134,3.08133,-0.318808,1.434,-1.48368,0.406862,-0.0582527,-0.405356
0.502212,0.290322,3.06354,-0.026377,0.854745,-0.487788,0.470267,-0.1746,-0.3868
0.512248,0.291814,3.06487,0.0131951,0.15558,0.560933,0.425389,-0.231139,-0.356047
0.505079,0.296413,3.08023,-0.357826,-0.339026,0.837032,0.277871,-0.12867,-0.328189
0.492395,0.294569,3.09897,-0.607658,-0.338898,0.585188,0.148989,-0.10721,-0.256453
0.482985,0.287596,3.11273,-0.599119,-0.195888,0.293074,0.064995,-0.0895971,-0.224644
0.477686,0.279965,3.12378,-0.559937,-0.0281373,0.341109,0.0150526,-0.0844416,-0.174027
0.474708,0.274995,3.13718,-0.446335,0.101708,0.59394,-0.00336614,-0.0641668,-0.0998794
0.47375,0.275458,-3.12891,-0.262758,0.254877,0.870558,-0.0439925,-0.0522157,0.00830913
0.474947,0.280506,-3.10945,-0.163216,0.39983,0.981261,-0.0956382,-0.0280137,0.112249
0.478792,0.286113,-3.08977,-0.232031,0.523802,0.932196,-0.159295,0.00144875,0.202301
0.484335,0.288872,-3.07016,-0.392401,0.566822,0.857092,-0.221107,0.00645891,0.254109
0.489967,0.289085,-3.05071,-0.422573,0.525347,0.78729,-0.275868,-0.000492662,0.268831
0.494598,0.290177,-3.03406,-0.197135,0.399822,0.649544,-0.333342,0.0155381,0.255121
0.498687,0.295276,-3.02386,0.185482,0.305429,0.428158,-0.370798,0.020878,0.266427
0.502979,0.30368,-3.0225,0.453941,0.14475,0.0614169,-0.38419,0.0328596,0.259919
0.506283,0.310665,-3.03118,0.532018,-0.0841663,-0.454749,-0.375535,0.0806861,0.225755
0.508223,0.314139,-3.04965,0.640381,-0.263383,-0.882396,-0.349103,0.129615,0.167528
0.511325,0.317091,-3.07612,0.850076,-0.214095,-1.12273,-0.31528,0.186651,0.141135
0.518874,0.323029,-3.10715,1.10286,0.0205471,-1.10522,-0.307473,0.221432,0.131142
0.532257,0.332458,-3.13924,1.1755,0.23755,-1.06724,-0.315751,0.249433,0.117292
0.54755,0.33938,3.11084,0.999533,0.161844,-1.28198,-0.276471,0.259156,0.0182987
0.561434,0.339974,3.07444,0.880845,0.0278287,-1.57231,-0.214009,0.219769,-0.0837784
0.575107,0.337607,3.03429,0.978984,0.00473224,-1.70845,-0.152624,0.125481,-0.160246
0.589225,0.336281,2.99066,1.14975,-0.0359878,-1.79079,-0.104699,0.0589365,-0.231003
0.6035,0.334389,2.94404,1.11386,-0.0572457,-1.94894,-0.0812894,0.0380459,-0.260702
0.616962,0.327287,2.89656,0.844732,-0.177438,-2.11616,-0.0414245,-0.0164456,-0.295985
0.625855,0.313356,2.85038,0.580791,-0.38672,-2.22079,-0.00330973,-0.0584464,-0.344482
0.629573,0.295087,2.80587,0.466041,-0.572812,-2.26309,-0.00411505,-0.0559331,-0.386584
0.629121,0.276435,2.7607,0.584987,-0.747286,-2.32011,0.0243908,-0.0669615,-0.411422
0.623918,0.25786,2.71338,0.535181,-1.0157,-2.45626,0.0120155,-0.00617307,-0.420697
0.612716,0.235274,2.66554,0.318122,-1.25743,-2.58822,-0.00721568,0.069215,-0.388439
0.596328,0.210473,2.61879,0.270987,-1.36832,-2.4992,0.0129037,0.0575091,-0.334502
0.577874,0.190279,2.57471,0.46467,-1.31524,-2.17128,0.00220358,0.0471193,-0.247698
0.560712,0.178559,2.53372,0.69698,-1.1212,-1.86013,-0.0312074,0.0472713,-0.133171
0.547429,0.172109,2.49486,0.715635,-0.870444,-1.7492,-0.0605788,0.036281,-0.0234802
0.53913,0.164698,2.45694,0.554673,-0.588731,-1.84656,-0.0891145,0.0224141,0.0711066
0.535187,0.152324,2.4183,0.325671,-0.445393,-2.03931,-0.0614238,-0.0171636,0.120706
0.531595,0.135764,2.3794,0.239302,-0.485788,-2.05348,0.00984061,-0.0779556,0.12427
0.524939,0.120996,2.34244,0.353296,-0.67292,-1.8022,0.0769358,-0.108593,0.110721
0.513065,0.113602,2.30958,0.639551,-0.872359,-1.36123,0.123826,-0.137649,0.0964177
0.498304,0.117502,2.28201,1.01835,-0.872085,-0.843565,0.156645,-0.187699,0.0981215
0.484092,0.131132,2.2594,1.16353,-0.834448,-0.541072,0.224397,-0.277996,0.0676538
0.470259,0.144849,2.23926,0.909257,-0.816016,-0.665597,0.263038,-0.280904,-0.0177412
0.458307,0.150787,2.2177,0.607735,-0.641098,-0.921101,0.274153,-0.183707,-0.120575
0.452022,0.153942,2.19569,0.681888,-0.344189,-0.85368,0.294256,-0.158494,-0.183918
0.449978,0.162356,2.17508,0.926796,-0.21625,-0.59322,0.280125,-0.0533225,-0.227581
0.448406,0.175095,2.15777,0.893178,-0.202028,-0.417351,0.265817,0.023735,-0.255019
0.448119,0.185957,2.14403,0.674287,-0.0622543,-0.307486,0.218471,0.129757,-0.248887
0.448119,0.185957,2.14403,0.674287,-0.0622543,-0.307486,0.218471,0.129757,-0.248887
0.451113,0.197193,2.13449,0.821771,0.182578,-0.0101294,0.141451,0.192759,-0.230272
0.457889,0.219061,2.12846,1.42385,0.342398,0.430661,0.061505,0.194532,-0.154295
0.465276,0.254084,2.1235,1.8203,0.235718,0.630463,0.010468,0.162949,-0.085038
0.469892,0.290348,2.11705,1.57567,0.0435038,0.37405,-0.0363622,0.138367,-0.0338858
0.472277,0.313176,2.10669,0.850727,-0.091913,-0.252957,-0.0837432,0.11962,-0.0153449
0.476335,0.316361,2.09086,0.160809,0.0765877,-0.91767,-0.161707,0.135558,-0.0209602
0.48892,0.304911,2.0695,-0.169027,0.567277,-1.35416,-0.241542,0.188026,-0.034835
0.513165,0.287249,2.04527,-0.248579,1.10744,-1.45992,-0.275082,0.203222,-0.0220445
0.544082,0.269089,2.02334,-0.241669,1.30733,-1.21915,-0.288327,0.162857,-0.0213636
0.573064,0.254429,2.00747,-0.189555,1.10298,-0.853499,-0.307988,0.10443,-0.00360924
0.593275,0.243561,1.99707,-0.179279,0.630815,-0.609904,-0.347235,0.0593062,0.00276327
0.602212,0.233423,1.98981,-0.271981,0.0853738,-0.569303,-0.390963,0.0303204,-0.01229
0.600191,0.221513,1.98323,-0.322951,-0.41176,-0.633131,-0.402395,0.00492337,-0.0578509
0.59017,0.210205,1.97518,-0.12343,-0.731455,-0.632617,-0.423663,0.00977707,-0.0990787
0.575517,0.205858,1.96357,0.436997,-0.949014,-0.539785,-0.412767,0.0233466,-0.130538
0.557311,0.214088,1.94655,1.13677,-1.23573,-0.430573,-0.399979,0.0257497,-0.10499
0.533149,0.233398,1.92417,1.54928,-1.65736,-0.47153,-0.38027,0.0325693,-0.0764158
0.502735,0.253786,1.89806,1.36006,-1.97568,-0.742455,-0.352988,0.0771815,-0.0474147
0.469131,0.26405,1.87033,0.770983,-2.00107,-1.14171,-0.290171,0.0837615,-0.0671756
0.440043,0.262096,1.84094,0.361146,-1.61436,-1.46085,-0.223305,0.0885882,-0.1003
0.421423,0.255269,1.80834,0.385639,-1.0674,-1.65498,-0.167686,0.126498,-0.140408
0.413288,0.250605,1.77154,0.635848,-0.713415,-1.76969,-0.127526,0.186695,-0.177774
0.40931,0.250463,1.73106,0.906544,-0.736896,-1.79708,-0.0479881,0.204198,-0.201561
0.403154,0.255731,1.68911,1.17243,-0.918201,-1.67874,0.0256647,0.175652,-0.175638
0.393067,0.26594,1.64789,1.23616,-1.1699,-1.64211,0.0928893,0.0964038,-0.148972
0.377669,0.272315,1.60446,0.842899,-1.48985,-2.03354,0.105695,0.16804,-0.184743
0.359246,0.26542,1.5561,0.199698,-1.59844,-2.51707,0.0884008,0.25937,-0.251939
0.339874,0.248235,1.50376,0.0567553,-1.6268,-2.74327,0.0774543,0.309506,-0.376752
0.321554,0.237031,1.44872,0.696088,-1.49582,-2.60216,0.0402231,0.333145,-0.41108
0.305999,0.243344,1.39309,1.54257,-1.36531,-2.32971,-0.0262418,0.357252,-0.387444
0.292308,0.264899,1.33703,2.00118,-1.42176,-2.23141,-0.0203448,0.314592,-0.297927
0.278678,0.289788,1.28065,1.79337,-1.43158,-2.26082,-0.00786281,0.226667,-0.187142
0.268847,0.305497,1.22601,1.04529,-1.08621,-2.32188,-0.032939,0.169359,-0.0714672
0.267295,0.304574,1.17483,0.195882,-0.61442,-2.38039,-0.0859366,0.146811,-0.0230936
0.272394,0.291357,1.12651,-0.15279,-0.342988,-2.39348,-0.120569,0.118414,0.018089
0.27914,0.276021,1.07919,-0.0263121,-0.327764,-2.36644,-0.144693,0.0862955,0.0599762
0.283343,0.2652,1.03122,0.269079,-0.570228,-2.35765,-0.163135,0.059267,0.121262
0.281036,0.258807,0.981582,0.413784,-0.945648,-2.41524,-0.171267,0.0289069,0.18344
0.271564,0.252419,0.929762,0.296294,-1.28465,-2.57005,-0.157352,-0.000115901,0.224878
0.256353,0.241779,0.875305,0.0643206,-1.50191,-2.76362,-0.116419,-0.00779302,0.203879
0.23903,0.228324,0.81888,0.0121727,-1.49498,-2.84789,-0.102244,0.0325741,0.158343
0.222753,0.217168,0.761511,0.209024,-1.38,-2.79623,-0.0760015,0.0852012,0.101784
0.208486,0.212486,0.705973,0.48551,-1.18517,-2.55248,-0.0671617,0.124053,0.0639928
0.197539,0.213929,0.655194,0.618683,-0.971857,-2.27006,-0.0602678,0.157049,0.0409332
0.190191,0.217981,0.608611,0.642801,-0.754803,-2.11355,-0.0162376,0.137981,0.0357269
0.186339,0.222691,0.56427,0.614126,-0.604029,-2.02782,0.0267401,0.0930627,0.0377383
0.184434,0.226355,0.521949,0.472404,-0.546563,-1.93912,0.056319,0.0419322,0.0435502
0.181874,0.225991,0.481974,0.18159,-0.612249,-1.88315,0.0901294,-0.00461163,0.00673157
0.181874,0.225991,0.481974,0.18159,-0.612249,-1.88315,0.0901294,-0.00461163,0.00673157
0.177649,0.219677,0.444106,-0.136282,-0.624072,-1.84441,0.105637,-0.0404622,-0.0265595
0.173818,0.207822,0.407506,-0.382172,-0.497388,-1.8699,0.105115,-0.04068,-0.073142
0.173546,0.192661,0.370784,-0.463989,-0.259931,-1.92926,0.0976695,-0.0413625,-0.113522
0.177052,0.176933,0.332256,-0.39633,-0.110265,-2.0496,0.106193,0.00323576,-0.148173
0.181971,0.163994,0.29215,-0.129859,-0.0806666,-2.01657,0.127734,0.0227877,-0.153058
0.186458,0.158904,0.253591,0.338032,-0.0782423,-1.77353,0.152009,0.0214867,-0.0902144
0.189779,0.164055,0.219613,0.745816,-0.141878,-1.40382,0.189562,-0.0254772,-0.00158352
0.190236,0.175661,0.191913,0.831289,-0.284088,-1.0642,0.251075,-0.109711,0.0728666
0.187389,0.186729,0.170353,0.614069,-0.358678,-0.826743,0.284794,-0.18203,0.0981818
0.183898,0.192972,0.15315,0.302368,-0.291341,-0.725638,0.300023,-0.216869,0.0995486
0.182203,0.19391,0.138282,0.0678292,-0.159427,-0.692415,0.304316,-0.253134,0.0631599
0.18212,0.191417,0.124076,-0.0774758,-0.159807,-0.740417,0.284946,-0.230908,-0.00680572
0.178933,0.183957,0.108493,-0.402344,-0.494879,-0.896518,0.239162,-0.103486,-0.173698
0.16947,0.17104,0.0914705,-0.49323,-0.682136,-0.927041,0.21051,-0.0175675,-0.286658
0.160221,0.162454,0.0761732,-0.0350382,-0.421627,-0.643829,0.163838,0.0503356,-0.283283
0.157816,0.16692,0.0675961,0.590817,0.0485154,-0.0882693,0.0937101,0.0888906,-0.214569
0.162276,0.183284,0.0695321,0.926939,0.399877,0.515813,0.0398873,0.074365,-0.119496
0.170451,0.204765,0.0810437,0.962891,0.599484,0.899272,-0.0132966,0.0486893,-0.0152894
0.179087,0.226593,0.0972078,0.907308,0.573161,0.986418,-0.0647369,0.0274851,0.0503446
0.185634,0.247862,0.11283,0.903691,0.428068,0.85087,-0.12914,0.024507,0.108271
0.189444,0.268592,0.12396,0.926244,0.229611,0.573401,-0.187253,0.0439692,0.149106
0.190212,0.288813,0.12884,0.947968,-0.0354643,0.256568,-0.22094,0.034952,0.170054
0.18705,0.307136,0.126387,0.857023,-0.359453,-0.159001,-0.234555,0.0438308,0.155464
0.179697,0.320248,0.115399,0.593685,-0.701157,-0.629328,-0.223157,0.0409679,0.109564
0.169946,0.326087,0.0954748,0.319747,-0.856371,-1.11687,-0.204574,0.0518911,0.0368664
0.162928,0.326537,0.0670686,0.181524,-0.70347,-1.48336,-0.205883,0.119379,-0.00225914
0.162608,0.325064,0.0336891,0.228498,-0.370015,-1.59428,-0.17621,0.166431,-0.0328575
0.169774,0.327635,0.000935007,0.551755,0.0210296,-1.36783,-0.137648,0.13554,0.0070923
0.18065,0.33703,-0.0271159,0.773816,0.0874901,-1.08608,-0.0646262,0.0680672,0.0110098
0.187421,0.346647,-0.0521984,0.501544,-0.31275,-1.12553,0.0120587,-0.0111756,-0.0153757
0.186328,0.344724,-0.0795493,-0.269853,-0.644944,-1.42004,-0.00971054,0.0815285,-0.00880718
0.183527,0.325699,-0.108579,-1.03933,-0.518853,-1.60111,-0.0743779,0.124308,-0.00650239
0.185956,0.29608,-0.13813,-1.23398,-0.139287,-1.65342,-0.0813364,0.152964,-0.0324602
0.193951,0.270238,-0.166019,-0.705316,0.122418,-1.39969,-0.0517856,0.109459,-0.0510811
0.20218,0.259712,-0.188946,0.103734,0.0425729,-0.959215,-0.0387975,0.0780149,-0.0467215
0.203536,0.265036,-0.206027,0.661,-0.395908,-0.570803,-0.0186387,0.0581175,-0.00999284
0.193946,0.277302,-0.218588,0.694883,-0.846566,-0.406708,-0.0121671,0.0441322,0.0301909
0.17847,0.287,-0.229008,0.394062,-0.917652,-0.413889,-0.0392511,0.0346326,0.0889441
0.165265,0.289013,-0.239466,-0.0452486,-0.657043,-0.547175,-0.057379,0.0166803,0.124238
0.159091,0.281505,-0.251955,-0.487576,-0.308287,-0.75365,-0.0763643,0.0194704,0.109121
0.160324,0.266292,-0.267593,-0.726273,-0.011177,-0.950551,-0.08022,0.0397673,0.0760992
0.165867,0.248984,-0.285442,-0.642997,0.0823298,-0.992839,-0.0551426,0.0288288,0.0396481
0.171284,0.236245,-0.303008,-0.300308,0.00154106,-0.863045,-0.0209834,0.00303574,0.0481458
0.172804,0.231572,-0.317828,0.0701296,-0.188804,-0.625044,0.000506505,-0.0339354,0.0853979
0.17019,0.233132,-0.329047,0.230214,-0.310574,-0.434133,0.00862807,-0.0735853,0.153715
0.16604,0.236203,-0.337628,0.186909,-0.281377,-0.346586,0.00796649,-0.112163,0.221954
0.163094,0.236879,-0.344888,-0.0377151,-0.176592,-0.348116,0.0109245,-0.146189,0.254128
0.162393,0.231657,-0.351742,-0.367248,-0.0513746,-0.391271,0.00903606,-0.160653,0.250643
0.162393,0.231657,-0.351742,-0.367248,-0.0513746,-0.391271,0.00903606,-0.160653,0.250643
0.163988,0.220906,-0.358334,-0.538902,0.0636511,-0.39788,0.00862095,-0.15845,0.219979
0.167355,0.210094,-0.363798,-0.392013,0.148654,-0.28247,0.0181793,-0.159521,0.178932
0.171004,0.204733,-0.366613,-0.0758482,0.137949,-0.0648233,0.036233,-0.160983,0.139914
0.172741,0.206822,-0.365657,0.262386,0.0480779,0.192489,0.0449449,-0.15584,0.10751
0.171381,0.215602,-0.361042,0.502012,-0.0918804,0.37838,0.0185097,-0.109413,0.0831578
0.167069,0.228615,-0.354676,0.664362,-0.186897,0.425579,-0.0320989,-0.0351514,0.0639661
0.161641,0.244646,-0.349319,0.835494,-0.208591,0.331144,-0.0759761,0.037928,0.0417128
0.158221,0.264865,-0.347014,1.1393,-0.0383388,0.214139,-0.104277,0.0955649,0.0611048
0.160158,0.291965,-0.347482,1.51261,0.2084,0.184912,-0.108017,0.13363,0.142674
0.166153,0.324567,-0.348569,1.64931,0.344088,0.250304,-0.0796064,0.127873,0.225203
0.172066,0.356586,-0.348303,1.43537,0.132716,0.285009,-0.0538954,0.0942555,0.258385
0.164486,0.380879,-0.349718,0.93099,-1.06389,-0.0825143,0.0264249,0.0365167,0.064459
0.132691,0.391653,-0.360522,0.257953,-2.41545,-0.741818,0.152847,-0.0497717,-0.10623
0.0886667,0.388279,-0.382107,-0.342375,-2.54129,-1.23262,0.182354,-0.0804192,-0.152491
0.0594913,0.376629,-0.411084,-0.531749,-1.22673,-1.43933,0.0992979,0.0593472,-0.162937
0.0656219,0.365972,-0.437556,-0.388235,0.784763,-0.947828,0.0748915,0.00653914,-0.0683557
0.0921013,0.354973,-0.449969,-0.746148,1.07173,-0.418357,0.231252,-0.188003,-0.266391
0.105362,0.32955,-0.456811,-1.73516,-0.00549634,-0.474065,0.225291,0.0514771,-0.463127
0.100291,0.287169,-0.461363,-2.25937,-0.47974,-0.394817,0.0801706,0.0705458,-0.476998
0.0938823,0.245156,-0.46458,-1.72028,-0.144994,-0.27032,0.0498209,0.0769974,-0.459206
0.0954909,0.221567,-0.462938,-0.609599,0.272241,0.271731,0.0409724,-0.0443103,-0.406789
0.0980567,0.221478,-0.449583,0.43921,0.206238,1.0098,0.00501657,-0.0913019,-0.299147
0.0934732,0.241007,-0.424745,1.2106,-0.12621,1.5162,-0.0273614,-0.0970431,-0.124023
0.0793708,0.272799,-0.394326,1.62429,-0.498125,1.61138,-0.0472417,-0.0880546,0.0122958
0.0589797,0.308845,-0.365538,1.71897,-0.67624,1.33072,-0.0832256,-0.0320548,0.141245
0.0383173,0.343699,-0.343969,1.62039,-0.655792,0.852206,-0.115764,0.0407384,0.238461
0.0231049,0.375271,-0.332261,1.48242,-0.443525,0.344878,-0.126552,0.114037,0.332168
0.0145098,0.403674,-0.329959,1.33903,-0.358669,-0.0533966,-0.088279,0.150384,0.362429
0.00927873,0.429111,-0.334407,1.20278,-0.336065,-0.296203,-0.0430595,0.189836,0.374568
0.00616996,0.452197,-0.342583,1.10688,-0.334711,-0.410947,-0.00283371,0.204185,0.371518
0.00342962,0.473456,-0.353087,1.00426,-0.417154,-0.518829,0.0279077,0.221559,0.345391
0.000862527,0.492171,-0.366517,0.84338,-0.431142,-0.669861,0.0331296,0.241919,0.327842
0.00232179,0.506627,-0.384164,0.579146,-0.239845,-0.870516,0.0244591,0.26703,0.331049
0.0111217,0.514795,-0.406258,0.241963,0.040173,-1.02924,0.0287568,0.248597,0.310052
0.0264711,0.51587,-0.430764,-0.0937396,0.272659,-1.06288,0.0622884,0.149741,0.244162
0.0448861,0.509716,-0.453858,-0.467795,0.40326,-0.959362,0.138079,-0.0770574,0.135538
0.0627325,0.494399,-0.475428,-0.961723,0.311626,-1.0514,0.141501,-0.137085,0.000989556
0.0785411,0.467982,-0.499814,-1.52027,0.135488,-1.28708,0.0539838,-0.0661559,-0.105602
0.0925722,0.429037,-0.528254,-2.09734,0.0957511,-1.57269,-0.0124067,0.0260262,-0.211516
0.109248,0.380293,-0.556841,-2.44533,0.429247,-1.44082,0.0597239,-0.138421,-0.265487
0.125089,0.326134,-0.578624,-2.61298,0.359031,-1.20589,0.165779,-0.160894,-0.438135
0.136528,0.273051,-0.59165,-2.4162,0.410848,-0.637048,0.127406,-0.096525,-0.417865
0.144547,0.227612,-0.589597,-2.07391,0.399484,0.222168,0.0428532,-0.0429944,-0.402483
0.146799,0.192661,-0.570391,-1.61927,0.197525,1.10156,-0.0317957,-0.0411491,-0.402716
0.143428,0.169925,-0.538181,-1.0727,0.0761206,1.60344,-0.0861603,-0.0914046,-0.363939
0.140387,0.158221,-0.503229,-0.57634,0.210364,1.56074,-0.137065,-0.116196,-0.285481
0.141926,0.154762,-0.474227,-0.18249,0.378865,1.17206,-0.183796,-0.137374,-0.192022
0.146777,0.156721,-0.455802,0.0961245,0.343258,0.643119,-0.190921,-0.146349,-0.0924105
0.146777,0.156721,-0.455802,0.0961245,0.343258,0.643119,-0.190921,-0.146349,-0.0924105
0.149922,0.161892,-0.448443,0.296593,0.0540205,0.165045,-0.162682,-0.168481,-0.00318092
0.148043,0.169528,-0.450107,0.472218,-0.248749,-0.192924,-0.112506,-0.189208,0.0943897
0.143191,0.179459,-0.458157,0.605195,-0.33864,-0.42604,-0.0677179,-0.182541,0.203408
0.139473,0.190621,-0.470309,0.646222,-0.236365,-0.591447,-0.0377182,-0.144607,0.283479
0.13923,0.201316,-0.485602,0.604325,-0.0789723,-0.728203,0.00283131,-0.0983806,0.32483
0.142579,0.21021,-0.502859,0.4928,0.0501466,-0.799209,0.035836,-0.0542739,0.336594
0.147803,0.21629,-0.520414,0.365118,0.0868303,-0.781082,0.0743356,-0.0087501,0.298311
0.152969,0.220935,-0.536041,0.32936,0.0936737,-0.627215,0.0907105,0.0225023,0.265875
0.15749,0.226039,-0.547288,0.345651,0.115838,-0.357422,0.0746281,0.0727062,0.221168
0.161799,0.232987,-0.552807,0.438104,0.187843,-0.0666322,0.0392884,0.12415,0.180503
0.166928,0.243957,-0.553337,0.668822,0.322815,0.192014,-0.00295441,0.172391,0.156944
0.174125,0.26139,-0.549587,0.971977,0.480279,0.458702,-0.0316039,0.181366,0.172646
0.182409,0.28453,-0.54138,1.10565,0.541694,0.718203,-0.0137208,0.119818,0.187187
0.188961,0.308057,-0.528529,0.909736,0.456693,0.89324,0.0537465,-0.00984156,0.156711
0.190653,0.324031,-0.513074,0.319476,0.14416,0.779384,0.110004,-0.102752,0.0377778
0.185213,0.324145,-0.500666,-0.561304,-0.288264,0.331539,0.04539,-0.0957927,-0.119284
0.17494,0.305057,-0.496222,-1.29991,-0.527803,-0.250741,-0.0782448,0.00658509,-0.267058
0.167105,0.276896,-0.500845,-1.24523,-0.319904,-0.59513,-0.11768,0.0268957,-0.334724
0.165485,0.256038,-0.509793,-0.652065,-0.170819,-0.572733,-0.0420665,-0.0894318,-0.367944
0.161218,0.244651,-0.519531,-0.415746,-0.520588,-0.55518,0.0021265,-0.0474702,-0.399736
0.15033,0.23128,-0.529566,-0.834779,-0.75977,-0.611069,0.00934404,0.0403656,-0.341864
0.137036,0.206634,-0.538527,-1.41853,-0.692654,-0.569288,0.0550802,0.0730252,-0.329887
0.128089,0.176121,-0.543932,-1.41001,-0.278833,-0.327257,0.115097,0.024043,-0.296896
0.126,0.153095,-0.544339,-0.790026,0.0265533,-0.0037808,0.13981,0.00969024,-0.276794
0.127361,0.145791,-0.540904,0.0191492,0.13889,0.213224,0.134585,0.0231284,-0.190589
0.129693,0.153568,-0.537433,0.661674,0.133062,0.191836,0.147262,0.0485646,-0.0504482
0.132172,0.171295,-0.537186,1.03327,0.111952,0.0608716,0.165887,0.0686822,0.115412
0.13481,0.193552,-0.539798,1.15807,0.109263,0.00209076,0.183598,0.0846186,0.263973
0.137775,0.216323,-0.542084,1.09209,0.148877,0.110424,0.183916,0.101771,0.374985
0.14144,0.23694,-0.540519,0.900959,0.266775,0.33407,0.157419,0.116123,0.4418
0.146775,0.25383,-0.53361,0.669857,0.43083,0.553957,0.107903,0.12033,0.459458
0.154403,0.267276,-0.522839,0.510722,0.594112,0.651845,0.0420848,0.122519,0.438844
0.164003,0.27855,-0.510935,0.434663,0.677487,0.631845,-0.0273831,0.105864,0.396476
0.175545,0.289078,-0.500695,0.443699,0.747823,0.494753,-0.107523,0.105762,0.370671
0.188801,0.299491,-0.494228,0.464724,0.743323,0.285878,-0.182043,0.11321,0.329377
0.202492,0.309381,-0.492863,0.471434,0.649313,0.0236287,-0.225056,0.117824,0.271134
0.216044,0.318298,-0.497614,0.492928,0.552664,-0.286384,-0.199602,0.0702898,0.192247
0.229176,0.325947,-0.508582,0.43262,0.378024,-0.545666,-0.102696,-0.0804442,0.0724046
0.237323,0.327941,-0.524423,0.0675952,-0.116856,-0.879297,0.0158007,-0.192646,-0.148416
0.238035,0.320005,-0.54555,-0.354608,-0.410266,-1.22676,0.0142752,-0.110752,-0.268648
0.237166,0.303216,-0.570327,-0.708375,-0.408981,-1.38259,0.00573425,0.0543588,-0.327095
0.235441,0.281354,-0.591003,-0.904379,-0.352662,-0.936031,0.119848,0.00386822,-0.400327
0.229771,0.262263,-0.59655,-0.753284,-0.406735,0.0223699,0.332646,-0.209529,-0.494758
0.215773,0.252421,-0.583334,-0.537588,-0.666724,0.976779,0.380466,-0.157554,-0.525045
0.19398,0.246819,-0.552366,-0.625225,-0.651201,1.79629,0.175655,-0.00729628,-0.452896
0.174301,0.241668,-0.508293,-0.632598,-0.217171,2.21797,0.0467688,0.0200693,-0.291544
0.163406,0.23708,-0.460346,-0.602034,0.249268,2.2286,-0.0365928,0.0101795,-0.185238
0.163406,0.23708,-0.460346,-0.602034,0.249268,2.2286,-0.0365928,0.0101795,-0.185238
0.160828,0.232223,-0.414745,-0.573992,0.512183,2.02205,-0.0724782,-0.0425326,-0.129367
0.16292,0.228323,-0.375193,-0.408679,0.565766,1.68732,-0.0696274,-0.0752604,-0.0630822
0.166794,0.227278,-0.343571,-0.208117,0.525974,1.31801,-0.0728088,-0.0912175,0.0187305
0.171498,0.228228,-0.31965,-0.115672,0.47847,0.99554,-0.078251,-0.0903527,0.112734
0.177088,0.229148,-0.3015,-0.0991299,0.497142,0.767657,-0.0891614,-0.0982455,0.205212
0.184317,0.230355,-0.287213,-0.0159603,0.539188,0.626189,-0.0899487,-0.121058,0.280032
0.192823,0.233737,-0.275815,0.15151,0.568422,0.521122,-0.105075,-0.117506,0.331182
0.202645,0.240776,-0.267618,0.382765,0.594877,0.384709,-0.119574,-0.0955428,0.372637
0.213822,0.252173,-0.263694,0.648626,0.603298,0.218588,-0.101756,-0.0878784,0.392456
0.225785,0.267744,-0.264026,0.84798,0.563452,0.106599,-0.0559679,-0.0764624,0.402235
0.236732,0.285445,-0.265818,0.877261,0.473663,0.161818,-0.0207373,-0.031602,0.392705
0.245254,0.302485,-0.264564,0.712454,0.404869,0.371709,0.0087146,0.00352076,0.35331
0.250352,0.316138,-0.257126,0.422535,0.344136,0.658103,0.0533664,0.0290987,0.240409
0.253173,0.326061,-0.241544,0.204865,0.475671,1.02949,0.067652,0.0511038,0.0972434
0.260046,0.336126,-0.216796,0.165477,1.08083,1.46616,0.0923466,-0.0195938,-0.0245753
0.27887,0.345401,-0.184554,-0.124428,1.81903,1.60697,0.121085,-0.0870089,-0.211851
0.307507,0.348565,-0.154582,-0.325279,1.92838,1.04961,0.0921972,-0.028095,-0.469214
0.336637,0.346265,-0.141942,-0.239083,1.30495,-0.00728146,0.0923211,0.116639,-0.657851
0.356071,0.340955,-0.147907,-0.0525355,0.454624,-0.574543,0.165201,0.135962,-0.70013
0.363832,0.338043,-0.15966,0.165893,0.0118177,-0.4699,0.184926,0.13552,-0.586245
0.365308,0.340962,-0.166604,0.32336,-0.0466554,-0.0240911,0.119672,0.138563,-0.441608
0.365086,0.349298,-0.167189,0.485635,-0.00504373,0.206068,0.0459546,0.120269,-0.292907
0.363741,0.36171,-0.167953,0.676876,-0.201864,0.139266,0.0028649,0.0657581,-0.163941
0.357723,0.375241,-0.171913,0.654914,-0.542016,0.000227297,-0.0245555,0.00849479,-0.0429081
0.345987,0.385459,-0.176239,0.415539,-0.747539,0.00852291,-0.0587185,-0.0205154,0.0754507
0.331028,0.391715,-0.176474,0.186187,-0.718886,0.194384,-0.0906956,-0.049439,0.181282
0.316017,0.395767,-0.171236,0.0618085,-0.572189,0.382898,-0.122316,-0.0512817,0.247874
0.302079,0.399431,-0.162506,0.0569456,-0.490705,0.468618,-0.142282,-0.0436774,0.283101
0.288723,0.403365,-0.153828,0.0820805,-0.50876,0.374638,-0.151831,-0.0198224,0.301094
0.276358,0.406476,-0.14899,0.0953943,-0.519353,0.127395,-0.143123,0.00824466,0.313187
0.266522,0.408932,-0.14958,0.16841,-0.476664,-0.0957188,-0.114251,0.0242925,0.318423
0.259215,0.412488,-0.15404,0.282373,-0.436274,-0.191009,-0.0852715,0.0440934,0.298896
0.253021,0.418197,-0.160373,0.411191,-0.447281,-0.217895,-0.0673957,0.0795752,0.254402
0.246343,0.42673,-0.168196,0.603848,-0.555778,-0.278787,-0.0672058,0.133836,0.188232
0.238678,0.439652,-0.17974,0.907691,-0.673292,-0.432783,-0.0512304,0.198299,0.130971
0.2321,0.45822,-0.196784,1.22685,-0.705135,-0.622761,-0.0260252,0.251694,0.109335
0.228717,0.481015,-0.218841,1.41518,-0.600444,-0.735795,0.0342141,0.264666,0.0962116
0.229859,0.506981,-0.241161,1.51566,-0.329012,-0.530647,0.137687,0.121542,0.098963
0.23225,0.5332,-0.257302,1.27615,-0.311904,-0.264907,0.21763,-0.0768827,0.0287367
0.228486,0.550554,-0.269928,0.574542,-0.775189,-0.465874,0.20725,-0.112522,-0.0985032
0.216608,0.549206,-0.287013,-0.357237,-1.22126,-0.980944,0.166328,-0.126885,-0.219635
0.204153,0.532383,-0.309614,-0.774193,-1.0965,-1.16654,0.150913,-0.184428,-0.240399
0.195744,0.511928,-0.330577,-0.894477,-0.803648,-1.00943,0.187966,-0.288141,-0.269466
0.189428,0.485516,-0.346969,-1.4983,-0.590364,-0.907443,0.167647,-0.213297,-0.285363
0.186664,0.444758,-0.358339,-2.23758,-0.142281,-0.830263,0.137557,-0.159849,-0.285391
0.192311,0.395784,-0.363829,-2.33161,0.460055,-0.509967,0.0976496,-0.115796,-0.256562
0.203619,0.35402,-0.358657,-1.76058,0.781231,0.220175,0.0117102,-0.0986717,-0.231995
0.212006,0.330044,-0.338704,-0.960583,0.659467,1.09883,-0.105787,-0.081219,-0.215076
0.212006,0.330044,-0.338704,-0.960583,0.659467,1.09883,-0.105787,-0.081219,-0.215076
0.213112,0.324538,-0.307545,-0.215799,0.451352,1.56743,-0.191108,-0.0642619,-0.147099
0.209919,0.333022,-0.275336,0.377683,0.263126,1.49051,-0.25194,-0.0707434,-0.0842323
0.205531,0.349829,-0.252416,0.785074,0.0553475,0.891637,-0.304931,-0.0527555,-0.0139043
0.203079,0.369623,-0.246348,0.999421,-0.0646298,0.060346,-0.304642,-0.0289032,0.116717
0.205232,0.388886,-0.257158,1.05028,-0.122303,-0.598984,-0.243372,-0.00829327,0.262434
0.211162,0.405458,-0.277998,0.930339,-0.0666408,-0.871603,-0.179434,0.0373386,0.394848
0.220209,0.417481,-0.300455,0.656,0.0685072,-0.841437,-0.115002,0.0657835,0.471842
0.230284,0.423598,-0.319137,0.313629,0.1625,-0.662765,-0.046673,0.0727403,0.474236
0.238895,0.423973,-0.331643,-0.00260839,0.167522,-0.421984,-0.00196429,0.0822375,0.427965
0.243583,0.420416,-0.337086,-0.19779,0.0512002,-0.143314,-0.0022527,0.107634,0.349089
0.241903,0.415859,-0.336253,-0.237289,-0.19381,0.100586,-0.023058,0.139342,0.232663
0.233577,0.413177,-0.330918,-0.116659,-0.391915,0.295765,-0.0582184,0.157273,0.129765
0.223211,0.415154,-0.323877,0.208849,-0.309995,0.357631,-0.085066,0.165355,0.0298349
0.217807,0.425303,-0.318095,0.625797,0.0255257,0.35942,-0.0697781,0.0952601,-0.0354277
0.219287,0.438744,-0.314435,0.512601,0.217549,0.21615,-0.0455782,0.0215587,-0.115661
0.22255,0.44425,-0.315197,0.00604562,0.032464,-0.201732,-0.0183847,-0.0222452,-0.237164
0.223253,0.43713,-0.323648,-0.492778,-0.315497,-0.678214,-0.0467605,-0.0352004,-0.356107
0.221517,0.421827,-0.338496,-0.631904,-0.445681,-0.938569,-0.0900077,-0.105739,-0.447521
0.219945,0.405008,-0.358972,-0.613251,-0.526592,-1.29361,-0.130549,-0.0973527,-0.530502
0.220846,0.385632,-0.387812,-0.684269,-0.457887,-1.67441,-0.144985,-0.0128783,-0.511012
0.224783,0.36543,-0.421227,-0.543449,-0.373097,-1.73858,-0.0819716,-0.0264688,-0.442981
0.228905,0.351019,-0.453813,-0.144119,-0.382415,-1.4988,-0.0293283,-0.0296193,-0.320197
0.229309,0.347309,-0.481474,0.377029,-0.534084,-1.10929,0.00158367,-0.0415286,-0.170427
0.224656,0.354927,-0.50437,0.813872,-0.705208,-0.833736,0.0400764,-0.0505039,-0.00721663
0.216202,0.369854,-0.524845,1.01421,-0.851968,-0.728435,0.0746728,-0.0547651,0.1369
0.205678,0.386525,-0.545095,0.959415,-0.923381,-0.779118,0.0956267,-0.0275995,0.243266
0.195344,0.399941,-0.566984,0.732591,-0.94023,-0.934795,0.105348,0.0230463,0.301713
0.185949,0.407884,-0.591453,0.481728,-0.956345,-1.10416,0.114331,0.0950018,0.303642
0.177686,0.412201,-0.617954,0.410906,-0.891371,-1.18123,0.124047,0.159782,0.26766
0.172472,0.417471,-0.645391,0.571139,-0.702324,-1.17643,0.0999872,0.248772,0.236371
0.17239,0.427689,-0.672692,0.859584,-0.422806,-1.07846,0.068767,0.319051,0.215577
0.177476,0.444634,-0.698925,1.21615,-0.164028,-0.956606,0.0484757,0.351865,0.186531
0.18698,0.468141,-0.724121,1.4517,-0.0107617,-0.831113,0.0293598,0.359233,0.196449
0.19934,0.493859,-0.747453,1.40529,0.197653,-0.695252,0.0257583,0.287458,0.229651
0.215058,0.515267,-0.767332,0.96587,0.368547,-0.5776,0.0601687,0.104675,0.208606
0.228739,0.52391,-0.784739,0.170799,0.0394658,-0.773651,0.0894156,-0.0514423,0.0631802
0.234477,0.51363,-0.806497,-0.721705,-0.501573,-1.30783,0.0239625,-0.0428682,-0.081547
0.236391,0.485908,-0.83542,-1.28223,-0.606561,-1.73558,-0.0174969,-0.0442187,-0.124563
0.239766,0.451064,-0.866375,-1.39843,-0.47139,-1.66617,0.0716458,-0.170262,-0.154128
0.240694,0.416206,-0.889467,-1.52016,-0.437425,-1.1372,0.182426,-0.31406,-0.209897
0.233642,0.378354,-0.898724,-1.97256,-0.632758,-0.591201,0.205156,-0.310525,-0.307202
0.219029,0.334205,-0.895204,-2.3116,-0.670886,-0.0742986,0.135728,-0.26268,-0.350908
0.202263,0.291627,-0.882262,-1.94909,-0.585222,0.373516,0.0394982,-0.211375,-0.383342
0.18702,0.265284,-0.865121,-0.873019,-0.503405,0.701166,-0.0309286,-0.199303,-0.316915
0.170843,0.262119,-0.848115,0.223979,-0.713614,0.810942,-0.0521452,-0.196591,-0.202072
0.149105,0.276457,-0.834126,0.89292,-1.06738,0.714227,-0.0283643,-0.197144,-0.029557
0.123266,0.298579,-0.824333,1.08526,-1.17892,0.496696,0.000253431,-0.186306,0.178743
0.0994109,0.319601,-0.819116,0.890609,-0.997504,0.222898,0.0327317,-0.155234,0.344515
0.0994109,0.319601,-0.819116,0.890609,-0.997504,0.222898,0.0327317,-0.155234,0.344515
0.0828041,0.334006,-0.818775,0.526065,-0.62814,-0.0543,0.0792404,-0.128133,0.451021
0.0755817,0.341022,-0.822972,0.223962,-0.23683,-0.268767,0.136694,-0.110694,0.489726
0.0762999,0.343285,-0.830373,0.0775102,0.0377769,-0.394229,0.18936,-0.0811731,0.467921
0.0811987,0.344134,-0.839504,0.101698,0.113835,-0.427691,0.243104,-0.0463001,0.404437
0.0857047,0.347173,-0.847927,0.279042,0.0398433,-0.312891,0.27342,-0.00309744,0.327054
0.0873901,0.354747,-0.852888,0.507448,-0.0308085,-0.0690427,0.281269,0.0320758,0.261472
0.0865008,0.366571,-0.852222,0.640655,-0.00246807,0.243848,0.269612,0.0621361,0.177661
0.0857729,0.38043,-0.844597,0.636399,0.198421,0.556156,0.262452,0.00205714,0.0895661
0.0856039,0.391321,-0.83232,0.276435,0.241498,0.618718,0.213841,0.0311906,-0.08139
0.0867029,0.391631,-0.820383,-0.330304,0.329495,0.442804,0.097559,0.0997291,-0.234412
0.0919851,0.382306,-0.812482,-0.550123,0.516324,0.227382,0.00379568,0.156356,-0.33286
0.102694,0.375458,-0.806334,-0.102348,0.770054,0.336979,-0.0525104,0.143799,-0.324012
0.114747,0.380577,-0.795349,0.437243,0.743013,0.743912,-0.0613968,0.0438957,-0.259769
0.117851,0.392331,-0.777322,0.445031,0.192301,0.987534,-0.0432766,-0.0419732,-0.262778
0.10771,0.399545,-0.757394,0.0259,-0.396081,0.86069,-0.0767874,-0.0643849,-0.236414
0.0913849,0.396705,-0.741553,-0.421885,-0.52929,0.56135,-0.163684,-0.0301381,-0.161343
0.0791855,0.386854,-0.730781,-0.577017,-0.238404,0.370084,-0.219055,-0.0293086,-0.0809672
0.0752623,0.376946,-0.722206,-0.435938,0.154386,0.372807,-0.21748,-0.0711721,-0.0112546
0.0768272,0.370893,-0.712405,-0.238721,0.301826,0.491207,-0.19313,-0.122355,0.0355477
0.0782189,0.368389,-0.700911,-0.100912,0.238443,0.522604,-0.190511,-0.140116,0.0775325
0.0795526,0.368273,-0.691396,0.0270941,0.257044,0.318664,-0.202528,-0.112468,0.14495
0.0850117,0.370511,-0.688436,0.174435,0.394432,-0.0296619,-0.19606,-0.0711355,0.232487
0.0953157,0.375055,-0.692501,0.301464,0.471981,-0.271799,-0.166864,-0.0531558,0.295649
0.107375,0.381622,-0.700192,0.424415,0.427118,-0.353409,-0.141634,-0.0370584,0.332339
0.11806,0.390978,-0.709496,0.6101,0.281373,-0.408252,-0.121288,-0.0244246,0.340647
0.126642,0.403662,-0.722321,0.765058,0.0716984,-0.644203,-0.0919221,-0.00072062,0.313311
0.134386,0.41702,-0.74271,0.771039,-0.0753487,-1.03874,-0.0576341,0.0458308,0.263982
0.144893,0.427775,-0.770945,0.615918,-0.0102127,-1.3018,0.0159632,-0.0118952,0.217038
0.157151,0.433093,-0.801235,0.292914,-0.106499,-1.29733,0.14217,-0.202726,0.0706202
0.161215,0.427996,-0.829761,-0.494924,-0.730136,-1.4097,0.110354,-0.122137,-0.218545
0.155727,0.403086,-0.862223,-1.38556,-0.959009,-1.89612,-0.0761699,0.189088,-0.490385
0.156428,0.368635,-0.900997,-1.26432,-0.339506,-2.07613,-0.171509,0.267341,-0.578524
0.170831,0.345744,-0.937108,-0.440351,0.448787,-1.49285,-0.150512,0.133208,-0.54983
0.187015,0.335692,-0.96024,-0.341903,0.240168,-0.913811,-0.117855,0.036256,-0.603256
0.189862,0.317983,-0.973863,-1.26242,-0.372622,-0.699747,-0.205522,0.0629717,-0.605622
0.182524,0.280049,-0.980989,-2.20476,-0.450157,-0.705855,-0.358675,0.0491533,-0.5837
0.179187,0.233571,-0.988792,-2.00178,-0.0469429,-0.856306,-0.436437,0.0729142,-0.504705
0.185374,0.201681,-1.00079,-0.848136,0.337345,-0.82432,-0.391592,-0.0313118,-0.353811
0.193493,0.193248,-1.01485,0.205673,0.116502,-0.682237,-0.311023,-0.0886073,-0.213412
0.193308,0.200713,-1.02973,0.713449,-0.45388,-0.618607,-0.254976,-0.10364,-0.015195
0.180995,0.213078,-1.04605,0.723275,-1.08638,-0.745081,-0.205188,-0.115374,0.136102
0.158894,0.221722,-1.06597,0.416231,-1.47928,-1.03566,-0.164805,-0.109695,0.245809
0.134323,0.222566,-1.09143,0.0274644,-1.45897,-1.39362,-0.139863,-0.0721139,0.321972
0.114434,0.216774,-1.12259,-0.196858,-1.1711,-1.65483,-0.0902257,-0.0477985,0.346949
0.101148,0.208724,-1.157,-0.214701,-0.884881,-1.7308,-0.0318592,-0.0525083,0.32315
0.0923341,0.202109,-1.19181,-0.0974029,-0.733609,-1.69596,0.0122129,-0.0514002,0.26896
0.0844296,0.198873,-1.22578,0.055615,-0.738115,-1.64145,0.0670825,-0.0786044,0.197944
0.0750867,0.197558,-1.25989,0.0461945,-0.86278,-1.70795,0.110815,-0.0821211,0.0932797
0.0750867,0.197558,-1.25989,0.0461945,-0.86278,-1.70795,0.110815,-0.0821211,0.0932797
0.0647543,0.194774,-1.29624,-0.0897035,-0.825735,-1.85622,0.0922762,-0.0142037,0.0202645
0.0589479,0.188395,-1.33566,-0.308405,-0.439655,-2.00859,0.0475364,0.074947,-0.0323089
0.0639912,0.178084,-1.37608,-0.458667,0.210421,-1.97204,0.0650087,0.0237931,-0.0750651
0.0800786,0.166337,-1.41436,-0.410695,0.672257,-1.84613,0.119826,0.0017222,-0.138377
0.0990883,0.155945,-1.45026,-0.32378,0.54966,-1.77681,0.181022,-0.0141964,-0.240476
0.110808,0.144756,-1.48589,-0.445839,0.0659584,-1.83228,0.173992,0.0802101,-0.331194
0.113418,0.130311,-1.52194,-0.542972,-0.224696,-1.83951,0.121488,0.162871,-0.378664
0.114947,0.117608,-1.55643,-0.269134,0.0181616,-1.64936,0.0871177,0.161115,-0.348041
0.122998,0.113664,-1.58547,0.207735,0.434427,-1.20784,0.0738583,0.106919,-0.289487
0.135834,0.118215,-1.60477,0.419701,0.567223,-0.622483,0.0705147,0.0102736,-0.260984
0.146729,0.124212,-1.6134,0.240526,0.383673,-0.176175,0.053303,-0.0623868,-0.279201
0.152655,0.126063,-1.6146,-0.0173135,0.230048,0.0608076,-0.018471,-0.0754574,-0.283098
0.156987,0.125729,-1.61209,0.00437515,0.243092,0.164377,-0.107151,-0.0745532,-0.25453
0.161602,0.129818,-1.60861,0.383399,0.255332,0.240946,-0.171143,-0.0596184,-0.205416
0.166023,0.143693,-1.60505,0.919843,0.222343,0.325117,-0.204849,-0.050191,-0.100559
0.169121,0.167826,-1.60206,1.37273,0.128904,0.359437,-0.21159,-0.0286699,0.0306911
0.170765,0.199322,-1.60016,1.65224,0.0774477,0.350512,-0.20829,-0.00835507,0.181185
0.171449,0.234176,-1.59944,1.71272,-0.000927433,0.302681,-0.204528,0.00868346,0.301828
0.170659,0.267554,-1.60011,1.53825,-0.0801811,0.187309,-0.207902,0.0229949,0.363374
0.16961,0.295775,-1.60316,1.26857,-0.109301,-0.0148097,-0.207229,0.0215995,0.40037
0.168866,0.316707,-1.61065,0.868203,-0.206862,-0.357224,-0.205864,0.0223155,0.384137
0.168562,0.326306,-1.62541,0.294476,-0.27123,-0.889805,-0.221916,0.0417376,0.300461
0.171005,0.322793,-1.65083,-0.225132,-0.31178,-1.5321,-0.240486,0.100878,0.18687
0.175008,0.307704,-1.68769,-0.614457,-0.433467,-2.15254,-0.265654,0.214798,0.024381
0.180145,0.286185,-1.73486,-0.622243,-0.350815,-2.58637,-0.249384,0.310233,-0.0700664
0.192059,0.26787,-1.78737,-0.193075,0.132617,-2.61915,-0.2228,0.32051,-0.0206488
0.212014,0.259814,-1.83784,0.369247,0.493323,-2.23295,-0.190214,0.297107,0.0417222
0.232866,0.261975,-1.8799,0.667871,0.436392,-1.67589,-0.136468,0.190858,0.111823
0.246277,0.266957,-1.91344,0.475896,-0.0568708,-1.41898,-0.0560059,0.0454137,0.12659
0.245648,0.261479,-1.94492,-0.339786,-0.795603,-1.7113,-0.0410098,0.0258892,0.0719122
0.233954,0.23563,-1.97954,-1.33504,-1.17092,-2.10751,-0.0984975,0.0434684,0.0630955
0.216144,0.194343,-2.01608,-1.72371,-1.36673,-2.22963,-0.137841,0.0486521,-0.0597982
0.195008,0.156395,-2.05305,-1.09736,-1.35018,-2.03238,-0.0989105,-0.014698,-0.148786
0.172577,0.138172,-2.08687,-0.0927679,-1.37773,-1.55589,-0.0710093,-0.0586174,-0.22923
0.14771,0.138403,-2.11361,0.413546,-1.46903,-1.05502,-0.0782761,-0.0633777,-0.237419
0.119665,0.142925,-2.13209,0.184464,-1.56828,-0.731859,-0.147703,-0.0478076,-0.269625
0.0913584,0.140813,-2.14654,-0.202108,-1.3797,-0.760589,-0.225094,-0.0424675,-0.312031
0.07155,0.13474,-2.16519,-0.197731,-0.817389,-1.16286,-0.302256,0.00356528,-0.298403
0.0644969,0.131499,-2.19387,0.0950743,-0.270021,-1.67836,-0.33567,0.0735336,-0.285033
0.0681202,0.135102,-2.2322,0.508913,0.0748216,-2.02238,-0.287098,0.110781,-0.183148
0.0760966,0.145789,-2.27512,0.83882,0.092666,-2.07939,-0.206305,0.107965,-0.0682201
0.0834734,0.16158,-2.31802,1.03969,-0.0237001,-1.98875,-0.155609,0.0993086,0.064974
0.0882755,0.179527,-2.35962,1.04484,-0.207135,-1.93495,-0.124876,0.0854551,0.170527
0.0900401,0.194916,-2.40131,0.80902,-0.371622,-2.01347,-0.112401,0.0750928,0.239999
0.0903962,0.203456,-2.4457,0.40236,-0.448209,-2.24061,-0.108003,0.0659473,0.294604
0.0910055,0.202222,-2.49485,-0.0991919,-0.469806,-2.54226,-0.0887992,0.0569254,0.304747
0.0923839,0.190843,-2.54854,-0.533567,-0.425889,-2.75479,-0.0688339,0.0405931,0.296185
0.094972,0.171418,-2.60438,-0.846579,-0.336037,-2.85109,-0.0343727,0.0333268,0.22863
0.094972,0.171418,-2.60438,-0.846579,-0.336037,-2.85109,-0.0343727,0.0333268,0.22863
0.0967958,0.149205,-2.65952,-0.756708,-0.337349,-2.70765,0.0227915,0.00822553,0.114693
0.0974856,0.132947,-2.70978,-0.383223,-0.327339,-2.35506,0.0624174,-0.0291414,0.0919535
0.0955112,0.123051,-2.75279,-0.217836,-0.405296,-1.97866,0.0905509,-0.0661782,0.0150914
0.0919529,0.116083,-2.78978,-0.139833,-0.381355,-1.73698,0.140454,-0.139487,-0.0307017
0.0884157,0.110045,-2.82258,-0.193272,-0.309259,-1.54048,0.146151,-0.177607,-0.087568
0.0863512,0.101623,-2.85137,-0.417054,-0.243046,-1.40537,0.126786,-0.20356,-0.153687
0.084181,0.0886659,-2.87918,-0.590523,-0.205537,-1.45399,0.0933727,-0.123685,-0.266641
0.0836979,0.0757951,-2.90784,-0.376975,-0.0737838,-1.48149,0.102782,-0.142264,-0.340544
0.0852351,0.0712802,-2.93704,0.209389,0.00614481,-1.41594,0.126205,-0.0910726,-0.376995
0.0881882,0.0805116,-2.96414,0.923557,0.0942601,-1.1511,0.126231,-0.0335127,-0.30263
0.0928773,0.102857,-2.98591,1.41732,0.164654,-0.801934,0.136857,-0.0255746,-0.160222
0.0979961,0.131189,-3.00258,1.46891,0.140364,-0.603785,0.18361,-0.0710763,-0.0579051
0.102482,0.156166,-3.01716,1.09333,0.0915363,-0.604063,0.186281,-0.0892187,-0.0163297
0.106602,0.171217,-3.03254,0.556471,0.0933583,-0.750955,0.16017,-0.0695473,-0.0467505
0.112518,0.176187,-3.05017,0.146173,0.194631,-0.910008,0.131325,-0.0482334,-0.134011
0.121617,0.174679,-3.06996,-0.0197893,0.391305,-1.01006,0.0880942,0.0227763,-0.238159
0.136308,0.172951,-3.09015,0.151191,0.735399,-0.944456,0.0451722,0.0822916,-0.262413
0.157218,0.176929,-3.10774,0.499157,1.01801,-0.674581,0.00776926,0.122128,-0.208065
0.180681,0.188332,-3.11979,0.79862,1.05628,-0.283596,-0.0156941,0.110484,-0.0897029
0.201609,0.20562,-3.12524,0.971507,0.900163,0.0718606,-0.0464005,0.0826529,0.0428624
0.217656,0.226249,-3.12563,1.02266,0.683224,0.298666,-0.0822954,0.0534708,0.167648
0.228442,0.247429,-3.123,0.955017,0.448065,0.39684,-0.116811,0.0315947,0.255667
0.23347,0.266744,-3.11911,0.839342,0.146119,0.402372,-0.144422,0.0317655,0.285295
0.233037,0.284557,-3.11515,0.808555,-0.043898,0.377392,-0.159437,0.0365006,0.29778
0.230416,0.301851,-3.11121,0.760097,-0.107377,0.385633,-0.162713,0.0354318,0.307667
0.226296,0.317224,-3.10663,0.60148,-0.147545,0.378607,-0.15751,0.0174507,0.288934
0.22163,0.327882,-3.10152,0.296779,-0.161358,0.30267,-0.153193,-0.012724,0.264604
0.216478,0.330889,-3.09771,-0.0831556,-0.246751,0.090189,-0.146621,-0.0270602,0.191441
0.209596,0.325698,-3.09829,-0.387924,-0.47659,-0.276418,-0.158018,-0.00597298,0.0764736
0.199703,0.314771,-3.10666,-0.469037,-0.75918,-0.70906,-0.161501,0.0612165,-0.0552896
0.188068,0.304328,-3.12355,-0.182288,-0.856524,-1.03244,-0.151743,0.109223,-0.129211
0.180319,0.301859,3.13724,0.313037,-0.532736,-1.0567,-0.0982062,0.0612423,-0.0943254
0.178967,0.305465,3.11444,0.32366,-0.340241,-1.04924,-0.0463135,-0.0156085,-0.0918903
0.178765,0.303373,3.0902,-0.168309,-0.433901,-1.28513,-0.0138102,-0.0172076,-0.107917
0.177481,0.288935,3.06206,-0.757275,-0.480344,-1.59147,-0.0339936,0.040043,-0.130118
0.177504,0.265126,3.03044,-0.942223,-0.36575,-1.77265,-0.0632723,0.0914685,-0.197855
0.180419,0.243957,2.99723,-0.472927,-0.170615,-1.69751,-0.0635782,0.111433,-0.204739
0.186431,0.236629,2.96635,0.288596,0.0311513,-1.33821,-0.0530669,0.0828768,-0.152774
0.193544,0.243042,2.94106,0.703195,0.0364356,-0.963172,-0.0402311,0.06518,-0.0850181
0.197475,0.25317,2.92095,0.588879,-0.144654,-0.768736,-0.0222003,0.0238816,-0.0312068
0.197527,0.258632,2.90438,0.240278,-0.239233,-0.70631,-0.0351463,-0.032923,0.0284021
0.196557,0.257409,2.88933,-0.0690488,-0.238973,-0.756458,-0.065034,-0.044374,0.0577612
0.195496,0.250781,2.87326,-0.267942,-0.277083,-0.898251,-0.0842029,-0.0245443,0.0529121
0.193916,0.240951,2.85495,-0.324731,-0.30895,-1.01636,-0.0850391,-0.00195938,0.0552662
0.192553,0.231334,2.83526,-0.236834,-0.300097,-1.01648,-0.0653871,0.000241861,0.0852402
0.190502,0.224862,2.81643,-0.0348259,-0.322791,-0.876874,-0.0395502,-0.0050403,0.117621
0.187666,0.223786,2.80067,0.213553,-0.305422,-0.638121,-0.0128618,-0.0294355,0.177931
0.184261,0.227452,2.78901,0.319308,-0.300309,-0.419411,0.00634399,-0.0522908,0.246754
0.184261,0.227452,2.78901,0.319308,-0.300309,-0.419411,0.00634399,-0.0522908,0.246754
0.179643,0.231861,2.78076,0.223359,-0.347452,-0.297362,0.0204997,-0.0727317,0.298368
0.173698,0.2334,2.77498,0.0329442,-0.374014,-0.230561,0.0245484,-0.0804504,0.329111
0.167349,0.232677,2.77097,-0.00690195,-0.335791,-0.158782,0.0254043,-0.0731732,0.34279
0.16153,0.233208,2.76877,0.119857,-0.310092,-0.0313719,0.038258,-0.0629369,0.339781
0.155065,0.238406,2.7693,0.400476,-0.314749,0.178135,0.0532018,-0.0568908,0.339894
0.147451,0.250036,2.77387,0.667846,-0.329506,0.433516,0.0538033,-0.0342231,0.348893
0.138595,0.26695,2.78282,0.85834,-0.312174,0.645837,0.0589715,-0.0204197,0.366738
0.129362,0.286941,2.795,0.934514,-0.27577,0.755497,0.0609349,-0.0169376,0.369511
0.120868,0.307129,2.80864,0.876044,-0.150941,0.77052,0.0608648,-0.00816259,0.347664
0.115759,0.32498,2.8226,0.7257,0.0989598,0.747208,0.0536768,-0.00320455,0.288056
0.116482,0.339484,2.83663,0.548624,0.386441,0.721515,0.0727877,-0.0728833,0.204451
0.120256,0.349434,2.8489,0.269068,0.350988,0.492089,0.086762,-0.0782271,0.0338553
0.122467,0.350002,2.85446,-0.324906,0.0458796,0.00272924,0.0815188,-0.00713658,-0.153357
0.122547,0.335955,2.85016,-0.979126,-0.150219,-0.576253,0.0759387,0.0563857,-0.30714
0.125362,0.310992,2.83623,-1.2672,0.0404182,-0.9817,0.112714,0.0526311,-0.361776
0.132634,0.281998,2.81615,-1.33281,0.0316235,-1.30104,0.119087,0.068101,-0.386848
0.137658,0.250234,2.79101,-1.51616,-0.193448,-1.45231,0.0300448,0.277477,-0.306989
0.137986,0.212998,2.76778,-1.82352,-0.254229,-1.23153,-0.0501201,0.317302,-0.273084
0.137806,0.174143,2.75284,-1.71488,-0.0283796,-0.717733,-0.0474627,0.185105,-0.236116
0.140568,0.14444,2.74792,-1.07574,0.205474,-0.176544,-0.0195213,0.0601375,-0.196657
0.144396,0.131234,2.75105,-0.287252,0.167222,0.272531,-0.0101658,-0.0517141,-0.107127
0.143474,0.132195,2.75951,0.201749,-0.18816,0.527272,-0.0211596,-0.0874891,-0.00560445
0.133863,0.139556,2.77047,0.328653,-0.609854,0.63009,-0.0139108,-0.116649,0.0895118
0.117286,0.147317,2.78279,0.269659,-0.809159,0.662016,-0.0174833,-0.129628,0.160366
0.0997186,0.153405,2.7957,0.210001,-0.720995,0.666317,-0.023128,-0.109281,0.199259
0.0846236,0.159862,2.80902,0.344837,-0.559094,0.690923,-0.0269111,-0.0860419,0.169797
0.0735771,0.170693,2.82219,0.632247,-0.333533,0.681381,-0.0265593,-0.0456193,0.160764
0.06588,0.186895,2.83443,0.876721,-0.241907,0.604353,-0.0320932,-0.0155459,0.133149
0.059054,0.206532,2.84333,0.995323,-0.287967,0.357069,-0.0183825,0.0138285,0.118018
0.0514317,0.226959,2.84572,1.00629,-0.419952,-0.0281485,-0.000682712,0.0469606,0.0913682
0.0441325,0.246466,2.83982,0.958124,-0.395453,-0.436783,0.035813,0.0631158,0.0671641
0.0430706,0.264084,2.82657,0.820309,-0.00460356,-0.753226,0.0932773,0.0108114,0.0615132
0.0526413,0.276568,2.80721,0.480518,0.401594,-1.04551,0.150814,-0.0311894,-0.00771815
0.0689821,0.280585,2.78121,0.0598518,0.443765,-1.43244,0.171195,-0.00770482,-0.106302
0.0850989,0.274762,2.74781,-0.388493,0.249808,-1.7639,0.133768,0.12877,-0.186669
0.0981984,0.260138,2.71141,-0.699814,0.133468,-1.78888,0.117141,0.17735,-0.239534
0.109893,0.242717,2.67969,-0.64616,0.299967,-1.35689,0.12424,0.115143,-0.264613
0.123853,0.230003,2.66049,-0.411745,0.606241,-0.61437,0.162095,-0.0231482,-0.262446
0.137395,0.220854,2.65605,-0.523043,0.606914,0.0333633,0.174637,-0.125206,-0.301291
0.146797,0.206102,2.66413,-1.08322,0.505083,0.51582,0.075194,-0.117712,-0.326507
0.153895,0.182182,2.68211,-1.44485,0.565999,0.829997,-0.0428567,-0.120124,-0.351918
0.161535,0.158147,2.70493,-1.15922,0.567656,0.998964,-0.103192,-0.121426,-0.391393
0.16873,0.146447,2.72965,-0.343828,0.491842,1.22196,-0.151286,-0.121669,-0.325352
0.172152,0.153247,2.7566,0.524636,0.208845,1.50865,-0.176375,-0.112214,-0.202139
0.167484,0.175402,2.78637,1.08627,-0.197806,1.72356,-0.166311,-0.125804,-0.0510026
0.154502,0.205311,2.81773,1.29804,-0.466027,1.74262,-0.144187,-0.123704,0.108312
0.138228,0.23594,2.84817,1.24593,-0.447696,1.60867,-0.128081,-0.0968708,0.25956
0.124061,0.262761,2.87625,1.0248,-0.261553,1.42109,-0.120396,-0.0741757,0.357776
0.124061,0.262761,2.87625,1.0248,-0.261553,1.42109,-0.120396,-0.0741757,0.357776
0.113809,0.283496,2.90132,0.738865,-0.0877468,1.20534,-0.107947,-0.0506239,0.384811
0.107062,0.298302,2.9227,0.51374,0.0192228,0.984768,-0.100903,-0.0265219,0.373765
0.10315,0.309202,2.94016,0.402843,0.102886,0.780471,-0.102814,0.0129168,0.351322
0.101303,0.318645,2.95381,0.425183,0.134637,0.612384,-0.101395,0.0608387,0.308607
0.101365,0.329924,2.96435,0.602606,0.207543,0.495165,-0.0945898,0.0992393,0.296115
0.103791,0.344918,2.97238,0.80416,0.305305,0.416778,-0.0880118,0.157669,0.282123
0.10939,0.363782,2.97917,0.989579,0.502565,0.435985,-0.0699691,0.192969,0.287782
0.119462,0.385381,2.98755,0.996113,0.811314,0.583727,-0.0153902,0.110943,0.284584
0.133533,0.403047,2.99893,0.559592,0.975169,0.639062,0.0669694,-0.0241127,0.191466
0.147234,0.410448,3.01006,0.0513166,0.762762,0.405011,0.140354,-0.126828,0.0279322
0.156589,0.40791,3.0126,-0.330317,0.25146,-0.264778,0.118733,-0.0280515,-0.121615
0.161945,0.39528,3.00086,-0.753581,-0.134771,-0.95656,0.095305,0.0561937,-0.203643
0.165067,0.371354,2.97898,-1.26587,-0.358782,-1.38925,0.135823,0.0042963,-0.278385
0.166472,0.337496,2.95261,-1.60309,-0.338752,-1.51567,0.12764,0.0980623,-0.316696
0.170163,0.301044,2.92955,-1.55198,0.0121115,-1.18065,0.113129,0.105478,-0.297322
0.177838,0.270347,2.91639,-1.21093,0.350116,-0.552865,0.110208,0.104834,-0.271369
0.186615,0.250032,2.91606,-0.777115,0.460553,0.144624,0.107985,0.0525342,-0.234777
0.190862,0.240066,2.92742,-0.411244,0.204853,0.721612,0.0879363,-0.0128737,-0.202978
0.18729,0.238683,2.94731,-0.0891774,-0.0887073,1.11071,0.0319718,-0.0607718,-0.0942462
0.177338,0.24417,2.97181,0.187772,-0.303124,1.28515,-0.0382425,-0.0724274,0.0214503
0.163612,0.254254,2.99726,0.365084,-0.42699,1.27649,-0.0890733,-0.0708028,0.128525
0.148208,0.266358,3.02088,0.46395,-0.487634,1.14103,-0.104159,-0.0664311,0.202542
0.133228,0.279238,3.04123,0.525469,-0.454851,0.963702,-0.107136,-0.0484126,0.260822
0.119922,0.292334,3.05762,0.565107,-0.40093,0.741513,-0.10342,-0.0308431,0.286314
0.109617,0.305088,3.06886,0.557587,-0.282835,0.455447,-0.0976167,-0.0250774,0.311896
0.103819,0.31596,3.07346,0.475521,-0.158274,0.0802559,-0.0869666,0.00102156,0.301612
0.102709,0.325373,3.06998,0.505517,-0.0728875,-0.297788,-0.060391,0.0229701,0.276385
0.104543,0.335207,3.05933,0.570362,-0.104278,-0.578886,-0.033069,0.0738373,0.235314
0.106552,0.345545,3.04435,0.586503,-0.197405,-0.67808,0.0160859,0.0485026,0.177025
0.106637,0.35438,3.02809,0.403565,-0.375277,-0.766322,0.0596479,-0.0651155,0.0742733
0.101884,0.356497,3.00845,-0.0363941,-0.822411,-1.0654,0.0566192,-0.0470787,-0.104813
0.09091,0.347543,2.98085,-0.600288,-1.13548,-1.60259,-0.0161736,0.0853551,-0.268367
0.082686,0.328017,2.94367,-0.987962,-0.806574,-1.97207,-0.0309318,0.142205,-0.318194
0.0860368,0.304186,2.90513,-1.02001,0.00253098,-1.74323,0.00221227,0.110995,-0.314956
0.102097,0.281442,2.87855,-1.06748,0.724591,-0.956035,0.0654507,-0.0659169,-0.310292
0.120205,0.255102,2.86792,-1.42009,0.715963,-0.408186,0.0893942,-0.0661984,-0.416115
0.133026,0.225443,2.86738,-1.42271,0.554665,-0.0187265,0.0174809,-0.0398742,-0.403896
0.140544,0.20097,2.87365,-1.03037,0.2945,0.283148,-0.0228366,-0.056621,-0.38251
0.140606,0.187356,2.88455,-0.455861,-0.0920862,0.579392,-0.0528218,-0.110308,-0.317723
0.132085,0.184899,2.89919,-0.0231732,-0.47173,0.772246,-0.0869146,-0.151479,-0.210406
0.117748,0.18902,2.91509,0.223773,-0.602208,0.797192,-0.130567,-0.149185,-0.0809171
0.104665,0.197509,2.92965,0.442311,-0.379727,0.694153,-0.154811,-0.146073,0.0706972
0.0982516,0.208797,2.94088,0.5431,-0.0328257,0.496107,-0.152421,-0.132561,0.194358
0.0989117,0.220609,2.9478,0.547644,0.224162,0.302052,-0.117704,-0.129382,0.27846
0.103882,0.231601,2.95206,0.482536,0.331754,0.235239,-0.0788775,-0.150454,0.339498
0.108584,0.240209,2.95559,0.318674,0.187914,0.1897,-0.0579261,-0.135584,0.337165
0.108848,0.245214,2.95812,0.165888,-0.10355,0.101266,-0.0566314,-0.085834,0.299778
0.104088,0.248727,2.95851,0.216941,-0.353768,-0.0275101,-0.0649361,-0.012573,0.245261
0.104088,0.248727,2.95851,0.216941,-0.353768,-0.0275101,-0.0649361,-0.012573,0.245261
0.096241,0.255532,2.95613,0.508763,-0.4529,-0.117208,-0.0445714,0.043028,0.204171
0.087772,0.269193,2.95241,0.87803,-0.494379,-0.10394,-0.045623,0.111122,0.176813
0.0788156,0.290474,2.94922,1.24834,-0.454049,-0.00349265,-0.0305443,0.180191,0.164973
0.0711973,0.317856,2.94912,1.41839,-0.309341,0.206898,-0.0161821,0.179474,0.186439
0.0645141,0.344962,2.9531,1.17575,-0.253106,0.311662,0.00478882,0.1273,0.158521
0.0566425,0.362899,2.95744,0.532771,-0.419715,0.152683,0.0249252,0.0666561,0.0320356
0.0457866,0.364923,2.95548,-0.348635,-0.730979,-0.36842,0.0282424,0.0812728,-0.14805
0.0343927,0.349582,2.94178,-1.03956,-0.799361,-0.929876,0.0111051,0.158759,-0.335957
0.0293626,0.32726,2.92061,-0.995795,-0.31928,-1.02218,0.0241865,0.180336,-0.404922
0.0353939,0.311842,2.90389,-0.478375,0.380492,-0.537024,0.0620538,0.109272,-0.388273
0.0482823,0.304614,2.89964,-0.33462,0.672906,0.0793275,0.106714,0.0256484,-0.347533
0.0580277,0.29436,2.90592,-0.764287,0.434137,0.412613,0.107524,-0.054981,-0.326163
0.06116,0.275593,2.91672,-1.09316,0.227443,0.466354,0.0270001,-0.106056,-0.265197
0.0626316,0.255032,2.92647,-0.947993,0.193656,0.327647,-0.0464518,-0.11308,-0.19745
0.0658643,0.240348,2.93264,-0.53273,0.28721,0.177354,-0.0695705,-0.139202,-0.110731
0.0717256,0.233833,2.93592,-0.165069,0.356664,0.10858,-0.0393793,-0.165798,0.0108725
0.0781255,0.232601,2.93838,-0.00549577,0.317278,0.129779,-0.00793591,-0.164296,0.134058
0.0825874,0.233555,2.9413,0.0756592,0.182045,0.153043,0.00846078,-0.146187,0.227987
0.0831262,0.236175,2.94405,0.16122,-0.0766612,0.119989,0.0143977,-0.117821,0.27885
0.0789209,0.240662,2.94523,0.286767,-0.302267,0.0220053,0.0111101,-0.0815248,0.313479
0.0713443,0.247871,2.94374,0.436427,-0.474959,-0.118736,0.0140705,-0.0343226,0.323416
0.0623424,0.257729,2.93914,0.566399,-0.50439,-0.25468,0.0221685,0.0167875,0.320821
0.0555366,0.269838,2.93189,0.668508,-0.337682,-0.362057,0.0286081,0.0613144,0.32686
0.0533872,0.283587,2.92318,0.740078,-0.118372,-0.389123,0.0341272,0.0935374,0.323924
0.0552727,0.298601,2.91424,0.791699,0.0360002,-0.381089,0.0402023,0.115656,0.305577
0.0596963,0.314008,2.90499,0.775112,0.12587,-0.417543,0.0336189,0.137578,0.282478
0.0670577,0.328065,2.8941,0.676196,0.280583,-0.522143,0.0263794,0.145134,0.253836
0.0777618,0.33889,2.88104,0.456085,0.319851,-0.623838,0.0558547,0.0718506,0.170728
0.0876496,0.343105,2.86593,0.0617451,0.112886,-0.76599,0.0820698,-0.00835961,0.0223892
0.0923757,0.337846,2.84646,-0.420502,-0.289048,-1.14527,0.016028,0.0684703,-0.16779
0.0942757,0.322919,2.81875,-0.77412,-0.318441,-1.5491,-0.0423956,0.166136,-0.269063
0.10156,0.302865,2.78719,-0.905006,0.107212,-1.53145,-0.0153656,0.121346,-0.271197
0.115925,0.280473,2.7621,-1.08446,0.581164,-1.01713,0.0335689,0.0329137,-0.277184
0.132666,0.253711,2.75172,-1.45045,0.729563,-0.315931,0.0818875,-0.0989009,-0.34011
0.143874,0.221566,2.75464,-1.71524,0.426269,0.0871748,0.0556985,-0.105926,-0.457148
0.147919,0.188673,2.76315,-1.57348,0.179458,0.241385,-0.0793356,-0.0297902,-0.490249
0.149019,0.162851,2.77312,-1.07743,0.12695,0.341015,-0.148884,-0.0519634,-0.449842
0.150164,0.148716,2.78361,-0.464092,0.159531,0.473617,-0.174057,-0.121409,-0.348888
0.152066,0.146606,2.79487,0.0592037,0.181687,0.576444,-0.180145,-0.174201,-0.188067
0.15338,0.152788,2.80571,0.35233,0.0971198,0.546779,-0.175597,-0.200696,-0.0377634
0.152835,0.162616,2.81376,0.469712,-0.0335916,0.371024,-0.175074,-0.20454,0.0892265
0.149704,0.173204,2.81749,0.508189,-0.214692,0.148133,-0.172076,-0.202509,0.178046
0.144202,0.183882,2.81669,0.553152,-0.333533,-0.0665529,-0.158278,-0.193861,0.251227
0.138031,0.194831,2.81159,0.602639,-0.353212,-0.269474,-0.13737,-0.172519,0.297219
0.133449,0.206567,2.80245,0.679576,-0.278949,-0.449402,-0.10665,-0.140129,0.321037
0.131556,0.219498,2.78978,0.753013,-0.163452,-0.58956,-0.0587851,-0.104022,0.32086
0.13323,0.23297,2.77467,0.752739,-0.0214705,-0.679145,-0.0117548,-0.0760016,0.317787
0.137089,0.245173,2.75789,0.65875,-0.0169494,-0.759028,0.0252945,-0.0202766,0.271526
0.137089,0.245173,2.75789,0.65875,-0.0169494,-0.759028,0.0252945,-0.0202766,0.271526
0.139959,0.254821,2.74014,0.53306,-0.130521,-0.795282,0.0424621,0.0747799,0.195642
0.141671,0.263099,2.72303,0.552153,-0.0973317,-0.683771,0.052733,0.159549,0.155118
0.145641,0.27462,2.70972,0.78071,0.143005,-0.401289,0.0806025,0.160662,0.157569
0.1525,0.290811,2.70169,0.857973,0.294814,-0.133937,0.13224,0.137972,0.120691
0.159188,0.303558,2.69808,0.346401,0.228351,-0.0486243,0.185523,0.0837227,0.0358871
0.162254,0.300345,2.69562,-0.648885,0.00884721,-0.279058,0.201402,0.103406,-0.136902
0.162673,0.27761,2.68993,-1.40088,-0.115998,-0.608557,0.133932,0.217616,-0.305058
0.162722,0.246431,2.68108,-1.39396,-0.0848962,-0.678791,0.084024,0.276781,-0.441154
0.164233,0.222707,2.67331,-0.766069,0.0729788,-0.402009,0.0559812,0.251236,-0.476358
0.167453,0.212707,2.67124,-0.25643,0.184181,0.0537098,0.0179015,0.212617,-0.408753
0.170006,0.209389,2.67738,-0.229884,0.192716,0.459522,-0.000987872,0.0959085,-0.281121
0.170899,0.205361,2.69023,-0.380327,0.162,0.664205,-0.0314547,-0.0285323,-0.161708
0.170697,0.19878,2.70524,-0.506732,0.106631,0.627787,-0.072149,-0.110602,-0.0536838
0.169214,0.190107,2.71836,-0.544326,-0.00498525,0.480419,-0.112639,-0.160599,0.0160697
0.1665,0.181592,2.72789,-0.426594,-0.0894037,0.296836,-0.126417,-0.197532,0.084244
0.162636,0.175555,2.73329,-0.251799,-0.211769,0.127328,-0.10926,-0.222684,0.132602
0.156198,0.172486,2.73492,-0.0738761,-0.404123,-0.0200385,-0.0698357,-0.220107,0.169426
0.146677,0.172477,2.73319,0.0979299,-0.557163,-0.15206,-0.0346384,-0.190361,0.210577
0.135193,0.175594,2.72841,0.275071,-0.657132,-0.267482,0.0160799,-0.161153,0.230766
0.123197,0.182108,2.72078,0.474954,-0.651734,-0.38604,0.0628469,-0.108951,0.240354
0.113231,0.192843,2.71061,0.704356,-0.504218,-0.464572,0.104239,-0.0514526,0.250477
0.10754,0.207785,2.69907,0.877189,-0.288391,-0.48169,0.143893,0.00597556,0.264662
0.106069,0.224709,2.68749,0.898204,-0.118493,-0.447384,0.183916,0.0462024,0.265218
0.106854,0.241636,2.6771,0.893909,-0.0559217,-0.371576,0.20292,0.0980558,0.247347
0.108281,0.25993,2.66891,1.024,0.0230565,-0.1904,0.216041,0.121728,0.228265
0.111399,0.281768,2.66532,1.12997,0.173186,0.0688707,0.235836,0.0419098,0.215384
0.114971,0.302781,2.66504,0.897104,0.145175,0.0811867,0.249143,-0.0459557,0.113096
0.117536,0.315662,2.66156,0.36985,-0.0175312,-0.313272,0.184167,0.00940508,0.00583065
0.119297,0.314196,2.64912,-0.386303,-0.173906,-0.855283,0.114656,0.117569,-0.100926
0.122445,0.298845,2.63056,-0.836127,0.00259242,-0.970018,0.0860788,0.134047,-0.164637
0.130097,0.278849,2.61722,-0.978371,0.378796,-0.465267,0.123877,-0.0256845,-0.210722
0.14056,0.254966,2.61721,-1.46697,0.609033,0.0870977,0.13407,-0.137008,-0.314394
0.15193,0.219106,2.62731,-2.17876,0.768782,0.324815,0.00772822,-0.0355418,-0.445689
0.16641,0.174419,2.64269,-2.31155,0.962208,0.449122,-0.133894,0.0341161,-0.550277
0.18418,0.136712,2.66099,-1.5893,1.071,0.713053,-0.196797,0.005946,-0.568689
0.202627,0.119247,2.68367,-0.567116,1.00815,1.14543,-0.23262,-0.109948,-0.469462
0.216939,0.120758,2.70984,0.0993689,0.695797,1.37167,-0.266408,-0.156574,-0.306506
0.22418,0.131884,2.73538,0.375883,0.369829,1.27553,-0.290078,-0.212172,-0.130383
0.22742,0.144777,2.75495,0.40684,0.255145,0.849014,-0.302437,-0.222183,0.0487145
0.231892,0.154349,2.76481,0.280517,0.370131,0.315542,-0.28887,-0.213588,0.201379
0.241162,0.15856,2.7658,0.100102,0.558495,-0.0915643,-0.243328,-0.205156,0.315478
0.2546,0.157838,2.76159,-0.0611892,0.691344,-0.290993,-0.18429,-0.187497,0.384384
0.26933,0.154303,2.75601,-0.112411,0.657433,-0.310684,-0.125184,-0.177302,0.395444
0.281391,0.151258,2.75089,-0.0319979,0.436194,-0.240754,-0.0710454,-0.156798,0.385401
0.287352,0.150772,2.74721,0.0917668,0.100552,-0.111656,-0.0241255,-0.132269,0.353315
0.286625,0.153663,2.74569,0.218069,-0.175842,0.0575035,0.0132626,-0.108003,0.326853
0.280843,0.159319,2.74737,0.267476,-0.3559,0.259523,0.0397901,-0.0632774,0.276321
0.272155,0.166693,2.75277,0.288184,-0.384536,0.43718,0.0527587,-0.0138413,0.200636
0.272155,0.166693,2.75277,0.288184,-0.384536,0.43718,0.0527587,-0.0138413,0.200636
0.264419,0.174385,2.76096,0.219628,-0.24318,0.534286,0.0587922,0.0382177,0.0907112
0.259303,0.180478,2.77136,0.106126,-0.0452811,0.598942,0.121018,-0.00845772,-0.0826689
0.260961,0.184521,2.78312,-0.0333277,0.482794,0.601881,0.165209,-0.0401418,-0.199368
0.275174,0.184022,2.79474,-0.329503,1.08849,0.433166,0.149515,-0.0151048,-0.308601
0.297766,0.177141,2.80173,-0.454429,1.20785,0.00625876,0.139657,0.0696025,-0.453375
0.320159,0.169565,2.79983,-0.152059,0.937833,-0.376195,0.149635,0.107184,-0.523152
0.336438,0.168031,2.79094,0.272268,0.547239,-0.445912,0.16961,0.079183,-0.514747
0.346811,0.17249,2.78105,0.403003,0.357382,-0.307942,0.134474,0.0484061,-0.420632
0.355156,0.176147,2.77389,0.120398,0.385538,-0.257519,0.0591638,0.0282651,-0.33366
0.365351,0.171751,2.76917,-0.387429,0.562558,-0.345966,-0.0446477,0.0290771,-0.289506
0.379103,0.157719,2.7664,-0.766332,0.746151,-0.386961,-0.141159,0.0503462,-0.287886
0.395383,0.141806,2.76677,-0.647944,0.849215,-0.135278,-0.210474,0.0216719,-0.265324
0.410774,0.134955,2.77147,-0.114114,0.703655,0.304,-0.249707,-0.0285705,-0.215426
0.42082,0.143726,2.77895,0.616176,0.387808,0.693738,-0.293396,-0.0545218,-0.106896
0.42398,0.167916,2.78582,1.26708,0.0297603,0.875404,-0.329036,-0.0550548,0.0504643
0.420565,0.202898,2.79005,1.68855,-0.264431,0.900897,-0.342955,-0.0476979,0.216765
0.41322,0.24293,2.79126,1.85444,-0.409962,0.794201,-0.346176,-0.0302808,0.369669
0.405112,0.28241,2.78943,1.78101,-0.425923,0.597817,-0.338394,-0.0180514,0.483908
0.398519,0.317096,2.78488,1.54231,-0.352114,0.34185,-0.330194,-0.0128521,0.550661
0.395014,0.344484,2.77684,1.2567,-0.253281,-0.00209826,-0.31578,-0.0113639,0.574271
0.395677,0.363232,2.76306,0.961424,-0.158015,-0.489322,-0.300974,0.00773275,0.564373
0.401075,0.372456,2.74062,0.702335,-0.145501,-1.07523,-0.275903,0.0477874,0.531805
0.408076,0.373453,2.70885,0.567128,-0.351936,-1.562,-0.233428,0.103526,0.455449
0.411338,0.36951,2.67012,0.510221,-0.722127,-1.85251,-0.180649,0.14572,0.375061
0.407905,0.363379,2.62825,0.481023,-1.11922,-1.92033,-0.138026,0.17973,0.283977
0.397273,0.358035,2.58762,0.528243,-1.2906,-1.74053,-0.074452,0.100984,0.160154
0.385072,0.354571,2.54954,0.441587,-1.23342,-1.7482,0.00714481,-0.00295535,0.0236477
0.375313,0.343773,2.51012,-0.143503,-1.06004,-2.08014,0.0101545,0.049246,-0.128851
0.368662,0.317818,2.47032,-0.881288,-0.94966,-2.32885,-0.0106403,0.0421849,-0.297484
0.359859,0.278704,2.4316,-1.41149,-1.06151,-2.46119,-0.0413893,0.152094,-0.506648
0.347397,0.231406,2.39611,-1.80165,-1.04606,-2.38345,-0.0687117,0.0819769,-0.650932
0.334761,0.177408,2.36204,-2.1597,-0.873389,-2.58247,-0.114967,0.146999,-0.721931
0.327221,0.11617,2.32588,-2.40177,-0.323667,-2.70873,-0.201509,0.209049,-0.72938
0.33105,0.0541696,2.29146,-2.2837,0.372147,-2.43847,-0.211217,0.184926,-0.624136
0.343521,-0.000211724,2.26542,-1.95146,0.724429,-1.74296,-0.170468,0.0279865,-0.514327
0.356615,-0.0425783,2.25152,-1.51223,0.534917,-1.0485,-0.161578,-0.111322,-0.425887
0.362551,-0.0715132,2.24374,-0.882913,0.0781182,-0.763833,-0.205058,-0.173595,-0.316296
0.357745,-0.0872641,2.23252,-0.206495,-0.469967,-0.883603,-0.22966,-0.209086,-0.207241
0.341976,-0.0932518,2.21241,0.28328,-0.885006,-1.20457,-0.209259,-0.219383,-0.0816679
0.319417,-0.0945499,2.18408,0.450094,-1.04737,-1.46739,-0.141621,-0.213901,0.0430173
0.296111,-0.0955172,2.15233,0.390105,-0.933637,-1.53308,-0.0483766,-0.207295,0.126649
0.276683,-0.09755,2.12128,0.287874,-0.70226,-1.45827,0.0409071,-0.184859,0.148037
0.261604,-0.0996813,2.09297,0.279623,-0.528588,-1.29846,0.112679,-0.170622,0.0942531
0.249907,-0.0986173,2.06719,0.507335,-0.369872,-1.14744,0.166653,-0.137474,0.0162448
0.241858,-0.0900914,2.04277,0.916471,-0.189643,-0.988972,0.20757,-0.103031,-0.0519789
0.238223,-0.0723821,2.01958,1.3248,0.0233357,-0.835518,0.237618,-0.0785903,-0.107766
0.240246,-0.0476889,1.99727,1.52646,0.316429,-0.748016,0.256058,-0.0529962,-0.124185
0.248712,-0.0229078,1.97588,1.32323,0.625715,-0.721645,0.241946,-0.00909663,-0.138965
0.248712,-0.0229078,1.97588,1.32323,0.625715,-0.721645,0.241946,-0.00909663,-0.138965
0.264908,-0.00490453,1.95649,0.877853,0.965279,-0.713389,0.245309,-0.0644901,-0.138334
0.286092,0.00333881,1.93781,0.397153,1.10559,-0.883097,0.218605,-0.0271635,-0.187746
0.306278,-0.000200151,1.91711,-0.10884,0.868274,-1.20392,0.183854,0.0653058,-0.364638
0.321587,-0.0110634,1.89348,-0.0729678,0.676924,-1.28167,0.163577,0.153716,-0.485146
0.333708,-0.0111023,1.87097,0.921138,0.61193,-0.762422,0.122759,0.157248,-0.525866
0.346443,0.0158509,1.85299,2.10619,0.574475,-0.0597751,0.0337185,0.179196,-0.385307
0.354319,0.0601693,1.8396,2.31603,0.146559,0.2585,-0.0167956,0.19467,-0.304232
0.3539,0.100502,1.83047,1.6808,-0.22185,0.238169,-0.068107,0.129752,-0.221582
0.349455,0.125767,1.8239,0.928841,-0.240924,0.00520002,-0.14295,0.130731,-0.127737
0.347616,0.138393,1.81719,0.559243,-0.00608226,-0.176197,-0.21002,0.147549,-0.0919796
0.351644,0.148315,1.80955,0.689809,0.288244,-0.150637,-0.22477,0.16712,-0.0467644
0.359957,0.164026,1.80307,0.990766,0.388979,0.126057,-0.195804,0.161186,0.0355477
0.366038,0.186539,1.80103,1.14645,0.13583,0.48621,-0.155192,0.159305,0.0994541
0.363841,0.213093,1.80503,1.16389,-0.279871,0.814111,-0.122506,0.154844,0.167473
0.352098,0.24111,1.81535,1.08894,-0.63279,1.08594,-0.128243,0.171749,0.229157
0.332734,0.268881,1.83147,0.98304,-0.86289,1.2928,-0.147427,0.185682,0.282622
0.308621,0.294695,1.85245,0.799601,-0.930506,1.39555,-0.173539,0.184171,0.312316
0.283036,0.315595,1.87614,0.517847,-0.906892,1.33746,-0.21035,0.187488,0.324425
0.256993,0.329456,1.8996,0.217011,-0.958537,1.13573,-0.239771,0.172467,0.293805
0.230238,0.33633,1.91908,0.028886,-1.0678,0.780237,-0.267334,0.1549,0.249278
0.20399,0.339033,1.93063,0.02678,-1.15646,0.335773,-0.278174,0.128046,0.216156
0.180121,0.341114,1.93308,0.141567,-1.10927,-0.0670835,-0.297229,0.0974919,0.207792
0.161913,0.344056,1.92668,0.233105,-0.904287,-0.486576,-0.310939,0.0839662,0.22672
0.15194,0.346057,1.91102,0.146862,-0.607683,-0.931753,-0.297215,0.0563539,0.261728
0.150997,0.342072,1.88663,-0.254223,-0.316315,-1.39322,-0.264237,0.0132811,0.283378
0.157911,0.325259,1.8542,-0.961249,-0.060655,-1.86479,-0.235573,0.00429237,0.251406
0.170862,0.292791,1.81585,-1.58021,0.180576,-2.23647,-0.245544,0.0280363,0.157154
0.187176,0.250733,1.77331,-1.71309,0.297461,-2.48641,-0.22438,0.034171,-4.80413e-05
0.204271,0.211011,1.72908,-1.26251,0.375926,-2.43341,-0.205358,0.0378334,-0.103179
0.220264,0.183288,1.68711,-0.581319,0.399584,-2.11691,-0.164916,-0.0080443,-0.167734
0.232979,0.167731,1.65041,-0.189759,0.203225,-1.79351,-0.0740879,-0.195268,-0.212013
0.238237,0.153172,1.61471,-0.563299,-0.307508,-2.05868,-0.0468407,-0.186461,-0.286021
0.230704,0.120518,1.5719,-1.60547,-1.04373,-2.83355,-0.101379,-0.015409,-0.48279
0.209254,0.0704259,1.51758,-1.89698,-1.54052,-3.42535,-0.153962,0.128397,-0.701027
0.180725,0.0266613,1.4554,-1.01812,-1.49163,-3.35681,-0.180824,0.260423,-0.766178
0.156897,0.0118408,1.39644,0.571166,-0.927508,-2.60535,-0.216836,0.308548,-0.59858
0.144199,0.0291895,1.34999,1.64089,-0.461358,-1.76703,-0.245048,0.289058,-0.333264
0.138614,0.0594604,1.31443,1.75205,-0.339846,-1.37398,-0.235079,0.257591,-0.0994766
0.131377,0.0884211,1.28256,1.49763,-0.672406,-1.437,-0.270091,0.234531,0.0502231
0.11539,0.110999,1.24672,1.18084,-1.30193,-1.85054,-0.290863,0.234169,0.125909
0.0879788,0.128218,1.20113,1.0094,-1.95565,-2.47266,-0.273744,0.250761,0.168711
0.0519594,0.144244,1.14308,0.990081,-2.29607,-3.10619,-0.216222,0.242118,0.186384
0.0173078,0.162187,1.07396,0.997271,-2.16207,-3.60572,-0.156759,0.251153,0.254536
-0.00986835,0.180825,0.996776,0.83901,-1.80219,-3.92196,-0.0851261,0.257631,0.269948
-0.0256357,0.195676,0.915079,0.450425,-1.28663,-4.05872,-0.0184964,0.252489,0.272083
-0.0305898,0.202144,0.831852,-0.0525603,-0.885846,-4.05559,0.0293825,0.251872,0.210168
-0.0298932,0.19876,0.749101,-0.50934,-0.700818,-3.9951,0.0693699,0.256216,0.0829778
-0.0258544,0.188248,0.667726,-0.710142,-0.439892,-3.90708,0.0875286,0.273075,0.00858617
-0.0258544,0.188248,0.667726,-0.710142,-0.439892,-3.90708,0.0875286,0.273075,0.00858617
-0.0173934,0.176249,0.589114,-0.610117,-0.140128,-3.73973,0.12102,0.261428,-0.0504612
-0.00486928,0.167422,0.515601,-0.343715,0.138802,-3.42379,0.161127,0.221085,-0.0793628
0.0116633,0.162515,0.450742,-0.157955,0.457185,-2.9237,0.182293,0.155392,-0.0567464
0.0329921,0.158023,0.396892,-0.206752,0.808317,-2.3841,0.196749,0.0779442,-0.0208859
0.0598234,0.150087,0.353354,-0.38819,1.20298,-1.9497,0.204663,-0.00619163,0.00652057
0.0927587,0.138516,0.317801,-0.454161,1.52574,-1.64084,0.202573,-0.0868414,0.0112954
0.12778,0.127669,0.288258,-0.275074,1.50481,-1.36899,0.18998,-0.155774,-0.00793952
0.156651,0.120725,0.263577,-0.0674059,0.977212,-1.16021,0.186479,-0.230337,-0.0517215
0.169937,0.117116,0.240878,0.0637358,0.0611723,-1.1525,0.150428,-0.208072,-0.119697
0.166335,0.115305,0.216135,0.180022,-0.620151,-1.28584,0.10526,-0.126527,-0.151973
0.155755,0.116892,0.189176,0.424051,-0.619259,-1.28291,0.0773626,-0.0848815,-0.119448
0.150621,0.124262,0.163456,0.654005,-0.192355,-1.10425,0.0874173,-0.100117,-0.0559784
0.152202,0.133989,0.140683,0.588046,-0.00821198,-1.00084,0.123502,-0.115252,-0.0599096
0.153691,0.139609,0.118729,0.271927,-0.185689,-1.08312,0.128066,-0.0811654,-0.122049
0.151086,0.138599,0.0946235,0.0305127,-0.384615,-1.28072,0.102458,-0.00397982,-0.199736
0.146549,0.135946,0.0673615,0.146505,-0.4104,-1.38949,0.09632,0.0473161,-0.240397
0.143932,0.13802,0.0395613,0.457959,-0.193881,-1.24237,0.0980252,0.0706569,-0.199103
0.146665,0.146811,0.0165441,0.71046,0.132121,-0.849693,0.0841308,0.0806411,-0.0923009
0.153389,0.159829,0.00180089,0.745088,0.275833,-0.400024,0.0822061,0.0589753,0.00856102
0.159861,0.172716,-0.00476676,0.607468,0.232271,-0.0576457,0.0662407,0.0334921,0.0917319
0.162823,0.183297,-0.00547591,0.448723,0.0351167,0.134768,0.0307203,0.0224059,0.133665
0.160813,0.192193,-0.00312418,0.406022,-0.199492,0.225919,-0.00868979,0.0184502,0.162221
0.154315,0.201722,0.000568809,0.482089,-0.361182,0.274198,-0.04817,0.0226223,0.183962
0.145496,0.21332,0.00470895,0.589929,-0.433109,0.291638,-0.0743907,0.0328729,0.204892
0.135632,0.226324,0.00878417,0.614285,-0.445555,0.272717,-0.0822691,0.0352186,0.218646
0.125725,0.238371,0.0122589,0.512855,-0.474267,0.209334,-0.0757215,0.0326288,0.216755
0.114584,0.247385,0.0141564,0.35081,-0.603062,0.0685147,-0.0548679,0.0224425,0.182894
0.101173,0.252234,0.0128424,0.132532,-0.753092,-0.150832,-0.0264391,0.018779,0.120739
0.0868942,0.252263,0.00730196,-0.0707693,-0.793811,-0.372343,0.007362,0.0204392,0.0457056
0.0737975,0.249122,-0.00185789,-0.144742,-0.696202,-0.511106,0.0251642,0.049089,-0.0257723
0.0653997,0.245832,-0.012576,-0.0870467,-0.37924,-0.523053,0.0248228,0.07071,-0.0378298
0.0641716,0.244784,-0.0219965,0.0273335,0.0287813,-0.369523,0.0544223,0.0059121,-0.0147938
0.0680278,0.243481,-0.0284258,-0.182747,0.0980564,-0.303321,0.113092,-0.12023,-0.00720406
0.0679103,0.23402,-0.0366755,-0.740696,-0.338814,-0.607696,0.0494548,-0.0305762,-0.0708668
0.0607249,0.212142,-0.0521554,-1.28001,-0.628836,-1.01681,-0.0267191,0.0650005,-0.168644
0.0539305,0.184728,-0.0737923,-1.20954,-0.409423,-1.18975,-0.0623409,0.085245,-0.214229
0.0541707,0.16558,-0.095489,-0.503126,0.0823136,-0.969037,-0.083906,0.0787956,-0.206759
0.0630804,0.16382,-0.109983,0.366295,0.520812,-0.441172,-0.100403,0.0391868,-0.124497
0.0746163,0.175288,-0.115121,0.70002,0.447958,-0.0321125,-0.104182,0.0166311,-0.060666
0.0795735,0.188624,-0.11536,0.586128,0.0236767,0.0700567,-0.130906,-0.00968221,-0.0371261
0.0760773,0.198077,-0.116049,0.348974,-0.376201,-0.102422,-0.175943,-0.0342494,-0.00192696
0.0671971,0.20238,-0.121669,0.130312,-0.569418,-0.428611,-0.229579,-0.0172912,0.0144133
0.0588161,0.202812,-0.134318,0.00731693,-0.481433,-0.793923,-0.259726,0.00751595,0.0358242
0.0560547,0.20195,-0.153281,0.0273964,-0.145349,-1.02265,-0.253877,0.0195196,0.0805097
0.0613871,0.201815,-0.174637,0.078755,0.229569,-1.02453,-0.218383,0.0201345,0.140518
0.0723094,0.202484,-0.194507,0.108692,0.419315,-0.889116,-0.173538,0.00724053,0.19663
0.0838577,0.203361,-0.211356,0.102203,0.364792,-0.753326,-0.139971,-0.0206636,0.229782
0.0928036,0.203935,-0.226344,0.0769943,0.216266,-0.711679,-0.105185,-0.051397,0.264431
0.0928036,0.203935,-0.226344,0.0769943,0.216266,-0.711679,-0.105185,-0.051397,0.264431
0.0986756,0.203237,-0.241198,-0.0238959,0.0746868,-0.742927,-0.0903997,-0.062838,0.300078
0.102085,0.199438,-0.256802,-0.193546,-0.0381571,-0.807593,-0.06905,-0.0592665,0.303078
0.103881,0.193028,-0.272918,-0.265671,-0.0763406,-0.804822,-0.0335162,-0.0658126,0.301378
0.105421,0.185847,-0.287666,-0.288125,-0.0396726,-0.690586,-0.000981629,-0.0686538,0.295851
0.107155,0.179146,-0.299372,-0.229922,-0.0178437,-0.512056,0.0278333,-0.0605038,0.281285
0.107843,0.175991,-0.307004,0.0286261,-0.0371271,-0.244664,0.0643929,-0.0543629,0.25897
0.107196,0.180015,-0.30872,0.387442,-0.0710643,0.127422,0.0882193,-0.0617086,0.269331
0.103726,0.191629,-0.30353,0.691233,-0.197751,0.489369,0.11619,-0.0714438,0.28277
0.0953014,0.208133,-0.292462,0.793575,-0.430622,0.720275,0.126806,-0.0795296,0.279322
0.0813626,0.224977,-0.278399,0.745687,-0.645413,0.758625,0.107558,-0.0545188,0.25136
0.0640334,0.241018,-0.264252,0.763199,-0.722447,0.724688,0.0942626,-0.0409263,0.207051
0.046554,0.2572,-0.250464,0.740137,-0.690656,0.675133,0.0824198,-0.0645958,0.157022
0.0281985,0.270042,-0.238647,0.423727,-0.870637,0.482709,0.060504,-0.0204899,0.049253
0.00649654,0.271992,-0.232038,-0.2775,-1.09075,0.127285,0.0171341,0.0613905,-0.129083
-0.0153772,0.259379,-0.234935,-0.928814,-1.10209,-0.408212,-0.0429075,0.218654,-0.31187
-0.0303044,0.238023,-0.248455,-1.14784,-0.648244,-0.780774,-0.0545694,0.307116,-0.406967
-0.0322664,0.217149,-0.265294,-0.930478,0.0766251,-0.7193,-0.00768135,0.259605,-0.431296
-0.0232579,0.201563,-0.277802,-0.709529,0.486243,-0.46379,0.0313757,0.216177,-0.43857
-0.0107009,0.185951,-0.286242,-0.901249,0.598124,-0.348716,0.0547514,0.196616,-0.410057
0.00412705,0.165511,-0.292655,-1.0894,0.77226,-0.275723,0.0594822,0.09394,-0.294131
0.021206,0.144312,-0.297334,-0.974447,0.819702,-0.201986,0.0828978,-0.0108061,-0.173673
0.0368023,0.127206,-0.299304,-0.718593,0.688164,-0.0248916,0.106966,-0.13571,-0.0498586
0.0478749,0.115017,-0.297215,-0.521073,0.423526,0.171078,0.11402,-0.207151,0.0661072
0.0525014,0.105798,-0.291952,-0.448589,0.0740287,0.282554,0.108476,-0.25028,0.161587
0.0484573,0.0966629,-0.285901,-0.497723,-0.425669,0.239155,0.100027,-0.255554,0.18589
0.0350868,0.0870871,-0.282105,-0.435378,-0.834243,0.099099,0.0916555,-0.230329,0.17617
0.0163472,0.0808147,-0.280691,-0.172167,-0.982886,0.040021,0.0937686,-0.19387,0.163961
-0.00307392,0.0811762,-0.27942,0.230383,-0.890811,0.10469,0.0926329,-0.12985,0.131743
-0.0183265,0.0902541,-0.275873,0.660162,-0.597787,0.235497,0.0807356,-0.0642873,0.123341
-0.0288509,0.106609,-0.269839,0.968554,-0.407146,0.310815,0.0678067,0.00655323,0.0835238
-0.03663,0.128622,-0.262745,1.23344,-0.287004,0.301612,0.0390354,0.0750446,0.0757912
-0.0418044,0.155319,-0.256757,1.43789,-0.132882,0.167358,-0.000107974,0.152894,0.0860219
-0.0424656,0.186,-0.253794,1.59707,0.120803,-0.018682,-0.0151794,0.158364,0.122766
-0.0374806,0.217722,-0.255992,1.50275,0.319426,-0.339855,0.00135469,0.159396,0.111006
-0.0273947,0.245055,-0.265889,1.13656,0.451532,-0.708643,0.0225599,0.150187,0.0880156
-0.0127235,0.261977,-0.28419,0.457344,0.562612,-1.09653,0.00775715,0.178836,0.0694699
0.00842695,0.261735,-0.311361,-0.53508,0.848867,-1.50441,0.012078,0.199537,0.0683405
0.0375528,0.237992,-0.345005,-1.78206,1.19477,-1.76416,0.0860424,0.120471,-0.0119039
0.0699598,0.188307,-0.379439,-2.88813,1.2547,-1.79928,0.157499,0.123979,-0.228393
0.0983694,0.123186,-0.40714,-3.18477,1.12047,-1.37038,0.158408,0.167384,-0.410859
0.120643,0.0627446,-0.419343,-2.54032,0.964099,-0.427633,0.118488,0.121496,-0.473104
0.136858,0.0236139,-0.411788,-1.39908,0.63266,0.653087,0.062093,0.022391,-0.479689
0.144018,0.0091973,-0.388107,-0.413825,0.10367,1.40062,-0.00693336,-0.101688,-0.461597
0.14057,0.0121618,-0.356923,0.220373,-0.387713,1.62689,-0.117652,-0.171158,-0.389591
0.130284,0.0253522,-0.327922,0.661577,-0.518305,1.33284,-0.215277,-0.204066,-0.248845
0.120348,0.0440197,-0.309183,0.91301,-0.38873,0.738561,-0.243187,-0.223649,-0.0865182
0.114402,0.0644916,-0.301845,1.00445,-0.160321,0.272752,-0.2259,-0.248923,0.0841408
0.113289,0.0850465,-0.300701,0.998364,0.0481436,0.114442,-0.178739,-0.257326,0.229562
