attitude_roll,attitude_pitch,attitude_yaw,rotationRate_x,rotationRate_y,rotationRate_z,acceleration_x,acceleration_y,acceleration_z
0.0343401,0.18113,-0.00311885,0.334205,-0.100286,-0.731958,-0.362217,0.201504,-0.00145155
0.034262,0.18824,-0.0193582,0.393802,-0.238139,-0.861325,-0.369542,0.209561,0.131096
0.032632,0.194703,-0.038949,0.308522,-0.272735,-1.04735,-0.377072,0.189859,0.215355
0.0310828,0.198725,-0.0621392,0.161599,-0.36091,-1.20638,-0.280924,0.173356,0.264895
0.0279793,0.199438,-0.0872486,-0.0175268,-0.429784,-1.23558,-0.163072,0.169188,0.268521
0.0239796,0.197043,-0.111413,-0.144952,-0.449309,-1.13791,-0.107528,0.192062,0.228338
0.0187858,0.193537,-0.133509,-0.142244,-0.497173,-1.06309,-0.107149,0.20733,0.188631
0.0133764,0.191014,-0.155105,-0.082946,-0.4472,-1.07095,-0.094813,0.170797,0.156056
0.00931252,0.189403,-0.176791,-0.0619272,-0.350319,-1.0614,-0.0366117,0.144114,0.159259
0.00835901,0.187699,-0.197439,-0.0961263,-0.146211,-0.96353,0.0134248,0.141799,0.188899
0.00901504,0.1852,-0.215485,-0.139774,-0.135468,-0.820661,0.0635574,0.125001,0.237269
0.00861456,0.182193,-0.230756,-0.153076,-0.190742,-0.69815,0.085156,0.082295,0.257613
0.00556342,0.178307,-0.24405,-0.242533,-0.382298,-0.619943,0.0976589,0.0449477,0.281234
-0.00157939,0.172225,-0.25569,-0.358282,-0.492453,-0.524761,0.121139,0.0167732,0.261694
-0.0085381,0.164764,-0.265175,-0.368823,-0.329329,-0.415257,0.105529,0.0184818,0.188325
-0.0110301,0.158523,-0.27274,-0.254201,-0.0384287,-0.320713,0.0803496,0.00836955,0.143789
-0.00967512,0.155136,-0.278254,-0.0882564,0.0183956,-0.230568,0.0599432,-0.0158496,0.16545
-0.00800429,0.154999,-0.282676,0.0493535,0.118511,-0.220111,0.0437053,-0.054453,0.19643
-0.00380656,0.156355,-0.286892,0.0726967,0.231977,-0.18315,0.0553195,-0.057202,0.244508
0.00191699,0.157569,-0.289451,0.0519048,0.280493,-0.0606858,0.0939319,-0.0495338,0.283463
0.00713587,0.159014,-0.289186,0.114328,0.251341,0.0900388,0.113285,-0.0515395,0.265069
0.0113764,0.162678,-0.286055,0.249855,0.219959,0.220861,0.10059,-0.0460306,0.234795
0.0144893,0.168701,-0.281055,0.333495,0.187331,0.274265,0.0653525,-0.0493677,0.211744
0.017658,0.17551,-0.275132,0.335711,0.247186,0.328677,0.0546356,-0.0442314,0.185473
0.022174,0.182463,-0.267857,0.360498,0.338152,0.399206,0.0328223,-0.0114038,0.126606
0.0286405,0.191035,-0.259445,0.483778,0.455616,0.447577,0.0250154,0.00146003,0.0351775
0.0357694,0.201816,-0.249796,0.532721,0.431769,0.556822,0.0739728,0.00725727,-0.0469235
0.0412448,0.211682,-0.236832,0.367588,0.411877,0.750176,0.121064,0.0193698,-0.16068
0.0453554,0.216867,-0.220751,0.103596,0.295007,0.814452,0.096637,-0.0274127,-0.309081
0.0452584,0.218766,-0.205376,0.0514493,0.0216087,0.671104,0.0345554,-0.0765992,-0.503105
0.0401967,0.219913,-0.19404,-0.022064,-0.311648,0.452645,0.0174073,-0.0611674,-0.595169
0.0267309,0.217527,-0.186119,-0.233923,-0.84674,0.333269,0.0822548,-0.0690049,-0.646077
0.0074651,0.212605,-0.17949,-0.228507,-0.834465,0.305569,0.113202,-0.04499,-0.797857
-0.00529534,0.209832,-0.173322,-0.0412434,-0.250084,0.314999,0.0858981,0.00465161,-0.846853
-0.00433685,0.210999,-0.165782,0.148393,0.475449,0.427752,0.0695177,0.0197851,-0.699906
0.00685353,0.214417,-0.156702,0.157171,0.738598,0.43313,0.0191213,0.00847782,-0.394977
0.0182782,0.216224,-0.149203,0.00259729,0.524852,0.287567,-0.0223835,-0.0544844,-0.124294
0.0250934,0.214884,-0.145236,-0.127006,0.256391,0.103907,-0.0326314,-0.0879437,0.0196775
0.0280797,0.21204,-0.143878,-0.151539,0.10837,0.0457411,-0.00288058,-0.0456335,0.0960384
0.0301454,0.209142,-0.14229,-0.145083,0.149436,0.118288,0.021526,0.0124614,0.174634
0.0328612,0.206359,-0.138723,-0.144319,0.185281,0.223699,0.0177685,0.0348686,0.273757
0.0353794,0.20381,-0.133385,-0.12663,0.162358,0.283828,0.00312558,0.0342659,0.361868
0.0363475,0.201952,-0.127272,-0.075735,0.0538988,0.300403,-0.0273003,0.0343837,0.42654
0.0353562,0.201459,-0.12131,0.00905484,-0.0218478,0.287996,-0.0585445,0.0449323,0.456367
0.0336714,0.203042,-0.115267,0.13825,-0.015615,0.31795,-0.0614312,0.0646111,0.474599
0.0321491,0.207685,-0.108523,0.309768,0.00747604,0.356787,-0.0622756,0.0800048,0.500939
0.0311209,0.215743,-0.1014,0.469632,0.0352053,0.361366,-0.0687247,0.0849537,0.547893
0.0298678,0.226132,-0.0948093,0.527194,-0.0451648,0.300528,-0.0959976,0.0848817,0.61821
0.0260095,0.235742,-0.0907619,0.391964,-0.262601,0.101876,-0.148594,0.0774212,0.667783
0.0187559,0.241019,-0.0916084,0.128479,-0.471473,-0.177364,-0.164987,0.0660853,0.658455
0.00994262,0.24086,-0.0978571,-0.12057,-0.540809,-0.410531,-0.115109,0.0751772,0.557252
0.00994262,0.24086,-0.0978571,-0.12057,-0.540809,-0.410531,-0.115109,0.0751772,0.557252
0.00193981,0.236597,-0.107414,-0.297874,-0.477942,-0.50573,-0.0568937,0.123067,0.427736
-0.00499047,0.228885,-0.118172,-0.471769,-0.475225,-0.547874,-0.0415875,0.148553,0.265656
-0.010319,0.218379,-0.129889,-0.57822,-0.298005,-0.584427,-0.0348329,0.11806,-0.00576609
-0.0128561,0.206445,-0.141427,-0.624067,-0.256054,-0.508256,0.0360965,0.111202,-0.227675
-0.0179968,0.194051,-0.150041,-0.628391,-0.441586,-0.314769,0.11359,0.0667519,-0.428123
-0.0261877,0.181692,-0.155918,-0.63739,-0.444687,-0.290748,0.0231749,-0.01117,-0.636366
-0.0318429,0.167897,-0.164925,-0.800919,-0.249444,-0.58971,-0.115858,-0.0803423,-0.767003
-0.0319254,0.149838,-0.180736,-1.04587,-0.0111883,-0.883682,-0.116692,-0.110686,-0.820867
-0.0272666,0.129126,-0.199131,-1.03066,0.21383,-0.812485,-0.00967648,-0.0377972,-0.865368
-0.0192789,0.111895,-0.212163,-0.68568,0.437101,-0.404293,0.0995709,0.0239846,-0.832473
-0.00880783,0.102981,-0.215233,-0.223097,0.539471,0.0932019,0.128771,0.00428828,-0.651622
0.000586251,0.101912,-0.210466,0.0738815,0.428979,0.336198,0.0377773,-0.0740762,-0.380646
0.00639403,0.104256,-0.203611,0.125352,0.227817,0.324799,-0.0588648,-0.15936,-0.123706
0.00934391,0.106014,-0.198113,0.0405829,0.141493,0.220934,-0.0860736,-0.202457,0.0510592
0.0116211,0.106085,-0.194492,-0.0246989,0.131335,0.150917,-0.0733994,-0.194483,0.167758
0.0140978,0.105903,-0.191526,0.021689,0.163719,0.156644,-0.0448717,-0.1641,0.238729
0.0179135,0.107448,-0.18784,0.125306,0.261403,0.2127,-0.0174431,-0.139997,0.308115
0.0230244,0.11103,-0.182901,0.220665,0.283095,0.2862,-0.00234228,-0.12638,0.397464
0.0274379,0.116528,-0.176554,0.309293,0.224887,0.351831,0.0124091,-0.111671,0.471909
0.0300014,0.12385,-0.169171,0.407966,0.119228,0.405169,0.0140256,-0.087495,0.513927
0.0306631,0.133641,-0.16076,0.544916,0.0858803,0.455611,0.0156508,-0.0538591,0.52498
0.0310307,0.145592,-0.151879,0.611507,0.0413405,0.46344,0.00715958,-0.0211507,0.548545
0.0291782,0.158069,-0.142858,0.60084,-0.108095,0.473162,0.0189649,0.0095537,0.534446
0.0235947,0.169895,-0.133123,0.558793,-0.294893,0.531626,0.0549789,0.0395016,0.452751
0.0135977,0.180822,-0.121777,0.522157,-0.499904,0.601256,0.0671602,0.0911237,0.304955
0.000443557,0.191334,-0.109894,0.527548,-0.569254,0.553393,0.00560698,0.136305,0.0930795
-0.0115471,0.201793,-0.0996822,0.532661,-0.380946,0.447739,-0.0127201,0.134905,-0.158418
-0.0164038,0.212064,-0.0908044,0.487018,0.0679941,0.424056,0.0279375,0.170073,-0.345561
-0.0157519,0.219497,-0.0815208,0.238925,0.0849343,0.475058,0.0504685,0.200191,-0.377248
-0.0211737,0.220315,-0.0723369,-0.140148,-0.459361,0.387427,-0.0190736,0.17537,-0.416159
-0.0359523,0.214714,-0.0671932,-0.375224,-0.832403,0.117445,-0.107627,0.111536,-0.582081
-0.0526699,0.206224,-0.0683419,-0.472517,-0.812041,-0.190068,-0.155654,0.0742423,-0.747369
-0.0649404,0.196534,-0.0754759,-0.539954,-0.546654,-0.437759,-0.159667,0.0860793,-0.806688
-0.0702502,0.185885,-0.0870142,-0.600676,-0.18837,-0.615192,-0.170244,0.125109,-0.752546
-0.0658881,0.175234,-0.100961,-0.527734,0.422813,-0.655013,-0.117877,0.111061,-0.626826
-0.0495108,0.167366,-0.113819,-0.323717,0.92446,-0.555926,-0.0432726,0.0774746,-0.372023
-0.0284547,0.163405,-0.124074,-0.121842,0.948184,-0.447833,-0.023274,0.0472765,-0.0423306
-0.0114758,0.162181,-0.132681,-0.0475875,0.560618,-0.41938,-0.0323915,-0.00623791,0.240536
-0.00463852,0.160666,-0.141906,-0.128906,-0.028459,-0.508132,-0.0264271,-0.0698516,0.416966
-0.00770238,0.157215,-0.15357,-0.211045,-0.389712,-0.634359,0.00521163,-0.120043,0.435544
-0.0139184,0.153348,-0.166572,-0.175021,-0.418684,-0.628514,0.0615451,-0.0822681,0.386058
-0.0201987,0.15125,-0.178006,-0.0502224,-0.388773,-0.479239,0.125847,-0.0439212,0.348703
-0.0280097,0.151871,-0.185147,0.0908803,-0.529938,-0.240429,0.17133,-0.0331448,0.332371
-0.0397649,0.155202,-0.1886,0.24729,-0.668688,-0.136053,0.155442,-0.0529702,0.276124
-0.0519569,0.162559,-0.190827,0.488398,-0.552119,-0.131599,0.128321,-0.0709133,0.208629
-0.0599731,0.175172,-0.19335,0.753899,-0.282012,-0.197557,0.0934437,-0.064202,0.201569
-0.0624816,0.192148,-0.197248,0.892131,-0.0772746,-0.291281,0.0863924,-0.0465653,0.292974
-0.0628734,0.209974,-0.202893,0.819888,-0.102296,-0.380658,0.109548,-0.0205087,0.415649
-0.063745,0.224147,-0.211493,0.519327,-0.170008,-0.560213,0.0984241,-0.0104831,0.460248
-0.0646631,0.232617,-0.22441,0.301863,-0.19708,-0.742348,0.0974235,-0.00757273,0.350915
-0.0637391,0.240289,-0.240405,0.390278,-0.0424304,-0.862013,0.102119,0.0308763,0.168958
-0.0637391,0.240289,-0.240405,0.390278,-0.0424304,-0.862013,0.102119,0.0308763,0.168958
-0.0569735,0.249881,-0.258741,0.421781,0.254087,-0.956422,0.0816175,0.060155,0.0506216
-0.0461421,0.257401,-0.27722,0.20933,0.345273,-0.842072,0.161504,0.0437831,0.00876546
-0.0353149,0.258797,-0.292807,-0.138869,0.314566,-0.693313,0.158521,0.0553412,-0.0610191
-0.0262864,0.253087,-0.306812,-0.463476,0.250571,-0.667517,0.0808049,0.0102821,-0.226313
-0.0184048,0.241019,-0.32197,-0.778145,0.156942,-0.807587,-0.0422326,-0.0375682,-0.408387
-0.0109464,0.223478,-0.340756,-0.967945,0.204749,-0.982918,-0.119819,-0.0646782,-0.601006
0.000122357,0.204492,-0.36076,-0.912132,0.489579,-0.911487,-0.0825021,-0.00838655,-0.757866
0.0151204,0.188546,-0.375126,-0.654881,0.703957,-0.462816,-0.000615518,0.0819319,-0.76727
0.029776,0.179134,-0.378431,-0.282184,0.661756,0.107442,0.0769822,0.044618,-0.665135
0.0393986,0.176582,-0.372413,-0.0366429,0.380439,0.418667,0.0112881,-0.0661247,-0.481646
0.0424617,0.176035,-0.363864,-0.103642,0.0986017,0.382464,-0.135635,-0.145872,-0.29483
0.0423409,0.171844,-0.357738,-0.349048,0.0393539,0.204379,-0.220233,-0.185278,-0.168337
0.0440745,0.163422,-0.354757,-0.469864,0.210108,0.0675032,-0.213593,-0.191537,-0.117004
0.0501318,0.154795,-0.353437,-0.376097,0.405045,0.0376001,-0.170422,-0.16795,-0.0498498
0.0586402,0.148807,-0.35183,-0.23441,0.43309,0.0949606,-0.131964,-0.142604,0.0855611
0.0657629,0.145663,-0.349129,-0.101097,0.309282,0.140745,-0.120867,-0.136987,0.227918
0.0695864,0.144784,-0.346241,-0.0168056,0.110598,0.13413,-0.115296,-0.127084,0.346792
0.069663,0.1448,-0.343593,-0.00826599,-0.0434155,0.134601,-0.105164,-0.107017,0.422712
0.0681298,0.144556,-0.340526,-0.0383323,-0.0450709,0.172281,-0.0842281,-0.0763146,0.457794
0.0672384,0.143949,-0.336321,-0.0400067,0.0277646,0.243297,-0.0721692,-0.047694,0.4638
0.0683065,0.144142,-0.330598,0.0203206,0.146806,0.325695,-0.0581157,-0.0267052,0.464388
0.0705416,0.145972,-0.322942,0.112739,0.179102,0.453884,-0.0451669,0.00457026,0.475109
0.0722921,0.150207,-0.3124,0.245697,0.150683,0.616278,-0.0400439,0.03035,0.482617
0.0733986,0.15796,-0.299141,0.443288,0.174758,0.746395,-0.0565965,0.0444194,0.489362
0.0747436,0.169949,-0.284008,0.634144,0.190713,0.830987,-0.0667776,0.0528603,0.513237
0.0738746,0.184741,-0.267587,0.69824,-0.0271928,0.895537,-0.0848349,0.0848455,0.537081
0.0664528,0.19934,-0.24981,0.621139,-0.379712,0.944045,-0.0700328,0.108713,0.486426
0.0526092,0.211933,-0.231478,0.554234,-0.597656,0.910635,-0.0912492,0.116432,0.268159
0.0376715,0.224437,-0.214764,0.629438,-0.477296,0.772922,-0.0983635,0.130013,-0.0410157
0.0272309,0.237565,-0.200656,0.600746,-0.291186,0.662674,-0.0629009,0.150254,-0.241032
0.0154824,0.246173,-0.187936,0.158849,-0.68956,0.578468,-0.0325779,0.147945,-0.304846
-0.00750603,0.242432,-0.179319,-0.514559,-1.36537,0.202987,-0.161415,0.0794656,-0.471226
-0.0356647,0.228592,-0.181214,-0.802808,-1.38732,-0.362856,-0.234603,0.00333999,-0.827704
-0.0548663,0.213696,-0.194311,-0.713318,-0.718482,-0.816616,-0.223539,0.0171879,-1.1108
-0.0559988,0.202185,-0.214048,-0.565848,0.16014,-1.01191,-0.186565,0.108068,-1.09426
-0.0438546,0.191374,-0.236423,-0.679509,0.521615,-1.14637,-0.139653,0.145301,-0.824818
-0.0288811,0.176489,-0.262046,-0.879095,0.532786,-1.31128,-0.0593401,0.038779,-0.571883
-0.0124026,0.160023,-0.289179,-0.78662,0.662049,-1.3114,0.0475221,-0.0312721,-0.430714
0.00582126,0.146732,-0.314507,-0.549426,0.769188,-1.18534,0.0842529,-0.0286446,-0.248983
0.024445,0.13752,-0.336656,-0.36046,0.755379,-1.02829,0.0950966,-0.0500776,-0.0206469
0.0402412,0.130588,-0.355828,-0.28253,0.560887,-0.90697,0.104491,-0.0891275,0.180319
0.0518315,0.124796,-0.37277,-0.21663,0.39282,-0.807493,0.112062,-0.11683,0.30809
0.0600582,0.120691,-0.38755,-0.103658,0.257901,-0.675656,0.122543,-0.115609,0.386062
0.065403,0.11949,-0.399008,0.0671433,0.149207,-0.459183,0.139043,-0.0877485,0.444772
0.0682811,0.122437,-0.40589,0.271679,0.048571,-0.209171,0.145692,-0.0671076,0.499982
0.0681353,0.129642,-0.408177,0.45281,-0.094859,0.0240403,0.139276,-0.0597311,0.565769
0.0645303,0.140119,-0.406677,0.5659,-0.237495,0.174369,0.093968,-0.0509824,0.621134
0.0584675,0.151934,-0.403668,0.587525,-0.313853,0.178627,0.020608,-0.0523852,0.659216
0.0514376,0.163418,-0.401857,0.546498,-0.352586,0.0468798,-0.0467474,-0.0553406,0.663411
0.0448127,0.173415,-0.403317,0.459838,-0.33788,-0.147709,-0.0753759,-0.0487507,0.627735
0.0448127,0.173415,-0.403317,0.459838,-0.33788,-0.147709,-0.0753759,-0.0487507,0.627735
0.0380685,0.181463,-0.408404,0.366057,-0.486803,-0.314909,-0.0441483,-0.0366482,0.563526
0.0267896,0.187681,-0.416601,0.280045,-0.775841,-0.466445,-0.019526,0.0108301,0.437531
0.0120942,0.192232,-0.42745,0.210444,-0.873058,-0.581983,-0.00785814,0.0763348,0.238985
-0.00120718,0.1966,-0.439965,0.246549,-0.668972,-0.636985,0.0465177,0.10035,0.00102979
-0.00943723,0.201678,-0.453475,0.231356,-0.456272,-0.705677,0.0334309,0.104962,-0.184939
-0.0139868,0.205365,-0.468469,0.117457,-0.272901,-0.749621,0.0237326,0.107245,-0.356986
-0.0131113,0.206766,-0.483448,-0.000560059,0.0556608,-0.734502,0.0134419,0.096455,-0.516028
-0.00589163,0.205004,-0.499343,-0.214816,0.313351,-0.849116,-0.0653989,0.0422857,-0.594519
0.00534613,0.197888,-0.518498,-0.502431,0.409444,-1.03507,-0.111153,-0.0230821,-0.607787
0.0172779,0.184955,-0.541396,-0.764448,0.329459,-1.24347,-0.147582,-0.056179,-0.615438
0.0270767,0.167158,-0.567973,-0.939007,0.199065,-1.39544,-0.143563,-0.0505994,-0.644122
0.0355634,0.147528,-0.595216,-0.90853,0.262997,-1.33013,-0.0797712,-0.0282387,-0.69911
0.0457829,0.130221,-0.618772,-0.724209,0.429952,-1.05418,-0.0050658,-0.0193777,-0.657928
0.0576342,0.117129,-0.635926,-0.493234,0.539421,-0.727036,-0.000658616,-0.0561277,-0.540224
0.0702908,0.108982,-0.647682,-0.260005,0.582542,-0.52248,-0.0647963,-0.107039,-0.366145
0.0823573,0.104588,-0.657049,-0.120008,0.518974,-0.46362,-0.123502,-0.152881,-0.16475
0.0927639,0.102379,-0.66633,-0.020479,0.438394,-0.480569,-0.136564,-0.189701,0.00481492
0.101576,0.101973,-0.675954,0.0652629,0.33763,-0.473883,-0.120895,-0.186,0.147499
0.108183,0.102724,-0.68512,0.0952557,0.229089,-0.41794,-0.0894283,-0.170879,0.269919
0.112269,0.104001,-0.692904,0.120898,0.0947486,-0.34156,-0.0717861,-0.166114,0.349572
0.11354,0.106388,-0.69958,0.200619,-0.0326169,-0.293569,-0.0801693,-0.162505,0.390944
0.113035,0.111032,-0.705646,0.329222,-0.0612526,-0.259311,-0.0812007,-0.148611,0.415524
0.112482,0.118037,-0.7113,0.426592,-0.0681885,-0.221344,-0.0873242,-0.126682,0.462139
0.11134,0.126783,-0.716457,0.49208,-0.105607,-0.196961,-0.0830268,-0.116583,0.501594
0.109638,0.136133,-0.721752,0.479332,-0.12887,-0.232105,-0.096672,-0.117461,0.523572
0.107432,0.144387,-0.727929,0.417799,-0.194472,-0.290237,-0.0829774,-0.132298,0.530886
0.10429,0.152409,-0.735579,0.485391,-0.197305,-0.399819,-0.069554,-0.156743,0.450277
0.104209,0.161986,-0.74669,0.571575,0.036395,-0.599669,-0.0977147,-0.15821,0.349155
0.108991,0.171343,-0.761624,0.496131,0.151366,-0.748947,-0.101522,-0.12849,0.308184
0.114552,0.178411,-0.777825,0.403435,0.122172,-0.749954,-0.0518794,-0.0877468,0.20871
0.119791,0.184961,-0.79406,0.459029,0.0955072,-0.777536,-0.0805095,-0.0568139,0.0190969
0.122945,0.193107,-0.811624,0.549245,-0.15413,-0.827594,-0.0566354,-0.0518652,-0.163553
0.119473,0.202173,-0.829471,0.555191,-0.550467,-0.799754,-0.0173653,-0.0496901,-0.338859
0.109884,0.21124,-0.847108,0.543499,-0.69981,-0.835888,-0.0389274,-0.0376415,-0.537464
0.101928,0.219496,-0.866722,0.465416,-0.499898,-0.999609,-0.115515,0.0077461,-0.684027
0.0992482,0.225084,-0.889396,0.308875,-0.254279,-1.13871,-0.142103,0.0599349,-0.71743
0.102562,0.227159,-0.913791,0.13582,0.00484483,-1.19821,-0.118704,0.0825259,-0.682299
0.107513,0.226133,-0.937903,0.00930517,-0.0911436,-1.14266,-0.0653897,0.113813,-0.569691
0.107193,0.223059,-0.96007,-0.0771736,-0.448175,-1.05259,-0.0368782,0.125373,-0.46717
0.100125,0.218918,-0.980862,-0.114146,-0.667697,-1.02599,-0.0409016,0.106639,-0.431603
0.0916656,0.21499,-1.00138,-0.0795202,-0.569847,-1.01002,-0.028517,0.0924724,-0.394097
0.088022,0.211795,-1.02108,-0.0794396,-0.198749,-0.930087,-0.00778873,0.110377,-0.277045
0.0912501,0.207901,-1.03826,-0.171396,0.125556,-0.777062,0.0181384,0.106889,-0.0950168
0.0969129,0.202221,-1.05182,-0.261126,0.0972347,-0.601432,0.0335672,0.0696809,0.0872698
0.0973793,0.195601,-1.06163,-0.297925,-0.272222,-0.424778,0.0383564,0.0293627,0.220196
0.0892092,0.189266,-1.06803,-0.266064,-0.65528,-0.265789,0.0208526,-0.00297835,0.271954
0.0747252,0.184145,-1.07214,-0.215044,-0.85277,-0.197822,-0.012801,-0.0289915,0.285327
0.0572447,0.180606,-1.07607,-0.0865299,-0.910824,-0.226411,-0.0552454,-0.0516669,0.269889
0.0421653,0.180633,-1.08111,0.104908,-0.692696,-0.258573,-0.0610289,-0.0359698,0.255759
0.0303808,0.18336,-1.08627,0.166096,-0.625967,-0.237875,-0.0370387,-0.00229718,0.314936
0.0173229,0.186686,-1.09108,0.183459,-0.785984,-0.237231,0.00566863,-0.0161937,0.335596
0.0173229,0.186686,-1.09108,0.183459,-0.785984,-0.237231,0.00566863,-0.0161937,0.335596
0.00128035,0.191044,-1.09629,0.264732,-0.928547,-0.269459,0.0173433,-0.0122646,0.270197
-0.0179361,0.19788,-1.10203,0.417971,-1.08137,-0.315346,0.00179211,0.00269748,0.180905
-0.0377346,0.207188,-1.1097,0.436296,-1.03851,-0.484504,-0.0111465,0.00334707,0.117916
-0.0552586,0.213988,-1.12183,0.164892,-0.984991,-0.743728,-0.038574,0.00876042,0.0609512
-0.0689219,0.215573,-1.14015,-0.107616,-0.74846,-1.05629,-0.0566892,0.0128116,-0.0910017
-0.0762773,0.212885,-1.16499,-0.353705,-0.5363,-1.34878,-0.0554151,0.0350267,-0.219402
-0.079093,0.205165,-1.19648,-0.679028,-0.421662,-1.67661,-0.0882655,0.0496916,-0.313309
-0.0784726,0.191455,-1.23589,-0.988976,-0.262398,-2.10105,-0.163031,0.0402175,-0.44564
-0.0714958,0.173523,-1.28468,-1.13946,0.112782,-2.53225,-0.162487,0.0426488,-0.560533
-0.0554002,0.154769,-1.33848,-1.04512,0.607682,-2.59319,-0.0683981,0.105446,-0.591487
-0.0324949,0.139099,-1.3884,-0.711039,0.925721,-2.22255,0.019602,0.177653,-0.518284
-0.00747548,0.130608,-1.42755,-0.206938,1.02798,-1.64712,0.0761372,0.175892,-0.365417
0.0152103,0.131279,-1.45528,0.264693,0.826388,-1.13514,0.0512204,0.140592,-0.146613
0.0297372,0.139079,-1.47458,0.52527,0.348797,-0.785244,-0.0271723,0.0943651,0.0652237
0.0333064,0.149758,-1.4884,0.56729,-0.173031,-0.57134,-0.111739,0.071562,0.190926
0.0279833,0.160374,-1.49904,0.527562,-0.495129,-0.466565,-0.204653,0.0720101,0.225978
0.0181797,0.170283,-1.50889,0.485638,-0.621082,-0.508928,-0.291201,0.0631839,0.219841
0.00750036,0.178829,-1.5211,0.370624,-0.649102,-0.701936,-0.34988,0.0459952,0.230607
-0.00165157,0.184489,-1.53828,0.198453,-0.561737,-1.00291,-0.377466,0.0300327,0.234707
-0.00709024,0.186964,-1.56189,0.0475318,-0.417819,-1.3193,-0.358695,0.0376066,0.211034
-0.00889607,0.186848,-1.59105,-0.094069,-0.338139,-1.52824,-0.283358,0.0786462,0.207562
-0.0107957,0.183807,-1.62239,-0.228586,-0.44506,-1.52684,-0.168448,0.121372,0.201436
-0.015521,0.179363,-1.65229,-0.234574,-0.559493,-1.40848,-0.0806303,0.134122,0.147398
-0.0215998,0.176096,-1.67965,-0.135463,-0.480865,-1.29504,-0.0477668,0.126542,0.0806189
-0.0238667,0.174589,-1.70541,-0.100728,-0.197597,-1.25485,-0.0451631,0.0931066,0.0675558
-0.0216249,0.172199,-1.73095,-0.211934,-0.0487478,-1.26401,-0.0124186,0.0402611,0.115046
-0.0175156,0.167224,-1.75675,-0.336366,0.0107981,-1.2699,0.0482913,-0.0143555,0.139571
-0.0133657,0.159962,-1.78188,-0.417842,0.00743177,-1.18432,0.114147,-0.0286311,0.129204
-0.00897401,0.152006,-1.8039,-0.388985,0.112959,-0.978711,0.169942,-0.0346899,0.0852312
-0.00280504,0.145633,-1.82135,-0.254692,0.249779,-0.749075,0.196318,-0.0502245,0.0588837
0.00529254,0.142235,-1.83412,-0.0911098,0.370484,-0.527712,0.194132,-0.0722944,0.0829359
0.0145645,0.14154,-1.84285,0.0162228,0.435647,-0.346049,0.168534,-0.0912166,0.147274
0.0247081,0.142776,-1.84824,0.115163,0.509752,-0.188416,0.136923,-0.102674,0.209905
0.0360435,0.146199,-1.85065,0.236962,0.591936,-0.0371414,0.105828,-0.102948,0.26498
0.0483179,0.152068,-1.85007,0.337487,0.630913,0.107387,0.0790282,-0.102729,0.331163
0.0599127,0.159455,-1.84723,0.370885,0.548037,0.210245,0.0510816,-0.110537,0.392037
0.0681376,0.167171,-1.8429,0.373249,0.341991,0.264847,0.0275755,-0.112918,0.418525
0.0718496,0.175245,-1.83772,0.410285,0.132117,0.299958,0.0171411,-0.0955782,0.386928
0.0732025,0.18494,-1.83194,0.522388,0.13794,0.338753,-0.0157072,-0.057552,0.302275
0.0753649,0.196664,-1.82592,0.589771,0.19644,0.334142,-0.0462697,-0.0241905,0.250248
0.0780565,0.208438,-1.82007,0.53676,0.178382,0.341015,-0.0319933,-0.0068896,0.214863
0.0801316,0.219592,-1.81326,0.54755,0.185099,0.416387,-0.0254505,0.0238155,0.111984
0.0807414,0.231952,-1.80531,0.621484,-0.00669579,0.449342,-0.0302303,0.038197,-0.0260448
0.0754387,0.245475,-1.79699,0.640354,-0.316909,0.469184,-0.0121033,0.0176904,-0.183936
0.0635518,0.256963,-1.78854,0.400646,-0.681451,0.39492,-0.0546491,0.0249576,-0.338421
0.0454101,0.261013,-1.78303,-0.0206314,-0.907606,0.147884,-0.121128,0.0122252,-0.536332
0.0300777,0.257878,-1.78244,-0.251186,-0.551806,-0.0873042,-0.158183,0.0124753,-0.780651
0.0252766,0.252714,-1.78547,-0.231016,-0.0225585,-0.192534,-0.140728,0.0688801,-0.905958
0.0285043,0.249215,-1.78885,-0.112423,0.210125,-0.136202,-0.0901354,0.124665,-0.829734
0.0326603,0.247871,-1.79134,-0.0305586,0.121364,-0.129378,-0.0651497,0.0997255,-0.630369
0.0326603,0.247871,-1.79134,-0.0305586,0.121364,-0.129378,-0.0651497,0.0997255,-0.630369
0.0348886,0.247028,-1.79501,-0.0622203,0.0285265,-0.245631,-0.0605104,0.0414898,-0.426714
0.036627,0.244073,-1.80175,-0.229347,-0.0119477,-0.420257,-0.0568807,-0.00385664,-0.237519
0.0379907,0.236893,-1.81154,-0.452481,-0.0919285,-0.549619,-0.0129036,-0.0197262,-0.0880931
0.0377506,0.225649,-1.82291,-0.606421,-0.183396,-0.59005,0.0492898,-0.0285953,-0.0126176
0.0363799,0.213079,-1.83411,-0.586242,-0.180664,-0.544508,0.0973699,-0.0255601,0.0142134
0.0353884,0.20244,-1.8436,-0.431594,-0.11365,-0.41229,0.130335,-0.0211082,0.0578231
0.0350333,0.195682,-1.84975,-0.222687,-0.0434911,-0.211496,0.142202,-0.00537875,0.133802
0.0352073,0.193027,-1.85207,-0.0382433,0.00883627,-0.0391442,0.110931,0.00840439,0.238541
0.035497,0.193533,-1.85209,0.0753673,0.00605901,0.0202172,0.0768825,-0.0169932,0.337738
0.0347451,0.195596,-1.8518,0.124327,-0.0848035,0.0213128,0.0774048,-0.0343629,0.422387
0.0316449,0.198686,-1.85109,0.193516,-0.222021,0.0670947,0.0868568,-0.0231999,0.462868
0.0252098,0.20401,-1.8492,0.338421,-0.381359,0.14026,0.0969738,-0.00222102,0.463997
0.0154328,0.212515,-1.84583,0.496921,-0.526511,0.199297,0.0887662,0.0144005,0.462479
0.00320095,0.223358,-1.84212,0.567408,-0.610101,0.154236,0.0622776,0.00570065,0.464198
-0.0098916,0.234303,-1.8403,0.519308,-0.646334,0.00887571,0.0389942,-0.00662003,0.470233
-0.0222306,0.243897,-1.84209,0.43653,-0.629314,-0.213859,0.00753262,0.0026249,0.460292
-0.0321218,0.252257,-1.84905,0.391869,-0.506183,-0.475808,0.00296252,0.0133232,0.413485
-0.0369804,0.260618,-1.86059,0.412053,-0.278326,-0.65929,0.0359369,0.039218,0.371866
-0.0375795,0.269418,-1.87497,0.396992,-0.209123,-0.752535,0.0563415,0.106045,0.374546
-0.0397491,0.276431,-1.89076,0.228036,-0.471233,-0.787228,0.0738743,0.152227,0.357241
-0.0477086,0.279955,-1.90653,0.0760105,-0.736167,-0.733279,0.131939,0.153647,0.1976
-0.0587869,0.281027,-1.92069,-0.0504796,-0.726249,-0.642691,0.140692,0.1631,-0.0318096
-0.0677273,0.278704,-1.93419,-0.290507,-0.509815,-0.679645,0.0796667,0.152918,-0.261968
-0.0691839,0.269959,-1.95152,-0.733782,-0.0971464,-0.950127,-0.0173443,0.0632921,-0.454555
-0.0614716,0.251434,-1.97503,-1.2488,0.238204,-1.17457,-0.0380331,-0.00698993,-0.603173
-0.0480574,0.225419,-2.00133,-1.43527,0.464113,-1.19871,-0.00292024,-0.00140014,-0.785199
-0.0338398,0.198723,-2.02478,-1.30597,0.444926,-0.956516,0.0480447,0.0538628,-0.895989
-0.0221218,0.17566,-2.04076,-1.03728,0.435234,-0.531324,0.0843558,0.0736531,-0.917836
-0.0123397,0.158602,-2.04665,-0.678221,0.464139,-0.0116316,0.104271,0.0286196,-0.845542
-0.00308144,0.148636,-2.04206,-0.337741,0.516351,0.439739,0.0717119,-0.0452396,-0.670607
0.00525923,0.143974,-2.0308,-0.166338,0.462894,0.632569,-0.0534837,-0.125688,-0.430404
0.0107382,0.140742,-2.01828,-0.1911,0.254722,0.580467,-0.162915,-0.20335,-0.207165
0.0127503,0.136267,-2.00789,-0.264143,0.116384,0.440096,-0.201749,-0.244403,-0.0573547
0.0140322,0.130982,-2.00055,-0.265643,0.128234,0.290914,-0.194591,-0.243523,0.0356328
0.0167324,0.126238,-1.99574,-0.20768,0.208635,0.194527,-0.153378,-0.219144,0.111731
0.0206846,0.123208,-1.99182,-0.0930352,0.2066,0.203329,-0.0976596,-0.189924,0.187977
0.0234121,0.123258,-1.98742,0.0826714,0.119089,0.237381,-0.0801478,-0.15574,0.258865
0.0239891,0.126352,-1.98229,0.207479,-0.00239783,0.292291,-0.0579906,-0.124411,0.341032
0.0218221,0.131545,-1.97571,0.295825,-0.113972,0.369723,-0.0393016,-0.09471,0.409902
0.0183319,0.138224,-1.96799,0.343741,-0.118041,0.40902,-0.0445081,-0.0677057,0.465409
0.0152937,0.145143,-1.95947,0.330846,-0.0702462,0.447686,-0.0406146,-0.0464371,0.510411
0.0131777,0.151438,-1.95029,0.280518,-0.00117337,0.470524,-0.0451464,-0.0329173,0.525533
0.0123012,0.156844,-1.94074,0.254309,0.0427448,0.477314,-0.0571329,-0.0258968,0.519496
0.0113785,0.162267,-1.93156,0.290001,-0.00143403,0.428557,-0.0675338,-0.0333902,0.478285
0.00889735,0.168892,-1.92359,0.36508,-0.120481,0.376351,-0.0514191,-0.025971,0.4272
0.00401833,0.176612,-1.91607,0.388138,-0.246138,0.372031,-0.0338327,0.00807783,0.38881
-0.00403569,0.184115,-1.9089,0.360771,-0.426765,0.322952,-0.0506591,0.0324718,0.330106
-0.0141687,0.191733,-1.90311,0.427582,-0.432871,0.245997,-0.0649642,0.0432524,0.188562
-0.0213125,0.201915,-1.89828,0.609347,-0.149097,0.216694,-0.0780907,0.0841367,0.0401613
-0.0215847,0.21524,-1.89386,0.698101,0.178668,0.180473,-0.108386,0.122212,0.00327837
-0.0180348,0.228142,-1.8905,0.576154,0.194515,0.121088,-0.0791133,0.097048,0.0171581
-0.016726,0.237345,-1.88861,0.337567,-0.0526069,0.0470577,-0.0124914,0.0569151,-0.0112177
-0.0217241,0.241192,-1.88793,0.0531043,-0.445125,0.0221348,0.0444242,0.0291892,-0.1017
-0.0355159,0.239246,-1.88813,-0.275976,-0.996917,-0.0589944,0.0171171,0.0188766,-0.272382
-0.0602185,0.230008,-1.89191,-0.65055,-1.44466,-0.277979,-0.0546842,0.00642809,-0.534021
-0.0842746,0.215758,-1.90121,-0.804986,-1.10568,-0.517208,-0.070258,-0.0293352,-0.870158
-0.0978673,0.201577,-1.91465,-0.702757,-0.510285,-0.627492,-0.0274212,0.0388684,-1.05706
-0.101243,0.190181,-1.92742,-0.581538,-0.15034,-0.472101,0.040807,0.167171,-0.994677
-0.100967,0.180048,-1.93518,-0.487636,0.0617625,-0.190567,0.0734394,0.165664,-0.847301
-0.0956187,0.173003,-1.93787,-0.222844,0.421841,-0.0349693,0.0881274,0.0499637,-0.68764
-0.0846633,0.171391,-1.93814,0.0411502,0.635219,0.0225988,0.075236,-0.0203196,-0.418602
-0.0721246,0.173276,-1.9367,0.131405,0.618677,0.10999,0.0608968,-0.046981,-0.109714
-0.0614301,0.175722,-1.93357,0.131059,0.499391,0.167794,0.0486509,-0.0828869,0.134935
-0.0535757,0.178281,-1.93039,0.143007,0.336899,0.117385,0.0241367,-0.117614,0.308208
-0.0487025,0.181141,-1.92853,0.155868,0.195094,0.0578567,0.0242508,-0.116662,0.419011
-0.0458637,0.184453,-1.92747,0.184848,0.107772,0.0409498,0.0337478,-0.0839096,0.496011
-0.0450253,0.188766,-1.92616,0.253846,0.00583385,0.077435,0.0445767,-0.0425018,0.544245
-0.0460415,0.19494,-1.92363,0.38557,-0.0503069,0.14361,0.056216,-0.00610611,0.574197
-0.0478046,0.204364,-1.91969,0.578196,-0.0403394,0.197808,0.0438621,0.0236387,0.605284
-0.0499377,0.217518,-1.91465,0.754146,-0.0973722,0.221191,0.022053,0.0600906,0.661529
-0.0537137,0.233544,-1.90993,0.860419,-0.155229,0.135742,-0.00756899,0.0641447,0.692961
-0.0573275,0.250251,-1.90802,0.782288,-0.172506,-0.0542992,-0.00267053,0.0476655,0.728245
-0.0609697,0.263166,-1.91004,0.473367,-0.242858,-0.202382,0.0426291,0.054557,0.722017
-0.0661426,0.269294,-1.91439,0.122809,-0.408293,-0.246134,0.0937262,0.0860731,0.61212
-0.0738778,0.270035,-1.91938,-0.0418083,-0.458906,-0.236865,0.120803,0.128963,0.357587
-0.0806376,0.269388,-1.92452,-0.0616713,-0.344585,-0.267717,0.0538565,0.139737,0.097017
-0.0806376,0.269388,-1.92452,-0.0616713,-0.344585,-0.267717,0.0538565,0.139737,0.097017
-0.0834997,0.2676,-1.93086,-0.195766,-0.073458,-0.317645,0.03626,0.0958236,-0.110104
-0.0787382,0.261872,-1.93803,-0.424665,0.370258,-0.313465,0.0480973,0.0683831,-0.29798
-0.0657752,0.252233,-1.94442,-0.587499,0.719329,-0.239586,0.0126683,0.0435579,-0.448241
-0.0521074,0.23839,-1.95072,-0.840905,0.406803,-0.328396,-0.0832241,-0.0217348,-0.543317
-0.0457478,0.219724,-1.9612,-1.07544,0.0139852,-0.627831,-0.184097,-0.109432,-0.695153
-0.0446418,0.196446,-1.9779,-1.32026,-0.194472,-0.852432,-0.190225,-0.135259,-0.841881
-0.0436058,0.170255,-1.99534,-1.32397,0.0530162,-0.694501,-0.122398,-0.0753329,-0.984023
-0.0350325,0.147558,-2.00655,-0.951605,0.628518,-0.30389,-0.0977406,-0.0578716,-0.999557
-0.0182911,0.133829,-2.00986,-0.447554,0.933209,-0.0315204,-0.148316,-0.131768,-0.797438
-0.000467187,0.127945,-2.01034,-0.199653,0.781874,-0.0524399,-0.243098,-0.242048,-0.454402
0.0119448,0.123884,-2.0139,-0.236145,0.427942,-0.33253,-0.324384,-0.312468,-0.14453
0.0193645,0.117793,-2.02355,-0.359195,0.240613,-0.608544,-0.30495,-0.313235,0.0409647
0.0251847,0.109724,-2.03625,-0.408557,0.191826,-0.634918,-0.223349,-0.243157,0.14455
0.0293544,0.101775,-2.04733,-0.334147,0.104266,-0.475112,-0.162423,-0.180505,0.218365
0.0309752,0.0966847,-2.0552,-0.145107,-0.0265131,-0.337536,-0.158679,-0.151681,0.269816
0.029446,0.0955674,-2.06123,0.0410735,-0.179835,-0.281879,-0.167766,-0.142142,0.329493
0.0247565,0.0974529,-2.06693,0.158692,-0.337844,-0.285703,-0.148065,-0.128867,0.385911
0.0182383,0.101331,-2.07279,0.246012,-0.361273,-0.287035,-0.12938,-0.100075,0.401993
0.0115739,0.10736,-2.07818,0.371189,-0.344893,-0.232436,-0.0823079,-0.0539022,0.388524
0.00559256,0.116303,-2.08163,0.531478,-0.298044,-0.0946847,-0.0331428,0.003111,0.384922
0.000375092,0.128665,-2.08184,0.695474,-0.211104,0.0780892,0.00130635,0.045135,0.407795
-0.00383648,0.143476,-2.07887,0.78255,-0.186452,0.204733,0.00182854,0.0665073,0.459185
-0.00829151,0.15943,-2.07436,0.808766,-0.199015,0.213866,-0.029915,0.0528132,0.504053
-0.0137237,0.174835,-2.07078,0.713699,-0.323253,0.112085,-0.0381828,0.0311385,0.536268
-0.0236691,0.187254,-2.06939,0.541019,-0.656132,0.00805936,-0.0203261,0.0407147,0.492116
-0.0389679,0.197614,-2.0698,0.53517,-0.814196,-0.0720522,-0.00688998,0.0808825,0.268139
-0.052005,0.209891,-2.07109,0.691091,-0.429754,-0.10086,0.0152419,0.111109,-0.00935268
-0.0545302,0.224119,-2.07206,0.678328,0.120741,-0.0599571,0.0546658,0.12276,-0.123261
-0.0496588,0.235146,-2.07176,0.399715,0.307906,0.021157,0.0774776,0.109419,-0.124956
-0.0454848,0.240139,-2.07128,0.11368,0.0627827,-0.0372541,0.0469414,0.0402359,-0.178351
-0.049094,0.2392,-2.07559,-0.263172,-0.587024,-0.428093,-0.100684,-0.0151044,-0.256648
-0.0632745,0.230009,-2.09003,-0.720138,-1.06668,-0.897707,-0.148653,-0.0729477,-0.437159
-0.0788446,0.214884,-2.1124,-0.878094,-0.870925,-1.14134,-0.0709826,-0.0698169,-0.715762
-0.0833602,0.201426,-2.13697,-0.615091,-0.075209,-1.09858,-0.0131769,-0.000800073,-0.891052
-0.0749853,0.19479,-2.15726,-0.213855,0.436554,-0.82901,0.0451626,0.0546593,-0.795671
-0.0629275,0.194282,-2.17236,0.0204042,0.425388,-0.688522,0.0664635,-0.00464596,-0.518787
-0.0530468,0.195865,-2.18652,0.0318093,0.310053,-0.727763,0.0275481,-0.108867,-0.262062
-0.043576,0.196607,-2.20234,-0.0399027,0.346436,-0.830591,-0.0132159,-0.136414,-0.0749598
-0.0324022,0.195759,-2.21991,-0.103968,0.431918,-0.880748,-0.0264041,-0.117516,0.0703971
-0.0197873,0.194355,-2.23761,-0.0661787,0.471394,-0.850981,-0.0111652,-0.105847,0.188683
-0.00807528,0.194528,-2.25449,0.0681967,0.347082,-0.810881,0.00134625,-0.100032,0.295011
-0.000227929,0.197463,-2.27052,0.206743,0.118551,-0.768367,0.01034,-0.0908506,0.396049
0.00219727,0.202036,-2.2858,0.228429,-0.180279,-0.74174,0.0175159,-0.083424,0.489683
-0.000504508,0.205956,-2.30095,0.158223,-0.370153,-0.749437,0.0213373,-0.0733135,0.530578
-0.00521428,0.20871,-2.31628,0.119387,-0.394471,-0.755493,0.037587,-0.0589765,0.524016
-0.00899889,0.211349,-2.33176,0.147382,-0.294848,-0.768977,0.0458468,-0.052092,0.494891
-0.0102626,0.215644,-2.34734,0.285319,-0.173004,-0.753006,0.0558163,-0.0366949,0.465069
-0.0101813,0.223144,-2.3623,0.425396,-0.178071,-0.734345,0.0571851,-0.00132935,0.480573
-0.0124157,0.23137,-2.37776,0.357388,-0.402719,-0.787179,0.0674586,-0.00610152,0.504177
-0.0183726,0.237445,-2.39439,0.235477,-0.564945,-0.840392,0.0850557,-0.00728828,0.420493
-0.0248458,0.242316,-2.41185,0.236093,-0.426491,-0.856126,0.0546654,0.0560829,0.214244
-0.0248182,0.247701,-2.42859,0.247266,0.0329619,-0.774395,0.0512493,0.0853854,0.00177294
-0.0162932,0.251852,-2.44368,0.0976035,0.422289,-0.704772,0.0948799,-0.00180879,-0.14775
-0.00341922,0.250233,-2.45835,-0.303354,0.395796,-0.754955,0.0579391,-0.0255643,-0.251244
-0.00341922,0.250233,-2.45835,-0.303354,0.395796,-0.754955,0.0579391,-0.0255643,-0.251244
0.00465393,0.239514,-2.47638,-0.771864,-0.0397893,-1.03137,-0.0919387,-0.0203833,-0.460747
0.00487973,0.219416,-2.50099,-1.23135,-0.468724,-1.36994,-0.217577,0.010018,-0.72406
-0.00194467,0.190819,-2.53164,-1.58943,-0.813527,-1.63099,-0.355833,0.189572,-0.986155
-0.0115594,0.159537,-2.56588,-1.4704,-0.598107,-1.6817,-0.473726,0.314454,-1.2624
-0.00848964,0.136879,-2.59797,-0.780859,0.521458,-1.44009,-0.43826,0.306602,-1.36469
0.0169453,0.129593,-2.62369,0.0191539,1.58452,-1.1143,-0.360247,0.282185,-1.04762
0.0531549,0.133797,-2.64351,0.38016,1.61092,-0.861659,-0.325772,0.212134,-0.520957
0.0793832,0.139169,-2.66037,0.205268,0.699884,-0.822317,-0.36871,0.0924251,-0.0863345
0.0852977,0.138134,-2.6791,-0.142468,-0.329273,-1.06815,-0.40465,-0.0343633,0.114086
0.0760521,0.131734,-2.70273,-0.256355,-0.780018,-1.29559,-0.369952,-0.0724891,0.0770474
0.0661261,0.125747,-2.72934,-0.122636,-0.493293,-1.36691,-0.31931,-0.033535,0.0166847
0.0645166,0.123781,-2.75645,0.102857,-0.0120478,-1.32167,-0.26161,-0.00589899,0.0622448
0.0702892,0.12612,-2.78231,0.29647,0.196934,-1.23467,-0.202089,-0.00832327,0.2032
0.0763889,0.131627,-2.80701,0.418022,0.0661472,-1.17405,-0.156221,-0.0266963,0.351145
0.07821,0.13868,-2.83064,0.457011,-0.218478,-1.11467,-0.125262,-0.0370878,0.457526
0.0743148,0.145924,-2.85339,0.43115,-0.482477,-1.08713,-0.104097,-0.0468546,0.500771
0.0659199,0.152282,-2.87587,0.35366,-0.661669,-1.10535,-0.0944068,-0.0376672,0.492506
0.056447,0.156876,-2.89905,0.245049,-0.623471,-1.15439,-0.0651542,-0.0444964,0.41878
0.0484388,0.159601,-2.92258,0.155317,-0.552744,-1.1576,-0.0216967,-0.0462299,0.319247
0.0422976,0.161965,-2.94588,0.199638,-0.43948,-1.13076,0.01909,-0.0317817,0.183982
0.0370339,0.166411,-2.96813,0.341929,-0.463374,-1.03946,0.0676578,-0.000646636,0.0603843
0.0305917,0.174405,-2.98793,0.518704,-0.536102,-0.888386,0.120771,0.00210477,-0.045538
0.02115,0.185331,-3.0051,0.606278,-0.669197,-0.779449,0.120403,0.00925303,-0.170527
0.0131596,0.197673,-3.01974,0.631568,-0.348595,-0.641981,0.118613,0.0191117,-0.304211
0.0132875,0.209162,-3.03203,0.506469,0.120004,-0.571294,0.0682098,0.025893,-0.371231
0.0218127,0.216617,-3.04401,0.250101,0.421621,-0.598123,0.0462952,-0.0283284,-0.35368
0.033075,0.219022,-3.05726,0.0406507,0.375494,-0.706499,0.0284815,-0.0477396,-0.328104
0.0417829,0.217998,-3.07362,-0.0688796,0.136436,-0.902627,0.0045823,-0.0630066,-0.310729
0.0476462,0.215145,-3.09353,-0.121605,0.0655564,-1.03186,0.0185639,-0.0726136,-0.296395
0.0545674,0.212062,-3.11401,-0.0575684,0.196071,-0.953073,0.0550189,-0.0127603,-0.250586
0.0634913,0.212008,-3.13134,0.15645,0.352797,-0.7432,0.0906056,0.0249835,-0.130103
0.0752688,0.216124,3.13815,0.31689,0.527596,-0.581608,0.0952834,0.0168444,0.0458851
0.0894185,0.221283,3.12671,0.25296,0.626681,-0.501431,0.0710659,0.00793323,0.241525
0.104153,0.223346,3.11653,0.0386796,0.604318,-0.465888,0.0593996,-0.0161623,0.376433
0.116089,0.220615,3.10785,-0.214573,0.353636,-0.395452,0.0865028,-0.0191772,0.443362
0.119761,0.213947,3.1022,-0.341827,-0.10124,-0.216799,0.136393,0.00840016,0.387605
0.116013,0.207873,3.10101,-0.238495,-0.252706,0.0318143,0.163381,0.0500073,0.218797
0.109741,0.20431,3.10469,-0.186667,-0.296898,0.289771,0.176464,0.083598,0.0997757
0.101653,0.201192,3.11372,-0.217423,-0.342284,0.551148,0.18455,0.0852284,0.013742
0.0913779,0.198516,3.12733,-0.153284,-0.392274,0.738963,0.149082,0.0925388,-0.106402
0.0806266,0.198434,-3.13978,0.0104819,-0.363294,0.811099,0.0782678,0.100867,-0.204373
0.0705416,0.200986,-3.1237,0.101456,-0.353183,0.775911,0.0329712,0.0722547,-0.220473
0.0599126,0.203773,-3.10869,0.0668257,-0.398172,0.713429,0.0301835,0.0474892,-0.188539
0.0494884,0.204912,-3.09521,-0.0366734,-0.378676,0.611617,0.0193463,0.0495961,-0.161646
0.040122,0.20348,-3.08389,-0.140334,-0.314491,0.497477,-0.0013656,0.0578829,-0.15472
0.0338113,0.200942,-3.07459,-0.136031,-0.119564,0.408954,-0.0160348,0.0739663,-0.157781
0.0317499,0.199084,-3.06672,-0.0585185,0.0700032,0.37088,-0.0249072,0.0900142,-0.117444
0.033541,0.199566,-3.05919,0.0774058,0.234966,0.369902,-0.0323046,0.0998857,-0.0326971
0.0368068,0.202163,-3.05196,0.144797,0.212842,0.341576,-0.0535814,0.0919475,0.0907875
0.0381347,0.204967,-3.04529,0.0952226,0.0363265,0.32084,-0.0483138,0.0802745,0.207207
0.0349859,0.206119,-3.03895,0.00417152,-0.21066,0.304435,-0.0417762,0.0728571,0.25132
0.0284229,0.206458,-3.03308,0.0268286,-0.312762,0.265018,-0.0507648,0.0585708,0.213231
0.0213063,0.207402,-3.02868,0.0376809,-0.307117,0.157009,-0.0826462,0.0444039,0.186828
0.0213063,0.207402,-3.02868,0.0376809,-0.307117,0.157009,-0.0826462,0.0444039,0.186828
0.014314,0.207142,-3.0272,-0.0915882,-0.387297,-0.0156798,-0.107803,0.0319885,0.188056
0.00493293,0.203362,-3.0296,-0.270948,-0.611714,-0.224917,-0.100687,0.0183996,0.156704
-0.00701491,0.197421,-3.03624,-0.302472,-0.674442,-0.423577,-0.0841706,0.0196115,0.0464392
-0.0174365,0.191888,-3.04685,-0.268292,-0.55763,-0.606253,-0.0724229,0.0434189,-0.02952
-0.0243154,0.187094,-3.06034,-0.245811,-0.381066,-0.697037,-0.0543583,0.0691216,-0.0486557
-0.027271,0.183014,-3.07468,-0.192204,-0.187561,-0.695416,-0.019132,0.087588,-0.0402288
-0.0270052,0.181172,-3.08852,-0.0172594,-0.0359012,-0.662061,0.0124151,0.0903082,-0.0133685
-0.0239279,0.183246,-3.10133,0.179437,0.0932626,-0.605884,0.0308798,0.0820629,0.0553638
-0.0195666,0.188192,-3.11315,0.26925,0.118434,-0.571109,0.034433,0.0638834,0.165323
-0.0151433,0.193851,-3.12423,0.267104,0.116293,-0.525511,0.0394715,0.0435459,0.265596
-0.0108259,0.199346,-3.13438,0.273155,0.119116,-0.482304,0.0445774,0.0237117,0.330832
-0.00688819,0.204901,3.13927,0.272868,0.0715315,-0.464375,0.0459592,0.00925617,0.393059
-0.00470385,0.209979,3.12959,0.217904,-0.0631028,-0.503352,0.0322647,-0.0119737,0.449964
-0.00535663,0.213309,3.11839,0.105934,-0.22819,-0.599611,0.024736,-0.0369169,0.476086
-0.00787377,0.214658,3.10519,0.0329555,-0.287454,-0.691452,0.0336787,-0.0479881,0.437346
-0.010146,0.215252,3.0906,0.0215953,-0.238223,-0.720169,0.0597927,-0.0243371,0.368093
-0.0111299,0.216076,3.07674,0.054635,-0.174712,-0.626895,0.0915899,-0.00259718,0.299043
-0.0122641,0.218077,3.06499,0.143382,-0.195184,-0.541829,0.0727338,-0.000475183,0.213592
-0.0140794,0.221914,3.05438,0.217934,-0.205568,-0.502582,0.0552529,-0.0043142,0.094049
-0.0155234,0.22644,3.04425,0.200067,-0.156154,-0.500318,0.0756429,-0.0246201,-0.0503191
-0.0157064,0.228922,3.03455,0.00455806,-0.0831297,-0.436821,0.144157,-0.0410776,-0.168771
-0.0148506,0.226099,3.02736,-0.31476,0.00539509,-0.247937,0.18975,-0.0486653,-0.265549
-0.0135609,0.216413,3.02336,-0.650401,0.0136979,-0.16624,0.0969387,-0.0600833,-0.389657
-0.014323,0.200874,3.01867,-0.894696,-0.221507,-0.293492,-0.101978,-0.0618877,-0.554678
-0.0193696,0.182524,3.01083,-0.898554,-0.365745,-0.43299,-0.178707,-0.0674201,-0.734722
-0.0215378,0.168378,3.00165,-0.489869,0.0673435,-0.407593,-0.161645,-0.0307349,-0.867444
-0.0139692,0.163361,2.99567,-0.0719691,0.505948,-0.145154,-0.0928762,0.022392,-0.729459
-0.00500515,0.163434,2.9961,0.0354997,0.318727,0.169112,-0.020147,-0.026075,-0.440096
-0.00469045,0.1634,3.00072,-0.0586752,-0.248807,0.243918,-0.0502731,-0.109269,-0.247935
-0.014931,0.160613,3.00447,-0.221759,-0.646562,0.107705,-0.159166,-0.129139,-0.223002
-0.0275435,0.15507,3.00457,-0.307154,-0.536409,-0.0828222,-0.209927,-0.135971,-0.288512
-0.0332096,0.14979,3.0014,-0.199751,-0.0420983,-0.180234,-0.192541,-0.105729,-0.304666
-0.0277867,0.148305,2.99864,0.049578,0.506394,-0.0659853,-0.144473,-0.0497026,-0.19892
-0.0154407,0.151582,2.99909,0.257958,0.662484,0.093337,-0.107692,-0.0257098,0.0341462
-0.00409047,0.157874,3.00203,0.360066,0.49455,0.176282,-0.104633,-0.04229,0.256629
0.00258765,0.165416,3.00555,0.381209,0.224617,0.160531,-0.12566,-0.0496623,0.406955
0.00431548,0.172297,3.00813,0.295614,0.00652259,0.0929027,-0.132624,-0.042223,0.489579
0.00348008,0.176901,3.00927,0.160352,-0.0492434,0.0170412,-0.126351,-0.0300139,0.519559
0.00301835,0.178924,3.00893,0.050824,0.0140249,-0.0456577,-0.10937,-0.00980408,0.500694
0.00453057,0.179365,3.0079,0.000290256,0.113978,-0.0456943,-0.0846733,0.0026231,0.472106
0.00701819,0.179228,3.00747,-0.0105913,0.0998726,0.00445513,-0.0686427,0.0234235,0.461481
0.00734103,0.179296,3.00807,0.0245432,-0.0768062,0.0519181,-0.0595914,0.0347515,0.443675
0.00367658,0.180626,3.00966,0.117191,-0.237021,0.107306,-0.0424961,0.0435371,0.39527
-0.00167924,0.184221,3.01239,0.243018,-0.216146,0.163208,-0.0395479,0.0603936,0.340622
-0.00525844,0.190131,3.01647,0.33435,-0.070198,0.238843,-0.029428,0.0814281,0.329866
-0.0077498,0.196496,3.0218,0.289132,-0.112487,0.27143,-0.0410444,0.0836924,0.350844
-0.0125459,0.201521,3.02704,0.237806,-0.248589,0.232582,-0.0448067,0.0590003,0.2971
-0.0181811,0.206901,3.03144,0.332424,-0.194278,0.199092,-0.030639,0.0634298,0.169642
-0.0217863,0.215152,3.03605,0.498067,-0.108472,0.250151,0.00666441,0.0854442,0.065152
-0.0275103,0.225543,3.04239,0.529812,-0.349163,0.345402,0.0421453,0.0796845,-0.0333407
-0.0377425,0.234877,3.05073,0.414384,-0.430002,0.431979,0.0717622,0.0501209,-0.203412
-0.0478726,0.24008,3.05989,0.104674,-0.386759,0.418742,0.0730932,0.0203877,-0.331384
-0.0584885,0.237204,3.06733,-0.347222,-0.507992,0.307116,-0.00696339,-0.0022579,-0.446381
-0.0688511,0.22794,3.071,-0.478749,-0.376272,0.0947722,-0.0803521,-0.050182,-0.658438
-0.0688511,0.22794,3.071,-0.478749,-0.376272,0.0947722,-0.0803521,-0.050182,-0.658438
-0.0734457,0.2204,3.06984,-0.269961,-0.148438,-0.141805,-0.0899401,-0.0712361,-0.7756
-0.0757329,0.216587,3.06539,-0.185049,-0.188763,-0.243089,-0.0533502,-0.0207284,-0.686746
-0.0775379,0.212534,3.05979,-0.279017,-0.0541397,-0.273426,-0.0124174,-0.00413488,-0.578828
-0.0736286,0.20679,3.05342,-0.330815,0.31374,-0.303665,0.0191384,-0.0390498,-0.48703
-0.0640045,0.20053,3.04672,-0.340655,0.449666,-0.306321,0.0436972,-0.0520321,-0.318463
-0.0552677,0.194016,3.04009,-0.356645,0.271406,-0.313142,0.0584604,-0.0727635,-0.149502
-0.0509971,0.186775,3.03266,-0.420769,0.0262343,-0.387796,0.055017,-0.0983517,-0.0336838
-0.0498982,0.178068,3.02359,-0.487919,-0.0433421,-0.457723,0.0543379,-0.105083,0.0160745
-0.0483289,0.16865,3.01348,-0.490706,0.0385081,-0.481071,0.0722524,-0.0948594,0.0395472
-0.0450089,0.160146,3.0037,-0.388268,0.134008,-0.431315,0.0917813,-0.0790935,0.0741254
-0.0405339,0.154544,2.99564,-0.204179,0.178577,-0.339855,0.112077,-0.0699631,0.13113
-0.036546,0.152436,2.98958,-0.0435345,0.106455,-0.255946,0.109005,-0.0564973,0.215802
-0.0348318,0.152743,2.98495,0.0520607,0.000483554,-0.211068,0.0888322,-0.0512653,0.289455
-0.0346549,0.154885,2.98085,0.148266,-0.0384172,-0.206765,0.0718004,-0.0478669,0.332269
-0.0344979,0.159262,2.97698,0.27759,0.0186477,-0.188808,0.0698518,-0.0263469,0.364122
-0.032812,0.1661,2.9739,0.386679,0.0880527,-0.134656,0.0661528,0.0103082,0.416645
-0.0306597,0.174505,2.97194,0.44624,0.0831253,-0.0941876,0.0517501,0.026968,0.483846
-0.0294354,0.184007,2.9703,0.498719,-0.0020843,-0.108042,0.043003,0.0211808,0.529186
-0.030304,0.194471,2.96764,0.538868,-0.1333,-0.193779,0.0266155,0.0208691,0.543016
-0.032696,0.205358,2.96267,0.515308,-0.204403,-0.336178,0.0076503,0.0302572,0.530665
-0.0359162,0.214501,2.95449,0.361581,-0.281552,-0.485466,0.023489,0.0558616,0.492566
-0.0389965,0.220234,2.94414,0.176162,-0.230068,-0.54078,0.0599261,0.105192,0.399863
-0.0395232,0.223126,2.93319,0.09547,-0.0488713,-0.524945,0.0991872,0.146023,0.236763
-0.0362207,0.225785,2.92323,0.145084,0.136938,-0.461103,0.123016,0.138316,0.0590777
-0.0313081,0.229403,2.91443,0.154641,0.125672,-0.404906,0.14912,0.0900064,-0.0615261
-0.0289092,0.230448,2.90728,-0.0958764,-0.0884601,-0.276021,0.186787,0.0509839,-0.156222
-0.0323786,0.225383,2.90257,-0.436349,-0.359672,-0.213109,0.139251,-0.0106972,-0.333755
-0.0414423,0.213009,2.89602,-0.812924,-0.642836,-0.400137,-0.0597561,-0.027093,-0.585314
-0.0505645,0.195604,2.88551,-0.915738,-0.416285,-0.526017,-0.12872,-0.056526,-0.874037
-0.0507645,0.180184,2.87446,-0.642515,0.246828,-0.441611,-0.146246,-0.00140746,-1.03214
-0.0376639,0.171666,2.8676,-0.25712,0.859262,-0.194357,-0.172783,0.0446644,-0.920564
-0.020685,0.168561,2.86489,-0.108665,0.676432,-0.0991471,-0.15858,-0.0177073,-0.614283
-0.0118163,0.165863,2.86247,-0.195699,0.16761,-0.15328,-0.13834,-0.121503,-0.38011
-0.0114127,0.160652,2.85852,-0.308067,-0.119365,-0.21837,-0.134349,-0.134487,-0.307436
-0.0126581,0.154964,2.85441,-0.242024,-0.0189515,-0.173842,-0.111349,-0.085432,-0.30085
-0.0105201,0.151296,2.85175,-0.128647,0.185473,-0.0692107,-0.0810767,-0.0517955,-0.210163
-0.00530192,0.149831,2.8517,-0.0170582,0.316881,0.0693957,-0.0359256,-0.0490326,-0.0723289
0.00038662,0.150828,2.85453,0.118335,0.280578,0.211912,-0.00631783,-0.0614748,0.0818325
0.00375586,0.154308,2.86028,0.217367,0.135668,0.351825,-0.0112337,-0.0709132,0.230436
0.00362064,0.158987,2.86801,0.231769,-0.0176385,0.393138,-0.0506177,-0.0865249,0.352189
0.000850969,0.163089,2.87561,0.170253,-0.135276,0.35297,-0.0726017,-0.0985734,0.432516
-0.00349551,0.165921,2.88204,0.119844,-0.161012,0.283199,-0.0704508,-0.0924993,0.456201
-0.00677426,0.16832,2.88733,0.133643,-0.0790624,0.243986,-0.0420123,-0.0645905,0.454671
-0.00824227,0.17155,2.8925,0.193586,0.0192844,0.264885,-0.0131648,-0.0297297,0.468702
-0.00882525,0.176082,2.89827,0.264958,0.0144376,0.311861,0.00742227,-0.00596388,0.495943
-0.00978494,0.182269,2.90569,0.358827,0.0268344,0.409315,0.0291082,0.0157797,0.512776
-0.0112441,0.18979,2.91451,0.39379,-0.028806,0.440132,0.0224862,0.0241475,0.535693
-0.0156036,0.197238,2.92339,0.357331,-0.262161,0.423726,0.0411794,0.00885837,0.54023
-0.025537,0.203779,2.93192,0.319583,-0.557485,0.407833,0.0526244,0.0289402,0.459916
-0.0404319,0.209855,2.94046,0.319656,-0.720055,0.422073,0.056624,0.0692032,0.313032
-0.0562037,0.216079,2.95027,0.35182,-0.580377,0.51704,0.0814029,0.0911258,0.131453
-0.0657384,0.223042,2.96252,0.41814,-0.112252,0.63632,0.0681379,0.0873015,-0.0281591
-0.0693894,0.230459,2.9767,0.391373,-0.0121332,0.676409,0.0583912,0.0618445,-0.110217
-0.0741324,0.235983,2.99039,0.241418,-0.127184,0.601537,0.0256099,0.0170016,-0.230916
-0.0741324,0.235983,2.99039,0.241418,-0.127184,0.601537,0.0256099,0.0170016,-0.230916
-0.0794738,0.237586,3.0014,-0.0355046,-0.163678,0.43749,0.00461975,-0.0461067,-0.376541
-0.0860708,0.231866,3.00767,-0.494046,-0.368771,0.221442,-0.0444334,-0.0474892,-0.492369
-0.0950221,0.218947,3.00944,-0.705958,-0.420403,0.0831239,-0.0580206,-0.0501475,-0.704592
-0.100962,0.206503,3.0093,-0.490867,-0.156094,0.0407666,-0.0193924,-0.0361877,-0.864792
-0.101079,0.199831,3.01006,-0.187298,0.123213,0.116757,0.00749891,0.0218368,-0.806473
-0.0987805,0.196971,3.01286,-0.12153,0.129134,0.173874,0.0287047,0.0299439,-0.586052
-0.0977075,0.192677,3.01518,-0.311196,0.0144333,0.0778515,-0.00139047,-0.0187484,-0.372963
-0.0977129,0.184629,3.01453,-0.466271,0.0171749,-0.0611634,-0.00601394,-0.0465822,-0.283571
-0.0950733,0.176017,3.01165,-0.388185,0.190618,-0.128059,0.0177798,-0.0357059,-0.249252
-0.0892683,0.170335,3.0085,-0.210865,0.344133,-0.114271,0.0478206,-0.00669576,-0.14129
-0.0812055,0.167385,3.00663,-0.112996,0.397799,-0.0400335,0.0799063,0.00586838,0.0223558
-0.0733971,0.165554,3.00638,-0.077209,0.368137,0.0236806,0.0865956,0.00232314,0.170531
-0.0673761,0.164268,3.00739,-0.0411347,0.281883,0.0837901,0.0832646,0.00122234,0.270067
-0.0621765,0.163768,3.00949,0.0062922,0.269642,0.120798,0.0703383,0.00709164,0.338183
-0.0576419,0.164325,3.0121,0.0637114,0.225252,0.126179,0.0591686,0.00776331,0.399182
-0.0542477,0.165968,3.01432,0.104769,0.151852,0.0768932,0.049753,0.00305167,0.451575
-0.0519834,0.168138,3.01568,0.116582,0.092932,0.0561621,0.0605351,0.00883836,0.485421
-0.051297,0.170428,3.01719,0.126204,0.000899652,0.0868033,0.0786842,0.0224483,0.499154
-0.0522816,0.173776,3.01947,0.233866,-0.0425838,0.117136,0.0894499,0.0205434,0.47105
-0.0531732,0.179651,3.02191,0.357972,-0.00323583,0.0743682,0.0623789,0.0170496,0.465731
-0.0533475,0.187173,3.0229,0.388765,-0.00703733,-0.0151527,0.041603,0.00250296,0.490612
-0.053409,0.194748,3.02181,0.347635,-0.0234565,-0.137996,0.0455538,-0.0102318,0.489219
-0.0543862,0.20088,3.01797,0.245022,-0.168195,-0.263638,0.048826,0.00388326,0.449634
-0.0571377,0.205468,3.01205,0.19944,-0.1906,-0.332506,0.0626193,0.0265042,0.333188
-0.057712,0.210561,3.00513,0.290002,0.0426675,-0.36975,0.0400334,0.0673918,0.167997
-0.0528322,0.217815,2.99807,0.377249,0.216973,-0.352377,0.038651,0.0794691,0.0717962
-0.0473676,0.22522,2.99192,0.317473,0.247089,-0.282561,0.0480767,0.0500264,-0.0231743
-0.0393109,0.229235,2.98623,-0.0034322,0.421206,-0.325093,0.0208014,0.0186906,-0.118358
-0.0295693,0.224252,2.97853,-0.50495,0.347804,-0.385505,0.0256204,-0.0263564,-0.217665
-0.0225391,0.211304,2.97068,-0.786192,0.18576,-0.379441,-0.0245796,-0.0783051,-0.420119
-0.0202415,0.193512,2.96022,-1.01271,-0.203647,-0.649911,-0.24622,-0.0509947,-0.610327
-0.0241717,0.172348,2.94303,-1.11221,-0.427763,-0.975941,-0.293938,-0.0608801,-0.806988
-0.0271553,0.151662,2.92183,-0.97736,-0.119578,-1.00132,-0.225204,0.00561944,-0.97066
-0.0205079,0.135952,2.90461,-0.615703,0.529374,-0.626211,-0.151527,0.0848283,-0.979696
-0.00471211,0.128355,2.8964,-0.16287,0.862974,-0.211187,-0.125057,0.0632446,-0.767881
0.0113574,0.128406,2.89407,0.124884,0.647614,-0.0645658,-0.156894,-0.0476518,-0.468242
0.0202549,0.131488,2.8923,0.154425,0.224332,-0.125233,-0.20857,-0.126276,-0.226609
0.0225022,0.133709,2.88878,0.0772861,0.0231459,-0.209071,-0.246817,-0.131445,-0.0940765
0.0241659,0.134994,2.88435,0.0888484,0.105446,-0.220775,-0.232409,-0.122602,-0.031131
0.0285685,0.137874,2.87993,0.209007,0.294886,-0.217496,-0.214466,-0.122587,0.0479676
0.0363985,0.142621,2.8752,0.2799,0.394032,-0.236464,-0.202265,-0.126783,0.166483
0.0449174,0.148682,2.86958,0.348256,0.358913,-0.310282,-0.211155,-0.134596,0.273721
0.0511597,0.15549,2.86148,0.357233,0.11286,-0.46143,-0.210051,-0.135922,0.374262
0.0523327,0.1615,2.85064,0.299613,-0.147868,-0.55928,-0.155785,-0.122923,0.429575
0.0496548,0.166331,2.8393,0.250088,-0.277754,-0.515817,-0.0928336,-0.0796589,0.421736
0.0458942,0.170968,2.82963,0.269531,-0.234155,-0.418411,-0.072385,-0.0434565,0.381264
0.0443239,0.176705,2.82136,0.339218,-0.0842834,-0.381398,-0.093012,-0.0433139,0.355074
0.0449282,0.184158,2.81303,0.440079,0.0121237,-0.430141,-0.116343,-0.0630056,0.346158
0.0467717,0.193335,2.80295,0.530277,-0.0585425,-0.508712,-0.112702,-0.0580195,0.371012
0.0473203,0.204483,2.79186,0.629873,-0.0445451,-0.520925,-0.0526342,-0.0414159,0.363568
0.0500559,0.216176,2.78076,0.567763,0.066688,-0.5037,-0.0330928,-0.0124323,0.372428
0.0531361,0.225815,2.77087,0.454527,-0.0112522,-0.407392,0.0120344,-0.0301273,0.360703
0.0519298,0.233604,2.76294,0.373952,-0.299978,-0.344484,0.00327542,-0.0371306,0.301285
0.0455934,0.240766,2.75492,0.403291,-0.481932,-0.4236,-0.0835238,-0.0399045,0.151558
0.0455934,0.240766,2.75492,0.403291,-0.481932,-0.4236,-0.0835238,-0.0399045,0.151558
0.039582,0.249624,2.74438,0.552976,-0.342145,-0.551212,-0.133133,-0.0252074,-0.0470887
0.0383527,0.262659,2.73241,0.792617,-0.0561246,-0.535367,-0.0706432,0.0130826,-0.175358
0.0424175,0.278152,2.72164,0.731891,0.081114,-0.426255,0.0209775,0.0137762,-0.171701
0.0437559,0.288929,2.71417,0.369794,-0.1248,-0.252024,0.0839258,-0.00102451,-0.173761
0.0426267,0.292546,2.70885,0.0113363,-0.142754,-0.299406,0.039809,-0.0609441,-0.2918
0.0412124,0.287873,2.69994,-0.456683,-0.316642,-0.587766,-0.091263,-0.0622939,-0.390154
0.0364273,0.274749,2.68567,-0.743341,-0.526885,-0.812819,-0.103367,-0.0514942,-0.565199
0.0305095,0.260201,2.66849,-0.601661,-0.445382,-0.869162,-0.0536173,0.0090296,-0.742089
0.0306038,0.251482,2.65188,-0.223507,0.0766915,-0.746841,-0.0154915,0.082259,-0.757495
0.0396185,0.249287,2.63848,-0.00478117,0.406576,-0.577649,0.0120466,0.109842,-0.546397
0.049669,0.248699,2.62741,-0.0400529,0.326769,-0.510962,0.032888,0.0480229,-0.273463
0.057549,0.246133,2.61718,-0.164185,0.224476,-0.500893,0.0145135,0.0043368,-0.104406
0.0641867,0.24137,2.60726,-0.237821,0.196231,-0.483687,-0.0196043,0.00363527,-0.0187657
0.0702479,0.235992,2.59803,-0.23014,0.17896,-0.450935,-0.0340039,0.002377,0.041876
0.0742219,0.231426,2.58953,-0.164425,0.0326455,-0.408638,-0.0287503,-0.00401728,0.105792
0.0752428,0.227842,2.58188,-0.153716,-0.140411,-0.35677,-0.0341207,-0.0120394,0.176646
0.0718787,0.224122,2.57566,-0.179983,-0.301324,-0.28066,-0.0348643,-0.0184872,0.213668
0.0664075,0.219815,2.57104,-0.206656,-0.351267,-0.196465,-0.0435369,-0.0120839,0.195772
0.0605604,0.216553,2.56797,-0.0752277,-0.281413,-0.140087,-0.0809298,-0.0131931,0.139557
0.0561227,0.217211,2.56465,0.161187,-0.242358,-0.206022,-0.137035,-0.014458,0.118367
0.0531962,0.22201,2.55863,0.323453,-0.1974,-0.356441,-0.160295,-0.0241029,0.150438
0.050339,0.227797,2.55011,0.272898,-0.280891,-0.435696,-0.11373,-0.00947346,0.228731
0.0463082,0.231334,2.54081,0.122188,-0.33504,-0.448448,-0.0518181,-0.000764951,0.247739
0.0407282,0.232103,2.53155,0.00592186,-0.441618,-0.451013,-0.031843,-0.00302261,0.198162
0.0330553,0.231212,2.52227,-0.0650034,-0.534468,-0.464182,-0.041325,0.000122875,0.100238
0.0245859,0.229247,2.51225,-0.109623,-0.498328,-0.534034,-0.0694724,-0.00728345,-0.0171181
0.0205715,0.226335,2.50006,-0.167292,-0.149258,-0.667926,-0.106074,-0.0251505,-0.133956
0.0240841,0.222799,2.48568,-0.0327468,0.137605,-0.748684,-0.0999329,0.00440744,-0.161826
0.0258353,0.223925,2.46996,0.0621712,-0.354192,-0.73392,-0.00954706,0.0220305,-0.134163
0.0191604,0.221593,2.45583,-0.293543,-0.584162,-0.690172,-0.0138689,-0.0301247,-0.0990628
0.0130674,0.211099,2.43964,-0.731634,-0.306896,-0.94135,-0.146719,-0.0350332,-0.160039
0.0155095,0.19312,2.41788,-0.985562,0.0805891,-1.20287,-0.137474,-0.0448647,-0.221726
0.0230444,0.174212,2.39363,-0.81572,0.17402,-1.17227,-0.062763,-0.0126113,-0.271013
0.0284886,0.16149,2.37222,-0.378968,0.0406566,-0.971867,-0.0576092,0.0247261,-0.275878
0.0328167,0.15814,2.35423,0.0683356,0.113698,-0.850339,-0.117881,0.00268164,-0.21525
