rotationRate_x,rotationRate_y,rotationRate_z,acceleration_x,acceleration_y,acceleration_z,relativeAltitude
0.298948,-0.191346,-0.506956,0.00321665,-0.0853597,0.124947,0
0.313273,-0.626471,-0.664505,-0.00480805,-0.0564377,0.0476658,0
0.368469,-0.771026,-0.827212,0.00579484,-0.0242597,0.005,0
0.395664,-0.74824,-0.912898,0.0253861,-0.0260191,-0.00887346,0
0.475054,-0.570786,-1.01683,0.0109726,0.0310568,-0.0143819,0
0.455052,-0.541875,-0.967058,0.0055545,-0.0325806,-0.103586,0
0.308823,-0.452277,-0.901161,0.00613582,-0.0139992,-0.0794209,0
0.140467,-0.358935,-0.757368,0.00592002,-0.0627668,-0.0725602,0
-0.057557,-0.280747,-0.686937,-0.0125653,-0.0902594,-0.044892,0
-0.320924,-0.336205,-0.870922,-0.0337821,-0.0287582,-0.103031,0
-0.418198,-0.177259,-1.06693,-0.034054,-0.0381597,-0.0905412,0
-0.355248,-0.0354539,-1.13945,-0.0483733,-0.0155038,-0.0662317,0
-0.171879,-0.108104,-1.11413,-0.0610247,-0.00427499,-0.0970706,0
0.0918725,-0.198942,-1.08243,-0.0652227,0.00517605,-0.0704743,0
0.323645,-0.418449,-1.14021,-0.0562031,0.0213888,-0.0746288,0
0.469265,-0.526185,-1.23832,-0.06543,0.0398969,-0.0164975,0
0.445293,-0.567973,-1.34668,-0.100506,0.0782213,-0.0177124,0
0.268842,-0.306086,-1.39804,-0.140774,0.108442,0.042017,0
0.0447267,-0.186435,-1.34583,-0.119486,0.107291,0.0248799,0
-0.053251,-0.0965102,-1.2162,-0.0985335,0.0853437,0.0440764,0
-0.0508797,-0.0865367,-1.09037,-0.0712369,0.0706692,0.0597437,0
-0.00114436,-0.0963366,-0.932147,-0.0570492,0.03817,0.0942133,0
0.10971,-0.106319,-0.792843,-0.0434827,0.000598617,0.124291,0
0.191552,-0.0664578,-0.687476,-0.0420547,-0.0406687,0.170075,0
0.16026,-0.17151,-0.676793,-0.0324075,-0.0609561,0.159802,0
0.0655565,-0.204925,-0.736087,-0.0381646,-0.0835957,0.196022,0
-0.143167,-0.230534,-0.809963,-0.0317039,-0.08611,0.170014,0
-0.281678,-0.143118,-0.782715,-0.0273144,-0.0894568,0.166005,0
-0.299224,-0.0648326,-0.660431,-0.015167,-0.0845172,0.107327,0
-0.144714,0.0608868,-0.49314,-0.0226037,-0.0777013,0.0910765,0
-0.0193758,-0.00990658,-0.39961,-0.012829,-0.0847322,0.0575162,0
0.0986665,-0.0110855,-0.369521,-0.0270503,-0.0868312,0.0412122,0
0.156447,-0.00952033,-0.360486,-0.021627,-0.0893268,0.0286546,0
0.0869227,-0.108276,-0.355848,-0.00693428,-0.0923783,0.0101812,0
0.0688627,-0.162487,-0.334532,0.00245602,-0.0937761,-0.0117905,0
0.184856,-0.124413,-0.260309,-0.00426269,-0.0932243,-0.00355428,0
0.257832,-0.115091,-0.197572,-0.00158384,-0.104842,-0.0266376,0
0.368002,-0.156112,-0.169386,-0.00939798,-0.111793,-0.0341219,0
0.450682,-0.29105,-0.235964,0.00768111,-0.125862,-0.0713447,0
0.441798,-0.347904,-0.314954,0.00192813,-0.126624,-0.0845633,0
0.376748,-0.248315,-0.296542,0.0360105,-0.186122,-0.0945128,0
0.255386,-0.161219,-0.300919,0.0423258,-0.178139,-0.113919,0
-0.156196,-0.0775952,-0.416715,0.0167779,-0.118073,-0.142229,0
-0.63632,-0.113694,-0.579023,-0.0310975,-0.00183587,-0.241801,0
-0.653398,0.0349799,-0.626708,0.00399216,0.0316192,-0.242493,0
-0.363115,0.105186,-0.528329,0.030855,0.0828836,-0.283003,0
0.132891,0.262479,-0.230152,0.0108846,0.11731,-0.170547,0
0.468492,0.273493,0.0472434,0.0184466,0.0802351,-0.0463613,0
0.411813,0.00094407,0.115712,0.0459481,0.0188403,0.0348529,0
0.167176,-0.399934,0.0393885,0.0343333,0.00719797,0.0525084,0
-0.0388136,-0.457116,-0.124487,0.0072337,0.0285958,0.0702879,0
-0.0388136,-0.457116,-0.124487,0.0072337,0.0285958,0.0702879,0
-0.220256,-0.30723,-0.180968,-0.00695331,0.0650228,0.0304958,0
-0.288164,-0.0838466,-0.116043,-0.021048,0.102558,-0.0172706,0
-0.21218,0.0651435,-0.0559002,-0.046225,0.139881,-0.0543932,0
0.05928,0.183089,0.00492904,-0.0541649,0.136547,-0.00808775,0
0.290429,0.0982899,0.00373198,-0.0519136,0.112487,0.030607,0
0.422558,-0.0687105,-0.05723,-0.0560617,0.0797109,0.105217,0
0.418934,-0.24129,-0.167097,-0.0610755,0.0582521,0.164388,0
0.344512,-0.279081,-0.341957,-0.072072,0.0554272,0.193002,0
0.30981,-0.222391,-0.510037,-0.0797962,0.0632931,0.208278,0
0.275088,-0.112279,-0.585091,-0.0642985,0.0584062,0.225514,0
0.199031,0.0527236,-0.566494,-0.0491914,0.0518919,0.243795,0
0.131982,0.078682,-0.524128,-0.0245087,0.0436568,0.230507,0
0.185741,-0.0334255,-0.465175,-0.00323749,0.0295372,0.218519,0
0.282839,-0.176823,-0.430673,0.00351974,0.0187962,0.218822,0
0.288639,-0.306935,-0.471515,0.00655877,0.0176726,0.209551,0
0.238303,-0.298704,-0.53892,0.000328399,0.0215045,0.208641,0
0.177632,-0.166005,-0.553845,0.00219937,0.0256725,0.220748,0
0.181325,0.0826637,-0.483845,0.00479349,0.0142801,0.243539,0
0.195243,0.265951,-0.391017,0.0185858,-0.000273108,0.266986,0
0.132454,0.221604,-0.335896,0.0501703,-0.0251414,0.255363,0
0.0421859,-0.00669751,-0.315241,0.052081,-0.0342119,0.210839,0
0.0541332,-0.165477,-0.35023,0.0376451,-0.0135058,0.159433,0
0.283625,-0.125082,-0.411796,0.0191992,-0.00253038,0.115878,0
0.637932,0.150051,-0.448193,-0.0286572,0.0392688,0.0991665,0
0.959748,0.398013,-0.46607,0.0186152,-0.0162014,0.0750874,0
0.907151,0.00256029,-0.5663,0.0688299,-0.085115,-0.0103664,0
-0.0850937,-1.09748,-0.863539,0.0703247,-0.0376102,-0.265713,0
-0.937196,-1.33586,-1.09042,-0.0197215,0.0501459,-0.314623,0
-0.769405,-0.616168,-1.15358,-0.111263,0.167802,-0.34172,0
-0.0969924,-0.130387,-0.953646,-0.046041,0.0534253,-0.407688,0
0.147697,-0.667715,-0.853093,0.0151363,0.0466971,-0.471079,0
-0.205642,-1.07958,-0.653739,0.0251165,0.020344,-0.402791,0
-0.536628,-0.845556,-0.259047,-0.0101246,0.00203674,-0.294713,0
-0.665163,-0.294501,0.183619,-0.0377282,-0.0178165,-0.230589,0
-0.626707,0.109903,0.526402,-0.0538685,-0.0436094,-0.178035,0
-0.526043,0.145105,0.625731,-0.0915113,-0.0608827,-0.128424,0
-0.510532,0.0872234,0.436605,-0.106488,-0.0766171,-0.0585648,0
-0.508351,0.0628029,0.170611,-0.0973624,-0.0993559,0.0125065,0
-0.404095,0.0575526,0.0310156,-0.0697817,-0.118496,0.0930418,0
-0.210706,0.0922935,0.0263455,-0.047943,-0.131738,0.15638,0
-0.0221786,0.105103,0.0011112,-0.0332418,-0.119571,0.221059,0
0.0541483,0.061109,-0.0713257,-0.0295637,-0.0951922,0.262267,0
0.0185468,0.000957978,-0.160069,-0.0177493,-0.0722414,0.294496,0
-0.0585385,-0.0740679,-0.217393,0.00355704,-0.0517793,0.293641,0
-0.0587292,-0.0913343,-0.207392,0.0122572,-0.0269079,0.291435,0
0.00657012,-0.058557,-0.172509,0.00454351,0.00569177,0.276032,0
0.099686,-0.0919434,-0.12457,0.0235871,0.0187914,0.252726,0
0.149266,-0.215022,-0.0877872,0.0406447,0.0385299,0.206971,0
0.154718,-0.247618,-0.0392633,0.0320695,0.0553027,0.158683,0
0.196424,-0.105872,0.048198,0.00947072,0.0741271,0.117643,0
0.196424,-0.105872,0.048198,0.00947072,0.0741271,0.117643,0
0.284775,-0.0334127,0.14641,0.00454434,0.0856791,0.0498317,0
0.498291,0.099441,0.276026,-0.00124335,0.0792481,0.0325404,0
0.765409,0.271829,0.454499,-0.0230441,0.0450085,0.0274501,0
0.900587,0.233762,0.53249,-0.027422,-0.0331444,0.014502,0
0.611374,-0.490044,0.324721,-0.033055,-0.0451487,-0.194561,0
0.264158,-0.960659,-0.125126,-0.0760759,-0.0274119,-0.302244,0
0.0674539,-0.634613,-0.58566,-0.146734,0.0495849,-0.351969,0
0.0537804,-0.0239352,-0.765057,-0.146901,0.0738924,-0.366458,0
0.00997195,0.247993,-0.608588,-0.0781255,0.00734812,-0.359541,0
-0.167452,-0.0140493,-0.438451,-0.020792,-0.020699,-0.342722,0
-0.362485,-0.322888,-0.419394,0.021393,-0.0212774,-0.274585,0
-0.449525,-0.235765,-0.401165,0.0357831,-0.0251166,-0.147109,0
-0.495941,0.0868668,-0.298777,0.0648421,-0.0373493,-0.0536054,0
-0.382534,0.389861,-0.147087,0.108439,-0.0549383,0.0521179,0
-0.246298,0.276079,-0.0144077,0.151682,-0.0565509,0.106511,0
-0.170424,-0.0205949,0.0920859,0.169502,-0.0661115,0.154184,0
-0.0857215,-0.255404,0.145712,0.168345,-0.0449111,0.212751,0
0.0241326,-0.396936,0.169476,0.155521,-0.0203086,0.269137,0
0.106196,-0.405283,0.111167,0.143025,0.0151125,0.305462,0
0.129749,-0.407966,0.0126417,0.136066,0.0384909,0.291337,0
0.0995918,-0.350816,-0.035314,0.122229,0.0527402,0.273046,0
0.0239831,-0.232761,-0.0733941,0.109354,0.0653276,0.231717,0
-0.0198933,-0.0200819,-0.125393,0.0789154,0.0796031,0.20115,0
-0.050986,0.0811678,-0.215959,0.0388397,0.0877913,0.144154,0
-0.107792,0.186425,-0.3783,0.0385218,0.0914095,0.117651,0
-0.199629,0.297701,-0.484251,0.0349672,0.0995022,0.072164,0
-0.146903,0.484325,-0.391584,0.0256777,0.0951292,0.0431508,0
0.101663,0.555471,-0.141348,0.0247758,0.0679923,0.0129583,0
0.430516,0.348879,0.100176,0.0173564,-0.00396137,-0.0645397,0
0.641461,-0.00133757,-0.0182727,-0.0108155,-0.00623752,-0.184856,0
0.935294,-0.319353,-0.47935,-0.0221902,0.00848863,-0.274394,0
1.33066,-0.602762,-0.839204,-0.0897605,0.051888,-0.337313,0
1.61881,-0.568811,-0.969319,-0.141692,0.0961602,-0.238194,0
1.5129,-0.276485,-0.76762,-0.0364068,-0.0798778,-0.0895556,0
0.493877,-0.542123,-0.572852,0.101864,-0.288333,-0.109271,0
-1.09154,-0.471355,-0.578394,-0.0695297,-0.190331,-0.0843343,0
-2.21075,0.462928,-0.811643,-0.232989,-0.0925559,-0.0708801,0
-2.32373,1.44243,-1.06064,-0.214127,-0.0510647,-0.176277,0
-1.61408,2.07977,-0.931993,-0.114614,-0.100853,-0.121965,0
-0.800484,1.75651,-0.543834,-0.0731238,-0.116424,-0.09979,0
-0.136791,1.02422,-0.232013,-0.0301042,-0.142568,0.0178985,0
0.272061,0.387013,-0.147039,-0.00317995,-0.141054,0.158279,0
0.449727,0.0682544,-0.145027,0.0126021,-0.110167,0.326849,0
0.290354,-0.140936,-0.123859,0.0163538,-0.0429859,0.380622,0
-0.194677,-0.249005,-0.137194,0.0150959,0.0210751,0.345897,0
-0.707018,-0.160105,-0.206813,0.0775009,0.0438344,0.281844,0
-0.860751,0.0715131,-0.110161,0.11031,0.050928,0.218614,0
-0.69941,0.344452,0.158897,0.115458,0.0664478,0.163619,0
-0.391192,0.472315,0.490581,0.115278,0.0625653,0.129549,0
-0.301395,0.353746,0.714558,0.103542,0.0547805,0.0723457,0
-0.301395,0.353746,0.714558,0.103542,0.0547805,0.0723457,0
-0.327423,0.301781,0.804873,0.0673024,0.0626973,0.0415236,0
-0.124499,0.269897,0.886821,0.0308062,0.0747311,8.73208e-05,0
0.381097,0.179293,0.983949,-0.0341659,0.0741608,-0.0535743,0
0.911985,-0.284655,0.878864,-0.0607552,0.00197838,-0.0927885,0
0.92481,-1.16468,0.449364,-0.0384715,-0.0376488,-0.258259,0
1.03797,-1.15701,0.0613581,-0.0506976,-0.0128437,-0.197067,0
1.20816,-0.633799,0.0294351,-0.0930125,0.0124289,-0.126613,0
0.883883,-0.286394,0.0752194,-0.0487107,-0.0579296,-0.15609,0
0.501897,-0.455153,-0.0326908,0.0449431,-0.138607,-0.107766,0
-0.175819,-1.15909,-0.27067,0.0621944,-0.108358,-0.157219,0
-1.16392,-1.31901,-0.439156,-0.0185491,-0.0208398,-0.268506,0
-1.40269,-0.545692,-0.503329,-0.0757868,0.0405372,-0.260789,0
-0.784636,0.355573,-0.391454,-0.0593527,0.0384757,-0.184754,0
-0.00963445,0.355675,-0.233523,0.0325677,-0.0197847,-0.0990254,0
0.200385,-0.422779,-0.0824828,0.0849761,-0.0785698,-0.0258061,0
-0.108088,-0.696723,0.0131037,0.0963565,-0.108072,0.124472,0
-0.42459,-0.310906,0.082831,0.0673032,-0.090633,0.217008,0
-0.536372,0.247143,0.138067,0.0767825,-0.0717009,0.239027,0
-0.411484,0.503565,0.184568,0.0666531,-0.0483164,0.186417,0
-0.0667512,0.377926,0.185324,0.0705067,-0.0103167,0.145982,0
0.369005,0.193276,0.200624,0.0728877,0.0170009,0.157333,0
0.720858,0.187107,0.2624,0.0623218,0.0480465,0.202781,0
0.867489,0.303234,0.302504,0.0475715,0.0845937,0.244677,0
0.794823,0.50117,0.26121,0.03622,0.118395,0.250816,0
0.588654,0.664088,0.194767,0.0043299,0.152189,0.1963,0
0.62851,0.954026,0.187393,-0.0132705,0.138521,0.102246,0
0.851672,1.57852,0.185049,-0.048165,0.0467779,0.114918,0
0.554589,1.47145,-0.180837,-0.0350584,-0.0371129,-0.0403554,0
-0.029851,0.503469,-0.826645,-0.0402249,-0.0263581,-0.182873,0
-0.494942,0.0561815,-1.22678,-0.099749,0.0699292,-0.199381,0
-0.623726,0.366888,-1.06842,-0.0930174,0.0541623,-0.232067,0
-0.293309,0.544721,-0.638473,0.0213867,-0.088182,-0.246925,0
-0.155733,-0.321698,-0.425838,0.0410261,-0.120753,-0.286282,0
-0.696904,-1.25182,-0.500121,0.000301525,-0.0480683,-0.313817,0
-0.991352,-1.16709,-0.337055,-0.0491002,-0.0505728,-0.218155,0
-0.905741,-0.465146,-0.0558384,-0.0574138,-0.0500752,-0.168421,0
-0.633016,0.148436,0.159512,-0.0671031,-0.0625308,-0.132748,0
-0.289254,0.322776,0.169684,-0.0869566,-0.0479084,-0.0548751,0
-0.00639241,0.0656663,-0.0106006,-0.0707521,-0.038715,0.0113309,0
0.173564,-0.0623554,-0.142449,-0.0218323,-0.0302885,0.147882,0
0.156713,0.0014218,-0.0702064,0.0426193,-0.032293,0.234303,0
0.0618651,0.126186,0.121881,0.0845327,-0.0075685,0.298005,0
-0.0426721,0.223421,0.323112,0.0941524,-0.00102124,0.32097,0
-0.0743431,0.243192,0.437712,0.0924147,-0.00451741,0.315638,0
-0.050043,0.128424,0.450397,0.0980877,0.0043826,0.271355,0
0.0210258,-0.0606272,0.495808,0.0943248,0.0253351,0.190062,0
0.202326,-0.111376,0.619254,0.0675082,0.0603021,0.131927,0
0.429587,0.028505,0.790951,0.0446592,0.0838595,0.079149,0
0.602223,0.311714,0.914018,0.00471339,0.100651,0.0227105,0
0.781816,0.723363,0.945766,-0.0330989,0.0993896,0.0189748,0
0.781816,0.723363,0.945766,-0.0330989,0.0993896,0.0189748,0
0.873581,1.04827,0.902777,-0.067867,0.0765465,0.0190448,0
0.682142,0.976067,0.764533,-0.00904555,0.000555798,-0.0264429,0
0.171951,0.505454,0.485947,0.0233769,-0.032198,-0.134456,0
-0.18451,-0.165117,0.158483,0.0411325,0.00465329,-0.282593,0
-0.0238907,-0.380003,0.0231406,0.0454704,0.0541406,-0.349495,0
0.371447,-0.0946226,0.119578,0.0293914,0.0439392,-0.326639,0
0.552304,-0.51972,0.111897,0.0862038,0.0236722,-0.318945,0
-0.0574008,-1.6318,-0.0200201,0.0730248,0.0870952,-0.36812,0
-0.762877,-1.77239,0.0129625,0.0582704,0.091208,-0.272358,0
-0.876355,-1.22772,0.318458,0.00849944,0.0626238,-0.267114,0
-0.385041,-0.648831,0.62764,-0.020713,0.0225672,-0.206564,0
0.160645,-0.244451,0.708742,-0.0463269,-0.0149521,-0.0605963,0
0.0663019,-0.171224,0.534509,0.00770303,-0.0517118,0.0137159,0
-0.380192,-0.0683627,0.392659,0.043453,-0.0593502,0.126521,0
-0.704108,0.158948,0.479696,0.0571278,-0.0647538,0.159066,0
-0.689632,0.289978,0.651358,0.0526599,-0.0502505,0.125765,0
-0.348738,0.255002,0.749982,0.0513881,-0.0359222,0.0973104,0
0.133063,0.131759,0.754768,0.0509883,-0.0157375,0.103369,0
0.513178,0.0443967,0.779856,0.0549545,-0.020316,0.140807,0
0.598568,0.0853392,0.822256,0.0470714,-0.0243826,0.197154,0
0.429346,0.22247,0.784577,0.0448472,-0.0323008,0.226371,0
0.227099,0.486104,0.617942,0.0340655,-0.0341378,0.217958,0
0.130213,0.802964,0.377974,0.0181117,-0.0265643,0.201559,0
0.170101,1.03908,0.197848,0.0116528,-0.0151124,0.193971,0
0.180218,1.09175,0.0710797,0.010743,-0.0132124,0.193554,0
0.0618711,0.952156,-0.057596,0.0155861,-0.0241568,0.176412,0
-0.0442957,0.713055,-0.205282,0.0228845,-0.0338651,0.152172,0
0.00465508,0.539171,-0.26974,0.0387152,-0.0393873,0.124441,0
0.239807,0.550944,-0.132084,0.0355674,-0.0696125,0.101491,0
0.475021,0.761053,0.111655,0.0199991,-0.131566,0.104868,0
0.661036,0.820724,0.144884,0.0702217,-0.203879,0.00882357,0
1.03215,0.56914,-0.093916,0.048201,-0.118748,-0.0634444,0
0.918314,-0.0347362,-0.225768,-0.0357257,0.000711381,-0.177439,0
0.448853,-0.278161,-0.123987,-0.0194111,-0.0310339,-0.204804,0
0.305024,-0.100473,0.162858,0.0324079,-0.0961854,-0.154269,0
0.222712,0.237424,0.358972,0.0341174,-0.145315,-0.12097,0
-0.163966,0.0574457,0.223531,-0.0158192,-0.0928221,-0.168045,0
-0.730964,-0.472853,-0.150676,-0.061534,-0.0664197,-0.212806,0
-0.909649,-0.894988,-0.447038,-0.0434921,-0.0346749,-0.27225,0
-0.555256,-0.770336,-0.375195,-0.0620037,-0.0118259,-0.250027,0
0.000336754,-0.253143,-0.0146547,-0.0693818,-0.0318705,-0.122982,0
0.245517,0.0395647,0.277498,-0.0833072,-0.0300277,-0.0466341,0
0.0511119,-0.00282732,0.270118,-0.0402754,-0.0445415,0.036592,0
-0.414428,-0.249241,0.0224794,-0.0199432,-0.029539,0.0644591,0
-0.569483,-0.353354,-0.190894,0.0166144,-0.019224,0.0441284,0
-0.275348,-0.0822824,-0.087657,-0.0161394,0.0130084,0.0791429,0
0.115908,0.238142,0.168953,-0.0506828,0.0286949,0.118875,0
0.297343,0.274965,0.307655,-0.0451112,0.0320077,0.143859,0
0.2777,0.0204259,0.274026,-0.0233736,0.0237172,0.145966,0
0.270088,-0.0832595,0.211659,-0.00965352,0.0186112,0.178898,0
0.270088,-0.0832595,0.211659,-0.00965352,0.0186112,0.178898,0
0.222442,-0.0425038,0.255338,-0.0367547,0.0419709,0.186912,0
0.123464,-0.00568112,0.280782,-0.0556725,0.0663725,0.154395,0
0.14876,-0.064113,0.284347,-0.0605272,0.0702613,0.113626,0
0.262663,-0.180714,0.32208,-0.069229,0.0775438,0.0559533,0
0.394598,-0.161295,0.372896,-0.10426,0.0783838,0.050254,0
0.444989,-0.0604827,0.349234,-0.120948,0.0726677,0.0409341,0
0.493044,0.121085,0.26452,-0.10838,0.0463246,0.065465,0
0.383772,0.145276,0.129694,-0.0990838,0.0369612,0.0526291,0
0.0692042,-0.0693908,-0.0791192,-0.0816254,0.0430777,-0.00965524,0
-0.258606,-0.148079,-0.33157,-0.0449517,0.0526459,-0.070597,0
-0.42283,-0.0184532,-0.496071,-0.0300514,0.0695525,-0.119256,0
-0.508319,0.0865052,-0.510242,-0.0417401,0.0817533,-0.182722,0
-0.46131,0.0907674,-0.4166,-0.0277607,0.0717626,-0.173716,0
-0.506256,-0.122872,-0.363969,-0.000626035,0.050301,-0.181906,0
-0.641509,-0.403576,-0.386249,0.0112255,0.0424694,-0.18244,0
-0.746337,-0.338426,-0.40347,0.0175173,0.016294,-0.13278,0
-0.822169,-0.0916815,-0.381165,0.044133,-0.021433,-0.0890527,0
-0.892261,-0.0111726,-0.36537,0.0523454,-0.0367154,-0.0752868,0
-0.910501,-0.263298,-0.400045,0.0450575,-0.0243372,-0.109,0
-0.738807,-0.498127,-0.411026,0.0409198,-0.0198942,-0.0866546,0
-0.619649,-0.478922,-0.43153,0.0273071,-0.00762984,-0.0546283,0
-0.487248,-0.285332,-0.448617,0.03249,-0.0141558,-0.0234451,0
-0.242012,-0.14501,-0.435889,0.0446193,-0.00829825,0.0370901,0
-0.114961,-0.252138,-0.410748,0.0593736,-0.0093843,0.0372135,0
0.0247832,-0.30328,-0.364754,0.0626614,-0.0186458,0.0805605,0
0.132638,-0.300373,-0.319402,0.0591005,-0.0224061,0.120863,0
0.0859243,-0.386001,-0.352504,0.0528588,-0.02055,0.10816,0
0.0571701,-0.347962,-0.456901,0.0397044,-0.014942,0.116663,0
0.0508416,-0.24438,-0.597518,0.0323332,-0.00810267,0.0990454,0
0.0806957,-0.109488,-0.697197,0.0290472,-0.00315869,0.0945133,0
0.187912,0.0508503,-0.747522,0.0287113,-0.00203964,0.113846,0
0.313515,0.128744,-0.777947,0.038679,-0.00190455,0.135299,0
0.416299,0.0426827,-0.80242,0.0446711,0.00481209,0.157845,0
0.518248,-0.0712545,-0.837281,0.0520123,0.00810604,0.191304,0
0.662834,-0.0533061,-0.820528,0.064053,-0.00622109,0.250419,0
0.678564,0.137631,-0.779121,0.0298155,-0.010056,0.256909,0
0.531341,0.447603,-0.781142,0.00251906,-0.0376803,0.22302,0
0.257925,0.516762,-0.883086,-0.0269555,-0.0309855,0.11237,0
-0.208016,0.499808,-1.11801,0.00959672,-0.0419888,-0.0649291,0
-0.365531,0.84436,-1.25963,-0.0262273,-0.0200985,-0.124102,0
-0.227571,1.11701,-1.16152,-0.0765873,-0.00421526,-0.158199,0
-0.121335,1.21826,-1.03582,-0.0477543,0.00377572,-0.13894,0
-0.0253487,1.15016,-0.840195,0.0155485,-0.0640097,-0.0805644,0
0.0194251,0.798538,-0.572718,0.0730037,-0.149379,-0.0374428,0
-0.0924414,0.176422,-0.306732,0.11515,-0.22719,-0.00768799,0
-0.662866,-0.80696,-0.293494,0.073651,-0.231006,-0.0644497,0
-1.30465,-1.75701,-0.797939,0.00728647,-0.0733601,-0.19495,0
-1.37494,-1.8249,-1.23203,-0.033864,-0.0871413,-0.196177,0
-0.793088,-0.87658,-1.31569,-0.0354123,0.00736247,-0.167674,0
0.0705365,0.202129,-0.751993,-0.0387719,-0.0365685,-0.0699728,0
0.0705365,0.202129,-0.751993,-0.0387719,-0.0365685,-0.0699728,0
0.571172,0.438522,-0.0330068,0.0145136,-0.0991817,-0.00283766,0
0.582454,0.0070429,0.279662,0.0772489,-0.0906916,0.0148135,0
0.402074,-0.43143,0.218209,0.0377196,-0.0538836,0.0723068,0
0.351017,-0.613224,0.0247204,-0.00618945,-0.0230668,0.119369,0
0.475227,-0.561809,-0.119966,-0.00927127,-0.0290088,0.147107,0
0.58941,-0.352313,-0.164112,0.00536767,-0.035602,0.188441,0
0.525192,-0.115449,-0.141879,0.00676475,-0.037766,0.212369,0
0.282694,0.0268431,-0.162992,0.0148492,-0.0280277,0.188002,0
-0.0234435,0.0398693,-0.254079,0.0245908,-0.0138133,0.126952,0
-0.185408,0.0951059,-0.358089,0.0305591,0.0183476,0.0404391,0
0.0262896,0.270665,-0.271769,0.00202139,0.0451478,-0.0500737,0
0.573371,0.69263,0.0389984,-0.0266274,-0.00563543,-0.00814748,0
0.717343,0.423784,0.224911,-0.0144742,-0.0645676,-0.134819,0
0.351407,-0.275092,-0.00891315,-0.0163434,-0.057461,-0.206422,0
0.0524551,-0.477319,-0.411618,-0.0770864,0.0168546,-0.230191,0
0.0854779,0.0549875,-0.582174,-0.140408,0.0274021,-0.20168,0
0.162152,0.567794,-0.554506,-0.147793,-0.0172915,-0.212588,0
0.165895,0.539081,-0.609528,-0.100175,-0.0496847,-0.202749,0
-0.275248,-0.236144,-0.984762,-0.0441257,-0.04774,-0.309479,0
-0.763439,-0.774866,-1.42062,-0.00488032,-0.0186229,-0.351582,0
-0.880072,-0.587964,-1.48618,-0.0550018,0.0315855,-0.341675,0
-0.724612,0.0326955,-1.20717,-0.110225,0.0479005,-0.281994,0
-0.471696,0.474219,-0.869854,-0.147154,0.0494108,-0.214755,0
-0.277499,0.522206,-0.752886,-0.111927,0.0214413,-0.171776,0
-0.0831497,0.411342,-0.754313,-0.0734301,-0.0145694,-0.0664945,0
0.048596,0.358771,-0.686039,-0.0796794,-0.0405549,0.0419305,0
0.128686,0.3449,-0.513077,-0.0950166,-0.0527005,0.125818,0
0.254243,0.437771,-0.311674,-0.100801,-0.0592829,0.220887,0
0.338303,0.309634,-0.172129,-0.110175,-0.0583915,0.250155,0
0.307299,0.174357,-0.215591,-0.104822,-0.0316456,0.2445,0
0.337417,0.203785,-0.296834,-0.116634,-0.0278956,0.289842,0
0.0252081,0.142472,-0.459449,-0.147737,-0.0113016,0.239196,0
-0.374518,0.205932,-0.739176,-0.128998,0.0113055,0.143631,0
-0.562179,0.49608,-0.969355,-0.129233,0.0592433,0.0643245,0
-0.563188,0.617267,-1.10157,-0.121748,0.105172,-0.0656711,0
-0.1534,0.646336,-1.02575,-0.0960261,0.0702139,-0.0716966,0
0.300785,0.256111,-0.94446,-0.0776614,-0.0104007,-0.0178564,0
0.190934,-0.965375,-1.27013,-0.0430434,-0.0203944,-0.10323,0
-0.365347,-2.01144,-1.77619,-0.0780445,-0.052298,-0.136156,0
-0.683724,-1.85443,-2.16556,-0.151937,-0.0315972,-0.072139,0
-0.497158,-0.746138,-2.27518,-0.202966,-0.0664667,-0.0283339,0
-0.0737108,0.175645,-2.10231,-0.183911,-0.111277,0.00337738,0
0.117129,0.142538,-1.90148,-0.0858325,-0.142664,-0.0337895,0
0.0465219,-0.541343,-1.8328,-0.0414815,-0.122074,-0.105991,0
0.108554,-1.02593,-1.77257,-0.0716659,-0.0833984,-0.107323,0
0.32445,-1.01485,-1.73904,-0.108407,-0.0364409,-0.108613,0
0.4694,-0.604211,-1.66855,-0.110215,-0.0299075,-0.0847212,0
0.412042,-0.301535,-1.54285,-0.105003,-0.0336173,-0.0910903,0
0.222565,-0.105278,-1.4868,-0.0846465,-0.0316888,-0.0796809,0
0.107536,-0.000630774,-1.46501,-0.0817383,-0.03818,-0.0995912,0
0.218805,0.102082,-1.40772,-0.0751696,-0.0356544,-0.0798606,0
0.383643,0.146607,-1.3253,-0.0562213,-0.0339799,-0.0558232,0
0.519406,0.230609,-1.20137,-0.0357585,-0.044546,-0.0134489,0
0.533355,0.218032,-1.0775,-0.0331118,-0.0478517,0.0250844,0
0.438774,0.177445,-0.985348,-0.00957268,-0.0574866,0.0545118,0
0.274754,0.151746,-0.930585,-0.0121475,-0.0610488,0.0751992,0
0.0555674,0.0674703,-0.948356,0.0146077,-0.0439169,0.0404391,0
-0.0422092,0.112437,-0.90491,0.00717229,-0.0480382,0.0211596,0
-0.00224709,0.0787147,-0.783295,0.00501193,-0.0397522,-0.0295723,0
0.134139,0.0583862,-0.604481,0.00939482,-0.0441218,-0.0564808,0
0.292275,0.105817,-0.341644,-0.0403253,-0.0569714,-0.0609413,0
0.292275,0.105817,-0.341644,-0.0403253,-0.0569714,-0.0609413,0
0.309028,0.095975,-0.231839,-0.0522511,-0.0473499,-0.0710263,0
0.245325,0.0845948,-0.2946,-0.0322509,-0.0438938,-0.0379886,0
0.178895,0.0753447,-0.397149,-0.0241964,-0.0467955,-0.0193931,0
0.0798555,0.0155955,-0.467338,-0.0245223,-0.0346079,-0.0280116,0
-0.0724813,-0.194306,-0.507485,-0.00118484,-0.0339848,-0.0558392,0
-0.266119,-0.421047,-0.565824,-0.0274893,0.0264155,-0.10224,0
-0.314061,-0.334197,-0.553252,-0.0548485,0.0412035,-0.120791,0
-0.0115958,0.210554,-0.421523,-0.0864235,0.0447661,-0.0383705,0
0.38809,0.637464,-0.25147,-0.084826,0.0148404,0.0443891,0
0.490087,0.4847,-0.255654,-0.0276451,-0.0195286,0.0501823,0
0.352196,-0.0597528,-0.453897,0.00676279,-0.0378517,0.00632268,0
0.220054,-0.279583,-0.669568,-0.00466651,-0.0374368,0.0470593,0
0.0697282,-0.314897,-0.79412,-0.0686503,-0.00312231,0.00867552,0
-0.20363,-0.326048,-0.933671,-0.124451,0.0470424,-0.0811729,0
-0.412644,-0.127902,-1.09838,-0.126993,0.0684677,-0.157186,0
-0.196205,0.491543,-1.04634,-0.134036,0.0463818,-0.123731,0
0.229338,0.992963,-0.781996,-0.148045,0.0228882,-0.054887,0
0.542006,0.958569,-0.526749,-0.0968785,-0.0304593,-0.00239855,0
0.675139,0.558308,-0.414438,-0.0746652,-0.0725264,0.0560378,0
0.609733,0.0786433,-0.484487,-0.0868323,-0.0884197,0.0947024,0
0.519933,-0.149545,-0.670036,-0.105586,-0.0920478,0.142757,0
0.422922,-0.140277,-0.846863,-0.127157,-0.0818242,0.150546,0
0.364805,-0.0381908,-0.911302,-0.135987,-0.0598026,0.132848,0
0.411963,0.0656413,-0.908634,-0.137413,-0.0322943,0.128615,0
0.551546,0.0495665,-0.932049,-0.117851,-0.0112782,0.111237,0
0.663933,-0.0953226,-1.00322,-0.106864,0.00837135,0.106254,0
0.559554,-0.388591,-1.13901,-0.0799884,0.0218593,0.0574708,0
0.306062,-0.545847,-1.2547,-0.0734729,0.0509039,0.0366102,0
0.0275377,-0.424137,-1.31681,-0.0865918,0.0713552,-0.00359529,0
-0.119353,-0.252148,-1.38643,-0.0919177,0.095007,-0.0552062,0
-0.0553353,-0.0502291,-1.37293,-0.0723509,0.0877459,-0.068704,0
0.165419,0.0762119,-1.21079,-0.0618673,0.0365356,-0.016153,0
0.123939,-0.33142,-1.26604,-0.0446613,0.0593698,-0.0661698,0
-0.151231,-0.744272,-1.46701,-0.0209065,0.030059,-0.0384196,0
-0.522292,-0.93212,-1.67696,-0.027417,0.0608217,-0.0573214,0
-0.722169,-0.79807,-1.66451,-0.0472397,0.0410842,-0.0662219,0
-0.641137,-0.56559,-1.47554,-0.0505172,0.025576,-0.085506,0
-0.290398,-0.410571,-1.20666,-0.04732,-0.000701122,-0.0843362,0
0.122028,-0.492443,-1.02128,-0.0498786,-0.00277949,-0.0871816,0
0.385035,-0.737407,-1.01805,-0.0511809,0.00734928,-0.0762179,0
0.399194,-0.94078,-1.11745,-0.0693227,0.0220729,-0.0721495,0
0.31044,-0.816245,-1.18891,-0.0900181,0.0379332,-0.0378345,0
0.24776,-0.429636,-1.21263,-0.0994793,0.0516686,0.00232595,0
0.171186,-0.0666397,-1.21187,-0.0774805,0.0505883,0.0233186,0
0.125999,0.0632866,-1.18881,-0.054402,0.0476002,0.0325209,0
0.182432,0.16133,-1.16472,-0.0265998,0.0459051,0.087108,0
0.178859,0.241434,-1.12355,-0.0198438,0.0452368,0.120979,0
0.131118,0.217743,-1.05702,-0.00871058,0.0313846,0.147644,0
0.0545084,0.0323009,-1.00388,0.011181,0.0254308,0.143796,0
0.0545084,0.0323009,-1.00388,0.011181,0.0254308,0.143796,0
-0.029894,-0.165235,-0.941472,0.0143827,0.0151109,0.141227,0
-0.101345,-0.26007,-0.871995,0.00734913,0.0100698,0.120259,0
-0.163806,-0.195726,-0.790144,-0.00566218,0.00475955,0.122686,0
-0.269973,-0.134329,-0.769449,-0.0033227,0.00295103,0.0718765,0
-0.275734,0.0415336,-0.701326,0.00295426,-0.0166992,0.0694744,0
-0.261033,0.0830292,-0.600179,0.000375446,-0.0270203,0.0226017,0
-0.225636,0.0329717,-0.514493,0.0177712,-0.0345873,-0.00533009,0
-0.203898,-0.0656891,-0.395372,-0.00134816,-0.0521012,-0.0772445,0
-0.0583045,-0.128117,-0.322966,-0.027855,-0.0529159,-0.0836132,0
0.0720635,-0.0792071,-0.373734,-0.041388,-0.0575011,-0.109837,0
0.202112,0.0508081,-0.442187,-0.0469214,-0.0736582,-0.0912972,0
0.259515,0.078327,-0.522999,-0.0366088,-0.0918597,-0.0667375,0
0.132422,-0.0656212,-0.683274,-0.019134,-0.0757431,-0.0790951,0
-0.148276,-0.228028,-0.907789,-0.00527401,-0.0541883,-0.105702,0
-0.367625,-0.189478,-1.03321,-0.0263906,0.00105672,-0.125002,0
-0.32348,0.0613029,-0.94346,-0.0389317,0.00427896,-0.134973,0
0.0744156,0.474328,-0.732906,-0.0488232,0.00982499,-0.0969152,0
0.5866,0.620788,-0.579734,-0.0293556,-0.0147508,-0.0383043,0
0.754811,0.170574,-0.655711,0.0348868,-0.0331723,-0.0543227,0
0.541483,-0.461709,-0.836071,0.0848034,-0.0382525,-0.0885765,0
0.186401,-0.544281,-0.886466,0.0443266,0.0063291,-0.0594991,0
-0.112442,-0.243888,-0.81306,-0.0184468,0.0594373,-0.0929136,0
-0.221951,0.129829,-0.694744,-0.0477188,0.10016,-0.136543,0
-0.0408196,0.362857,-0.557976,-0.0157959,0.087531,-0.141294,0
0.313158,0.47423,-0.341086,0.0050073,0.0458156,-0.0695372,0
0.559318,0.398467,-0.104162,0.0106201,-0.00298569,0.0095678,0
0.502499,0.406285,0.0142624,0.0120139,-0.0447054,0.102297,0
0.126596,0.596535,-0.0125228,-0.00871442,-0.0609737,0.134635,0
-0.210788,0.818932,-0.119594,-0.00823895,-0.0733793,0.13079,0
-0.198496,0.754163,-0.233904,-0.00820679,-0.0607394,0.0655794,0
0.105117,0.39758,-0.317553,-0.0147512,-0.0232765,0.00292993,0
0.506679,0.0218592,-0.349735,-0.0293722,0.0213326,0.00192159,0
0.823408,-0.221635,-0.322277,-0.0322956,0.0440027,0.0430343,0
0.904402,-0.324109,-0.318,-0.0345981,0.0495731,0.0962312,0
0.743654,-0.395233,-0.40999,-0.0386663,0.0615471,0.119753,0
0.44053,-0.500167,-0.538214,-0.0405775,0.0576781,0.111507,0
0.12902,-0.509292,-0.653211,-0.0539168,0.0552022,0.0940714,0
-0.0322458,-0.398711,-0.768306,-0.0770456,0.0284809,0.0708958,0
-0.0401773,-0.338088,-0.989689,-0.0992847,0.0709732,0.0290161,0
-0.0376733,-0.293878,-1.13353,-0.0929975,0.0506036,0.0127549,0
-0.033908,-0.171663,-1.12543,-0.0644592,0.007028,0.0272456,0
-0.16554,-0.142357,-1.10228,-0.0623781,-0.0223614,0.0118848,0
-0.45472,-0.312843,-1.16134,-0.0763732,0.00652821,-0.0760893,0
-0.501379,-0.38757,-1.13091,-0.0763186,0.0189054,-0.108601,0
-0.215183,-0.209991,-0.94074,-0.0932592,0.0122129,-0.112991,0
0.215335,0.151394,-0.720702,-0.125213,-0.00445947,-0.048846,0
0.42341,0.111416,-0.66507,-0.128029,-0.0128181,-0.0405861,0
0.369373,-0.137396,-0.772044,-0.122164,-0.0249554,-0.00890672,0
0.369373,-0.137396,-0.772044,-0.122164,-0.0249554,-0.00890672,0
0.208344,-0.233008,-0.929281,-0.122242,-0.0218545,0.0366946,0
0.0487687,-0.096601,-1.01394,-0.124595,-0.0153448,0.0607742,0
-0.0510269,0.167952,-1.01134,-0.11168,-0.00768471,0.0780372,0
-0.0737961,0.268341,-0.957383,-0.0870472,-0.0067042,0.0653323,0
0.069026,0.272402,-0.873875,-0.0580053,-0.0320821,0.0817314,0
0.213214,0.217041,-0.794647,-0.0418048,-0.0265514,0.100369,0
0.259368,0.152941,-0.669852,-0.0295692,-0.0604506,0.159287,0
0.196304,0.0105838,-0.568446,-0.0154695,-0.072879,0.181473,0
0.0593054,-0.118956,-0.498764,-0.00990619,-0.088439,0.211975,0
-0.127129,-0.274944,-0.490912,-0.015503,-0.0866514,0.174081,0
-0.235301,-0.267212,-0.475966,-0.0229116,-0.0819426,0.164257,0
-0.244715,-0.228806,-0.420867,-0.0356915,-0.0707834,0.113799,0
-0.163932,-0.187917,-0.332735,-0.0395636,-0.0631232,0.0910556,0
-0.043894,-0.190078,-0.22882,-0.0382526,-0.0614626,0.0721925,0
0.0579532,-0.167465,-0.11632,-0.0310112,-0.0695057,0.0704584,0
0.111393,-0.128212,-0.00529293,-0.0406209,-0.0722415,0.0771597,0
0.15225,-0.174742,0.0833364,-0.04925,-0.08615,0.0716701,0
0.177444,-0.233053,0.112747,-0.0639328,-0.0884293,0.0843951,0
0.187784,-0.327484,0.0987489,-0.0845944,-0.082693,0.0800059,0
0.248481,-0.358829,0.0741211,-0.100079,-0.0831084,0.0827794,0
0.424132,-0.277569,0.0609827,-0.110054,-0.078022,0.0971201,0
0.589419,-0.121766,0.00899671,-0.121433,-0.0636745,0.116208,0
0.684219,-0.0682618,-0.105429,-0.1091,-0.0454004,0.113811,0
0.726418,-0.0817962,-0.200998,-0.0817012,-0.022328,0.126185,0
0.709805,-0.108888,-0.171068,-0.0497399,-0.00808626,0.125868,0
0.687577,-0.0984562,-0.0583775,-0.0189188,-0.00561595,0.115061,0
0.570879,-0.231036,-0.0137394,0.0133582,-0.013295,0.0468734,0
0.328032,-0.478804,-0.144698,0.0312802,-0.00787577,-0.0497054,0
0.0588382,-0.505446,-0.427823,0.039407,0.0502454,-0.109299,0
-0.179035,-0.177754,-0.586873,0.0495158,0.0864296,-0.116444,0
-0.349279,0.210257,-0.487433,0.0682123,0.0773468,-0.125044,0
-0.478467,0.15126,-0.319784,0.11461,-0.00264123,-0.143664,0
-1.07823,-0.618309,-0.568401,0.120348,0.0693243,-0.307926,0
-1.55264,-0.987254,-0.866514,0.100758,0.132131,-0.353586,0
-1.42275,-0.366978,-0.758435,0.0766831,0.125464,-0.311225,0
-0.867602,0.461175,-0.33481,0.0651301,0.105265,-0.212316,0
-0.303066,0.671193,0.0574369,0.0959848,0.0440773,-0.168653,0
-0.000323344,0.261713,0.207566,0.108524,-0.0318807,-0.119315,0
0.0643231,-0.374816,0.220504,0.0644897,-0.0806886,-0.0460714,0
-0.00226381,-0.734681,0.147229,0.0157526,-0.0912135,0.0490458,0
-0.054402,-0.745972,0.018689,-0.00697997,-0.0738604,0.102442,0
-0.0539994,-0.407467,-0.0939811,-0.0286026,-0.0400773,0.144754,0
-0.0710264,0.0272396,-0.178302,-0.0245927,-0.00519272,0.169218,0
-0.0681851,0.244532,-0.230903,0.000193223,0.0180413,0.165677,0
0.0331728,0.252236,-0.230589,0.0355406,0.0281593,0.181091,0
0.16872,0.126243,-0.150707,0.042063,0.0320722,0.194789,0
0.278703,-0.0120226,-0.061881,0.0330255,0.032695,0.207696,0
0.40213,-0.0137743,-0.0519074,0.0199789,0.0392105,0.240781,0
0.40213,-0.0137743,-0.0519074,0.0199789,0.0392105,0.240781,0
0.492857,0.0320583,-0.0634886,0.0251969,0.0221171,0.260168,0
0.378497,0.139308,-0.0476716,0.00717333,0.0101015,0.270986,0
0.0636147,0.289972,-0.105204,-0.0121632,0.0240913,0.242211,0
-0.20703,0.45273,-0.251775,0.00784653,0.0352342,0.207449,0
-0.162569,0.397331,-0.328303,0.0372265,0.0366048,0.119523,0
0.299656,0.294032,-0.262962,0.0386519,0.0188253,0.0592235,0
0.826446,0.314993,-0.146254,0.0493805,-0.0377667,0.0430244,0
0.895447,-0.0202928,-0.142193,0.0682839,-0.0984053,-0.0423432,0
0.512063,-0.456234,-0.443453,0.0842997,-0.0702592,-0.120133,0
0.0346665,-0.455455,-0.785522,0.0224694,0.0513452,-0.118243,0
-0.318144,0.00168603,-0.83596,-0.0267629,0.118475,-0.134737,0
-0.382332,0.496742,-0.481079,0.0147449,0.0300664,-0.147826,0
-0.366986,0.540552,-0.0938888,0.0543448,-0.0445448,-0.154164,0
-0.726859,-0.0884741,-0.0324393,0.0141603,-0.0449156,-0.253336,0
-1.04953,-0.695659,-0.280779,-0.0311544,-0.0492623,-0.327257,0
-1.02037,-0.568698,-0.495843,-0.0869293,-0.0492855,-0.325232,0
-0.83053,0.0231709,-0.508422,-0.146495,-0.00974167,-0.321509,0
-0.54189,0.583918,-0.396467,-0.166298,-0.00968108,-0.278825,0
-0.153265,0.79231,-0.314171,-0.14298,-0.041857,-0.217653,0
0.266671,0.68394,-0.271271,-0.120414,-0.0685864,-0.104063,0
0.497298,0.531488,-0.250705,-0.107013,-0.0886598,0.0499933,0
0.405569,0.352267,-0.275869,-0.0787353,-0.0983699,0.157615,0
0.105689,0.19292,-0.330103,-0.0502715,-0.103655,0.224484,0
-0.182775,0.110483,-0.38326,-0.0334798,-0.0850062,0.256865,0
-0.3393,0.0940248,-0.424936,-0.0140029,-0.0640259,0.244284,0
-0.309316,0.173621,-0.403813,0.0174015,-0.0517926,0.228971,0
-0.199011,0.222081,-0.286167,0.0405969,-0.0350202,0.212353,0
-0.161333,0.185948,-0.103799,0.0570444,-0.0164419,0.192846,0
-0.212935,0.0228111,0.107503,0.0726845,-0.0133778,0.148861,0
-0.222928,-0.134527,0.324389,0.0710425,-0.00704383,0.127628,0
-0.0949943,-0.210416,0.528376,0.0601166,-0.000225909,0.0961689,0
0.162573,-0.322975,0.63911,0.0541013,0.029328,0.0598916,0
0.399389,-0.5141,0.698104,0.0466298,0.0522999,0.0262061,0
0.562323,-0.663925,0.723072,0.0532681,0.0713451,0.00852209,0
0.737095,-0.642895,0.765907,0.0712619,0.0582957,0.0197868,0
0.825909,-0.686037,0.763581,0.10994,0.0311145,-0.0169056,0
0.753446,-1.09609,0.807448,0.122679,-0.00297238,-0.107445,0
0.619523,-1.64709,0.887845,0.0478708,0.0205616,-0.168252,0
0.462283,-1.68636,0.904522,-0.0627612,0.0368912,-0.168291,0
0.44673,-1.16079,0.765653,-0.100071,0.0103748,-0.113253,0
0.467475,-0.42604,0.575515,-0.0550918,-0.103126,-0.0500191,0
0.0356384,0.0494729,0.392862,-0.0182304,-0.170592,-0.0316781,0
-1.1263,0.0380859,0.0262321,-0.0469414,-0.0776382,-0.142058,0
-2.12647,0.149515,-0.374676,-0.0228024,0.0110693,-0.260345,0
-2.09559,0.521174,-0.397238,0.00864983,0.0351544,-0.365228,0
-1.17131,1.02742,-0.10206,0.0060489,0.0627995,-0.31591,0
-0.195841,1.36537,0.261941,0.00970195,0.0473382,-0.197395,0
-0.0632156,1.31418,0.472872,0.0090755,-0.00153102,-0.147428,0
-0.0632156,1.31418,0.472872,0.0090755,-0.00153102,-0.147428,0
-0.517989,1.10068,0.406953,0.00784639,-0.041607,-0.0806499,0
-0.999692,0.994747,0.161001,0.0187024,-0.044633,-0.0230612,0
-0.9908,1.13029,0.0308261,0.0225924,-0.0365094,0.0643079,0
-0.544828,1.16394,0.0462824,0.0290795,0.00265968,0.104496,0
0.0429743,1.00973,0.19132,0.038746,0.0266453,0.166507,0
0.502951,0.625218,0.412651,0.0443349,0.0137636,0.220185,0
0.676238,0.128184,0.574879,0.0502694,-0.00466719,0.261187,0
0.597359,-0.343638,0.611263,0.0620559,-0.0267266,0.272866,0
0.392991,-0.550846,0.54879,0.0553855,-0.0408785,0.274438,0
0.19947,-0.481768,0.363555,0.0294944,-0.00543856,0.244741,0
0.137946,-0.227335,0.173675,-0.0110011,0.0279624,0.206028,0
0.269333,0.108315,0.0598232,-0.0338409,0.0512476,0.209478,0
0.410431,0.288866,0.132499,-0.0228671,0.0362678,0.228765,0
0.425162,0.193906,0.41601,-0.0124433,0.000737749,0.223347,0
0.380742,0.00953523,0.812274,0.0204307,-0.0781888,0.183279,0
0.178779,-0.192668,1.00991,0.0386666,-0.158154,0.054486,0
0.0968814,-0.857664,0.698831,0.051502,-0.155014,-0.158704,0
0.289951,-1.40223,0.0789366,-0.00636415,-0.0703319,-0.249408,0
0.457113,-1.38001,-0.431809,-0.118827,0.0546591,-0.23208,0
0.345115,-0.795127,-0.567676,-0.137709,0.0517793,-0.18114,0
-0.0708149,-0.219968,-0.378791,-0.0770121,-0.0486034,-0.133116,0
-0.874629,-0.0292096,-0.286602,-0.0903384,-0.0164036,-0.209645,0
-1.34966,-0.0470347,-0.37592,-0.0881718,0.00796598,-0.300468,0
-1.06794,0.0140766,-0.376587,-0.114921,0.0253458,-0.353296,0
-0.399718,0.317034,-0.246806,-0.16884,0.0472022,-0.27094,0
0.150908,0.463187,-0.0954512,-0.181548,0.0215335,-0.145094,0
0.367169,0.295834,-0.0594321,-0.145314,-0.0327388,-0.0363414,0
0.319594,0.0439014,-0.132326,-0.0944179,-0.0829829,0.0626332,0
0.161649,-0.0356495,-0.211291,-0.0476369,-0.108185,0.154417,0
-0.015301,0.140827,-0.21898,-0.0331518,-0.0970211,0.217438,0
-0.1021,0.457096,-0.197177,-0.0152359,-0.0857241,0.248929,0
-0.0635468,0.608489,-0.18406,0.0129301,-0.0721013,0.248938,0
-0.0138245,0.472362,-0.169418,0.0496151,-0.0598314,0.241693,0
-0.0424468,0.138445,-0.0703139,0.0855654,-0.0580993,0.244817,0
-0.116102,-0.217098,0.127441,0.102931,-0.0468245,0.264783,0
-0.107719,-0.370009,0.342954,0.116648,-0.031028,0.276388,0
-0.0219837,-0.333088,0.568951,0.108208,-0.0142936,0.281367,0
0.0724222,-0.366382,0.734578,0.0889526,0.017093,0.238857,0
0.197884,-0.533895,0.782996,0.0864669,0.0427772,0.183643,0
0.295011,-0.733658,0.775078,0.0817446,0.0699214,0.113764,0
0.376783,-0.698754,0.837531,0.0588109,0.0899802,0.0622703,0
0.471948,-0.189275,0.970203,0.021326,0.0804585,0.0607235,0
0.388186,0.312242,1.05739,-0.0153231,0.0318578,-0.00135195,0
0.118464,0.343666,0.841024,-0.0203875,-0.000605427,-0.117634,0
-0.121751,0.183386,0.313117,-0.0409923,0.0258831,-0.187926,0
-0.227275,0.0828857,-0.109101,-0.0478594,0.0383588,-0.204914,0
-0.236103,-0.0132692,-0.145461,-0.01143,-0.0270838,-0.236731,0
-0.231947,-0.311741,-0.00760948,0.00118881,-0.0815956,-0.289594,0
-0.231947,-0.311741,-0.00760948,0.00118881,-0.0815956,-0.289594,0
-0.190927,-0.534534,-0.0228499,-0.0323214,-0.0778217,-0.290569,0
-0.117482,-0.401612,-0.191775,-0.0604648,-0.0873305,-0.22154,0
-0.321253,0.0235796,-0.39611,-0.0868444,-0.0529044,-0.132703,0
-0.711369,0.302788,-0.518692,-0.0678396,-0.0204138,-0.0973145,0
-0.920309,0.233604,-0.457016,-0.00994829,-0.0238086,-0.110044,0
-0.771209,-0.121933,-0.263828,0.0331785,-0.0236145,-0.0972833,0
-0.476642,-0.769381,-0.074157,0.0742076,-0.00782575,-0.0961399,0
-0.162741,-1.38284,0.132959,0.116081,-0.0128005,-0.0510361,0
-0.099831,-1.41883,0.317991,0.105491,-0.0183435,0.0290676,0
-0.230297,-0.716246,0.370047,0.0668498,-0.0253278,0.0942432,0
-0.235956,0.110855,0.282892,0.0872089,-0.0421151,0.0951077,0
0.0395678,0.549963,0.237926,0.10987,-0.0599653,0.0927035,0
0.384058,0.458304,0.278828,0.0984396,-0.0583631,0.0986316,0
0.534474,0.0943137,0.243623,0.0683369,-0.046029,0.0907559,0
0.494323,-0.201397,0.0490732,0.0515697,-0.0286935,0.0864758,0
0.381014,-0.077229,-0.202666,0.0310879,-0.00150764,0.0880092,0
0.311811,0.402823,-0.329552,0.00691263,0.0264721,0.0907961,0
0.488588,0.793171,-0.27153,0.00865726,0.0209891,0.118563,0
0.480919,0.730206,-0.223584,0.0400011,0.0296315,0.0378183,0
0.580742,0.551881,-0.105172,0.055743,-0.0343721,0.0216948,0
0.906256,0.0805178,0.0456624,0.0645692,-0.0985551,0.00559318,0
0.931572,-0.561585,0.0851825,0.0400697,-0.133223,-0.0842131,0
0.799222,-1.00211,-0.0683225,-0.0450402,-0.0891608,-0.11459,0
0.5709,-1.03759,-0.45353,-0.130201,0.0436311,-0.138339,0
0.45832,-0.455771,-0.645804,-0.149133,0.0719356,-0.0977179,0
0.543719,0.277431,-0.420264,-0.100205,0.0078292,-0.048691,0
0.467328,0.701347,-0.0448535,-0.0471846,-0.0556372,0.000522494,0
0.173632,0.456836,0.200065,-0.0202374,-0.114424,-0.0153264,0
-0.30328,-0.530645,0.0044222,-0.00676889,-0.108257,-0.179979,0
-0.506205,-1.28548,-0.38837,0.00165223,-0.054556,-0.253952,0
-0.418043,-0.919381,-0.493294,-0.0568859,0.016277,-0.22994,0
-0.268533,0.182723,-0.277538,-0.0812743,0.0609202,-0.163389,0
-0.216767,1.10304,0.119107,-0.0662392,0.0395947,-0.0930017,0
-0.304569,1.3107,0.32441,-0.0334869,0.0254567,-0.0776514,0
-0.257277,0.991129,0.251521,-0.0294526,0.0198532,-0.0485415,0
-0.0377607,0.543579,0.0584469,-0.0229613,0.00458165,-0.0116032,0
0.218174,0.292077,-0.0212283,-0.00854499,-0.0137222,0.0609956,0
0.381371,0.362655,0.0768911,-0.015408,-0.0253015,0.167594,0
0.373206,0.589968,0.189886,-0.0330564,-0.0210308,0.256451,0
0.263543,0.773465,0.173388,-0.0382071,-0.0107074,0.308373,0
0.186004,0.834272,0.0585637,-0.0318486,0.003959,0.335538,0
0.170215,0.724897,-0.016,-0.0109486,0.0153427,0.333859,0
0.149691,0.571334,-0.00566905,-0.000833064,0.033308,0.332596,0
0.043967,0.398614,0.0286733,0.0212567,0.0433879,0.29778,0
-0.0373678,0.275277,0.0831517,0.0393708,0.0553724,0.234625,0
0.00466511,0.177531,0.156255,0.0467229,0.0923094,0.144617,0
0.16326,0.236714,0.313815,0.05069,0.107318,0.0947894,0
0.251834,0.270381,0.531334,0.0546142,0.0784001,0.0169556,0
0.251834,0.270381,0.531334,0.0546142,0.0784001,0.0169556,0
0.284693,0.101683,0.591002,0.108309,0.00136876,-0.0998012,0
0.456428,-0.237192,0.440342,0.136706,-0.0546353,-0.205789,0
0.450464,-0.422215,0.101968,0.0804932,0.0532544,-0.236879,0
0.258256,-0.214341,0.0125569,0.0658247,0.0193177,-0.200968,0
-0.0258885,-0.159399,0.202636,0.0785657,-0.099299,-0.205299,0
-0.601406,-0.581237,0.0416192,-0.0261811,0.00591767,-0.319212,0
-0.996985,-0.820985,-0.504092,-0.0742924,0.139862,-0.374981,0
-0.836169,-0.44427,-0.709119,-0.0704331,0.085841,-0.330454,0
-0.484434,0.135235,-0.463886,-0.0630566,0.0454554,-0.228411,0
-0.287038,0.376545,0.00568032,-0.0701268,-0.0212498,-0.148236,0
-0.29534,0.243913,0.257924,-0.0493113,-0.0684253,-0.0959633,0
-0.27987,0.0416627,0.130423,-0.025344,-0.0793906,-0.0140786,0
-0.272806,-0.0253719,-0.222029,-0.00149734,-0.0661841,0.089367,0
-0.371126,-0.0694996,-0.549239,0.0419334,-0.059484,0.160439,0
-0.420687,-0.29172,-0.631661,0.0600196,-0.0536722,0.170298,0
-0.295301,-0.275293,-0.472576,0.0548944,-0.0219624,0.222808,0
-0.102679,0.0068115,-0.194585,0.0351769,0.0133159,0.243805,0
0.0670404,0.394733,0.0642581,0.0299108,0.0302958,0.257412,0
0.177289,0.626555,0.172663,0.0328836,0.0412694,0.24912,0
0.225223,0.695969,0.130997,0.0254553,0.054061,0.238033,0
0.276931,0.654821,0.0294023,0.0197525,0.0575927,0.221351,0
0.355758,0.643796,-0.0325577,0.0128383,0.0537212,0.208522,0
0.495877,0.63711,0.00932661,-0.000672981,0.0458146,0.195713,0
0.549495,0.606619,0.135533,-0.00250065,0.0105895,0.156937,0
0.431692,0.535585,0.260067,0.00826013,-0.0688368,0.0926324,0
0.143938,0.263246,0.131169,0.0115583,-0.0972184,-0.0203297,0
-0.0253985,-0.0325955,-0.38449,-0.00936328,-0.0432509,-0.109047,0
0.13883,-0.187869,-0.933808,-0.0101189,0.0315058,-0.147202,0
0.479453,-0.147901,-0.926528,-0.0117183,-0.0123092,-0.107509,0
0.560623,-0.106239,-0.478274,-0.00397357,-0.135684,-0.045628,0
0.162535,-0.322521,-0.252068,-0.0295245,-0.22722,0.00829035,0
-0.878927,-1.11346,-0.845017,-0.0334423,-0.0661631,-0.161176,0
-1.55495,-1.51169,-1.51604,-0.0313149,0.0205933,-0.278876,0
-1.15876,-1.01172,-1.4863,-0.0743182,0.010669,-0.283832,0
-0.299584,-0.0979255,-0.962654,-0.112178,0.0155613,-0.211329,0
0.103989,0.381755,-0.303849,-0.126219,-0.00894583,-0.153162,0
-0.0991931,0.0900821,0.0141225,-0.12679,0.0185305,-0.182765,0
-0.304521,-0.126156,-0.116743,-0.106408,0.012116,-0.104157,0
-0.269739,-0.0174184,-0.462808,-0.059838,-0.0224376,-0.0183538,0
-0.147416,0.17386,-0.670291,-0.0347057,-0.028861,0.0298385,0
-0.177094,0.15064,-0.654095,-0.0253615,0.0236701,0.047188,0
-0.286497,0.0274868,-0.472105,-0.00632312,0.0338596,0.0400272,0
-0.258067,0.0936031,-0.209733,0.0143506,-0.0102519,0.0690326,0
-0.139892,0.304993,-0.0380658,-0.00394119,-0.0137105,0.0736346,0
0.0311879,0.536339,0.013861,-0.0202622,-0.01233,0.11116,0
-0.0293719,0.479203,-0.00177351,-0.0322362,-0.0145472,0.104404,0
-0.277804,0.0666983,-0.0384818,-0.0617726,0.0135196,0.021812,0
-0.36925,-0.26192,-0.0931678,-0.0635987,0.0362527,0.019147,0
-0.36925,-0.26192,-0.0931678,-0.0635987,0.0362527,0.019147,0
-0.42157,-0.302317,-0.0860707,-0.077622,0.04442,-0.0148391,0
-0.255111,-0.0501538,0.114608,-0.0772084,0.0043036,-0.0320651,0
0.210214,0.382349,0.445967,-0.0798346,-0.0148906,0.0500275,0
0.588652,0.423145,0.71341,-0.0371317,-0.0356989,0.0627159,0
0.681834,0.19138,0.859107,-0.0190342,-0.0606118,0.0971736,0
0.590625,-0.0672389,0.913843,-0.0289033,-0.0841778,0.114571,0
0.467116,-0.119294,0.848808,-0.037475,-0.103646,0.130003,0
0.37943,-0.0824157,0.637791,-0.0257302,-0.0927837,0.0783039,0
0.506398,0.0720592,0.48293,-0.00234246,-0.0851712,0.0245562,0
0.920749,0.265166,0.46863,-0.0146142,-0.0639033,0.000351667,0
1.23603,0.341007,0.465788,-0.00581467,-0.0286507,0.00936669,0
1.16791,0.0921511,0.422111,0.00128101,-0.032487,-0.0267523,0
0.953862,-0.279202,0.180036,0.0197944,-0.0139821,-0.0544916,0
0.789166,-0.504222,-0.146251,0.00957935,0.041766,-0.0787531,0
0.957655,-0.326519,-0.198479,-0.0320126,0.0340782,-0.0571557,0
1.42565,0.0928735,-0.0119785,-0.036704,-0.0773287,0.0511145,0
1.3146,0.230208,-0.156753,-0.0949856,-0.121015,0.140377,0
-0.123183,-0.368786,-1.07023,-0.0860663,0.00370476,-0.00740641,0
-1.40516,-0.842719,-1.85308,0.0389482,0.00700201,-0.051355,0
-1.44078,-0.802209,-1.76752,0.105408,-0.0222807,-0.136823,0
-0.705555,0.0499078,-1.15891,0.126534,-0.0269983,-0.0536782,0
-0.211014,0.32504,-0.444291,0.0690256,-0.0336839,-0.110982,0
-0.184118,0.0636015,-0.0754832,0.0204675,-0.050576,-0.0887028,0
-0.302117,-0.159753,-0.152946,0.0128225,-0.0427185,0.00584042,0
-0.365063,-0.124859,-0.353693,0.0355792,-0.0356747,0.0832725,0
-0.232733,0.0925916,-0.287375,0.0453921,-0.0390638,0.120402,0
0.186709,0.233551,-0.0115594,0.0373469,-0.0115968,0.149194,0
0.663715,0.135397,0.223666,0.0278818,-0.00789452,0.177259,0
0.92739,-0.157038,0.200627,0.0430473,-0.0308967,0.183132,0
0.793307,-0.461548,-0.106383,0.0575323,-0.0480905,0.163557,0
0.236407,-0.677279,-0.600252,0.0560054,-0.00466341,0.0645123,0
-0.302187,-0.325428,-0.902792,0.041738,0.0698779,0.0473348,0
-0.423398,0.245352,-0.812832,0.0224521,0.0966701,0.0211987,0
0.0846538,0.735618,-0.405391,0.0205382,0.0831427,0.0661253,0
0.772651,0.761785,-0.00308456,0.0256272,0.043914,0.109748,0
1.07581,0.371634,0.260061,0.0236839,-0.0317684,0.119877,0
1.02172,0.174706,0.436248,-0.0188529,-0.166479,0.162219,0
0.715759,0.26809,0.302376,-0.0693931,-0.254323,0.167699,0
0.241577,-0.00791629,-0.306801,-0.0607764,-0.20792,-0.0225912,0
0.00308853,-0.286318,-0.828172,-0.00396663,-0.159682,-0.171417,0
0.0525638,-0.348224,-0.83998,-0.0273409,-0.0130298,-0.282225,0
0.421052,-0.000182762,-0.389999,-0.0511783,0.0238037,-0.2503,0
0.714187,-0.0887243,-0.0190285,-0.0484374,-0.0194958,-0.270104,0
0.26764,-0.754523,-0.339097,-0.0540629,-0.0419829,-0.32688,0
-0.833089,-1.17528,-1.08802,-0.0108806,-0.068561,-0.33686,0
-1.64495,-0.773539,-1.44096,-0.0503101,0.0374271,-0.305761,0
-1.60192,0.159864,-1.17299,-0.03459,0.130418,-0.280264,0
-0.867682,0.717467,-0.386035,-0.0192133,0.0875822,-0.239197,0
-0.867682,0.717467,-0.386035,-0.0192133,0.0875822,-0.239197,0
-0.100812,0.42204,0.281578,0.00745551,0.00383124,-0.216532,0
0.292904,-0.255017,0.410901,0.030554,-0.0587454,-0.110963,0
0.340815,-0.684409,0.187409,0.0462609,-0.0989407,0.0188106,0
0.132271,-0.560954,-0.038301,0.0321173,-0.103633,0.155821,0
-0.147524,-0.29691,-0.145344,0.0328184,-0.0736363,0.17437,0
-0.229531,-0.054335,-0.126166,0.0404902,-0.0359248,0.186145,0
-0.0961359,0.0747763,-0.000590449,0.0503777,-0.0212097,0.174343,0
0.135722,0.0763602,0.167362,0.0447594,-0.00939919,0.166261,0
0.258283,-0.133077,0.224946,0.0636819,-0.00406367,0.11079,0
0.274206,-0.29924,0.175995,0.106392,-0.0154236,0.0822631,0
0.235334,-0.415117,0.109062,0.141428,-0.00260538,0.0362435,0
0.130373,-0.412945,0.0645537,0.136522,0.0363535,-0.0326346,0
0.014564,-0.340074,0.128885,0.104807,0.0747697,-0.10116,0
0.0260523,-0.254086,0.258007,0.0904,0.0838953,-0.131942,0
0.0443583,-0.189756,0.386964,0.0502894,0.076866,-0.161466,0
-0.00493363,-0.264801,0.492291,0.0156888,0.0636123,-0.241206,0
-0.152663,-0.257247,0.451492,0.0337629,0.0922243,-0.244953,0
-0.22279,0.03734,0.407492,0.0860247,0.0950659,-0.185035,0
-0.0875577,0.636455,0.602972,0.0764749,0.0703851,-0.0190841,0
0.123527,0.875736,0.981063,0.044798,0.0283141,0.0265741,0
0.270971,0.65212,1.26773,0.0426132,-0.0295848,0.00189316,0
0.252437,0.182037,1.21369,0.0576505,-0.0371436,-0.072499,0
0.228371,-0.120054,0.902868,0.0672292,0.00827523,-0.0677871,0
0.28363,-0.0861057,0.599047,0.0608316,0.0544536,-0.00431168,0
0.300956,0.213819,0.476735,0.0351763,0.0760224,0.0418965,0
0.136122,0.522896,0.573438,0.0266198,0.087879,0.0510179,0
-0.180662,0.596618,0.808531,0.0257189,0.0931372,0.0189452,0
-0.463222,0.520038,1.08242,0.0436831,0.0954483,0.00387543,0
-0.531549,0.418537,1.3324,0.0730764,0.0950111,-0.000516653,0
-0.38373,0.317266,1.52677,0.0450625,0.121603,0.0193483,0
-0.144976,0.264632,1.59955,-0.00602286,0.130985,0.0112911,0
0.0795803,0.302188,1.55123,-0.022816,0.122807,0.00976342,0
0.221663,0.206951,1.3774,-0.0166419,0.13756,-0.0108737,0
0.251036,0.0839834,1.13869,0.00355889,0.136154,-0.0229737,0
0.150636,0.0656212,0.972426,0.00779682,0.125148,-0.0125932,0
-0.0485167,0.0907863,0.928834,0.00124786,0.120326,-0.0165684,0
-0.238947,0.151044,0.975719,-0.0084092,0.117227,-0.0222943,0
-0.359007,0.29815,1.00468,-0.00568075,0.128328,-0.0210731,0
-0.174107,0.333906,0.980288,0.00494862,0.137228,-0.000500202,0
0.0795422,0.237689,0.961382,0.00261118,0.106701,-0.0120279,0
0.135989,0.126648,0.909762,-0.0118249,0.100111,-0.0382596,0
-0.167255,0.324425,0.8176,-0.0224774,0.100611,0.000323713,0
-0.509313,0.621991,0.840176,-0.0154556,0.104507,0.0912541,0
-0.597022,0.453836,1.00989,0.022877,0.0548542,0.0539057,0
