attitude_roll,attitude_pitch,attitude_yaw,rotationRate_x,rotationRate_y,rotationRate_z,acceleration_x,acceleration_y,acceleration_z
0.0475487,0.159576,-0.00380261,0.341231,0.241546,-0.226363,-0.0580658,0.103892,-0.164959
0.051659,0.169504,-0.00651298,0.668069,0.121533,-0.00387233,-0.105095,0.128944,-0.0179504
0.0530086,0.186096,-0.00646522,0.978999,0.0282235,0.0604376,-0.199713,0.142131,0.104553
0.0520443,0.207038,-0.00772539,1.07452,-0.194261,-0.100226,-0.306968,0.143734,0.252038
0.0465074,0.226651,-0.0137757,0.881928,-0.480804,-0.41435,-0.376341,0.15161,0.380689
0.037538,0.239928,-0.0269472,0.486272,-0.719683,-0.820482,-0.393037,0.158562,0.429991
0.0271212,0.244942,-0.0479374,0.0951318,-0.785528,-1.18731,-0.338717,0.18319,0.375663
0.0184041,0.243306,-0.0746502,-0.184301,-0.744574,-1.38837,-0.254662,0.231894,0.276611
0.0103544,0.237941,-0.103479,-0.285621,-0.741804,-1.40406,-0.153785,0.286407,0.180743
0.0025046,0.232299,-0.131494,-0.258615,-0.708996,-1.33184,-0.0805623,0.31304,0.100105
-0.00547303,0.227612,-0.157973,-0.215737,-0.675682,-1.24959,-0.0248653,0.293935,0.0611839
-0.0119819,0.22383,-0.182469,-0.205596,-0.525197,-1.14015,0.0301917,0.256298,0.0515531
-0.01566,0.219323,-0.204719,-0.281562,-0.327109,-1.02425,0.0434062,0.228876,0.0793799
-0.0163173,0.213582,-0.224513,-0.321469,-0.210184,-0.911331,0.0610203,0.162676,0.108633
-0.0182603,0.207305,-0.242325,-0.336368,-0.384327,-0.82947,0.0941929,0.0884679,0.146257
-0.0246707,0.200615,-0.258477,-0.378298,-0.566317,-0.736173,0.127247,0.030601,0.131212
-0.0341182,0.192148,-0.273043,-0.542394,-0.651793,-0.695366,0.105032,0.000294328,0.103996
-0.0439226,0.179283,-0.288141,-0.809025,-0.569833,-0.743824,0.0979075,-0.0594538,0.0532133
-0.0503641,0.161784,-0.304095,-1.01115,-0.346247,-0.739396,0.124484,-0.0821614,-0.0380374
-0.0534565,0.141557,-0.319058,-1.07095,-0.198829,-0.6214,0.150705,-0.0670604,-0.12955
-0.0548447,0.122089,-0.330416,-0.903401,-0.0908479,-0.391555,0.182781,-0.059641,-0.21467
-0.0544864,0.108122,-0.336461,-0.499131,0.0885157,-0.133397,0.186801,-0.0695633,-0.279165
-0.0502717,0.102534,-0.337326,-0.0980293,0.30441,0.0644781,0.158553,-0.0868396,-0.233849
-0.0442666,0.102153,-0.334787,0.0336236,0.301664,0.183612,0.126526,-0.116576,-0.070244
-0.0391291,0.10248,-0.330306,-0.00356054,0.254256,0.251407,0.0983011,-0.123164,0.043217
-0.0349092,0.101622,-0.324917,-0.0500182,0.247286,0.282963,0.0575645,-0.1195,0.078265
-0.0297978,0.100919,-0.319095,0.0146156,0.335711,0.304428,0.0245454,-0.105307,0.0621431
-0.0224631,0.102505,-0.312689,0.171931,0.466094,0.334884,-0.000224352,-0.077255,0.0633476
-0.0126987,0.107521,-0.305412,0.337112,0.572904,0.379896,-0.0131012,-0.0606702,0.114552
-0.00220964,0.115128,-0.297379,0.420952,0.55532,0.412031,-0.0223258,-0.0541476,0.20224
0.00722554,0.123596,-0.289293,0.407039,0.475699,0.391253,-0.045775,-0.0557803,0.276052
0.0147755,0.131184,-0.281943,0.338882,0.384283,0.349131,-0.0620112,-0.0544491,0.313413
0.0212447,0.137899,-0.275377,0.321195,0.377792,0.309962,-0.0847621,-0.0433544,0.288227
0.0287284,0.144967,-0.269749,0.368311,0.458435,0.27132,-0.0975149,-0.0299479,0.255933
0.0373291,0.152851,-0.264781,0.398515,0.46939,0.241726,-0.104161,-0.0201223,0.256909
0.0454226,0.160804,-0.260839,0.377138,0.3924,0.174468,-0.116751,-0.0227948,0.276333
0.0520428,0.168015,-0.258458,0.336985,0.327002,0.107819,-0.102511,-0.022411,0.259303
0.0586424,0.174916,-0.256737,0.359417,0.376404,0.111032,-0.0749569,4.44651e-05,0.2025
0.0664346,0.183316,-0.25443,0.48648,0.447995,0.18027,-0.0649377,0.0389042,0.145108
0.0752575,0.195257,-0.250592,0.683832,0.493065,0.281996,-0.0434385,0.0568729,0.108073
0.083234,0.210905,-0.245178,0.810283,0.395206,0.366838,-0.00916736,0.049952,0.116073
0.0867647,0.227375,-0.238121,0.75205,0.109537,0.463338,0.0309615,0.043292,0.131531
0.0831911,0.240741,-0.229542,0.468695,-0.291876,0.461133,0.032735,0.0199929,0.109237
0.0705275,0.245832,-0.221809,-0.0374069,-0.787454,0.314197,0.0116972,-0.0261679,-0.00366747
0.0498643,0.239579,-0.2173,-0.607353,-1.13273,0.0838292,-0.0382729,-0.0411942,-0.230423
0.0262518,0.223249,-0.216757,-0.976382,-1.20261,-0.0713921,-0.0234459,-0.0345062,-0.523734
0.00386071,0.204333,-0.218206,-0.825804,-0.998466,-0.0688549,0.0470162,-0.00347635,-0.855482
-0.0111486,0.193026,-0.217762,-0.293996,-0.485668,0.143908,0.0772102,0.0863454,-1.02779
-0.0163434,0.191745,-0.212179,0.125405,0.0680529,0.390162,0.0666871,0.111532,-0.91952
-0.0130144,0.195541,-0.203604,0.232767,0.404702,0.405384,0.010996,0.0337139,-0.621191
-0.00335935,0.199902,-0.196839,0.18948,0.676821,0.242048,-0.0310703,-0.0578813,-0.326285
-0.00335935,0.199902,-0.196839,0.18948,0.676821,0.242048,-0.0310703,-0.0578813,-0.326285
0.0106651,0.201823,-0.193863,-0.0166943,0.752356,0.0587148,-0.0459251,-0.0781548,-0.0406623
0.0244573,0.198936,-0.193802,-0.267293,0.603671,-0.0461647,0.0025625,-0.0946707,0.169086
0.0338707,0.192061,-0.195041,-0.401946,0.299459,-0.0909504,0.0577619,-0.105397,0.252641
0.0369123,0.183691,-0.196501,-0.415037,-0.00782609,-0.0711805,0.0838799,-0.0959655,0.269402
0.0351367,0.176449,-0.197288,-0.287647,-0.141727,-0.0332452,0.0916978,-0.0825367,0.234217
0.0329178,0.172584,-0.197423,-0.105439,-0.0817887,0.00925502,0.079241,-0.0600524,0.21598
0.0311526,0.172011,-0.196732,0.0437737,-0.0883744,0.0550982,0.0839514,-0.0466861,0.262917
0.0293015,0.174343,-0.195096,0.174549,-0.0777655,0.121384,0.0948804,-0.0356301,0.302777
0.0265106,0.178851,-0.191824,0.25736,-0.157865,0.216747,0.114495,-0.0185118,0.354263
0.021432,0.184622,-0.187027,0.30229,-0.249171,0.253976,0.103995,-0.015537,0.37104
0.0157877,0.19118,-0.18259,0.335105,-0.207082,0.180968,0.0575444,-0.0135345,0.350875
0.0123247,0.19823,-0.180466,0.366219,-0.0970749,0.0382576,0.0310994,-0.000774026,0.334133
0.0121293,0.205805,-0.180998,0.390781,0.0709125,-0.070474,0.0421125,0.0251861,0.325001
0.0152839,0.213834,-0.183159,0.416695,0.199413,-0.127499,0.0646089,0.0530591,0.320845
0.0214349,0.221982,-0.186584,0.389216,0.342101,-0.197302,0.0641452,0.0700321,0.321873
0.0303347,0.228936,-0.191333,0.323541,0.436279,-0.239141,0.0743432,0.0700044,0.300822
0.0403266,0.234829,-0.196399,0.302287,0.447531,-0.220101,0.0879729,0.0906324,0.226372
0.0511346,0.241375,-0.20028,0.368567,0.558478,-0.120258,0.144919,0.0941862,0.0957939
0.0639588,0.248641,-0.202196,0.343469,0.662757,-0.0246942,0.183244,0.0627826,0.017025
0.0758015,0.253925,-0.202012,0.154807,0.468277,0.077069,0.188159,0.0364989,0.000844657
0.0815263,0.25403,-0.200272,-0.185641,0.161216,0.0593779,0.112919,0.0128877,-0.0548995
0.0810075,0.244589,-0.200657,-0.799915,-0.239568,-0.212016,-0.0518992,0.0031438,-0.177903
0.0750624,0.221323,-0.206892,-1.43452,-0.414557,-0.559527,-0.124356,-0.0339894,-0.415384
0.0723161,0.19016,-0.217608,-1.49934,-0.00160785,-0.669112,-0.128614,0.0221766,-0.78988
0.0806734,0.163448,-0.227159,-1.06398,0.643012,-0.41788,-0.0967237,0.16324,-0.988232
0.0969285,0.14703,-0.229325,-0.576519,0.859904,0.0617925,-0.0459889,0.203187,-0.872366
0.111429,0.139759,-0.2238,-0.239161,0.625844,0.365505,-0.059074,0.0898662,-0.599205
0.119147,0.137528,-0.215197,-0.119769,0.272872,0.426339,-0.162283,0.0051067,-0.356217
0.120659,0.135502,-0.20683,-0.207844,0.0184432,0.370695,-0.23732,-0.0586985,-0.204709
0.118938,0.130881,-0.199523,-0.328753,-0.0713124,0.291928,-0.278196,-0.11348,-0.140771
0.116812,0.12475,-0.193923,-0.321122,-0.0512869,0.183382,-0.294657,-0.147912,-0.128745
0.116036,0.11988,-0.190931,-0.193883,0.0101187,0.0521215,-0.299454,-0.159124,-0.0989059
0.116597,0.11723,-0.190925,-0.0800296,0.0370869,-0.0786357,-0.274195,-0.150983,-0.00475657
0.11765,0.116117,-0.193157,-0.00789068,0.0507464,-0.141274,-0.219127,-0.122257,0.1114
0.119255,0.116092,-0.196051,0.0274575,0.0715896,-0.138437,-0.175728,-0.0795725,0.2212
0.12102,0.116204,-0.198455,0.00980228,0.0648631,-0.0980316,-0.150092,-0.0464876,0.31903
0.121392,0.116081,-0.200093,0.0138167,-0.0656409,-0.0649254,-0.135187,-0.0376834,0.389113
0.118031,0.117348,-0.200873,0.136941,-0.299749,0.00978169,-0.108433,-0.0209062,0.411018
0.109288,0.122106,-0.200004,0.323183,-0.550774,0.129908,-0.0640839,-0.00769822,0.414779
0.0969013,0.130124,-0.197157,0.421492,-0.618113,0.228682,-0.0467375,0.000606313,0.415269
0.0854384,0.138802,-0.192777,0.376938,-0.425626,0.281092,-0.0577193,0.000294909,0.420425
0.079313,0.145405,-0.187445,0.231968,-0.121509,0.288882,-0.0805147,-0.00388022,0.437356
0.0773889,0.149232,-0.182242,0.129982,-0.0453719,0.250844,-0.0965329,-0.0220212,0.440348
0.0744137,0.152749,-0.177708,0.205668,-0.196838,0.224812,-0.0810173,-0.023305,0.396312
0.0685021,0.158445,-0.173636,0.329802,-0.314684,0.223833,-0.0580544,0.00224988,0.323873
0.061141,0.166203,-0.168951,0.416966,-0.332326,0.300493,-0.0142709,0.0249973,0.239275
0.0547495,0.175895,-0.162319,0.507506,-0.16205,0.405655,0.0216227,0.0406511,0.128755
0.0527255,0.186178,-0.154009,0.436077,0.0956859,0.459935,0.024229,0.036255,0.0385431
0.0538848,0.192507,-0.144999,0.120435,0.149884,0.442913,0.031029,-0.0197703,-0.0272821
0.0527902,0.191601,-0.137758,-0.231159,-0.174116,0.224254,-0.00909074,-0.0886218,-0.129011
0.0432472,0.184847,-0.137,-0.422217,-0.7814,-0.197093,-0.0680862,-0.115963,-0.305537
0.0432472,0.184847,-0.137,-0.422217,-0.7814,-0.197093,-0.0680862,-0.115963,-0.305537
0.0245304,0.175467,-0.14405,-0.48203,-1.16452,-0.487403,0.0235782,-0.098305,-0.516094
0.00284365,0.165734,-0.15415,-0.474001,-1.12596,-0.493457,0.131122,-0.0439772,-0.698658
-0.016523,0.156392,-0.163109,-0.479374,-0.953058,-0.383543,0.156854,0.0163509,-0.773509
-0.0319873,0.146889,-0.170461,-0.500544,-0.682475,-0.344324,0.117041,0.0364367,-0.757155
-0.0407581,0.136999,-0.17846,-0.505189,-0.293959,-0.420175,0.0687617,0.0258681,-0.703552
-0.0409788,0.128524,-0.188048,-0.356,0.139988,-0.489806,0.0804701,-0.00882339,-0.628221
-0.0337928,0.123734,-0.198047,-0.182743,0.407291,-0.474189,0.114506,0.012289,-0.459033
-0.0243429,0.120985,-0.206659,-0.133471,0.408002,-0.360992,0.151604,0.0253992,-0.224294
-0.0167207,0.118591,-0.212646,-0.117729,0.276388,-0.234307,0.161744,0.0114557,-0.0406555
-0.0123314,0.116766,-0.216255,-0.0681953,0.123311,-0.122211,0.157816,-0.00895653,0.0844542
-0.0111427,0.115849,-0.217785,-0.0268427,-0.0107035,-0.0374066,0.140859,-0.0241496,0.179881
-0.0117625,0.11545,-0.218171,-0.0180013,-0.0425745,-0.00717023,0.100795,-0.0328774,0.254062
-0.0124253,0.115423,-0.21816,0.02271,-0.0160961,0.00740128,0.0737437,-0.0332247,0.307372
-0.0125638,0.116727,-0.217835,0.110699,-0.00923958,0.0202894,0.0569879,-0.0215077,0.354872
-0.0133248,0.11991,-0.217077,0.213016,-0.0617303,0.0591449,0.0574946,-0.00751329,0.40861
-0.0153102,0.12531,-0.215156,0.328372,-0.113301,0.118816,0.0618663,0.0019353,0.445412
-0.0182869,0.132696,-0.212347,0.408661,-0.143957,0.14436,0.0572334,0.00632994,0.479599
-0.0216491,0.141206,-0.209325,0.435039,-0.154251,0.132074,0.0424281,0.000905231,0.525276
-0.025329,0.149548,-0.20703,0.394979,-0.182741,0.0710865,0.0322763,-0.0100967,0.561641
-0.0293208,0.156876,-0.206303,0.348524,-0.196007,-0.0224285,0.0441544,-0.0359363,0.548483
-0.0327686,0.16379,-0.20767,0.352046,-0.160429,-0.126967,0.0293488,-0.0216646,0.48096
-0.0346628,0.170955,-0.210602,0.349131,-0.0871476,-0.170201,0.0348984,0.0125612,0.39575
-0.0358144,0.177639,-0.213553,0.303846,-0.0646522,-0.13947,0.0709031,0.0436648,0.286046
-0.0340826,0.18335,-0.215803,0.256821,0.260744,-0.105557,0.0898098,0.0542731,0.118013
-0.0249115,0.187509,-0.21708,0.145644,0.585179,-0.0115953,0.114347,0.0444294,-0.0145831
-0.0140471,0.188816,-0.215754,-0.0222696,0.441668,0.127895,0.143924,0.00817654,-0.111452
-0.0109786,0.186946,-0.213332,-0.139992,-0.106351,0.075455,0.10498,-0.0597926,-0.247692
-0.0180622,0.183209,-0.214681,-0.280831,-0.625119,-0.247801,-0.0173973,-0.128102,-0.458379
-0.0344115,0.173228,-0.224212,-0.781829,-1.16758,-0.6443,-0.103058,-0.122712,-0.61876
-0.0569682,0.154871,-0.23983,-1.03451,-1.24196,-0.770314,-0.0820802,-0.0477893,-0.911353
-0.0722083,0.138349,-0.254915,-0.637566,-0.357016,-0.547921,-0.134583,0.154296,-1.22655
-0.0657528,0.133209,-0.260645,0.097292,0.888588,0.0514889,-0.0969708,0.248538,-1.19238
-0.0416475,0.141118,-0.253632,0.663434,1.47769,0.545521,-0.0328751,0.149897,-0.774685
-0.0155548,0.155214,-0.240323,0.699988,1.21893,0.694617,-0.105162,0.0351455,-0.251475
-0.000369055,0.16601,-0.227025,0.36663,0.489486,0.574872,-0.188509,-0.091359,0.112412
0.000527362,0.169626,-0.218264,0.0148203,-0.211808,0.280018,-0.245835,-0.171809,0.241584
-0.00752785,0.167768,-0.21551,-0.170235,-0.464347,0.00491229,-0.268136,-0.167216,0.1848
-0.0149135,0.16401,-0.217582,-0.204804,-0.262219,-0.19383,-0.233746,-0.114953,0.0838372
-0.0162831,0.159758,-0.222571,-0.23111,0.0313469,-0.279637,-0.170021,-0.0746851,0.0865001
-0.0130293,0.155142,-0.228409,-0.233814,0.185761,-0.280789,-0.114783,-0.0379544,0.135229
-0.00797169,0.151155,-0.233535,-0.158401,0.225012,-0.222401,-0.0703358,-0.0216457,0.183772
-0.00319293,0.149246,-0.237678,-0.0303468,0.189023,-0.185245,-0.0518657,-0.016926,0.230227
0.000842654,0.150048,-0.240973,0.0994412,0.175133,-0.130628,-0.0398194,-0.00757335,0.279627
0.00452914,0.152798,-0.242753,0.16155,0.170889,-0.0398909,-0.0181177,0.011152,0.337765
0.00784769,0.156132,-0.242424,0.165577,0.163881,0.0758152,-0.00761478,0.0249293,0.39404
0.0103666,0.159281,-0.239874,0.147006,0.117691,0.170244,-0.027035,0.0306022,0.438781
0.0113033,0.162327,-0.23565,0.156719,0.0389179,0.246574,-0.0332949,0.0365235,0.462316
0.0102029,0.166075,-0.230133,0.209435,-0.0634866,0.293819,-0.0430671,0.0270981,0.463073
0.00677138,0.171081,-0.224241,0.29306,-0.171992,0.288478,-0.0539442,0.00855033,0.447964
0.00145105,0.177847,-0.218574,0.3711,-0.262869,0.276726,-0.0293212,0.00251834,0.418857
0.00145105,0.177847,-0.218574,0.3711,-0.262869,0.276726,-0.0293212,0.00251834,0.418857
-0.00523165,0.185455,-0.212878,0.382273,-0.301684,0.292406,-0.0201266,0.00830734,0.387548
-0.0133462,0.192913,-0.206252,0.379389,-0.398129,0.357511,-0.00927107,0.0265878,0.327966
-0.0239536,0.201028,-0.198434,0.457616,-0.503471,0.380495,-0.0240774,0.0260011,0.209882
-0.0354177,0.210671,-0.19109,0.524965,-0.466677,0.300351,-0.0824379,0.0197542,0.0956553
-0.0444373,0.220811,-0.185788,0.497534,-0.328494,0.176877,-0.0885071,-0.0162235,0.000635803
-0.0510184,0.229251,-0.182817,0.345905,-0.29094,0.0887725,-0.027761,-0.0353864,-0.0806223
-0.0582306,0.233129,-0.181104,0.0183411,-0.424286,0.0636707,0.0176982,-0.0357918,-0.145568
-0.0683907,0.229,-0.18109,-0.434122,-0.567492,-0.0633043,-0.0127771,-0.0652782,-0.258226
-0.0791131,0.216632,-0.186185,-0.817601,-0.627812,-0.355076,-0.104228,-0.0876099,-0.44284
-0.0903274,0.199273,-0.197785,-0.968685,-0.738078,-0.610865,-0.094808,-0.0833697,-0.648938
-0.102038,0.182565,-0.212819,-0.794366,-0.668462,-0.662171,-0.0231384,-0.0109523,-0.83193
-0.10971,0.17131,-0.226101,-0.480976,-0.289304,-0.507507,0.0485151,0.0711688,-0.862954
-0.109803,0.164625,-0.235632,-0.32542,0.0824376,-0.367782,0.0845724,0.0653102,-0.70661
-0.105387,0.15933,-0.242873,-0.273297,0.212718,-0.294122,0.100182,0.00466534,-0.475663
-0.100345,0.155418,-0.249119,-0.173061,0.181994,-0.301334,0.0468606,-0.0112378,-0.291727
-0.0962167,0.153837,-0.255588,-0.0451019,0.139045,-0.311912,0.0368437,-0.03404,-0.131416
-0.0923177,0.15467,-0.261658,0.0683483,0.180462,-0.292653,0.0504825,-0.044539,0.0295093
-0.0869598,0.157128,-0.267316,0.110589,0.274379,-0.28875,0.0405686,-0.0330774,0.200608
-0.0795264,0.159702,-0.272889,0.103136,0.386411,-0.282475,0.0362259,-0.0292996,0.348565
-0.0702107,0.162411,-0.278424,0.140706,0.43532,-0.28766,0.0187691,-0.0309598,0.455494
-0.0613516,0.166611,-0.284078,0.256979,0.336518,-0.302521,0.000497058,-0.0260533,0.534193
-0.0555218,0.173674,-0.290075,0.412909,0.131583,-0.337762,-0.00756684,-0.0261725,0.589381
-0.0537054,0.183507,-0.297049,0.519865,-0.0580474,-0.409175,-0.0131701,-0.0317393,0.627834
-0.0543675,0.194584,-0.305426,0.526514,-0.133544,-0.46887,0.00148113,-0.0155499,0.635013
-0.0545132,0.205345,-0.314899,0.496818,-0.0595158,-0.525632,0.00834332,-0.00185996,0.597852
-0.0522697,0.214948,-0.326303,0.385533,0.058122,-0.65312,-0.0188416,0.00867619,0.553534
-0.0474284,0.221173,-0.340638,0.156107,0.0650414,-0.768965,-0.0250485,0.00184454,0.505824
-0.0441591,0.223232,-0.356482,0.0223115,-0.0798973,-0.755046,0.0186964,0.0157555,0.35772
-0.0429266,0.225551,-0.370179,0.19299,-0.0782012,-0.581888,0.0160849,0.0607406,0.115054
-0.041233,0.232675,-0.379952,0.457644,0.0163765,-0.427991,-0.0277147,0.0595917,-0.107639
-0.0386862,0.242076,-0.388712,0.371066,0.00982054,-0.50619,-0.0788756,-0.0180483,-0.185035
-0.0359967,0.24542,-0.401999,-0.121991,-0.0620366,-0.834074,-0.136797,-0.137819,-0.198699
-0.0321566,0.23726,-0.424277,-0.775627,-0.09664,-1.30886,-0.2014,-0.202811,-0.288252
-0.0270667,0.217533,-0.454811,-1.22594,-0.0616997,-1.56237,-0.193606,-0.145339,-0.475814
-0.0216722,0.193064,-0.486921,-1.22017,-0.08386,-1.47876,-0.0851011,-0.0357789,-0.680354
-0.0188689,0.173777,-0.513698,-0.714649,-0.105443,-1.0848,0.0529007,0.041648,-0.810403
-0.0178149,0.166069,-0.530117,-0.122964,-0.0631436,-0.518724,0.105338,0.101205,-0.771239
-0.0179147,0.166881,-0.535793,0.121957,-0.0508169,-0.100117,0.0359144,0.0691078,-0.570768
-0.0182493,0.168979,-0.536802,0.0533181,0.0319525,-0.0493523,-0.101137,-0.0285251,-0.360202
-0.0155486,0.168476,-0.53914,-0.107768,0.210626,-0.189782,-0.192558,-0.0859211,-0.211543
-0.00852661,0.165461,-0.544104,-0.171631,0.400837,-0.275893,-0.204923,-0.0954247,-0.0999055
0.00122888,0.163084,-0.549448,-0.0403495,0.463296,-0.231883,-0.156883,-0.0740428,-0.0126286
0.0106536,0.164799,-0.552905,0.22485,0.411836,-0.106914,-0.122829,-0.060693,0.078055
0.0183777,0.171915,-0.554615,0.476103,0.330178,-0.0745893,-0.155298,-0.0658688,0.190339
0.0244552,0.182508,-0.557416,0.560575,0.237295,-0.197791,-0.201766,-0.0883552,0.323567
0.0296352,0.192721,-0.563645,0.461913,0.177761,-0.388039,-0.211272,-0.098219,0.431816
0.0352833,0.200314,-0.573062,0.338459,0.215293,-0.498818,-0.177393,-0.0756051,0.464898
0.0423998,0.206228,-0.584192,0.310219,0.263723,-0.572124,-0.154968,-0.0431552,0.449366
0.049421,0.212637,-0.596505,0.390989,0.177045,-0.602193,-0.118509,-0.0280057,0.416714
0.0535394,0.221335,-0.60943,0.543625,-0.0543103,-0.624272,-0.0904773,-0.0204127,0.367793
0.0535394,0.221335,-0.60943,0.543625,-0.0543103,-0.624272,-0.0904773,-0.0204127,0.367793
0.053997,0.232648,-0.623231,0.640266,-0.172014,-0.661554,-0.0854452,0.00365713,0.295463
0.0540184,0.244093,-0.637757,0.561547,-0.165312,-0.693144,-0.105507,0.0362014,0.232751
0.0559573,0.253297,-0.65321,0.446614,0.00927332,-0.768592,-0.117315,0.0231497,0.14808
0.062307,0.260075,-0.670838,0.322616,0.1319,-0.903836,-0.0964428,-0.0152618,0.0818202
0.0690541,0.262859,-0.690628,0.0660425,-0.00401437,-0.979535,-0.0443818,-0.0390012,0.0517591
0.0715291,0.259775,-0.71119,-0.236463,-0.296875,-1.04651,-0.0408567,-0.027622,-0.0393651
0.0672444,0.250113,-0.733926,-0.572525,-0.724102,-1.22865,-0.111017,0.011033,-0.193492
0.0564177,0.235556,-0.759729,-0.657019,-0.8773,-1.343,-0.107367,0.0448464,-0.452365
0.0496624,0.224113,-0.785891,-0.309699,-0.319783,-1.23485,-0.0237727,0.0876901,-0.731365
0.0545117,0.221417,-0.808209,0.110164,0.234444,-0.948641,0.0447917,0.141045,-0.753355
0.0617138,0.224149,-0.824915,0.19694,0.00646511,-0.691554,0.0866273,0.113115,-0.521394
0.0597613,0.225993,-0.838469,0.0467015,-0.471649,-0.666729,0.0122428,0.0457604,-0.373878
0.0523708,0.224236,-0.853717,-0.132742,-0.53998,-0.840387,-0.115047,0.0201978,-0.373678
0.0475986,0.21964,-0.872126,-0.208342,-0.331888,-0.961185,-0.155813,0.047941,-0.39366
0.0473917,0.215442,-0.892114,-0.093606,-0.139738,-1.02022,-0.159011,0.0743598,-0.356536
0.049741,0.214301,-0.913732,0.0802813,-0.107466,-1.10489,-0.156615,0.0772429,-0.228688
0.0525337,0.215946,-0.937545,0.181212,-0.123472,-1.22633,-0.153341,0.080009,-0.0695257
0.0554104,0.217789,-0.963999,0.119271,-0.161576,-1.3323,-0.0924649,0.0578985,0.0890759
0.057643,0.217272,-0.99065,-0.0199257,-0.180178,-1.24499,0.0302609,0.0558377,0.19351
0.0591345,0.214528,-1.01358,-0.117391,-0.162105,-1.00247,0.0911195,0.094737,0.241132
0.0596776,0.210751,-1.03113,-0.149017,-0.158048,-0.741927,0.0900692,0.106533,0.254911
0.0585251,0.207673,-1.04426,-0.0631245,-0.232764,-0.587444,0.0618295,0.0631473,0.24228
0.0549406,0.207167,-1.05567,0.0712633,-0.379624,-0.542586,0.0333737,0.0207667,0.230452
0.0476625,0.208727,-1.06588,0.118705,-0.55333,-0.431634,0.0689598,0.0111699,0.230755
0.0370016,0.210435,-1.07304,0.0723015,-0.648598,-0.267404,0.100313,0.00634027,0.210013
0.0248352,0.211165,-1.07724,0.00397936,-0.650789,-0.159103,0.085979,-0.0224566,0.157006
0.01281,0.210072,-1.08019,-0.115501,-0.598145,-0.146706,0.0384822,-0.0483968,0.0946501
0.0030452,0.206387,-1.08373,-0.240314,-0.467869,-0.218749,-0.0211079,-0.0831,0.00985533
-0.00479819,0.201715,-1.0896,-0.198145,-0.462305,-0.368385,-0.0690753,-0.106154,-0.0813829
-0.0135585,0.199434,-1.09866,-0.0261127,-0.594618,-0.509698,-0.0710306,-0.101736,-0.143889
-0.0230605,0.201001,-1.1097,0.144709,-0.532513,-0.569661,-0.0441019,-0.0722153,-0.184196
-0.0286708,0.204362,-1.12146,0.125016,-0.252279,-0.590281,-0.0417538,-0.0361168,-0.165056
-0.029017,0.205022,-1.13362,-0.113208,-0.0585929,-0.611341,-0.0210484,-0.0584509,-0.095971
-0.0277587,0.20054,-1.14678,-0.363788,-0.15658,-0.686378,-0.0474318,-0.060918,-0.0917684
-0.031058,0.192135,-1.16267,-0.510025,-0.47695,-0.866102,-0.119482,-0.0415887,-0.162277
-0.0378113,0.182152,-1.18263,-0.546374,-0.505969,-1.05526,-0.135522,-0.025656,-0.27747
-0.0410428,0.172592,-1.2053,-0.489397,-0.191554,-1.11672,-0.10765,0.015425,-0.363083
-0.0379934,0.164917,-1.22758,-0.358222,0.104639,-1.03808,-0.0643529,0.0752115,-0.348752
-0.0304024,0.159975,-1.2477,-0.211069,0.325367,-0.939031,-0.0627638,0.103034,-0.267207
-0.0196078,0.157492,-1.26611,-0.0808052,0.447946,-0.887371,-0.103958,0.112667,-0.158761
-0.00800024,0.157688,-1.28385,0.0870175,0.407907,-0.874549,-0.143848,0.12011,-0.0575284
0.00115629,0.161589,-1.30114,0.304246,0.215997,-0.837996,-0.160702,0.126326,0.0313296
0.00597094,0.169602,-1.31816,0.491043,-0.00678467,-0.850957,-0.19012,0.133253,0.0949636
0.0074047,0.179703,-1.33607,0.498297,-0.154841,-0.923539,-0.245948,0.144756,0.154265
0.00692347,0.187828,-1.35618,0.310676,-0.248359,-1.06582,-0.281963,0.146733,0.192029
0.00585931,0.191352,-1.37964,0.0549646,-0.307254,-1.25278,-0.296508,0.144624,0.197979
0.00425582,0.190384,-1.40701,-0.109029,-0.362863,-1.43428,-0.287001,0.14761,0.139638
0.00241583,0.188161,-1.43724,-0.085832,-0.391903,-1.52765,-0.23394,0.163676,0.0412003
0.000417964,0.187315,-1.46829,0.00386533,-0.384679,-1.51831,-0.172576,0.195788,-0.00990862
-0.00131795,0.18787,-1.49854,0.038636,-0.351187,-1.45601,-0.119128,0.212462,-0.00860912
-0.00251419,0.188633,-1.52727,0.0311485,-0.300759,-1.37607,-0.0880302,0.203859,0.0108076
-0.00251419,0.188633,-1.52727,0.0311485,-0.300759,-1.37607,-0.0880302,0.203859,0.0108076
-0.00199343,0.189598,-1.55441,0.061782,-0.152258,-1.30771,-0.0848342,0.186862,0.0230022
0.00105694,0.191187,-1.58059,0.0817197,-0.0478124,-1.27464,-0.0807953,0.157264,0.0655037
0.00462506,0.192033,-1.60616,-0.00595133,-0.108222,-1.24101,-0.0667348,0.124372,0.1589
0.00613824,0.190495,-1.63072,-0.126441,-0.192877,-1.17674,-0.0381163,0.0842573,0.197911
0.00662278,0.187309,-1.65397,-0.169207,-0.183392,-1.11719,-0.0311345,0.0619178,0.173009
0.00758955,0.183551,-1.67616,-0.209544,-0.128477,-1.08002,-0.0156711,0.039517,0.165913
0.00906085,0.177739,-1.6975,-0.372595,-0.115259,-1.02931,0.0106744,0.0155197,0.199995
0.00977307,0.168308,-1.71758,-0.543028,-0.166086,-0.960712,0.0368435,-0.00646609,0.202772
0.00873243,0.156756,-1.73565,-0.57166,-0.215054,-0.83174,0.0710409,-0.0114879,0.137146
0.00677824,0.146319,-1.75048,-0.450658,-0.177032,-0.644323,0.097405,-0.0115818,0.0532108
0.00598878,0.139314,-1.76156,-0.240565,-0.0219716,-0.461084,0.0985158,-0.0200413,0.0274947
0.00920625,0.136572,-1.76903,-0.0441806,0.239077,-0.28896,0.0837141,-0.0244202,0.0594942
0.0162729,0.137143,-1.77335,0.095865,0.399942,-0.148517,0.0770508,-0.0461482,0.155519
0.0249761,0.139943,-1.77534,0.172961,0.435104,-0.0416976,0.0706839,-0.0564817,0.28296
0.0334134,0.143929,-1.77491,0.214287,0.422176,0.0936118,0.062855,-0.0462037,0.391619
0.0408281,0.149116,-1.77234,0.306196,0.358389,0.160675,0.0161548,-0.0502882,0.467342
0.0462658,0.157127,-1.76961,0.501283,0.21893,0.129164,-0.0282081,-0.060743,0.522482
0.0493106,0.169425,-1.76793,0.706295,0.121024,0.107641,-0.0231484,-0.0470518,0.557985
0.0498036,0.184327,-1.76558,0.738247,-0.0310273,0.221069,0.0331527,0.00498611,0.58731
0.0470985,0.198264,-1.7595,0.627288,-0.111991,0.459242,0.0989372,0.0697859,0.539061
0.0420742,0.210884,-1.74806,0.604871,-0.15682,0.708084,0.133614,0.0897871,0.36698
0.0350848,0.223064,-1.7332,0.511806,-0.238413,0.741547,0.0887011,0.0362208,0.177505
0.0244282,0.228805,-1.72014,-0.0530301,-0.658502,0.536971,0.0307916,-0.0671012,0.0532985
-0.000535025,0.220526,-1.71249,-0.741761,-1.67791,0.167614,-0.064877,-0.114463,-0.20038
-0.041912,0.202899,-1.71415,-0.944246,-2.41181,-0.261544,-0.0585233,-0.105756,-0.720211
-0.088254,0.186951,-1.72192,-0.637527,-2.17558,-0.334066,0.047465,0.00400949,-1.26943
-0.119503,0.179091,-1.72701,-0.229736,-0.989101,-0.0579962,0.028735,0.176533,-1.47344
-0.126427,0.176279,-1.72604,-0.0850067,0.267935,0.128388,-0.0167784,0.155104,-1.27764
-0.11376,0.174368,-1.72512,-0.0979126,0.902417,-0.0461089,-0.0923841,0.0329832,-0.907043
-0.0951832,0.172557,-1.72868,-0.122537,0.809244,-0.278091,-0.108825,-0.0114336,-0.556313
-0.0812303,0.17042,-1.73589,-0.154579,0.467524,-0.382025,-0.0352382,0.0025588,-0.322546
-0.0731643,0.167307,-1.7436,-0.219556,0.25384,-0.341277,0.051006,0.0106742,-0.195434
-0.0673081,0.162762,-1.74997,-0.270386,0.24768,-0.25753,0.0703357,0.0216175,-0.128381
-0.0609783,0.158098,-1.75484,-0.203257,0.321822,-0.202047,0.0560149,0.0150608,-0.0898685
-0.0526051,0.156234,-1.75868,0.00468538,0.467007,-0.167395,0.0525051,0.00253811,-0.030987
-0.0413757,0.158341,-1.76151,0.176079,0.591325,-0.116935,0.0583179,0.0141257,0.094479
-0.0289685,0.162359,-1.76312,0.19933,0.618789,-0.0527993,0.0607339,0.0102338,0.2695
-0.017067,0.165982,-1.76336,0.163547,0.553673,0.0184081,0.0673536,-0.0013444,0.408812
-0.00771874,0.168944,-1.76249,0.135838,0.37691,0.0590597,0.0674386,-0.00997394,0.496415
-0.00318192,0.17153,-1.7612,0.131691,0.103719,0.0632632,0.0678325,-0.0264081,0.534148
-0.00389686,0.174414,-1.75995,0.169456,-0.155736,0.0603501,0.0772021,-0.0340345,0.52193
-0.00927997,0.178702,-1.75867,0.266957,-0.338914,0.0623181,0.0833967,-0.0335813,0.481607
-0.0170058,0.185082,-1.7574,0.363572,-0.398502,0.0552679,0.0848146,-0.0196168,0.448264
-0.0258798,0.19209,-1.75634,0.311928,-0.478885,0.0284832,0.0812787,-0.0170208,0.465394
-0.0356549,0.196981,-1.75626,0.16458,-0.476254,-0.0471779,0.0781252,-0.0326077,0.4521
-0.0433674,0.19866,-1.75861,-0.000872696,-0.319546,-0.202096,0.0480554,-0.0418565,0.399057
-0.0469115,0.197532,-1.76485,-0.136102,-0.179238,-0.39983,0.0294572,-0.0516897,0.347166
-0.0483793,0.194526,-1.77435,-0.183509,-0.157738,-0.493059,0.077264,-0.0319181,0.273448
-0.0497342,0.192482,-1.78441,-0.0443177,-0.167571,-0.472038,0.115812,0.00803745,0.170031
-0.0505434,0.194165,-1.79314,0.169139,-0.0590854,-0.387647,0.134106,0.0351109,0.0843567
-0.0489653,0.199728,-1.79965,0.337503,0.076127,-0.285926,0.123244,0.0328147,0.0528899
-0.0463292,0.20722,-1.8047,0.359593,0.061121,-0.257514,0.102313,0.00885585,0.0762963
-0.0456842,0.21364,-1.80961,0.243524,-0.102874,-0.247409,0.102446,-0.0385761,0.050068
-0.0480601,0.217192,-1.81404,0.0769815,-0.217064,-0.202465,0.110603,-0.0524409,-0.0641719
-0.053093,0.215542,-1.81772,-0.311376,-0.393876,-0.153527,0.0810607,-0.0463771,-0.183161
-0.062432,0.203995,-1.82178,-0.854065,-0.602005,-0.196268,-0.00779559,-0.0410538,-0.346663
-0.0730755,0.184553,-1.82782,-1.04764,-0.532228,-0.246983,-0.0611181,-0.0400795,-0.654874
-0.0790144,0.166866,-1.8336,-0.689964,-0.108389,-0.164998,-0.0915672,0.0277561,-0.949401
-0.0752528,0.1591,-1.83524,-0.105961,0.419485,0.0874773,-0.1028,0.100996,-1.00947
-0.0658788,0.160699,-1.83088,0.236568,0.524902,0.307822,-0.104374,0.0922135,-0.783977
-0.0580937,0.165743,-1.82336,0.280122,0.363426,0.377063,-0.138093,0.0294414,-0.496432
-0.0533508,0.170452,-1.81577,0.228328,0.261037,0.33941,-0.182478,-0.0133556,-0.314951
-0.0494718,0.174049,-1.80936,0.16063,0.238906,0.27613,-0.202425,-0.0266421,-0.206926
-0.0457118,0.176157,-1.80429,0.0751933,0.239203,0.21437,-0.199335,-0.0349267,-0.119348
-0.0410065,0.176874,-1.80071,0.0137411,0.306065,0.12988,-0.201191,-0.0501667,-0.0537367
-0.0345034,0.176559,-1.79929,-0.0410008,0.365187,0.00728373,-0.188467,-0.0714274,0.0273403
-0.0269755,0.175477,-1.80027,-0.0613319,0.359702,-0.08959,-0.153755,-0.0754069,0.11284
-0.019953,0.174744,-1.8026,-0.00672602,0.290283,-0.129652,-0.114126,-0.0570249,0.171388
-0.0144602,0.175465,-1.8053,0.0755825,0.229443,-0.129251,-0.0809771,-0.033839,0.211883
-0.00949766,0.177484,-1.80761,0.106925,0.23041,-0.100492,-0.0613608,-0.0134793,0.259561
-0.00428633,0.179401,-1.8095,0.0864515,0.263816,-0.0866719,-0.056192,-0.00495486,0.309335
0.0017456,0.181095,-1.81114,0.0843287,0.304592,-0.0731073,-0.0396656,-0.00313589,0.339007
0.00773328,0.182914,-1.81218,0.104122,0.277141,-0.018218,-0.0167747,0.00938016,0.363995
0.0131478,0.185345,-1.81159,0.139359,0.27105,0.0844181,0.00810443,0.0243276,0.377594
0.0178274,0.188533,-1.80869,0.174788,0.255567,0.205156,0.0151738,0.0398045,0.396873
0.0216174,0.192429,-1.80368,0.200614,0.19925,0.290498,-0.000937732,0.0356804,0.425878
0.0216174,0.192429,-1.80368,0.200614,0.19925,0.290498,-0.000937732,0.0356804,0.425878
0.0228651,0.196808,-1.79742,0.212531,0.0470997,0.333648,-0.0215367,0.0348955,0.45308
0.020488,0.201372,-1.79033,0.230684,-0.156645,0.372327,-0.0403209,0.0480973,0.450275
0.0141285,0.206384,-1.78255,0.259662,-0.305224,0.39569,-0.0536841,0.0587278,0.406918
0.00624301,0.211851,-1.77451,0.282761,-0.284809,0.399022,-0.0694731,0.068195,0.341592
0.000801885,0.218085,-1.76642,0.331582,-0.0804481,0.388754,-0.0717515,0.0758729,0.269862
-0.000663913,0.225055,-1.75866,0.368538,0.104106,0.373542,-0.0763181,0.0900878,0.236226
0.000541044,0.232616,-1.75127,0.373677,0.11507,0.351181,-0.0422439,0.0642946,0.232023
-0.00159113,0.239255,-1.74425,0.281737,-0.20085,0.349105,0.0266771,0.0286511,0.216371
-0.0119427,0.243099,-1.73662,0.0741498,-0.656119,0.378799,0.0749764,0.00949575,0.0898053
-0.0307211,0.240532,-1.7293,-0.352426,-1.03906,0.323991,0.0491192,-0.00572285,-0.0912738
-0.0550986,0.227994,-1.72522,-0.860393,-1.25186,0.107344,-0.0495191,-0.0343059,-0.363401
-0.0789114,0.209142,-1.72648,-0.938128,-1.12437,-0.0867918,-0.0502075,-0.0767573,-0.739266
-0.0973532,0.194837,-1.73031,-0.473614,-0.762326,-0.130204,0.0389945,-0.0664186,-1.06948
-0.10776,0.189924,-1.73214,-0.106771,-0.353837,0.0184398,0.0522428,0.0336637,-1.0616
-0.112708,0.187746,-1.73101,-0.143807,-0.131966,0.0724018,0.0275619,0.0142053,-0.834063
-0.113235,0.183522,-1.73155,-0.273296,0.0771266,-0.103268,-0.0260652,-0.0826433,-0.649081
-0.108425,0.178351,-1.73602,-0.259766,0.321749,-0.253827,-0.0261634,-0.101264,-0.524724
-0.0991077,0.175159,-1.74176,-0.108114,0.50421,-0.265795,0.0363202,-0.0784204,-0.380195
-0.0870491,0.174813,-1.74685,0.0016194,0.60084,-0.230387,0.070325,-0.0555989,-0.175021
-0.0740242,0.174997,-1.75103,-0.0359523,0.619827,-0.185808,0.0779083,-0.0489477,0.0421805
-0.0615619,0.173695,-1.75472,-0.113722,0.55547,-0.178236,0.0745439,-0.0534653,0.204233
-0.0508379,0.171109,-1.75885,-0.1646,0.435538,-0.218188,0.0558113,-0.0532509,0.310936
-0.0427421,0.168014,-1.76352,-0.151065,0.299661,-0.218689,0.0615366,-0.036572,0.372058
-0.0369247,0.166455,-1.7677,-0.00684436,0.227357,-0.18516,0.0690599,-0.00780508,0.378862
-0.0322071,0.16835,-1.77075,0.18355,0.197039,-0.119051,0.0847554,0.0138543,0.394363
-0.028399,0.173609,-1.77186,0.329818,0.164451,-0.00345888,0.117492,0.0302827,0.433209
-0.0256774,0.180929,-1.77055,0.397617,0.133102,0.108865,0.106539,0.0369536,0.482132
-0.0242004,0.18904,-1.76743,0.411764,0.0623784,0.166619,0.0766845,0.0281413,0.528666
-0.0243042,0.196752,-1.76389,0.358549,-0.00725615,0.148669,0.0540149,0.0134173,0.554666
-0.0259224,0.202803,-1.76165,0.23928,-0.118305,0.0488685,0.0361916,-0.00762977,0.568029
-0.0302234,0.205991,-1.76168,0.0827151,-0.325696,-0.0592431,0.0235222,-0.0114657,0.548587
-0.0378167,0.20677,-1.76356,0.00111597,-0.444419,-0.127607,0.0319212,-0.00429472,0.432315
-0.0461011,0.20672,-1.76698,-0.0243996,-0.451501,-0.213867,0.00836052,0.0113117,0.284325
-0.0533514,0.206139,-1.77203,-0.0532592,-0.370341,-0.255477,0.0197723,0.0136267,0.133747
-0.057806,0.205545,-1.77668,-0.0173056,-0.138745,-0.187833,0.0515987,0.0325763,-0.0321151
-0.0569388,0.205534,-1.77969,-0.035313,0.132271,-0.119228,0.0524602,0.0343969,-0.133138
-0.0534681,0.202757,-1.78219,-0.279839,0.129738,-0.112082,0.0544231,-0.0329276,-0.146046
-0.052545,0.194348,-1.78548,-0.580811,-0.156909,-0.191075,0.0170167,-0.09824,-0.235009
-0.0584142,0.18097,-1.79169,-0.760993,-0.513446,-0.34073,-0.0858524,-0.0899135,-0.453876
-0.0680238,0.166337,-1.80015,-0.71599,-0.521394,-0.379306,-0.0966019,-0.0475484,-0.714844
-0.0732292,0.155002,-1.80779,-0.456292,-0.0631138,-0.272683,-0.112406,0.0425353,-0.89423
-0.0680571,0.148726,-1.81153,-0.233674,0.476674,-0.0471804,-0.105155,0.0961915,-0.858879
-0.0567552,0.144809,-1.81092,-0.16004,0.619742,0.115393,-0.101843,0.0651559,-0.6303
-0.0460331,0.142238,-1.80825,-0.0805055,0.463637,0.144403,-0.1226,-0.000208676,-0.441903
-0.0394438,0.141481,-1.80544,0.016859,0.248055,0.14361,-0.133919,-0.026425,-0.302785
-0.0363672,0.142671,-1.80243,0.104611,0.113946,0.150903,-0.134344,-0.0328005,-0.192715
-0.0350199,0.14483,-1.79957,0.10213,0.0729422,0.113249,-0.144675,-0.0474479,-0.0782302
-0.0337773,0.146075,-1.79807,0.0220935,0.0833797,0.0158869,-0.154943,-0.0786105,0.0265664
-0.0315859,0.145709,-1.79908,-0.0534373,0.121426,-0.113816,-0.154911,-0.0945672,0.0947141
-0.0284135,0.14442,-1.80244,-0.0795309,0.139516,-0.206022,-0.135277,-0.0817283,0.144387
-0.0251179,0.143188,-1.80717,-0.043491,0.128258,-0.255085,-0.10594,-0.0693366,0.184125
-0.0215903,0.143306,-1.81252,0.0437914,0.149445,-0.273983,-0.0898539,-0.05683,0.210908
-0.0172647,0.145001,-1.81808,0.11151,0.211027,-0.273393,-0.0773386,-0.043541,0.258584
-0.0172647,0.145001,-1.81808,0.11151,0.211027,-0.273393,-0.0773386,-0.043541,0.258584
-0.0116114,0.147743,-1.82335,0.153187,0.272391,-0.255905,-0.0695089,-0.0387376,0.309245
-0.00511429,0.151185,-1.82827,0.190778,0.311604,-0.231134,-0.0748543,-0.0305731,0.354181
0.00177252,0.155236,-1.83233,0.214153,0.308066,-0.170377,-0.0587427,-0.024006,0.391156
0.00814574,0.159982,-1.83515,0.269583,0.297078,-0.111302,-0.0509798,-0.0233626,0.399047
0.0141758,0.166037,-1.83723,0.334212,0.256778,-0.0877045,-0.0547365,-0.0244224,0.412037
0.0179805,0.173089,-1.83883,0.364085,0.0892378,-0.0644749,-0.0415908,-0.0221255,0.436681
0.018538,0.180573,-1.84026,0.388568,-0.0493319,-0.0690891,-0.0571759,-0.0163452,0.420462
0.0165073,0.188481,-1.84208,0.400769,-0.180385,-0.0966032,-0.0552156,-0.0116382,0.385766
0.0126441,0.196173,-1.8443,0.366123,-0.245689,-0.109274,-0.0429035,-0.00605655,0.344099
0.00730817,0.202916,-1.8465,0.31962,-0.326142,-0.0989359,-0.0352495,0.0123628,0.274882
0.00114342,0.209351,-1.84847,0.335814,-0.309802,-0.0967977,-0.0404403,0.0256962,0.152619
-0.00399972,0.216404,-1.85052,0.373596,-0.258197,-0.0998407,-0.0288084,0.0162784,0.0217273
-0.00858929,0.224109,-1.85224,0.375926,-0.25361,-0.0698245,0.00779462,0.00402166,-0.0940742
-0.0141961,0.22975,-1.85345,0.142619,-0.36016,-0.0659137,0.0438368,-0.0230291,-0.146339
-0.0231505,0.228184,-1.85582,-0.318343,-0.5838,-0.185947,-0.0302012,-0.0460687,-0.215879
-0.0341514,0.218559,-1.86215,-0.594286,-0.61027,-0.408935,-0.110527,-0.0747727,-0.404531
-0.041752,0.208294,-1.87286,-0.418564,-0.349545,-0.572129,-0.0708261,-0.0787773,-0.639212
-0.0432021,0.203558,-1.88478,-0.144301,-0.0736494,-0.554581,0.00518767,-0.0392237,-0.68338
-0.043125,0.200845,-1.89558,-0.245206,-0.189618,-0.5098,0.0524075,-0.0234946,-0.499025
-0.0472632,0.193695,-1.90706,-0.509854,-0.440077,-0.613319,0.0275023,-0.0772892,-0.393102
-0.0547825,0.183449,-1.92173,-0.537819,-0.54771,-0.770012,-0.00861787,-0.0919161,-0.476323
-0.0611428,0.175413,-1.93887,-0.342182,-0.349372,-0.855614,-0.00335528,-0.04985,-0.552876
-0.0607304,0.172269,-1.95618,-0.0859721,0.082271,-0.809835,0.0261797,-0.00489669,-0.491349
-0.0535107,0.173434,-1.97133,0.107494,0.333366,-0.68414,0.0612736,0.0135688,-0.274636
-0.0443792,0.177784,-1.98382,0.253764,0.343816,-0.573596,0.060267,0.0032803,-0.0053938
-0.0362425,0.183971,-1.99453,0.311334,0.278198,-0.520232,0.0267731,-0.006991,0.224041
-0.029594,0.190549,-2.00492,0.308241,0.183376,-0.533591,-0.00631572,-0.0194183,0.398417
-0.0247955,0.197074,-2.01612,0.330037,0.103168,-0.594755,-0.0143985,-0.0244905,0.483135
-0.0202313,0.204684,-2.02915,0.405281,0.0983461,-0.701492,-0.0418379,-0.0153858,0.498838
-0.0148508,0.213633,-2.04409,0.460288,0.128405,-0.765136,-0.0446609,0.0148985,0.532915
-0.00904676,0.223602,-2.05955,0.520042,0.112761,-0.751722,-0.0146618,0.0324425,0.576002
-0.00410249,0.234921,-2.0744,0.594199,0.0249753,-0.708804,-0.000664082,0.0552454,0.628912
-0.00253121,0.247403,-2.0888,0.645679,-0.239031,-0.701961,-0.0152002,0.063506,0.659505
-0.00641248,0.260458,-2.1037,0.643458,-0.502369,-0.76782,-0.0532063,0.0729678,0.644643
-0.013237,0.272818,-2.12077,0.572844,-0.609539,-0.900174,-0.0748383,0.0683664,0.563517
-0.0196143,0.283832,-2.14023,0.504188,-0.518528,-0.972816,-0.055543,0.095558,0.413113
-0.0213464,0.294031,-2.15954,0.485819,-0.202112,-0.874692,-0.00308499,0.119967,0.219439
-0.0180755,0.303105,-2.1759,0.344292,0.0120928,-0.719914,0.062081,0.104287,0.0870251
-0.0154644,0.306693,-2.19077,-0.0373289,-0.338929,-0.760828,0.0280937,0.0296456,0.0300358
-0.0259623,0.299826,-2.2125,-0.762292,-1.37469,-1.40871,-0.225046,-0.0922036,-0.159528
-0.0493036,0.27754,-2.2508,-1.572,-1.91742,-2.11542,-0.326885,-0.123791,-0.536354
-0.0717389,0.244439,-2.29994,-1.93494,-1.41693,-2.36893,-0.333621,0.0566482,-1.06736
-0.076312,0.210469,-2.34973,-1.77176,-0.165516,-2.14274,-0.403212,0.403529,-1.39166
-0.0621921,0.182521,-2.38997,-1.24076,0.686347,-1.60169,-0.388557,0.410223,-1.35622
-0.0406082,0.167186,-2.41981,-0.44183,0.880346,-1.31542,-0.297478,0.212001,-1.12958
-0.0201899,0.165848,-2.44533,0.164742,0.714277,-1.20434,-0.266496,0.103931,-0.76824
-0.00528144,0.171441,-2.46848,0.302334,0.377757,-1.09317,-0.260375,0.0737547,-0.3744
0.00253462,0.176313,-2.49009,0.158478,0.0474468,-1.06722,-0.281518,0.0358589,-0.08768
0.0052132,0.177044,-2.51247,-0.0743648,-0.158206,-1.14938,-0.3149,-0.0164455,0.0658677
0.0059889,0.173734,-2.53693,-0.222046,-0.156724,-1.27641,-0.320611,-0.0610251,0.112873
0.00840314,0.168782,-2.56414,-0.239254,-0.0761164,-1.40265,-0.277693,-0.0629597,0.142799
0.0117111,0.164372,-2.59266,-0.1606,-0.0763584,-1.40027,-0.191698,-0.0384083,0.191379
0.0143021,0.162345,-2.62017,-0.00362745,-0.116611,-1.32308,-0.143722,-0.00702222,0.246958
0.0154777,0.163246,-2.64613,0.119548,-0.18238,-1.25355,-0.116025,0.00387672,0.300582
0.0154777,0.163246,-2.64613,0.119548,-0.18238,-1.25355,-0.116025,0.00387672,0.300582
0.0149956,0.165919,-2.67113,0.182079,-0.280506,-1.21605,-0.0901065,-0.00631942,0.354412
0.0126885,0.169666,-2.69554,0.22542,-0.344256,-1.18671,-0.0553222,-0.00468479,0.363125
0.0101257,0.174359,-2.71903,0.265559,-0.302228,-1.13227,-0.0418934,0.0129853,0.338105
0.0082002,0.179327,-2.74138,0.243184,-0.289726,-1.0635,-0.0314603,0.0311967,0.323637
0.00635903,0.183575,-2.76208,0.191028,-0.267251,-0.98672,-0.0138968,0.0133407,0.295586
0.00437927,0.187223,-2.78147,0.19224,-0.298922,-0.919959,-0.00341772,-0.0104627,0.228533
0.000928161,0.191264,-2.79948,0.206299,-0.387724,-0.855477,-0.0141711,-0.0187466,0.173964
-0.00520061,0.194966,-2.81661,0.147166,-0.560892,-0.847824,-0.0577336,-0.0323107,0.113396
-0.0136744,0.19724,-2.83468,0.0545032,-0.616513,-0.947777,-0.0920141,-0.0546166,0.00114948
-0.020756,0.197772,-2.85527,-0.0364963,-0.441826,-1.07436,-0.123403,-0.0537896,-0.136983
-0.0217504,0.196337,-2.8784,-0.18234,-0.148295,-1.19677,-0.11136,-0.0583245,-0.216725
-0.0210622,0.190532,-2.90391,-0.456907,-0.352438,-1.29775,-0.0827903,-0.0500142,-0.213108
-0.0267524,0.180679,-2.93119,-0.545559,-0.672456,-1.35782,-0.0430527,-0.041585,-0.33116
-0.0350686,0.171985,-2.959,-0.387549,-0.569302,-1.34895,-0.0412005,0.0112721,-0.502145
-0.0369653,0.167957,-2.98587,-0.105808,-0.0330277,-1.28237,-0.0382549,0.0551688,-0.54836
-0.0276675,0.169612,-3.01092,0.170812,0.513704,-1.21163,0.001205,0.056312,-0.40198
-0.010722,0.174205,-3.03519,0.203517,0.695393,-1.19747,0.0124364,0.0493019,-0.097208
0.00589789,0.17693,-3.05903,0.0541854,0.51366,-1.14396,0.0396807,0.0489633,0.149914
0.0166921,0.176513,-3.08147,-0.0521109,0.164646,-1.08222,0.0976885,0.0103453,0.225612
0.0206224,0.174659,-3.10289,-0.0962731,-0.107513,-1.02689,0.143313,0.0128537,0.205463
0.0208421,0.171735,-3.12234,-0.167458,-0.185072,-0.889295,0.166432,0.0428555,0.16783
0.020224,0.167118,-3.13847,-0.261331,-0.138361,-0.717594,0.184573,0.0557604,0.116818
0.0202355,0.160708,3.1317,-0.357153,-0.0727411,-0.589714,0.160126,0.0621173,0.0645793
0.020507,0.152488,3.121,-0.435984,-0.0852799,-0.493205,0.120251,0.0656398,0.0141131
0.0192342,0.143852,3.1118,-0.391358,-0.192624,-0.435952,0.0960931,0.0566099,-0.052916
0.0153171,0.137195,3.10395,-0.248093,-0.286325,-0.349493,0.0971778,0.076539,-0.120887
0.0109535,0.133874,3.09794,-0.0870682,-0.208485,-0.251229,0.103204,0.0894532,-0.162907
0.00902755,0.132986,3.09406,-0.0190744,-0.0379391,-0.136038,0.111276,0.08633,-0.137288
0.00985867,0.132563,3.09249,-0.0211776,0.0900522,-0.0292722,0.0862973,0.0822176,-0.0689566
0.0121207,0.132498,3.09213,0.0116919,0.126681,-0.0270958,0.0305731,0.0626226,-0.00404662
0.0151198,0.132801,3.09094,0.0132061,0.169262,-0.0880314,-0.0219899,0.0397292,0.0452046
0.0198398,0.13291,3.08881,0.00361757,0.295413,-0.117485,-0.0321453,0.0435449,0.0638462
0.0268574,0.13461,3.08628,0.2317,0.266844,-0.154524,-0.0324554,0.0701777,0.097057
0.0271773,0.138844,3.08351,0.156715,-0.219435,-0.107132,0.0030253,0.0580306,0.193411
0.0223104,0.139713,3.08072,-0.0679821,-0.250923,-0.194796,-0.086407,0.0489423,0.202214
0.020298,0.135809,3.07444,-0.290897,-0.0386182,-0.449652,-0.1463,0.0514996,0.133868
0.0222885,0.129119,3.06346,-0.325505,0.0799302,-0.619732,-0.111762,0.0613777,0.0768634
0.0241094,0.122833,3.05092,-0.264983,-0.117922,-0.632557,-0.0586697,0.084423,0.0553943
0.0209911,0.1189,3.03828,-0.080915,-0.281442,-0.643106,-0.0454233,0.0846085,0.00163209
