rotationRate_x,rotationRate_y,rotationRate_z,acceleration_x,acceleration_y,acceleration_z,relativeAltitude
-0.923467,-0.880546,-0.259662,-0.0996258,-8.15988e-05,0.0744556,0
-0.762142,-0.607655,-0.45535,-0.104554,0.0103601,0.0699003,0
-0.393365,-0.24547,-0.586829,-0.0839051,-0.0103766,0.0351202,0
0.0638022,-0.123755,-0.623135,-0.0759922,-0.0379549,-0.0217612,0
0.368027,-0.271762,-0.645464,-0.0533319,-0.0404342,-0.0745892,0
0.415227,-0.419943,-0.778796,-0.0428811,-0.0212588,-0.0359763,0
0.292344,-0.592063,-0.938895,-0.044552,-0.024396,0.0298797,0
0.114414,-0.728068,-1.00508,-0.0279255,-0.0543806,0.0766234,0
-0.0336625,-0.692288,-1.04793,-0.0202183,-0.0900818,0.121516,0
-0.100462,-0.429662,-1.06648,-0.0116678,-0.117104,0.145826,0
-0.109253,-0.00046088,-1.05655,-0.0210243,-0.134201,0.147184,0
-0.061221,0.284679,-1.04024,-0.0259247,-0.129999,0.0533319,0
0.0625518,0.0780161,-1.05092,-0.0239794,-0.105932,-0.112523,0
0.173214,-0.236304,-1.05944,-0.0556878,-0.0814163,-0.221557,0
0.198356,-0.39733,-1.10211,-0.124914,-0.0844251,-0.25667,0
0.155046,-0.28636,-1.15596,-0.134371,-0.0487114,-0.287385,0
0.160733,0.154235,-1.21372,-0.124531,-0.00211099,-0.288774,0
0.207891,0.34437,-1.14954,-0.119076,0.0113613,-0.370967,0
0.290212,0.192192,-1.08699,-0.11765,0.0411602,-0.436596,0
0.355601,-0.195975,-1.13899,-0.127626,0.11551,-0.414907,0
0.339357,-0.549234,-1.23225,-0.128189,0.171647,-0.268098,0
0.192484,-0.68976,-1.25429,-0.139338,0.174273,-0.0838161,0
-0.0533213,-0.47357,-1.20419,-0.137747,0.145668,0.0705539,0
-0.255394,-0.161852,-1.13275,-0.152481,0.110533,0.13902,0
-0.284123,0.082176,-1.0954,-0.173752,0.113372,0.108204,0
-0.155109,0.0979962,-1.18017,-0.166736,0.181878,0.0419909,0
-0.0114337,-0.257298,-1.25786,-0.143488,0.226553,-0.0342388,0
0.00632487,-0.515789,-1.24157,-0.113252,0.233409,-0.0372742,0
-0.0578272,-0.476692,-1.18683,-0.114033,0.200629,0.0372786,0
-0.096321,-0.226059,-1.10728,-0.1242,0.191186,0.0986983,0
-0.0506625,0.0158479,-1.06238,-0.13486,0.21068,0.117539,0
0.0225807,0.118408,-1.0074,-0.127454,0.238616,0.111925,0
0.00710384,0.0753506,-0.867725,-0.0950747,0.238688,0.0848805,0
-0.104398,-0.0477665,-0.670649,-0.0673373,0.22177,0.051105,0
-0.24427,-0.0538608,-0.445438,-0.0385399,0.20997,0.0313948,0
-0.356098,-0.0775785,-0.231756,-0.0234388,0.189092,-0.00593746,0
-0.382372,-0.270835,-0.0651408,-0.0075233,0.178524,-0.0594022,0
-0.309929,-0.462374,0.0215816,0.00571657,0.184275,-0.0484466,0
-0.166739,-0.651665,0.0186461,0.00542598,0.180005,0.0230312,0
0.0135312,-0.702845,-0.0279206,0.0112755,0.167812,0.144704,0
0.169289,-0.621961,-0.0845527,0.0183617,0.153683,0.278091,0
0.238075,-0.420943,-0.114734,0.0301508,0.132776,0.384449,0
0.211998,-0.183955,-0.0723626,0.0490029,0.0920236,0.435133,0
0.163054,-0.0483767,0.0397059,0.0649705,0.0404581,0.425871,0
0.1523,0.0799639,0.153583,0.0442094,0.0118838,0.40903,0
0.15636,0.130376,0.153144,0.00562815,0.0348057,0.389407,0
0.135471,0.0935497,0.102057,0.00149244,0.0644005,0.348752,0
0.136009,0.207215,0.0967253,-1.17943e-05,0.0477375,0.300609,0
0.184071,0.313045,0.13586,0.00370038,0.0160566,0.214953,0
0.270402,0.296871,0.141587,-0.00200053,0.00157994,0.0460527,0
0.320526,0.0465738,0.0606301,-0.0578142,-0.00354704,-0.135926,0
0.150041,-0.380545,-0.0368126,-0.0399045,0.01569,-0.292627,0
-0.147055,-0.592089,-0.200336,0.00713666,-0.0234142,-0.421309,0
-0.147055,-0.592089,-0.200336,0.00713666,-0.0234142,-0.421309,0
-0.353888,-0.54788,-0.222256,0.0506604,-0.0904983,-0.488443,0
-0.50101,-0.133984,0.0294803,0.101881,-0.181658,-0.535486,0
-0.722481,0.600335,0.3385,0.153219,-0.222266,-0.566146,0
-0.787952,0.674598,0.517095,0.220168,-0.174264,-0.701034,0
-0.614818,0.102181,0.514686,0.191283,-0.0811681,-0.790438,0
-0.33593,-0.569228,0.21626,0.0900663,-0.01018,-0.681617,0
-0.122666,-0.690126,-0.176019,0.0386844,0.0154875,-0.387318,0
-0.0370556,-0.176868,-0.358969,0.0355683,-0.0377423,-0.0742846,0
-0.028721,0.415296,-0.256147,0.0670183,-0.110748,0.111883,0
-0.0526322,0.69851,0.0146619,0.106979,-0.146528,0.167565,0
-0.0125189,0.59621,0.201236,0.10776,-0.118578,0.149367,0
0.0515493,0.133987,0.247365,0.071223,-0.050755,0.114652,0
0.0615888,-0.367045,0.138896,0.0514414,0.017436,0.162301,0
0.034057,-0.754088,0.000174512,0.0606126,0.0485955,0.248993,0
0.0877233,-0.852354,-0.0625548,0.0822868,0.0370114,0.360428,0
0.282892,-0.773883,-0.0371597,0.101085,0.0141915,0.4551,0
0.527174,-0.621745,0.0285413,0.104115,0.0127398,0.524506,0
0.696718,-0.521149,0.0415699,0.0850541,0.0426393,0.586253,0
0.634046,-0.402917,-0.0246279,0.0554607,0.0825958,0.652915,0
0.356123,-0.195706,-0.165458,0.0233731,0.1194,0.687859,0
0.0667817,0.0125778,-0.297865,-0.0021065,0.10724,0.631594,0
-0.065174,0.107299,-0.315347,0.0170571,0.0719504,0.484982,0
-0.0843607,0.289822,-0.275086,0.0476781,0.0553571,0.301364,0
-0.0438167,0.380395,-0.275976,0.032079,0.0590001,0.0562047,0
-0.0972806,0.369578,-0.245062,0.0350197,0.0830685,-0.164868,0
-0.217186,0.293218,-0.185732,0.0219437,0.0675065,-0.34575,0
-0.351072,0.299016,-0.0769809,-0.000644166,0.0443247,-0.50298,0
-0.44715,0.392478,0.0112938,-0.0224823,0.0252809,-0.624178,0
-0.470865,0.518185,0.0800623,-0.0288086,-0.000974283,-0.715512,0
-0.37883,0.504827,0.175784,-0.0119743,-0.0120069,-0.782794,0
-0.306667,0.353931,0.288344,-0.00728261,-0.0107926,-0.786384,0
-0.321592,0.211888,0.338325,-0.0116728,-0.00491259,-0.690789,0
-0.344772,-0.0143451,0.385265,-0.00130799,-0.00351398,-0.544227,0
-0.346137,-0.189556,0.460443,0.0103169,-0.0139739,-0.354078,0
-0.317,-0.237387,0.534506,0.0174365,-0.0333267,-0.123073,0
-0.274173,-0.105683,0.544035,0.0100505,-0.0318374,0.113865,0
-0.234739,0.127179,0.480593,-0.0125204,-0.0191003,0.30902,0
-0.193767,0.307221,0.392601,-0.0313438,-0.0112213,0.416614,0
-0.105374,0.275589,0.330021,-0.0305365,-0.0248072,0.43121,0
0.0389956,0.146533,0.285126,-0.0200742,-0.0312893,0.425635,0
0.205607,0.0237653,0.281884,-0.00708301,-0.0336421,0.436816,0
0.373582,0.0842162,0.29625,-0.00511028,-0.0292499,0.495064,0
0.508412,0.254288,0.345376,0.000389233,-0.01696,0.524658,0
0.552364,0.331239,0.424139,-0.0170481,-0.00718033,0.509975,0
0.491277,0.221052,0.534111,-0.0355536,0.00307673,0.458949,0
0.313416,0.431939,0.640177,-0.0579066,0.0225509,0.422393,0
0.198517,0.584253,0.617115,-0.108451,0.0594245,0.274785,0
0.184948,0.432278,0.547229,-0.14278,0.119921,-0.0121043,0
0.231498,-0.180575,0.386456,-0.18151,0.157633,-0.292527,0
0.201243,-0.802194,0.210653,-0.163214,0.140979,-0.445312,0
0.029057,-0.971589,0.267278,-0.0797777,0.0485319,-0.443378,0
-0.327605,-0.696099,0.657031,0.00594052,-0.0975313,-0.39742,0
-0.327605,-0.696099,0.657031,0.00594052,-0.0975313,-0.39742,0
-0.874486,-0.151455,1.09991,0.0215924,-0.191833,-0.396488,0
-1.29843,0.274906,1.25223,-0.0154522,-0.170039,-0.532736,0
-1.38819,0.296392,1.05989,-0.0335569,-0.00165826,-0.719951,0
-1.14048,-0.207815,0.459258,-0.0696093,0.141649,-0.83361,0
-0.491735,-0.952676,-0.349587,-0.0729198,0.170153,-0.771105,0
0.297814,-1.40217,-0.981745,-0.0158014,0.104558,-0.468079,0
0.770689,-1.13715,-1.27484,0.062411,-0.00812201,-0.0428287,0
0.782261,-0.409259,-1.25701,0.131185,-0.133842,0.316218,0
0.457363,0.216895,-0.94423,0.170991,-0.238857,0.484318,0
0.0619722,0.288023,-0.567695,0.173571,-0.281618,0.449376,0
-0.174742,0.0158706,-0.383594,0.15755,-0.211176,0.340612,0
-0.1405,-0.209079,-0.421773,0.119486,-0.113903,0.267122,0
0.10264,-0.226187,-0.54526,0.0997027,-0.0557785,0.248158,0
0.440229,-0.146809,-0.607471,0.102344,-0.0387609,0.251247,0
0.786195,-0.12928,-0.576554,0.128564,-0.052719,0.251646,0
0.90099,-0.261556,-0.482489,0.12486,-0.044258,0.287102,0
0.748072,-0.279674,-0.457224,0.110865,-0.00937372,0.351778,0
0.53554,-0.117356,-0.427393,0.111061,0.0167853,0.391198,0
0.437057,0.134843,-0.311662,0.108299,0.0181595,0.347922,0
0.512958,0.0630758,-0.262261,0.0702766,0.037452,0.177637,0
0.57318,-0.0268599,-0.330985,0.0415525,0.0989943,0.0455702,0
0.536622,0.167183,-0.489658,-0.0256466,0.123162,-0.0453027,0
0.491588,0.43718,-0.669718,-0.0882531,0.145721,-0.179861,0
0.335924,0.536759,-0.735014,-0.0877606,0.15925,-0.331873,0
-0.0650528,0.690628,-0.627203,-0.0440262,0.123536,-0.445041,0
-0.373025,0.811476,-0.407758,-0.0131207,0.0523054,-0.560485,0
-0.434903,0.67069,-0.185804,-0.00649576,0.0191299,-0.697653,0
-0.390848,0.233942,-0.0323209,0.00345719,0.039538,-0.758722,0
-0.410085,-0.240475,0.0849774,0.00262143,0.0590353,-0.688095,0
-0.547195,-0.401654,0.211463,-0.0226638,0.0340585,-0.47898,0
-0.693607,-0.287373,0.337516,-0.0513393,-0.00630581,-0.263545,0
-0.770249,-0.121847,0.409925,-0.0765887,-0.0215344,-0.109107,0
-0.779944,0.0139493,0.403787,-0.0913034,-0.0123808,0.00624597,0
-0.72857,0.100371,0.307467,-0.108118,-0.00266668,0.0910938,0
-0.589676,0.175015,0.174589,-0.109199,0.000334024,0.16289,0
-0.392198,0.180248,0.0729391,-0.0826943,-0.00908406,0.218288,0
-0.235751,0.20177,0.0354564,-0.0623873,-0.0330939,0.284087,0
-0.158715,0.296046,0.0374089,-0.0665713,-0.0626358,0.361187,0
-0.0797857,0.377541,0.0157861,-0.0860663,-0.0689945,0.403727,0
0.0420414,0.442656,-0.0655119,-0.112221,-0.0529246,0.418651,0
0.225674,0.441101,-0.178543,-0.120419,-0.027912,0.419696,0
0.426018,0.379072,-0.279668,-0.112123,-0.00386697,0.388747,0
0.586657,0.319555,-0.25974,-0.0948537,-0.00603098,0.37312,0
0.680804,0.146323,-0.109473,-0.0750688,-0.0302926,0.348438,0
0.711102,-0.110133,0.0990941,-0.0691789,-0.036756,0.33448,0
0.673383,-0.226862,0.274348,-0.0857745,-0.0118869,0.373931,0
0.568682,0.0706561,0.362586,-0.121998,0.0288925,0.427971,0
0.467419,0.411962,0.437981,-0.151822,0.0587793,0.358456,0
0.321204,0.376999,0.565211,-0.159085,0.0829145,0.111199,0
0.139064,-0.224431,0.698691,-0.151206,0.104874,-0.199636,0
-0.137732,-0.995664,0.752051,-0.157719,0.0705693,-0.45407,0
-0.552064,-1.264,0.794906,-0.129389,0.0145404,-0.522857,0
-0.552064,-1.264,0.794906,-0.129389,0.0145404,-0.522857,0
-0.961988,-0.974101,0.903221,-0.0629712,-0.0452078,-0.56401,0
-1.0908,-0.607437,0.981679,-0.0468872,-0.116876,-0.690119,0
-0.912309,-0.548531,0.841609,-0.0319331,-0.0750884,-0.878306,0
-0.690719,-0.611909,0.397963,-0.0342211,0.0581851,-0.901858,0
-0.540775,-0.684468,-0.295364,-0.0699855,0.0946019,-0.811217,0
-0.362819,-0.714748,-0.81381,-0.0266875,0.0187718,-0.655245,0
-0.104194,-0.662961,-1.02724,0.0702341,-0.0899649,-0.458955,0
0.125245,-0.506205,-1.05045,0.147866,-0.159973,-0.211869,0
0.229484,-0.190276,-1.00279,0.185196,-0.16379,0.048353,0
0.258925,0.160085,-0.977267,0.162059,-0.138298,0.263527,0
0.295006,0.349715,-1.00812,0.130769,-0.0923803,0.381472,0
0.349276,0.36195,-1.08616,0.116306,-0.0384095,0.45551,0
0.358763,0.211269,-1.1379,0.115905,-0.00644699,0.516461,0
0.321669,-0.0256831,-1.14776,0.115238,0.0147566,0.571063,0
0.261451,-0.242641,-1.13358,0.102436,0.0325078,0.63108,0
0.184261,-0.369776,-1.12188,0.076375,0.0508516,0.696929,0
0.107231,-0.387041,-1.15943,0.0410071,0.0803973,0.74998,0
0.0386594,-0.229891,-1.27965,-0.00915302,0.11091,0.786866,0
-0.0567275,0.0873867,-1.45761,-0.0639908,0.141388,0.785877,0
-0.186077,0.594844,-1.7004,-0.120288,0.145973,0.679944,0
-0.150266,1.24927,-1.96436,-0.130705,0.155242,0.459063,0
0.113891,1.59034,-2.01758,-0.105915,0.104981,0.0968171,0
0.4639,1.12653,-1.85522,-0.126037,-0.0118741,-0.369007,0
0.48066,0.346154,-1.49379,-0.0872083,-0.0795974,-0.682465,0
0.132729,-0.166099,-1.07193,-0.0340148,-0.0891481,-0.750483,0
-0.271209,-0.159743,-0.658387,-0.0270141,-0.105588,-0.705249,0
-0.490772,-0.0948266,-0.398892,-0.0610251,-0.0638441,-0.714219,0
-0.565463,-0.15168,-0.298507,-0.0638243,0.0137308,-0.757994,0
-0.55394,-0.328083,-0.306139,-0.0513408,0.0602128,-0.734316,0
-0.554626,-0.739974,-0.261025,-0.0264038,0.0565318,-0.690161,0
-0.612297,-1.12767,-0.162046,0.00504972,0.0294914,-0.586209,0
-0.64746,-1.23257,-0.112978,0.00497148,-0.0105675,-0.424363,0
-0.595067,-0.977882,-0.126795,-0.00553357,-0.0224633,-0.241421,0
-0.440861,-0.632349,-0.237213,-0.0205982,-0.0193915,-0.0867858,0
-0.305729,-0.3648,-0.372638,-0.0240605,-0.0194275,0.0224721,0
-0.247517,-0.10902,-0.482957,-0.00162811,-0.0394296,0.136137,0
-0.224478,0.0552884,-0.578549,0.0128161,-0.0607175,0.2313,0
-0.224797,0.125169,-0.627153,0.0239407,-0.0840501,0.292534,0
-0.189915,0.0746857,-0.63453,0.0378482,-0.0981696,0.325843,0
-0.0640217,-0.0960024,-0.612022,0.0609462,-0.106765,0.349141,0
0.0973009,-0.267978,-0.642111,0.0614396,-0.0970261,0.405529,0
0.236895,-0.3906,-0.750935,0.0422386,-0.0764527,0.489828,0
0.333281,-0.361861,-0.906166,0.0319136,-0.0584007,0.587868,0
0.370204,-0.177262,-1.0447,0.0245863,-0.0601804,0.667541,0
0.365369,0.11851,-1.10223,0.0117573,-0.078713,0.7052,0
0.226174,0.356825,-1.01662,-0.00655454,-0.114683,0.673472,0
-0.0884824,0.32635,-0.814067,-0.0565572,-0.16365,0.506668,0
-0.224409,0.283173,-0.765073,-0.127899,-0.153093,0.271327,0
0.0321521,0.296154,-0.80976,-0.175365,-0.110655,0.00743043,0
0.452783,0.229886,-0.858017,-0.238354,-0.116184,-0.25981,0
0.791612,-0.0798369,-0.848508,-0.25735,-0.115578,-0.487264,0
0.791612,-0.0798369,-0.848508,-0.25735,-0.115578,-0.487264,0
0.8085,-0.526159,-0.730409,-0.204359,-0.0886427,-0.619417,0
0.376487,-0.576028,-0.431716,-0.11743,-0.114605,-0.631409,0
-0.193435,-0.561054,0.0658898,-0.047882,-0.193151,-0.673176,0
-0.39255,-0.893318,0.477645,0.010017,-0.179305,-0.823203,0
-0.280346,-1.1745,0.532017,0.0246795,0.018614,-0.854827,0
-0.246352,-1.23684,0.347164,0.0396602,0.194062,-0.724573,0
-0.281634,-1.04039,0.0201789,0.0117351,0.236074,-0.499458,0
-0.171773,-0.934105,-0.280972,-0.0168017,0.182902,-0.321861,0
0.00427129,-0.894982,-0.511893,-0.0132399,0.139497,-0.150333,0
0.0488227,-0.772199,-0.699702,0.00927024,0.1071,0.048878,0
-0.112396,-0.398087,-0.844801,0.0338631,0.0682895,0.253312,0
-0.370776,0.148596,-0.947122,0.0402396,0.0200236,0.400835,0
-0.524161,0.524476,-0.962582,0.0443487,-0.0333597,0.413922,0
-0.566576,0.544971,-0.888146,0.0549146,-0.0741446,0.338668,0
-0.588043,0.420254,-0.849508,0.0504367,-0.0762777,0.296075,0
-0.543514,0.166962,-0.904063,0.0378151,-0.0496109,0.240477,0
-0.355233,-0.000961625,-0.993267,0.00347026,-0.0457147,0.1894,0
-0.0655152,-0.0197326,-1.05325,-0.021414,-0.0604751,0.1743,0
0.096958,-0.0431879,-1.13543,-0.0718659,-0.067486,0.176159,0
0.111876,-0.132401,-1.24491,-0.0863074,-0.0550902,0.143002,0
0.102452,-0.208643,-1.34832,-0.0958977,-0.0566039,0.0729399,0
0.13106,-0.174504,-1.42314,-0.104804,-0.0556499,-0.00334537,0
0.211048,-0.218884,-1.47674,-0.0890939,-0.0455953,-0.132677,0
0.191777,-0.158161,-1.44481,-0.0824281,-0.0634614,-0.253892,0
0.0408615,0.140804,-1.33671,-0.106584,-0.087165,-0.345294,0
-0.0122007,0.42979,-1.23485,-0.108108,-0.0803883,-0.463417,0
0.107132,0.427905,-1.18539,-0.100989,-0.0173929,-0.604245,0
0.223247,0.33001,-1.17333,-0.0899971,0.0518732,-0.635895,0
0.358867,0.119226,-1.21205,-0.101062,0.0827323,-0.544495,0
0.492617,-0.287001,-1.14767,-0.0879469,0.0814434,-0.402098,0
0.500648,-0.770902,-1.00751,-0.0592569,0.0690545,-0.190221,0
0.365299,-1.03091,-0.882632,-0.0459628,0.0691682,0.0627156,0
0.160349,-0.863035,-0.812332,-0.0638756,0.0744374,0.297064,0
-0.0421254,-0.332409,-0.802881,-0.111358,0.0666153,0.450275,0
-0.230856,0.296745,-0.863354,-0.176929,0.0565399,0.489435,0
-0.310202,0.609636,-0.998285,-0.227474,0.0845874,0.381627,0
-0.238079,0.496903,-1.19449,-0.256828,0.123741,0.196124,0
-0.115727,0.313065,-1.46858,-0.288538,0.173129,0.0461531,0
0.0554264,0.310719,-1.66313,-0.285699,0.166556,-0.0335166,0
0.255702,0.344206,-1.67262,-0.269285,0.0936231,-0.114784,0
0.325206,0.250959,-1.54198,-0.269515,0.0445449,-0.184052,0
0.256663,0.0536428,-1.39789,-0.253548,0.042351,-0.23116,0
0.253994,-0.0605658,-1.29791,-0.226554,0.087553,-0.259358,0
0.414857,-0.0984188,-1.13293,-0.187889,0.112908,-0.257886,0
0.579953,-0.198483,-0.837928,-0.144267,0.0985423,-0.235034,0
0.624299,-0.320815,-0.551982,-0.110243,0.117654,-0.150562,0
0.629842,-0.479402,-0.364586,-0.0987527,0.170294,-0.0446109,0
0.618351,-0.591794,-0.212018,-0.0814267,0.213962,0.0754821,0
0.569303,-0.647512,-0.040825,-0.0472003,0.221861,0.199296,0
0.482209,-0.699042,0.113279,-0.01584,0.231132,0.310665,0
0.365075,-0.736737,0.245581,0.0100109,0.249114,0.402476,0
0.238485,-0.706034,0.331208,0.0329874,0.26057,0.482809,0
0.238485,-0.706034,0.331208,0.0329874,0.26057,0.482809,0
0.145266,-0.605126,0.397867,0.050981,0.254032,0.538996,0
0.0768948,-0.430427,0.466996,0.0631193,0.237735,0.569708,0
0.018479,-0.223807,0.528168,0.0737782,0.224163,0.573577,0
-0.0552647,-0.0343729,0.573317,0.0698055,0.211933,0.549307,0
-0.105465,0.0554963,0.563993,0.0557006,0.209167,0.479477,0
-0.150161,0.0152246,0.529274,0.0576864,0.2078,0.377266,0
-0.1992,-0.137057,0.542983,0.0719857,0.181957,0.250705,0
-0.217717,-0.252742,0.613115,0.0779185,0.117914,0.128043,0
-0.282101,-0.236047,0.598922,0.0523911,0.0887216,0.0428788,0
-0.536765,-0.372219,0.520371,0.00805795,0.066857,-0.0997792,0
-0.949024,-0.506623,0.439492,-0.0549853,-0.0266477,-0.274229,0
-1.24168,-0.166436,0.434791,-0.0704093,-0.139623,-0.410377,0
-1.22271,0.471548,0.505505,-0.0245505,-0.21072,-0.592345,0
-1.05632,0.8547,0.558084,-0.0220438,-0.233471,-0.795026,0
-0.940805,0.68565,0.488594,-0.0172002,-0.19355,-0.968298,0
-0.77638,0.098675,0.22873,-0.0331126,-0.105496,-1.01203,0
-0.563163,-0.531548,-0.10198,-0.0374069,-0.0781782,-0.915033,0
-0.322584,-0.787041,-0.328288,0.00432274,-0.120028,-0.662245,0
-0.142623,-0.559098,-0.396852,0.0595238,-0.166919,-0.34142,0
-0.158915,-0.079077,-0.35855,0.103039,-0.203428,-0.0523869,0
-0.269205,0.346588,-0.295886,0.109229,-0.210534,0.121233,0
-0.332738,0.407682,-0.23743,0.104491,-0.181225,0.164986,0
-0.337891,0.179708,-0.215722,0.0934789,-0.12718,0.17981,0
-0.28206,-0.0797323,-0.314756,0.060341,-0.0745445,0.231098,0
-0.0841494,-0.268953,-0.51505,0.0319882,-0.01581,0.282429,0
0.223303,-0.368615,-0.688496,0.0261809,0.00674418,0.320421,0
0.498335,-0.279057,-0.803936,0.0215647,0.00643843,0.398053,0
0.59474,-0.100374,-0.855404,0.0200921,0.00396298,0.477798,0
0.510353,-0.0379711,-0.853388,0.0291663,0.00219725,0.533439,0
0.327668,-0.115399,-0.797399,0.0400419,-0.00138587,0.546387,0
0.1911,-0.193407,-0.746065,0.0463476,0.00579149,0.548795,0
0.146609,-0.28629,-0.703614,0.0491092,0.0260001,0.526286,0
0.123783,-0.324922,-0.678425,0.0636391,0.0531399,0.504164,0
0.0777187,-0.298651,-0.70398,0.0720478,0.0882596,0.476994,0
0.053634,-0.149871,-0.744067,0.0418005,0.0935289,0.402181,0
0.214493,0.216209,-0.846432,-0.00102198,0.100053,0.290405,0
0.402494,0.436583,-0.998569,-0.0450229,0.113866,0.0815888,0
0.310199,0.634675,-1.15758,-0.163827,0.0922056,-0.102803,0
-0.0101815,0.803758,-1.27312,-0.183337,0.0814008,-0.298155,0
-0.396111,1.00992,-1.04715,-0.0687153,0.0238731,-0.53246,0
-0.629533,1.13686,-0.559581,0.0181823,-0.0787506,-0.769962,0
-0.546426,1.00043,-0.0260511,0.0440677,-0.142543,-1.01636,0
-0.33575,0.351166,0.335634,0.0601685,-0.070003,-1.17381,0
-0.274738,-0.42728,0.443794,0.0330012,0.0362967,-1.10476,0
-0.279243,-0.997044,0.480793,0.0136394,0.0662856,-0.866946,0
-0.238353,-1.14489,0.544924,0.00944745,0.0258184,-0.55331,0
-0.213348,-0.915465,0.581074,-0.00271269,-0.00388163,-0.23417,0
-0.231469,-0.559672,0.582839,-0.0073088,-0.0205606,0.0110748,0
-0.308593,-0.211321,0.514151,-0.0217601,-0.0276789,0.174257,0
-0.387892,0.0818455,0.414572,-0.0241954,-0.0320023,0.267283,0
-0.434013,0.249431,0.322271,-0.00783438,-0.0473361,0.318149,0
-0.434013,0.249431,0.322271,-0.00783438,-0.0473361,0.318149,0
-0.424484,0.30645,0.204132,-0.0034602,-0.053149,0.349355,0
-0.324001,0.199436,0.066539,0.00324474,-0.0460486,0.352719,0
-0.201919,-0.0180672,-0.068359,0.00672682,-0.0359736,0.339379,0
-0.0264915,-0.131144,-0.115559,0.0180954,-0.0564947,0.348118,0
0.238103,-0.125969,-0.0617409,0.0415343,-0.0866486,0.35762,0
0.460954,0.0440142,-0.0113571,0.0209658,-0.0846503,0.409907,0
0.535194,0.193968,-0.00926569,-0.0117652,-0.0572917,0.461033,0
0.519152,0.215717,-0.0629614,-0.0556461,-0.0276203,0.468113,0
0.546767,0.121381,-0.119792,-0.0718066,-0.0031653,0.441268,0
0.579336,0.0842985,-0.110863,-0.0792039,-0.00387174,0.427179,0
0.563128,0.125372,-0.0197997,-0.08054,-0.0154787,0.406057,0
0.532231,0.260589,0.171043,-0.0753586,-0.0234702,0.3648,0
0.547771,0.320731,0.353216,-0.0771488,-0.0085185,0.26398,0
0.554758,0.210713,0.498776,-0.0780596,0.0369717,0.1441,0
0.446647,0.0322184,0.56696,-0.073619,0.0841939,0.0486144,0
0.217899,-0.0590158,0.518179,-0.078291,0.10093,-0.0352186,0
0.0329042,-0.173687,0.383317,-0.0995708,0.0693002,-0.181826,0
-0.0670332,-0.151398,0.370152,-0.0718133,-0.0075732,-0.325855,0
-0.355083,0.0119623,0.666652,-0.0257905,-0.120805,-0.447037,0
-0.802525,0.208567,1.02296,0.0025749,-0.173904,-0.571351,0
-1.02782,-0.0546804,1.12623,-0.0359241,-0.12184,-0.794046,0
-0.992483,-0.283909,0.847975,-0.117226,0.013796,-0.892977,0
-0.805442,-0.336936,0.255085,-0.161297,0.14838,-0.839095,0
-0.582297,-0.30157,-0.277859,-0.126804,0.123014,-0.708305,0
-0.343611,-0.26705,-0.483158,-0.0644463,-0.0127685,-0.516793,0
-0.162307,-0.279877,-0.461033,0.00358161,-0.107237,-0.301692,0
-0.0498046,-0.308153,-0.400281,0.0415136,-0.139216,-0.105158,0
0.0163099,-0.281159,-0.42546,0.0756426,-0.098972,0.0933395,0
0.0663576,-0.113825,-0.519853,0.0839721,-0.0545395,0.286273,0
0.156995,0.0488941,-0.632998,0.0801436,-0.0247073,0.421584,0
0.301689,0.0356037,-0.721439,0.0849608,-0.00348778,0.476359,0
0.426552,-0.121679,-0.805188,0.0855901,0.0112982,0.51356,0
0.455128,-0.269563,-0.872492,0.091835,0.0163626,0.579475,0
0.370617,-0.369796,-0.884412,0.100784,-0.000772223,0.643371,0
0.301417,-0.338593,-0.898168,0.0918428,-0.00731461,0.694085,0
0.304591,-0.239913,-0.886885,0.0833403,-0.00863478,0.705898,0
0.316087,-0.130098,-0.877513,0.0720775,-0.0172777,0.66682,0
0.233494,0.121987,-0.916257,0.0159973,-0.0244994,0.57644,0
0.194184,0.546767,-0.949514,-0.0228366,-0.00787349,0.42005,0
0.394847,0.734168,-0.939804,-0.0158095,0.0306752,0.114836,0
0.641303,0.441432,-0.867847,-0.0622871,0.044674,-0.228606,0
0.558106,-0.0823777,-0.730998,-0.103384,0.0494941,-0.442133,0
0.154431,-0.455095,-0.557218,-0.139188,0.026531,-0.500533,0
-0.356546,-0.385068,-0.403199,-0.158107,0.00604218,-0.513368,0
-0.713389,0.36513,-0.318334,-0.178555,-0.0171416,-0.533875,0
-0.707362,1.02215,-0.139073,-0.132067,-0.0471418,-0.731082,0
-0.569624,0.957709,0.206915,-0.0738625,-0.0817596,-0.948984,0
-0.465791,0.0777618,0.48546,-0.042974,-0.0826066,-1.06318,0
-0.406769,-1.01501,0.527732,-0.0409747,-0.00610338,-0.947694,0
-0.445389,-1.58325,0.423113,-0.0536178,0.0209401,-0.581453,0
-0.445389,-1.58325,0.423113,-0.0536178,0.0209401,-0.581453,0
-0.483215,-1.39511,0.304066,-0.0427056,-0.0269898,-0.159313,0
-0.432158,-0.714521,0.267013,-0.0274709,-0.095485,0.159939,0
-0.346902,0.00922506,0.262484,-0.0325343,-0.147022,0.327201,0
-0.348238,0.402301,0.254053,-0.0216842,-0.14348,0.376977,0
-0.388574,0.45867,0.231928,-0.00458461,-0.131678,0.351611,0
-0.34701,0.362698,0.189189,-0.00332613,-0.125042,0.324721,0
-0.149983,0.212507,0.128684,-0.0062919,-0.120204,0.290566,0
0.143731,0.00206808,0.00952525,-0.02718,-0.0975397,0.27248,0
0.369633,-0.105791,-0.143648,-0.0485383,-0.0706126,0.309884,0
0.481473,-0.0491225,-0.271534,-0.0642976,-0.0647484,0.387702,0
0.528623,0.137121,-0.367034,-0.0756039,-0.0705628,0.448744,0
0.620548,0.253693,-0.414719,-0.0828001,-0.0664062,0.458584,0
0.706674,0.223265,-0.418159,-0.0699761,-0.0447123,0.449098,0
0.740323,0.113688,-0.379518,-0.0593042,-0.029087,0.446172,0
0.7035,0.0308609,-0.289186,-0.0520774,-0.0312587,0.440958,0
0.458876,0.248055,-0.222282,-0.0946942,-0.0182428,0.462102,0
0.235945,0.432529,-0.265132,-0.1439,0.0048461,0.331442,0
0.294604,0.338638,-0.319974,-0.15531,0.049847,0.0574251,0
0.560296,-0.0993473,-0.396768,-0.196233,0.076937,-0.244071,0
0.644076,-0.601885,-0.49089,-0.221519,0.108063,-0.405488,0
0.384347,-0.766191,-0.51353,-0.216145,0.0608717,-0.415438,0
-0.0725962,-0.461075,-0.404892,-0.1882,-0.0222799,-0.365833,0
-0.586402,0.161732,-0.202242,-0.151777,-0.102268,-0.358322,0
-0.877692,0.258405,-0.0685991,-0.0746147,-0.137998,-0.533128,0
-0.846504,-0.250895,0.0278248,0.0239906,-0.0920334,-0.709511,0
-0.685536,-0.999625,0.0294478,0.0577343,-0.0617276,-0.689924,0
-0.610478,-1.34287,-0.0841726,0.0573023,-0.0540573,-0.430916,0
-0.605402,-1.17457,-0.294197,0.0390126,-0.0781429,-0.0954586,0
-0.550541,-0.68694,-0.51699,0.0324301,-0.100089,0.167063,0
-0.426228,-0.158127,-0.722252,0.0346109,-0.107075,0.311079,0
-0.316489,0.181121,-0.905663,0.0365172,-0.104317,0.375486,0
-0.337395,0.238875,-1.0663,0.0344269,-0.0974309,0.393982,0
-0.467671,0.275504,-1.24443,0.0211196,-0.0921577,0.417261,0
-0.51009,0.294531,-1.39938,0.0137324,-0.100774,0.400824,0
-0.328388,0.323705,-1.46501,0.0390946,-0.113244,0.325487,0
0.0362585,0.268903,-1.41034,0.0591083,-0.149092,0.234611,0
0.399697,0.104699,-1.32841,0.0478209,-0.157652,0.184572,0
0.484072,-0.00620521,-1.28494,0.020077,-0.115657,0.240409,0
0.343161,0.0127736,-1.34067,-0.0371861,-0.0712052,0.321927,0
0.294194,0.0530655,-1.46411,-0.0734454,-0.0167897,0.297579,0
0.44495,0.238679,-1.59741,-0.091789,0.036701,0.201376,0
0.655755,0.282993,-1.64719,-0.134495,0.0373828,0.0449959,0
0.712386,-0.00541006,-1.5859,-0.187698,0.0277002,-0.199748,0
0.581093,-0.331408,-1.63837,-0.283337,0.0747379,-0.392603,0
0.240104,-0.400423,-1.77368,-0.290618,0.179042,-0.507665,0
-0.152099,-0.148964,-1.67191,-0.260202,0.136396,-0.604862,0
-0.34567,0.562311,-1.31592,-0.278845,0.00359249,-0.648398,0
-0.295263,0.975997,-1.02631,-0.327427,-0.0298788,-0.75277,0
-0.295263,0.975997,-1.02631,-0.327427,-0.0298788,-0.75277,0
-0.181285,0.557559,-1.07169,-0.31346,0.122883,-0.880556,0
-0.171143,-0.319953,-1.23626,-0.25734,0.208921,-0.874448,0
-0.300035,-0.929206,-1.30414,-0.179033,0.191585,-0.677979,0
-0.486042,-0.948574,-1.1439,-0.114693,0.0674974,-0.413218,0
-0.539019,-0.529911,-0.906915,-0.0723023,-0.0209636,-0.199064,0
-0.399761,-0.123623,-0.776566,-0.068727,-0.00804737,-0.0771775,0
-0.176099,0.0417101,-0.825402,-0.0891283,0.060193,-0.0092001,0
0.0287253,-0.0478984,-1.01342,-0.106887,0.125796,0.0610973,0
0.148329,-0.256436,-1.19975,-0.0732131,0.158448,0.161432,0
0.194706,-0.425271,-1.32384,-0.0157009,0.147698,0.27931,0
0.220919,-0.369169,-1.34316,0.015257,0.101898,0.388103,0
0.318188,-0.141775,-1.28569,0.0203778,0.0449411,0.44802,0
0.46818,0.0501327,-1.21242,-0.00286327,0.00895017,0.439874,0
0.511396,-0.0118383,-1.1313,-0.0306727,0.00360781,0.391552,0
0.325675,-0.0570632,-1.02891,-0.0598395,-0.0110884,0.347359,0
0.0945366,0.196079,-0.9178,-0.107047,-0.0427627,0.315954,0
0.0308902,0.31679,-0.765873,-0.153142,-0.0760095,0.16193,0
0.200733,0.171704,-0.607819,-0.181712,-0.0853552,-0.073057,0
0.469883,-0.137733,-0.468306,-0.199513,-0.078345,-0.242178,0
0.552751,-0.442927,-0.332369,-0.176945,-0.0418937,-0.290895,0
0.406874,-0.592168,-0.251992,-0.174482,-0.00806436,-0.239474,0
0.235803,-0.764682,-0.254389,-0.174645,0.000419945,-0.227998,0
0.0497969,-0.847631,-0.231399,-0.147336,-0.00732738,-0.229295,0
-0.165237,-0.587663,-0.135179,-0.0646303,-0.00793543,-0.190961,0
-0.369152,-0.310953,0.0804698,0.0147351,-0.0486896,-0.199785,0
-0.372908,-0.16495,0.345407,0.0517983,-0.0867795,-0.254891,0
-0.217071,-0.368322,0.391014,0.0384152,-0.0180669,-0.280482,0
-0.178019,-0.803695,0.224994,0.0387838,0.0828569,-0.233343,0
-0.221087,-1.04567,-0.0504374,0.0746713,0.132095,-0.097183,0
-0.140713,-0.841498,-0.297121,0.119632,0.14575,0.0767354,0
0.162179,-0.489906,-0.473579,0.147061,0.123118,0.175354,0
0.460144,-0.14326,-0.548216,0.160923,0.105512,0.235915,0
0.534257,0.149474,-0.584289,0.149706,0.0949522,0.297675,0
0.416926,0.352181,-0.533006,0.143044,0.066672,0.294149,0
0.298803,0.521902,-0.37884,0.144636,0.0450293,0.233288,0
0.233078,0.507321,-0.166501,0.143109,0.0524242,0.0944433,0
-0.0431113,0.424449,0.0329932,0.113572,0.0677439,0.00675189,0
-0.484355,0.408904,0.178261,0.0917231,0.0747879,-0.0307206,0
-0.794271,0.473458,0.374126,0.10965,0.070314,-0.101551,0
-0.756228,0.348821,0.594566,0.105081,0.0482925,-0.239869,0
-0.569868,0.0478335,0.702857,0.0683989,0.0697383,-0.30384,0
-0.467219,-0.265472,0.597324,-0.00368976,0.107231,-0.228876,0
-0.417103,-0.427057,0.351846,-0.0681343,0.125498,-0.0893651,0
-0.303967,-0.397919,0.0696618,-0.0921883,0.108574,0.0419687,0
-0.160371,-0.240958,-0.16119,-0.080285,0.0767554,0.12878,0
-0.111706,0.0207261,-0.28244,-0.0546567,0.0305443,0.196097,0
-0.163978,0.23262,-0.26174,-0.0319713,-0.0428025,0.209089,0
-0.253115,0.225405,-0.142489,-0.0162351,-0.105434,0.160282,0
-0.253115,0.225405,-0.142489,-0.0162351,-0.105434,0.160282,0
-0.309254,-0.00280274,-0.0234401,-0.00688465,-0.1242,0.0753554,0
-0.327076,-0.241788,-0.0333924,-0.0277726,-0.0946532,0.0160651,0
-0.276411,-0.32248,-0.138209,-0.0474935,-0.05929,0.00647205,0
-0.16046,-0.240151,-0.221099,-0.0500298,-0.0625953,0.0228829,0
-0.0801876,-0.0931861,-0.280368,-0.0480387,-0.0703707,0.047979,0
-0.0747596,-0.000909131,-0.381643,-0.0385642,-0.048195,0.0568895,0
-0.048625,0.0300594,-0.486401,-0.0274007,-0.0213228,0.0664436,0
0.0390193,-0.0152365,-0.572585,-0.0197816,-0.0163614,0.0657801,0
0.136746,-0.149704,-0.677582,-0.0120767,0.00276333,0.0820519,0
0.213745,-0.27498,-0.821234,-0.00420862,0.0250597,0.127947,0
0.292479,-0.389959,-0.972359,0.015878,0.0423071,0.187588,0
0.31991,-0.391807,-1.06617,0.039994,0.0403762,0.269399,0
0.283135,-0.3094,-1.06724,0.0761877,0.00985599,0.339445,0
0.267407,-0.207357,-0.974131,0.11731,-0.0188072,0.358736,0
0.263069,-0.122566,-0.843254,0.141072,-0.0375605,0.355821,0
0.200243,-0.0514213,-0.744668,0.142525,-0.0309371,0.349261,0
0.174063,-0.0481907,-0.685955,0.144316,-0.0169238,0.299642,0
0.231659,-0.118426,-0.612338,0.148346,-0.00267303,0.220533,0
0.325171,-0.0645408,-0.589882,0.122231,0.0173345,0.14709,0
0.499739,-0.141958,-0.597067,0.0859791,0.0246065,0.0353255,0
0.599398,-0.349175,-0.573238,0.0534693,0.00865096,-0.102197,0
0.512667,-0.0226442,-0.628388,-0.0214836,0.0193005,-0.116836,0
0.338021,0.507556,-0.721343,-0.107578,0.0130546,-0.139941,0
-0.0140273,0.753932,-0.582588,-0.104158,-0.0312268,-0.28123,0
-0.488447,0.831321,-0.326793,-0.0761362,-0.0688087,-0.435449,0
-0.653297,0.52381,-0.0360232,-0.0767618,-0.113809,-0.675275,0
-0.484539,0.0450356,0.155714,-0.0791836,-0.0797715,-0.811718,0
-0.263887,-0.436418,0.18984,-0.0944303,-0.0213777,-0.777419,0
-0.217612,-0.598425,0.18537,-0.104259,-0.00958237,-0.57835,0
-0.384058,-0.41065,0.276161,-0.121201,-0.0568736,-0.3345,0
-0.68416,0.149733,0.382622,-0.115663,-0.0969565,-0.147382,0
-0.81598,0.627788,0.398324,-0.130168,-0.0834492,-0.079941,0
-0.722233,0.714766,0.422546,-0.0898596,-0.0559838,-0.109073,0
-0.512235,0.376721,0.371089,-0.0550571,-0.00752045,-0.11966,0
-0.260767,-0.189619,0.249418,-0.034823,0.03808,-0.0780157,0
-0.0725133,-0.673331,0.122743,-0.0231603,0.0424578,0.0394377,0
-0.0187135,-0.712538,0.0615646,-0.0233727,0.00273727,0.237154,0
-0.00579583,-0.42406,0.0364248,-0.0312673,-0.0408336,0.398988,0
0.0410715,0.00320663,0.0204515,-0.0522757,-0.0681084,0.482335,0
0.152309,0.24483,0.0282085,-0.0648219,-0.077373,0.474047,0
0.261095,0.227928,0.064549,-0.0698255,-0.07438,0.405693,0
0.275027,0.192842,0.097398,-0.0894326,-0.0591792,0.376225,0
0.236297,0.239437,0.126551,-0.107352,-0.050622,0.36171,0
0.244664,0.330569,0.159204,-0.122394,-0.0466651,0.328168,0
0.307724,0.333783,0.200335,-0.12355,-0.0196331,0.275773,0
0.393832,0.107118,0.253138,-0.100391,0.0105898,0.218362,0
0.439927,-0.149295,0.318627,-0.081571,0.0362555,0.223255,0
0.439927,-0.149295,0.318627,-0.081571,0.0362555,0.223255,0
0.436579,-0.267297,0.350671,-0.0793992,0.0617056,0.279169,0
0.352667,-0.0361935,0.340684,-0.052127,0.112396,0.333661,0
0.238246,0.217675,0.299786,-0.0348143,0.155407,0.255313,0
0.0661682,-0.00784604,0.227289,-0.0492403,0.161396,0.0127324,0
-0.182738,-0.567806,0.115209,-0.0479202,0.128386,-0.257944,0
-0.295598,-0.96113,0.000963859,-0.0311435,0.0661511,-0.401524,0
-0.233129,-0.668496,0.0708869,0.0158674,-0.00767967,-0.393276,0
-0.233641,-0.0706959,0.295195,0.0686237,-0.0745658,-0.365564,0
-0.416638,0.0907309,0.462666,0.0572901,-0.143463,-0.439736,0
-0.719445,0.119478,0.574814,0.0699493,-0.153472,-0.50264,0
-0.905192,0.089229,0.586135,0.102004,-0.0931291,-0.553626,0
-0.716911,-0.22007,0.434545,0.0662296,-0.0854318,-0.635334,0
-0.322615,-0.527326,0.181321,0.0355908,-0.0628474,-0.58858,0
-0.0475825,-0.537557,-0.110041,-0.0028506,-0.0638654,-0.38651,0
-0.0603267,-0.320874,-0.266082,0.0212412,-0.102163,-0.169426,0
-0.190158,0.143779,-0.271656,0.0632287,-0.141826,0.0166341,0
-0.251807,0.479526,-0.183546,0.0661008,-0.182476,0.0942183,0
-0.219863,0.520846,-0.107162,0.0713658,-0.162617,0.0873102,0
-0.117359,0.519074,-0.140924,0.0589366,-0.107007,0.136001,0
-0.0174166,0.344706,-0.193257,0.0525892,-0.0750647,0.181137,0
0.0253308,-0.0286006,-0.181142,0.0783691,-0.0600342,0.200963,0
0.0519195,-0.327786,-0.158528,0.0948489,-0.0620207,0.257974,0
0.118085,-0.278779,-0.164758,0.0674611,-0.0565062,0.366049,0
0.253854,-0.127956,-0.223422,0.0464346,-0.0381803,0.435263,0
0.407899,0.0360491,-0.323779,0.0385895,0.00432399,0.473828,0
0.514656,-0.0174289,-0.434172,0.0229189,0.0370586,0.479656,0
0.492415,-0.226284,-0.509029,0.0168891,0.0511805,0.481086,0
0.37545,-0.204773,-0.59765,0.00185821,0.0553626,0.521948,0
0.288941,0.172801,-0.636232,0.00508025,0.0367244,0.545397,0
0.251655,0.565625,-0.578581,0.00298127,0.0132189,0.459784,0
0.324352,0.698583,-0.530854,0.0143915,0.0328905,0.238088,0
0.537911,0.456789,-0.572723,-0.0192705,0.057836,-0.0268241,0
0.586369,0.202531,-0.603175,-0.0410149,0.0859204,-0.192752,0
0.272936,0.128889,-0.609786,-0.0406611,0.078913,-0.272139,0
-0.217018,0.35767,-0.511313,-0.044909,0.0307701,-0.322611,0
-0.656086,0.720455,-0.18265,0.0141367,-0.0566301,-0.463524,0
-0.748715,0.679364,0.195086,0.0369421,-0.12735,-0.703502,0
-0.509082,-0.017543,0.480617,0.0344828,-0.103151,-0.91851,0
-0.302956,-0.647369,0.489508,-0.00474025,-0.0152303,-0.877909,0
-0.28071,-0.770418,0.312125,-0.0719301,0.0380747,-0.638025,0
-0.364097,-0.649446,0.255165,-0.0917474,-0.00737338,-0.434107,0
-0.407835,-0.25551,0.28412,-0.0843875,-0.0747926,-0.273563,0
-0.312196,0.014418,0.274772,-0.0832903,-0.0795334,-0.192025,0
-0.160879,-0.0328425,0.232053,-0.0646861,-0.0513758,-0.149341,0
-0.0435768,-0.139525,0.126426,-0.052951,-0.0145679,-0.0435198,0
0.00399286,-0.207215,-0.0159977,-0.0597416,-0.0029797,0.0968857,0
0.0227171,-0.17348,-0.163156,-0.0596991,-0.00588341,0.219884,0
0.039919,-0.0900804,-0.187514,-0.0144416,-0.0337202,0.309227,0
0.039919,-0.0900804,-0.187514,-0.0144416,-0.0337202,0.309227,0
0.0791205,0.00589574,-0.0848109,0.0404604,-0.0742882,0.360972,0
0.140027,0.191606,0.0210812,0.0434411,-0.0783879,0.408085,0
0.22582,0.25448,0.0970797,0.0255077,-0.05095,0.428314,0
0.308899,0.137604,0.148761,0.0153051,-0.0207534,0.411766,0
0.361451,-0.0951118,0.166154,0.00684985,0.0220963,0.408001,0
0.383309,-0.288847,0.168375,-0.0131463,0.0441005,0.429649,0
0.39228,-0.280784,0.198174,-0.0304956,0.0413574,0.486055,0
0.36562,-0.0785119,0.233795,-0.0493927,0.0357742,0.53912,0
0.276339,0.180753,0.232977,-0.0828712,0.036441,0.532383,0
0.198185,0.269304,0.21511,-0.115905,0.0459073,0.410103,0
0.120481,0.271817,0.245509,-0.0778932,0.0755914,0.236886,0
0.0962306,0.021979,0.240278,-0.0600371,0.0759863,0.0111539,0
0.0607353,-0.253332,0.233887,-0.0753876,0.0709992,-0.173822,0
-0.0881528,-0.239624,0.172785,-0.0586929,0.0527516,-0.283691,0
-0.266712,0.13221,0.128812,-0.0483444,-0.00183752,-0.355284,0
-0.44695,0.700926,0.218991,0.00208427,-0.0630979,-0.448843,0
-0.631544,0.891361,0.401479,0.0697497,-0.0941435,-0.653925,0
-0.721268,0.540977,0.517366,0.150722,-0.0675377,-0.882846,0
-0.667967,-0.0403387,0.47665,0.19522,-0.016555,-0.962278,0
-0.50445,-0.634215,0.293739,0.207541,0.056303,-0.891729,0
-0.36252,-0.765839,0.0376625,0.159219,0.029896,-0.629263,0
-0.249919,-0.566791,-0.0667863,0.154172,-0.0550615,-0.342666,0
-0.138923,-0.320346,0.0179228,0.17748,-0.143226,-0.119322,0
-0.0569793,-0.0640061,0.150809,0.16252,-0.181573,0.0432709,0
-0.0686573,0.121954,0.240297,0.133121,-0.170837,0.160222,0
-0.123744,0.218659,0.272055,0.101187,-0.151478,0.232171,0
-0.134674,0.171098,0.232411,0.0610328,-0.116627,0.279882,0
-0.127952,0.0726611,0.0949699,0.0192507,-0.0758025,0.307309,0
-0.0354152,-0.0102649,-0.0892318,-0.00534707,-0.045509,0.325644,0
0.126152,0.00734088,-0.176396,0.00423787,-0.0579071,0.351648,0
0.261119,0.173508,-0.152158,0.0228899,-0.0800844,0.398412,0
0.300377,0.287933,-0.0851986,0.0314864,-0.0983059,0.418854,0
0.330015,0.263528,-0.0711064,0.0214847,-0.0701653,0.409102,0
0.385425,-0.0233753,-0.0648811,0.0246801,-0.0389283,0.364278,0
0.374194,-0.279442,-0.0690621,0.0389511,-0.0111219,0.378308,0
0.289703,-0.143131,-0.107918,0.0210908,-0.00485982,0.441113,0
0.294933,0.217832,-0.143571,-0.0176283,-0.0102903,0.438742,0
0.393626,0.437613,-0.128108,-0.023763,0.00119734,0.339813,0
0.45814,0.352753,-0.158066,0.0215176,0.0551019,0.194735,0
0.433696,0.0493821,-0.172748,0.0283181,0.0715771,0.0395461,0
0.418701,-0.299644,-0.108253,0.0430971,0.047946,-0.101379,0
0.412979,-0.378532,-0.0748939,-0.00468098,0.0230966,-0.202339,0
0.340704,-0.0129224,-0.114895,-0.0922785,0.0143321,-0.219593,0
0.0378677,0.347178,-0.0889611,-0.12688,-0.0176123,-0.263174,0
-0.572267,1.04274,0.0563826,-0.154166,-0.0533119,-0.342899,0
-1.03764,1.43622,0.129631,-0.163153,-0.0721452,-0.576596,0
-1.05331,0.949638,0.169445,-0.145209,-0.0463439,-0.920419,0
-0.754808,-0.0306238,0.0724342,-0.121535,0.0161062,-1.04637,0
-0.754808,-0.0306238,0.0724342,-0.121535,0.0161062,-1.04637,0
-0.325761,-0.704101,-0.128115,-0.11074,0.072837,-0.852345,0
0.0123831,-0.689258,-0.379337,-0.163183,0.0502594,-0.469198,0
0.162311,-0.300647,-0.502659,-0.173027,-0.0373221,-0.138433,0
0.146228,0.153934,-0.461955,-0.158333,-0.111003,0.0830723,0
-0.00633168,0.327534,-0.41226,-0.153184,-0.138748,0.194686,0
-0.227972,0.277248,-0.40414,-0.145113,-0.12656,0.238558,0
-0.398414,0.103708,-0.431725,-0.140419,-0.113101,0.246921,0
-0.410864,-0.0390656,-0.50483,-0.147308,-0.100478,0.22876,0
-0.256263,-0.0175826,-0.58081,-0.135735,-0.0935468,0.231891,0
0.0262863,0.152894,-0.611684,-0.155625,-0.110005,0.254662,0
0.340389,0.201016,-0.591321,-0.170481,-0.11669,0.251455,0
0.552366,0.0999301,-0.570814,-0.177574,-0.0949001,0.234502,0
0.631904,-0.0701569,-0.597917,-0.166857,-0.0690945,0.247958,0
0.596479,-0.153959,-0.590985,-0.154255,-0.0602654,0.302178,0
0.514719,-0.18675,-0.544897,-0.157115,-0.0630864,0.349123,0
0.431481,-0.310454,-0.49099,-0.155472,-0.0641974,0.362807,0
0.362203,-0.298279,-0.476429,-0.172193,-0.0566361,0.383719,0
0.352743,-0.144839,-0.541172,-0.201276,-0.0348623,0.364199,0
0.409097,-0.0252046,-0.588316,-0.210984,-0.020925,0.273356,0
0.478968,0.144772,-0.445883,-0.164581,-0.0278751,0.153963,0
0.497537,0.176744,-0.204798,-0.134777,-0.0480022,-0.024025,0
0.515979,-0.341157,-0.184304,-0.188461,0.00234422,-0.273344,0
0.47927,-1.19545,-0.433282,-0.228044,0.113845,-0.470924,0
0.285615,-1.44046,-0.722197,-0.158142,0.176104,-0.43808,0
0.0416816,-0.968605,-0.850087,-0.125692,0.0680405,-0.325074,0
-0.074001,0.103527,-0.734524,-0.074742,-0.0454695,-0.280748,0
-0.0851679,0.981901,-0.401812,0.0306997,-0.0697084,-0.378851,0
-0.139457,1.47772,-0.102678,0.133122,-0.0100522,-0.589327,0
-0.224554,1.00062,-0.0423478,0.166735,0.031856,-0.779733,0
-0.289797,-0.167021,-0.101322,0.191575,0.104305,-0.808815,0
-0.268479,-1.22862,-0.210996,0.193386,0.143653,-0.583338,0
-0.183796,-1.622,-0.365379,0.132537,0.108171,-0.221923,0
-0.0952209,-1.18206,-0.456496,0.0858018,0.0542498,0.132723,0
-0.0319021,-0.33266,-0.505867,0.0363717,0.0194908,0.367811,0
-0.0211406,0.328567,-0.552347,-0.0285241,-0.00379273,0.420451,0
-0.0884304,0.408727,-0.546956,-0.0203856,-0.0020411,0.323953,0
-0.205975,0.00936603,-0.566379,-0.00770467,0.00546554,0.194198,0
-0.345066,-0.265103,-0.623203,-0.0361068,-0.00169688,0.142289,0
-0.411983,-0.266537,-0.665136,-0.0496432,-0.0301664,0.147421,0
-0.335505,-0.124147,-0.630043,-0.0508756,-0.0675928,0.143407,0
-0.115763,-0.0612711,-0.560625,-0.0586173,-0.0879899,0.100637,0
0.14501,0.00462648,-0.557568,-0.087347,-0.0710768,0.0723557,0
0.273825,-0.068266,-0.611232,-0.11127,-0.0601512,0.0501145,0
0.235373,-0.118676,-0.644519,-0.110862,-0.0641904,0.0173032,0
0.141849,-0.216524,-0.673827,-0.110241,-0.0791072,-0.0352627,0
0.0819606,-0.305617,-0.763123,-0.136736,-0.0711859,-0.0738233,0
0.08391,-0.437312,-0.924411,-0.160609,-0.0426896,-0.0852668,0
0.087378,-0.285222,-1.06334,-0.149512,-0.0235649,-0.0579614,0
0.087378,-0.285222,-1.06334,-0.149512,-0.0235649,-0.0579614,0
0.111111,-0.181061,-1.1713,-0.128976,-0.045675,-0.0570545,0
0.121815,-0.0877088,-1.15226,-0.113736,-0.0837502,-0.0638422,0
0.0117942,0.148517,-1.06889,-0.078364,-0.0722661,-0.0499844,0
-0.161025,0.170941,-1.02295,-0.0895594,-0.0743506,-0.104916,0
-0.217395,-0.000204043,-1.04922,-0.113751,-0.0566701,-0.19192,0
-0.107048,-0.43408,-1.21934,-0.140313,0.00959215,-0.212572,0
0.0467374,-0.691065,-1.40177,-0.163329,0.0386443,-0.138136,0
0.115765,-0.582328,-1.50247,-0.159801,0.0194638,0.00918919,0
0.0878426,-0.206571,-1.4902,-0.14503,-0.0102628,0.111805,0
0.0785411,-0.0934031,-1.39621,-0.131596,-0.0557966,0.0818297,0
0.100279,-0.326674,-1.2693,-0.169531,-0.0624729,-0.0200219,0
0.0918749,-0.430743,-1.29861,-0.230829,0.00317195,-0.0210994,0
0.00112226,-0.253032,-1.47289,-0.290255,0.0721053,0.00989532,0
-0.111426,-0.017813,-1.6645,-0.337264,0.101974,0.00227398,0
-0.170502,0.12404,-1.81921,-0.332149,0.131147,-0.0434201,0
-0.157279,0.0537268,-1.88457,-0.281905,0.143738,-0.113986,0
-0.0671233,-0.197902,-1.88606,-0.23626,0.144379,-0.177003,0
0.054091,-0.417703,-1.92196,-0.225827,0.159262,-0.157214,0
0.12092,-0.528232,-1.95808,-0.20728,0.159058,-0.0717362,0
0.156326,-0.497617,-1.99614,-0.199771,0.15087,0.0228743,0
0.206629,-0.335517,-2.04848,-0.207578,0.146954,0.106977,0
0.233421,-0.16633,-2.1026,-0.208925,0.143377,0.152124,0
0.172727,-0.0469759,-2.07932,-0.166005,0.119484,0.172052,0
0.0626175,-0.206289,-1.90918,-0.100323,0.0447825,0.118155,0
-0.00123701,-0.501948,-1.68839,-0.0581594,-0.00636823,0.0365807,0
0.408101,-0.0874104,-1.43109,-0.0809522,-0.00610542,0.190942,0
0.356777,0.211492,-1.33634,-0.132406,-0.0248896,0.168257,0
0.0601234,0.0669392,-1.39583,-0.134397,-0.00190981,0.0445347,0
-0.210974,-0.43636,-1.28381,-0.123015,-0.0388998,-0.0836438,0
-0.272456,-0.515499,-1.15065,-0.0968132,-0.021816,-0.0778353,0
-0.17702,-0.1343,-1.05051,-0.135629,-0.0659091,-0.050898,0
