attitude_roll,attitude_pitch,attitude_yaw,rotationRate_x,rotationRate_y,rotationRate_z,acceleration_x,acceleration_y,acceleration_z
0.158063,0.206734,-0.0164307,-0.090825,0.0483185,0.137153,0.0652153,0.135623,0.163009
0.152543,0.205912,-0.0107956,-0.0574335,-0.399965,0.365598,0.113923,0.136254,0.144052
0.143024,0.207347,-0.00347898,0.0991396,-0.360333,0.334089,0.0189941,0.0898822,0.0307074
0.136072,0.21116,0.00135293,0.18268,-0.24301,0.187653,-0.0450538,0.0814511,-0.0149534
0.131542,0.214394,0.0037118,0.067145,-0.178336,0.0867694,-0.0391095,0.0722068,0.000844896
0.127906,0.213545,0.00471924,-0.164414,-0.167355,0.0106765,-0.000713103,0.0630003,0.0180542
0.124466,0.208657,0.00526381,-0.313016,-0.175808,-0.0100761,0.0298695,0.0749897,-0.0234749
0.120966,0.202231,0.00617219,-0.312867,-0.133215,0.028256,0.0476202,0.104283,-0.0901445
0.120298,0.197559,0.00792065,-0.156918,0.124113,0.0869977,0.0389271,0.111606,-0.152133
0.125155,0.196924,0.010517,0.0626209,0.38992,0.162718,0.0283254,0.11614,-0.138371
0.133309,0.200654,0.0140554,0.242437,0.462172,0.221841,0.0324267,0.0876005,-0.0505627
0.140869,0.206689,0.0176374,0.28252,0.351787,0.19701,0.014654,0.0495655,0.0572626
0.145709,0.211928,0.0202728,0.18368,0.182307,0.133707,0.0408857,-0.0248083,0.128385
0.147415,0.214009,0.0219703,-0.00732219,0.0406187,0.0579745,0.0725797,-0.0786216,0.148443
0.147536,0.212303,0.0228865,-0.162262,0.00295137,0.0171236,0.0694645,-0.0761383,0.108744
0.146995,0.208533,0.0240304,-0.203841,-0.0326063,0.0424232,0.0765402,-0.056006,0.034298
0.146265,0.205734,0.0256229,-0.0754793,-0.0047362,0.0709002,0.0692131,-0.0515283,-0.0699932
0.145995,0.206481,0.0272588,0.123972,0.00113338,0.100688,0.0530171,-0.0269013,-0.125953
0.145932,0.21126,0.0290676,0.321031,0.043126,0.144656,0.0293272,0.00133342,-0.150255
0.146877,0.219324,0.0311958,0.431648,0.0946229,0.17601,-0.00545365,0.0232031,-0.128428
0.148737,0.228672,0.0334447,0.454405,0.139857,0.174258,-0.0352924,0.0292662,-0.0635339
0.151295,0.237833,0.0352543,0.420667,0.148109,0.134767,-0.0705331,0.0358134,0.0024057
0.153704,0.245781,0.0362023,0.345201,0.10774,0.0769071,-0.0937806,0.0457277,0.0708632
0.154972,0.25181,0.0364476,0.249348,0.0216087,0.0423692,-0.0925691,0.0490536,0.118829
0.154749,0.255994,0.0361913,0.166681,-0.0492267,-0.00766127,-0.0919346,0.040866,0.146663
0.153332,0.258578,0.0350792,0.104467,-0.121167,-0.0568324,-0.086726,0.030257,0.153151
0.150772,0.259921,0.0332626,0.0561114,-0.181875,-0.102187,-0.070068,0.0136875,0.153948
0.147178,0.260119,0.0304871,0.00207267,-0.251601,-0.160067,-0.0605982,0.00492188,0.155497
0.142479,0.259219,0.0269733,-0.0382547,-0.318498,-0.186139,-0.0362862,-0.00467563,0.151223
0.136388,0.257687,0.0232711,-0.0612024,-0.384988,-0.190429,-0.0155709,-0.0071491,0.136866
0.129172,0.255919,0.0196469,-0.0664237,-0.419786,-0.185228,-0.00352368,-0.00930136,0.118673
0.12182,0.254523,0.0161338,-0.0185137,-0.404589,-0.165581,0.0201064,-0.0244617,0.101099
0.114385,0.25469,0.0131576,0.0693979,-0.423,-0.117044,0.0503737,-0.0256882,0.112022
0.107149,0.256455,0.0106154,0.136731,-0.348005,-0.118746,0.0555498,-0.0338688,0.135347
0.102253,0.259542,0.00729683,0.201459,-0.242741,-0.169813,0.0359872,-0.0508875,0.158084
0.0986886,0.263824,0.00322914,0.264017,-0.23138,-0.16858,0.0543558,-0.0395648,0.21496
0.0952389,0.269145,-0.000566081,0.294377,-0.208553,-0.141172,0.0779148,-0.019463,0.275579
0.0920301,0.274853,-0.00345116,0.308785,-0.182781,-0.085104,0.0797774,0.00755018,0.32413
0.0896873,0.281556,-0.00548742,0.384675,-0.110061,-0.0554035,0.0728647,0.0273314,0.355079
0.088436,0.289999,-0.00723026,0.479978,-0.0619269,-0.0414289,0.0566483,0.0519882,0.383683
0.0882001,0.300524,-0.00915864,0.58123,-0.0246019,-0.059197,0.0292808,0.0739596,0.387962
0.0883048,0.312108,-0.011989,0.57093,-0.0622049,-0.108235,0.0297333,0.0931984,0.391981
0.0886497,0.321459,-0.0159699,0.357719,0.0621368,-0.199866,0.0628827,0.0880916,0.375699
0.0967646,0.323359,-0.0221157,-0.169297,0.573873,-0.369826,0.041084,0.0903206,0.32417
0.113173,0.311391,-0.0302726,-0.939678,0.68523,-0.514233,0.0391978,0.105898,0.272128
0.12462,0.28686,-0.038759,-1.34008,0.141749,-0.581191,0.0269001,0.135817,-0.0122446
0.122393,0.257441,-0.0470916,-1.45261,-0.557568,-0.563992,0.096642,0.15225,-0.405012
0.110451,0.228528,-0.0533428,-1.33593,-0.67363,-0.334687,0.169143,0.145184,-0.794187
0.0999034,0.203661,-0.0532693,-1.14189,-0.370126,0.105182,0.172176,0.165772,-1.00886
0.094828,0.183762,-0.0450509,-0.91869,0.0246922,0.470698,0.106753,0.084051,-1.04783
0.0967318,0.169118,-0.0324466,-0.652291,0.374069,0.592883,0.00797687,-0.0961369,-0.993667
0.0967318,0.169118,-0.0324466,-0.652291,0.374069,0.592883,0.00797687,-0.0961369,-0.993667
0.10455,0.160457,-0.0196868,-0.340923,0.591764,0.569794,-0.0792763,-0.211172,-0.852281
0.114971,0.157458,-0.00803787,-0.098995,0.610811,0.546112,-0.123507,-0.229376,-0.628724
0.124911,0.15871,0.0028784,0.0851912,0.559334,0.542294,-0.156163,-0.217185,-0.404356
0.134015,0.162927,0.0129436,0.187302,0.514015,0.484953,-0.204537,-0.190988,-0.205959
0.142742,0.168126,0.0208431,0.222573,0.507602,0.347218,-0.253305,-0.174126,-0.0374936
0.152121,0.173726,0.0255595,0.266721,0.495315,0.209136,-0.268227,-0.144194,0.0955521
0.161037,0.180181,0.0281434,0.340993,0.443888,0.150775,-0.265931,-0.0745763,0.213865
0.16902,0.188181,0.0293252,0.423432,0.376008,0.09229,-0.272257,-0.0169073,0.32255
0.175393,0.196526,0.028564,0.383691,0.251215,-0.0366501,-0.288355,0.00323181,0.43006
0.180407,0.20129,0.0249957,0.115662,0.182441,-0.2183,-0.283641,-0.00210814,0.512126
0.18433,0.199094,0.0199481,-0.230918,0.112655,-0.287803,-0.237544,0.0110286,0.532396
0.186946,0.191899,0.015709,-0.357576,0.0743153,-0.248541,-0.193571,0.0455668,0.45363
0.188707,0.184995,0.0125821,-0.245003,0.0403053,-0.182995,-0.169663,0.0672273,0.363269
0.189707,0.181376,0.0102013,-0.0665461,0.0325194,-0.113944,-0.160224,0.0621577,0.309349
0.191357,0.181622,0.00863965,0.120039,0.0975152,-0.0274996,-0.155813,0.0393131,0.287682
0.192637,0.18603,0.00820043,0.328669,-0.000271972,0.071895,-0.128864,0.0184241,0.305236
0.191656,0.195005,0.00874548,0.520609,-0.107184,0.150429,-0.110748,0.0148926,0.335795
0.186695,0.205538,0.00996772,0.447056,-0.366638,0.145442,-0.108707,-0.01432,0.39532
0.176904,0.211942,0.0104166,0.167908,-0.596732,0.00135639,-0.151476,-0.0505819,0.397502
0.164842,0.212907,0.00845641,-0.00791082,-0.614511,-0.168668,-0.147543,-0.0709548,0.255751
0.155414,0.212135,0.00379985,0.0299925,-0.400515,-0.282596,-0.126372,-0.0265435,0.0778923
0.150983,0.212827,-0.00268601,0.133417,-0.210253,-0.331961,-0.0823644,0.0010497,-0.052908
0.149026,0.215132,-0.0106423,0.188003,-0.198679,-0.436573,-0.00215422,-0.0628454,-0.131368
0.145162,0.215404,-0.022974,-0.0282233,-0.47439,-0.786047,-0.00504836,-0.09389,-0.174253
0.135773,0.208922,-0.0413174,-0.346595,-0.837857,-1.02653,0.0522489,-0.0466226,-0.328569
0.123312,0.198487,-0.0601387,-0.40426,-0.689181,-0.88787,0.234121,0.0375794,-0.581094
0.118456,0.191171,-0.0731124,-0.129276,-0.00807571,-0.432925,0.345491,0.145453,-0.784299
0.124171,0.192117,-0.0769795,0.250421,0.398605,0.0235655,0.376077,0.159092,-0.754349
0.128728,0.19841,-0.075938,0.278347,-0.0330061,0.107809,0.294174,0.0716067,-0.53951
0.121833,0.20072,-0.0755406,-0.0926787,-0.566795,-0.0723314,0.251819,-0.0758325,-0.382519
0.11144,0.193959,-0.0789296,-0.53245,-0.459446,-0.312896,0.135398,-0.0668987,-0.404278
0.106897,0.180201,-0.0843631,-0.720909,-0.0986072,-0.321284,0.148299,0.000195771,-0.47623
0.108654,0.167285,-0.0873469,-0.478962,0.209028,-0.0883302,0.239829,0.0336627,-0.5027
0.114849,0.162487,-0.0856003,-0.00760079,0.418205,0.2036,0.238979,0.051833,-0.415303
0.122846,0.167093,-0.0798088,0.361444,0.453584,0.396649,0.162998,0.0215565,-0.20628
0.12991,0.177077,-0.0720944,0.508766,0.384051,0.469063,0.0768422,-0.0142152,0.0271851
0.13552,0.188522,-0.0645072,0.506332,0.309827,0.40571,-0.0164242,-0.0391397,0.215082
0.140035,0.198329,-0.0589248,0.379677,0.262897,0.272075,-0.0602117,-0.0597741,0.349325
0.144731,0.204513,-0.0555271,0.180189,0.285122,0.151628,-0.0759583,-0.0583079,0.431661
0.150466,0.20648,-0.053885,0.00631361,0.316795,0.0376475,-0.100099,-0.0407884,0.463855
0.156668,0.206033,-0.0540126,-0.0202035,0.292648,-0.0512595,-0.100695,-0.0297354,0.444599
0.161995,0.20666,-0.0555744,0.132112,0.211601,-0.0793754,-0.0850555,-0.00434184,0.405224
0.165969,0.211537,-0.0579324,0.391145,0.135956,-0.0687006,-0.0755113,0.0224779,0.378627
0.167997,0.221145,-0.0611895,0.590292,-0.035306,-0.0922886,-0.0841871,0.0508593,0.409436
0.165757,0.232871,-0.0657458,0.624091,-0.271704,-0.15483,-0.0772019,0.0608651,0.462205
0.160908,0.243686,-0.0714811,0.515464,-0.31362,-0.222292,-0.0602812,0.0874427,0.469562
0.157582,0.25133,-0.0778397,0.345169,-0.157525,-0.258175,-0.0435259,0.134328,0.452385
0.15745,0.256106,-0.0838027,0.232692,-0.0341354,-0.226798,-0.00730722,0.168629,0.421253
0.157893,0.259899,-0.0885844,0.22266,-0.0495129,-0.171662,0.0218556,0.200525,0.390933
0.157135,0.263788,-0.0923142,0.204203,-0.130328,-0.127869,0.0423141,0.214124,0.368081
0.157135,0.263788,-0.0923142,0.204203,-0.130328,-0.127869,0.0423141,0.214124,0.368081
0.15335,0.26636,-0.0947923,0.0825279,-0.330993,-0.0558882,0.0690217,0.212151,0.337936
0.145346,0.267145,-0.0945991,0.0112073,-0.435695,0.0843904,0.100445,0.208436,0.25282
0.136136,0.268083,-0.0916596,0.0497447,-0.399861,0.213532,0.126792,0.172949,0.125174
0.127883,0.269009,-0.086408,-0.086947,-0.289907,0.274382,0.148186,0.135756,0.0501416
0.121716,0.262849,-0.0804439,-0.657021,-0.16333,0.221803,0.122776,0.0859133,-0.00135988
0.116164,0.243222,-0.0727071,-1.37514,-0.313688,0.334565,0.133907,0.0779279,-0.118341
0.0998523,0.2129,-0.0596598,-1.6635,-1.0432,0.608795,0.135749,0.111076,-0.392101
0.0717866,0.185054,-0.0429294,-1.15934,-1.29257,0.741056,0.0539503,0.0331972,-0.890699
0.0481133,0.17027,-0.0276369,-0.459157,-0.75256,0.661558,-0.040899,-0.0908973,-1.24509
0.0368402,0.164372,-0.0150576,-0.2716,-0.213491,0.569063,-0.064915,-0.167239,-1.23116
0.0354892,0.15839,-0.00389577,-0.364745,0.281266,0.511194,-0.127292,-0.199388,-1.09955
0.0445199,0.152549,0.00599537,-0.189298,0.773363,0.437934,-0.178891,-0.234776,-1.02103
0.062635,0.153453,0.0135866,0.249361,1.1149,0.318143,-0.183334,-0.265515,-0.863466
0.0855144,0.162742,0.0179175,0.616453,1.21056,0.17091,-0.197654,-0.259026,-0.566074
0.108616,0.176999,0.0183435,0.779043,1.09826,0.00850159,-0.2067,-0.243602,-0.249986
0.12951,0.192952,0.0150028,0.838592,0.931688,-0.141713,-0.203686,-0.224503,0.00717407
0.147817,0.208707,0.00821898,0.807968,0.786684,-0.302396,-0.208246,-0.17754,0.208445
0.165406,0.222233,-0.00195348,0.667151,0.776898,-0.477135,-0.225621,-0.130498,0.356504
0.184395,0.230836,-0.0153431,0.393962,0.826018,-0.652389,-0.221137,-0.0844256,0.481585
0.20483,0.233009,-0.0304158,0.113217,0.874716,-0.732751,-0.186445,-0.0415245,0.558868
0.225398,0.230162,-0.044839,-0.0771077,0.835355,-0.683017,-0.132212,0.0156417,0.58952
0.24313,0.225189,-0.0563901,-0.120126,0.665662,-0.515599,-0.0897045,0.0700768,0.585122
0.255512,0.221594,-0.0639552,-0.030937,0.388073,-0.286771,-0.0777223,0.115674,0.570448
0.2605,0.221505,-0.0673695,0.0991982,0.034571,-0.0427432,-0.0725599,0.153826,0.561886
0.257831,0.224249,-0.0667714,0.131492,-0.277829,0.163408,-0.0876651,0.18412,0.549302
0.248226,0.227649,-0.0623243,0.0932571,-0.589988,0.34456,-0.101208,0.195506,0.51009
0.231482,0.231569,-0.0542714,0.125272,-0.894462,0.506437,-0.0994408,0.200208,0.432317
0.210617,0.237954,-0.0437304,0.284253,-0.893713,0.630717,-0.0824901,0.186795,0.306487
0.192689,0.247498,-0.0317423,0.398856,-0.580104,0.696384,-0.0823919,0.166457,0.213106
0.181222,0.257765,-0.0189541,0.367083,-0.296267,0.707418,-0.119529,0.156074,0.192796
0.172184,0.266885,-0.00632125,0.336015,-0.292986,0.652621,-0.131775,0.133037,0.180161
0.163522,0.276308,0.00516499,0.420126,-0.265271,0.603657,-0.128985,0.118493,0.127794
0.155368,0.286743,0.0157005,0.427711,-0.254765,0.561898,-0.124515,0.135933,0.117828
0.148365,0.295422,0.0252443,0.267756,-0.175535,0.470459,-0.0963283,0.0533655,0.11249
0.142901,0.298558,0.0320037,-0.0682385,-0.193378,0.178316,-0.102469,-0.0629437,0.0785574
0.136161,0.293309,0.0319824,-0.449479,-0.550754,-0.258,-0.090927,-0.174242,-0.0348747
0.121953,0.280134,0.0246234,-0.750163,-1.06719,-0.574009,0.0121498,-0.201375,-0.254783
0.101573,0.262829,0.0140447,-0.806156,-1.147,-0.593231,0.122146,-0.144041,-0.570492
0.0858047,0.247531,0.0043822,-0.602621,-0.604124,-0.470316,0.197018,-0.119827,-0.834431
0.0825803,0.23804,-0.00256175,-0.295288,0.0434729,-0.286278,0.253687,-0.138652,-0.930329
0.0858907,0.233768,-0.00701688,-0.118166,0.11165,-0.203418,0.255431,-0.145919,-0.826684
0.0882334,0.231651,-0.0114162,-0.0879647,0.036562,-0.264851,0.188145,-0.124145,-0.700877
0.0909099,0.228333,-0.0173852,-0.197981,0.115292,-0.327614,0.149395,-0.0991617,-0.606454
0.0954137,0.223264,-0.0227267,-0.231218,0.219304,-0.209093,0.169898,-0.0395264,-0.538518
0.101563,0.220407,-0.0239799,-0.00297522,0.37152,0.0786241,0.209322,0.0238791,-0.483093
0.109017,0.224293,-0.0193869,0.348652,0.464201,0.405545,0.189532,0.0579731,-0.358549
0.116549,0.235464,-0.00957258,0.634016,0.500456,0.654088,0.119253,0.038745,-0.171459
0.123135,0.250991,0.00307081,0.73095,0.455007,0.724486,0.0217564,-0.00542,0.036604
0.128242,0.266558,0.0154323,0.655885,0.373672,0.644934,-0.0686561,-0.052689,0.212072
0.132108,0.280002,0.0255563,0.562669,0.280489,0.49136,-0.111549,-0.090601,0.322142
0.134606,0.291755,0.0324561,0.531128,0.166991,0.325755,-0.112232,-0.109782,0.385112
0.134606,0.291755,0.0324561,0.531128,0.166991,0.325755,-0.112232,-0.109782,0.385112
0.136324,0.303232,0.0359265,0.574836,0.127811,0.15494,-0.111559,-0.108224,0.414806
0.139777,0.315504,0.0352352,0.651905,0.209928,-0.053786,-0.124785,-0.0851203,0.429116
0.146171,0.328404,0.0301269,0.692577,0.244654,-0.235208,-0.140415,-0.0224834,0.476061
0.153118,0.341321,0.0214505,0.713006,0.157293,-0.381548,-0.132461,0.0582578,0.53044
0.15882,0.35427,0.00995076,0.724305,0.00341178,-0.481027,-0.108308,0.140179,0.563532
0.160921,0.366473,-0.00290561,0.663998,-0.246459,-0.503746,-0.0696466,0.22533,0.602809
0.158349,0.376688,-0.0151808,0.518037,-0.423108,-0.46233,-0.0295969,0.295699,0.608928
0.153637,0.383605,-0.0257306,0.320693,-0.425312,-0.399253,-0.00482568,0.346022,0.575319
0.148284,0.387137,-0.0340519,0.149376,-0.452135,-0.310522,0.015628,0.389655,0.536178
0.139775,0.387405,-0.0403339,-0.0501464,-0.662539,-0.272563,0.0183434,0.414225,0.49781
0.125855,0.382842,-0.0449729,-0.357192,-0.897673,-0.198345,0.0614512,0.399193,0.449902
0.107988,0.372805,-0.0458007,-0.604833,-0.856561,0.0249023,0.126676,0.383562,0.333553
0.0925815,0.360671,-0.0407662,-0.613364,-0.474067,0.32084,0.160234,0.352642,0.163282
0.0848614,0.351201,-0.030805,-0.400979,0.0602153,0.494961,0.136219,0.273515,0.011982
0.0865552,0.34483,-0.0203023,-0.39071,0.405704,0.40456,0.0954911,0.145989,-0.0149812
0.0926864,0.333953,-0.0126465,-0.810848,0.438258,0.225364,0.0912705,0.0337891,0.0032599
0.0982599,0.312928,-0.00666765,-1.33472,0.267684,0.150571,0.121384,-0.00260916,-0.0818397
0.0974388,0.28392,-0.000368688,-1.53933,-0.185377,0.19156,0.135217,0.0148162,-0.320895
0.0877095,0.255091,0.00775293,-1.39959,-0.534664,0.327964,0.199784,-0.014772,-0.634956
0.0729193,0.229075,0.0179194,-1.3029,-0.685116,0.44398,0.191713,-0.0774582,-0.852793
0.0570761,0.204171,0.0295373,-1.2505,-0.601954,0.519761,0.0675224,-0.117297,-1.00811
0.0460516,0.181406,0.0409598,-1.0582,-0.234404,0.464442,-0.0757517,-0.176078,-1.14999
0.0459818,0.164091,0.0500082,-0.695097,0.402257,0.346299,-0.190261,-0.245626,-1.20184
0.058541,0.154506,0.0560038,-0.303304,0.909761,0.189878,-0.251353,-0.304833,-1.07252
0.0786077,0.151722,0.0582634,-0.00539185,1.08723,0.0165278,-0.266284,-0.321455,-0.795775
0.0999801,0.153908,0.0572545,0.235678,1.01016,-0.0799553,-0.251847,-0.292652,-0.505311
0.118321,0.161085,0.0545057,0.52257,0.768287,-0.0979858,-0.238022,-0.242992,-0.275112
0.131439,0.174045,0.0511314,0.804874,0.50144,-0.0713746,-0.23664,-0.190678,-0.0858283
0.140381,0.191922,0.0472236,1.01331,0.349797,-0.0744251,-0.267402,-0.152425,0.0807933
0.147845,0.212436,0.0417942,1.07234,0.287185,-0.171105,-0.300947,-0.116444,0.246046
0.154805,0.232075,0.033763,0.980232,0.252606,-0.306691,-0.307479,-0.0845622,0.395559
0.162843,0.24848,0.023279,0.790315,0.307709,-0.445754,-0.296946,-0.0534012,0.496229
0.172404,0.25976,0.010648,0.528696,0.317318,-0.564331,-0.279154,-0.0164359,0.569281
0.181412,0.266032,-0.00264797,0.33374,0.222461,-0.576469,-0.218506,0.0162929,0.591018
0.187397,0.269925,-0.0149422,0.291622,0.0339786,-0.508638,-0.149389,0.0551876,0.558596
0.188453,0.274399,-0.0251271,0.343062,-0.1958,-0.37173,-0.0870384,0.0977658,0.504628
0.185511,0.281024,-0.0330982,0.451338,-0.297275,-0.281818,-0.0980049,0.134365,0.421063
0.180904,0.289802,-0.0406914,0.536368,-0.376111,-0.2787,-0.109886,0.138713,0.359258
0.175117,0.299647,-0.0479656,0.547975,-0.406375,-0.221192,-0.077776,0.145632,0.336428
0.168259,0.30893,-0.0533996,0.44264,-0.46728,-0.138324,-0.0502087,0.174126,0.353116
0.159019,0.315529,-0.0570209,0.265884,-0.557321,-0.101305,-0.0539439,0.179567,0.350672
0.148932,0.319199,-0.0598281,0.155033,-0.525548,-0.113688,-0.0766622,0.15687,0.29205
0.140289,0.321678,-0.0628755,0.145039,-0.453746,-0.133181,-0.0815403,0.137814,0.226297
0.132866,0.325186,-0.0657955,0.269884,-0.354355,-0.0784099,-0.0107406,0.107968,0.162781
0.12802,0.332408,-0.0674464,0.46669,-0.202516,0.014642,0.0493161,0.0745807,0.106881
0.124185,0.342852,-0.0678831,0.539919,-0.241472,0.0664171,0.0956237,0.0177388,0.104469
0.116889,0.351425,-0.0682985,0.247278,-0.535893,-0.02344,0.139651,-0.0526752,0.10867
0.10251,0.349422,-0.0710276,-0.450316,-1.021,-0.277317,0.107268,-0.0693582,0.033012
0.0809778,0.333767,-0.078521,-0.964342,-1.32984,-0.55669,0.0317289,-0.0349903,-0.285133
0.0590546,0.31373,-0.0897866,-0.893177,-1.16034,-0.599194,0.15312,-0.0292518,-0.725151
0.0590546,0.31373,-0.0897866,-0.893177,-1.16034,-0.599194,0.15312,-0.0292518,-0.725151
0.0440131,0.297916,-0.0992188,-0.670012,-0.624148,-0.351757,0.275322,0.0197098,-0.977196
0.0359699,0.284548,-0.102947,-0.688563,-0.351709,-0.080118,0.308654,0.0170972,-0.970367
0.030634,0.270909,-0.102827,-0.639485,-0.149806,0.0188678,0.237379,-0.0424051,-0.950681
0.0307473,0.260465,-0.101963,-0.402011,0.182143,0.0362176,0.168079,-0.0807573,-0.916999
0.0366444,0.254667,-0.100607,-0.197081,0.412787,0.090103,0.153571,-0.121002,-0.735951
0.0449231,0.252405,-0.097456,-0.0359576,0.484349,0.218184,0.141268,-0.119636,-0.49067
0.0535278,0.253779,-0.0917214,0.153026,0.51203,0.337164,0.103042,-0.10346,-0.290175
0.0623002,0.259203,-0.0843467,0.335982,0.562217,0.394406,0.0391547,-0.0959394,-0.09038
0.0718919,0.267487,-0.076807,0.432762,0.589679,0.378509,-0.0164038,-0.112278,0.10895
0.081829,0.276981,-0.0703781,0.459909,0.575561,0.300127,-0.0578398,-0.126984,0.282107
0.0918451,0.285991,-0.0665461,0.393805,0.535608,0.13819,-0.0961694,-0.124554,0.415376
0.101478,0.292689,-0.0663997,0.267498,0.417718,-0.0588706,-0.128261,-0.105286,0.513077
0.109125,0.29682,-0.0701007,0.205419,0.238882,-0.240164,-0.134511,-0.0832369,0.554725
0.114567,0.300773,-0.077122,0.28409,0.111992,-0.374432,-0.124138,-0.0288302,0.528589
0.118715,0.306803,-0.0865684,0.421808,0.032356,-0.442089,-0.107382,0.043086,0.510651
0.12192,0.315278,-0.0969962,0.52368,-0.0350427,-0.434046,-0.0833514,0.11518,0.515339
0.123091,0.324765,-0.10705,0.515156,-0.184815,-0.395809,-0.0461871,0.16215,0.534473
0.120282,0.333413,-0.116045,0.449925,-0.388865,-0.342825,-0.023281,0.201767,0.524331
0.113132,0.341092,-0.123592,0.401889,-0.582414,-0.275186,-0.00279557,0.230391,0.473628
0.102825,0.347918,-0.129827,0.315556,-0.630837,-0.250837,0.000567183,0.245955,0.423431
0.0926341,0.351309,-0.135788,0.0605553,-0.594334,-0.275169,-0.0155171,0.248714,0.403281
0.0833105,0.349345,-0.141597,-0.189403,-0.532735,-0.282331,0.00494218,0.217511,0.351988
0.0759303,0.344296,-0.146973,-0.242696,-0.381487,-0.249236,0.0446223,0.205591,0.239459
0.0713788,0.339898,-0.150732,-0.1699,-0.214309,-0.122876,0.0730666,0.213426,0.15128
0.0676834,0.33681,-0.151478,-0.150442,-0.232587,0.0180741,0.115886,0.158267,0.12218
0.0604613,0.333521,-0.150339,-0.19646,-0.446946,0.0313957,0.117115,0.039454,0.0518116
0.0513021,0.328258,-0.150714,-0.348318,-0.413198,-0.0999162,0.0743223,-0.0477834,-0.10713
0.0477923,0.319089,-0.152827,-0.557884,0.0191778,-0.10878,0.0823841,-0.0785103,-0.327289
0.0509073,0.306917,-0.152588,-0.641829,0.200282,0.0843011,0.0937656,-0.0372647,-0.467094
0.0502542,0.293762,-0.148448,-0.710339,-0.209476,0.213385,0.0673212,-0.0450096,-0.508036
0.04098,0.27818,-0.143724,-0.883911,-0.511621,0.148939,-0.0334273,-0.111105,-0.600698
0.03063,0.258423,-0.141183,-1.09786,-0.401013,0.0297414,-0.123465,-0.162733,-0.733641
0.0262225,0.235771,-0.141016,-1.13632,-0.026652,-0.0605726,-0.145016,-0.185505,-0.855179
0.0295248,0.214977,-0.14172,-0.902805,0.329145,-0.0448628,-0.152178,-0.181603,-0.885536
0.0382282,0.200624,-0.141483,-0.537494,0.518568,0.0193094,-0.135261,-0.194136,-0.772971
0.0492115,0.193696,-0.140126,-0.154683,0.610646,0.079467,-0.126534,-0.229358,-0.549002
0.0617625,0.194293,-0.138391,0.175238,0.656146,0.0848056,-0.16452,-0.231274,-0.301082
0.073833,0.19971,-0.137236,0.34084,0.572008,0.0611366,-0.185474,-0.223642,-0.023126
0.083889,0.207429,-0.137199,0.422421,0.437987,-0.00493433,-0.203988,-0.2224,0.188822
0.0919801,0.216248,-0.139359,0.475955,0.338873,-0.139994,-0.226872,-0.210055,0.334519
0.0995493,0.225637,-0.145048,0.511118,0.302208,-0.32792,-0.242496,-0.18057,0.443337
0.107956,0.234776,-0.154655,0.490069,0.328068,-0.50367,-0.232598,-0.130366,0.537965
0.118001,0.242503,-0.167266,0.404969,0.382405,-0.620099,-0.203791,-0.0712225,0.624848
0.129575,0.247636,-0.181383,0.276044,0.432603,-0.667791,-0.183224,-0.00197315,0.681628
0.142121,0.250794,-0.19582,0.245238,0.473761,-0.676701,-0.169453,0.0638165,0.686213
0.154903,0.254154,-0.210248,0.303682,0.41402,-0.650827,-0.144643,0.114174,0.665974
0.163998,0.259006,-0.223999,0.389477,0.128204,-0.588403,-0.116574,0.148682,0.646119
0.166603,0.265932,-0.23678,0.507192,-0.180892,-0.515234,-0.0716859,0.191184,0.590618
0.164542,0.275277,-0.248663,0.586954,-0.33048,-0.47596,-0.0551702,0.254357,0.500789
0.160457,0.284696,-0.260502,0.517689,-0.413814,-0.500825,-0.0424986,0.27557,0.395157
0.154143,0.292076,-0.272613,0.393668,-0.558231,-0.529237,0.0277738,0.218147,0.247563
0.154143,0.292076,-0.272613,0.393668,-0.558231,-0.529237,0.0277738,0.218147,0.247563
0.144984,0.295763,-0.285108,0.0911324,-0.749606,-0.628517,0.110897,0.146801,0.103938
0.130385,0.288697,-0.299234,-0.678332,-1.16424,-0.807618,0.155211,0.114964,-0.0132965
0.107136,0.264462,-0.313849,-1.50435,-1.53294,-0.847778,0.209607,0.114585,-0.274554
0.0797244,0.230421,-0.327226,-1.63616,-1.41621,-0.730675,0.26504,0.150293,-0.762646
0.0610118,0.202465,-0.336061,-1.00955,-0.583467,-0.261919,0.361841,0.177723,-1.22643
0.0571823,0.191124,-0.334036,-0.152195,0.131328,0.377392,0.398342,0.165274,-1.31589
0.0581846,0.19447,-0.322492,0.327072,0.0927585,0.708825,0.246015,0.12684,-1.02127
0.0541995,0.201429,-0.308596,0.214234,-0.166845,0.644818,0.0537645,-0.0603824,-0.679082
0.0503162,0.202716,-0.298196,-0.127929,0.0727414,0.365303,-0.0677435,-0.2241,-0.523303
0.0552467,0.199159,-0.293232,-0.186449,0.482038,0.131019,-0.119252,-0.23845,-0.451545
0.0667643,0.197764,-0.291843,0.063732,0.697668,0.000408436,-0.0987547,-0.174769,-0.32998
0.0825369,0.201474,-0.293128,0.293181,0.826831,-0.0866958,-0.0761063,-0.124608,-0.128009
0.0994986,0.208248,-0.295576,0.392448,0.820874,-0.0824077,-0.0432942,-0.095531,0.121551
0.116014,0.216129,-0.298404,0.408203,0.766776,-0.127197,-0.0511712,-0.0730105,0.324478
0.130969,0.223284,-0.302984,0.356543,0.617117,-0.236623,-0.0794712,-0.0646689,0.48663
0.142313,0.228834,-0.310147,0.288641,0.338101,-0.390792,-0.0959908,-0.0812635,0.586171
0.147683,0.232454,-0.320788,0.217159,-0.0473425,-0.586397,-0.0973818,-0.0750229,0.645373
0.147373,0.234259,-0.334373,0.164029,-0.259486,-0.675281,-0.0591956,-0.0456948,0.640045
0.145261,0.235407,-0.348705,0.162945,-0.257542,-0.692501,-0.0489159,0.0101252,0.595113
0.144643,0.23742,-0.363582,0.250955,-0.160546,-0.721476,-0.0560501,0.0501066,0.551917
0.145147,0.240793,-0.379877,0.294851,-0.192013,-0.810537,-0.0685504,0.0755091,0.531631
0.144885,0.243566,-0.398102,0.2219,-0.276902,-0.891865,-0.0451926,0.0933678,0.517094
0.14369,0.244087,-0.416736,0.0918454,-0.273532,-0.866468,0.0309706,0.138399,0.44336
0.144617,0.243698,-0.432468,0.115573,0.0282414,-0.620161,0.1072,0.204183,0.29951
0.151309,0.244432,-0.442557,0.0438489,0.372975,-0.362308,0.117313,0.24939,0.195792
0.162233,0.24113,-0.447637,-0.307308,0.574777,-0.178305,0.109249,0.167786,0.112508
0.174896,0.232082,-0.448299,-0.521241,0.68427,-0.0607655,0.0899218,0.0499352,-0.0872194
0.189013,0.222673,-0.447393,-0.393861,0.697393,-0.024769,0.0464856,0.0112273,-0.286475
0.198308,0.216053,-0.44584,-0.358347,0.156569,0.0447266,-0.00502217,0.0422717,-0.299991
0.190905,0.205835,-0.442824,-0.757848,-0.846238,0.0264466,-0.0120813,-0.0309515,-0.257475
0.166511,0.186163,-0.439659,-1.20334,-1.40286,-0.0620406,-0.0131142,-0.158187,-0.416613
0.139417,0.162233,-0.436876,-1.08608,-1.11699,0.000152313,-0.0915172,-0.144981,-0.753969
0.125566,0.14793,-0.432609,-0.318857,-0.188435,0.268256,-0.134244,-0.121576,-0.996309
0.128977,0.152308,-0.423994,0.622033,0.591733,0.609911,-0.149546,-0.145018,-0.877269
0.142653,0.172202,-0.413117,1.11067,0.873563,0.679354,-0.244666,-0.213826,-0.465151
0.158423,0.196568,-0.404607,1.13474,0.848687,0.476557,-0.35324,-0.282769,-0.0559528
0.174378,0.218647,-0.402701,1.01544,0.787633,0.0569024,-0.461418,-0.310831,0.189552
0.190447,0.236706,-0.409546,0.887001,0.650126,-0.379519,-0.495542,-0.288204,0.324169
0.204105,0.250302,-0.424258,0.717015,0.346716,-0.750603,-0.496744,-0.22795,0.397351
0.212926,0.25867,-0.445179,0.517958,0.000557155,-1.05131,-0.484076,-0.151767,0.407042
0.215225,0.262247,-0.470433,0.378526,-0.401517,-1.24585,-0.440976,-0.0651807,0.318497
0.213131,0.264555,-0.498617,0.464331,-0.489332,-1.36864,-0.405105,0.0367181,0.116465
0.211989,0.269622,-0.529664,0.671819,-0.442656,-1.46706,-0.382765,0.135233,-0.0558283
0.21213,0.278366,-0.563725,0.865136,-0.501025,-1.58178,-0.294418,0.160482,-0.153064
0.211044,0.288361,-0.601903,0.838827,-0.669907,-1.82061,-0.208141,0.165973,-0.183318
0.210242,0.293203,-0.644468,0.436273,-0.599426,-2.05185,-0.143562,0.200367,-0.168631
0.213292,0.287641,-0.687019,-0.107489,-0.298717,-2.0207,-0.000955537,0.204482,-0.183099
0.221421,0.273586,-0.725112,-0.433372,0.037926,-1.87351,0.132256,0.195845,-0.260237
0.233145,0.2561,-0.758973,-0.510209,0.192161,-1.70566,0.180808,0.1985,-0.340434
0.240776,0.238274,-0.788971,-0.551728,-0.264651,-1.57199,0.172731,0.199313,-0.334147
0.234421,0.219628,-0.816718,-0.632242,-0.986826,-1.49477,0.192215,0.149873,-0.3408
0.216477,0.2012,-0.841132,-0.611154,-1.20161,-1.2322,0.279777,0.0785073,-0.471112
0.199971,0.186696,-0.860421,-0.39066,-0.75141,-0.924849,0.276445,0.039495,-0.60103
0.193838,0.179358,-0.874733,-0.0388914,-0.124756,-0.611209,0.228249,-0.0167771,-0.606155
0.197832,0.180389,-0.885523,0.336109,0.273601,-0.441441,0.119557,-0.0814524,-0.450713
0.206462,0.187869,-0.89544,0.573693,0.378082,-0.374213,0.0252321,-0.115068,-0.20031
0.216001,0.198988,-0.905883,0.719574,0.373581,-0.421378,-0.0700198,-0.143692,0.0154868
0.225774,0.211684,-0.919406,0.797761,0.32563,-0.606123,-0.175514,-0.138801,0.178483
0.235248,0.224188,-0.937179,0.813357,0.236091,-0.795265,-0.217546,-0.122687,0.303697
0.243862,0.23563,-0.958602,0.796158,0.13571,-0.963543,-0.225884,-0.0921973,0.380152
0.251209,0.24559,-0.983264,0.756705,0.00923942,-1.12811,-0.225629,-0.0612684,0.420109
0.256171,0.253376,-1.01146,0.685323,-0.237031,-1.33681,-0.230426,-0.0195443,0.433185
0.25626,0.258447,-1.04389,0.602609,-0.569033,-1.58306,-0.212622,0.0272468,0.374152
0.252091,0.260716,-1.0796,0.482411,-0.737277,-1.66843,-0.134769,0.130758,0.264814
0.246351,0.26087,-1.11428,0.347485,-0.71328,-1.58653,-0.0698139,0.226427,0.147781
0.241032,0.258864,-1.14664,0.222892,-0.648371,-1.50288,-0.0222557,0.251023,0.0357369
0.236903,0.25652,-1.17661,0.263411,-0.502186,-1.38047,0.0511695,0.209862,-0.097259
0.238036,0.256221,-1.2047,0.296465,-0.0608172,-1.28085,0.108314,0.165979,-0.192856
0.246111,0.253028,-1.22995,-0.0844363,0.174266,-1.18349,0.159723,0.105637,-0.14033
0.25362,0.241036,-1.25151,-0.538987,-0.0210846,-1.15653,0.132518,0.0606083,-0.118873
0.25144,0.223329,-1.27098,-0.633943,-0.70282,-1.10209,0.150935,0.0439258,-0.18236
0.233969,0.208998,-1.28789,-0.327862,-1.3523,-0.825202,0.187175,0.0836854,-0.31442
0.207671,0.203617,-1.29974,0.0621445,-1.41783,-0.430188,0.152036,0.124867,-0.391387
0.186005,0.207531,-1.30621,0.437467,-0.81227,-0.154554,0.0210451,0.10584,-0.418265
0.178771,0.217839,-1.3108,0.618568,-0.0171154,-0.143985,-0.138767,0.0583753,-0.294107
0.178771,0.217839,-1.3108,0.618568,-0.0171154,-0.143985,-0.138767,0.0583753,-0.294107
0.186538,0.228754,-1.31738,0.526655,0.57836,-0.295003,-0.244119,0.00773981,-0.051476
0.201833,0.234729,-1.32695,0.227448,0.682548,-0.531755,-0.291556,-0.0245924,0.169906
0.217581,0.232629,-1.34199,-0.121771,0.490834,-0.970021,-0.356355,-0.0626003,0.263262
0.227699,0.22267,-1.36454,-0.322622,-0.0121732,-1.37047,-0.353967,-0.0486353,0.259646
0.228481,0.210666,-1.39223,-0.197325,-0.486639,-1.48705,-0.218867,-0.00341336,0.137933
0.221562,0.203081,-1.42001,0.0761146,-0.698009,-1.32059,-0.0948609,0.0828071,0.0208152
0.21485,0.201876,-1.44534,0.318287,-0.451548,-1.16154,-0.0712977,0.0877303,-0.0597698
0.214006,0.203715,-1.46979,0.336895,-0.140721,-1.16588,-0.106498,0.0394065,-0.0426524
0.217681,0.20383,-1.4944,0.184657,-0.0149478,-1.17723,-0.0929039,-0.011766,0.0431935
0.221907,0.2015,-1.51704,0.103586,-0.0338394,-1.02605,-0.0508268,-0.00980638,0.0890134
0.224243,0.199815,-1.53659,0.167414,-0.127359,-0.914214,-0.0603363,-0.0203994,0.0826241
0.224587,0.199312,-1.55582,0.180084,-0.208611,-0.957559,-0.121387,-0.0512723,0.105122
0.224601,0.197651,-1.57616,0.0866186,-0.156966,-1.02513,-0.149595,-0.0734549,0.132706
0.226849,0.192944,-1.59671,-0.109452,-0.0226213,-1.04409,-0.134294,-0.0742878,0.154587
0.230768,0.184335,-1.61596,-0.292171,0.0443593,-0.998841,-0.11311,-0.0935775,0.156522
0.23465,0.174061,-1.63367,-0.275194,0.0321676,-0.946621,-0.103959,-0.11449,0.101622
0.237832,0.165913,-1.65097,-0.119673,-0.00644802,-0.9127,-0.112488,-0.130303,0.0519809
0.239577,0.160418,-1.6682,-0.0294819,-0.0884768,-0.873894,-0.10891,-0.159391,0.037167
0.240051,0.156482,-1.68491,0.0440927,-0.112658,-0.834668,-0.0913384,-0.201776,0.00209093
0.241224,0.154227,-1.70146,0.115496,-0.00568599,-0.806907,-0.087374,-0.212625,-0.0494058
0.24458,0.152214,-1.71785,0.0569587,0.102123,-0.841697,-0.100891,-0.207961,-0.0660341
0.24986,0.148644,-1.73539,0.0480321,0.133555,-0.941731,-0.15128,-0.227711,-0.132009
0.254689,0.14634,-1.75601,0.252284,0.0705174,-1.10824,-0.187332,-0.219111,-0.241455
0.260727,0.148134,-1.78109,0.534661,0.201591,-1.24562,-0.212952,-0.177495,-0.326575
0.270292,0.152509,-1.80964,0.577443,0.300829,-1.38433,-0.246976,-0.144819,-0.27642
0.280787,0.153494,-1.84152,0.35153,0.23424,-1.64918,-0.290241,-0.159303,-0.18022
0.287618,0.147574,-1.87812,0.116716,-0.135849,-2.01853,-0.307258,-0.172785,-0.172732
0.287209,0.136064,-1.92083,-0.00783599,-0.462012,-2.33744,-0.266101,-0.146842,-0.258932
0.285018,0.123313,-1.96622,0.112184,-0.263458,-2.28873,-0.142413,0.00332592,-0.414559
0.289244,0.116987,-2.00861,0.497292,0.187558,-1.90664,-0.0308979,0.154974,-0.474025
0.300657,0.120754,-2.04492,0.896775,0.465195,-1.45332,0.0276948,0.21534,-0.374735
0.313042,0.132783,-2.07563,1.16001,0.356221,-1.12449,0.0297022,0.185051,-0.190595
0.322104,0.149875,-2.10311,1.29803,0.172411,-0.960721,-0.0177872,0.154671,-0.0417376
0.328573,0.16874,-2.12958,1.30894,0.070369,-0.931968,-0.0869995,0.168093,0.0679792
0.333849,0.185989,-2.15598,1.15044,-0.012878,-0.974671,-0.113382,0.180005,0.160489
0.337303,0.198705,-2.18204,0.894192,-0.149762,-1.029,-0.10385,0.195752,0.228961
0.337605,0.206209,-2.20723,0.637005,-0.33502,-1.06026,-0.0738599,0.214822,0.238258
0.333681,0.208991,-2.23149,0.418215,-0.550666,-1.0923,-0.0487138,0.258071,0.209425
0.326188,0.208175,-2.25418,0.218861,-0.659959,-1.01783,0.00960362,0.306483,0.153518
0.315634,0.204077,-2.27256,-0.0463804,-0.775337,-0.807957,0.0792162,0.353328,0.121242
0.301971,0.197044,-2.28451,-0.238988,-0.834595,-0.511722,0.132577,0.35901,0.0611703
0.286344,0.19056,-2.28984,-0.19427,-0.804071,-0.191106,0.150782,0.340226,-0.0486365
0.272456,0.188686,-2.29076,0.0688126,-0.571783,0.0280991,0.101202,0.296546,-0.138927
0.264332,0.193305,-2.29068,0.353948,-0.261759,0.0740193,0.0130417,0.221644,-0.138359
0.260868,0.201247,-2.29172,0.399774,-0.137741,0.0289003,-0.0340403,0.144472,0.0114104
0.258423,0.207425,-2.29369,0.227168,-0.162563,-0.0670867,-0.05234,0.0753102,0.160701
0.255183,0.208892,-2.29709,0.000600261,-0.236291,-0.230829,-0.0767992,0.0204868,0.22855
0.250722,0.205486,-2.3033,-0.173381,-0.342893,-0.45268,-0.109735,-0.0124947,0.232304
0.245086,0.198204,-2.31324,-0.282197,-0.415945,-0.668279,-0.119069,-0.0331322,0.194791
0.238579,0.188615,-2.32622,-0.343908,-0.4762,-0.791203,-0.0957173,-0.0232862,0.147527
0.231515,0.177989,-2.34057,-0.363424,-0.490215,-0.827631,-0.0525942,-0.0167058,0.0856746
0.223887,0.167254,-2.35551,-0.345098,-0.535989,-0.858114,-0.0283255,-0.0249459,0.0288033
0.215373,0.157046,-2.37131,-0.318234,-0.579092,-0.878951,0.00281583,-0.0441292,-0.026138
0.205734,0.147541,-2.3867,-0.298146,-0.606905,-0.802722,0.0472016,-0.0402797,-0.0775614
0.205734,0.147541,-2.3867,-0.298146,-0.606905,-0.802722,0.0472016,-0.0402797,-0.0775614
0.196409,0.139025,-2.4006,-0.261565,-0.497885,-0.733571,0.0505394,-0.0446194,-0.138003
0.189519,0.132192,-2.41418,-0.141602,-0.384349,-0.736563,0.0210822,-0.0824565,-0.197784
0.184426,0.128926,-2.42914,0.0983384,-0.332269,-0.788272,0.0109807,-0.10457,-0.237855
0.180626,0.130155,-2.44552,0.306263,-0.235907,-0.773169,0.0400594,-0.0926242,-0.221351
0.180099,0.134723,-2.46119,0.389133,0.0398452,-0.692566,0.0708484,-0.0753704,-0.151432
0.187695,0.137909,-2.47638,0.139554,0.491295,-0.759724,0.02764,-0.102121,-0.0320634
0.201402,0.132354,-2.49304,-0.378759,0.584544,-0.995009,-0.0500236,-0.115865,0.0983694
0.212904,0.116565,-2.51282,-0.709986,0.246554,-1.24082,-0.0593066,-0.1102,0.10325
0.212851,0.0971323,-2.53442,-0.68553,-0.525249,-1.22369,0.0411678,-0.0355276,0.0242934
0.196673,0.0821164,-2.55356,-0.364462,-1.18791,-0.940819,0.162108,0.0281302,-0.125061
0.172467,0.0757924,-2.56884,0.0155458,-1.28433,-0.700016,0.139549,0.0387784,-0.273493
0.150049,0.0772603,-2.58184,0.317335,-1.02666,-0.584045,0.0619123,0.0245713,-0.331645
0.135105,0.083547,-2.59442,0.454334,-0.53615,-0.587391,0.0141522,-0.00459331,-0.302761
0.132168,0.09066,-2.60736,0.404126,0.150218,-0.590119,-0.0150007,0.00415598,-0.213888
0.142639,0.0962091,-2.61926,0.311925,0.709659,-0.496451,-0.0174907,0.0335609,-0.104531
0.157985,0.100937,-2.6285,0.326353,0.656743,-0.339152,-0.0347781,0.0719114,0.00588107
0.167916,0.107959,-2.63516,0.500245,0.258213,-0.215215,-0.0900593,0.0777045,0.0426952
0.170348,0.119669,-2.64148,0.750831,-0.0538051,-0.240711,-0.184884,0.0562274,0.0356523
0.169007,0.134047,-2.651,0.771605,-0.170457,-0.463231,-0.251884,0.00679947,0.0785024
0.167524,0.144484,-2.66464,0.439694,-0.168016,-0.684922,-0.258876,-0.0253596,0.165745
0.166582,0.146104,-2.68036,-0.00969731,-0.152665,-0.81831,-0.225981,-0.0285941,0.1917
0.166381,0.140461,-2.69725,-0.221104,-0.107759,-0.924353,-0.204861,-0.0052186,0.0866467
0.167069,0.133187,-2.71546,-0.154889,-0.0549278,-0.956409,-0.167155,0.0352138,-0.0292484
0.169781,0.12962,-2.73328,0.117099,0.0924396,-0.827696,-0.113777,0.0829318,-0.103716
0.174438,0.132641,-2.74843,0.42829,0.159965,-0.600512,-0.0739463,0.112187,-0.0799328
0.178066,0.140993,-2.76014,0.576002,0.0402244,-0.408189,-0.076416,0.103265,0.0294908
0.179235,0.151527,-2.76945,0.612753,-0.0408349,-0.332565,-0.124431,0.0584189,0.110553
0.178803,0.161934,-2.77821,0.559542,-0.147573,-0.337526,-0.166995,0.0283078,0.169822
0.176339,0.170196,-2.78676,0.380607,-0.230736,-0.345921,-0.164225,0.00540471,0.218086
0.173262,0.173572,-2.79446,0.0806101,-0.187809,-0.345526,-0.164572,-0.00820681,0.232052
0.171255,0.171596,-2.8013,-0.129179,-0.148214,-0.356487,-0.186365,-0.0299127,0.178511
0.169024,0.167473,-2.8084,-0.139593,-0.18897,-0.412374,-0.188785,-0.0456192,0.0922887
0.166393,0.163996,-2.81704,-0.0652135,-0.209669,-0.486785,-0.178114,-0.0706701,0.011134
0.164024,0.162114,-2.82708,0.0451527,-0.168045,-0.514394,-0.143509,-0.0927,-0.0685175
0.163239,0.162824,-2.83761,0.187651,-0.0890226,-0.502913,-0.105128,-0.11147,-0.128792
0.162982,0.166176,-2.84854,0.317449,-0.124924,-0.50928,-0.0822671,-0.123528,-0.148793
0.162447,0.172297,-2.86,0.469311,-0.0967577,-0.51004,-0.0686863,-0.112398,-0.180258
0.163534,0.181189,-2.87223,0.605652,-0.0088038,-0.542173,-0.0822597,-0.0847392,-0.192686
0.165968,0.192122,-2.88604,0.675161,-0.0192214,-0.630119,-0.0984012,-0.0796116,-0.164333
0.168612,0.202092,-2.90191,0.533304,0.00410395,-0.752914,-0.109208,-0.0667061,-0.0945314
0.173075,0.207002,-2.9199,0.254145,0.0527883,-0.908703,-0.1337,-0.0767457,-0.0612383
0.177661,0.206657,-2.94092,0.0999453,-0.0445192,-1.14795,-0.174616,-0.0764268,-0.0955057
0.180569,0.204683,-2.96657,0.2083,-0.175349,-1.33156,-0.161482,-0.0316062,-0.17487
0.18243,0.207344,-2.99482,0.570017,-0.194541,-1.33433,-0.079069,0.0464528,-0.221389
0.186392,0.21709,-3.02369,0.874227,0.0241001,-1.26341,-0.0171006,0.118465,-0.173366
0.195793,0.229696,-3.0516,0.817763,0.27662,-1.18541,0.0142545,0.152822,-0.0169454
0.207667,0.237451,-3.07737,0.424077,0.257257,-1.11213,0.0508744,0.155743,0.150155
0.21584,0.237918,-3.0995,0.123639,0.0315197,-0.984688,0.102168,0.152962,0.184328
0.219135,0.235935,-3.11815,0.107008,-0.113074,-0.830497,0.112413,0.190967,0.0928433
0.219845,0.235122,-3.13368,0.122745,-0.183368,-0.662984,0.09766,0.251654,0.0602092
0.217816,0.23401,3.13766,0.00195048,-0.294776,-0.491167,0.0930297,0.252113,0.0922772
0.213067,0.230751,3.12945,-0.142656,-0.357213,-0.370437,0.0830407,0.20605,0.100209
0.207741,0.225786,3.12352,-0.204424,-0.293645,-0.303456,0.0574687,0.143962,0.0566604
0.204127,0.221004,3.11861,-0.157118,-0.182521,-0.276168,0.0400258,0.0729537,0.00989497
0.204127,0.221004,3.11861,-0.157118,-0.182521,-0.276168,0.0400258,0.0729537,0.00989497
0.202366,0.217694,3.11344,-0.0615869,-0.105615,-0.288665,0.0279685,0.0160584,0.00134945
0.201601,0.216196,3.1074,0.0276928,-0.109677,-0.326603,0.0183817,-0.0175395,0.0110468
0.201149,0.216066,3.10027,0.0995847,-0.0883445,-0.361018,0.00928704,-0.0239683,0.0280233
0.200802,0.217105,3.09236,0.15693,-0.113908,-0.370135,0.0156451,-0.0141495,0.0502569
0.200227,0.219287,3.08458,0.198798,-0.115432,-0.330196,0.0294431,0.00918999,0.0757087
0.198774,0.221666,3.07752,0.158327,-0.208428,-0.30568,0.024573,0.0264346,0.118967
0.194481,0.22273,3.07105,0.0724228,-0.366004,-0.293113,0.0221946,0.0230328,0.132403
0.187776,0.222763,3.06516,0.0496873,-0.404373,-0.275514,0.0201477,0.0210202,0.0861834
0.181494,0.222502,3.05951,0.00657917,-0.354553,-0.272738,0.0149291,0.0402813,0.0452048
0.175647,0.221067,3.05469,-0.0588485,-0.327323,-0.207621,0.0435727,0.0296342,0.034047
0.170732,0.21952,3.05129,-0.0184853,-0.238913,-0.14955,0.0607204,0.0100429,-0.00394762
0.167317,0.220243,3.04874,0.139933,-0.169823,-0.0878421,0.0585547,0.00229597,-0.0179621
0.163701,0.224757,3.04665,0.331042,-0.24907,-0.0437048,0.062075,-0.0110019,0.0289845
0.158693,0.232444,3.04472,0.434194,-0.282225,-0.0244781,0.0656281,-0.0295773,0.105807
0.153862,0.24077,3.04271,0.395314,-0.240698,-0.0448721,0.0504144,-0.042372,0.183223
0.150058,0.247414,3.04017,0.292074,-0.202454,-0.101267,0.0505366,-0.0639399,0.241872
0.147226,0.25216,3.03672,0.238526,-0.146421,-0.164115,0.0628392,-0.0681614,0.253691
0.146917,0.256195,3.03198,0.238329,-0.0295291,-0.219715,0.0688687,-0.0556806,0.237854
0.148176,0.26125,3.02651,0.355497,0.0254806,-0.232854,0.0982658,-0.0459566,0.223548
0.150902,0.268882,3.02016,0.489492,0.0733077,-0.256684,0.113586,-0.031847,0.213489
0.155354,0.278836,3.0131,0.587404,0.201328,-0.272774,0.108174,0.00915456,0.23024
0.163562,0.289835,3.00467,0.622503,0.388509,-0.368594,0.0850469,0.0797089,0.267202
0.175772,0.299932,2.99331,0.529232,0.473042,-0.541117,0.0683207,0.159148,0.318368
0.190484,0.304839,2.97935,0.116044,0.626655,-0.66985,0.133986,0.20285,0.339672
0.208766,0.296688,2.96744,-0.725447,0.902537,-0.555625,0.248488,0.268749,0.340224
0.232619,0.272563,2.96486,-1.55225,1.38436,-0.195288,0.3002,0.303732,0.2084
0.257017,0.238306,2.97441,-1.89362,1.11879,0.261141,0.265285,0.274326,0.0172889
0.264045,0.207086,2.9917,-1.43993,-0.126248,0.516073,0.173193,0.179487,-0.250153
0.246579,0.191038,3.00727,-0.50457,-1.17901,0.530822,0.0379864,0.121198,-0.543479
0.217554,0.189871,3.01937,0.0122329,-1.37016,0.629737,-0.0058324,0.0854299,-0.673337
0.192897,0.193038,3.03301,-0.0507813,-0.756964,0.712934,-0.0496689,-0.0204233,-0.678989
0.183145,0.190995,3.04701,-0.423317,0.0384681,0.571318,-0.150689,-0.122344,-0.62869
0.188469,0.180711,3.05802,-0.771676,0.633201,0.295607,-0.250329,-0.172367,-0.563946
0.201085,0.165286,3.06489,-0.81282,0.672158,0.103611,-0.252537,-0.174805,-0.504008
0.211165,0.152264,3.06991,-0.539874,0.40926,0.160562,-0.15772,-0.139538,-0.462679
0.216477,0.146405,3.07705,-0.188012,0.262689,0.412158,-0.10945,-0.113867,-0.402212
0.2203,0.147942,3.08692,0.113982,0.284462,0.546242,-0.161418,-0.133633,-0.303306
0.224693,0.154745,3.09663,0.321239,0.286353,0.529704,-0.225348,-0.174942,-0.161206
0.228467,0.164488,3.10448,0.448508,0.213877,0.441012,-0.244302,-0.203348,-0.0150692
0.230916,0.176124,3.10987,0.564892,0.120212,0.34544,-0.227663,-0.226991,0.0953456
0.231821,0.189419,3.11273,0.66955,0.0288362,0.228679,-0.218103,-0.230367,0.187425
0.232073,0.203805,3.11227,0.737109,-0.00445638,0.0515478,-0.232498,-0.211315,0.255983
0.233278,0.218104,3.10782,0.75326,0.0406316,-0.146594,-0.258407,-0.163138,0.310049
0.236237,0.23142,3.09948,0.727829,0.0520405,-0.338638,-0.275932,-0.090327,0.359317
0.239556,0.243242,3.08745,0.702694,-0.00578932,-0.514716,-0.26616,-0.0198462,0.392691
0.242722,0.253923,3.07262,0.669064,-0.0311403,-0.616567,-0.218524,0.0509011,0.405596
0.246571,0.263123,3.05698,0.573851,0.0267162,-0.619552,-0.178154,0.141445,0.416832
0.251595,0.269818,3.04259,0.418358,0.0909054,-0.558867,-0.153104,0.215134,0.422855
0.25599,0.274299,3.0304,0.332027,-0.0161927,-0.465363,-0.131036,0.24983,0.387759
0.255855,0.27929,3.02041,0.420789,-0.283031,-0.328893,-0.0875351,0.264107,0.306425
0.248525,0.288224,3.01307,0.650506,-0.655098,-0.134434,-0.0636173,0.29954,0.220554
0.234601,0.303486,3.00755,0.960661,-0.854945,-0.033705,-0.0583037,0.291082,0.109678
0.220265,0.324173,3.00212,1.14584,-0.702241,0.00146485,-0.0603189,0.269834,0.0299319
0.210625,0.346066,2.99723,1.04955,-0.433187,0.00116671,-0.0327049,0.212949,0.0394776
0.210625,0.346066,2.99723,1.04955,-0.433187,0.00116671,-0.0327049,0.212949,0.0394776
0.205661,0.363052,2.99255,0.677279,-0.246355,-0.0977394,-0.00532606,0.123623,0.0879077
0.202747,0.370345,2.9862,0.14252,-0.358558,-0.360322,-0.0178487,0.0368487,0.101814
0.19391,0.365684,2.97568,-0.40645,-0.978519,-0.695768,-0.0139404,-0.026094,0.0575206
0.171352,0.348985,2.96102,-0.988045,-1.73893,-0.935594,0.0217557,-0.0335592,-0.0839295
0.140481,0.321818,2.94433,-1.40515,-1.79738,-1.01914,0.0928614,-0.0190196,-0.381698
0.113339,0.290946,2.92753,-1.40108,-1.39478,-0.934152,0.157373,0.00801936,-0.739046
0.095418,0.264336,2.9136,-1.08484,-0.748762,-0.650389,0.221696,0.042839,-0.962159
0.0909298,0.246938,2.90559,-0.547146,0.108554,-0.285106,0.27192,0.0146846,-0.987298
0.100205,0.241702,2.9034,0.00290811,0.687712,0.00755937,0.305168,-0.042337,-0.782703
0.114784,0.244733,2.90584,0.220239,0.772151,0.260895,0.312572,-0.104932,-0.394352
0.12668,0.249704,2.91271,0.159683,0.543588,0.44715,0.310942,-0.180328,-0.0694339
0.131133,0.252334,2.9225,-0.029907,0.144299,0.508487,0.2473,-0.226501,0.127316
0.12843,0.251054,2.93257,-0.208833,-0.13151,0.424362,0.138359,-0.263904,0.185878
0.12285,0.247144,2.93982,-0.247878,-0.221684,0.217627,0.0265984,-0.259408,0.160763
0.117839,0.243192,2.94289,-0.177399,-0.189463,0.0438031,-0.013414,-0.212796,0.122321
0.115621,0.240996,2.94303,-0.027091,-0.0189521,-0.0442554,-0.00895638,-0.161232,0.107943
0.117283,0.242643,2.94159,0.208753,0.141682,-0.0686405,-0.0016783,-0.0900231,0.131991
0.12137,0.248727,2.9394,0.408331,0.194173,-0.0643824,0.0114529,-0.028488,0.217056
0.12543,0.257886,2.93713,0.515594,0.142748,-0.0354315,0.0407021,0.0210133,0.327636
0.127749,0.268471,2.93553,0.544246,0.0470841,0.0157937,0.0549266,0.0683886,0.410804
0.127858,0.279024,2.93525,0.495689,-0.0373578,0.0974407,0.0819346,0.104503,0.46335
0.126533,0.288481,2.93723,0.408251,-0.0194042,0.20642,0.114615,0.13525,0.480233
0.125722,0.295782,2.9413,0.256906,0.0636237,0.267987,0.112414,0.156952,0.484532
0.126264,0.299702,2.94695,0.0649141,0.147742,0.311664,0.0822149,0.183099,0.47324
0.127572,0.300337,2.95333,-0.0677669,0.149259,0.292669,0.0422721,0.196217,0.425838
0.127311,0.299048,2.95951,-0.124119,-0.0180064,0.301379,0.0494134,0.20762,0.346138
0.122302,0.297663,2.9667,-0.0883523,-0.267218,0.365206,0.0782376,0.223661,0.247055
0.113355,0.297696,2.97503,-0.0197761,-0.350872,0.412894,0.0985582,0.226515,0.12444
0.10482,0.296879,2.9833,-0.192085,-0.212499,0.36097,0.0894931,0.197749,0.0113695
0.100822,0.289756,2.99105,-0.611345,0.0444393,0.306228,0.0909836,0.139402,-0.103316
0.102165,0.274941,2.99896,-0.88614,0.29123,0.309423,0.104053,0.0757653,-0.277532
0.105269,0.258534,3.00782,-0.778544,0.177322,0.394042,0.0965526,0.0858642,-0.442425
0.103075,0.247784,3.01918,-0.395568,-0.0908429,0.593935,0.0996062,0.103289,-0.558285
0.0968082,0.243416,3.03302,-0.246381,-0.186073,0.666864,0.0495028,0.0214152,-0.600568
0.0894487,0.237481,3.04605,-0.504585,-0.228185,0.505036,-0.0709685,-0.079625,-0.590424
0.0850647,0.225074,3.05445,-0.764408,0.0575671,0.209214,-0.18014,-0.152264,-0.671478
0.0909188,0.210622,3.05832,-0.643807,0.627416,0.0861048,-0.176464,-0.159187,-0.800308
0.107181,0.202186,3.06135,-0.213445,0.999203,0.132137,-0.142654,-0.134455,-0.784704
0.126988,0.201891,3.06377,0.121309,0.982746,0.0861257,-0.142705,-0.167062,-0.567262
0.144973,0.205571,3.06363,0.216188,0.816898,-0.0549188,-0.170904,-0.208853,-0.325865
0.160296,0.209346,3.06074,0.197396,0.664986,-0.146961,-0.184294,-0.180683,-0.142497
0.173057,0.212795,3.05721,0.206719,0.549894,-0.127852,-0.189474,-0.106892,-0.0156865
0.184186,0.216639,3.05425,0.225898,0.521851,-0.0939539,-0.20804,-0.0558039,0.0896384
0.195555,0.220942,3.05157,0.249105,0.577158,-0.0934214,-0.223019,-0.047285,0.17586
0.208782,0.225661,3.04811,0.27975,0.659844,-0.142817,-0.234027,-0.0443457,0.247701
0.222693,0.230463,3.04362,0.279928,0.622987,-0.172738,-0.222724,-0.0328177,0.327587
0.235712,0.235094,3.03911,0.265053,0.574084,-0.144027,-0.199707,-0.0212468,0.388778
0.24712,0.239145,3.03571,0.203048,0.489368,-0.0777113,-0.19308,0.000269264,0.437357
0.256369,0.242448,3.03414,0.160032,0.387585,0.0139902,-0.176803,0.00327878,0.456711
0.262446,0.245485,3.03443,0.124265,0.209218,0.0846944,-0.165697,-0.0052029,0.449393
0.262259,0.247869,3.03598,0.0622852,-0.24948,0.111863,-0.175275,-0.0264656,0.437281
0.250849,0.249317,3.0375,0.0422476,-0.813443,0.0387986,-0.180447,-0.0539782,0.359314
0.23248,0.249103,3.03597,-0.0401295,-0.996029,-0.202154,-0.224913,-0.0599071,0.225884
0.216539,0.245984,3.02972,-0.114146,-0.693116,-0.451701,-0.242212,-0.0384716,0.0807015
0.216539,0.245984,3.02972,-0.114146,-0.693116,-0.451701,-0.242212,-0.0384716,0.0807015
0.209867,0.242401,3.01953,0.0200878,-0.211313,-0.568054,-0.208236,0.0110456,-0.0312331
0.212733,0.244189,3.00754,0.429536,0.161594,-0.513693,-0.141392,0.0688416,-0.0728261
0.220164,0.255291,2.99554,0.897428,0.260003,-0.385875,-0.101006,0.125924,0.00328547
0.228125,0.274755,2.98384,1.23129,0.22137,-0.302333,-0.115298,0.162745,0.140604
0.235587,0.298564,2.97135,1.32014,0.187618,-0.344908,-0.123997,0.167302,0.265587
0.244856,0.320429,2.95712,1.09561,0.328699,-0.442461,-0.105077,0.151537,0.340087
0.255675,0.335917,2.94339,0.729307,0.207201,-0.417603,-0.0219056,0.13092,0.381787
0.256793,0.344858,2.93278,0.407977,-0.504926,-0.339367,0.10422,0.107015,0.334488
0.241832,0.347565,2.92371,0.024706,-1.29735,-0.451258,0.150799,0.0519893,0.179051
0.212243,0.338573,2.9141,-0.762196,-1.94294,-0.609184,0.156393,0.0500824,0.0197817
0.173953,0.313197,2.90647,-1.51889,-2.02219,-0.557915,0.21608,0.0461241,-0.26941
0.13886,0.280166,2.90164,-1.55731,-1.62513,-0.409268,0.230157,0.047832,-0.757988
0.111334,0.252665,2.89842,-1.11629,-1.23093,-0.2379,0.181471,0.0821079,-1.10198
0.0935996,0.235612,2.89723,-0.561964,-0.486857,-0.0526006,0.135224,0.0807741,-1.1995
0.0939659,0.230585,2.89906,0.0387269,0.54984,0.194764,0.125437,0.0681011,-1.08048
0.109676,0.236666,2.90527,0.450238,1.04367,0.473311,0.201395,-0.00189576,-0.694498
0.125967,0.247821,2.91643,0.488638,0.792181,0.706508,0.254288,-0.115014,-0.247613
0.134676,0.258307,2.92954,0.383936,0.434116,0.645521,0.160957,-0.233447,0.0307466
0.138714,0.26616,2.93926,0.27208,0.267908,0.386611,0.0589819,-0.308185,0.160843
0.142704,0.271351,2.94374,0.18565,0.255659,0.114913,0.0034405,-0.301073,0.237995
0.147559,0.274113,2.94274,0.0956259,0.189995,-0.168022,-0.0289861,-0.236219,0.315089
0.151429,0.274012,2.937,-0.0226663,0.0366138,-0.356651,-0.0177669,-0.149646,0.375367
0.152869,0.271783,2.92947,-0.063923,-0.071713,-0.369715,0.0357186,-0.0490096,0.375064
0.153847,0.270443,2.9226,0.0566331,0.0160506,-0.297159,0.055317,0.0437698,0.336579
0.157326,0.273224,2.91716,0.31094,0.188403,-0.176425,0.0488106,0.106431,0.329539
0.163302,0.281335,2.91332,0.537026,0.284103,-0.0586683,0.058353,0.136067,0.392591
0.169294,0.293204,2.91139,0.646205,0.251735,0.0738375,0.0723008,0.152623,0.489581
0.173171,0.306415,2.91202,0.628346,0.13298,0.211226,0.0798443,0.17266,0.574491
0.172371,0.318644,2.91543,0.504738,-0.125536,0.310221,0.0798831,0.176789,0.626155
0.164785,0.327309,2.92093,0.239928,-0.442757,0.347643,0.0715972,0.174813,0.614824
0.151935,0.330116,2.92842,-0.0576798,-0.560914,0.409606,0.0755861,0.181682,0.510348
0.137436,0.327591,2.93859,-0.330121,-0.557159,0.516518,0.0787167,0.218889,0.348857
0.123359,0.320555,2.95244,-0.513532,-0.376624,0.704545,0.10484,0.224701,0.145218
0.113427,0.31154,2.96998,-0.564923,-0.0708334,0.827503,0.0673437,0.185828,-0.077539
0.108239,0.302334,2.98901,-0.529639,0.0987477,0.873944,0.0506347,0.104955,-0.268853
0.105674,0.295574,3.0082,-0.321748,0.179137,0.872224,0.00613699,0.0450734,-0.408244
0.102218,0.293103,3.02622,-0.120846,-0.0321695,0.819423,-0.0109117,0.0319355,-0.394187
0.0954636,0.292449,3.04199,-0.154233,-0.165733,0.663168,-0.016122,-0.0559553,-0.339132
0.0884983,0.287154,3.05401,-0.517022,-0.169322,0.433501,-0.0397658,-0.143808,-0.287787
0.08343,0.273545,3.0616,-0.881442,-0.119897,0.175742,-0.0797314,-0.189662,-0.348666
0.0810532,0.253989,3.06408,-1.058,-0.0643636,-0.0822285,-0.0986917,-0.20938,-0.490292
0.0805648,0.233131,3.06239,-0.972411,-0.0173945,-0.225141,-0.0653611,-0.208672,-0.620616
0.0812813,0.216342,3.05892,-0.662065,0.0168864,-0.240468,-0.0457604,-0.150469,-0.702057
0.0842226,0.206426,3.05482,-0.302796,0.229838,-0.243558,-0.0811317,-0.0828025,-0.707164
0.0937107,0.202792,3.05045,-0.0507384,0.626968,-0.199504,-0.130871,0.00066036,-0.592096
0.108824,0.202445,3.04741,0.0233219,0.777407,-0.099601,-0.122688,0.037811,-0.351336
0.124287,0.202677,3.04625,0.00929624,0.736838,-0.00768969,-0.108231,0.0205672,-0.12652
0.13894,0.202945,3.04669,0.0152826,0.759555,0.0432209,-0.137619,-0.000288859,0.023017
0.154455,0.203383,3.04753,0.00926326,0.811998,0.0381026,-0.198828,-0.00649706,0.147738
0.170813,0.203331,3.04779,-0.0249508,0.82487,-0.0237653,-0.227715,-0.0357529,0.259915
0.186818,0.201847,3.04668,-0.110943,0.745761,-0.111822,-0.252428,-0.0520688,0.357259
0.200931,0.198145,3.04426,-0.200756,0.620337,-0.195489,-0.260862,-0.0566432,0.426696
0.21268,0.19277,3.04042,-0.242613,0.48621,-0.279288,-0.253053,-0.0546225,0.461454
0.221842,0.186433,3.03581,-0.281075,0.346174,-0.280699,-0.211011,-0.0467919,0.473086
0.221842,0.186433,3.03581,-0.281075,0.346174,-0.280699,-0.211011,-0.0467919,0.473086
0.227798,0.179948,3.03262,-0.280289,0.187631,-0.162361,-0.161991,-0.0257184,0.454148
0.230021,0.174434,3.03192,-0.224645,0.0403896,-0.0360659,-0.154729,-0.00725047,0.404107
0.230521,0.17178,3.03244,-0.0219955,0.0395566,0.000582151,-0.190043,-0.0186997,0.312139
0.232342,0.173838,3.03134,0.238881,0.11821,-0.0645357,-0.240871,-0.0250954,0.238462
0.234517,0.179599,3.02808,0.375624,0.0212953,-0.101631,-0.231291,-0.0160979,0.25816
0.234652,0.187216,3.0243,0.461842,-0.0594249,-0.0869903,-0.199099,-0.00161971,0.2663
0.233948,0.19676,3.0197,0.574616,-0.107414,-0.143215,-0.216483,0.0148139,0.235743
0.2314,0.208434,3.01349,0.708967,-0.316056,-0.16175,-0.163891,0.000797063,0.188196
0.222638,0.223058,3.00707,0.858994,-0.699932,-0.130734,-0.121385,0.0387941,0.10472
0.207261,0.239987,3.00042,0.922859,-0.940128,-0.150348,-0.0859151,0.0657697,-0.0187926
0.190152,0.256423,2.99262,0.800608,-0.940272,-0.288782,-0.0632605,0.0239778,-0.143333
0.175481,0.267316,2.98272,0.407757,-0.781962,-0.449374,0.00773552,0.00968802,-0.232503
0.164317,0.267827,2.97176,-0.197385,-0.649298,-0.579755,0.0529619,0.0290259,-0.314724
0.153265,0.256228,2.96096,-0.751109,-0.815724,-0.628029,0.151101,-0.0234528,-0.435695
0.133842,0.236655,2.94989,-0.975633,-1.43121,-0.745556,0.221106,-0.0956412,-0.630057
0.105113,0.216052,2.9349,-0.850958,-1.64327,-0.953981,0.124219,0.00441411,-0.861754
0.081725,0.200546,2.91641,-0.515568,-0.978442,-0.930218,0.105167,0.108537,-1.03901
0.0767521,0.193483,2.90123,-0.0587589,0.205158,-0.60472,0.210704,0.134981,-0.980975
0.0904868,0.195574,2.89121,0.306763,0.851759,-0.383479,0.205411,0.118066,-0.651769
0.11059,0.202755,2.88468,0.453907,1.01007,-0.182273,0.211506,0.0384049,-0.241663
0.132541,0.212195,2.88091,0.519292,1.09117,-0.0999746,0.16796,-0.0192674,0.057971
0.154088,0.221913,2.87708,0.481962,0.954238,-0.130871,0.114124,-0.0583919,0.294334
0.171216,0.229823,2.87301,0.36312,0.65382,-0.131383,0.0811843,-0.0949181,0.44685
0.181617,0.235193,2.86856,0.254629,0.297048,-0.219498,0.0216024,-0.0908375,0.516183
0.18637,0.238468,2.86171,0.193186,0.0319741,-0.372097,-0.013607,-0.0756604,0.522868
0.187664,0.24008,2.85266,0.132206,-0.0887853,-0.444398,-0.00897278,-0.0234192,0.509883
0.188067,0.240916,2.84345,0.123069,-0.0885026,-0.409327,0.00638187,0.0420434,0.486193
0.188364,0.24248,2.83548,0.189655,-0.0598645,-0.321895,0.0196569,0.0886367,0.473564
0.189926,0.246218,2.82885,0.293407,0.0589085,-0.249066,0.015699,0.128748,0.466653
0.193572,0.251301,2.82289,0.291789,0.157967,-0.229003,0.00518972,0.147636,0.500381
0.199267,0.254954,2.81727,0.157677,0.258536,-0.232026,0.0159368,0.141315,0.543085
0.205689,0.255714,2.81259,0.0112832,0.253098,-0.190842,0.0444344,0.153022,0.546408
0.210997,0.254109,2.80999,-0.12156,0.20816,-0.0869131,0.0878029,0.175776,0.503689
0.21434,0.25001,2.81056,-0.295778,0.148848,0.0677854,0.129467,0.195046,0.428306
0.215072,0.243888,2.81613,-0.402489,0.0272314,0.341447,0.212225,0.173774,0.307012
0.210218,0.237504,2.82732,-0.455795,-0.234084,0.564537,0.246053,0.155749,0.163926
0.20152,0.229819,2.84229,-0.631499,-0.255972,0.707369,0.21204,0.0978724,-0.0125801
0.193829,0.217815,2.86045,-0.881405,-0.0948997,0.778071,0.11183,0.0250569,-0.217373
0.189008,0.202795,2.87876,-0.886754,-0.0435741,0.656883,-0.0126931,-0.0294114,-0.436054
0.184412,0.188248,2.89087,-0.806185,-0.233606,0.20164,-0.120575,-0.0586049,-0.602682
0.174853,0.169767,2.89352,-1.11562,-0.659417,-0.21471,-0.114654,-0.0650866,-0.624894
0.160479,0.143996,2.89343,-1.36752,-0.689796,-0.170791,0.0285537,-0.0137737,-0.760447
0.151128,0.119227,2.89652,-1.04217,-0.149476,0.108863,0.113073,0.0041991,-1.00743
0.154613,0.106164,2.90375,-0.360132,0.559995,0.377928,0.112632,-0.0566021,-1.10241
0.169264,0.104871,2.91234,0.0136581,0.927205,0.414679,0.0352883,-0.164089,-0.877021
0.187295,0.106427,2.91914,-0.0207074,0.914696,0.253204,-0.106185,-0.223394,-0.556373
0.203675,0.105322,2.92181,-0.127499,0.755938,-0.0126582,-0.225853,-0.20429,-0.345646
0.21734,0.101799,2.9203,-0.177947,0.600022,-0.174333,-0.248346,-0.139831,-0.219453
0.228174,0.0979174,2.91787,-0.126065,0.464887,-0.122252,-0.185565,-0.0996724,-0.133048
0.236334,0.0970983,2.91733,0.0873205,0.357833,0.0675489,-0.142782,-0.0632256,-0.0669073
0.242068,0.102977,2.92,0.43213,0.240403,0.326609,-0.126076,-0.0527988,0.00989068
0.245249,0.11661,2.92523,0.74894,0.143576,0.493971,-0.174361,-0.064333,0.130222
0.246818,0.135609,2.93135,0.923029,0.0947405,0.545332,-0.231151,-0.0922385,0.271583
0.246818,0.135609,2.93135,0.923029,0.0947405,0.545332,-0.231151,-0.0922385,0.271583
0.247754,0.156241,2.93688,0.921739,0.0923386,0.478889,-0.280158,-0.107761,0.404159
0.249226,0.174948,2.94072,0.791536,0.112422,0.347899,-0.317184,-0.106796,0.507869
0.250886,0.190332,2.94263,0.668372,0.076545,0.215225,-0.32697,-0.0976501,0.572888
0.251648,0.203581,2.94222,0.63926,-0.00828831,0.0672778,-0.3274,-0.0715036,0.585908
0.251494,0.215816,2.9386,0.62574,-0.0772257,-0.114924,-0.330344,-0.0422339,0.584303
0.250825,0.22607,2.93144,0.525109,-0.143691,-0.308794,-0.332204,-0.00140581,0.593977
0.249098,0.232904,2.92154,0.387853,-0.288045,-0.437122,-0.297629,0.0429833,0.592459
0.243194,0.237834,2.91058,0.368238,-0.573151,-0.470752,-0.22722,0.104144,0.530487
0.23192,0.24317,2.89915,0.428353,-0.810256,-0.478869,-0.191972,0.186109,0.437392
0.218176,0.250623,2.8876,0.558229,-0.809179,-0.446654,-0.137742,0.242224,0.307762
0.207722,0.26059,2.87624,0.614195,-0.493002,-0.428121,-0.101338,0.256537,0.18529
0.203521,0.268705,2.86528,0.350902,-0.253049,-0.45764,-0.0698199,0.243572,0.141406
0.20252,0.269248,2.85441,-0.110143,-0.178036,-0.587556,-0.018446,0.162002,0.0881761
0.198335,0.257416,2.84093,-0.847464,-0.715387,-0.963955,-0.04136,0.137456,0.000384867
0.179929,0.228334,2.82314,-1.6228,-1.49627,-1.19606,0.0997938,0.0770484,-0.182488
0.149179,0.190769,2.80767,-1.71068,-1.83496,-0.872168,0.424169,0.00580695,-0.665017
0.116567,0.160645,2.79747,-1.09689,-1.52106,-0.55605,0.454362,0.0692869,-1.1602
0.0921339,0.143649,2.7909,-0.604383,-1.01597,-0.262114,0.322213,0.122281,-1.31981
0.0796905,0.13313,2.78797,-0.462897,-0.212888,-0.194268,0.183366,0.0446334,-1.22775
0.0841857,0.123782,2.78301,-0.424043,0.554925,-0.343127,0.0773541,-0.0262989,-0.992931
0.102715,0.116754,2.77795,-0.20471,1.22341,-0.205096,0.161713,-0.0935179,-0.718235
0.131317,0.114853,2.7753,0.035173,1.54929,-0.0831537,0.142216,-0.104485,-0.382115
0.161534,0.11719,2.77441,0.195727,1.39521,0.0115684,0.130386,-0.168921,-0.0527468
0.184539,0.121991,2.77332,0.284786,0.868009,-0.0623479,0.0874474,-0.24173,0.184959
0.197212,0.127298,2.76913,0.311026,0.377387,-0.254088,0.0219886,-0.279861,0.312038
0.203124,0.131659,2.76072,0.273373,0.157914,-0.475705,-0.0199912,-0.270882,0.364657
0.208083,0.134008,2.7491,0.192048,0.21642,-0.583969,-0.024465,-0.193968,0.381568
0.215035,0.13444,2.73695,0.109969,0.30465,-0.576536,-0.0303036,-0.105466,0.388396
0.223417,0.134323,2.72546,0.156152,0.381756,-0.542492,-0.0509575,-0.0514753,0.37307
0.232746,0.136581,2.71391,0.345792,0.381578,-0.525851,-0.0693841,0.000460744,0.35814
0.24225,0.14343,2.70192,0.602516,0.401789,-0.450496,-0.0526102,0.0530641,0.350984
0.251581,0.155488,2.69104,0.817051,0.367293,-0.305699,-0.0209107,0.0978093,0.39635
0.259663,0.170853,2.68151,0.871596,0.29791,-0.232231,-0.00728932,0.101618,0.473675
0.266681,0.184449,2.67317,0.610336,0.24867,-0.205478,-0.00819114,0.113352,0.575836
0.271598,0.190965,2.6676,0.154737,0.142343,-0.150175,-0.0106934,0.12134,0.645828
0.273752,0.189152,2.66541,-0.237325,0.0244172,-0.104759,-0.00835204,0.099174,0.618382
0.272053,0.182721,2.66545,-0.333362,-0.219061,-0.0710042,-0.0292507,0.0994463,0.514829
0.263309,0.176843,2.66584,-0.230272,-0.681597,-0.0483245,-0.0297159,0.10706,0.405569
0.246277,0.173827,2.66603,-0.056538,-0.938165,-0.0040917,-0.000894189,0.0986576,0.268368
0.229703,0.174605,2.66648,0.0999096,-0.644,0.0631997,0.00613531,0.0799389,0.0994773
0.223364,0.175936,2.66759,-0.0702225,0.0757478,0.053339,-0.0225044,0.0603595,0.0242373
0.23236,0.169451,2.66893,-0.628564,0.819696,-0.0832333,-0.0361657,-0.05136,0.0145317
0.252456,0.150986,2.66977,-1.14325,1.09741,-0.279759,-0.0160604,-0.155678,-0.0371447
0.269299,0.124991,2.66956,-1.32714,0.427956,-0.398141,0.0272036,-0.126707,-0.143919
0.263726,0.0967381,2.66876,-1.36559,-1.06526,-0.402752,0.0612029,-0.0318002,-0.301036
0.229578,0.0706211,2.66942,-1.13119,-2.1658,-0.139591,0.132757,0.00406462,-0.606149
0.185953,0.0543216,2.67384,-0.50096,-1.97869,0.23475,0.0911772,0.00107225,-0.969556
0.158541,0.0542674,2.68245,0.353861,-0.607942,0.613726,-0.0223613,-0.0302776,-1.14637
0.159861,0.0702759,2.69559,0.943778,0.727655,0.895188,-0.131277,-0.0902586,-0.887365
0.18067,0.0937375,2.71007,1.06986,1.35407,0.897514,-0.227255,-0.1685,-0.353313
0.206188,0.116723,2.72237,0.934544,1.25032,0.717088,-0.309859,-0.245709,0.0895287
0.226068,0.135372,2.72911,0.754635,0.798007,0.317237,-0.392018,-0.305043,0.337008
0.236904,0.149143,2.72728,0.637302,0.277892,-0.181808,-0.435443,-0.328033,0.423787
0.240617,0.158258,2.716,0.498493,-0.0356005,-0.679126,-0.455813,-0.288188,0.422815
0.240617,0.158258,2.716,0.498493,-0.0356005,-0.679126,-0.455813,-0.288188,0.422815
0.241875,0.16223,2.69649,0.358071,-0.12744,-1.07363,-0.44193,-0.184748,0.363309
0.243071,0.162942,2.67181,0.310093,-0.159018,-1.24725,-0.338006,-0.0748232,0.260344
0.243207,0.162437,2.64528,0.256672,-0.312806,-1.30911,-0.29592,0.00384074,0.151916
0.236165,0.160234,2.61774,0.189508,-0.87625,-1.43569,-0.230185,-0.0463982,0.0175577
0.218401,0.155404,2.58391,0.0520287,-1.38797,-2.02029,-0.308739,-0.0814878,-0.215405
0.197205,0.142249,2.53635,-0.412503,-1.31106,-2.85699,-0.32838,-0.0471342,-0.428014
0.18579,0.117499,2.47812,-0.903662,-0.531546,-3.14728,-0.102547,0.0631217,-0.621047
0.18868,0.0878673,2.42568,-0.960468,0.225011,-2.41602,0.261693,0.268006,-0.768821
0.198741,0.0667544,2.39245,-0.397305,0.440193,-1.24996,0.491694,0.318368,-0.820101
0.206661,0.0635816,2.37682,0.381615,0.20962,-0.457813,0.438166,0.208116,-0.744783
0.207775,0.0745476,2.36661,0.840387,-0.188548,-0.419653,0.145852,0.0606084,-0.588511
0.202223,0.0896793,2.35123,0.896528,-0.440689,-0.799669,-0.0164313,-0.0644325,-0.440055
0.195894,0.101266,2.32989,0.649708,-0.346179,-0.984081,-0.00669582,-0.0495418,-0.309673
0.194068,0.109269,2.3104,0.575172,-0.0292446,-0.726017,0.0695741,0.0760778,-0.258648
0.19796,0.121036,2.29699,0.8877,0.2422,-0.353086,0.0918483,0.138792,-0.234543
0.205312,0.142572,2.28885,1.40036,0.380201,-0.0349835,0.0557488,0.134567,-0.135123
0.214718,0.174119,2.28254,1.78184,0.449279,0.0411118,-0.0691029,0.115959,0.0351545
0.225298,0.209906,2.27407,1.85175,0.439637,-0.091822,-0.18317,0.106531,0.246515
0.236277,0.243238,2.262,1.63268,0.380884,-0.296371,-0.227545,0.11368,0.43435
0.246783,0.269493,2.24721,1.26625,0.298924,-0.445119,-0.227397,0.129524,0.5404
0.255706,0.28877,2.23235,0.997681,0.167647,-0.453433,-0.199441,0.153914,0.552014
0.261179,0.304775,2.21767,0.935064,-0.0686992,-0.52621,-0.22067,0.159347,0.482644
0.262065,0.319777,2.20001,0.974673,-0.420517,-0.715381,-0.251832,0.120263,0.400032
0.256225,0.335611,2.17762,1.11001,-0.894025,-0.95087,-0.248798,0.0930942,0.30526
0.244423,0.352273,2.14871,1.14854,-1.19024,-1.27586,-0.222925,0.103653,0.211063
0.235315,0.365472,2.11432,0.811113,-0.791709,-1.56019,-0.162042,0.112487,0.148557
0.244327,0.364349,2.07615,-0.190174,0.324524,-1.95331,-0.078136,0.00639588,0.149633
0.269662,0.33781,2.03738,-1.46402,0.703169,-2.25439,-0.0117256,0.0290684,0.232766
0.290291,0.287651,2.00098,-2.26692,0.0549736,-2.43349,0.0681499,0.126092,0.0924223
0.283569,0.23201,1.96774,-1.99048,-1.64226,-2.17741,0.281087,0.210617,-0.27228
0.243136,0.193454,1.93846,-0.941933,-2.84774,-1.58319,0.382976,0.324299,-0.670015
0.190158,0.181036,1.91579,0.198809,-2.64871,-0.890699,0.327594,0.310069,-0.948243
0.152672,0.192275,1.9006,1.09458,-1.2807,-0.452019,0.157058,0.147956,-1.02939
0.144601,0.216756,1.88956,1.40353,0.170553,-0.286894,-0.0159089,0.0506339,-0.73867
0.159486,0.242956,1.88052,1.27743,1.01907,-0.209916,-0.11484,-0.0357484,-0.298142
0.185137,0.264254,1.87196,0.973622,1.22625,-0.266361,-0.216876,-0.0876271,0.0627751
0.209255,0.2802,1.86103,0.840007,0.814369,-0.493437,-0.326461,-0.142428,0.256519
0.223871,0.293451,1.84291,0.845709,0.132222,-0.938255,-0.424476,-0.150379,0.330245
0.228951,0.304642,1.81551,0.823804,-0.389849,-1.33672,-0.429412,-0.079473,0.340789
0.228222,0.31255,1.78281,0.623271,-0.650277,-1.47288,-0.292021,0.0157076,0.329131
0.223114,0.3152,1.75172,0.297394,-0.827136,-1.32387,-0.126947,0.106256,0.318877
0.211239,0.31299,1.72681,0.00346852,-1.20126,-1.034,-0.0138007,0.152295,0.276155
0.185998,0.306694,1.70988,-0.292152,-1.83645,-0.662767,0.075212,0.152495,0.195042
0.151054,0.298171,1.70081,-0.337188,-1.76013,-0.391232,0.0571023,0.0958353,-0.0213483
0.126518,0.292575,1.69252,-0.0935509,-0.8837,-0.514804,-0.13356,0.055707,-0.230309
0.122526,0.291441,1.68017,0.0930937,0.068112,-0.651343,-0.178147,0.035212,-0.20528
0.132392,0.291385,1.66668,0.0386409,0.439485,-0.621687,-0.101142,0.0495628,0.000688434
0.144958,0.28925,1.65469,-0.0913362,0.446286,-0.551318,-0.0387488,0.0368814,0.173824
0.155352,0.284762,1.64438,-0.196748,0.279298,-0.499796,-0.0221999,0.022704,0.260564
0.16033,0.279048,1.63538,-0.220524,-0.0611131,-0.44634,-0.0341446,0.0197037,0.289473
0.15597,0.273775,1.62744,-0.178598,-0.601392,-0.405567,-0.0277116,0.00570422,0.276006
0.142677,0.26933,1.61969,-0.165504,-0.870727,-0.403009,-0.00958055,-0.0201543,0.199958
0.128225,0.264194,1.61209,-0.271985,-0.733786,-0.401937,-0.0578246,-0.0296704,0.116039
0.119153,0.25652,1.60433,-0.3937,-0.344247,-0.450065,-0.0780253,-0.070762,0.0352647
0.119153,0.25652,1.60433,-0.3937,-0.344247,-0.450065,-0.0780253,-0.070762,0.0352647
0.119524,0.247566,1.59526,-0.388437,0.147495,-0.529733,-0.0886271,-0.110043,-0.0365965
0.12707,0.239224,1.58537,-0.324991,0.303751,-0.512655,-0.067013,-0.12113,-0.0262704
0.133976,0.2326,1.57633,-0.215591,0.161359,-0.454894,-0.0281719,-0.147452,-0.00597119
0.138057,0.228828,1.56772,-0.0503937,0.0686677,-0.438981,-0.0277086,-0.171876,-0.0392401
0.140544,0.227651,1.55885,0.0322709,-0.0208109,-0.434828,-0.0610741,-0.173129,-0.0621704
0.141684,0.227347,1.55005,0.0506259,-0.0620441,-0.425875,-0.0841557,-0.177759,-0.0950346
0.142676,0.227493,1.54086,0.0985444,-0.0208887,-0.469444,-0.122599,-0.167118,-0.153889
0.146186,0.22915,1.53,0.229294,0.14105,-0.558848,-0.175046,-0.152535,-0.223768
0.153789,0.233433,1.51695,0.379595,0.3116,-0.63044,-0.200954,-0.131078,-0.240127
0.164244,0.23975,1.50248,0.456024,0.388077,-0.653068,-0.173585,-0.119734,-0.184147
0.175526,0.246438,1.48775,0.434654,0.365021,-0.65226,-0.142418,-0.114127,-0.0990989
0.184271,0.251574,1.47283,0.314452,0.0833863,-0.699404,-0.124011,-0.122501,-0.0318687
0.185625,0.253119,1.4561,0.138131,-0.338883,-0.896093,-0.158218,-0.125598,-0.0247223
0.182182,0.250359,1.43516,-0.0419494,-0.491046,-1.14514,-0.201788,-0.097982,-0.102706
0.178917,0.244509,1.41125,-0.066144,-0.402153,-1.21163,-0.156771,-0.0367135,-0.206075
0.177994,0.24187,1.38775,0.246869,-0.245102,-1.07707,-0.0753899,0.0307024,-0.288741
0.181001,0.246978,1.36594,0.61072,0.0444905,-0.92877,-0.0502691,0.0829143,-0.273403
0.190205,0.256995,1.34544,0.692117,0.334309,-0.857109,-0.0733842,0.0804237,-0.157065
0.203002,0.266443,1.32589,0.603457,0.404088,-0.818411,-0.0844047,0.0582233,-0.0225949
0.215057,0.274122,1.30677,0.54182,0.28241,-0.83847,-0.0902468,0.0616867,0.0500457
0.224831,0.280176,1.28714,0.45332,0.16551,-0.877248,-0.0947113,0.0715381,0.0745916
0.232441,0.283424,1.26715,0.302804,0.0294245,-0.926339,-0.111254,0.0737422,0.0840639
0.236668,0.283814,1.24672,0.211435,-0.206322,-0.97509,-0.121585,0.0835619,0.0677252
0.235877,0.283366,1.22546,0.226789,-0.435981,-1.03584,-0.12234,0.102495,0.016847
0.233309,0.282669,1.20279,0.194188,-0.424434,-1.10239,-0.147987,0.135854,-0.0399316
0.232743,0.28046,1.17973,0.107007,-0.270456,-1.10685,-0.149615,0.145862,-0.0575347
0.234998,0.277504,1.15696,0.143565,-0.139402,-1.09808,-0.13827,0.137573,-0.0712833
0.239158,0.277084,1.13386,0.357652,-0.0723751,-1.08197,-0.134344,0.132805,-0.0666335
0.244966,0.280528,1.10994,0.501206,-0.0195344,-1.07153,-0.131526,0.121589,-0.00762767
0.250967,0.285161,1.08599,0.501062,-0.0558541,-1.05051,-0.141037,0.100587,0.0757638
0.255848,0.289121,1.06212,0.452883,-0.151203,-1.08556,-0.161309,0.0687707,0.142627
0.258684,0.291214,1.03679,0.363082,-0.29215,-1.22793,-0.206647,0.0417691,0.191146
0.259199,0.290167,1.00839,0.219877,-0.490764,-1.44067,-0.230592,0.0241497,0.234049
0.255251,0.284615,0.976856,0.0234831,-0.815862,-1.6072,-0.196081,0.0341444,0.256524
0.24527,0.276105,0.944704,-0.0626508,-1.05474,-1.58347,-0.0611212,0.0812342,0.177623
0.231707,0.267791,0.914463,-0.0566603,-1.08835,-1.44148,0.0569422,0.160384,0.0605955
0.219337,0.261332,0.888207,-0.00332004,-0.762217,-1.16827,0.190547,0.207037,-0.0771478
0.215398,0.258035,0.867921,0.106792,-0.158332,-0.813113,0.235067,0.234001,-0.165115
0.219512,0.258735,0.85419,0.246567,0.154034,-0.492362,0.257238,0.210234,-0.119075
0.225061,0.263251,0.845141,0.384781,0.137895,-0.293271,0.230277,0.138181,-0.026575
0.228575,0.270169,0.836512,0.465986,-0.0164843,-0.435727,0.0359022,0.0621673,0.0737609
0.230693,0.275622,0.820877,0.363478,-0.208886,-0.940315,-0.120428,-0.094188,0.2151
0.230478,0.273258,0.795879,-0.106646,-0.493733,-1.43486,-0.129253,-0.157849,0.38435
0.226174,0.257969,0.766577,-0.743179,-0.709728,-1.63341,-0.0524317,-0.141398,0.438866
0.216967,0.231365,0.737905,-1.21399,-0.929896,-1.66891,0.0154733,-0.0873745,0.348773
0.200172,0.198874,0.710704,-1.35525,-1.3212,-1.57226,0.170727,-0.091009,0.13961
0.177909,0.168744,0.6876,-1.15944,-1.26353,-1.2143,0.341365,-0.0553677,-0.195382
0.158075,0.145316,0.670908,-0.859341,-0.956403,-0.803796,0.282367,0.0643913,-0.461505
0.144929,0.131034,0.660345,-0.38366,-0.520076,-0.490806,0.203892,0.0553269,-0.643234
0.139557,0.127466,0.651515,0.131231,-0.135481,-0.468821,0.118219,-0.0260776,-0.684825
0.141339,0.131551,0.64041,0.376146,0.149984,-0.566796,0.0332915,-0.100549,-0.554353
0.147849,0.137046,0.627384,0.320309,0.301456,-0.630491,-0.000436783,-0.149439,-0.349422
0.156304,0.139855,0.61364,0.169675,0.359046,-0.68369,-0.038273,-0.153401,-0.19696
0.166374,0.140508,0.598725,0.159798,0.427622,-0.77204,-0.100621,-0.126616,-0.131376
0.166374,0.140508,0.598725,0.159798,0.427622,-0.77204,-0.100621,-0.126616,-0.131376
0.177535,0.141997,0.58173,0.294866,0.466512,-0.860274,-0.132209,-0.0667923,-0.0723011
0.190074,0.146196,0.563083,0.444427,0.504524,-0.861405,-0.115093,0.00401281,0.0122253
0.201114,0.151958,0.545298,0.444927,0.284558,-0.726719,-0.063823,0.0611939,0.134294
0.204493,0.157874,0.532095,0.40632,-0.175544,-0.416787,-0.00819281,0.0897294,0.199851
0.198064,0.165043,0.524842,0.453759,-0.533193,-0.180386,-0.026251,0.103824,0.170831
0.187701,0.173975,0.51938,0.524255,-0.551041,-0.215279,-0.166709,0.107684,0.0993652
0.179779,0.183002,0.511525,0.476071,-0.375251,-0.397248,-0.233657,0.0705928,0.0875867
0.175318,0.188725,0.500348,0.26874,-0.292224,-0.577649,-0.215682,0.0584101,0.142221
0.172113,0.189519,0.487596,0.019071,-0.292203,-0.625186,-0.149826,0.0567034,0.178415
0.168116,0.185476,0.475139,-0.193052,-0.317735,-0.679556,-0.14114,0.0707666,0.171873
0.164871,0.178223,0.461563,-0.280014,-0.247267,-0.728354,-0.112072,0.0718427,0.120076
0.16348,0.170911,0.448922,-0.232903,-0.0961013,-0.618365,-0.0293088,0.0630094,0.065965
0.165021,0.164782,0.43872,-0.227103,0.0717235,-0.462912,-0.00450079,0.0926258,0.0857851
0.168199,0.158336,0.432375,-0.317204,0.114536,-0.275877,0.00956769,0.0594542,0.140014
0.169327,0.150932,0.429114,-0.338151,-0.0892548,-0.17459,-0.0225903,0.00706463,0.170934
0.165607,0.144694,0.427088,-0.240955,-0.280038,-0.129208,-0.0417752,-0.0419977,0.139403
0.160639,0.140292,0.425553,-0.195841,-0.211824,-0.100673,-0.0854097,-0.0732573,0.100901
0.157622,0.135425,0.424104,-0.270134,-0.104413,-0.125222,-0.131561,-0.133452,0.0787501
0.157103,0.129338,0.422396,-0.30697,0.0343636,-0.141628,-0.151443,-0.190328,0.0296213
0.159138,0.123437,0.419872,-0.226197,0.151419,-0.219796,-0.196827,-0.233841,-0.042716
0.163752,0.119808,0.414367,-0.0450123,0.227894,-0.397904,-0.245806,-0.302628,-0.118762
0.169846,0.119521,0.403669,0.17778,0.249519,-0.665245,-0.276909,-0.37025,-0.177991
0.176164,0.121349,0.387048,0.264514,0.176474,-0.915007,-0.260361,-0.387463,-0.179119
0.181915,0.123529,0.366774,0.314121,0.185473,-1.02121,-0.190674,-0.361831,-0.20292
0.189355,0.126543,0.344817,0.387242,0.282633,-1.0654,-0.153167,-0.29663,-0.241395
0.197247,0.131016,0.322218,0.483392,0.167865,-1.05509,-0.0776982,-0.259007,-0.238457
0.199511,0.136404,0.299166,0.46694,-0.297033,-1.09393,-0.029525,-0.214604,-0.205577
0.191708,0.139822,0.274949,0.32444,-0.796096,-1.2282,-0.0495774,-0.148734,-0.235649
0.177037,0.139666,0.247109,0.183589,-0.99535,-1.48102,-0.0943668,-0.0684755,-0.337075
0.16285,0.138547,0.21679,0.272471,-0.816254,-1.43924,-0.0341437,0.0481379,-0.441189
0.154095,0.143668,0.189992,0.679906,-0.419106,-1.08605,0.0774965,0.176941,-0.458202
0.152311,0.158621,0.16983,1.08601,-0.0905775,-0.664863,0.14016,0.239072,-0.331053
0.154695,0.181066,0.156407,1.29955,0.0858343,-0.333699,0.13529,0.229761,-0.135867
0.158851,0.205542,0.147439,1.21646,0.142919,-0.178634,0.066551,0.208233,0.0742913
0.162943,0.226104,0.140851,0.891486,0.120922,-0.149774,0.0133689,0.185242,0.230376
0.166133,0.238918,0.13495,0.473837,0.0438078,-0.220159,-0.0485961,0.149662,0.291698
0.166671,0.244194,0.128198,0.192321,-0.168644,-0.354637,-0.0762919,0.123794,0.255867
0.16379,0.245722,0.118424,0.138481,-0.335094,-0.563652,-0.102329,0.127824,0.127391
0.159274,0.246453,0.104642,0.140313,-0.447703,-0.732798,-0.113511,0.191246,0.0510148
0.154057,0.246109,0.0883327,0.0507721,-0.472233,-0.827083,-0.069311,0.249079,0.0238111
0.148781,0.243222,0.0714176,-0.0931143,-0.455347,-0.832611,-0.0426737,0.284761,0.0112058
0.14466,0.238052,0.0553749,-0.170952,-0.324701,-0.784425,-0.0441588,0.317322,-0.0333464
0.143428,0.233415,0.0407478,-0.0559495,-0.141034,-0.695059,-0.0518256,0.322915,-0.0921308
0.145625,0.232923,0.0271836,0.203466,0.025127,-0.63424,-0.0646384,0.303851,-0.109416
0.148279,0.237209,0.0133717,0.409257,-0.124266,-0.644368,-0.0697776,0.255208,-0.0397211
0.147014,0.245116,-0.00142932,0.57442,-0.322204,-0.679722,-0.0439318,0.188302,0.0201304
0.144717,0.254928,-0.0182605,0.617347,-0.309089,-0.802848,-0.0475872,0.144692,0.0459603
0.144302,0.264259,-0.0373453,0.559483,-0.207347,-0.876329,-0.00962874,0.136896,0.0763321
0.147186,0.271401,-0.0569322,0.412249,-0.0209645,-0.883385,0.021707,0.151169,0.102348
0.153131,0.27498,-0.0755953,0.205136,0.0826832,-0.844875,0.0558338,0.142835,0.136136
0.158571,0.274914,-0.0926773,0.0742257,-0.0411525,-0.779791,0.0746914,0.115702,0.145732
0.159168,0.274295,-0.108134,0.122642,-0.317224,-0.697522,0.0825514,0.10644,0.116434
0.154932,0.27573,-0.121791,0.216928,-0.437789,-0.578333,0.0795131,0.10367,0.0726953
0.149223,0.278251,-0.133028,0.168603,-0.450318,-0.466403,0.058007,0.0801709,0.0601656
0.149223,0.278251,-0.133028,0.168603,-0.450318,-0.466403,0.058007,0.0801709,0.0601656
0.142478,0.278212,-0.142892,-0.0626943,-0.478658,-0.508266,0.0144342,0.0331364,0.0688702
0.135948,0.271804,-0.153989,-0.420782,-0.489603,-0.638815,-0.0345459,-0.00496835,0.0324032
0.129644,0.260126,-0.16642,-0.524624,-0.443606,-0.689884,-0.0164418,-0.0187072,-0.0768931
0.125466,0.249462,-0.178563,-0.363114,-0.278652,-0.590544,0.0561661,-0.000416934,-0.182035
0.124411,0.24318,-0.187902,-0.154466,-0.0497434,-0.384629,0.124175,-0.00675325,-0.195387
0.127489,0.240786,-0.194222,-0.0146851,0.217217,-0.283171,0.10768,-0.0450729,-0.153766
0.136275,0.240338,-0.200192,0.048013,0.47687,-0.312803,0.070917,-0.0492307,-0.0595519
0.144531,0.241664,-0.208095,0.0332257,0.0499555,-0.365755,0.0992928,-0.00732417,0.0700095
0.143203,0.237669,-0.212929,-0.333358,-0.308372,-0.135075,0.140976,0.0052283,0.132626
0.134745,0.230561,-0.21274,-0.28973,-0.437605,0.00792675,0.0793916,0.0864794,-0.0172502
0.127618,0.228996,-0.211925,0.139691,-0.271028,0.0819735,0.0315681,0.122813,-0.149381
0.120656,0.235355,-0.208966,0.432813,-0.37802,0.264726,0.0259445,0.117633,-0.110886
0.113107,0.246021,-0.20504,0.540327,-0.247424,0.191298,-0.0833292,0.0957345,-0.06089
