attitude_roll,attitude_pitch,attitude_yaw,rotationRate_x,rotationRate_y,rotationRate_z,acceleration_x,acceleration_y,acceleration_z
0.018284,0.330288,-0.00304732,0.185541,-0.956852,-0.582223,-0.393164,0.182287,0.14446
0.00286495,0.331975,-0.0195815,-0.0286292,-1.08178,-0.990705,-0.421349,0.168928,0.162666
-0.00930411,0.328373,-0.0448316,-0.351213,-0.931899,-1.39486,-0.405744,0.163598,0.164835
-0.0154204,0.318526,-0.0777067,-0.670325,-0.732591,-1.69583,-0.326191,0.19041,0.160035
-0.0171416,0.303592,-0.115028,-0.855642,-0.598395,-1.81306,-0.214722,0.207047,0.124264
-0.0176365,0.28689,-0.152932,-0.858784,-0.562104,-1.77445,-0.0977245,0.218228,0.0803019
-0.0184044,0.271508,-0.188775,-0.745364,-0.479569,-1.64578,-0.0235153,0.21249,0.0445489
-0.0193637,0.258228,-0.221281,-0.662142,-0.472263,-1.48003,0.0233591,0.184506,0.0614656
-0.0222449,0.246317,-0.250552,-0.588724,-0.519868,-1.34871,0.057674,0.123397,0.0891601
-0.0259225,0.235934,-0.277544,-0.53261,-0.497838,-1.25492,0.0725038,0.0617539,0.106385
-0.0308875,0.225356,-0.302919,-0.617964,-0.598572,-1.20408,0.0793418,0.0142094,0.153266
-0.0380552,0.213194,-0.32779,-0.657466,-0.622665,-1.18856,0.107039,-0.0578575,0.101378
-0.0428511,0.202092,-0.352358,-0.550728,-0.334858,-1.16108,0.116917,-0.0769753,-0.0171001
-0.0426106,0.192915,-0.37531,-0.477219,-0.108092,-1.04362,0.128706,-0.0762088,-0.052797
-0.0393182,0.184659,-0.395492,-0.435572,0.0468622,-0.913788,0.152608,-0.110608,-0.0684505
-0.0348236,0.176991,-0.413187,-0.395756,0.0658533,-0.803078,0.152132,-0.134234,-0.0859973
-0.0309021,0.170649,-0.428421,-0.269963,0.0861529,-0.683211,0.144004,-0.155754,-0.140881
-0.0256905,0.167744,-0.441347,-0.0641357,0.225731,-0.596765,0.117002,-0.162235,-0.199847
-0.0186247,0.168364,-0.452732,0.0694067,0.283295,-0.538797,0.114201,-0.17792,-0.194532
-0.011703,0.170105,-0.463117,0.0682137,0.226683,-0.493372,0.111403,-0.184138,-0.175847
-0.0064707,0.170633,-0.472878,-0.0333571,0.138743,-0.480148,0.0792527,-0.171059,-0.182665
-0.00149716,0.169089,-0.482798,-0.109111,0.231623,-0.504878,0.0514178,-0.166509,-0.22404
0.00744424,0.167531,-0.493126,-0.017272,0.512831,-0.513094,0.039474,-0.144928,-0.271413
0.0226446,0.169096,-0.503174,0.193497,0.830592,-0.467026,0.0427285,-0.105986,-0.252964
0.0425846,0.174566,-0.511575,0.365262,0.996304,-0.334629,0.0695712,-0.0698189,-0.138955
0.0631747,0.182297,-0.516861,0.417631,0.934182,-0.138441,0.0988479,-0.0410319,0.00540918
0.0798401,0.190887,-0.518181,0.456279,0.710473,0.0659616,0.113771,-0.029692,0.105296
0.0915641,0.2008,-0.516073,0.514016,0.509919,0.214679,0.0894324,-0.0131779,0.144443
0.0991723,0.212058,-0.511817,0.56372,0.346632,0.299912,0.0544226,0.00925478,0.167392
0.103527,0.223939,-0.506412,0.551024,0.203782,0.335989,0.0297467,0.0268054,0.176933
0.103825,0.234286,-0.500707,0.40845,-0.0743589,0.327289,0.0256423,0.0287795,0.186559
0.0966328,0.240914,-0.494995,0.17995,-0.547248,0.281417,0.0380788,0.0225559,0.155463
0.078812,0.24179,-0.490269,-0.135293,-1.10532,0.175528,0.0138002,0.0346834,0.0581986
0.0534718,0.236953,-0.488155,-0.329995,-1.31248,-0.0153574,-0.025189,0.0409554,-0.139714
0.0305444,0.230626,-0.490507,-0.256238,-0.950477,-0.23381,-0.056846,0.0597336,-0.363906
0.0200259,0.227583,-0.496152,-0.0363647,-0.208527,-0.28081,-0.0551527,0.136039,-0.466792
0.0241642,0.228958,-0.499491,0.175436,0.512416,0.00214799,0.0197578,0.212864,-0.382246
0.0377213,0.234331,-0.495572,0.343623,0.868158,0.381425,0.0773626,0.241607,-0.178397
0.0531478,0.243009,-0.485417,0.470539,0.881832,0.62303,0.0493139,0.205865,0.0287877
0.0655629,0.253865,-0.472037,0.524229,0.670499,0.719694,-0.00291497,0.156222,0.191104
0.0722328,0.265069,-0.458148,0.489695,0.349254,0.678754,-0.0466849,0.1163,0.299212
0.0722609,0.274576,-0.446215,0.3635,-0.0382795,0.526471,-0.0688222,0.072286,0.364737
0.0651359,0.280531,-0.438052,0.169944,-0.43751,0.290414,-0.0707394,0.0338545,0.379403
0.0528461,0.282253,-0.434789,-0.0152455,-0.670877,0.0360628,-0.079128,0.0155956,0.330351
0.0388161,0.280364,-0.436188,-0.164966,-0.765553,-0.166583,-0.0778948,0.0269339,0.241161
0.0240947,0.276274,-0.441067,-0.21497,-0.832282,-0.310097,-0.0498359,0.0440738,0.141029
0.00973714,0.272433,-0.44881,-0.147439,-0.777306,-0.446195,-0.021707,0.0567038,0.0454403
-0.000625497,0.270938,-0.459019,0.014079,-0.509577,-0.53273,-0.00720982,0.0772205,-0.0247305
-0.00405735,0.273724,-0.470116,0.263748,-0.143439,-0.52606,0.012497,0.107996,-0.03948
-0.00187406,0.281315,-0.480242,0.481335,0.0630827,-0.449686,0.0475615,0.144242,0.0483056
0.00296221,0.292459,-0.488794,0.618622,0.178596,-0.375717,0.0700853,0.150169,0.175689
0.00296221,0.292459,-0.488794,0.618622,0.178596,-0.375717,0.0700853,0.150169,0.175689
0.00973047,0.305194,-0.496096,0.643107,0.288591,-0.321221,0.0669217,0.149676,0.302041
0.0186861,0.317277,-0.502924,0.562902,0.3899,-0.315999,0.0473721,0.136504,0.402804
0.0290379,0.327216,-0.510202,0.440586,0.39504,-0.360882,0.0319092,0.119061,0.470651
0.0382953,0.334161,-0.518923,0.283679,0.219438,-0.441969,0.0380353,0.0922133,0.509011
0.0435463,0.338231,-0.528903,0.164045,-0.0103177,-0.475838,0.06631,0.0706189,0.482442
0.0450674,0.3399,-0.539046,0.0459533,-0.145404,-0.473259,0.0717832,0.0764497,0.417981
0.0472877,0.339212,-0.548784,-0.0810815,0.112753,-0.4416,0.0533239,0.069225,0.28817
0.0572653,0.334981,-0.556999,-0.328216,0.61592,-0.356364,0.065744,0.0470896,0.155622
0.0749218,0.324426,-0.563775,-0.692402,0.857065,-0.383696,0.0567843,-0.0194916,0.0512691
0.0932747,0.306643,-0.57226,-1.0207,0.660262,-0.60847,0.0719413,-0.168355,-0.0828506
0.104152,0.280002,-0.587357,-1.53571,-0.0694501,-1.14625,-0.027176,-0.262782,-0.271631
0.101132,0.241017,-0.613507,-2.04223,-0.881717,-1.74891,-0.0766636,-0.300983,-0.536124
0.0859153,0.195754,-0.647579,-2.07554,-1.30028,-1.90216,0.0120359,-0.166517,-0.886852
0.0670815,0.155763,-0.678882,-1.62824,-1.00448,-1.37696,0.111255,0.0989819,-1.16309
0.0571125,0.129424,-0.69464,-0.885903,-0.182809,-0.286994,0.221442,0.202427,-1.23522
0.0614952,0.120629,-0.687504,-0.0430197,0.660563,0.909244,0.236567,0.148444,-1.0595
0.075596,0.128407,-0.661648,0.59095,0.975631,1.61621,0.0806458,0.0416894,-0.711993
0.0891854,0.14595,-0.628399,0.827754,0.802718,1.75245,-0.130463,-0.0900261,-0.338462
0.0973644,0.165342,-0.596874,0.797697,0.511155,1.48206,-0.291609,-0.21038,-0.061156
0.101325,0.182746,-0.574144,0.709759,0.294239,0.896047,-0.386409,-0.279588,0.118045
0.104144,0.196605,-0.564128,0.558124,0.189543,0.235091,-0.386087,-0.289156,0.249714
0.108262,0.205634,-0.5659,0.350917,0.20934,-0.274167,-0.317215,-0.237829,0.350398
0.114897,0.209328,-0.574727,0.117328,0.266485,-0.500886,-0.228628,-0.137748,0.425594
0.12281,0.209056,-0.585112,0.00125343,0.312323,-0.487412,-0.146538,-0.0401444,0.445149
0.130555,0.208279,-0.593689,0.0479028,0.266199,-0.344483,-0.0835024,0.0196126,0.439224
0.136487,0.209981,-0.599168,0.196518,0.219641,-0.166855,-0.0439176,0.0495816,0.424674
0.140737,0.214901,-0.601565,0.303488,0.156788,-0.00520372,-0.0234291,0.0710389,0.438285
0.143729,0.221259,-0.601175,0.293159,0.163519,0.124096,-0.0172455,0.069037,0.473756
0.146405,0.226345,-0.598376,0.157583,0.161213,0.215387,-0.0190994,0.0618658,0.502444
0.148407,0.228719,-0.593254,0.0119487,0.153065,0.324067,-0.0138698,0.0606685,0.49879
0.148997,0.22913,-0.585185,-0.0684488,0.0805482,0.462699,-0.000569493,0.0684545,0.46222
0.147404,0.229588,-0.574465,-0.0243728,0.0144939,0.578425,-0.0104484,0.0562199,0.391683
0.14356,0.231363,-0.561897,0.0110219,-0.142067,0.658748,-0.0174442,0.0469774,0.345681
0.134422,0.233014,-0.548005,-0.0584312,-0.476447,0.688744,-0.0355925,0.0388027,0.315791
0.117617,0.232051,-0.534401,-0.200225,-0.886041,0.596332,-0.0494267,-0.00073871,0.243969
0.0951368,0.228699,-0.523508,-0.20957,-1.06645,0.428426,-0.0314237,-0.0449721,0.0889578
0.0732739,0.2269,-0.515622,-0.00420062,-0.904649,0.344075,-0.00910661,-0.0227839,-0.096758
0.057847,0.230391,-0.508272,0.307938,-0.437075,0.423979,-0.00378166,0.0543771,-0.240835
0.0525512,0.239776,-0.498144,0.552642,0.128547,0.609612,-0.015456,0.134488,-0.298596
0.0550132,0.25152,-0.485531,0.505613,0.335672,0.643752,-0.0386679,0.13262,-0.26494
0.0558165,0.259503,-0.474538,0.21474,-0.03786,0.433279,-0.0374859,0.0430079,-0.228301
0.0480838,0.261283,-0.46881,-0.0499025,-0.570173,0.137799,-0.0390792,-0.0118675,-0.296257
0.0330077,0.259121,-0.46732,-0.145299,-0.852567,0.0364231,-0.0128265,0.0226339,-0.447531
0.0151417,0.25671,-0.465967,-0.0886418,-0.901167,0.0935593,0.0125615,0.0748836,-0.595136
-0.00425138,0.255115,-0.463624,-0.100687,-0.998898,0.115532,0.0116669,0.0866615,-0.645595
-0.0255476,0.251762,-0.46205,-0.247005,-1.05851,0.0312793,-0.0317028,0.0627704,-0.6488
-0.0444491,0.245517,-0.463151,-0.369714,-0.796484,-0.123303,-0.0892528,0.0381169,-0.661668
-0.0533589,0.238179,-0.467648,-0.366215,-0.165023,-0.25868,-0.098227,0.0211511,-0.640133
-0.0480928,0.232047,-0.473375,-0.274017,0.536619,-0.239156,-0.0537544,0.0170494,-0.51479
-0.0317626,0.227257,-0.477075,-0.234028,0.959532,-0.0869945,-0.00711471,0.015635,-0.281056
-0.0317626,0.227257,-0.477075,-0.234028,0.959532,-0.0869945,-0.00711471,0.015635,-0.281056
-0.0113565,0.222702,-0.477101,-0.219725,1.04915,0.0870486,0.0208872,-0.00971027,-0.0400326
0.0083018,0.218859,-0.474233,-0.157279,0.965336,0.174831,0.00851314,-0.0524911,0.141441
0.0248216,0.216577,-0.470743,-0.0821524,0.747448,0.150086,-0.0121848,-0.0919507,0.281193
0.0360294,0.215389,-0.468139,-0.0515216,0.426078,0.0988626,-0.0042902,-0.112841,0.400393
0.0408358,0.214455,-0.466498,-0.0551443,0.103299,0.0601533,0.0204135,-0.116698,0.480199
0.0403711,0.21305,-0.465383,-0.0969646,-0.10258,0.0470405,0.0483515,-0.11206,0.52086
0.0367254,0.210603,-0.464025,-0.149157,-0.228619,0.0826067,0.0786266,-0.102932,0.533947
0.0301288,0.207718,-0.461502,-0.13668,-0.3925,0.161422,0.101779,-0.0900681,0.517748
0.0189667,0.206262,-0.457084,-0.00177063,-0.649223,0.26649,0.118643,-0.0727549,0.465886
0.00172525,0.208459,-0.450682,0.222571,-0.939831,0.356582,0.122198,-0.0469077,0.395754
-0.0201486,0.215507,-0.442765,0.483492,-1.02978,0.400496,0.125547,-0.0267879,0.316636
-0.0406291,0.226702,-0.434629,0.637973,-0.817927,0.348651,0.109342,-0.016797,0.262961
-0.0555183,0.239424,-0.427982,0.648956,-0.519352,0.226528,0.107359,-0.0246063,0.256324
-0.0647064,0.251404,-0.424644,0.549997,-0.361974,0.0110614,0.0854252,-0.0337217,0.282104
-0.0721381,0.260506,-0.426729,0.334336,-0.461999,-0.285108,0.0665919,-0.0188738,0.30034
-0.0798333,0.266041,-0.435361,0.177122,-0.502506,-0.580947,0.0745167,-0.00460306,0.241333
-0.0841323,0.270461,-0.449041,0.175428,-0.228384,-0.747531,0.090454,0.0664003,0.134495
-0.0780671,0.275816,-0.464399,0.223372,0.455826,-0.756488,0.0987218,0.147927,0.0760789
-0.0596121,0.280177,-0.478924,0.0755368,0.909083,-0.672858,0.0779294,0.174673,0.14445
-0.0375594,0.278794,-0.492919,-0.307877,0.844115,-0.691739,0.0453932,0.119954,0.202272
-0.0193096,0.268498,-0.508831,-0.779344,0.528825,-0.820786,0.00340356,0.0182891,0.10193
-0.00945839,0.247942,-0.527997,-1.308,-0.0767058,-1.03242,-0.0368362,-0.0371225,-0.0739588
-0.0116338,0.217338,-0.552298,-1.75423,-0.673347,-1.30964,-0.085213,-0.0599881,-0.33069
-0.0226389,0.181137,-0.581096,-1.85657,-0.905685,-1.4105,-0.0964926,0.00590846,-0.673168
-0.0332822,0.146831,-0.608453,-1.63709,-0.542885,-1.12856,-0.0635023,0.138018,-0.992265
-0.0359116,0.117615,-0.625487,-1.34266,0.0573712,-0.408714,-0.0213968,0.225834,-1.10119
-0.0291333,0.0948116,-0.625574,-0.9149,0.592697,0.462773,0.0638189,0.143742,-1.06438
-0.0154025,0.0821683,-0.610068,-0.305711,0.880874,1.05012,0.0491176,0.0180958,-0.917768
0.000871601,0.0814451,-0.586794,0.204274,0.900559,1.2276,-0.0950002,-0.0728349,-0.650303
0.0157229,0.0878208,-0.562453,0.366293,0.791507,1.19368,-0.192099,-0.149536,-0.330332
0.0286711,0.0953319,-0.539827,0.324181,0.735041,1.07627,-0.211124,-0.223095,-0.0610563
0.0414459,0.101964,-0.519949,0.27913,0.741749,0.929509,-0.218587,-0.255986,0.125956
0.0542251,0.10844,-0.503002,0.298764,0.710777,0.794264,-0.222093,-0.242054,0.259465
0.066083,0.115692,-0.488691,0.343587,0.638129,0.677333,-0.224132,-0.210799,0.368283
0.0765173,0.12382,-0.476706,0.383984,0.548829,0.572088,-0.214728,-0.179811,0.465881
0.0850993,0.132479,-0.466747,0.40119,0.440269,0.48983,-0.189141,-0.155552,0.547297
0.0912149,0.141306,-0.458114,0.405262,0.285761,0.445026,-0.151674,-0.128039,0.608964
0.0944042,0.150163,-0.45017,0.404931,0.166925,0.424859,-0.119647,-0.0987221,0.626586
0.0958793,0.159203,-0.442263,0.418476,0.124856,0.446738,-0.0862515,-0.0667802,0.618867
0.0972008,0.168725,-0.433553,0.441655,0.15023,0.503319,-0.0525636,-0.0406161,0.60633
0.0973848,0.177851,-0.423745,0.349026,0.0027967,0.544743,-0.0237215,-0.0276441,0.615396
0.0921868,0.183909,-0.412945,0.153162,-0.362883,0.570559,-0.0147593,-0.0202202,0.587604
0.0780936,0.187308,-0.401473,0.135398,-0.819787,0.590029,0.0113172,-0.0132791,0.437751
0.05627,0.193155,-0.389435,0.401063,-1.10415,0.635022,0.0138821,0.0312356,0.191368
0.032472,0.205194,-0.376492,0.73901,-0.941934,0.686308,0.0161274,0.0847695,-0.0139874
0.0152288,0.221875,-0.362875,0.851606,-0.491497,0.664486,0.0138316,0.0852172,-0.140502
0.00654527,0.23698,-0.351435,0.598487,-0.152187,0.439611,-0.0345911,0.0783046,-0.210419
0.00324507,0.244586,-0.345973,0.160025,-0.0980887,0.0832867,-0.0711569,0.0530217,-0.282926
-0.000413391,0.243862,-0.348854,-0.211372,-0.385943,-0.374152,-0.072841,0.0166754,-0.419373
-0.00855629,0.237356,-0.360668,-0.408685,-0.666246,-0.728884,-0.0425565,0.0287128,-0.595776
-0.018111,0.22958,-0.376991,-0.351312,-0.61769,-0.818097,0.00992914,0.109771,-0.762894
-0.018111,0.22958,-0.376991,-0.351312,-0.61769,-0.818097,0.00992914,0.109771,-0.762894
-0.0235488,0.22506,-0.393123,-0.129305,-0.267361,-0.729329,0.0103032,0.211782,-0.811165
-0.0223249,0.224425,-0.406699,-0.00733649,0.0771939,-0.605991,-0.0260578,0.273113,-0.67121
-0.0160417,0.223676,-0.41888,-0.133063,0.248972,-0.614968,-0.0746754,0.230208,-0.432752
-0.00827887,0.218556,-0.432781,-0.399951,0.203688,-0.747715,-0.0739799,0.132149,-0.197009
-0.00146157,0.208504,-0.449036,-0.59851,0.141329,-0.824571,-0.0382582,0.0646622,-0.0584177
0.00387953,0.195462,-0.465534,-0.684103,0.0582892,-0.775287,0.00167225,0.0543274,0.0249723
0.00696313,0.182162,-0.479622,-0.627805,-0.00195281,-0.611508,0.0431247,0.0389593,0.0696427
0.00825089,0.170617,-0.490096,-0.527517,-0.0635844,-0.440208,0.0462818,0.0188043,0.12537
0.00717594,0.160747,-0.497772,-0.459961,-0.171217,-0.342456,0.0327421,-0.0137111,0.192802
0.00361839,0.151932,-0.504393,-0.427547,-0.292022,-0.327301,0.0222107,-0.0605811,0.246988
-0.00246709,0.143685,-0.511113,-0.395099,-0.408604,-0.342774,0.0204165,-0.0803499,0.279105
-0.010239,0.136793,-0.51798,-0.288554,-0.445701,-0.326583,0.0374717,-0.0860454,0.275809
-0.0180056,0.13294,-0.524179,-0.108106,-0.405042,-0.286369,0.0511099,-0.0716139,0.274753
-0.0247794,0.13268,-0.529709,0.0629276,-0.344443,-0.270466,0.0423813,-0.0571162,0.315385
-0.030396,0.13524,-0.535372,0.169254,-0.296586,-0.306876,0.0246817,-0.0528707,0.38128
-0.0346526,0.139401,-0.542496,0.214313,-0.238725,-0.42897,-0.00521072,-0.05534,0.438283
-0.0382498,0.144356,-0.553059,0.243697,-0.284214,-0.658161,-0.0499563,-0.0610093,0.467436
-0.043355,0.149767,-0.56926,0.227257,-0.492764,-0.973904,-0.0830288,-0.0462576,0.474678
-0.0521863,0.154704,-0.591048,0.162288,-0.683614,-1.18281,-0.0301254,-0.0168111,0.445239
-0.0606952,0.158952,-0.615319,0.13817,-0.487595,-1.21587,0.0256983,0.0488625,0.347377
-0.0621161,0.16321,-0.639261,0.12103,-0.0142176,-1.18484,0.0565362,0.111613,0.233969
-0.0536566,0.165111,-0.663628,-0.108051,0.436989,-1.25062,0.0652001,0.111566,0.154933
-0.0378247,0.16183,-0.690593,-0.306988,0.680804,-1.42076,0.0973191,0.0261915,0.0158302
-0.0201029,0.155431,-0.723169,-0.467541,0.444708,-1.84498,0.076805,-0.0706576,-0.146792
-0.0125904,0.142369,-0.766461,-0.933916,-0.370529,-2.41057,0.018612,-0.0893587,-0.238727
-0.0205338,0.12021,-0.818458,-1.35566,-1.04968,-2.65335,0.111739,-0.0619944,-0.445719
-0.0392593,0.0904102,-0.871128,-1.78966,-1.30384,-2.43366,0.16624,0.128877,-0.657119
-0.0585788,0.0536082,-0.916089,-2.07168,-0.848024,-1.83459,0.186971,0.223367,-0.831198
-0.0640151,0.0150389,-0.947878,-1.89824,0.282846,-1.09808,0.181777,0.139336,-0.982264
-0.0443462,-0.0159415,-0.963885,-1.24016,1.6367,-0.307882,0.174056,0.0274094,-0.964306
-0.00327198,-0.0323093,-0.961903,-0.402002,2.358,0.55152,0.187612,-0.0824745,-0.667718
0.0456976,-0.0326485,-0.943654,0.274115,2.38909,1.23635,0.109525,-0.170597,-0.252156
0.0899628,-0.0211686,-0.915715,0.640604,1.93051,1.58075,-0.0243611,-0.276675,0.113165
0.122549,-0.00300118,-0.885941,0.834319,1.29114,1.5284,-0.140659,-0.39358,0.355075
0.141377,0.0184177,-0.860857,0.952706,0.620124,1.23728,-0.221022,-0.442597,0.491579
0.147342,0.0414026,-0.842311,1.05642,0.0580748,0.954084,-0.229814,-0.41387,0.552023
0.144046,0.066157,-0.827939,1.18965,-0.260551,0.860923,-0.185013,-0.304527,0.560843
0.137897,0.0938587,-0.814364,1.36904,-0.179899,0.886046,-0.156585,-0.154631,0.539782
0.137083,0.124928,-0.79997,1.50245,0.29178,0.961716,-0.158584,-0.0549775,0.518635
0.146125,0.158022,-0.784684,1.56216,0.828949,1.00049,-0.11306,-0.0369093,0.50912
0.165226,0.191758,-0.768851,1.52506,1.33468,1.08139,0.00985026,-0.109448,0.493936
0.189496,0.223043,-0.751807,1.18148,1.28441,1.08217,0.0753045,-0.14518,0.495415
0.200292,0.241761,-0.73555,0.324398,0.0632565,0.817322,0.0185768,-0.155043,0.449463
0.184656,0.243922,-0.722797,-0.311229,-1.31746,0.37656,0.0543405,-0.172628,0.21861
0.143188,0.232293,-0.721022,-0.861196,-2.75677,-0.417055,0.0823857,-0.273499,-0.12805
0.0837863,0.21035,-0.73433,-1.08786,-3.27534,-1.05412,0.14684,-0.234786,-0.608313
0.0280624,0.191232,-0.756803,-0.615118,-2.62424,-1.19385,0.17483,0.0292869,-1.1468
-0.00770211,0.186946,-0.778699,0.227312,-1.29609,-0.900488,0.215896,0.313636,-1.25703
-0.0158727,0.19975,-0.790652,0.996083,0.240617,-0.258293,0.226265,0.458586,-0.944476
0.00258907,0.225381,-0.78811,1.53191,1.6124,0.473141,0.167566,0.485914,-0.44633
0.00258907,0.225381,-0.78811,1.53191,1.6124,0.473141,0.167566,0.485914,-0.44633
0.0402062,0.258972,-0.773745,1.74803,2.39078,0.937221,0.0279022,0.418975,0.0264804
0.0837297,0.294304,-0.755681,1.6379,2.3335,0.950103,-0.133503,0.335484,0.379296
0.120267,0.326037,-0.742392,1.38174,1.69355,0.603565,-0.262491,0.215799,0.58545
0.14397,0.351669,-0.738392,1.1107,0.778069,0.104843,-0.283786,0.102766,0.651895
0.152411,0.370523,-0.743874,0.834435,-0.05696,-0.302953,-0.229105,0.0503044,0.603172
0.151962,0.382744,-0.754713,0.515363,-0.286168,-0.470121,-0.203474,0.0974203,0.440421
0.151751,0.387607,-0.765651,0.108962,-0.146706,-0.459066,-0.204408,0.182783,0.231705
0.15304,0.384094,-0.7764,-0.327151,-0.200826,-0.661185,-0.271158,0.184457,-0.00352812
0.150269,0.367059,-0.796662,-1.14679,-0.932075,-1.58918,-0.407997,0.037476,-0.246748
0.137209,0.329904,-0.838483,-1.86908,-1.71493,-2.79701,-0.398736,-0.139626,-0.593076
0.119284,0.284172,-0.897413,-1.84217,-1.75952,-3.20969,-0.234544,0.0287604,-1.11689
0.105016,0.246704,-0.954958,-1.21609,-1.0643,-2.61721,-0.0636093,0.403053,-1.46216
0.102627,0.225509,-0.995503,-0.531898,-0.182208,-1.5155,0.0697486,0.483719,-1.40533
0.107882,0.216909,-1.01533,-0.17983,0.196955,-0.569369,0.0693043,0.332476,-1.07568
0.114356,0.214178,-1.02119,-0.0448971,0.325675,-0.111734,-0.070316,0.119343,-0.739909
0.122439,0.213893,-1.02264,0.0320395,0.461091,-0.0800701,-0.227062,-0.0533749,-0.47064
0.133996,0.214928,-1.02615,0.116379,0.627832,-0.269523,-0.338361,-0.153696,-0.250043
0.149658,0.216886,-1.03488,0.199543,0.73496,-0.560388,-0.402076,-0.202581,-0.0481681
0.167471,0.219391,-1.0501,0.281228,0.706151,-0.865034,-0.401738,-0.206163,0.13866
0.185148,0.222308,-1.07108,0.36947,0.596441,-1.09072,-0.362057,-0.177453,0.288311
0.201044,0.22601,-1.09608,0.462231,0.435268,-1.22118,-0.320941,-0.122436,0.409071
0.213798,0.230791,-1.12311,0.559519,0.228514,-1.24506,-0.269108,-0.0665402,0.497678
0.223042,0.237645,-1.1501,0.691573,0.0846105,-1.16399,-0.197037,-0.0290513,0.544897
0.229396,0.247449,-1.17568,0.819956,-0.0683941,-1.0419,-0.151784,-0.00294723,0.579808
0.23206,0.25942,-1.19952,0.863343,-0.276825,-0.937383,-0.125516,0.00241518,0.597811
0.229259,0.271819,-1.22163,0.842875,-0.603789,-0.859382,-0.0861606,-0.00744095,0.577622
0.219724,0.285025,-1.24231,0.89977,-0.899684,-0.806115,-0.0465537,-0.0145337,0.459837
0.204734,0.299493,-1.26288,0.913012,-1.17662,-0.810312,-0.0478033,0.0099715,0.299148
0.186999,0.314227,-1.28162,0.871855,-1.09895,-0.640623,0.021465,0.0923454,0.0437089
0.171584,0.327206,-1.29614,0.605844,-0.9554,-0.540792,0.0562726,0.099154,-0.172598
0.156892,0.333119,-1.31223,0.254904,-1.05376,-0.960883,-0.00460848,-0.0721469,-0.356711
0.144643,0.332624,-1.34106,0.11013,-1.08735,-1.77059,-0.0656821,-0.216963,-0.596221
0.137773,0.32758,-1.38462,-0.0363835,-0.983439,-2.31464,-0.0546107,-0.132059,-0.706161
0.138019,0.320344,-1.43384,0.0131095,-0.490768,-2.35293,0.0432156,0.0507027,-0.719734
0.150702,0.317643,-1.47998,0.375544,0.334807,-1.98523,0.122621,0.206173,-0.636721
0.176915,0.32349,-1.51732,0.758994,1.07427,-1.41386,0.13593,0.302421,-0.358202
0.210648,0.336488,-1.54445,0.977566,1.34903,-0.884938,0.0840193,0.307454,-0.00329065
0.243089,0.352827,-1.5639,1.00277,1.19333,-0.579152,-0.0139908,0.243333,0.285337
0.268483,0.368476,-1.57979,0.871388,0.770431,-0.496943,-0.0976684,0.163402,0.476635
0.284728,0.380021,-1.59489,0.60306,0.303231,-0.558263,-0.140938,0.0975334,0.580736
0.29129,0.384223,-1.61018,0.180357,-0.232032,-0.691602,-0.141936,0.0356364,0.626424
0.285815,0.377828,-1.62539,-0.404507,-0.922239,-0.846309,-0.123718,-0.0127659,0.616936
0.263924,0.359359,-1.63999,-1.01108,-1.80643,-0.972953,-0.0900012,-0.0345711,0.477515
0.224817,0.329435,-1.65451,-1.53436,-2.57818,-1.08291,-0.0710018,-0.0346764,0.201573
0.175099,0.293345,-1.67115,-1.5928,-2.7511,-1.18835,-0.0348818,-0.0405254,-0.233152
0.13347,0.262815,-1.69098,-1.0847,-1.83441,-1.13062,-0.00408436,0.0204204,-0.67731
0.115239,0.246066,-1.70873,-0.377447,-0.395028,-0.733531,0.0438444,0.155135,-0.820185
0.122628,0.24371,-1.71678,0.196289,0.819491,-0.0588769,0.115714,0.201921,-0.652545
0.14298,0.251743,-1.71306,0.516779,1.21423,0.480932,0.111922,0.162453,-0.290976
0.16397,0.265409,-1.70201,0.647536,1.1141,0.748569,0.0306505,0.0803585,0.0162203
0.178817,0.280997,-1.68857,0.656457,0.703472,0.75049,-0.0775212,0.0175942,0.215647
0.178817,0.280997,-1.68857,0.656457,0.703472,0.75049,-0.0775212,0.0175942,0.215647
0.184531,0.295414,-1.67785,0.568253,0.167938,0.496497,-0.169662,-0.050142,0.330012
0.18107,0.306354,-1.67354,0.417705,-0.385001,0.0952946,-0.202826,-0.111761,0.377046
0.169421,0.311457,-1.6771,0.112655,-0.885241,-0.332983,-0.194908,-0.137371,0.402111
0.151039,0.30777,-1.68736,-0.334487,-1.24154,-0.669587,-0.154809,-0.130523,0.38134
0.128655,0.295035,-1.70209,-0.70815,-1.41232,-0.898687,-0.0994872,-0.0846385,0.261552
0.105111,0.276971,-1.72103,-0.848539,-1.4734,-1.14153,-0.0703552,-0.0646149,0.0608884
0.0813474,0.258549,-1.74585,-0.749784,-1.56568,-1.42029,-0.0320481,-0.074659,-0.168134
0.0569042,0.243855,-1.77623,-0.507918,-1.60025,-1.60745,0.0487368,-0.0547891,-0.380079
0.0340272,0.234864,-1.80916,-0.258142,-1.43545,-1.60987,0.123621,0.00674324,-0.516024
0.0164318,0.230877,-1.84091,-0.0786326,-1.02761,-1.48935,0.141582,0.0978189,-0.557213
0.00807556,0.230239,-1.87016,0.0414774,-0.457395,-1.37468,0.0973622,0.160873,-0.529762
0.0121455,0.232235,-1.898,0.195321,0.246311,-1.35408,0.0352999,0.165288,-0.45749
0.0298428,0.237087,-1.92617,0.335372,0.820104,-1.37562,0.00656459,0.150018,-0.290385
0.0556759,0.243176,-1.95421,0.378035,1.05713,-1.30942,0.00350047,0.141727,-0.0637323
0.0830483,0.248946,-1.9802,0.367914,1.00763,-1.16973,0.00557234,0.147185,0.123639
0.105909,0.253724,-2.00337,0.317984,0.676018,-1.03287,-0.0105146,0.133778,0.249533
0.120383,0.257127,-2.02427,0.247342,0.237427,-0.952664,-0.0234774,0.0953671,0.313321
0.125901,0.258891,-2.04381,0.163731,-0.158716,-0.907452,-0.0381018,0.0754211,0.326043
0.125478,0.259319,-2.06204,0.111183,-0.310191,-0.832607,-0.0654687,0.0809001,0.290341
0.12395,0.259556,-2.07815,0.103313,-0.248605,-0.711023,-0.0796051,0.0973348,0.232099
0.121797,0.25941,-2.09151,0.0282008,-0.360703,-0.579369,-0.0623312,0.0822092,0.226441
0.114783,0.257723,-2.10204,-0.079409,-0.614653,-0.461495,-0.0438537,0.0479395,0.184243
0.102148,0.253827,-2.11062,-0.223606,-0.852491,-0.437702,-0.0930576,0.0356252,0.118553
0.0868735,0.246838,-2.12059,-0.38872,-0.889672,-0.625111,-0.167341,-0.00985697,0.0202017
0.0744315,0.236331,-2.13592,-0.53154,-0.666119,-0.962732,-0.199005,-0.0692842,-0.0850078
0.0717565,0.223684,-2.15807,-0.557847,-0.0706338,-1.25811,-0.171868,-0.0988092,-0.199297
0.0812574,0.211514,-2.18328,-0.454293,0.430476,-1.23798,-0.078291,-0.061498,-0.210616
0.0966068,0.202789,-2.20508,-0.212622,0.62268,-0.946603,0.0287957,-0.0172413,-0.153675
0.111923,0.200141,-2.22063,0.115919,0.579902,-0.611481,0.0651161,-0.0269157,-0.0825509
0.124588,0.204654,-2.23107,0.443339,0.484401,-0.372531,0.0321362,-0.0589485,-0.000854671
0.135388,0.214833,-2.23877,0.637089,0.459348,-0.259425,-0.016867,-0.0890924,0.0950703
0.146359,0.22718,-2.2454,0.649917,0.500298,-0.219051,-0.0424803,-0.107136,0.194602
0.158395,0.238592,-2.25168,0.570609,0.562445,-0.219078,-0.0641234,-0.120293,0.262853
0.171282,0.248072,-2.25803,0.469134,0.552476,-0.23447,-0.0814577,-0.117898,0.297442
0.182725,0.255544,-2.26438,0.377328,0.422602,-0.242034,-0.0931676,-0.109091,0.313952
0.190981,0.26167,-2.27035,0.330485,0.2668,-0.206748,-0.0841324,-0.0946236,0.303469
0.196786,0.267623,-2.27503,0.351086,0.224252,-0.117706,-0.0727288,-0.0742598,0.264042
0.202898,0.275171,-2.27764,0.448355,0.325312,0.0294608,-0.0710638,-0.0400564,0.226786
0.210367,0.285789,-2.27729,0.595002,0.434204,0.226379,-0.0612349,-0.0136789,0.223688
0.218559,0.300122,-2.2735,0.724047,0.473535,0.429875,-0.0498593,0.00346145,0.255283
0.225407,0.317134,-2.26682,0.789488,0.410227,0.555518,-0.0542002,-0.00970414,0.292217
0.229286,0.335508,-2.25822,0.816286,0.233799,0.658864,-0.0497231,-0.00949594,0.317511
0.22835,0.354992,-2.24753,0.868478,0.058085,0.763555,-0.0188664,0.0104859,0.292383
0.225137,0.376131,-2.23525,0.923962,0.0692822,0.817318,0.00907144,0.0144651,0.232991
0.220016,0.396276,-2.22225,0.74768,-0.160784,0.816525,0.049431,-0.00746274,0.208647
0.20574,0.411524,-2.20751,0.444776,-0.759741,0.838725,0.141683,-0.0378296,0.125485
0.174651,0.419869,-2.1908,0.0660726,-1.70065,0.806674,0.206608,-0.0243505,-0.0510208
0.127993,0.420302,-2.17482,-0.203394,-2.18174,0.623287,0.165402,-0.0164936,-0.341344
0.0840884,0.416869,-2.16472,-0.219664,-1.66205,0.233828,0.0820627,-0.0244676,-0.712603
0.0611793,0.412123,-2.16415,-0.29221,-0.601581,-0.198132,0.0332267,-0.0204952,-0.912438
0.0597227,0.403189,-2.1711,-0.584054,0.0831269,-0.460839,0.0798645,0.0109298,-0.840615
0.0688637,0.388951,-2.18131,-0.732718,0.416879,-0.558415,0.128438,0.0517487,-0.740033
0.0841146,0.37457,-2.19275,-0.599371,0.6764,-0.596855,0.153926,0.0679753,-0.669488
0.103315,0.363504,-2.20337,-0.412898,0.852587,-0.461655,0.193265,0.0856687,-0.514297
0.123472,0.356258,-2.20926,-0.253562,0.945553,-0.148247,0.210136,0.112121,-0.303325
0.141714,0.352499,-2.20796,-0.137329,0.923866,0.209054,0.182126,0.101195,-0.083957
0.157327,0.351943,-2.20058,-0.0233846,0.896895,0.444876,0.0954332,0.0559036,0.089755
0.170539,0.353812,-2.19006,0.030324,0.765941,0.541734,-0.0052405,0.0223947,0.250058
0.17968,0.35602,-2.17871,-0.0110094,0.539304,0.534241,-0.0780155,-0.00809735,0.385978
0.18384,0.356714,-2.16812,-0.100795,0.241625,0.451951,-0.11713,-0.0343789,0.480646
0.182337,0.355477,-2.15933,-0.16602,-0.0736457,0.340225,-0.120385,-0.0481721,0.514713
0.176083,0.353176,-2.15212,-0.170873,-0.283141,0.303268,-0.105113,-0.0258708,0.509876
0.166861,0.351694,-2.14475,-0.0828504,-0.372927,0.362389,-0.0876232,0.0259154,0.475022
0.155874,0.352696,-2.13616,0.0597479,-0.436107,0.45042,-0.0791596,0.0576787,0.454716
0.143497,0.357205,-2.12673,0.25458,-0.476263,0.483556,-0.0826168,0.0683152,0.426562
0.130279,0.364883,-2.11795,0.374191,-0.546721,0.4201,-0.0924277,0.0617047,0.428675
0.116309,0.373431,-2.11178,0.396426,-0.624151,0.242845,-0.0888382,0.0294088,0.430711
0.103089,0.381332,-2.11036,0.365507,-0.640676,-0.0372691,-0.083796,0.00985256,0.398645
0.0924865,0.387071,-2.11571,0.244705,-0.613502,-0.406721,-0.0848202,-0.000924557,0.364123
0.0861679,0.389694,-2.12844,0.128123,-0.488391,-0.732017,-0.0615272,0.0118175,0.311196
0.0857121,0.390445,-2.14651,0.117345,-0.20855,-0.900023,-0.0119952,0.0536655,0.224781
0.0929529,0.392113,-2.16654,0.213466,0.140362,-0.919378,0.035777,0.0922863,0.150064
0.104593,0.394641,-2.18617,0.193892,0.228548,-0.856645,0.0677463,0.105226,0.142058
0.114253,0.395183,-2.20422,0.00830714,-0.038428,-0.815225,0.0733859,0.0833566,0.132729
0.113952,0.389792,-2.22224,-0.373715,-0.713289,-0.94215,0.0321684,0.0220549,0.0524885
0.10328,0.375902,-2.24518,-0.769713,-1.11851,-1.39073,-0.0316588,-0.0887754,-0.174481
0.10328,0.375902,-2.24518,-0.769713,-1.11851,-1.39073,-0.0316588,-0.0887754,-0.174481
0.0952089,0.353055,-2.27915,-1.21671,-0.778163,-1.9823,-0.113417,-0.0845471,-0.425975
0.102017,0.319466,-2.32166,-1.7338,0.0756828,-2.28304,-0.0916063,0.00354311,-0.602744
0.123311,0.276694,-2.36299,-2.02813,0.791818,-2.04084,0.0615199,0.118071,-0.720908
0.15073,0.232565,-2.39197,-1.91806,1.15135,-1.28988,0.258622,0.159795,-0.788031
0.174576,0.196159,-2.40282,-1.47283,0.899961,-0.35287,0.336965,0.129672,-0.758298
0.186259,0.173764,-2.39718,-0.840454,0.364815,0.444434,0.312173,0.0201346,-0.684484
0.185682,0.164529,-2.3815,-0.414919,-0.121399,0.842638,0.14713,-0.081482,-0.533575
0.178527,0.160578,-2.36269,-0.368317,-0.229293,0.863583,-0.00374141,-0.209007,-0.347051
0.172918,0.154452,-2.34593,-0.529345,-0.0447927,0.647626,-0.123287,-0.292084,-0.191816
0.172616,0.144904,-2.3334,-0.601881,0.195388,0.420748,-0.162377,-0.31712,-0.0941249
0.176933,0.134941,-2.32465,-0.514476,0.339863,0.280695,-0.151905,-0.299871,-0.022989
0.182982,0.127194,-2.31794,-0.372146,0.334737,0.251041,-0.125546,-0.271541,0.0606588
0.188084,0.122327,-2.31153,-0.227053,0.249855,0.291599,-0.0981472,-0.243381,0.148806
0.191044,0.12047,-2.30442,-0.0903896,0.129828,0.37092,-0.0807653,-0.215545,0.216359
0.191716,0.121632,-2.29604,0.0443056,0.0529816,0.465454,-0.0721621,-0.190038,0.260467
0.191713,0.125688,-2.28636,0.168037,0.0876214,0.559079,-0.0825161,-0.162072,0.287351
0.193322,0.132315,-2.2754,0.271097,0.222521,0.63648,-0.0969505,-0.131666,0.320816
0.197515,0.140917,-2.26337,0.332932,0.350437,0.699587,-0.104002,-0.102729,0.374249
0.203256,0.150895,-2.25041,0.375263,0.404678,0.753366,-0.103755,-0.0789704,0.441415
0.208979,0.161522,-2.23662,0.374747,0.366561,0.80013,-0.103168,-0.0602642,0.507594
0.212325,0.171767,-2.22198,0.31679,0.190735,0.825149,-0.0999969,-0.0444694,0.562417
0.211075,0.18056,-2.20681,0.234083,-0.0432651,0.823533,-0.0824783,-0.0369873,0.568447
0.206362,0.18815,-2.19163,0.218431,-0.111521,0.804049,-0.060659,-0.014115,0.493232
0.203623,0.196619,-2.17643,0.315325,0.195558,0.848746,-0.0429267,0.0397762,0.369315
0.209438,0.206648,-2.15987,0.306645,0.702292,0.957086,-0.0295828,0.119716,0.297684
0.221815,0.215712,-2.14023,0.161139,0.871818,1.12685,0.0024597,0.152519,0.231319
0.23066,0.223381,-2.11645,0.078343,0.447624,1.3134,0.0854708,0.156327,0.0883505
0.223249,0.229321,-2.09007,-0.145465,-0.727947,1.25812,0.149052,0.125739,-0.123665
0.191183,0.22574,-2.06877,-0.647406,-1.81794,0.619713,0.115902,-0.000507459,-0.446586
0.152969,0.210126,-2.06259,-0.95789,-1.73912,-0.290596,0.0237998,-0.0961505,-0.932494
0.126007,0.189314,-2.07334,-0.908165,-1.1042,-0.986429,0.0225521,0.00974847,-1.32466
0.117775,0.171658,-2.09488,-0.586391,-0.0565948,-1.28417,0.0643238,0.181146,-1.44804
0.132042,0.159506,-2.12018,-0.345261,1.01974,-1.32365,0.0718106,0.248796,-1.20426
0.162571,0.149976,-2.14506,-0.247339,1.55572,-1.24716,0.096568,0.176254,-0.725587
0.197397,0.142257,-2.16791,-0.0925235,1.53211,-1.11195,0.0758218,0.0853509,-0.293424
0.227743,0.138033,-2.18784,0.0915458,1.21527,-0.914797,0.0190434,0.0189424,0.0356523
0.250884,0.136881,-2.20464,0.168139,0.886596,-0.737348,-0.0412571,-0.0678761,0.277794
0.268179,0.136419,-2.2179,0.116419,0.690712,-0.532001,-0.0894035,-0.168539,0.440343
0.282259,0.136174,-2.22601,0.103494,0.613661,-0.238806,-0.129112,-0.205601,0.526764
0.293775,0.139276,-2.22858,0.299041,0.481034,0.0821375,-0.184072,-0.188612,0.556639
0.299956,0.149556,-2.22681,0.645991,0.128756,0.377824,-0.245976,-0.155139,0.603987
0.296213,0.168249,-2.22255,1.01378,-0.456006,0.547786,-0.28903,-0.112802,0.651073
0.281155,0.19375,-2.21861,1.29977,-0.956582,0.528577,-0.30891,-0.0625411,0.670817
0.258502,0.222627,-2.21703,1.43412,-1.23996,0.37481,-0.302974,-0.00252025,0.664656
0.234633,0.252946,-2.21914,1.57941,-1.11718,0.162045,-0.253577,0.053938,0.57901
0.219255,0.285629,-2.22573,1.74273,-0.568529,-0.0275704,-0.183452,0.0994029,0.487708
0.216089,0.319276,-2.23387,1.6597,-0.0310212,0.0337743,-0.0343858,0.118429,0.465697
0.218972,0.347758,-2.23826,1.17155,0.0946888,0.154555,0.0918589,0.10373,0.482631
0.221248,0.365409,-2.24017,0.60231,0.100307,-0.0200309,0.089093,0.0084393,0.425509
0.226762,0.369215,-2.24917,-0.0850861,0.0812779,-0.818355,-0.058794,-0.11133,0.290694
0.235519,0.354521,-2.27502,-0.723252,-0.125443,-1.84368,-0.120524,-0.220471,0.138455
0.24506,0.328487,-2.31578,-0.827726,-0.302392,-2.42936,0.0200676,-0.18868,-0.11164
0.250672,0.300878,-2.36162,-0.792835,-0.532134,-2.39755,0.17413,0.0319239,-0.277898
0.250672,0.300878,-2.36162,-0.792835,-0.532134,-2.39755,0.17413,0.0319239,-0.277898
0.252086,0.274375,-2.40048,-0.864148,-0.373363,-1.80471,0.375643,0.153269,-0.365207
0.25452,0.250513,-2.42365,-0.863843,0.0116265,-0.95789,0.465261,0.162055,-0.499848
0.259649,0.233652,-2.43058,-0.541572,0.332065,-0.131058,0.42214,0.156016,-0.665678
0.266713,0.229685,-2.42454,-0.000673628,0.440439,0.555653,0.296719,0.165537,-0.731284
0.269143,0.237687,-2.41059,0.376727,0.0799498,0.921586,0.136819,0.139768,-0.633416
0.261773,0.251975,-2.39364,0.54196,-0.399474,1.00909,0.0210003,0.0384403,-0.529047
0.246117,0.267474,-2.37717,0.536536,-0.688554,0.912341,-0.0764677,-0.0264298,-0.468201
0.229285,0.280898,-2.36298,0.420337,-0.550046,0.717395,-0.172811,-0.0465425,-0.432975
0.219799,0.289524,-2.35337,0.20023,-0.0962053,0.340421,-0.272557,-0.0784112,-0.378322
0.222901,0.291105,-2.35225,-0.066645,0.422484,-0.222815,-0.347105,-0.129951,-0.27674
0.238483,0.285177,-2.36226,-0.275094,0.827327,-0.844248,-0.365222,-0.167083,-0.16264
0.262216,0.273584,-2.38236,-0.338484,0.942289,-1.27002,-0.288033,-0.157245,-0.0400728
0.286281,0.261216,-2.40735,-0.168615,0.783866,-1.3351,-0.171336,-0.0699611,0.0705111
0.305592,0.253813,-2.43149,0.155685,0.537506,-1.08399,-0.0718738,0.0253425,0.175084
0.319164,0.254572,-2.45118,0.487496,0.347468,-0.713518,-0.0403695,0.082642,0.284986
0.328541,0.262244,-2.46608,0.673675,0.211816,-0.443794,-0.0844119,0.0871899,0.405746
0.334366,0.2729,-2.47832,0.693936,0.0404277,-0.352653,-0.128129,0.0485629,0.518548
0.336018,0.282685,-2.49009,0.593512,-0.21688,-0.420625,-0.153237,-0.00419161,0.594624
0.331939,0.288881,-2.50369,0.41838,-0.59147,-0.630334,-0.157909,-0.0506912,0.622073
0.321745,0.29,-2.52067,0.206096,-0.884789,-0.876788,-0.131174,-0.0701725,0.590514
0.308269,0.285649,-2.54062,-0.0294675,-1.03184,-1.07767,-0.120262,-0.0279425,0.511387
0.292901,0.276123,-2.56311,-0.217475,-1.10556,-1.2762,-0.106011,0.0379931,0.360932
0.279737,0.264996,-2.58819,-0.122042,-0.839857,-1.32269,-0.0358899,0.0790291,0.105694
0.273715,0.258905,-2.61303,0.199037,-0.389761,-1.13318,0.0439667,0.122767,-0.145044
0.273018,0.259306,-2.63432,0.353939,-0.383469,-0.839371,0.0859024,0.203584,-0.230991
0.263933,0.262542,-2.6509,0.372493,-0.98493,-0.685613,0.0872628,0.19165,-0.307104
0.241746,0.263288,-2.67009,0.0958926,-1.74596,-1.23782,-0.0870137,0.0786619,-0.489707
0.210611,0.251136,-2.70558,-0.548846,-2.18828,-2.41883,-0.276947,-0.0294954,-0.706612
0.182054,0.222737,-2.7611,-1.15311,-1.84743,-3.35069,-0.304248,0.0466905,-0.999104
0.168443,0.185717,-2.82734,-1.30254,-0.800927,-3.57938,-0.3004,0.370351,-1.26624
0.174757,0.151205,-2.8903,-0.997477,0.352327,-3.03712,-0.186183,0.576746,-1.26464
0.196361,0.128342,-2.93703,-0.373481,1.07533,-1.87342,-0.00309783,0.514678,-1.0109
0.223133,0.122722,-2.96221,0.332497,1.2145,-0.77759,0.0351695,0.317528,-0.655401
0.246391,0.132128,-2.97513,0.832239,0.903543,-0.37137,-0.131077,0.128982,-0.31081
0.260507,0.146797,-2.98908,0.866508,0.289839,-0.681422,-0.28251,-0.0634769,-0.0162703
0.264067,0.155785,-3.01147,0.555824,-0.210855,-1.22649,-0.330251,-0.24226,0.19411
0.262536,0.155162,-3.04228,0.18552,-0.385765,-1.71925,-0.32462,-0.314088,0.284425
0.260294,0.146432,-3.07936,-0.0507925,-0.381084,-2.02015,-0.303087,-0.257122,0.301447
0.258643,0.134407,-3.11914,-0.0621115,-0.338137,-2.07514,-0.222899,-0.177872,0.286159
0.258021,0.124362,3.12452,0.114328,-0.224022,-1.96762,-0.1363,-0.137707,0.265811
0.259662,0.119154,3.08677,0.332476,-0.067425,-1.79649,-0.0699515,-0.114022,0.285048
0.263244,0.118258,3.05173,0.467574,-0.0136532,-1.59186,-0.00519282,-0.114714,0.349218
0.266529,0.120232,3.02059,0.52499,-0.0266503,-1.34226,0.0716768,-0.123618,0.400125
0.268393,0.124058,2.99447,0.520632,-0.120474,-1.06187,0.124978,-0.123361,0.435868
0.266875,0.128852,2.97406,0.479498,-0.298583,-0.774682,0.16985,-0.132109,0.427886
0.260833,0.13441,2.95881,0.431634,-0.504257,-0.560597,0.176783,-0.136487,0.348666
0.250492,0.139868,2.94776,0.379547,-0.649015,-0.359724,0.202538,-0.137825,0.217737
0.239635,0.146224,2.94094,0.408397,-0.487777,-0.149984,0.214541,-0.114459,0.034056
0.231424,0.153315,2.93701,0.311314,-0.539706,-0.124106,0.161694,-0.119761,-0.153356
0.213911,0.155424,2.93107,0.0367513,-1.32245,-0.423778,0.130882,-0.163148,-0.327967
0.184961,0.154241,2.91992,0.108129,-1.61987,-0.66053,0.106757,-0.113078,-0.634393
0.159209,0.156661,2.90498,0.41659,-1.05092,-0.7178,0.0249381,0.0744631,-0.858265
0.152738,0.167635,2.89042,0.899562,0.237568,-0.499121,0.00176722,0.217175,-0.870131
0.171768,0.187914,2.87988,1.22793,1.39609,-0.219865,-0.0233542,0.265988,-0.574816
0.171768,0.187914,2.87988,1.22793,1.39609,-0.219865,-0.0233542,0.265988,-0.574816
0.207606,0.211532,2.87219,1.17721,1.93276,-0.105521,-0.0898292,0.219968,-0.123316
0.246771,0.230744,2.86531,0.822854,1.73788,-0.132711,-0.162498,0.138538,0.248464
0.276017,0.241555,2.85825,0.411781,0.965954,-0.273231,-0.193935,0.0436101,0.440944
0.287379,0.244001,2.8495,0.0787474,-0.0631417,-0.475043,-0.18813,-0.0224202,0.473827
0.278747,0.239831,2.83877,-0.183837,-0.994608,-0.628352,-0.141574,-0.0420789,0.395905
0.256297,0.230185,2.82731,-0.45661,-1.44061,-0.696126,-0.115573,0.00635602,0.252231
0.230136,0.215629,2.81627,-0.682719,-1.34246,-0.692584,-0.0873907,0.0512116,0.0739211
0.209463,0.198613,2.80657,-0.746062,-0.916343,-0.586778,-0.0509687,0.0965103,-0.0985051
0.197444,0.183168,2.79953,-0.599588,-0.41797,-0.394723,0.0126385,0.111329,-0.224934
0.194713,0.172964,2.79586,-0.331703,0.0587216,-0.157835,0.0676116,0.0959004,-0.255704
0.198244,0.168463,2.79612,-0.136149,0.248499,0.0910382,0.0724108,0.0882457,-0.159076
0.20198,0.167843,2.8002,-0.00951782,0.157278,0.278519,0.0451908,0.0507074,-0.027992
0.201304,0.17001,2.8066,0.0858418,-0.139501,0.37574,0.0133385,0.0123015,0.0653055
0.193479,0.173601,2.81392,0.111704,-0.508658,0.390208,-0.0196601,-0.0170435,0.125633
0.179744,0.176952,2.82046,0.0931263,-0.719268,0.287178,-0.0530766,-0.0520732,0.125462
0.164664,0.179273,2.82415,0.0822075,-0.695469,0.102979,-0.0804374,-0.0737765,0.0810002
0.152308,0.181164,2.82408,0.110771,-0.54881,-0.0720279,-0.0833646,-0.0625465,0.0222811
0.14258,0.183514,2.82093,0.174266,-0.501518,-0.191264,-0.0665908,-0.0349678,0.00300163
0.133032,0.187359,2.81566,0.285643,-0.572095,-0.261607,-0.0255976,-0.0191647,-0.00150794
0.122165,0.193612,2.80888,0.423397,-0.633579,-0.324855,-0.00499118,-0.00200771,-0.00756532
0.111417,0.202282,2.80021,0.531836,-0.600267,-0.428641,-0.0130792,0.015938,-0.00655055
0.102762,0.212727,2.78917,0.625116,-0.488891,-0.542816,-0.0304451,0.0386557,0.00837421
0.0972281,0.225005,2.77564,0.737172,-0.352558,-0.647117,-0.0287405,0.0684181,0.0478563
0.0956348,0.239552,2.76024,0.853495,-0.15357,-0.700999,-0.00755727,0.0992368,0.119837
0.0988282,0.255858,2.74401,0.918151,0.0732067,-0.702078,0.012531,0.123467,0.227954
0.106108,0.272843,2.72816,0.927763,0.221266,-0.653624,0.0318593,0.134033,0.352689
0.115014,0.289528,2.71304,0.890725,0.224733,-0.611704,0.0463726,0.127449,0.463216
0.122111,0.305237,2.69866,0.829856,0.0383704,-0.574616,0.0718261,0.10188,0.53992
0.124324,0.319625,2.68495,0.757573,-0.246248,-0.55431,0.0957012,0.0825824,0.567865
0.120836,0.332251,2.67152,0.646992,-0.522742,-0.569123,0.0984985,0.0804744,0.552721
0.1135,0.342536,2.65746,0.542405,-0.650561,-0.64753,0.0718202,0.0856785,0.462777
0.106118,0.351218,2.64136,0.488746,-0.611884,-0.766047,0.0654185,0.0816668,0.332217
0.102656,0.358521,2.62357,0.40104,-0.324238,-0.799659,0.069247,0.0922838,0.197432
0.106239,0.363042,2.60617,0.198988,0.0689008,-0.776193,0.0763793,0.0841541,0.0763551
0.11604,0.362307,2.58949,-0.121645,0.21027,-0.810184,0.015653,0.055986,-0.0541782
0.121845,0.353849,2.57112,-0.501091,-0.32049,-1.03917,-0.059753,-0.0310068,-0.229339
0.119556,0.338576,2.54707,-0.722001,-0.668261,-1.40727,-0.117231,-0.124689,-0.514554
0.115628,0.319217,2.51576,-0.855091,-0.69241,-1.75069,-0.181884,-0.0877122,-0.772221
0.114661,0.296803,2.48035,-0.998235,-0.450514,-1.81181,-0.185793,0.0537105,-0.896179
0.119448,0.272218,2.44814,-1.06268,0.0746431,-1.49434,-0.126632,0.174737,-0.904373
0.133631,0.249402,2.4262,-0.916651,0.770633,-0.863459,-0.0229105,0.183699,-0.837904
0.155197,0.232489,2.41815,-0.648177,1.11455,-0.172393,0.0255488,0.122444,-0.63502
0.17543,0.222455,2.42191,-0.43072,0.927044,0.326595,-0.0203439,0.0124342,-0.364425
0.186988,0.216315,2.4325,-0.384567,0.434473,0.536824,-0.113392,-0.108122,-0.134233
0.187667,0.210706,2.44437,-0.387156,-0.0845725,0.463902,-0.212501,-0.199099,-0.00458759
0.180873,0.204681,2.45273,-0.349748,-0.388715,0.217421,-0.26619,-0.255989,0.0512882
0.171679,0.198727,2.45566,-0.290312,-0.43963,-0.0179255,-0.267313,-0.244305,0.0794786
0.163842,0.193486,2.45482,-0.20934,-0.346473,-0.137612,-0.229448,-0.191096,0.118634
0.159328,0.189962,2.45198,-0.0920139,-0.161052,-0.192764,-0.19233,-0.157492,0.154495
0.158423,0.188427,2.44779,-0.00280309,-0.0213565,-0.249001,-0.166581,-0.130771,0.215055
0.159446,0.187884,2.44168,0.0411988,-0.00789919,-0.362074,-0.150637,-0.131701,0.274017
0.160216,0.187689,2.43307,0.0571199,-0.094369,-0.476139,-0.118186,-0.118343,0.318885
0.158195,0.186342,2.42255,-0.0330509,-0.305398,-0.553783,-0.080941,-0.0791693,0.346623
0.152649,0.183671,2.41185,-0.0474658,-0.422082,-0.508433,-0.01217,-0.050087,0.267829
0.152649,0.183671,2.41185,-0.0474658,-0.422082,-0.508433,-0.01217,-0.050087,0.267829
0.145061,0.181992,2.40306,0.00879052,-0.50634,-0.367006,0.0263982,0.0118756,0.17477
0.135524,0.182426,2.39701,0.131077,-0.509232,-0.222891,0.0363676,0.0438577,0.0850003
0.128948,0.186401,2.3929,0.291042,-0.202595,-0.14403,0.026972,0.025579,-0.011336
0.128505,0.192107,2.38909,0.289294,0.071657,-0.176094,-0.000214398,0.00158113,-0.0108036
0.131686,0.195691,2.38385,0.103051,0.0982515,-0.298869,-0.034531,-0.0268236,0.0347682
0.132973,0.194224,2.37694,-0.155,-0.0997553,-0.380587,-0.045158,-0.0206176,0.037584
0.131311,0.189643,2.37012,-0.161142,-0.126155,-0.314042,-0.0257271,0.0102243,-0.0526891
0.132474,0.18881,2.36623,0.145187,0.208864,-0.0561576,-0.00751628,0.06446,-0.128062
0.140857,0.195143,2.36808,0.440179,0.682487,0.339885,-0.00126721,0.11598,-0.0470217
0.157005,0.207174,2.37786,0.580847,1.11304,0.773944,-0.0131701,0.116416,0.143291
0.178,0.221719,2.39485,0.550846,1.32082,1.0961,-0.0530681,0.0790837,0.349542
0.198205,0.235883,2.41769,0.411247,1.16596,1.34608,-0.081197,0.0268233,0.505991
0.209836,0.248102,2.4448,0.26378,0.58836,1.46939,-0.105776,-0.0302225,0.581448
0.206278,0.259379,2.47384,0.294756,-0.195053,1.52069,-0.125793,-0.0621996,0.541869
0.188654,0.273102,2.50369,0.489199,-0.74022,1.58464,-0.139587,-0.0356391,0.41468
0.162344,0.289691,2.53472,0.604895,-0.984997,1.64981,-0.118978,-0.0139048,0.297569
0.13302,0.306674,2.56681,0.596634,-1.00667,1.62508,-0.084448,-0.0417079,0.171026
0.101977,0.31933,2.59762,0.258751,-1.21987,1.41035,-0.103276,-0.0735202,0.0165806
0.0647801,0.321536,2.62279,-0.212424,-1.69419,0.966042,-0.0777746,-0.156891,-0.185746
0.0245439,0.31582,2.63779,-0.374776,-1.79205,0.443322,-0.0552796,-0.192441,-0.510758
-0.00837294,0.309477,2.6431,-0.224598,-1.23655,0.0982714,-0.0531669,-0.0925955,-0.840936
-0.0236909,0.307803,2.64359,0.0459726,-0.281423,-0.0233821,-0.0102921,0.0047788,-1.00666
-0.0223855,0.30955,2.64241,0.0664598,0.259262,-0.100895,0.0616792,0.00740409,-0.910118
-0.0164292,0.309283,2.6394,-0.0939348,0.211427,-0.183962,0.10093,-0.0242682,-0.704437
-0.0112174,0.307024,2.63476,-0.107238,0.202514,-0.252298,0.102947,-0.0263747,-0.618921
-0.0034894,0.306319,2.62912,0.0368029,0.429475,-0.275476,0.110962,-0.0125515,-0.551622
0.00942859,0.308042,2.62364,0.120862,0.697608,-0.239092,0.102435,0.0155192,-0.379267
0.0270014,0.31051,2.6194,0.120707,0.914923,-0.160651,0.0893747,0.0267814,-0.160794
0.0469766,0.312422,2.61674,0.0719488,0.981823,-0.0873228,0.0710824,0.0132816,0.0435598
0.0665741,0.313126,2.61542,0.00526039,0.914428,-0.0341271,0.0446505,-0.0136063,0.209125
0.0829587,0.312507,2.61515,-0.0683575,0.703366,0.0055507,0.0222699,-0.0370374,0.32105
0.0941936,0.310483,2.61576,-0.137153,0.435251,0.0350399,0.00928918,-0.0553216,0.39166
0.0992768,0.307272,2.61703,-0.186098,0.109376,0.057018,0.00242182,-0.0642546,0.422086
0.098089,0.303678,2.61908,-0.185072,-0.157637,0.11031,0.0110109,-0.0534465,0.410243
0.0915111,0.30022,2.62254,-0.198599,-0.404542,0.17987,0.00379904,-0.013718,0.395244
0.0797383,0.297042,2.62717,-0.131597,-0.608992,0.231454,0.0085971,-0.0037246,0.330533
0.0654662,0.296424,2.6322,0.026649,-0.678808,0.235347,0.00135276,0.00819722,0.236229
0.0497243,0.298191,2.63647,0.112585,-0.768798,0.177388,-0.000574276,0.0211782,0.204017
0.0336077,0.30118,2.63911,0.170191,-0.744902,0.0837194,0.00973545,0.0284893,0.14973
0.01911,0.304979,2.63956,0.199961,-0.69488,-0.0339488,0.00934564,0.0628158,0.108602
0.0068024,0.309331,2.63731,0.23876,-0.572459,-0.175698,0.0187738,0.0798122,0.0766609
-0.000547292,0.314833,2.63204,0.306158,-0.314508,-0.327383,0.0164201,0.105831,0.0496332
-0.00166725,0.321423,2.62373,0.336906,-0.0646861,-0.467811,0.027888,0.124205,0.0830324
0.0020592,0.327634,2.61248,0.264915,0.0499536,-0.601739,0.0467106,0.125179,0.161847
0.00720986,0.331611,2.59854,0.137332,0.00179497,-0.716117,0.0642279,0.118917,0.241347
0.0114496,0.332907,2.58255,0.00780402,-0.101702,-0.796462,0.0847298,0.112146,0.279446
0.0145087,0.331567,2.56502,-0.122511,-0.148981,-0.862087,0.0855252,0.107675,0.288513
0.0175201,0.327365,2.54673,-0.270402,-0.140789,-0.865722,0.0953954,0.100846,0.303239
0.0201714,0.320174,2.52942,-0.418754,-0.151589,-0.781401,0.116918,0.0941816,0.331327
0.0214738,0.30982,2.51448,-0.590281,-0.16767,-0.664427,0.12959,0.0715039,0.347936
0.0231802,0.296756,2.50188,-0.674365,-0.0102857,-0.575971,0.128149,0.00311258,0.270166
0.0283872,0.282827,2.49061,-0.704768,0.200615,-0.551905,0.112057,-0.0719413,0.16606
0.0364989,0.267508,2.47967,-0.798589,0.286107,-0.565315,0.0666748,-0.133025,0.0773157
0.0445495,0.250583,2.46797,-0.851643,0.187382,-0.652801,0.0295643,-0.210085,-0.0733461
0.0445495,0.250583,2.46797,-0.851643,0.187382,-0.652801,0.0295643,-0.210085,-0.0733461
0.0486799,0.232474,2.45427,-0.898997,-0.101725,-0.745864,0.047436,-0.249717,-0.237907
0.0480665,0.213783,2.44055,-0.889779,-0.239394,-0.646178,0.115552,-0.222123,-0.429945
0.0455837,0.197157,2.43129,-0.708439,-0.172381,-0.299518,0.183708,-0.144755,-0.619985
0.043281,0.18615,2.43092,-0.371566,-0.059956,0.227923,0.239356,-0.0799688,-0.717796
0.0412314,0.182713,2.44102,-0.051403,0.0105829,0.72626,0.219079,-0.0678445,-0.725565
0.0366866,0.183278,2.45882,-0.00910557,-0.181837,0.986388,0.106072,-0.100964,-0.615356
0.0265966,0.182933,2.47931,-0.0891664,-0.449549,1.00181,-0.0494651,-0.133637,-0.534139
0.0128238,0.181801,2.49824,-0.033442,-0.54307,0.844137,-0.175164,-0.153519,-0.529669
0.00161929,0.183342,2.51306,0.197845,-0.241133,0.62548,-0.221624,-0.159145,-0.518745
0.000624935,0.190016,2.524,0.454515,0.358669,0.464016,-0.20676,-0.135863,-0.392709
0.0117249,0.200293,2.53222,0.545154,0.890825,0.359291,-0.180237,-0.101688,-0.133951
0.0313224,0.210998,2.53882,0.504269,1.16068,0.321556,-0.152388,-0.0759946,0.14023
0.0535588,0.220876,2.54504,0.464107,1.17782,0.330577,-0.135851,-0.0514081,0.35451
0.0744093,0.230469,2.55106,0.461258,1.03323,0.309432,-0.139407,-0.0398614,0.506968
0.0918763,0.240176,2.55595,0.462588,0.8367,0.243082,-0.137972,-0.0334737,0.614218
0.105952,0.249568,2.55915,0.434917,0.662424,0.160247,-0.119552,-0.0263756,0.692192
0.117408,0.257622,2.56095,0.331373,0.53672,0.114142,-0.0896525,-0.00948521,0.746505
0.126966,0.262617,2.56303,0.128206,0.493968,0.161238,-0.0319515,0.0115157,0.777155
0.136347,0.263906,2.56769,-0.0485181,0.586312,0.313443,0.0346897,0.0262035,0.749784
0.146175,0.263285,2.57651,-0.11609,0.585322,0.530802,0.0957991,0.0395202,0.683362
0.152454,0.263236,2.59006,-0.074055,0.369014,0.759918,0.12714,0.0478805,0.587655
0.151836,0.265333,2.60718,0.048104,-0.0133548,0.88936,0.131628,0.0259479,0.463196
0.14316,0.270601,2.6252,0.2121,-0.325028,0.891997,0.144518,-0.00223589,0.287661
0.132471,0.278097,2.64206,0.285369,-0.221437,0.820836,0.134282,-0.00441936,0.108398
0.127203,0.285297,2.6579,0.21315,0.130689,0.796874,0.160662,0.00357944,-0.0187556
0.127324,0.289887,2.67407,0.0433138,0.315876,0.798666,0.170569,0.0127572,-0.0979275
0.129376,0.291024,2.68979,-0.122632,0.314951,0.691896,0.118658,-0.00943816,-0.205573
0.129682,0.288514,2.70234,-0.282755,-0.00394899,0.449373,0.0785252,-0.087283,-0.351079
0.121053,0.282759,2.70985,-0.349616,-0.66772,0.205988,0.0637103,-0.116243,-0.557465
0.101548,0.276843,2.71274,-0.274232,-1.13953,0.0178023,0.0348414,-0.0511731,-0.805255
0.0777138,0.271903,2.71219,-0.217848,-1.19176,-0.109752,-0.00814826,0.0283,-0.97858
0.0586379,0.268103,2.70873,-0.142848,-0.73104,-0.263016,-0.0837323,0.0799809,-1.05638
0.0542927,0.265468,2.70154,-0.100432,0.145372,-0.435694,-0.129544,0.105348,-0.959822
0.0687502,0.262334,2.69202,-0.178743,1.01554,-0.480601,-0.112824,0.113065,-0.668437
0.0955718,0.25629,2.68313,-0.36045,1.33841,-0.415058,-0.0888915,0.097732,-0.28044
0.121953,0.246871,2.67658,-0.498088,1.0833,-0.330723,-0.0870482,0.0563373,0.0376599
0.13942,0.236078,2.67149,-0.491364,0.513756,-0.31433,-0.101773,-0.0160024,0.23825
0.144487,0.226193,2.66595,-0.415586,-0.124785,-0.376117,-0.127226,-0.0686386,0.358415
0.13823,0.217109,2.65838,-0.397286,-0.647142,-0.488539,-0.120777,-0.10074,0.427888
0.123597,0.207646,2.64851,-0.415012,-1.00569,-0.585951,-0.101439,-0.108464,0.454895
0.104086,0.198299,2.63758,-0.382732,-1.12777,-0.566886,-0.0642343,-0.0830735,0.45082
0.084549,0.191127,2.628,-0.225004,-0.980695,-0.426957,-0.0280857,-0.0492766,0.439465
0.0694745,0.188821,2.62121,0.0552095,-0.637025,-0.267459,-0.0318079,-0.0256627,0.439177
0.0617429,0.193064,2.6163,0.395213,-0.247779,-0.202335,-0.0764569,-0.0226565,0.484052
0.0606134,0.203481,2.61115,0.656301,0.00922889,-0.255034,-0.127182,-0.0326619,0.564347
0.062903,0.217422,2.60393,0.756629,0.0200487,-0.371907,-0.131175,-0.053437,0.64904
0.0631893,0.231589,2.59417,0.706647,-0.257254,-0.485201,-0.0869131,-0.0464915,0.696061
0.0564819,0.244486,2.58279,0.664075,-0.646153,-0.527495,-0.0557802,-0.0204701,0.634334
0.0468761,0.25759,2.5717,0.708065,-0.486145,-0.469497,-0.062479,-0.00335136,0.468889
0.0469241,0.271569,2.5625,0.702482,0.332866,-0.36191,-0.0485447,-0.0403655,0.300746
0.0645051,0.283161,2.55469,0.46143,1.13274,-0.34464,-0.011936,-0.109829,0.193425
0.0907331,0.288054,2.5464,0.0956643,1.11428,-0.426259,0.0589529,-0.210908,0.17362
0.110188,0.285687,2.53573,-0.245452,0.48106,-0.682801,-0.0359127,-0.233518,0.113943
0.115584,0.273479,2.51738,-0.78413,-0.485021,-1.2191,-0.190249,-0.225508,-0.0298238
0.115584,0.273479,2.51738,-0.78413,-0.485021,-1.2191,-0.190249,-0.225508,-0.0298238
0.105159,0.252135,2.49045,-0.936442,-1.11762,-1.57327,-0.108391,-0.267954,-0.342372
0.092694,0.23434,2.45802,-0.480684,-0.793703,-1.71095,-0.0698136,-0.200432,-0.724074
0.0911111,0.227158,2.42477,0.0248087,-0.13112,-1.52773,-0.0860385,-0.0337935,-0.804786
0.100345,0.22825,2.39816,0.301668,0.435593,-1.02439,-0.0394425,0.0199742,-0.713377
0.116632,0.234433,2.38208,0.47036,0.746979,-0.491768,0.029699,-0.032784,-0.583492
0.131181,0.243737,2.3743,0.519736,0.43742,-0.174037,0.0271135,-0.0511339,-0.454628
0.134361,0.253438,2.37163,0.4753,-0.160101,0.0274593,-0.0308315,-0.0378563,-0.413395
0.128939,0.263395,2.3714,0.519298,-0.299246,0.0338433,-0.177599,-0.0597698,-0.49189
0.125349,0.274523,2.36829,0.608394,-0.136558,-0.230222,-0.284417,-0.115479,-0.548034
0.125606,0.285236,2.35796,0.541846,-0.193276,-0.629723,-0.297308,-0.165592,-0.488532
0.122712,0.290875,2.33914,0.201732,-0.700216,-1.12198,-0.269698,-0.188536,-0.386109
0.110493,0.287461,2.31015,-0.18615,-1.28936,-1.67531,-0.263795,-0.165013,-0.386496
0.0946624,0.278336,2.27147,-0.300388,-1.29206,-2.09216,-0.234575,-0.0727324,-0.512136
0.0847552,0.269259,2.22688,-0.203812,-0.871909,-2.22848,-0.170684,0.068034,-0.542681
0.083802,0.263382,2.18276,-0.0119065,-0.396175,-2.02131,-0.0709602,0.186602,-0.422792
0.0901503,0.262788,2.14532,0.264602,0.0283817,-1.57684,0.0146098,0.226449,-0.243498
0.101022,0.267698,2.11706,0.467061,0.307991,-1.10962,0.0269334,0.215928,-0.0576701
0.115039,0.276328,2.09708,0.594453,0.55283,-0.731882,-0.00821186,0.171155,0.109483
0.132198,0.287967,2.0833,0.738719,0.7852,-0.46069,-0.0665402,0.145881,0.224947
0.152694,0.304988,2.07241,1.31342,0.88893,-0.404858,-0.125291,0.150349,0.324405
0.167965,0.331947,2.05771,1.43146,0.164279,-0.544672,-0.12413,0.0950342,0.408728
0.173763,0.353727,2.03983,0.956893,-0.214609,-0.726076,-0.158081,0.063498,0.555889
0.171178,0.364592,2.02115,0.489274,-0.6484,-0.793787,-0.164014,0.115113,0.52529
0.164007,0.37181,2.00248,0.58648,-0.712676,-0.820017,-0.149035,0.148855,0.289805
0.156746,0.383827,1.98227,0.904013,-0.785173,-0.829978,-0.139421,0.22344,0.0877153
