rotationRate_x,rotationRate_y,rotationRate_z,acceleration_x,acceleration_y,acceleration_z,relativeAltitude
-0.831679,-0.680355,0.137432,0.154951,-0.0530835,-0.165416,0
-0.789229,0.15068,-0.0679351,0.0807309,-0.0705483,0.0686837,0
-0.50773,0.690316,-0.164428,0.0881916,-0.0704886,0.0997345,0
-0.0216813,0.527816,-0.0875106,0.130937,-0.100059,-0.0419392,0
0.447653,0.0731687,0.0515781,0.149356,-0.0858604,-0.0701036,0
0.68681,-0.320777,0.153551,0.122013,-0.0672917,0.0232193,0
0.676144,-0.365897,0.137111,0.0692111,-0.0295813,0.179317,0
0.509055,-0.217834,0.0179341,0.0292677,0.00973704,0.310896,0
0.30511,-0.0385498,-0.125187,0.00577337,0.0230043,0.381185,0
0.110544,0.188966,-0.188633,0.0139991,0.0163847,0.394064,0
-0.0301255,0.25177,-0.17255,0.0235884,-0.00689918,0.331842,0
-0.110982,0.206795,-0.109739,0.0465771,-0.00531073,0.246027,0
-0.167447,0.109804,-0.100788,0.0569799,0.00672165,0.158721,0
-0.152215,0.0181467,-0.198766,0.0432834,0.0333633,0.133139,0
-0.0410281,-0.18689,-0.297174,0.0407906,0.043823,0.108634,0
0.145869,-0.375161,-0.357915,0.0576082,0.0472375,0.173652,0
0.315196,-0.421051,-0.411503,0.0577764,0.0363024,0.286997,0
0.423015,-0.388887,-0.496781,0.058129,0.0294974,0.406334,0
0.430352,-0.291151,-0.560539,0.0550838,0.022081,0.491739,0
0.361058,0.00663216,-0.573276,0.0542283,0.00526264,0.516949,0
0.316523,0.29126,-0.611807,0.0222499,0.00524093,0.456088,0
0.301012,0.302822,-0.585021,0.0716064,0.02031,0.298531,0
0.305399,0.0142688,-0.453963,0.0709369,-0.0076292,0.0786937,0
0.205306,-0.324305,-0.311318,0.0460679,0.00590008,-0.102107,0
-0.134358,-0.398434,-0.205399,0.0180825,0.0458841,-0.216658,0
-0.533752,0.168565,-0.10887,-0.0109838,0.0303451,-0.303732,0
-0.682271,0.63532,0.0307153,-0.0801546,-0.0188317,-0.508404,0
-0.642253,0.603846,0.135282,-0.0765932,0.0291785,-0.758358,0
-0.582023,0.442655,0.0734373,-0.0585437,0.0781465,-0.903073,0
-0.480455,0.272084,0.0350523,-0.03964,0.0752343,-0.912971,0
-0.398111,0.016338,0.176343,-0.00321417,0.0175805,-0.852275,0
-0.347913,-0.23203,0.309699,-0.0132816,-0.0240346,-0.707953,0
-0.279567,-0.420572,0.316366,-0.0326457,-0.0159695,-0.50161,0
-0.223563,-0.374958,0.272403,-0.0296498,-0.00172499,-0.269722,0
-0.163708,-0.154617,0.21659,-0.0244316,-0.0206138,-0.0639962,0
-0.110506,0.0916381,0.19032,-0.0212682,-0.0463167,0.0872668,0
-0.0786424,0.21294,0.189531,-0.0140318,-0.0619074,0.183817,0
-0.109707,0.151424,0.196487,-0.0083494,-0.0693994,0.23618,0
-0.192313,-0.0517982,0.2073,0.00577038,-0.0727863,0.268595,0
-0.230855,-0.237457,0.21562,0.00983,-0.0839069,0.307977,0
-0.19835,-0.296886,0.195646,-0.0111539,-0.0869887,0.350357,0
-0.107231,-0.205041,0.120116,-0.0327097,-0.0798445,0.401033,0
0.054478,-0.00128177,0.062344,-0.0496651,-0.0718286,0.454351,0
0.234091,0.201847,0.0778562,-0.0598373,-0.0810726,0.469468,0
0.388219,0.34395,0.114616,-0.0746317,-0.086015,0.451434,0
0.509498,0.34259,0.171393,-0.0652036,-0.0696173,0.391055,0
0.631179,0.0977633,0.237246,-0.0550823,-0.0536384,0.309122,0
0.703271,-0.120341,0.293264,-0.0534558,-0.0275127,0.301256,0
0.680826,-0.221741,0.327855,-0.0524844,-0.00222182,0.339838,0
0.564261,-0.284539,0.369312,-0.05542,0.00614046,0.370988,0
0.40983,-0.082562,0.446211,-0.0605995,0.00860099,0.384891,0
0.271222,0.297902,0.562842,-0.0468283,0.00928499,0.329986,0
0.231903,0.390312,0.659726,-0.031248,0.0301737,0.1411,0
0.231903,0.390312,0.659726,-0.031248,0.0301737,0.1411,0
0.229131,0.096845,0.678876,-0.0499033,0.0847987,-0.150718,0
0.122764,-0.272541,0.615977,-0.0648088,0.128069,-0.344594,0
-0.133278,-0.465493,0.490312,-0.0788602,0.096397,-0.460293,0
-0.473598,-0.272265,0.471177,-0.0755087,0.0377842,-0.53351,0
-0.679871,0.0593633,0.59425,-0.0514629,-0.032102,-0.638161,0
-0.713966,0.109357,0.691983,-0.0237866,-0.033655,-0.771497,0
-0.682489,-0.0531031,0.524716,-0.0277537,0.0544014,-0.805912,0
-0.57267,-0.255328,0.163904,-0.0197453,0.120251,-0.699364,0
-0.371165,-0.376523,-0.197582,-0.000656664,0.0933535,-0.517198,0
-0.0920632,-0.382658,-0.372933,0.0220494,-0.00286567,-0.289262,0
0.156376,-0.355451,-0.424312,0.0425408,-0.0712447,-0.0748726,0
0.220279,-0.155243,-0.495743,0.0548274,-0.0830342,0.142347,0
0.157307,0.225363,-0.609953,0.0435257,-0.0848411,0.317886,0
0.108923,0.376854,-0.64989,0.04043,-0.109497,0.354885,0
0.12393,0.285371,-0.561874,0.0700911,-0.129021,0.315898,0
0.192239,0.092395,-0.477346,0.0734016,-0.125086,0.289459,0
0.328148,-0.08723,-0.490275,0.0372951,-0.0885811,0.273142,0
0.517361,-0.218238,-0.568883,0.0120357,-0.0455562,0.274753,0
0.707873,-0.302225,-0.664277,0.00514734,-0.00533688,0.320214,0
0.787887,-0.386743,-0.704013,0.0052283,0.00826415,0.382427,0
0.698681,-0.434374,-0.684164,0.0199837,0.0141123,0.44796,0
0.465793,-0.243816,-0.67785,0.0266225,0.029875,0.528483,0
0.175862,0.0200917,-0.71183,0.00917198,0.0465883,0.532885,0
0.0179034,0.210985,-0.802278,0.0175486,0.0857269,0.406836,0
-0.0213119,0.408797,-0.840739,0.0621469,0.127131,0.20654,0
0.0554117,0.59411,-0.81411,0.0850061,0.128508,-0.0424602,0
0.147036,0.597238,-0.672788,0.0858536,0.101031,-0.326267,0
0.0910772,0.436337,-0.48846,0.0620365,0.0556087,-0.502467,0
-0.157332,0.18362,-0.334667,0.0243436,0.0202543,-0.578871,0
-0.439203,0.105033,-0.218657,0.0218154,0.0130759,-0.60164,0
-0.517607,0.353912,-0.0638511,0.0431558,-0.0116969,-0.600913,0
-0.435964,0.476957,0.191696,0.0410569,-0.0552481,-0.648846,0
-0.412602,0.270494,0.422895,0.0143034,-0.0646521,-0.671679,0
-0.481396,-0.0769829,0.492961,-0.0234333,-0.0217124,-0.609927,0
-0.49618,-0.279753,0.438367,-0.0644291,0.0121911,-0.465173,0
-0.417262,-0.264665,0.361576,-0.0903528,0.00853652,-0.282375,0
-0.319222,-0.0418572,0.296136,-0.0976296,-0.0205096,-0.0884578,0
-0.229936,0.190454,0.270947,-0.0885061,-0.0465968,0.0667351,0
-0.143659,0.345957,0.224713,-0.0949008,-0.0485114,0.177915,0
-0.0768654,0.313051,0.14998,-0.101674,-0.0321542,0.251531,0
-0.106592,0.148757,0.0838775,-0.0858396,-0.0141433,0.324926,0
-0.154594,0.0451541,0.0320833,-0.073676,-0.00920463,0.401931,0
-0.0403996,-0.0426995,0.0134517,-0.0608628,-0.0201493,0.434814,0
0.213452,-0.0662533,0.0198433,-0.0619915,-0.0221107,0.455094,0
0.482643,-0.0807858,0.00704243,-0.0905503,-0.0128924,0.489196,0
0.647185,-0.0396213,-0.000970813,-0.096106,0.00516711,0.529893,0
0.642284,0.068937,0.0335895,-0.117097,0.00292705,0.579511,0
0.463547,0.208474,0.159749,-0.126253,-0.0103812,0.59416,0
0.242706,0.339124,0.377097,-0.117439,-0.016202,0.534179,0
0.0951825,0.250705,0.610842,-0.122981,-0.00337628,0.37533,0
0.0313182,0.145809,0.795872,-0.131842,0.0365693,0.195673,0
0.0313182,0.145809,0.795872,-0.131842,0.0365693,0.195673,0
0.105243,-0.0608226,0.900259,-0.123141,0.0830783,-0.0123627,0
0.225306,-0.534972,0.855881,-0.150032,0.147088,-0.220222,0
0.102081,-1.05257,0.617586,-0.179569,0.221963,-0.294313,0
-0.342893,-1.17772,0.265929,-0.204469,0.188588,-0.292876,0
-0.83827,-0.541094,0.128195,-0.115879,0.0706693,-0.286155,0
-1.08303,0.207609,0.28452,-0.00574916,-0.0466958,-0.442127,0
-1.06129,0.329119,0.460979,0.035508,-0.0853811,-0.726464,0
-0.958747,-0.177679,0.430141,0.0673018,0.00385097,-0.910788,0
-0.799886,-0.882219,0.0123437,0.032634,0.0989122,-0.898459,0
-0.568451,-1.10969,-0.617377,-0.0341712,0.110027,-0.667862,0
-0.280002,-0.809084,-1.06365,-0.0195179,0.0146504,-0.365966,0
-0.0217965,-0.207164,-1.1888,0.0525378,-0.111078,-0.121709,0
0.124822,0.263211,-1.1403,0.0902945,-0.192457,0.0427082,0
0.15384,0.340426,-1.06132,0.134453,-0.188428,0.115135,0
0.150158,0.108037,-0.988462,0.166725,-0.155659,0.184488,0
0.139532,-0.206694,-0.944211,0.156393,-0.126717,0.283272,0
0.142255,-0.44015,-0.970969,0.124737,-0.0912602,0.394628,0
0.182587,-0.538676,-1.02526,0.103179,-0.0660409,0.483285,0
0.249268,-0.395932,-1.0413,0.102743,-0.0624001,0.553645,0
0.263849,-0.0363697,-1.01503,0.0995771,-0.0624936,0.612536,0
0.197047,0.332353,-0.95961,0.0696403,-0.074541,0.620623,0
0.124125,0.440764,-0.912019,0.0463249,-0.0676101,0.53793,0
0.125938,0.399374,-0.911868,0.0284078,-0.0377361,0.401341,0
0.138461,0.529182,-0.945905,0.0158585,0.00171529,0.29082,0
0.210164,0.757024,-0.919104,-0.000302561,-0.013716,0.145456,0
0.315727,0.641065,-0.806247,-0.0383648,-0.0435041,-0.072674,0
0.241998,0.458312,-0.733725,-0.0921503,-0.015499,-0.228392,0
0.00582193,0.308706,-0.779252,-0.137797,0.0443971,-0.348831,0
-0.189791,0.384468,-0.748575,-0.149382,0.0544635,-0.442979,0
-0.165075,0.415161,-0.66644,-0.158343,0.0377744,-0.572835,0
-0.0348315,0.239902,-0.603937,-0.162227,0.050896,-0.68635,0
-0.0470973,-0.0106597,-0.577582,-0.136169,0.0648998,-0.662742,0
-0.178388,-0.199695,-0.570446,-0.131404,0.0306269,-0.556979,0
-0.344159,-0.244074,-0.469083,-0.0868155,-0.0271296,-0.404335,0
-0.498539,-0.21082,-0.286696,-0.0536657,-0.108743,-0.264585,0
-0.628927,-0.192851,-0.0672686,-0.0352013,-0.162005,-0.137438,0
-0.700572,-0.264627,0.0625793,-0.042327,-0.172685,-0.0248843,0
-0.656208,-0.363625,0.0707788,-0.0588992,-0.144844,0.0805251,0
-0.4989,-0.4296,-0.0540728,-0.0685565,-0.108471,0.192124,0
-0.275647,-0.465283,-0.255125,-0.0623764,-0.0766929,0.295358,0
-0.0436454,-0.416808,-0.438342,-0.0708103,-0.0826812,0.403409,0
0.143358,-0.277884,-0.596988,-0.0839602,-0.0964751,0.504343,0
0.27119,-0.133909,-0.759705,-0.115364,-0.121959,0.571887,0
0.324566,0.0999259,-0.901968,-0.15349,-0.141171,0.612613,0
0.29566,0.314599,-0.995214,-0.167802,-0.160106,0.597256,0
0.229772,0.212463,-0.993464,-0.186591,-0.209107,0.468542,0
0.236291,0.0452296,-1.00034,-0.214294,-0.212437,0.288884,0
0.446173,0.120858,-1.07205,-0.255366,-0.179059,0.121861,0
0.725462,-0.00275756,-1.07984,-0.31329,-0.154898,-0.0914096,0
0.711775,-0.535225,-1.07728,-0.345849,-0.0798569,-0.326116,0
0.577883,-1.01486,-1.1405,-0.345559,0.0107512,-0.500788,0
0.536675,-0.78039,-1.1887,-0.330324,0.0757651,-0.547411,0
0.536675,-0.78039,-1.1887,-0.330324,0.0757651,-0.547411,0
0.404902,0.0323228,-1.08616,-0.267553,0.138758,-0.528712,0
0.264713,0.276133,-0.916056,-0.159188,0.179314,-0.655569,0
0.336963,-0.0570928,-0.835215,-0.0465329,0.276703,-0.768246,0
0.378359,-0.596526,-0.875142,0.0394719,0.359888,-0.732645,0
0.0658295,-0.890748,-0.925931,0.119875,0.371501,-0.534477,0
-0.532679,-0.75227,-0.696214,0.207796,0.24992,-0.326989,0
-0.913678,-0.59666,-0.340877,0.200399,0.0820392,-0.240465,0
-0.883315,-0.600023,-0.136968,0.163347,0.0565751,-0.242925,0
-0.621539,-0.728966,-0.251987,0.116718,0.127679,-0.180307,0
-0.321299,-0.837061,-0.626392,0.0807902,0.186884,-0.0241702,0
-0.0841049,-0.800723,-1.02935,0.0893335,0.188606,0.187914,0
0.0259273,-0.483384,-1.27245,0.110728,0.124766,0.381179,0
0.0351539,-0.101215,-1.32072,0.106555,0.0168099,0.490388,0
-0.0358939,0.101856,-1.24556,0.0865549,-0.0707345,0.487754,0
-0.158084,0.134995,-1.14924,0.0866714,-0.100976,0.42467,0
-0.252855,0.200906,-1.05977,0.0719094,-0.120668,0.337545,0
-0.241804,0.197705,-0.983616,0.037522,-0.147511,0.203568,0
-0.198668,0.237807,-0.96343,-0.00617245,-0.151805,0.0909659,0
-0.207551,0.255469,-0.970075,-0.0307789,-0.154528,0.000166953,0
-0.190028,0.15126,-0.919496,-0.0273989,-0.161656,-0.120646,0
-0.0723589,-0.0125564,-0.807414,-0.0188367,-0.161793,-0.235653,0
0.164484,-0.256919,-0.739435,-0.016644,-0.134897,-0.335353,0
0.410541,-0.593313,-0.805008,-0.0697802,-0.0929227,-0.372052,0
0.497469,-0.738894,-0.917531,-0.117985,-0.0643855,-0.32518,0
0.460228,-0.52031,-1.06503,-0.136092,-0.035086,-0.229795,0
0.303289,0.134874,-1.13931,-0.149441,-0.0318993,-0.138149,0
0.19198,0.468883,-1.09673,-0.137894,-0.060178,-0.181413,0
0.293384,0.475995,-1.02674,-0.0838599,-0.017141,-0.272881,0
0.435618,0.150325,-0.992013,-0.100027,0.0384616,-0.272573,0
0.361446,-0.28578,-0.99934,-0.134529,0.0761546,-0.172449,0
0.0841764,-0.539532,-0.982035,-0.142547,0.0827558,-0.0193962,0
-0.145243,-0.422552,-0.975187,-0.17799,0.0728631,0.132117,0
-0.189142,-0.157765,-1.00947,-0.227838,0.0750142,0.184362,0
-0.1414,-0.00187649,-1.06513,-0.248393,0.0914735,0.152876,0
-0.112824,0.0422172,-1.17283,-0.261447,0.123163,0.119394,0
-0.150656,-0.019005,-1.33509,-0.284602,0.153102,0.0973369,0
-0.200048,-0.0430058,-1.54386,-0.284903,0.182613,0.0688713,0
-0.131402,0.106535,-1.71168,-0.253917,0.185375,0.0453176,0
0.0783641,0.144147,-1.73661,-0.215439,0.146264,-0.0343962,0
0.211115,0.099113,-1.65098,-0.177223,0.120771,-0.0750789,0
0.184521,-0.0332487,-1.53306,-0.154988,0.106614,-0.076997,0
0.0939245,-0.155414,-1.39939,-0.152027,0.107364,-0.063109,0
0.0323019,-0.311008,-1.24135,-0.143733,0.112509,-0.085159,0
0.0402443,-0.204734,-1.07127,-0.107887,0.132814,-0.0700701,0
0.214128,0.0536196,-0.873775,-0.0836454,0.122986,-0.0591912,0
0.421104,0.153228,-0.628792,-0.0723231,0.117561,-0.0807323,0
0.486828,-0.0674464,-0.380356,-0.042997,0.137025,-0.0902869,0
0.44768,-0.311416,-0.167186,-0.0220663,0.153333,-0.0418586,0
0.433422,-0.441948,0.00237854,-0.0228585,0.17107,0.0652858,0
0.459311,-0.442557,0.128975,-0.0154465,0.184036,0.162992,0
0.50388,-0.318427,0.205944,0.000537917,0.197172,0.269782,0
0.540537,-0.0966853,0.234967,0.00111553,0.217347,0.353661,0
0.540537,-0.0966853,0.234967,0.00111553,0.217347,0.353661,0
0.53986,0.032585,0.28267,0.0066014,0.222619,0.400643,0
0.39884,-0.014304,0.409561,0.0179981,0.208023,0.405801,0
0.221568,-0.197046,0.483278,0.0207566,0.210489,0.399377,0
0.13011,-0.461456,0.470647,-0.0112857,0.228852,0.393295,0
0.0775389,-0.611861,0.424001,-0.0406637,0.226347,0.419824,0
-0.0502287,-0.434391,0.34899,-0.0486636,0.216764,0.485901,0
-0.225725,0.0495376,0.277938,-0.0382828,0.194348,0.53102,0
-0.306694,0.438704,0.303175,-0.0239626,0.14951,0.436607,0
-0.273707,0.429993,0.393108,-0.0166603,0.0988801,0.224774,0
-0.431789,0.295148,0.36864,-0.0693415,0.0974604,0.0658464,0
-0.871142,-0.112456,0.259893,-0.10556,0.0883399,-0.0966924,0
-1.27825,-0.488238,0.185948,-0.146523,-0.00988662,-0.289257,0
-1.37724,-0.180577,0.119855,-0.138956,-0.0893687,-0.399988,0
-1.22585,0.694326,0.0681404,-0.0989063,-0.137703,-0.522739,0
-1.04503,1.17317,0.111941,-0.0451765,-0.178895,-0.760055,0
-0.88209,0.876267,0.187073,0.0485329,-0.17063,-1.04093,0
-0.643231,0.0277245,0.158405,0.132637,-0.111049,-1.15389,0
-0.353928,-0.953883,-0.00359212,0.171384,-0.0718801,-1.02197,0
-0.0763894,-1.38421,-0.182446,0.178689,-0.103677,-0.629644,0
0.135309,-1.02182,-0.300471,0.170435,-0.143733,-0.149249,0
0.213991,-0.314441,-0.354362,0.141956,-0.173455,0.191031,0
0.164445,0.254276,-0.369088,0.103656,-0.183298,0.33669,0
0.0722151,0.436549,-0.38837,0.0851538,-0.153165,0.343714,0
0.0462642,0.214751,-0.354174,0.0885234,-0.117263,0.268995,0
0.0788574,-0.140804,-0.313092,0.0711779,-0.0936276,0.231752,0
0.0927737,-0.395407,-0.336433,0.0318174,-0.0585386,0.264219,0
0.102746,-0.401275,-0.396466,0.00269938,-0.0396831,0.319545,0
0.148592,-0.295677,-0.425012,0.00241995,-0.0267248,0.348465,0
0.220097,-0.024891,-0.40736,0.00618825,-0.0307491,0.377307,0
0.235676,0.23667,-0.371682,-0.0136292,-0.027692,0.386841,0
0.125991,0.303463,-0.357924,-0.0278148,-0.0087806,0.337545,0
-0.018227,0.139039,-0.3724,-0.0131758,0.026197,0.250996,0
-0.0997448,-0.0546259,-0.363847,0.0166,0.0461536,0.173917,0
-0.0396746,-0.218331,-0.287327,0.0388086,0.028073,0.130009,0
0.0841136,-0.311454,-0.201181,0.0443998,0.0118679,0.12933,0
0.201389,-0.405619,-0.244716,0.00390413,0.0308442,0.155591,0
0.240936,-0.453473,-0.409487,-0.0325646,0.0727835,0.197016,0
0.144019,-0.507612,-0.539833,-0.0302373,0.090632,0.157027,0
0.203745,-0.446801,-0.651002,-0.00247726,0.0781935,0.0676822,0
0.458125,-0.0868332,-0.701675,-0.0136155,0.04486,-0.0473201,0
0.729267,0.368867,-0.684509,-0.0205905,0.0303282,-0.173089,0
0.640581,0.47352,-0.539428,-0.028779,0.00648312,-0.306924,0
0.0327969,0.351718,-0.311665,-0.0186019,0.00568825,-0.389128,0
-0.691876,0.198928,-0.0655839,0.0146547,-0.0165869,-0.488995,0
-0.999261,0.241953,0.190221,0.0126227,-0.0523765,-0.617044,0
-0.886977,0.313008,0.364548,-0.00174044,-0.0251219,-0.732643,0
-0.568907,-0.0274834,0.369131,-0.0385754,0.022352,-0.826801,0
-0.259257,-0.457045,0.173845,-0.0727505,0.0815786,-0.73657,0
-0.077812,-0.673664,-0.0544285,-0.0930891,0.0842546,-0.489772,0
-0.0428737,-0.499141,-0.173759,-0.0653688,0.0310643,-0.16844,0
-0.0831231,-0.0438278,-0.192843,-0.0359507,-0.050109,0.0971641,0
-0.0831231,-0.0438278,-0.192843,-0.0359507,-0.050109,0.0971641,0
-0.120345,0.354191,-0.172933,-0.0269885,-0.101068,0.236711,0
-0.11382,0.504143,-0.188636,-0.0171894,-0.0916402,0.276281,0
-0.0658403,0.403894,-0.231898,-0.00408184,-0.062806,0.274116,0
-0.0506181,0.201382,-0.224339,0.0128913,-0.0563942,0.285695,0
-0.00598982,0.0277665,-0.146033,0.024322,-0.0749672,0.315315,0
0.141764,-0.093233,-0.0311914,0.0186616,-0.087384,0.327262,0
0.343936,0.0114137,0.0498185,0.00559409,-0.0700975,0.381419,0
0.522368,0.256309,0.0969932,-0.0192058,-0.0451611,0.439273,0
0.641842,0.347592,0.13369,-0.043584,-0.0166843,0.442145,0
0.680314,0.156747,0.191214,-0.0550936,0.00524107,0.414875,0
0.665383,-0.176239,0.266131,-0.0527429,0.0235372,0.406892,0
0.646965,-0.386905,0.364406,-0.0450385,0.029311,0.442877,0
0.566192,-0.333686,0.438692,-0.0473937,0.0448312,0.501537,0
0.457742,0.0312899,0.51779,-0.0470059,0.0556452,0.525658,0
0.390058,0.298778,0.638312,-0.0483939,0.0673901,0.427964,0
0.26749,0.449107,0.749227,-0.0376148,0.122533,0.260959,0
0.106444,0.0443414,0.814029,-0.0468208,0.143098,-0.0175806,0
-0.141854,-0.536957,0.764305,-0.0988057,0.123422,-0.284515,0
-0.598851,-0.5327,0.645025,-0.145966,0.067223,-0.35697,0
-1.14866,0.22168,0.602699,-0.0995732,0.0131484,-0.386035,0
-1.15995,0.400005,0.623379,-0.0125181,-0.0439375,-0.670631,0
-0.824265,0.000233509,0.703589,0.0545949,-0.046754,-0.937329,0
-0.682252,-0.278532,0.61467,0.064696,0.00774449,-0.90703,0
-0.83558,-0.243053,0.379582,0.028222,0.0310398,-0.722734,0
-0.89611,-0.391202,0.235059,0.0140525,-0.0459301,-0.624829,0
-0.724319,-0.665081,0.221067,0.0371866,-0.116061,-0.53141,0
-0.463397,-0.68379,0.146625,0.0191046,-0.145959,-0.329041,0
-0.226367,-0.426322,-0.00309053,0.00697623,-0.127181,-0.0859097,0
0.000962114,-0.0844887,-0.261666,-0.0234041,-0.0981185,0.111334,0
0.25806,0.144369,-0.564276,-0.0231144,-0.0550187,0.242357,0
0.452974,0.185255,-0.830948,0.00312991,-0.0312294,0.338742,0
0.508098,0.137457,-1.02863,0.0357991,-0.0368656,0.43943,0
0.419229,0.0100916,-1.05873,0.0773312,-0.0604611,0.51482,0
0.271205,-0.0598462,-0.986809,0.113651,-0.0811656,0.57179,0
0.200343,-0.109561,-0.90596,0.119427,-0.0848173,0.598776,0
0.248345,-0.118174,-0.843112,0.102547,-0.0720166,0.597057,0
0.325189,-0.153773,-0.841857,0.0822204,-0.0515249,0.573746,0
0.374456,-0.0141008,-0.910939,0.0342464,-0.0248857,0.561102,0
0.499647,0.228745,-1.03499,-0.0419962,-0.0191219,0.476936,0
0.654238,0.3587,-1.17365,-0.0589421,0.00652787,0.301511,0
0.5681,0.636009,-1.26656,-0.100221,-0.00365143,0.128964,0
0.319983,0.899798,-1.3328,-0.177292,-0.0324383,-0.0919383,0
0.167439,0.758175,-1.24873,-0.143775,-0.0440688,-0.427729,0
0.102039,0.343803,-0.871843,-0.0327404,-0.0834305,-0.711386,0
-0.00861567,-0.010506,-0.375482,0.012747,-0.119123,-0.82068,0
-0.209607,-0.0017821,-0.133948,-0.0384182,-0.0722225,-0.793911,0
-0.339386,0.363679,-0.189077,-0.102448,0.0305613,-0.739375,0
-0.315675,0.398814,-0.20466,-0.0860765,0.0602111,-0.811334,0
-0.182788,-0.0801692,-0.06254,-0.0166245,0.0162498,-0.87306,0
-0.0380069,-0.72974,0.0734107,0.0119398,0.0173203,-0.74629,0
-0.0375247,-1.02485,0.122015,0.00871572,0.0406851,-0.439015,0
-0.165602,-0.809619,0.082619,-0.000987723,0.0354961,-0.0617795,0
-0.165602,-0.809619,0.082619,-0.000987723,0.0354961,-0.0617795,0
-0.260154,-0.372341,0.0365556,-0.00343402,0.000633448,0.193882,0
-0.28008,0.0673335,0.0304809,0.00438842,-0.0220773,0.328596,0
-0.288633,0.290095,0.0432684,0.00540092,-0.0356532,0.381843,0
-0.347007,0.39189,0.0256978,0.00418797,-0.0273769,0.420875,0
-0.354656,0.367862,-0.023774,-0.00721112,-0.0311365,0.434922,0
-0.269672,0.163744,-0.0787223,-0.0138803,-0.0241515,0.411877,0
-0.157232,-0.0105528,-0.160708,-0.0243907,-0.00812288,0.41184,0
-0.0247507,-0.0310365,-0.26329,-0.0465294,0.00213172,0.42485,0
0.109276,0.122703,-0.311776,-0.0847872,-0.0335665,0.457145,0
0.243011,0.296573,-0.305824,-0.116832,-0.0667301,0.47622,0
0.339972,0.290853,-0.277613,-0.122553,-0.0668033,0.463268,0
0.356668,0.124324,-0.264851,-0.123987,-0.0483689,0.441602,0
0.292986,0.0190514,-0.2251,-0.127189,-0.0547571,0.448749,0
0.0633612,-0.072721,-0.103657,-0.131493,-0.0901,0.419764,0
-0.154708,0.0342964,0.00249076,-0.137527,-0.111345,0.365405,0
-0.104699,0.117057,0.0460589,-0.153453,-0.127231,0.190313,0
0.146995,0.0650899,0.00271705,-0.158561,-0.119831,-0.00607294,0
0.327691,-0.180292,-0.0572111,-0.152262,-0.133488,-0.197222,0
0.332188,-0.66262,-0.0977788,-0.0947651,-0.118688,-0.368032,0
0.180562,-0.749258,-0.081368,-0.0730371,-0.165871,-0.446863,0
-0.00921679,-0.0941972,-0.0293867,-0.117083,-0.249888,-0.405943,0
0.0252061,0.229369,-0.079283,-0.102246,-0.227516,-0.503168,0
-0.0172721,-0.241202,-0.129926,0.013914,-0.103568,-0.664328,0
-0.358587,-1.06535,-0.157805,0.0924386,-0.0508534,-0.654192,0
-0.874337,-1.24641,-0.0803226,0.14625,-0.0697206,-0.403806,0
-1.0287,-0.600918,0.0826115,0.207432,-0.107743,-0.182479,0
-0.731291,0.188263,0.244035,0.161226,-0.139379,-0.141018,0
-0.277638,0.290354,0.230402,0.0567439,-0.0834072,-0.228855,0
0.0474535,-0.220598,-0.0319767,-0.0188224,0.0223124,-0.273012,0
0.203967,-0.733552,-0.504701,-0.0331735,0.122407,-0.129634,0
0.292332,-0.789614,-0.954736,-0.0263791,0.126098,0.0932958,0
0.440613,-0.530624,-1.14453,-0.00449091,0.032258,0.284546,0
0.550086,-0.162455,-1.08384,0.0456898,-0.0403982,0.393611,0
0.542873,0.0882147,-0.928913,0.0692079,-0.0703156,0.44501,0
0.451556,0.0932835,-0.821872,0.0472724,-0.0613593,0.435798,0
0.333741,-0.0132095,-0.781187,0.0277194,-0.0166937,0.401283,0
0.267664,-0.0765687,-0.776678,0.019396,0.0110212,0.341472,0
0.240917,0.0533693,-0.71755,0.0240944,0.00948544,0.302738,0
0.30185,0.202565,-0.601265,0.0154793,-0.012904,0.223288,0
0.389468,0.231515,-0.516858,-0.00369627,0.00733319,0.111741,0
0.426524,0.176283,-0.572134,-0.0412998,0.0684196,0.0380337,0
0.463769,0.137142,-0.698759,-0.0635957,0.104852,-0.0439687,0
0.573921,0.219858,-0.82554,-0.0992952,0.094804,-0.123287,0
0.619852,0.267158,-0.939649,-0.143666,0.094251,-0.207206,0
0.397015,0.22417,-0.976337,-0.122885,0.140924,-0.253943,0
-0.00875474,0.0221942,-0.84473,-0.0792543,0.10032,-0.3183,0
-0.334321,-0.00108515,-0.614885,-0.0972757,0.0185412,-0.34927,0
-0.39919,0.10053,-0.518765,-0.149141,0.0207547,-0.381834,0
-0.297691,-0.0808284,-0.608852,-0.188007,0.103893,-0.443998,0
-0.297691,-0.0808284,-0.608852,-0.188007,0.103893,-0.443998,0
-0.272877,-0.263512,-0.728452,-0.215062,0.152423,-0.41938,0
-0.403009,-0.185286,-0.801105,-0.242968,0.132768,-0.294697,0
-0.594202,0.021289,-0.772041,-0.236425,0.088659,-0.207813,0
-0.73837,0.370017,-0.729557,-0.211788,0.0688127,-0.17916,0
-0.677638,0.435748,-0.719458,-0.211135,0.0658424,-0.261507,0
-0.492318,0.141895,-0.756261,-0.200561,0.0976555,-0.325665,0
-0.329062,-0.358339,-0.80497,-0.182356,0.109406,-0.295819,0
-0.233307,-0.667982,-0.861202,-0.166948,0.107608,-0.161999,0
-0.130952,-0.622369,-0.949545,-0.158617,0.102221,0.030093,0
0.012936,-0.334377,-1.03075,-0.153561,0.0944546,0.177969,0
0.157536,-0.117898,-1.04939,-0.144903,0.0786316,0.246687,0
0.195104,-0.0962764,-1.01116,-0.131212,0.0738617,0.268025,0
0.127958,-0.262051,-0.941968,-0.119523,0.0766131,0.254196,0
-0.00627615,-0.504365,-0.856191,-0.108843,0.0804194,0.233994,0
-0.0684608,-0.620518,-0.800043,-0.125368,0.0755992,0.220364,0
-0.0579495,-0.584267,-0.765899,-0.152283,0.0874713,0.221931,0
-0.109186,-0.465047,-0.760166,-0.17549,0.0930477,0.203823,0
-0.0740803,-0.137021,-0.789637,-0.183473,0.0738203,0.157415,0
0.00503905,0.106987,-0.776367,-0.189444,0.00900145,0.0843998,0
-0.115704,0.166686,-0.71042,-0.210151,-0.0458999,0.0147775,0
-0.412729,-0.0118898,-0.645368,-0.199899,-0.0749362,-0.0683184,0
-0.660816,-0.244728,-0.593639,-0.170614,-0.0956612,-0.162742,0
-0.708116,-0.288997,-0.626834,-0.150305,-0.0981324,-0.206124,0
-0.524084,-0.140173,-0.781501,-0.135821,-0.0826524,-0.219866,0
-0.196625,-0.0759909,-0.967942,-0.104357,-0.0708555,-0.250283,0
0.0737677,-0.144816,-1.12094,-0.0597842,-0.069122,-0.244815,0
0.134886,-0.244857,-1.12903,-0.00174457,-0.095701,-0.18081,0
-0.012263,-0.163078,-0.942429,0.053638,-0.138368,-0.0962184,0
-0.195377,-0.00454632,-0.701022,0.0634673,-0.149881,-0.0441438,0
-0.272079,-0.0709248,-0.577495,0.0318934,-0.105039,-0.0967531,0
-0.289825,-0.0915108,-0.616933,0.00396655,-0.0218638,-0.119561,0
-0.187611,-0.0946111,-0.706568,-0.0110916,0.0215444,-0.125819,0
-0.0152866,-0.11532,-0.691054,0.0145975,0.0244955,-0.120722,0
0.164572,-0.228378,-0.612879,0.02785,0.00785115,-0.101505,0
0.222772,-0.347805,-0.550062,0.0206075,0.0173806,-0.0461426,0
0.138347,-0.304688,-0.581958,0.00329984,0.0553951,0.034202,0
0.0498643,-0.170749,-0.680703,-0.00110757,0.099571,0.0775299,0
0.0125626,-0.0482255,-0.781312,0.000732493,0.13214,0.0568531,0
0.0643925,0.0206986,-0.836514,0.0156334,0.137051,0.00613141,0
0.142767,0.0120427,-0.792408,0.0501489,0.125153,-0.0489382,0
0.0960609,0.0308958,-0.683559,0.079123,0.118522,-0.0504556,0
-0.062443,0.0783234,-0.558158,0.0970075,0.121601,-0.0317668,0
-0.209871,0.0704,-0.415393,0.108604,0.120124,-0.0562686,0
-0.280678,0.0911237,-0.294216,0.107911,0.111566,-0.0833617,0
-0.256417,0.0762804,-0.177213,0.099677,0.0959043,-0.108182,0
-0.191987,-0.0380331,-0.0769758,0.0822649,0.0858781,-0.102713,0
-0.147652,-0.150974,-0.0457804,0.0470137,0.0947537,-0.0449934,0
-0.131244,-0.0430554,-0.10135,0.00412202,0.113902,0.0687567,0
-0.131244,-0.0430554,-0.10135,0.00412202,0.113902,0.0687567,0
-0.138493,0.022634,-0.177146,-0.0411027,0.0935717,0.117489,0
-0.102967,0.0953409,-0.256939,-0.0648377,0.0931733,0.111042,0
-0.047176,0.130719,-0.284177,-0.0922175,0.0646843,0.0647135,0
-0.0172565,0.2643,-0.256451,-0.0998437,0.0258334,0.0155681,0
-0.0295273,0.0897511,-0.230971,-0.125077,-0.00324866,-0.102459,0
-0.0961897,-0.208661,-0.254936,-0.115559,-0.00123458,-0.228995,0
0.0377963,-0.217643,-0.390364,-0.0903984,0.0221099,-0.259552,0
0.344605,-0.0404511,-0.524078,-0.0787528,0.0167921,-0.23278,0
0.676861,0.0982684,-0.634699,-0.058667,0.00579049,-0.164201,0
0.794201,0.176101,-0.720238,-0.0393567,-0.00487818,-0.0298371,0
0.69169,0.0807396,-0.82985,-0.0399559,-0.0213583,0.0987455,0
0.468386,-0.0842575,-0.875702,0.024797,-0.0133396,0.225958,0
0.0772885,-0.04731,-0.827255,0.11041,-0.0270447,0.37622,0
-0.189306,0.108344,-0.726663,0.161378,-0.0642159,0.450601,0
-0.170861,0.159608,-0.595364,0.159063,-0.105528,0.407753,0
-0.0780549,-0.048176,-0.504054,0.133713,-0.0985605,0.345593,0
-0.0100663,-0.33596,-0.495288,0.11436,-0.0873522,0.310255,0
0.0540033,-0.373817,-0.558426,0.137247,-0.0523454,0.362585,0
0.172657,-0.268507,-0.595283,0.146066,-0.0464217,0.39706,0
0.364875,-0.117769,-0.526001,0.136092,-0.0752258,0.421405,0
0.567889,-0.220928,-0.393202,0.136912,-0.0766486,0.392603,0
0.67094,-0.384503,-0.296429,0.131384,-0.0326629,0.388293,0
0.704722,-0.463601,-0.291744,0.117175,0.0271459,0.391027,0
0.6023,-0.459786,-0.371379,0.0558582,0.0628103,0.360158,0
0.358555,-0.342368,-0.606968,-0.0515799,0.0558088,0.276241,0
0.0828629,-0.13666,-0.822521,-0.105367,0.0633175,0.0741428,0
-0.227806,0.295709,-0.818516,-0.035819,0.0360166,-0.169089,0
-0.399963,0.294807,-0.518948,0.0825854,-0.0495502,-0.510816,0
-0.358319,0.346183,-0.0579779,0.12193,-0.109461,-0.7429,0
-0.225806,0.483266,0.237598,0.0856957,-0.0721647,-0.809508,0
-0.169382,0.379276,0.197423,-0.0329562,-0.00134796,-0.773178,0
-0.223895,-0.0428615,0.0948865,-0.0531094,0.0779206,-0.670585,0
-0.339546,-0.3653,0.0509102,-0.0346566,0.0807963,-0.442155,0
-0.458431,-0.415968,0.124197,-0.0155938,0.0155683,-0.187353,0
-0.451179,-0.215219,0.266635,0.00438774,-0.032109,0.021695,0
-0.383471,-0.0314264,0.427829,0.00636606,-0.0473324,0.156819,0
-0.339938,0.0958782,0.495495,-0.0238069,-0.0191273,0.265753,0
-0.280552,0.19802,0.476342,-0.0553326,0.00969771,0.335861,0
-0.174107,0.248832,0.423365,-0.0759553,0.0304859,0.356577,0
-0.0524075,0.279273,0.327564,-0.0958174,0.0420173,0.361994,0
0.0759335,0.350001,0.214267,-0.135353,0.0445333,0.35989,0
0.157495,0.308449,0.122282,-0.186337,0.0282148,0.336917,0
0.189649,0.268517,0.084627,-0.195719,0.0171581,0.325702,0
0.227217,0.076527,0.180659,-0.165843,-0.00462799,0.281398,0
0.186218,-0.0820101,0.372744,-0.130855,-0.0168511,0.266555,0
0.167528,-0.0486438,0.519867,-0.130151,-0.0137878,0.289027,0
0.201405,-0.0542909,0.575472,-0.175012,0.00507906,0.250585,0
0.206686,-0.259719,0.494857,-0.201843,0.0608325,0.167994,0
0.206686,-0.259719,0.494857,-0.201843,0.0608325,0.167994,0
0.105028,-0.573434,0.323792,-0.21602,0.0981097,0.0442266,0
0.0355959,-0.637857,0.0730913,-0.213448,0.0843124,-0.0999535,0
0.160279,-0.388038,-0.180829,-0.17952,0.0458136,-0.251499,0
0.398296,-0.432456,-0.268983,-0.0627655,0.00154735,-0.466741,0
0.39858,-0.602275,-0.112655,0.0571113,-0.0568739,-0.593338,0
0.121795,-0.670372,0.216403,0.150604,-0.129565,-0.564142,0
-0.195581,-0.925521,0.562357,0.178704,-0.187681,-0.520755,0
-0.46291,-0.961534,0.715619,0.135558,-0.179442,-0.425209,0
-0.678202,-0.524752,0.634056,0.0919408,-0.115142,-0.2657,0
-0.787686,0.0516782,0.419038,0.0219133,-0.0983053,-0.179492,0
-0.79668,0.303607,0.213584,-0.0015266,-0.0884555,-0.210626,0
-0.755707,0.251342,0.0424936,0.0091866,-0.0847905,-0.243958,0
-0.594393,0.0215618,-0.131106,0.0148505,-0.086761,-0.244269,0
-0.354421,-0.170259,-0.275862,0.0385492,-0.0730982,-0.159863,0
-0.103645,-0.280283,-0.401192,0.0364411,-0.0727479,-0.0280414,0
0.0732488,-0.229262,-0.521159,0.0355951,-0.063017,0.137238,0
0.163931,-0.0759523,-0.598609,0.0435993,-0.0565689,0.282801,0
0.236342,0.203645,-0.614707,0.0614325,-0.0601618,0.383786,0
0.345054,0.436238,-0.562556,0.0747218,-0.0645688,0.416897,0
0.375902,0.395382,-0.461209,0.0750404,-0.0625414,0.391153,0
0.304807,0.0927406,-0.372182,0.0720429,-0.0416021,0.37071,0
0.180448,-0.28599,-0.360441,0.0771638,-0.00321244,0.387093,0
0.110113,-0.416627,-0.447246,0.0615093,0.0395886,0.442931,0
0.132192,-0.208972,-0.552509,0.0360235,0.051019,0.493317,0
0.255553,0.170795,-0.556564,0.0395653,0.0168963,0.463093,0
0.348664,0.468407,-0.49618,0.0318574,-0.0127858,0.360758,0
0.33135,0.462464,-0.469692,0.00796191,0.0139138,0.182486,0
0.202007,0.234815,-0.468858,-0.0118411,0.027175,-0.0485351,0
0.0429941,0.103538,-0.494928,-0.0410926,0.0226689,-0.239905,0
-0.138519,0.287802,-0.445452,-0.0517093,0.0178075,-0.36476,0
-0.201624,0.62186,-0.300005,0.00967514,0.0263451,-0.497495,0
-0.170155,0.846733,-0.146824,0.0142224,0.0225638,-0.623985,0
-0.176957,0.612219,-0.0435059,0.00256129,0.0237571,-0.735478,0
-0.244268,0.0593335,-0.0277521,0.0115549,0.0552249,-0.753898,0
-0.305301,-0.261517,-0.0883856,0.0148218,0.065191,-0.609439,0
-0.297649,-0.226575,-0.104745,0.0294256,0.0280959,-0.402049,0
-0.291523,0.0104898,0.0116924,0.0394215,-0.0434792,-0.204462,0
-0.390073,0.246434,0.228502,0.0454055,-0.101605,-0.0461427,0
-0.483708,0.345354,0.363543,0.0232115,-0.109329,0.0685952,0
-0.511112,0.168707,0.418998,-0.00336164,-0.0789313,0.128586,0
-0.533518,-0.0633996,0.424818,-0.0189103,-0.0505896,0.212601,0
-0.57022,-0.199818,0.396394,-0.030985,-0.0474317,0.319462,0
-0.531916,-0.187807,0.349093,-0.0420428,-0.0539287,0.408497,0
-0.334608,-0.0359958,0.288483,-0.0648837,-0.0593684,0.456225,0
-0.0151026,0.11061,0.236108,-0.0896177,-0.0709556,0.457005,0
0.295168,0.291781,0.163961,-0.11597,-0.059751,0.462091,0
0.475391,0.374481,0.0716704,-0.138471,-0.0363,0.458156,0
0.528922,0.281297,0.000590611,-0.135948,-0.016679,0.422583,0
0.528922,0.281297,0.000590611,-0.135948,-0.016679,0.422583,0
0.479206,0.339472,0.0136296,-0.122053,-0.0150136,0.387394,0
0.327593,0.365074,0.0892952,-0.104733,-0.0370027,0.274402,0
0.0987201,0.323102,0.277699,-0.0845067,-0.0598973,0.0883371,0
-0.0963866,0.144826,0.477945,-0.0429557,-0.0711733,-0.144125,0
-0.109435,-0.239009,0.429161,-0.0607244,-0.0250633,-0.390116,0
-0.0573176,-0.466944,0.256881,-0.052514,0.0172435,-0.507851,0
-0.0949125,-0.505427,0.252493,0.0214429,-0.0137508,-0.558133,0
-0.215197,-0.455118,0.431755,0.104988,-0.0645043,-0.580276,0
-0.362792,-0.543534,0.631919,0.159864,-0.0961437,-0.575401,0
-0.490615,-0.512027,0.65899,0.135056,-0.0571811,-0.514322,0
-0.546695,-0.412813,0.519518,0.0861613,0.00319315,-0.414033,0
-0.518582,-0.299806,0.277958,0.0366478,0.0187721,-0.318794,0
-0.377533,-0.240013,0.0174986,-0.000255156,-0.00431402,-0.235188,0
-0.162454,-0.195336,-0.221728,0.0036939,-0.0152339,-0.119832,0
0.0297168,-0.0787601,-0.405384,0.0279325,-0.0273557,0.0266905,0
0.158928,0.100005,-0.479156,0.0653542,-0.0547598,0.156883,0
0.181086,0.158155,-0.448856,0.0840749,-0.0925441,0.237521,0
0.127936,0.147987,-0.436522,0.0800155,-0.0838977,0.29171,0
0.0540229,0.110016,-0.497191,0.0716446,-0.0598603,0.320091,0
0.0321537,0.0811711,-0.547119,0.0752697,-0.0503509,0.331343,0
0.0909492,0.109711,-0.561549,0.0790222,-0.0565717,0.3461,0
0.225539,0.234203,-0.463517,0.0834023,-0.0724413,0.356948,0
0.40976,0.338432,-0.353874,0.0603724,-0.0651641,0.353428,0
0.541616,0.349115,-0.296313,0.0430518,-0.0459858,0.325871,0
0.570229,0.259912,-0.306627,0.0638782,0.00457047,0.272332,0
0.561577,0.0590766,-0.456299,0.00398959,0.0292023,0.170514,0
0.501984,-0.304478,-0.593216,0.00219924,0.0453222,0.0808672,0
0.307353,-0.439683,-0.542174,0.0539755,0.00150441,0.0168037,0
0.128995,0.104358,-0.447458,0.0463845,-0.0638848,-0.0395095,0
0.187888,0.532184,-0.44595,-0.0584977,-0.0889591,-0.178014,0
0.316142,0.418662,-0.285769,-0.0418037,-0.0713513,-0.369107,0
0.227,0.325785,-0.115036,-0.0127532,-0.0421898,-0.462681,0
-0.0393043,0.506228,-0.114674,-0.0504684,-0.0296599,-0.4713,0
-0.268231,0.4313,-0.16507,-0.0859449,-0.0171381,-0.513427,0
-0.366302,0.118237,-0.207292,-0.0882796,-0.0163232,-0.583444,0
-0.322974,-0.0806632,-0.234919,-0.0835214,-0.0258817,-0.528898,0
-0.221507,-0.0619299,-0.216785,-0.0710745,-0.0583279,-0.377505,0
-0.110709,0.0628982,-0.223802,-0.0889837,-0.0815479,-0.20621,0
-0.0575175,0.0371296,-0.222962,-0.100635,-0.107832,-0.069867,0
-0.0708678,-0.101848,-0.217472,-0.099964,-0.127769,0.049674,0
-0.14539,-0.21261,-0.195158,-0.0958224,-0.140951,0.177249,0
-0.255143,-0.0779513,-0.148411,-0.0911359,-0.154614,0.299823,0
-0.30777,0.113893,-0.137337,-0.120709,-0.174477,0.347316,0
-0.268112,0.169002,-0.164416,-0.133856,-0.16347,0.353996,0
-0.140716,0.17515,-0.203341,-0.147741,-0.155584,0.345215,0
0.0442052,0.211152,-0.238887,-0.175646,-0.154819,0.333098,0
0.216046,0.221585,-0.286628,-0.20101,-0.138229,0.321349,0
0.35846,0.163203,-0.386178,-0.230135,-0.109795,0.293999,0
0.35846,0.163203,-0.386178,-0.230135,-0.109795,0.293999,0
0.461762,-0.0103328,-0.49535,-0.251007,-0.0972351,0.257457,0
0.548467,-0.0961528,-0.554566,-0.241302,-0.102408,0.260338,0
0.592679,-0.166657,-0.607645,-0.245803,-0.1081,0.240784,0
0.796306,-0.0360685,-0.732181,-0.26019,-0.0676558,0.219785,0
0.906782,0.482505,-0.717708,-0.287558,-0.0779658,0.285126,0
0.437118,0.551448,-0.652767,-0.292754,-0.106961,0.107407,0
-0.018248,0.0835793,-0.59339,-0.265424,-0.143095,-0.139925,0
-0.110696,-0.670664,-0.524275,-0.240199,-0.118899,-0.391335,0
-0.0782655,-1.08535,-0.514166,-0.179527,-0.0277156,-0.466601,0
