attitude_roll,attitude_pitch,attitude_yaw,rotationRate_x,rotationRate_y,rotationRate_z,acceleration_x,acceleration_y,acceleration_z
0.107424,0.312927,-0.0169624,0.119097,0.0742157,-0.491038,-0.0475523,0.0582875,0.0847765
0.108382,0.314733,-0.0278184,0.162985,-0.298494,-0.502539,-0.029965,0.0403974,0.103869
0.103158,0.317015,-0.0386604,0.160976,-0.536103,-0.500158,-0.0174608,0.0333199,0.140035
0.094452,0.318538,-0.0499565,0.0880629,-0.678325,-0.552637,-0.00135616,0.0290145,0.143917
0.0838,0.318201,-0.062127,-0.0224485,-0.749289,-0.592817,0.0107556,0.00574532,0.128214
0.0726651,0.315723,-0.0748222,-0.125061,-0.732695,-0.626706,0.0134458,0.0024901,0.11176
0.0629085,0.311879,-0.0883816,-0.16209,-0.653078,-0.678408,0.0101731,0.018853,0.106813
0.0550796,0.308154,-0.102804,-0.106914,-0.559293,-0.695598,0.0196392,0.0293287,0.0980412
0.0497008,0.306864,-0.116912,0.0622792,-0.381728,-0.637497,0.028858,0.0371016,0.114554
0.0485781,0.309196,-0.129261,0.210622,-0.102853,-0.505117,0.0201194,0.0396145,0.14103
0.0510987,0.313331,-0.137522,0.225468,0.0727529,-0.230913,0.00231358,0.0323202,0.103528
0.0552008,0.318262,-0.139309,0.297543,0.31373,0.0591244,0.0182461,-0.00487804,0.105866
0.0638805,0.32605,-0.138085,0.481747,0.583245,0.0581547,0.0104337,-0.0112999,0.111032
0.0790024,0.337831,-0.139392,0.678295,0.856071,-0.116814,-0.00208698,-0.011698,0.158688
0.100475,0.35196,-0.145906,0.758677,1.06006,-0.374896,-0.00417581,-0.0123779,0.153157
0.127717,0.365627,-0.158284,0.70816,1.18587,-0.605627,0.0106874,-0.0116207,0.126199
0.157807,0.37699,-0.17485,0.626437,1.20894,-0.734121,0.0330365,-0.0152537,0.0557208
0.191856,0.385624,-0.189548,0.418609,1.73475,-0.451689,-0.00219408,0.0642786,0.0645314
0.235353,0.389728,-0.196454,0.0729954,2.23079,-0.0435448,-0.112063,-0.0413734,0.0409911
0.268987,0.384879,-0.190374,-0.788539,0.874285,0.489854,-0.06748,0.0764972,-0.32551
0.273025,0.363326,-0.163849,-1.80779,1.11483,1.33049,-0.211989,-0.161827,0.18208
0.294633,0.337257,-0.121547,-1.51016,2.44403,1.41851,0.0138422,-0.277651,0.219866
0.34179,0.320815,-0.112237,-0.310864,2.18891,-1.29264,0.412441,0.248628,-0.316851
0.385004,0.308518,-0.155832,0.571537,0.722798,-2.69495,-0.024197,0.0439883,-0.567356
0.407737,0.302734,-0.215889,1.05801,0.0472696,-2.58422,0.0131317,-0.0515851,-0.303902
0.424838,0.303219,-0.266817,0.750821,0.0223893,-1.83288,0.173449,-0.234151,-0.179882
0.430778,0.294139,-0.298904,-0.344367,-0.139941,-1.36273,0.221389,-0.224504,-0.272732
0.439124,0.26809,-0.315027,-1.23482,0.19542,-1.09611,0.158934,-0.126467,-0.28831
0.439761,0.237369,-0.318859,-1.18762,-0.300139,-0.521824,0.0534384,-0.11309,-0.40595
0.426381,0.220745,-0.319093,-0.219317,-1.08742,-0.289055,-0.0431458,-0.0160282,-0.431922
0.398492,0.224453,-0.329328,0.934124,-1.85147,-0.528723,-0.0282746,0.0661097,-0.35611
0.359613,0.244728,-0.353048,1.69862,-2.57282,-0.812321,0.0470168,0.0822886,-0.247573
0.311752,0.275183,-0.3808,1.95565,-2.77942,-0.640257,0.0876718,0.0213719,-0.0313094
0.262774,0.311025,-0.401115,1.99106,-2.65682,-0.208077,0.118425,0.00191134,0.110442
0.212975,0.347423,-0.412145,1.66344,-2.7459,0.00843416,0.176275,0.0466982,0.100131
0.154256,0.370048,-0.41725,0.548999,-3.26448,-0.0994874,0.190129,0.120923,0.0595759
0.0891,0.367395,-0.422237,-0.717967,-3.36515,-0.391315,0.18519,0.14837,0.228911
0.0239113,0.342675,-0.434442,-1.66332,-3.46232,-0.847639,0.120456,0.160334,0.240998
-0.0279747,0.298894,-0.457263,-2.67266,-2.31452,-1.24503,0.148511,0.151885,0.460828
-0.0545828,0.24107,-0.485997,-3.07837,-1.15833,-1.18543,0.141021,-0.0323607,0.432695
-0.0650376,0.179744,-0.510721,-3.12691,-0.459815,-0.818323,0.0447338,-0.0497535,0.484098
-0.0680822,0.119134,-0.526797,-2.98367,-0.188952,-0.349601,0.0571408,-0.13922,0.392467
-0.0766388,0.05886,-0.534288,-3.13611,-0.825635,-0.0124095,0.00840743,-0.134137,0.300102
-0.0955556,-0.00679779,-0.538944,-3.32057,-0.792231,0.107295,0.0801797,-0.153419,0.399132
-0.0994054,-0.0666884,-0.540591,-2.48297,0.306329,0.348718,0.141852,-0.29987,0.399773
-0.0900868,-0.105045,-0.533151,-1.24431,0.447441,0.761461,0.0105048,-0.268579,0.267433
-0.0809706,-0.12069,-0.515434,-0.202573,0.273212,1.0928,-0.0679149,-0.130239,0.244936
-0.0735976,-0.117952,-0.490734,0.613729,0.13721,1.30251,-0.123757,-0.0162079,0.278129
-0.0691646,-0.102323,-0.462514,1.08362,0.0358388,1.33467,-0.161431,0.0766123,0.287923
-0.0648162,-0.0799341,-0.436188,1.27257,0.168392,1.07907,-0.140606,0.105683,0.279565
-0.0587225,-0.0552424,-0.41697,1.30059,0.323043,0.670547,-0.140192,0.0916211,0.216144
-0.0498582,-0.0276806,-0.405445,1.54108,0.459505,0.353838,-0.143694,0.0709558,0.159477
-0.0416443,0.0072613,-0.398337,1.99499,0.32733,0.217192,-0.108607,0.042326,0.00531703
-0.0416443,0.0072613,-0.398337,1.99499,0.32733,0.217192,-0.108607,0.042326,0.00531703
-0.0383129,0.0524652,-0.39275,2.4891,-0.032179,0.166974,-0.0107299,-0.0528292,-0.215427
-0.0459629,0.104539,-0.387913,2.62059,-0.723972,0.0862008,0.126491,-0.169989,-0.483164
-0.0678624,0.153446,-0.385648,2.15497,-1.3947,-0.153575,0.205411,-0.210208,-0.622087
-0.0994455,0.18834,-0.388988,1.22768,-1.78575,-0.44626,0.191551,-0.195706,-0.698623
-0.136897,0.203064,-0.398171,0.112101,-2.08545,-0.577632,0.143233,-0.190525,-0.727144
-0.17563,0.196626,-0.410979,-0.898987,-1.92456,-0.524047,0.0250295,-0.0944184,-0.573998
-0.204468,0.173706,-0.424605,-1.51456,-1.11082,-0.337478,-0.129157,0.0754214,-0.351133
-0.215954,0.143385,-0.435763,-1.57036,-0.287077,-0.10322,-0.220948,0.135387,-0.274355
-0.217475,0.116792,-0.441671,-1.07819,-0.013688,0.0924974,-0.201568,0.0595654,-0.264322
-0.217793,0.101181,-0.442024,-0.462993,-0.0429392,0.198424,-0.119197,-0.00671851,-0.208457
-0.219782,0.0953638,-0.43834,-0.0691378,-0.101399,0.289032,-0.0524137,-0.00406954,-0.104875
-0.221604,0.094499,-0.431533,0.11125,0.00331671,0.388739,-0.00178275,0.026167,0.0454887
-0.220624,0.0962356,-0.42241,0.262411,0.187412,0.441214,0.0316842,0.0544918,0.167413
-0.216445,0.101404,-0.412091,0.474412,0.303488,0.43628,0.0681016,0.0646402,0.243943
-0.212077,0.111561,-0.401036,0.747414,0.212,0.413152,0.111724,0.0330673,0.266654
-0.211218,0.127295,-0.389462,1.01721,0.00122458,0.376703,0.153512,-0.000383466,0.269853
-0.215033,0.147764,-0.377797,1.19221,-0.224595,0.315313,0.193552,-0.0148979,0.285354
-0.223537,0.170373,-0.367114,1.20997,-0.436233,0.200567,0.208735,-0.00839785,0.268878
-0.23449,0.192706,-0.359517,1.10743,-0.505153,0.0170887,0.215839,0.0233337,0.260614
-0.245616,0.212852,-0.355933,0.909542,-0.520917,-0.143159,0.22993,0.0280512,0.238838
-0.256155,0.229131,-0.355587,0.664775,-0.530548,-0.212282,0.252081,-0.0167955,0.182307
-0.267439,0.240723,-0.356977,0.414825,-0.637901,-0.199998,0.263891,-0.0542131,0.122738
-0.280693,0.246867,-0.358541,0.125191,-0.689994,-0.0877287,0.255973,-0.0153531,0.146989
-0.293219,0.246434,-0.358725,-0.16456,-0.527115,0.0831264,0.228133,0.0674035,0.235861
-0.301122,0.240502,-0.358031,-0.346471,-0.236129,0.123298,0.201416,0.178452,0.310544
-0.302883,0.2335,-0.358679,-0.304449,0.0301725,0.00995183,0.166826,0.222137,0.373876
-0.300223,0.229967,-0.361498,-0.0971164,0.146132,-0.164435,0.147674,0.1672,0.359504
-0.295964,0.231769,-0.365928,0.130267,0.170563,-0.28437,0.162403,0.0644169,0.336051
-0.291953,0.236757,-0.370409,0.175929,0.116781,-0.243407,0.193475,-0.0376352,0.289824
-0.289418,0.238589,-0.372646,-0.117907,0.100497,0.0172752,0.205472,-0.0978965,0.237032
-0.287333,0.229815,-0.370831,-0.687354,0.209734,0.391331,0.145665,-0.132127,0.132199
-0.27876,0.208137,-0.365576,-1.21184,0.791291,0.694923,0.0780479,-0.0963711,0.0188797
-0.259891,0.177962,-0.356518,-1.37976,1.17796,0.954349,-0.00507888,-0.0949181,-0.21039
-0.24035,0.146999,-0.342343,-1.25881,0.88032,1.13307,-0.0994094,-0.142699,-0.471441
-0.228695,0.1169,-0.326555,-1.34953,0.62746,1.01861,-0.204268,-0.0237162,-0.560715
-0.213518,0.0844898,-0.316319,-1.53922,0.951549,0.683864,-0.284401,0.130822,-0.62495
-0.19717,0.0522617,-0.311253,-1.48456,0.638433,0.484222,-0.287542,-0.0686421,-0.885704
-0.187395,0.0200632,-0.308656,-1.67875,0.404375,0.401589,-0.303835,-0.0509372,-0.838506
-0.178219,-0.0180415,-0.307464,-1.97259,0.556568,0.411892,-0.311628,0.11819,-0.708443
-0.166728,-0.056528,-0.305402,-1.64944,0.489202,0.442254,-0.313892,0.142904,-0.645584
-0.161252,-0.0823491,-0.301328,-0.77632,-0.0187528,0.349213,-0.311349,0.125111,-0.564566
-0.167721,-0.0884035,-0.297911,0.22515,-0.660624,0.0482126,-0.300971,0.144744,-0.392119
-0.186263,-0.0742153,-0.299088,1.11863,-1.14662,-0.429617,-0.247359,0.143306,-0.174589
-0.212469,-0.0421607,-0.306668,1.82271,-1.37392,-0.933129,-0.172248,0.114819,0.0653897
-0.240334,0.00358129,-0.319415,2.27944,-1.34257,-1.28841,-0.0785032,0.037578,0.247223
-0.265417,0.0568199,-0.333804,2.44364,-1.19004,-1.37956,0.0218674,-0.0634499,0.346467
-0.286477,0.110724,-0.346245,2.34322,-0.996944,-1.24411,0.111731,-0.149924,0.38402
-0.302555,0.159779,-0.354961,2.04045,-0.7248,-0.981024,0.185599,-0.196628,0.401282
-0.313709,0.199441,-0.359552,1.5578,-0.475538,-0.636081,0.225827,-0.224363,0.388685
-0.320802,0.226449,-0.360322,0.968962,-0.241597,-0.278293,0.242183,-0.228683,0.365948
-0.323747,0.240178,-0.358596,0.382548,-0.0275532,-0.0223517,0.220519,-0.209711,0.344863
-0.322916,0.242008,-0.357184,-0.153866,0.14047,0.070216,0.169261,-0.163454,0.310541
-0.322916,0.242008,-0.357184,-0.153866,0.14047,0.070216,0.169261,-0.163454,0.310541
-0.318217,0.234262,-0.358169,-0.587033,0.291993,0.0817022,0.127997,-0.111289,0.279519
-0.310608,0.219312,-0.361174,-0.895435,0.384891,0.101458,0.0810929,-0.0616778,0.240865
-0.301713,0.199759,-0.364806,-1.03293,0.418996,0.161711,0.0406824,0.00211385,0.212865
-0.292367,0.1791,-0.366253,-0.928178,0.481677,0.307454,-0.00667384,0.0941746,0.194918
-0.281994,0.162548,-0.363584,-0.532314,0.604295,0.391841,-0.0513851,0.233214,0.197811
-0.270319,0.156074,-0.35742,0.110092,0.60932,0.347375,-0.071916,0.338959,0.220252
-0.261192,0.164426,-0.349483,0.902697,0.394151,0.170218,-0.0581173,0.350133,0.243168
-0.258284,0.188853,-0.341991,1.58838,-0.0114254,-0.0855994,-0.0207411,0.280338,0.249749
-0.264647,0.224334,-0.336837,1.87483,-0.501591,-0.33495,0.0344791,0.188354,0.212804
-0.27872,0.261801,-0.335135,1.69891,-0.825133,-0.481044,0.102909,0.104859,0.165847
-0.295003,0.293447,-0.335866,1.28901,-0.750166,-0.435908,0.159661,0.0571526,0.141059
-0.307952,0.316548,-0.335406,0.946086,-0.556554,-0.173532,0.164299,-0.0167606,0.0316774
-0.321166,0.332759,-0.329777,0.768367,-0.633758,0.183333,0.147249,-0.161797,-0.156954
-0.340514,0.34318,-0.318273,0.525271,-0.903906,0.47405,0.134536,-0.276004,-0.318739
-0.363886,0.344611,-0.305425,-0.0211194,-0.924762,0.574332,0.0699228,-0.218276,-0.403351
-0.381386,0.334455,-0.297174,-0.60828,-0.50529,0.50372,-0.0306646,-0.138375,-0.487767
-0.392017,0.314532,-0.293851,-1.13379,-0.602619,0.570226,-0.120439,-0.228684,-0.634457
-0.406502,0.283144,-0.295619,-1.8222,-0.72861,0.400997,-0.253814,-0.0741093,-0.622626
-0.410336,0.242932,-0.310712,-2.36598,0.00822417,-0.15444,-0.391193,0.26443,-0.383758
-0.398005,0.202346,-0.337938,-2.26419,0.573394,-0.647158,-0.413021,0.325053,-0.253756
-0.378344,0.172888,-0.367328,-1.45319,0.758849,-0.847053,-0.297731,0.126984,-0.19125
-0.36095,0.161095,-0.38979,-0.458136,0.552782,-0.738549,-0.152691,-0.0495002,-0.114638
-0.351414,0.163794,-0.401775,0.234102,0.218386,-0.442688,-0.0250508,-0.142358,-0.0317941
-0.348114,0.172842,-0.404571,0.431022,0.112369,-0.133628,0.0790851,-0.142669,0.0684369
-0.345036,0.179514,-0.402344,0.225845,0.266113,0.0938942,0.142594,-0.0759495,0.163627
-0.337613,0.179893,-0.398732,-0.0609416,0.520729,0.208383,0.159493,0.0101316,0.236107
-0.326848,0.176105,-0.395294,-0.137273,0.584852,0.220873,0.161064,0.069239,0.268822
-0.316193,0.173735,-0.392097,0.040033,0.506142,0.140152,0.172511,0.0859484,0.282066
-0.308302,0.176683,-0.389403,0.324539,0.307206,0.0206517,0.191875,0.0812678,0.295377
-0.305028,0.186003,-0.387269,0.612928,0.0632728,-0.0971525,0.216862,0.0464893,0.288964
-0.305992,0.200617,-0.38546,0.801986,-0.115294,-0.165282,0.243867,-0.0125788,0.255148
-0.309439,0.217084,-0.383746,0.765936,-0.162401,-0.169062,0.264922,-0.0934701,0.194111
-0.3125,0.229985,-0.383232,0.414775,-0.129939,-0.178916,0.260495,-0.128879,0.139922
-0.313232,0.2332,-0.386373,-0.241509,0.0197768,-0.221744,0.259328,-0.0892361,0.135309
-0.306882,0.223012,-0.395555,-0.98851,0.429373,-0.317551,0.240133,0.0398021,0.190262
-0.291124,0.200732,-0.410378,-1.48592,0.782309,-0.403547,0.195542,0.155197,0.230893
-0.2707,0.174527,-0.427597,-1.38721,0.898037,-0.489894,0.14782,0.15405,0.23665
-0.25147,0.155536,-0.443996,-0.806025,0.699356,-0.574233,0.107106,0.0959957,0.204247
-0.238737,0.149629,-0.458339,-0.123064,0.353937,-0.64892,0.0679551,0.0605701,0.186809
-0.231678,0.154788,-0.471191,0.255112,0.197183,-0.69064,0.0464154,0.0560722,0.160377
-0.224832,0.164131,-0.483687,0.349968,0.337142,-0.716839,0.0278539,0.103596,0.145721
-0.213493,0.174311,-0.495868,0.380547,0.574418,-0.649299,0.00733978,0.123198,0.0526665
-0.198256,0.185775,-0.505278,0.58437,0.776228,-0.472295,0.00262251,0.0456093,-0.127843
-0.180842,0.201873,-0.508673,0.910442,0.836151,-0.11136,0.045438,-0.114055,-0.33238
-0.170002,0.219933,-0.502148,0.895905,0.295621,0.417927,0.0627073,-0.221198,-0.570261
-0.173246,0.23204,-0.487681,0.480871,-0.215425,0.692531,0.0438444,-0.162905,-0.592471
-0.181396,0.233934,-0.47354,-0.0192558,-0.226658,0.580521,-0.0489983,-0.0513967,-0.565629
-0.190889,0.229886,-0.46445,-0.157676,-0.578089,0.350362,-0.130735,-0.159737,-0.659045
-0.207759,0.225152,-0.460506,-0.259502,-0.946763,0.129807,-0.197055,-0.180371,-0.571729
-0.225863,0.217429,-0.460898,-0.492214,-0.811682,0.01821,-0.277083,-0.0975891,-0.378927
-0.238569,0.207304,-0.463164,-0.472596,-0.501401,0.0117085,-0.337427,-0.0718263,-0.200555
-0.238569,0.207304,-0.463164,-0.472596,-0.501401,0.0117085,-0.337427,-0.0718263,-0.200555
-0.245666,0.201648,-0.464255,-0.0557634,-0.26174,0.019946,-0.346961,-0.109469,-0.0875964
-0.250739,0.205747,-0.462729,0.486739,-0.249785,0.0198995,-0.317569,-0.148362,-0.0236264
-0.257517,0.219921,-0.459108,0.933712,-0.357769,-0.0415321,-0.253285,-0.175845,0.040536
-0.266523,0.240977,-0.455345,1.13666,-0.437897,-0.156287,-0.183471,-0.184078,0.100041
-0.274974,0.263863,-0.453691,1.04846,-0.342638,-0.300047,-0.118827,-0.157569,0.183532
-0.279248,0.283519,-0.45594,0.758277,-0.130176,-0.437251,-0.0827069,-0.113162,0.262791
-0.27748,0.298087,-0.462395,0.478803,0.110337,-0.545537,-0.0574535,-0.063119,0.335763
-0.270052,0.308892,-0.471996,0.320373,0.329985,-0.61911,-0.0279801,-0.0118385,0.395347
-0.258321,0.317601,-0.483859,0.222051,0.458998,-0.69263,0.00333188,0.0421161,0.43574
-0.244274,0.324736,-0.497987,0.133498,0.478465,-0.781037,0.0514468,0.0813113,0.453032
-0.229601,0.330625,-0.514989,0.0615106,0.42882,-0.917444,0.0987467,0.115696,0.460279
-0.215046,0.336156,-0.535142,0.0786716,0.35632,-1.0452,0.1234,0.126949,0.453352
-0.201717,0.343658,-0.556867,0.256257,0.233111,-1.08292,0.140251,0.0795177,0.419096
-0.192579,0.355858,-0.576965,0.575002,-0.0361863,-0.976009,0.1579,0.000478953,0.353354
-0.191559,0.373173,-0.592886,0.798813,-0.417761,-0.808855,0.154688,-0.0401368,0.27924
-0.197915,0.391815,-0.605298,0.759288,-0.637652,-0.687719,0.0965801,-0.0119782,0.228167
-0.206126,0.407518,-0.616277,0.559258,-0.540509,-0.614801,0.00779383,0.0633243,0.192129
-0.208984,0.419449,-0.62613,0.444998,-0.110613,-0.489886,-0.073412,0.106766,0.126749
-0.205861,0.430164,-0.631596,0.521817,0.137479,-0.189817,-0.0840489,0.00985447,-0.0511964
-0.205349,0.441811,-0.628843,0.646428,-0.0313884,0.197611,-0.0354582,-0.153783,-0.269128
-0.214431,0.452462,-0.618278,0.526536,-0.399779,0.474922,0.00125401,-0.23422,-0.43493
-0.229091,0.456458,-0.605874,0.0604418,-0.444432,0.474811,-0.0447084,-0.142633,-0.4721
-0.238488,0.450225,-0.598547,-0.490457,-0.134477,0.296803,-0.132171,-0.0444155,-0.497861
-0.239098,0.436198,-0.597493,-0.801894,0.0357855,0.140713,-0.169673,-0.116353,-0.586949
-0.240179,0.418187,-0.600153,-1.0019,-0.298987,0.0403347,-0.178679,-0.201058,-0.584145
-0.246177,0.396183,-0.607652,-1.3085,-0.534773,-0.198217,-0.213549,-0.115244,-0.381869
-0.247993,0.369592,-0.623278,-1.58241,-0.137949,-0.556188,-0.233289,-1.16229e-06,-0.0992721
-0.236614,0.341626,-0.645836,-1.57566,0.475591,-0.776444,-0.186803,0.0189032,0.0445444
-0.215411,0.31674,-0.668759,-1.28793,0.854798,-0.727942,-0.0805601,-0.0695413,0.0648603
-0.191818,0.297539,-0.685911,-0.916707,0.929938,-0.4572,0.0503545,-0.131713,0.0872688
-0.171442,0.283757,-0.694791,-0.59822,0.819163,-0.133606,0.143533,-0.152393,0.114638
-0.156417,0.274428,-0.696751,-0.357615,0.630066,0.0706968,0.175509,-0.116729,0.151436
-0.145898,0.268925,-0.69603,-0.179904,0.437435,0.0402279,0.160099,-0.0385956,0.19823
-0.1385,0.267322,-0.69779,-0.00110599,0.246064,-0.208482,0.138251,0.0342,0.242096
-0.133805,0.270161,-0.705288,0.185583,0.0155014,-0.548077,0.124386,0.0800429,0.279958
-0.132209,0.2778,-0.719267,0.390551,-0.222592,-0.865004,0.121017,0.108851,0.323569
-0.133361,0.290123,-0.738215,0.575963,-0.401018,-1.0725,0.130247,0.125395,0.367944
-0.136119,0.306136,-0.759716,0.716145,-0.487606,-1.15165,0.130916,0.130814,0.396468
-0.139354,0.324523,-0.78163,0.808695,-0.50545,-1.13883,0.118744,0.121179,0.401246
-0.142728,0.344205,-0.802389,0.84718,-0.503781,-1.06596,0.108281,0.0866398,0.366678
-0.146141,0.363634,-0.821861,0.783506,-0.505246,-1.01303,0.0909641,0.0614989,0.306987
-0.149359,0.380445,-0.841215,0.585956,-0.523602,-1.01828,0.0561637,0.0570485,0.233302
-0.151436,0.392429,-0.863014,0.280172,-0.477338,-1.16364,-0.00100654,0.13106,0.178972
-0.148758,0.39906,-0.889765,0.0451647,-0.249129,-1.36601,-0.0645612,0.186999,0.115947
-0.138679,0.405248,-0.920814,0.230231,0.00607254,-1.51404,-0.0901091,0.151479,0.0272014
-0.128933,0.417802,-0.95185,0.600586,-0.436406,-1.42429,-0.0559458,-0.0732515,-0.202032
-0.137065,0.433556,-0.979644,0.525747,-1.5105,-1.29898,0.0197466,-0.301503,-0.386525
-0.16181,0.441872,-1.00743,-0.164235,-1.98674,-1.30417,0.026445,-0.422694,-0.438406
-0.18667,0.433333,-1.03859,-1.16746,-1.70866,-1.29192,-0.104836,-0.346963,-0.314952
-0.202079,0.406356,-1.07167,-1.99875,-1.22633,-1.0875,-0.263498,-0.2592,-0.273449
-0.214045,0.365304,-1.10076,-2.49851,-1.06574,-0.684805,-0.305493,-0.298696,-0.381107
-0.225849,0.315552,-1.12322,-2.77337,-0.837137,-0.295861,-0.346189,-0.288138,-0.360168
-0.225849,0.315552,-1.12322,-2.77337,-0.837137,-0.295861,-0.346189,-0.288138,-0.360168
-0.233902,0.260382,-1.13949,-2.88313,-0.383476,0.019179,-0.429465,-0.137325,-0.322075
-0.232765,0.20577,-1.15096,-2.57934,0.24897,0.121345,-0.510022,0.0806488,-0.229883
-0.221323,0.161863,-1.15944,-1.80333,0.647885,0.0490091,-0.525109,0.225839,-0.153218
-0.2078,0.136389,-1.16502,-0.768359,0.571329,-0.0440168,-0.418014,0.223705,-0.135702
-0.198433,0.131738,-1.16767,0.22143,0.288178,-0.112555,-0.224909,0.13534,-0.0393943
-0.196522,0.143612,-1.16817,0.862973,-0.0982495,-0.171425,-0.0505098,0.0565554,0.0599955
-0.201452,0.164586,-1.16842,1.11912,-0.37953,-0.27185,0.0796361,0.012172,0.16101
-0.210588,0.187857,-1.17072,1.05683,-0.551118,-0.424664,0.166554,-0.0178049,0.219004
-0.221371,0.208425,-1.1767,0.793156,-0.626166,-0.58345,0.223467,-0.0481622,0.245209
-0.231527,0.223767,-1.18726,0.453245,-0.592157,-0.762785,0.232456,-0.0763903,0.23587
-0.238821,0.232805,-1.20304,0.0547326,-0.491562,-0.923939,0.21745,-0.107626,0.176791
-0.243795,0.234423,-1.22311,-0.353605,-0.47759,-0.987016,0.194334,-0.128528,0.0864187
-0.2478,0.229307,-1.24539,-0.651459,-0.416033,-0.96749,0.1238,-0.109276,-0.0444015
-0.249666,0.218861,-1.26737,-0.857732,-0.22496,-0.825269,0.0436762,-0.0226589,-0.128232
-0.24618,0.205411,-1.28659,-0.858372,0.195817,-0.650143,-0.0228817,0.100713,-0.156404
-0.236374,0.193215,-1.30069,-0.610979,0.409354,-0.37429,-0.0427314,0.110609,-0.204771
-0.229525,0.186534,-1.30728,-0.179238,0.0803999,-0.129101,-0.0413697,0.0650164,-0.248776
-0.232093,0.187111,-1.30969,0.14277,-0.328611,-0.165074,-0.0602548,0.121019,-0.234442
-0.238999,0.192653,-1.31416,0.279171,-0.422682,-0.400749,-0.0677285,0.218853,-0.129376
-0.246089,0.202456,-1.32239,0.49925,-0.432628,-0.583105,-0.0309557,0.158183,-0.0448093
-0.254087,0.217575,-1.33023,0.74623,-0.571442,-0.476339,0.0389998,-0.0357859,-0.0440618
-0.26699,0.234186,-1.33272,0.729177,-0.734138,-0.166331,0.0866138,-0.176975,-0.0733565
-0.282353,0.245049,-1.32987,0.332208,-0.684782,0.120828,0.0837234,-0.198726,-0.0899107
-0.294093,0.244362,-1.32601,-0.309224,-0.346876,0.228964,0.0334268,-0.109519,-0.0798661
-0.29575,0.230898,-1.32548,-0.923748,0.218752,0.20489,-0.0325157,0.0109714,-0.0552224
-0.285321,0.208795,-1.3276,-1.16784,0.754737,0.253347,-0.0710221,0.0785576,-0.0361073
-0.265645,0.185389,-1.32735,-1.01754,1.16565,0.424224,-0.0673763,0.0894952,-0.00154668
-0.241417,0.166451,-1.32102,-0.632706,1.30145,0.65164,-0.0463757,0.0808142,0.0361474
-0.218366,0.15525,-1.30803,-0.152693,1.13869,0.821345,-0.0275633,0.0562685,0.0564761
-0.202693,0.153863,-1.29147,0.35377,0.637051,0.759537,-0.0382984,0.0532508,0.0200497
-0.19794,0.162909,-1.27678,0.794401,0.0735037,0.446468,-0.0504757,0.0788912,0.0235986
-0.202672,0.180603,-1.26817,1.06005,-0.369148,0.0318438,-0.0489345,0.0890614,0.0157706
-0.21305,0.202532,-1.26638,1.0751,-0.603823,-0.287834,-0.0415528,0.0911343,0.024323
-0.224827,0.224177,-1.26957,0.949453,-0.589812,-0.45982,-0.038607,0.101011,0.0398259
-0.233177,0.243448,-1.27506,0.800722,-0.351,-0.477121,-0.0447264,0.105156,0.0435063
-0.235978,0.259811,-1.28047,0.666241,-0.063916,-0.399955,-0.0491224,0.0912487,0.0258821
-0.233122,0.273293,-1.28471,0.544946,0.241365,-0.317716,-0.0478518,0.0886902,0.00147748
-0.223929,0.284071,-1.28917,0.398034,0.547219,-0.369132,-0.0410639,0.145713,-0.0278352
-0.208186,0.292241,-1.29713,0.244187,0.773947,-0.55395,-0.035049,0.215132,-0.0307888
-0.18956,0.299133,-1.30941,0.22043,0.652936,-0.713645,-0.0199534,0.1622,-0.0804762
-0.174637,0.306969,-1.32419,0.292389,0.395175,-0.794695,0.0055331,0.0540476,-0.044888
-0.164473,0.315531,-1.3405,0.260517,0.122131,-0.875276,0.0212958,-0.0055359,-0.0394769
-0.157306,0.321699,-1.35956,0.0284426,0.0301864,-1.01108,0.00178629,0.00817996,-0.0048933
-0.148929,0.321875,-1.38303,-0.364237,0.0808332,-1.18904,-0.0200381,0.0396577,0.0101341
-0.137049,0.314067,-1.41183,-0.780793,0.200242,-1.40088,-0.0386267,0.0854793,0.0115795
-0.12138,0.299372,-1.44594,-1.05063,0.333568,-1.59873,-0.0355483,0.128722,0.0289358
-0.103948,0.281716,-1.48222,-1.03453,0.320639,-1.60462,-0.0341182,0.0776105,0.0438959
-0.090608,0.266181,-1.51573,-0.790241,0.0889467,-1.4195,-0.0207349,0.00430566,0.0667208
-0.0848917,0.255487,-1.54347,-0.505873,-0.249195,-1.14739,-0.0313201,-0.0315551,0.0625212
-0.0879502,0.249134,-1.56551,-0.333291,-0.582978,-0.936053,-0.0535927,-0.0248586,0.0454434
-0.0970572,0.244278,-1.58477,-0.34135,-0.751099,-0.899088,-0.0760771,0.0234572,0.0477005
-0.0970572,0.244278,-1.58477,-0.34135,-0.751099,-0.899088,-0.0760771,0.0234572,0.0477005
-0.107228,0.238209,-1.60498,-0.467428,-0.714127,-0.996197,-0.0920899,0.0713814,0.0539799
-0.114777,0.229976,-1.62777,-0.578784,-0.552006,-1.08937,-0.0856795,0.0895115,0.0877488
-0.119086,0.220774,-1.65109,-0.573462,-0.403475,-1.01215,-0.0568539,0.0413112,0.126258
-0.122011,0.212602,-1.67061,-0.447953,-0.313363,-0.754311,-0.0224048,-0.0358985,0.157749
-0.125088,0.206765,-1.68389,-0.287179,-0.275528,-0.45541,-0.00463501,-0.0803956,0.168441
-0.129085,0.202971,-1.69153,-0.195504,-0.279828,-0.251665,0.00537241,-0.108113,0.172953
-0.133967,0.199451,-1.69609,-0.227399,-0.287713,-0.16177,0.00752063,-0.120213,0.176563
-0.138392,0.194349,-1.70036,-0.341366,-0.223162,-0.201548,0.00588284,-0.108904,0.17478
-0.140953,0.186935,-1.70667,-0.470785,-0.158315,-0.307195,-0.0010139,-0.0948527,0.166987
-0.142128,0.177773,-1.71538,-0.532325,-0.109213,-0.397966,-0.00253543,-0.0869407,0.175808
-0.142132,0.168643,-1.72518,-0.479745,-0.0654239,-0.412216,0.00960904,-0.0646685,0.191098
-0.141882,0.162007,-1.73434,-0.275797,-0.0670182,-0.377309,0.0217568,-0.0462199,0.211547
-0.142902,0.160535,-1.74138,0.0453923,-0.16261,-0.275217,0.0400291,-0.0596822,0.223342
-0.147327,0.165584,-1.74489,0.399626,-0.339258,-0.142104,0.0533412,-0.082334,0.229696
-0.155349,0.176614,-1.74552,0.649615,-0.443814,-0.104656,0.0538072,-0.0714491,0.223337
-0.163692,0.190729,-1.7462,0.701861,-0.384297,-0.202179,0.0450778,-0.0130925,0.21601
-0.170096,0.20534,-1.74915,0.688572,-0.310946,-0.315502,0.0379433,0.0215731,0.185963
-0.174929,0.22053,-1.75361,0.735788,-0.262273,-0.359492,0.0317615,0.0552947,0.159239
-0.177961,0.237454,-1.75768,0.867187,-0.0964682,-0.291508,-0.000612319,0.0570671,0.111695
-0.176669,0.257319,-1.75704,1.09611,0.30352,0.0361082,-0.0647916,-0.0881317,-0.00165159
-0.167206,0.279808,-1.74823,1.21317,0.903183,0.368407,-0.081988,-0.204053,-0.205707
-0.144255,0.301837,-1.73701,1.07801,1.712,0.265147,-0.0402337,-0.100263,-0.325404
-0.104125,0.318681,-1.73366,0.566248,2.30314,-0.19886,0.0624484,0.0480552,-0.458356
-0.0540606,0.323581,-1.74265,-0.118242,2.30294,-0.643899,0.14791,0.12259,-0.572661
-0.00695094,0.317576,-1.75804,-0.463113,1.83541,-0.744349,0.176235,-0.0217046,-0.599039
0.0267478,0.30679,-1.7734,-0.584123,1.01662,-0.742648,0.162401,-0.039705,-0.568548
0.0448793,0.292895,-1.78983,-0.749033,0.37798,-0.876368,0.106201,0.0404801,-0.48418
0.0545998,0.275723,-1.80836,-0.846163,0.104069,-0.944758,0.0484102,0.0615494,-0.328268
0.0596505,0.258295,-1.82549,-0.761624,-0.046595,-0.756068,0.0256601,-0.0138397,-0.1748
0.0601102,0.244289,-1.83625,-0.565782,-0.170617,-0.339819,0.0350933,-0.122529,-0.0493566
0.0560901,0.234021,-1.8377,-0.465351,-0.254851,0.132745,0.0415366,-0.177152,0.0487878
0.0483563,0.224759,-1.83056,-0.503523,-0.368092,0.483729,0.0336278,-0.158706,0.094436
0.0367116,0.214383,-1.81808,-0.570662,-0.524168,0.655847,0.0113627,-0.113687,0.125452
0.0218996,0.203156,-1.80397,-0.576871,-0.658489,0.67012,-0.017282,-0.0602931,0.140012
0.00480513,0.192441,-1.79047,-0.484997,-0.786108,0.615284,-0.0393692,-0.00753601,0.150078
-0.0139076,0.184578,-1.7793,-0.277279,-0.843543,0.465213,-0.0555277,0.0442343,0.162225
-0.03155,0.181425,-1.77184,-0.0194619,-0.771809,0.271685,-0.0591372,0.081753,0.164433
-0.0467693,0.183394,-1.7678,0.224537,-0.674375,0.129113,-0.026801,0.107065,0.195244
-0.0602315,0.189779,-1.76541,0.414086,-0.628299,0.0835577,0.0329455,0.105939,0.21908
-0.0732108,0.199306,-1.76301,0.536019,-0.622879,0.0928607,0.0860558,0.0991121,0.255838
-0.0866915,0.210671,-1.76011,0.607326,-0.657299,0.0921376,0.120817,0.10528,0.302588
-0.100393,0.223203,-1.75769,0.654732,-0.647511,0.0126153,0.133749,0.111018,0.351585
-0.113031,0.2366,-1.75728,0.672413,-0.600288,-0.116079,0.146895,0.113153,0.384852
-0.123758,0.250393,-1.75933,0.661788,-0.497825,-0.234249,0.158045,0.11308,0.408152
-0.130732,0.263962,-1.76317,0.625682,-0.276,-0.285827,0.167196,0.098981,0.403797
-0.132428,0.276379,-1.76726,0.534503,-0.00752126,-0.252083,0.176789,0.0884258,0.388685
-0.129379,0.286153,-1.77052,0.386718,0.207058,-0.185064,0.166207,0.097358,0.33079
-0.122829,0.293466,-1.77296,0.335021,0.366843,-0.135926,0.13454,0.0724139,0.225227
-0.114053,0.30171,-1.77403,0.496512,0.450012,-0.0500372,0.10685,-0.0841795,0.0616635
-0.106911,0.313432,-1.77224,0.639819,0.267232,0.0926212,0.0851663,-0.239618,-0.0683409
-0.105505,0.323331,-1.76842,0.282744,0.013081,0.0896397,0.0128925,-0.229042,-0.146537
-0.104664,0.320628,-1.77209,-0.658836,0.0144117,-0.477393,-0.055865,-0.0407643,-0.275608
-0.104664,0.320628,-1.77209,-0.658836,0.0144117,-0.477393,-0.055865,-0.0407643,-0.275608
-0.0955673,0.298656,-1.79086,-1.6236,0.306782,-0.965712,-0.133228,-0.00273061,-0.364973
-0.0838424,0.264207,-1.8137,-1.88286,0.149722,-0.841449,-0.144839,-0.202556,-0.419606
-0.0789688,0.227329,-1.83145,-1.94724,-0.0141895,-0.5902,-0.219194,-0.196346,-0.492815
-0.0722904,0.185662,-1.84615,-2.32021,0.469433,-0.55081,-0.286253,0.0116387,-0.505531
-0.0545785,0.136731,-1.8597,-2.5498,1.0083,-0.413815,-0.317311,0.138411,-0.544423
-0.0319934,0.0885133,-1.8668,-2.18575,1.07894,-0.0863239,-0.300672,0.102329,-0.571212
-0.013454,0.0516517,-1.86695,-1.44829,0.723227,0.121854,-0.308616,0.105004,-0.54543
-0.00442791,0.0310162,-1.86469,-0.600591,0.164769,0.0758798,-0.285705,0.132681,-0.429812
-0.00680076,0.0268306,-1.86535,0.16066,-0.381361,-0.15188,-0.222648,0.114748,-0.237703
-0.018173,0.0360656,-1.87046,0.719445,-0.73388,-0.35071,-0.130094,0.055772,-0.0177373
-0.0347249,0.0541644,-1.87762,1.01814,-0.919974,-0.378097,-0.0260631,-0.0270541,0.170096
-0.0536883,0.0757807,-1.88307,1.07994,-0.984954,-0.23904,0.0514027,-0.100088,0.299023
-0.0732608,0.0970316,-1.88456,1.00243,-0.959949,-0.0446838,0.0832727,-0.142226,0.38049
-0.0916859,0.115552,-1.88239,0.839178,-0.835608,0.0843288,0.0889785,-0.149613,0.41935
-0.106866,0.129825,-1.8793,0.59665,-0.629885,0.0522206,0.08602,-0.116587,0.418667
-0.116877,0.139089,-1.87848,0.318218,-0.341495,-0.0759882,0.0825257,-0.0761572,0.413335
-0.120638,0.143091,-1.88051,0.0723078,-0.0697481,-0.152689,0.0969594,-0.0612851,0.392102
-0.12019,0.143536,-1.8831,-0.0312855,0.047809,-0.0861377,0.116699,-0.0491867,0.357165
-0.119182,0.142901,-1.88352,-0.016782,0.033607,0.0567709,0.122998,-0.02003,0.331159
-0.119498,0.143177,-1.88091,0.0867646,-0.0297137,0.186557,0.111891,0.0215638,0.297544
-0.121334,0.145954,-1.87601,0.2598,-0.0827686,0.245785,0.0874463,0.0661669,0.26284
-0.124008,0.152718,-1.87022,0.48211,-0.091186,0.22578,0.0509765,0.106196,0.232648
-0.126269,0.16397,-1.86481,0.67525,-0.035966,0.167473,0.00966627,0.136366,0.192081
-0.125199,0.177978,-1.85975,0.750745,0.300554,0.17435,-0.0654855,0.126289,0.127013
-0.112695,0.192002,-1.85302,0.676668,1.12309,0.329457,-0.108177,0.0526562,0.0347388
-0.0825742,0.201606,-1.84351,0.315011,2.03478,0.478225,-0.0864876,0.0363332,-0.116564
-0.0388473,0.201587,-1.83521,-0.311057,2.37004,0.250486,-0.0328871,0.135649,-0.285042
0.00802545,0.187363,-1.83626,-1.07026,2.20536,-0.372016,-0.0106469,0.341527,-0.431702
0.048172,0.16221,-1.84912,-1.26249,1.49001,-0.907375,-0.0142877,0.354508,-0.522069
0.072139,0.140063,-1.8684,-0.745068,0.620012,-1.05996,-0.0254112,0.178836,-0.489526
0.0781204,0.129782,-1.88924,-0.186987,-0.290232,-1.07173,-0.0210951,0.052758,-0.37795
0.0701281,0.124027,-1.91218,-0.330067,-0.687992,-1.24856,-0.00787177,0.0461487,-0.273502
0.0611875,0.110001,-1.93846,-0.921893,-0.428061,-1.39389,0.0172537,-0.006813,-0.157288
0.0600956,0.0846489,-1.96369,-1.39827,0.0696183,-1.18882,0.0457769,-0.112291,-0.0785146
0.0663717,0.0538509,-1.98125,-1.49099,0.393979,-0.72428,0.0800286,-0.207711,-0.0504316
0.0759951,0.0246074,-1.98888,-1.33382,0.502707,-0.252394,0.107344,-0.253212,-0.0462484
0.0855878,-0.000418577,-1.98834,-1.16772,0.422958,0.0729896,0.128689,-0.243003,-0.0531753
0.092313,-0.0227902,-1.98342,-1.10852,0.220622,0.184513,0.139516,-0.206947,-0.0688016
0.0943545,-0.044218,-1.97789,-1.05326,-0.0413395,0.150746,0.151849,-0.172072,-0.0839887
0.0903678,-0.0631166,-1.97312,-0.828461,-0.396621,0.163674,0.157905,-0.14268,-0.0925045
0.0790438,-0.0752339,-1.9678,-0.389492,-0.753076,0.270816,0.16026,-0.122206,-0.0599126
0.061888,-0.0771842,-1.96078,0.146522,-0.990666,0.408765,0.153896,-0.0939533,-0.0164064
0.0411884,-0.0689556,-1.95203,0.603391,-1.10783,0.485109,0.150495,-0.0577469,0.018979
0.0196107,-0.0533707,-1.94285,0.899632,-1.07145,0.464016,0.149669,-0.0142982,0.0552231
-0.000513457,-0.0327833,-1.93436,1.14868,-0.966471,0.402361,0.140894,0.0317367,0.108746
-0.0188073,-0.00655805,-1.92662,1.47665,-0.869772,0.343118,0.135551,0.0446199,0.166351
-0.0355125,0.0263729,-1.91941,1.81024,-0.784147,0.280566,0.13939,0.0312373,0.22383
-0.0506961,0.0648291,-1.91313,2.00878,-0.688284,0.164757,0.144409,0.0276742,0.251592
-0.0634702,0.105334,-1.90909,2.00415,-0.549505,-0.00580066,0.149532,0.0417699,0.274529
-0.0634702,0.105334,-1.90909,2.00415,-0.549505,-0.00580066,0.149532,0.0417699,0.274529
-0.0727411,0.143961,-1.90891,1.80889,-0.362411,-0.246365,0.1459,0.0764477,0.287911
-0.0776691,0.178121,-1.91324,1.56723,-0.20103,-0.432229,0.12719,0.123698,0.261103
-0.0794813,0.208962,-1.92133,1.43937,-0.151145,-0.56858,0.118137,0.155992,0.210556
-0.0800408,0.238994,-1.93052,1.51803,-0.11958,-0.533406,0.0851442,0.104798,0.127264
-0.0810406,0.272905,-1.93767,1.78871,-0.188976,-0.43064,0.0328663,-0.0308543,0.00818658
-0.0851324,0.310614,-1.94351,1.83934,-0.394874,-0.440884,-0.0203731,-0.0809073,-0.0745108
-0.093353,0.344553,-1.95045,1.37779,-0.627703,-0.534381,-0.0797113,-0.16195,-0.163381
-0.100528,0.364366,-1.96306,0.419367,-0.423183,-0.862234,-0.136562,-0.242139,-0.250573
-0.0956974,0.36364,-1.98629,-0.731871,0.0430487,-1.27774,-0.189628,-0.327427,-0.284344
-0.0810777,0.338429,-2.01936,-2.05101,0.28737,-1.53473,-0.245138,-0.253703,-0.346061
-0.0563243,0.289022,-2.05737,-2.99309,1.05431,-1.67918,-0.302165,-0.0578803,-0.288236
-0.0174592,0.22858,-2.09315,-2.98637,1.87642,-1.49179,-0.344705,0.0842457,-0.332953
0.0283804,0.175805,-2.11739,-2.18119,2.08843,-0.794752,-0.313035,0.118977,-0.355822
0.066561,0.142907,-2.12141,-1.05346,1.49226,0.239568,-0.264793,0.0160626,-0.38792
0.0822371,0.134271,-2.10818,0.0921819,0.198176,0.894167,-0.290435,0.0120722,-0.355581
0.0723876,0.148136,-2.09131,1.11173,-0.861273,0.743061,-0.321868,0.117489,-0.165993
0.0466294,0.177543,-2.08403,1.67804,-1.53139,0.126831,-0.294659,0.131461,-0.0018661
0.0141583,0.212628,-2.0884,1.74587,-1.70241,-0.416592,-0.211868,0.0481265,0.183772
-0.0156166,0.24486,-2.10036,1.41978,-1.49216,-0.702629,-0.126635,-0.00750291,0.298712
-0.0389696,0.269636,-2.11543,1.01361,-1.22565,-0.796078,-0.0660095,-0.00717872,0.355836
-0.0574272,0.287421,-2.13134,0.693743,-1.04388,-0.80154,-0.0141118,0.0236534,0.380401
-0.0716898,0.29979,-2.14676,0.450272,-0.814055,-0.730366,0.0264414,0.0543524,0.414981
-0.0814519,0.307866,-2.16011,0.260559,-0.553418,-0.593195,0.0433567,0.0525828,0.402689
-0.0870867,0.312105,-2.17077,0.0744892,-0.345695,-0.45606,0.0475422,0.0539802,0.364816
-0.0900004,0.312647,-2.17956,-0.0935653,-0.223901,-0.390679,0.040371,0.0673593,0.304437
-0.0908661,0.310087,-2.18804,-0.224415,-0.115022,-0.397575,0.0285672,0.101589,0.275283
-0.0894309,0.305837,-2.19722,-0.25298,-0.0234845,-0.426203,0.0132678,0.139303,0.246797
-0.0863008,0.302678,-2.2064,-0.106957,0.0767809,-0.396212,0.0098725,0.140027,0.247284
-0.0813502,0.303531,-2.21309,0.143838,0.220408,-0.222947,0.0326239,0.118365,0.278112
-0.0759347,0.308266,-2.21435,0.289768,0.256256,0.0787794,0.0926408,0.0686961,0.292996
-0.0735369,0.313479,-2.20917,0.238946,0.0993023,0.352894,0.176793,0.0421653,0.294292
-0.0788656,0.316485,-2.19997,0.144398,-0.370782,0.455867,0.187405,0.0349981,0.231317
-0.093457,0.319447,-2.19113,0.261319,-0.809047,0.327204,0.133812,0.00839269,0.187637
-0.116561,0.326744,-2.1848,0.523396,-1.27066,0.194631,0.07926,-0.149254,0.115043
-0.145894,0.33771,-2.18025,0.514564,-1.44574,0.091375,0.0651285,-0.310153,0.0410212
-0.173808,0.340865,-2.17908,-0.326734,-1.20038,-0.0577,0.0285694,-0.365862,-0.0999169
-0.18645,0.321028,-2.1875,-1.79451,-0.195725,-0.373872,-0.0267507,-0.29011,-0.221434
-0.169703,0.274373,-2.20616,-2.97,1.32949,-0.471633,-0.0781047,-0.260963,-0.347329
-0.126423,0.211592,-2.22313,-3.3418,2.4287,-0.184773,-0.0769824,-0.152746,-0.535552
-0.0721891,0.146355,-2.23048,-3.10214,2.70209,0.0615775,-0.110667,-0.0849868,-0.635719
-0.0195258,0.0904455,-2.2312,-2.37416,2.49765,0.116791,-0.142665,0.121786,-0.829488
0.0247278,0.0540567,-2.22809,-1.19644,1.82495,0.19446,-0.174424,0.192061,-0.879452
0.0503107,0.0435296,-2.22282,0.117789,0.722229,0.28303,-0.152354,0.102552,-0.829604
0.0536669,0.0572062,-2.21806,1.14491,-0.33752,0.233419,-0.135905,-0.0207212,-0.643485
0.0389197,0.0863233,-2.21678,1.66753,-1.04122,0.0101865,-0.125313,-0.0918541,-0.406089
0.0155122,0.121691,-2.22013,1.81439,-1.25733,-0.229261,-0.106156,-0.128243,-0.14933
-0.00823653,0.158109,-2.22653,1.79637,-1.1668,-0.364641,-0.0757287,-0.128896,0.0817469
-0.028652,0.193747,-2.23372,1.74152,-0.973519,-0.401698,-0.0414528,-0.0897815,0.250022
-0.028652,0.193747,-2.23372,1.74152,-0.973519,-0.401698,-0.0414528,-0.0897815,0.250022
-0.0443885,0.228883,-2.24108,1.73296,-0.744303,-0.444067,-0.00269706,-0.0175251,0.367721
-0.0550404,0.264652,-2.24879,1.79215,-0.504954,-0.470827,0.0377926,0.0649636,0.450401
-0.06085,0.302288,-2.25651,1.89956,-0.286165,-0.486554,0.0813705,0.11759,0.499324
-0.0625203,0.34173,-2.2645,1.94776,-0.146904,-0.514172,0.138273,0.135395,0.52017
-0.0616393,0.380604,-2.27365,1.82644,-0.0873565,-0.582502,0.181872,0.12583,0.498287
-0.0584578,0.414665,-2.28578,1.4475,-0.0747601,-0.75723,0.207449,0.107122,0.460624
-0.0527557,0.43885,-2.30458,0.84687,-0.142581,-1.10384,0.209798,0.143298,0.385671
-0.0439238,0.45179,-2.3332,0.358451,-0.213188,-1.51511,0.193892,0.213707,0.293437
-0.0345671,0.458762,-2.3692,0.28795,-0.449937,-1.67908,0.154781,0.276212,0.192239
-0.0303315,0.468502,-2.40635,0.595912,-0.775106,-1.6369,0.0473379,0.233883,-0.00396222
-0.0323238,0.484054,-2.44316,0.770429,-1.10746,-1.69923,-0.0300648,0.199929,-0.0961817
-0.0382712,0.49718,-2.48431,0.307258,-1.37283,-1.97466,-0.0983743,0.181187,-0.161416
-0.0433377,0.496919,-2.53176,-0.512068,-1.36586,-2.081,-0.152574,0.0345502,-0.191808
-0.0492727,0.479799,-2.57534,-1.41635,-1.22216,-1.60557,-0.22996,-0.270623,-0.208044
-0.0542606,0.438653,-2.60879,-2.92461,-0.662878,-1.23667,-0.351291,-0.274743,-0.232192
-0.0444875,0.364656,-2.6409,-4.48246,0.413787,-1.37516,-0.470567,-0.085434,-0.246777
-0.0176276,0.269231,-2.67408,-4.8738,1.0755,-1.40772,-0.521857,0.0330651,-0.328929
0.00863997,0.17802,-2.70055,-4.07886,0.861287,-1.08459,-0.504963,0.0276821,-0.432787
0.0216611,0.10889,-2.71774,-2.73292,0.146292,-0.753169,-0.480958,0.0311599,-0.497779
0.0179976,0.0676702,-2.73175,-1.38471,-0.623708,-0.791295,-0.422558,0.0537025,-0.42016
-0.000291876,0.0493301,-2.75085,-0.513917,-1.2454,-1.15417,-0.324354,0.0202878,-0.303981
-0.0272528,0.0436377,-2.77773,-0.153868,-1.50021,-1.48268,-0.219282,-0.0682232,-0.13084
-0.0558047,0.0428073,-2.80914,-0.0930698,-1.4296,-1.60412,-0.127289,-0.15525,0.0362097
-0.0813629,0.0427429,-2.84148,-0.152895,-1.20852,-1.59388,-0.0523612,-0.2158,0.161202
-0.100443,0.0413986,-2.8737,-0.280707,-0.792394,-1.58727,0.014388,-0.230327,0.234586
-0.1103,0.038088,-2.90607,-0.365623,-0.328082,-1.5685,0.0716818,-0.21479,0.271507
-0.111954,0.0348054,-2.93769,-0.277311,0.0478904,-1.53314,0.118413,-0.201072,0.269551
-0.106647,0.0353285,-2.96874,0.025369,0.34663,-1.52634,0.162927,-0.172992,0.199677
-0.0970719,0.0430137,-2.99759,0.440788,0.478257,-1.38119,0.20294,-0.178664,0.153475
-0.0852889,0.0571454,-3.02238,0.690853,0.576167,-1.20915,0.239725,-0.18161,0.106341
-0.0705677,0.0729372,-3.04479,0.673602,0.775369,-1.14943,0.268015,-0.133136,0.0133527
-0.0502765,0.0867385,-3.06678,0.557407,1.06334,-1.09058,0.285098,-0.122172,-0.0546551
-0.0251416,0.0967004,-3.08687,0.324809,1.25224,-0.940328,0.291074,-0.141014,-0.133267
0.00449226,0.0993833,-3.10529,-0.0963668,1.54575,-0.922517,0.315034,-0.0837789,-0.232529
0.040511,0.092517,-3.12458,-0.518297,1.80077,-0.995933,0.307711,0.0427176,-0.328885
0.0775678,0.0792461,3.13982,-0.624707,1.67381,-0.909508,0.275384,0.138459,-0.390581
0.108998,0.0673548,3.12498,-0.389872,1.32263,-0.641965,0.2397,0.129468,-0.396815
0.132326,0.0613518,3.11593,-0.127299,0.959589,-0.340473,0.195777,0.0912662,-0.39371
0.149716,0.0594488,3.11162,-0.0312404,0.773255,-0.11589,0.128678,0.0685842,-0.353632
0.164447,0.0593898,3.11146,0.0419958,0.686921,0.10756,0.0537147,0.0323925,-0.302355
0.176222,0.0629001,3.11581,0.241999,0.484028,0.3885,0.00753056,-0.0145646,-0.244179
0.181646,0.0720778,3.12575,0.48367,0.107248,0.754632,-0.013447,-0.0483155,-0.18815
0.177887,0.0874688,-3.14099,0.727677,-0.364983,1.12105,-0.0364727,-0.0439294,-0.114132
0.162844,0.108665,-3.11849,0.974441,-0.917914,1.41363,-0.084387,-0.0118793,-0.056312
0.135491,0.135209,-3.0922,1.24778,-1.48426,1.51024,-0.155023,0.0471205,-0.00403255
0.0972934,0.166355,-3.06644,1.52906,-1.89771,1.32181,-0.229542,0.121994,0.0542086
0.0539395,0.200684,-3.04573,1.70253,-1.98977,0.940282,-0.2898,0.180251,0.113851
0.0539395,0.200684,-3.04573,1.70253,-1.98977,0.940282,-0.2898,0.180251,0.113851
0.0122939,0.236261,-3.03218,1.7649,-1.83306,0.492874,-0.287984,0.167068,0.146844
-0.0220705,0.270219,-3.02608,1.55084,-1.35819,0.0952862,-0.259723,0.159353,0.179664
-0.0425266,0.296678,-3.0255,1.06642,-0.67717,-0.0827195,-0.224145,0.179842,0.189564
-0.0506174,0.313675,-3.0265,0.649163,-0.207294,-0.0875916,-0.191421,0.200341,0.139838
-0.0519594,0.324877,-3.0285,0.500701,-0.019344,-0.186607,-0.1854,0.258249,0.0680082
-0.0499471,0.33578,-3.03458,0.569068,0.0047111,-0.462107,-0.178524,0.322197,0.0248243
-0.0463593,0.348803,-3.04717,0.656573,-0.0778689,-0.773848,-0.152844,0.359458,0.0136934
-0.0427675,0.363161,-3.06557,0.68711,-0.202207,-0.989089,-0.106183,0.344489,0.0350286
-0.040872,0.377961,-3.08723,0.701196,-0.402141,-1.05878,-0.0669733,0.270195,0.0639883
-0.0431812,0.392604,-3.10984,0.621154,-0.665181,-1.10441,-0.0463287,0.167767,0.094838
-0.0483332,0.402406,-3.13528,0.190799,-0.789775,-1.29501,-0.0335325,0.14293,0.132121
-0.0520432,0.40117,3.1172,-0.456591,-0.770202,-1.48373,-0.0448838,0.104454,0.141298
-0.0520574,0.387961,3.08267,-0.997023,-0.531959,-1.58944,-0.0691426,0.0791228,0.155919
-0.0468559,0.366615,3.04744,-1.2234,-0.253648,-1.53015,-0.0923517,0.0665111,0.130108
-0.040035,0.344087,3.01601,-1.11346,-0.191641,-1.27633,-0.10577,0.0135309,0.0869154
-0.0366255,0.324069,2.99131,-0.99092,-0.289771,-0.980433,-0.106188,-0.0211732,0.053391
-0.0380756,0.304215,2.97144,-1.08967,-0.462599,-0.871778,-0.112684,-0.0322428,-0.0120632
-0.042275,0.281087,2.95103,-1.28379,-0.528116,-1.00093,-0.129654,-0.0480852,-0.117496
-0.0477028,0.255054,2.92741,-1.38248,-0.650153,-1.13135,-0.152146,-0.00607938,-0.201817
-0.0562087,0.229262,2.9019,-1.26289,-0.794231,-1.20293,-0.151056,0.0452218,-0.232049
-0.0674931,0.208655,2.87492,-0.915114,-0.897812,-1.25511,-0.13031,0.0739499,-0.197653
-0.0817201,0.197635,2.84978,-0.32517,-1.04903,-1.07208,-0.086128,0.069001,-0.107455
-0.101954,0.199798,2.83103,0.358537,-1.3197,-0.768688,-0.00736382,0.0288544,0.00641984
-0.128014,0.213666,2.81941,0.831195,-1.48021,-0.533109,0.070623,-0.0329052,0.13737
-0.157138,0.233243,2.81293,0.950265,-1.53565,-0.377113,0.135897,-0.0806944,0.24307
-0.186425,0.25137,2.80931,0.719698,-1.43119,-0.283363,0.196505,-0.128299,0.312462
-0.211507,0.262131,2.8059,0.233716,-1.12549,-0.257352,0.235584,-0.143678,0.356884
-0.228344,0.262259,2.80027,-0.338132,-0.680415,-0.273614,0.245465,-0.120453,0.385241
-0.235108,0.252724,2.79218,-0.718625,-0.214712,-0.249254,0.233972,-0.0934326,0.390435
-0.233536,0.23822,2.78408,-0.831354,0.166122,-0.169337,0.223602,-0.0653118,0.381095
-0.225199,0.222763,2.77754,-0.79097,0.506895,-0.102847,0.221628,-0.0158764,0.361996
-0.211174,0.208985,2.77281,-0.629613,0.769288,-0.0451929,0.220199,0.0205469,0.320753
-0.194124,0.199229,2.77065,-0.342513,0.849703,0.0416934,0.21851,0.0216746,0.263291
-0.178092,0.195599,2.77183,0.00154398,0.741326,0.130079,0.208503,0.0118589,0.21093
-0.165545,0.197551,2.77485,0.199798,0.566885,0.101214,0.188792,0.0235391,0.150479
-0.155338,0.201384,2.77624,0.16837,0.501701,-0.0353718,0.137763,0.062895,0.108237
-0.14438,0.204178,2.77474,0.100491,0.582839,-0.133054,0.0917727,0.105869,0.0798334
-0.131288,0.207846,2.77306,0.301394,0.655414,-0.0338078,0.0539971,0.0874714,0.023005
-0.120672,0.218193,2.77689,0.771687,0.457852,0.287801,0.0207849,-0.0352125,-0.0841237
-0.115727,0.234308,2.78723,0.826034,0.283983,0.469955,0.0119412,-0.125847,-0.209917
-0.111419,0.243686,2.796,0.0649748,0.417851,0.179534,-0.0110536,-0.0654661,-0.307901
-0.0969975,0.232728,2.79253,-1.19461,0.965143,-0.380899,-0.0600622,0.122448,-0.349373
-0.070792,0.200336,2.78033,-1.97728,1.29379,-0.406698,-0.0990777,0.145486,-0.425027
-0.044884,0.160292,2.77351,-1.94561,1.10651,-0.0710266,-0.10744,0.146392,-0.453083
-0.0258089,0.124344,2.77334,-1.59416,0.819949,0.203551,-0.148221,0.198594,-0.393732
-0.0140445,0.0989047,2.78045,-0.872848,0.353037,0.54233,-0.132646,0.131046,-0.279415
-0.0146364,0.0887475,2.7941,-0.154728,-0.302284,0.797564,-0.0818114,-0.0202557,-0.179091
-0.028851,0.0894613,2.81078,0.183702,-0.950334,0.815311,-0.0299688,-0.130598,-0.0929297
-0.028851,0.0894613,2.81078,0.183702,-0.950334,0.815311,-0.0299688,-0.130598,-0.0929297
-0.0537739,0.0916489,2.82573,0.0117039,-1.3024,0.63696,-0.00740584,-0.188387,-0.0103207
-0.0803603,0.0866106,2.83542,-0.462439,-1.21962,0.339698,0.0216539,-0.210556,0.0584052
-0.102369,0.0720729,2.83773,-0.955418,-0.907755,0.0494451,0.0362972,-0.202388,0.0810648
-0.115853,0.0496138,2.83521,-1.23122,-0.455841,-0.0127529,0.039478,-0.147474,0.0911649
-0.121202,0.025737,2.8331,-1.09112,-0.111667,0.103605,0.0520481,-0.0921401,0.0783491
-0.121696,0.00770282,2.8347,-0.637318,0.0227116,0.271321,0.0865872,-0.0629303,0.0696163
-0.122363,-0.000229617,2.8404,-0.0867162,-0.126453,0.372569,0.131427,-0.0555276,0.0661313
-0.128147,0.00194445,2.84907,0.386697,-0.434653,0.431478,0.160893,-0.0529415,0.0920182
-0.139058,0.0117457,2.85879,0.675051,-0.613602,0.382738,0.170262,-0.065632,0.14424
-0.152088,0.0257476,2.86748,0.81609,-0.649122,0.262526,0.164209,-0.0606964,0.204392
-0.164675,0.042446,2.87416,0.922057,-0.567286,0.134981,0.157452,-0.0600754,0.235354
-0.174629,0.061074,2.87909,0.9722,-0.378589,0.0421074,0.155169,-0.045211,0.245605
-0.180213,0.0798463,2.88294,0.91468,-0.150314,0.015756,0.147876,-0.0163538,0.234852
-0.180989,0.0965155,2.88636,0.771889,0.110153,0.0114403,0.129437,0.0353916,0.203148
-0.176905,0.110981,2.88929,0.734502,0.29163,0.0336725,0.101262,0.095388,0.134801
-0.171539,0.127415,2.89403,0.99454,0.280297,0.164046,0.0449712,0.0506695,0.0123854
-0.169005,0.150394,2.90269,1.39425,0.0619307,0.263933,-0.00808921,-0.0299357,-0.126922
-0.172237,0.178927,2.91186,1.46,-0.261714,0.100652,-0.0721938,-0.0471546,-0.199668
-0.180275,0.202349,2.91387,0.758154,-0.372234,-0.364374,-0.171419,0.0339021,-0.23745
-0.180014,0.209588,2.90255,-0.223321,0.228378,-0.759041,-0.192825,0.0423315,-0.193206
-0.166259,0.20099,2.88839,-0.778162,0.793706,-0.325088,-0.192009,-0.178473,-0.257672
-0.14567,0.182013,2.88543,-1.16417,1.20926,0.263538,-0.192173,-0.235281,-0.306705
-0.116946,0.151975,2.88808,-1.76129,1.68934,0.319727,-0.225638,-0.0420446,-0.339384
-0.0804353,0.113164,2.88992,-1.94015,1.90542,0.257658,-0.240676,0.0868914,-0.373149
-0.044793,0.0786116,2.89383,-1.38935,1.5742,0.370356,-0.208351,0.0869839,-0.392394
-0.0215505,0.0588814,2.90325,-0.524519,0.766242,0.627025,-0.204837,0.0602817,-0.393383
-0.0160799,0.0565053,2.91678,0.24495,-0.105759,0.66733,-0.200057,0.0272851,-0.330796
-0.0251945,0.065188,2.92768,0.565708,-0.675425,0.359994,-0.218911,0.0337697,-0.212508
-0.0414059,0.0769951,2.93144,0.603126,-0.83463,-0.0162719,-0.240085,0.0238183,-0.0656916
-0.0566125,0.0896583,2.92891,0.636821,-0.654384,-0.271216,-0.234462,-0.00683635,0.0828583
-0.0654998,0.103118,2.92356,0.678634,-0.28301,-0.305706,-0.199162,-0.0215607,0.198549
-0.0678577,0.118237,2.91972,0.795992,-0.0041334,-0.162218,-0.149251,-0.0395397,0.27592
-0.0662836,0.135673,2.91888,0.919875,0.131435,-0.0564433,-0.104677,-0.033795,0.3109
-0.0636791,0.155123,2.91908,0.999267,0.102069,-0.0580132,-0.0655154,-0.0105532,0.335126
-0.0634413,0.175741,2.91904,1.037,-0.0550179,-0.0991434,-0.0387434,0.00122346,0.344784
-0.0654736,0.196123,2.91712,0.942544,-0.179478,-0.2217,-0.00987826,0.0112285,0.335387
-0.0691468,0.213187,2.91283,0.699794,-0.275979,-0.287037,0.0146255,0.0151192,0.339345
-0.0740485,0.224257,2.90795,0.362671,-0.275,-0.262505,0.0178682,0.0211793,0.337065
-0.076987,0.228811,2.9029,0.0795756,-0.127971,-0.261884,-0.000578769,0.076276,0.303831
-0.0773373,0.229858,2.89761,0.0285689,-0.041694,-0.251849,-0.0223364,0.122782,0.262079
-0.0770996,0.232148,2.89295,0.183029,-0.055577,-0.212552,-0.0341584,0.149135,0.232567
-0.0778915,0.238093,2.88944,0.376575,-0.100312,-0.169893,-0.0226184,0.148722,0.207994
-0.0799173,0.247679,2.8874,0.555593,-0.150567,-0.0814605,-0.00414679,0.089026,0.173253
-0.0816379,0.26015,2.88832,0.681388,0.11333,0.051239,-0.0243155,-0.0471417,0.123304
-0.0711909,0.274022,2.89011,0.654745,1.03709,-0.0315149,-0.0719802,-0.0941405,0.0451975
-0.0419466,0.282459,2.88699,0.0806292,1.70403,-0.339941,-0.0614883,0.0374457,-0.0975243
-0.000957242,0.275217,2.87632,-0.808903,2.02821,-0.65392,0.0149594,0.118878,-0.231283
-0.000957242,0.275217,2.87632,-0.808903,2.02821,-0.65392,0.0149594,0.118878,-0.231283
0.0427803,0.252962,2.86197,-1.27568,1.84884,-0.705636,0.107733,0.0665573,-0.363643
0.0749738,0.226283,2.85112,-1.27623,0.990694,-0.512311,0.144551,-0.0320973,-0.465425
0.0846645,0.19988,2.8425,-1.29533,-0.157625,-0.608371,0.131934,-0.00602278,-0.493406
0.078947,0.171655,2.82781,-1.3804,-0.546398,-1.07216,0.0764536,0.0687778,-0.381581
0.0730282,0.14276,2.80537,-1.27843,-0.349017,-1.26582,0.0261219,0.0413536,-0.258157
0.0713326,0.118598,2.78335,-0.969398,-0.0686946,-1.02063,0.023711,-0.068096,-0.179014
0.0739767,0.0993838,2.76844,-0.876739,0.150196,-0.592296,0.0519591,-0.168022,-0.1441
0.0791368,0.0798306,2.76058,-1.0317,0.288904,-0.382197,0.0877778,-0.179989,-0.105548
0.0864517,0.0563795,2.7545,-1.23279,0.379201,-0.446624,0.0886284,-0.145494,-0.0987166
0.0944085,0.0301135,2.74657,-1.26219,0.375886,-0.549954,0.101911,-0.0935636,-0.119025
0.101437,0.00600199,2.73862,-0.99817,0.273009,-0.434681,0.121974,-0.0755564,-0.115769
0.104344,-0.00942856,2.73422,-0.454005,-0.000358924,-0.152592,0.116782,-0.0729508,-0.0902914
0.10081,-0.0124985,2.734,0.13711,-0.348832,0.0795956,0.106705,-0.0434889,-0.0383731
0.0905879,-0.00448323,2.7362,0.607898,-0.646157,0.197833,0.111548,-0.0294009,0.0313664
0.0755604,0.011129,2.73935,0.881747,-0.82437,0.239267,0.114244,-0.0177409,0.106399
0.0584039,0.0307774,2.74303,1.02355,-0.851089,0.256931,0.115058,-0.00250699,0.172642
0.0419212,0.0522647,2.74735,1.08082,-0.756212,0.277713,0.108753,0.0291238,0.230332
0.027568,0.0746003,2.75212,1.12715,-0.649188,0.258965,0.098855,0.0639872,0.26216
0.0150435,0.0982465,2.75599,1.22598,-0.568183,0.162418,0.0826249,0.116109,0.283914
0.00348839,0.124198,2.75775,1.35012,-0.569552,0.0295962,0.0752129,0.161781,0.314099
-0.0078074,0.152155,2.75692,1.41792,-0.551201,-0.112654,0.0829125,0.188861,0.363111
-0.0174438,0.180759,2.75384,1.4152,-0.446677,-0.21553,0.102471,0.190763,0.414039
-0.0242513,0.208954,2.74964,1.3715,-0.315897,-0.246236,0.112146,0.195168,0.442774
-0.0287876,0.236022,2.74554,1.31471,-0.21698,-0.207831,0.113221,0.184673,0.416667
-0.0311138,0.261637,2.74346,1.19212,-0.0590338,-0.0643562,0.110571,0.0597334,0.333405
-0.0297677,0.281711,2.74339,0.736232,0.224925,-0.033708,0.114955,-0.0581517,0.21603
-0.0205718,0.287833,2.74111,-0.206536,0.639567,-0.254842,0.0961402,-0.160003,0.128351
0.000620008,0.272374,2.72969,-1.30436,1.16655,-0.881148,0.0200786,-0.0665072,0.0248567
0.0358328,0.240296,2.70448,-1.64438,1.78023,-1.61129,-0.0717677,0.118545,-0.0889873
0.0806812,0.208401,2.66906,-1.32697,1.71655,-1.85102,-0.0098496,-0.0573406,-0.300882
0.109434,0.178391,2.63894,-1.49745,0.416029,-1.28719,0.0477906,-0.305143,-0.443845
0.109332,0.138263,2.62329,-2.32546,-0.358338,-0.750351,0.035894,-0.234278,-0.477646
0.104938,0.0864293,2.61597,-2.55741,-0.21234,-0.543283,-0.105637,-0.0431339,-0.536038
0.0969777,0.0396638,2.61157,-1.96897,-0.733418,-0.343596,-0.266702,0.046825,-0.705311
0.0750484,0.00732587,2.61002,-1.19942,-1.36763,-0.114879,-0.279001,0.0137649,-0.591144
0.047373,-0.00840485,2.60986,-0.38616,-1.28768,-0.00605449,-0.241979,-0.0480166,-0.296796
0.0255153,-0.0106899,2.61078,0.0723578,-0.841493,0.07151,-0.203337,-0.097497,-0.151353
0.0136086,-0.00862637,2.61198,0.0719507,-0.375317,0.0190076,-0.193555,-0.0583547,-0.0921555
0.00982698,-0.00946438,2.60976,-0.16813,-0.0268525,-0.285316,-0.123642,0.0197563,-0.101839
0.0118917,-0.0150215,2.60013,-0.353751,0.26216,-0.653839,-0.0815159,0.0729917,-0.0564579
0.0184316,-0.0219652,2.58539,-0.272028,0.380176,-0.784488,-0.0476771,0.00864564,0.0509195
0.025004,-0.0243981,2.57004,0.0989052,0.282132,-0.719175,-0.053894,-0.0585754,0.154633
0.0284006,-0.0177191,2.55692,0.602207,0.11074,-0.570998,-0.0450701,-0.104724,0.182225
0.0301357,-0.00107425,2.54596,1.06907,0.0709323,-0.481881,-0.0401103,-0.0951295,0.211032
0.0309465,0.023861,2.53571,1.41919,0.00233128,-0.475126,-0.0318482,-0.0876373,0.223449
0.0305691,0.0549993,2.52463,1.70481,-0.0921361,-0.531051,-0.0744786,-0.0894377,0.235418
0.0290142,0.0909227,2.51195,1.88167,-0.126942,-0.626701,-0.095739,-0.0772629,0.231687
0.0294466,0.128929,2.49704,1.92137,0.0299861,-0.728077,-0.0999071,-0.0460647,0.224898
0.0294466,0.128929,2.49704,1.92137,0.0299861,-0.728077,-0.0999071,-0.0460647,0.224898
0.03464,0.166666,2.48108,1.8707,0.267356,-0.695006,-0.120533,-0.0431806,0.217104
0.0453739,0.2031,2.46752,1.80993,0.554976,-0.457503,-0.122139,-0.0493007,0.224394
0.0605931,0.238637,2.45942,1.69555,0.729351,-0.146797,-0.102037,-0.0669968,0.231307
0.0737494,0.270178,2.45662,1.50187,0.488554,0.0591936,-0.0807293,-0.0697367,0.134154
0.0813578,0.30019,2.45585,1.49637,0.269406,0.0721812,-0.0466126,-0.0677929,0.183459
0.0864173,0.330531,2.45365,1.52008,0.184468,-0.0324755,-0.0402407,-0.0474644,0.21883
0.0907533,0.360933,2.4487,1.53553,0.0644549,-0.171795,-0.0461235,-0.0507533,0.174104
0.0944926,0.391504,2.44083,1.55321,0.0921149,-0.238511,-0.040582,-0.0622836,0.0338753
0.102725,0.421279,2.43395,1.41462,0.493442,-0.0590469,-0.0158346,-0.102577,0.0665239
0.117557,0.445682,2.4328,0.967327,0.903024,0.213485,0.00842798,-0.173052,0.0584578
0.134711,0.459729,2.43697,0.379557,0.890803,0.27502,0.0683153,-0.208028,-0.0262074
0.147539,0.463039,2.44107,-0.0695478,0.585118,0.127354,0.109503,-0.160752,-0.200547
0.157598,0.459783,2.44318,-0.232779,0.543162,0.0279351,0.116494,-0.132113,-0.218045
0.167868,0.454795,2.44467,-0.304789,0.505506,0.0331415,0.125888,-0.123573,-0.20766
0.172598,0.445236,2.44708,-0.730596,-0.00913277,-0.0161117,0.11113,-0.13392,-0.284133
0.164874,0.424136,2.44802,-1.33859,-0.66293,-0.2848,0.087887,-0.106884,-0.413587
0.153021,0.393002,2.4435,-1.56354,-0.558675,-0.586653,0.0510292,-0.022737,-0.420283
0.151219,0.363606,2.4347,-1.1171,0.0747937,-0.601353,0.0309125,0.0152992,-0.342937
0.16122,0.347282,2.42684,-0.370638,0.600694,-0.370092,0.0215307,-0.0535013,-0.282036
0.1778,0.345019,2.42053,0.165049,0.769749,-0.289885,0.0487682,-0.097973,-0.200735
0.193333,0.348676,2.41308,0.260159,0.459412,-0.329655,0.0518066,-0.0934049,-0.13524
0.199592,0.351594,2.4064,0.13911,0.00452073,-0.170971,0.0536362,-0.100674,-0.080408
0.200626,0.352361,2.40708,-0.155657,-0.158861,0.216048,0.0656768,-0.189599,0.14851
0.18071,0.34778,2.41498,-0.259094,-1.14166,0.43388,0.0995869,-0.0453276,-0.113065
0.157813,0.348556,2.42596,0.167537,-0.821886,0.574557,0.0315065,-0.00600857,0.334331
0.137986,0.35867,2.43724,0.682148,-0.762771,0.577971,-0.0315669,0.0458684,0.281377
0.120969,0.379013,2.4447,1.20059,-0.705014,0.327503,-0.0744057,0.11892,0.315582
0.104602,0.406449,2.44406,1.48665,-0.980232,-0.0831021,-0.0457339,0.173655,0.329648
0.0860484,0.436488,2.43478,1.51804,-1.21901,-0.456913,0.0372432,0.0975942,0.352077
0.0681759,0.46386,2.41888,1.26847,-1.17648,-0.740412,0.0334358,0.0759439,0.371808
0.0573848,0.483509,2.39843,0.760556,-0.799556,-0.9321,0.00261174,0.0790249,0.390137
0.0570559,0.492208,2.37569,0.228762,-0.291456,-0.992263,-0.0400321,0.0938959,0.391576
0.0667993,0.491872,2.3532,-0.10573,0.182757,-0.96866,-0.0737289,0.122546,0.371428
0.0829126,0.486722,2.33193,-0.249094,0.34467,-0.940977,-0.0673712,0.137363,0.30303
0.0977156,0.480133,2.3114,-0.203036,0.162799,-0.917363,-0.0224882,0.10684,0.205731
0.108226,0.476414,2.29145,0.0314178,-0.0577279,-0.873374,0.0483766,0.00167137,0.120094
0.113099,0.478569,2.27187,0.403208,-0.2973,-0.824261,0.133845,-0.159943,-0.0101673
0.11487,0.48806,2.2518,0.689343,-0.491816,-0.836054,0.144645,-0.215764,-0.0847807
0.110792,0.497782,2.23039,0.350289,-0.985633,-0.934633,-0.00255875,-0.137955,-0.196156
0.096562,0.493668,2.20749,-0.548248,-1.38746,-1.07089,-0.115967,-0.0808741,-0.280164
0.0841566,0.476102,2.18671,-0.90027,-0.639714,-0.829437,-0.169405,-0.178187,-0.219277
0.0839683,0.457876,2.17518,-0.822988,-0.058195,-0.344237,-0.209691,-0.222461,-0.358578
0.0868478,0.440385,2.17172,-0.951426,0.167242,-0.197396,-0.22603,-0.19029,-0.367041
0.0899117,0.415746,2.16735,-1.483,-0.0965502,-0.453665,-0.253467,-0.146238,-0.466443
0.0891635,0.381097,2.1572,-1.77382,-0.325699,-0.751258,-0.250671,-0.133798,-0.485922
0.0876547,0.347016,2.14402,-1.39795,-0.243535,-0.711988,-0.298007,-0.0896862,-0.470445
0.0893345,0.325692,2.13321,-0.615159,0.10448,-0.476642,-0.313758,-0.0383273,-0.407545
0.0975751,0.32079,2.12583,0.144826,0.463196,-0.280957,-0.272474,-0.0411595,-0.282059
0.0975751,0.32079,2.12583,0.144826,0.463196,-0.280957,-0.272474,-0.0411595,-0.282059
0.110806,0.328119,2.11979,0.567714,0.609132,-0.231524,-0.200993,-0.0494109,-0.108075
0.123675,0.339386,2.11322,0.567089,0.439806,-0.252425,-0.131109,-0.0711746,0.0257531
0.133511,0.347965,2.10704,0.329776,0.357587,-0.194275,-0.0973962,-0.101153,0.164628
0.141766,0.351858,2.10355,0.140579,0.379963,-0.0874987,-0.0762689,-0.0740736,0.225825
0.152435,0.356059,2.10076,0.350093,0.530232,-0.137819,-0.0447417,0.0103261,0.322024
0.161974,0.365423,2.09584,0.605502,0.171116,-0.168151,-0.025985,-0.037156,0.265604
0.162249,0.377501,2.09025,0.631458,-0.283451,-0.156828,-0.0166803,-0.071831,0.277472
0.154826,0.387811,2.08504,0.419606,-0.590847,-0.148323,-0.0257064,-0.0960193,0.272271
0.143636,0.391616,2.08116,-0.0137736,-0.652268,-0.178287,-0.0405548,-0.129151,0.237285
0.131321,0.386343,2.07656,-0.434314,-0.686494,-0.297069,-0.012009,-0.140256,0.135649
