attitude_roll,attitude_pitch,attitude_yaw,rotationRate_x,rotationRate_y,rotationRate_z,acceleration_x,acceleration_y,acceleration_z
0.156378,0.342875,-0.0271284,-0.142645,-0.21391,0.719007,0.0684579,-0.0598302,0.0763724
0.1421,0.341845,-0.0116053,-0.160362,-0.647628,0.71558,0.0364329,-0.0251562,0.0947359
0.123191,0.34111,0.00346043,-0.100039,-0.722494,0.651845,0.0068047,-0.0566711,0.157059
0.103517,0.340823,0.0154597,-0.0646429,-0.810545,0.460161,0.0226825,-0.0408743,0.152523
0.0858797,0.340194,0.023948,-0.078382,-0.622499,0.355228,0.00820702,-0.041986,0.159934
0.073124,0.338109,0.0313423,-0.175134,-0.485241,0.325726,-0.0295091,-0.0176465,0.143301
0.0618447,0.33617,0.0388156,-0.0253775,-0.324711,0.363983,-0.0225639,0.019968,0.0964866
0.0553228,0.338724,0.0465685,0.235652,-0.0736231,0.372771,0.0396136,0.00617316,0.183222
0.0538065,0.345526,0.0537039,0.376541,0.132592,0.320528,0.0682182,-0.00533268,0.193762
0.0553059,0.353527,0.0593242,0.381355,0.203973,0.253324,0.0801446,0.000459611,0.182924
0.058666,0.360964,0.0642353,0.328062,0.305626,0.25307,0.0820479,-0.0132634,0.203173
0.0633546,0.367161,0.0695685,0.263568,0.347171,0.281079,0.0874987,-0.0208238,0.199864
0.0688651,0.372332,0.0755916,0.210476,0.411548,0.313551,0.0910097,-0.0131947,0.198271
0.074816,0.376406,0.0825192,0.150548,0.432002,0.362753,0.0737056,-0.00822821,0.183875
0.0808955,0.37986,0.0907484,0.144935,0.466696,0.418477,0.0455126,-0.0133644,0.168538
0.0864206,0.38416,0.0997126,0.226062,0.396948,0.439043,0.0328625,-0.00122616,0.161263
0.0893637,0.39051,0.108565,0.329928,0.206964,0.425292,-0.00229539,0.0146778,0.139211
0.0863635,0.398436,0.116634,0.369838,-0.270196,0.376812,-0.053697,0.0572125,0.118628
0.0702873,0.40638,0.124048,0.353787,-1.04984,0.382913,-0.0475421,0.103768,0.0573267
0.0370258,0.414174,0.134446,0.370375,-1.80665,0.65895,0.0253776,0.0644825,0.0809134
-0.0116207,0.420275,0.153317,0.142604,-2.23658,1.04691,0.128407,-0.0749441,0.11041
-0.0699058,0.416341,0.177051,-0.495727,-2.57443,1.03489,0.215249,-0.198366,0.00918853
-0.127272,0.399938,0.194072,-0.859801,-2.23133,0.658606,0.173415,-0.211591,-0.207535
-0.15865,0.384512,0.203017,-0.520313,-0.460258,0.403152,-0.0350539,-0.173172,-0.178105
-0.15939,0.372306,0.205494,-0.833843,0.171119,-0.0552898,-0.119537,-0.261922,-0.221887
-0.152693,0.346428,0.193008,-1.87983,0.150021,-0.65542,-0.268847,0.0705889,-0.477472
-0.136699,0.30586,0.170022,-2.25909,0.795476,-0.809246,-0.351741,0.187665,-0.418192
-0.106715,0.266671,0.150841,-1.74018,1.59469,-0.473871,-0.254903,0.0194727,-0.345644
-0.0704178,0.238767,0.143355,-1.11932,1.6893,-0.00155857,-0.158748,-0.135489,-0.32219
-0.0409232,0.220596,0.145621,-0.694085,1.27557,0.270207,-0.179028,-0.142013,-0.328562
-0.0217668,0.209873,0.150041,-0.35698,0.664093,0.121552,-0.265868,-0.0872572,-0.219516
-0.0162646,0.206428,0.147737,0.0264898,-0.117011,-0.360384,-0.247265,-0.070273,-0.188459
-0.0200196,0.211095,0.135757,0.394617,-0.412937,-0.781664,-0.194064,-0.0898009,-0.0631959
-0.0233716,0.221522,0.117909,0.575483,-0.253909,-0.928311,-0.142241,-0.0552792,0.0998247
-0.021176,0.233818,0.0997265,0.579608,0.0635884,-0.82733,-0.0748455,-0.0459249,0.215338
-0.0138171,0.244597,0.0848312,0.453935,0.29261,-0.629652,-0.0248789,-0.055885,0.277561
-0.00469516,0.25218,0.0734664,0.305083,0.323683,-0.48412,0.00772045,-0.0398368,0.284217
0.00395251,0.257925,0.0645377,0.271437,0.300636,-0.391495,0.023171,-0.044791,0.29243
0.0111076,0.263134,0.0564253,0.244176,0.183462,-0.39751,0.0152454,-0.0261159,0.28922
0.0151028,0.267562,0.0477746,0.215078,-0.00212568,-0.422045,0.0248791,-0.00827777,0.25186
0.0161907,0.271557,0.0392192,0.184052,-0.109765,-0.382179,0.023481,0.00102016,0.231493
0.0145475,0.274395,0.032246,0.105684,-0.263022,-0.272015,0.00937369,0.0456685,0.200021
0.00912512,0.276739,0.0282768,0.16515,-0.343974,-0.0969402,0.0102194,0.0640227,0.127698
0.00325761,0.282137,0.0282831,0.392425,-0.222219,0.0982797,-0.00769122,0.0776951,0.120217
-0.000848046,0.293302,0.0320418,0.724274,-0.0913716,0.249212,-0.0336731,0.0900637,0.123569
-0.00417235,0.310979,0.038387,1.01556,-0.0595713,0.339739,-0.0463208,0.0875767,0.13797
-0.0089065,0.332136,0.0459015,1.02454,-0.233931,0.334925,-0.0736574,0.105177,0.162809
-0.0206821,0.348931,0.0522159,0.622412,-0.746873,0.236973,-0.0844322,0.187108,0.0834433
-0.0405849,0.358558,0.0571706,0.44722,-0.981076,0.213854,-0.0568094,0.206104,0.00666225
-0.0604845,0.371838,0.0631242,0.992175,-0.746785,0.283291,-0.000781685,0.142839,0.00498486
-0.0757655,0.398214,0.0729217,1.63147,-0.372837,0.450473,0.0619121,0.0611127,-0.00609082
-0.0858005,0.430723,0.0876976,1.57008,-0.109468,0.603233,0.114367,-0.0361162,0.0210901
-0.0966304,0.45465,0.102936,0.87216,-0.369952,0.513608,0.165018,-0.0711977,-0.0434594
-0.0966304,0.45465,0.102936,0.87216,-0.369952,0.513608,0.165018,-0.0711977,-0.0434594
-0.111636,0.463122,0.113634,0.0773737,-0.602506,0.359823,0.166854,-0.0888552,-0.107672
-0.126848,0.457677,0.119658,-0.500204,-0.646954,0.232874,0.170663,-0.206969,-0.144611
-0.141673,0.444263,0.120046,-0.798038,-0.822066,-0.0522642,0.182791,-0.297441,-0.228479
-0.155716,0.425509,0.112025,-1.19654,-0.852984,-0.377026,0.0977706,-0.173427,-0.300585
-0.16116,0.39745,0.0953681,-1.76936,-0.244908,-0.666074,0.0163177,-0.0745714,-0.337059
-0.149785,0.363603,0.0741838,-1.76351,0.583974,-0.691294,0.0361825,-0.11335,-0.349433
-0.124903,0.333907,0.0569545,-1.35526,1.26294,-0.454208,0.0846628,-0.137412,-0.364517
-0.0938931,0.312342,0.0490697,-0.880155,1.48622,-0.0420146,0.110917,-0.131555,-0.326379
-0.0660278,0.29789,0.0506095,-0.564078,1.28058,0.273686,0.112512,-0.119018,-0.271009
-0.0464685,0.289209,0.0573347,-0.256038,0.838603,0.388887,0.0995916,-0.10482,-0.192239
-0.035526,0.287121,0.0653063,0.0724456,0.507117,0.365388,0.0800087,-0.106211,-0.0972977
-0.0292195,0.290958,0.0723993,0.318711,0.335673,0.292863,0.0479917,-0.0655164,0.0218306
-0.0245328,0.299086,0.0777681,0.486743,0.323653,0.197738,0.0432167,-0.0419775,0.121792
-0.0175803,0.309507,0.0815396,0.540508,0.480017,0.151821,0.037374,-0.00626314,0.237127
-0.00798852,0.320253,0.0850358,0.524469,0.579168,0.171204,0.0433488,0.0176418,0.301848
0.0031712,0.329697,0.0887953,0.389124,0.646213,0.165032,0.0410212,0.0240281,0.342742
0.0153953,0.335462,0.0910868,0.180338,0.616581,0.0320754,0.0313008,0.0411964,0.347268
0.0271264,0.337655,0.0890387,0.0635305,0.491803,-0.236885,0.0271428,0.0480874,0.30923
0.0396029,0.338629,0.0804724,0.0828385,0.459688,-0.556018,0.00374773,0.0940049,0.295163
0.0529756,0.341566,0.0658747,0.303406,0.386219,-0.778031,-0.00205568,0.143831,0.263602
0.0666104,0.349715,0.0474801,0.600138,0.367975,-0.87576,0.00939766,0.138834,0.264215
0.0814438,0.361985,0.0268039,0.717864,0.382679,-0.95563,0.000608936,0.148641,0.29408
0.0968016,0.374129,0.00422353,0.662987,0.324751,-1.01541,0.000596046,0.155531,0.293626
0.111264,0.384428,-0.0192326,0.576042,0.243824,-1.03218,-0.010981,0.155638,0.263291
0.12336,0.392557,-0.0425035,0.496293,0.065302,-0.98073,-0.0495699,0.203674,0.201031
0.131395,0.401633,-0.0639211,0.711592,-0.0667555,-0.836964,-0.0590833,0.169044,0.0987843
0.137255,0.418434,-0.0828752,1.18101,-0.116024,-0.657692,-0.018331,0.00723669,0.0400664
0.1404,0.443313,-0.100318,1.40693,-0.340276,-0.595014,0.038642,-0.181051,0.00243318
0.136484,0.464897,-0.118071,0.782071,-0.839489,-0.689903,0.0194168,-0.204944,-0.0592842
0.124493,0.466356,-0.135511,-0.447276,-1.01173,-0.828978,-0.0499531,-0.150967,-0.168235
0.116441,0.446409,-0.151934,-1.22268,-0.465162,-0.823957,-0.0324666,-0.227145,-0.207773
0.11734,0.417792,-0.164687,-1.42748,-0.0272033,-0.633728,-0.00174607,-0.273303,-0.326078
0.122015,0.387474,-0.171345,-1.46169,0.218145,-0.310005,-0.0428349,-0.105014,-0.453896
0.128284,0.360549,-0.170707,-1.1355,0.40794,0.0275608,-0.0547048,-0.0578718,-0.506922
0.134535,0.343349,-0.164652,-0.661901,0.386937,0.298403,-0.0245247,-0.0740932,-0.467572
0.137488,0.333336,-0.154751,-0.509067,0.220904,0.463814,-0.0343879,-0.078549,-0.36723
0.136573,0.32353,-0.143799,-0.614273,0.048495,0.376913,-0.0696983,-0.0596326,-0.24029
0.135179,0.311488,-0.137281,-0.630205,0.0558858,0.0561893,-0.094393,-0.0223823,-0.138073
0.138107,0.299764,-0.137685,-0.510834,0.224533,-0.223814,-0.081587,0.00011313,-0.009547
0.145721,0.290812,-0.141823,-0.310178,0.405258,-0.247308,-0.0356242,0.0202813,0.100491
0.155195,0.286471,-0.14424,-0.0904295,0.42768,-0.0164847,0.00155285,0.0224985,0.216639
0.161103,0.286683,-0.141334,0.0449088,0.220868,0.286862,0.0219817,0.0122032,0.29691
0.160624,0.289189,-0.133431,0.0654946,-0.0355811,0.46665,0.0152407,0.000644505,0.351869
0.154955,0.291638,-0.123898,0.0297697,-0.236814,0.441966,-0.00314967,-0.00753736,0.387445
0.147106,0.292926,-0.116167,-0.0177643,-0.300971,0.294261,-0.0128608,-0.0209835,0.39503
0.140161,0.292774,-0.111454,-0.0628066,-0.249345,0.155893,-0.0236049,-0.0172382,0.382231
0.135178,0.291489,-0.108693,-0.101884,-0.165411,0.100429,-0.0140157,-0.0329491,0.337614
0.131766,0.288704,-0.106334,-0.195421,-0.116895,0.0917454,-0.00354156,-0.0457801,0.274507
0.129122,0.285216,-0.103631,-0.159453,-0.0563254,0.121302,-0.0122485,-0.0243298,0.172712
0.127891,0.283512,-0.100628,-0.0408707,0.0165541,0.131455,-0.0396723,0.0119377,0.100614
0.128261,0.284848,-0.0981194,0.187851,0.0587366,0.134003,-0.0593709,0.0630703,0.0200585
0.128261,0.284848,-0.0981194,0.187851,0.0587366,0.134003,-0.0593709,0.0630703,0.0200585
0.128856,0.294402,-0.0956419,0.749895,0.12511,0.243772,-0.0509952,0.0819155,-0.0698482
0.132974,0.31414,-0.0911532,1.04259,0.430031,0.423955,-0.0449934,0.0520561,-0.0346437
0.142443,0.333649,-0.0846983,0.709373,0.681043,0.406313,0.00577424,-0.0421053,-0.0364413
0.154571,0.342163,-0.0801924,0.0625786,0.605734,0.0840244,0.0622284,-0.154586,-0.113054
0.164119,0.338479,-0.0837827,-0.285314,0.182543,-0.500343,0.00666919,-0.0763944,-0.255556
0.167857,0.331161,-0.0995532,-0.140265,-0.290791,-1.04314,-0.0423003,0.0442425,-0.402251
0.16701,0.325993,-0.123268,-0.051869,-0.533619,-1.18342,-0.0124295,0.0655954,-0.437292
0.162425,0.318381,-0.146366,-0.398381,-0.614424,-1.07335,0.0465645,0.0315049,-0.449094
0.156925,0.302041,-0.164979,-0.915664,-0.477634,-0.929245,0.072854,0.0268248,-0.429025
0.154429,0.278275,-0.179637,-1.1265,-0.159942,-0.819878,0.0567373,0.0579618,-0.400666
0.158141,0.255522,-0.191983,-0.886056,0.183159,-0.694623,0.053945,0.0441476,-0.334245
0.165019,0.238987,-0.202307,-0.602769,0.178094,-0.549156,0.0806168,-0.0125034,-0.258097
0.16722,0.22685,-0.210077,-0.491326,-0.166809,-0.39603,0.111565,-0.0665636,-0.187848
0.161649,0.216169,-0.215078,-0.478736,-0.465457,-0.258957,0.117229,-0.103947,-0.111309
0.151495,0.206821,-0.217596,-0.368387,-0.575662,-0.13283,0.0914359,-0.101383,-0.0320628
0.139866,0.201741,-0.218558,-0.106816,-0.577105,-0.0404781,0.0812969,-0.102802,0.0234204
0.130008,0.202384,-0.218881,0.16838,-0.397853,0.0147127,0.0596948,-0.0897046,0.0906469
0.12358,0.208123,-0.218865,0.3845,-0.257453,0.0525072,0.0444331,-0.0653638,0.167324
0.119127,0.217768,-0.218869,0.558176,-0.193497,0.0616485,0.0441483,-0.0455917,0.234568
0.115154,0.230664,-0.219147,0.717973,-0.231415,0.0577185,0.0407619,-0.018431,0.296382
0.108841,0.246897,-0.220117,0.897836,-0.449755,0.031282,0.0578602,0.00672582,0.330606
0.0976564,0.266495,-0.221767,1.04383,-0.687781,0.0123509,0.0850634,0.0235901,0.346624
0.0835431,0.288127,-0.224063,1.10851,-0.743557,-0.0525072,0.0840564,0.0614244,0.369405
0.0706042,0.310215,-0.228232,1.09509,-0.653607,-0.182867,0.101843,0.0757563,0.389364
0.0615292,0.330622,-0.235322,0.960436,-0.445549,-0.354649,0.12226,0.0809031,0.392369
0.0597403,0.347749,-0.246176,0.813283,-0.0802263,-0.572204,0.112769,0.0935752,0.378208
0.0686011,0.361899,-0.262426,0.67132,0.418923,-0.856991,0.0952098,0.108324,0.342389
0.0905221,0.370566,-0.284211,0.31885,0.971965,-1.06658,0.0679133,0.140052,0.320396
0.122031,0.371283,-0.307808,0.0204525,1.23482,-1.0662,0.0478055,0.164218,0.26763
0.153081,0.36879,-0.328741,0.0709666,1.04578,-0.873915,0.0395313,0.136686,0.154599
0.175787,0.370955,-0.346549,0.421709,0.524158,-0.764454,0.0228945,0.0483421,0.0104383
0.187983,0.37851,-0.367143,0.619044,-0.0189495,-1.02177,-0.00443031,0.0129383,-0.169459
0.196047,0.385272,-0.3947,0.465243,-0.119248,-1.31457,-0.0432463,0.0202507,-0.285498
0.206671,0.385437,-0.423993,0.0819672,0.117676,-1.25452,-0.0898674,0.039569,-0.316504
0.221431,0.3793,-0.446344,-0.231391,0.523283,-0.875904,-0.0258695,-0.10289,-0.309958
0.237673,0.366925,-0.459128,-0.787898,0.496595,-0.603215,0.0855587,-0.315386,-0.329439
0.243986,0.339049,-0.463405,-1.83121,-0.0261886,-0.425327,0.0751433,-0.305517,-0.475363
0.237971,0.295917,-0.458471,-2.25676,-0.390941,-0.165662,0.0328004,-0.311852,-0.578097
0.227061,0.257715,-0.450894,-1.4505,-0.418056,-0.018383,-0.0488114,-0.236202,-0.669524
0.220248,0.242254,-0.446312,-0.161107,-0.127219,0.0994297,-0.13972,-0.186867,-0.640435
0.219434,0.248719,-0.445366,0.660102,0.0206878,0.0998957,-0.17477,-0.157142,-0.484402
0.22094,0.264897,-0.448728,0.908913,0.0380899,-0.0913086,-0.14734,-0.167038,-0.277747
0.224358,0.281046,-0.457517,0.810613,0.0767826,-0.378927,-0.115195,-0.155074,-0.0531207
0.23084,0.292744,-0.471357,0.626487,0.187613,-0.632573,-0.0905823,-0.121804,0.134192
0.241011,0.300279,-0.488747,0.502422,0.312748,-0.778985,-0.0668262,-0.0799301,0.26375
0.253318,0.305795,-0.507427,0.477092,0.335991,-0.787144,-0.0385362,-0.0445598,0.338732
0.264705,0.311364,-0.525525,0.501287,0.23101,-0.718001,-0.0164397,-0.0116507,0.373275
0.272836,0.318224,-0.541845,0.575881,0.0792511,-0.575494,0.00273222,0.0163863,0.374576
0.277614,0.327552,-0.555269,0.647486,-0.0219672,-0.39406,0.00553933,0.0397897,0.387845
0.279609,0.338464,-0.565585,0.647342,-0.10176,-0.249176,0.00284544,0.0649791,0.387056
0.280019,0.349343,-0.57323,0.585883,-0.112826,-0.141118,0.00649431,0.0817517,0.375978
0.280019,0.349343,-0.57323,0.585883,-0.112826,-0.141118,0.00649431,0.0817517,0.375978
0.27965,0.359124,-0.578144,0.457232,-0.0811422,-0.022936,0.00736719,0.0924367,0.349359
0.278726,0.366351,-0.578838,0.249893,-0.051823,0.170991,-0.0124889,0.12823,0.326609
0.275528,0.37147,-0.574211,0.165431,-0.109726,0.37906,-0.0245722,0.145823,0.258007
0.269506,0.378568,-0.565819,0.334003,-0.180884,0.553326,-0.0319181,0.13845,0.20031
0.261494,0.39082,-0.555287,0.597648,-0.213625,0.69996,-0.0751662,0.169338,0.175712
0.253087,0.409149,-0.543363,0.873588,-0.13312,0.819861,-0.108419,0.178392,0.172916
0.2465,0.431541,-0.529821,0.93566,0.0108605,0.906963,-0.0874707,0.102856,0.186972
0.239922,0.451851,-0.515604,0.675305,-0.108416,0.767383,-0.0389896,-0.00126523,0.13289
0.230909,0.463874,-0.505761,0.275426,-0.366229,0.33,0.00590868,-0.0664692,0.0225515
0.22048,0.465368,-0.505169,-0.143874,-0.651024,-0.2588,0.0467317,-0.125192,-0.0944227
0.208765,0.454941,-0.515477,-0.755432,-0.96854,-0.856489,0.0943765,-0.166318,-0.231294
0.195472,0.424452,-0.535091,-1.90086,-1.12191,-1.47693,0.121574,-0.144453,-0.417552
0.185694,0.371138,-0.561502,-2.70172,-0.80421,-1.8266,0.118972,-0.0392857,-0.576355
0.184992,0.312908,-0.588412,-2.36701,-0.120658,-1.62197,0.112988,0.0578118,-0.69588
0.194837,0.271304,-0.607135,-1.30764,0.493035,-0.825934,0.091856,0.0630472,-0.601529
0.206106,0.255119,-0.610373,-0.277572,0.399503,0.184859,0.0939506,-0.0345661,-0.444951
0.205003,0.258503,-0.598996,0.313337,-0.259504,0.885318,0.120378,-0.153409,-0.313404
0.187494,0.27113,-0.579386,0.500815,-0.941528,1.14435,0.0939871,-0.228594,-0.141475
0.158707,0.284669,-0.557898,0.454629,-1.27612,1.06959,0.0296085,-0.242094,0.0141603
0.127574,0.295535,-0.539271,0.361424,-1.23175,0.833535,-0.0301289,-0.195824,0.149342
0.101829,0.303774,-0.525122,0.304786,-0.887533,0.613644,-0.0507647,-0.147593,0.262367
0.0851325,0.311089,-0.514203,0.349454,-0.446706,0.501132,-0.047318,-0.101711,0.326315
0.0769611,0.320234,-0.504865,0.485548,-0.109738,0.456901,-0.0274595,-0.0742796,0.36664
0.0741369,0.331681,-0.49666,0.579194,0.0766472,0.388253,-0.0164431,-0.0370533,0.383756
0.0750567,0.344366,-0.490886,0.633024,0.18911,0.234221,0.00436737,-0.0234385,0.388011
0.0785098,0.357516,-0.489623,0.647608,0.177523,-0.0393438,0.0210276,-0.0344353,0.365234
0.0835568,0.369749,-0.496045,0.613147,0.0990234,-0.476927,0.0215459,-0.0102313,0.317349
0.09133,0.380651,-0.512519,0.610033,0.0831018,-0.930457,0.0344503,0.0385023,0.276146
0.102897,0.391133,-0.537487,0.65106,0.134494,-1.23115,0.0480165,0.106181,0.247133
0.117958,0.401242,-0.567324,0.642617,0.23217,-1.34378,0.0606683,0.167235,0.220072
0.136218,0.410812,-0.596719,0.644462,0.42095,-1.15683,0.0574318,0.207261,0.172175
0.155401,0.420308,-0.621081,0.583522,0.461543,-0.933664,0.0627656,0.133506,0.0573571
0.17142,0.425222,-0.644775,0.174899,0.0797362,-1.20309,0.0500687,0.0574514,-0.144625
0.17927,0.416027,-0.67603,-0.573123,-0.529069,-1.71806,-0.00309774,0.120896,-0.401425
0.180484,0.394767,-0.711392,-0.775351,-0.666673,-1.7427,-0.112645,0.226924,-0.532322
0.179706,0.379484,-0.741007,-0.163497,-0.507329,-1.13114,-0.126168,0.192676,-0.557675
0.176308,0.378717,-0.755951,0.190416,-0.419362,-0.254048,-0.0457644,-0.000769466,-0.545332
0.165736,0.37735,-0.753741,-0.488972,-0.594598,0.394446,-0.00674936,-0.128338,-0.546214
0.143914,0.360288,-0.73742,-1.33503,-1.01541,0.803485,-0.103356,-0.174632,-0.576366
0.112745,0.336317,-0.715451,-1.08932,-1.30376,0.868682,-0.278796,-0.162938,-0.650518
0.0825729,0.327015,-0.69794,0.0492954,-1.06099,0.650657,-0.402159,-0.129985,-0.596932
0.0612162,0.338179,-0.688208,0.896588,-0.759734,0.331225,-0.426503,-0.100572,-0.365978
0.0475676,0.359262,-0.685533,1.08941,-0.532242,0.0504219,-0.344563,-0.0864962,-0.0939704
0.039,0.378939,-0.687387,0.833647,-0.399467,-0.130138,-0.245865,-0.104263,0.133536
0.0333251,0.391995,-0.692182,0.494569,-0.361147,-0.262562,-0.183898,-0.0988786,0.283835
0.0285129,0.399273,-0.699793,0.277759,-0.4196,-0.423631,-0.148856,-0.0822597,0.364191
0.0241128,0.403507,-0.711849,0.177549,-0.505135,-0.684304,-0.131503,-0.0651633,0.402668
0.0196482,0.405674,-0.730879,0.0703773,-0.697614,-1.06709,-0.116578,-0.0479887,0.395161
0.0146829,0.405913,-0.758815,0.0171974,-0.896997,-1.46739,-0.0893103,-0.0349215,0.360126
0.00864197,0.40628,-0.793507,0.0507642,-1.04868,-1.67601,-0.0429269,-0.0458605,0.3031
0.00225047,0.406493,-0.831674,-0.0392729,-1.06801,-1.80835,-0.0246196,-0.0519055,0.256234
-0.00274125,0.404882,-0.871888,-0.101882,-1.00323,-1.83611,0.00982851,-0.0239516,0.166963
-0.00274125,0.404882,-0.871888,-0.101882,-1.00323,-1.83611,0.00982851,-0.0239516,0.166963
-0.00682853,0.402219,-0.910867,-0.222488,-0.926554,-1.72533,0.037625,-0.0277584,0.0758585
-0.0092843,0.394377,-0.948061,-0.607288,-0.705929,-1.70608,0.0324056,-0.0246871,-0.00829178
-0.00418302,0.378974,-0.986561,-0.914372,-0.238546,-1.82705,0.023631,-0.0478793,-0.0821939
0.0087365,0.359237,-1.02715,-1.02263,0.0142283,-1.95649,0.0467529,-0.0817744,-0.256131
0.0242301,0.337814,-1.07033,-1.00927,0.0334751,-2.10757,0.0461571,0.00116438,-0.401461
0.0396477,0.318965,-1.11491,-0.659028,0.109839,-2.11137,0.0346275,0.110718,-0.442146
0.0573218,0.311164,-1.15608,0.116908,0.418195,-1.75057,0.0481371,0.156738,-0.331599
0.078576,0.319404,-1.1869,0.825394,0.694406,-1.08785,0.0825183,0.0980586,-0.121195
0.0974793,0.337132,-1.20553,1.00297,0.520589,-0.550843,0.127667,0.0303212,0.0294676
0.107526,0.353753,-1.2164,0.667027,0.110394,-0.348643,0.172809,-0.0395048,0.110182
0.108972,0.359702,-1.22527,-0.00913568,-0.270918,-0.445368,0.157099,-0.0628454,0.148666
0.103142,0.352058,-1.23602,-0.605016,-0.6869,-0.611763,0.142995,-0.0441466,0.0482395
0.0897714,0.334982,-1.24763,-0.923289,-0.981717,-0.613772,0.114047,0.0154739,-0.0699152
0.0734215,0.315911,-1.25805,-0.819529,-0.927337,-0.49889,0.0788035,0.0841657,-0.146255
0.0602403,0.303357,-1.26533,-0.340723,-0.572382,-0.254751,0.046198,0.112065,-0.162596
0.0535853,0.302143,-1.26738,0.212618,-0.156598,0.0628032,0.0176683,0.117482,-0.12516
0.0519612,0.310504,-1.26337,0.552359,0.0647753,0.344372,-0.00376942,0.0863459,-0.0567043
0.0504883,0.32337,-1.25536,0.662947,0.00480308,0.446212,-0.034042,0.0614007,0.00340402
0.0461771,0.337214,-1.24768,0.665432,-0.190936,0.314317,-0.0650301,0.051944,0.0473189
0.0391836,0.350226,-1.24438,0.601867,-0.379485,0.0326499,-0.097251,0.056565,0.0775666
0.0316704,0.36083,-1.24794,0.456009,-0.468237,-0.328649,-0.115686,0.0755084,0.0891115
0.0263236,0.367954,-1.25922,0.273958,-0.44657,-0.687507,-0.114921,0.0887871,0.0820951
0.0255768,0.371444,-1.27731,0.135871,-0.252539,-0.961381,-0.116497,0.126923,0.0602532
0.0311589,0.373384,-1.30011,0.122974,-0.0327116,-1.12812,-0.0940861,0.136832,0.0288368
0.0411181,0.374765,-1.32569,0.0853343,0.0773108,-1.23656,-0.07283,0.151668,-0.0170618
0.0529816,0.375227,-1.35348,0.109967,0.0723267,-1.31629,-0.053316,0.17822,-0.0560799
0.0648366,0.377844,-1.382,0.325148,0.0760811,-1.28685,-0.0572913,0.195349,-0.0271264
0.0774917,0.384687,-1.40959,0.509012,0.164656,-1.20932,-0.0443212,0.157527,0.0404671
0.091463,0.392663,-1.43672,0.442063,0.186249,-1.23394,-0.00595415,0.0929929,0.091937
0.105818,0.395594,-1.4656,0.0700401,0.123645,-1.3992,0.00280184,0.0674551,0.129535
0.119709,0.388652,-1.49805,-0.416404,0.0217667,-1.63217,-7.38204e-05,0.0691728,0.142705
0.131768,0.371751,-1.53288,-0.831011,-0.131352,-1.7568,0.0267882,0.0116394,0.0926375
0.139598,0.347158,-1.56809,-1.11698,-0.319999,-1.80869,0.0252225,0.0197621,-0.00273383
0.142611,0.318862,-1.60239,-1.17651,-0.495784,-1.76222,0.00650075,0.0606785,-0.105778
0.141029,0.292341,-1.63381,-0.967574,-0.585048,-1.53311,0.00511128,0.0535759,-0.182871
0.1367,0.273367,-1.65969,-0.532849,-0.547329,-1.15874,-0.000415757,0.0300002,-0.228931
0.131952,0.265169,-1.67839,-0.0534943,-0.404752,-0.724639,-0.0248896,0.0185576,-0.22106
0.128747,0.265949,-1.68978,0.234588,-0.227937,-0.38206,-0.0620038,0.00101426,-0.150411
0.126692,0.270921,-1.6971,0.315801,-0.188854,-0.290239,-0.0748087,-0.0295005,-0.0811542
0.124588,0.275888,-1.70464,0.244111,-0.22829,-0.386319,-0.0734085,-0.0605601,-0.0150009
0.122542,0.278151,-1.71479,0.0961382,-0.247127,-0.548021,-0.072753,-0.0551336,0.0521477
0.120806,0.277196,-1.72756,-0.0363655,-0.277761,-0.659475,-0.0440893,-0.0698464,0.0865458
0.118626,0.27396,-1.74132,-0.116561,-0.306482,-0.67301,-0.01547,-0.0744402,0.111398
0.116026,0.269869,-1.75441,-0.130335,-0.30019,-0.620162,0.00385723,-0.0674096,0.119145
0.113117,0.266155,-1.7664,-0.10187,-0.303454,-0.560869,0.0283509,-0.077262,0.113225
0.110019,0.263046,-1.77697,-0.102426,-0.284681,-0.482189,0.0413793,-0.0882284,0.121721
0.106484,0.259756,-1.78608,-0.135452,-0.311508,-0.430709,0.0524951,-0.0993718,0.106578
0.102156,0.255764,-1.79444,-0.176351,-0.326493,-0.406459,0.0574974,-0.107886,0.100961
0.0976115,0.250978,-1.80172,-0.231142,-0.305014,-0.332607,0.058856,-0.110612,0.0864497
0.0933765,0.245204,-1.80734,-0.275598,-0.25118,-0.265121,0.0514548,-0.101484,0.0550188
0.0897761,0.239316,-1.81156,-0.269617,-0.224393,-0.190184,0.0494047,-0.105583,0.0203224
0.0897761,0.239316,-1.81156,-0.269617,-0.224393,-0.190184,0.0494047,-0.105583,0.0203224
0.0860503,0.233775,-1.81432,-0.242714,-0.20205,-0.12168,0.035702,-0.0932385,-0.0203178
0.0829586,0.229794,-1.81577,-0.120832,-0.142674,-0.0452956,0.0289796,-0.0924589,-0.0458097
0.0803871,0.228928,-1.81573,0.0315789,-0.110171,0.0421401,0.0181994,-0.0829569,-0.0594015
0.0782998,0.231159,-1.81403,0.181509,-0.0610472,0.135662,-0.00118823,-0.065923,-0.0614564
0.0766186,0.236509,-1.811,0.321985,-0.0456422,0.19179,-0.0208088,-0.0489845,-0.0556231
0.0748562,0.24479,-1.80754,0.477732,-0.0526665,0.193838,-0.0449995,-0.0247987,-0.0327575
0.0729246,0.256374,-1.80442,0.65447,-0.0687661,0.191627,-0.0689681,0.00209451,0.00782043
0.0701879,0.271745,-1.8016,0.856878,-0.138212,0.18727,-0.0840669,0.024654,0.0515082
0.0658154,0.291278,-1.7991,1.06138,-0.22552,0.185253,-0.0971468,0.0472778,0.108193
0.0597077,0.314362,-1.79665,1.20517,-0.307443,0.190906,-0.103028,0.0645041,0.167363
0.0524587,0.339461,-1.79421,1.25678,-0.323106,0.174896,-0.105396,0.0799119,0.230135
0.0459999,0.3644,-1.79204,1.19479,-0.232616,0.145082,-0.101863,0.0903521,0.288635
0.0424967,0.387126,-1.79041,1.04567,-0.0441003,0.107048,-0.0954314,0.0986894,0.336615
0.0434376,0.406098,-1.78936,0.825274,0.179761,0.0777019,-0.0885831,0.104256,0.367082
0.0489837,0.420345,-1.78836,0.587865,0.406719,0.0851049,-0.0836574,0.0940499,0.377338
0.0584775,0.430282,-1.78698,0.410779,0.56829,0.0903921,-0.0817577,0.0876442,0.363654
0.0691288,0.437896,-1.78577,0.36723,0.51901,0.063724,-0.0656692,0.0842673,0.310831
0.0777324,0.445829,-1.78494,0.422276,0.373483,0.0714676,-0.0413772,0.0668718,0.256951
0.0840803,0.454971,-1.78389,0.449866,0.324306,0.100053,0.0117047,-0.000627458,0.209584
0.0890159,0.462715,-1.78173,0.27252,0.232725,0.167562,0.111017,-0.121462,0.107381
0.0876172,0.465619,-1.7773,-0.0474212,-0.267461,0.224681,0.133312,-0.124922,-0.0900015
0.0722888,0.459471,-1.77397,-0.607573,-1.08312,-0.0362296,0.0429919,0.0944291,-0.346837
0.0500839,0.443974,-1.77791,-0.806078,-1.1051,-0.370601,0.0289787,0.111615,-0.449826
0.0390051,0.429703,-1.78643,-0.558592,-0.298264,-0.414769,0.0714071,0.0149133,-0.507923
0.0438538,0.418736,-1.79388,-0.585922,0.39106,-0.303488,0.0836508,0.0221913,-0.558481
0.0564827,0.403799,-1.79865,-0.870133,0.623908,-0.209697,0.0586526,0.0644238,-0.527753
0.0699519,0.385153,-1.80166,-0.911749,0.564051,-0.204543,0.0448904,0.0422197,-0.445765
0.0802994,0.368409,-1.80532,-0.704436,0.319539,-0.250392,0.0270366,0.0178313,-0.326651
0.0859548,0.356363,-1.80923,-0.467103,0.129525,-0.189594,0.0128826,-0.0183502,-0.147495
0.0886949,0.348569,-1.81104,-0.303791,0.110351,-0.0370892,0.0186616,-0.0673972,0.0399734
0.0913456,0.343289,-1.80963,-0.245539,0.209349,0.114855,0.0316879,-0.115578,0.200102
0.0946053,0.338267,-1.80589,-0.299646,0.207694,0.16514,0.0469057,-0.144374,0.292155
0.0958507,0.331075,-1.80228,-0.456254,0.004767,0.0873085,0.0610741,-0.145598,0.328499
0.0925501,0.320112,-1.80065,-0.629381,-0.286745,-0.0381012,0.0762324,-0.135278,0.320779
0.0843275,0.307151,-1.80131,-0.61451,-0.539443,-0.128287,0.0999663,-0.107019,0.276273
0.072544,0.296462,-1.8034,-0.399423,-0.665868,-0.13762,0.120058,-0.0666725,0.224292
0.0602017,0.29165,-1.80513,-0.0609329,-0.586156,-0.045205,0.139931,-0.0357555,0.191738
0.0501886,0.293748,-1.80511,0.263317,-0.392774,0.0488971,0.157426,-0.0147946,0.157986
0.0447685,0.301448,-1.80424,0.471486,-0.112913,0.0488756,0.159749,0.00748998,0.146685
0.0452971,0.311546,-1.80462,0.51021,0.145926,-0.0561749,0.161641,0.0298586,0.141741
0.0512656,0.321328,-1.80756,0.475947,0.351969,-0.173847,0.15687,0.0566561,0.153183
0.0615634,0.330893,-1.8126,0.519421,0.497217,-0.236994,0.148264,0.0900241,0.17501
0.074176,0.342179,-1.81834,0.633745,0.542227,-0.211809,0.123059,0.121155,0.205945
0.0857784,0.35555,-1.82319,0.71201,0.430048,-0.123914,0.0799024,0.157143,0.224246
0.0932711,0.369426,-1.826,0.665801,0.203869,-0.0184146,0.0541997,0.128399,0.201476
0.0952649,0.380778,-1.82685,0.430036,-0.042712,0.0284471,0.0351356,0.0340571,0.11101
0.0920024,0.385083,-1.82851,-0.0246572,-0.366621,-0.193729,-0.00375431,0.0131636,-0.0577583
0.0846937,0.377938,-1.83698,-0.624785,-0.624609,-0.668131,-0.0823763,0.0916911,-0.248937
0.0799514,0.358336,-1.85476,-1.13896,-0.388064,-1.10667,-0.161219,0.187371,-0.357907
0.0870638,0.331555,-1.87782,-1.28671,0.381879,-1.18259,-0.115253,0.147306,-0.374984
0.108557,0.302843,-1.89587,-1.45955,1.09671,-0.73401,0.041545,-0.0424324,-0.409265
0.108557,0.302843,-1.89587,-1.45955,1.09671,-0.73401,0.041545,-0.0424324,-0.409265
0.133014,0.268171,-1.90104,-1.91408,1.10443,-0.165393,0.0219593,0.0566557,-0.437464
0.149539,0.226863,-1.8914,-2.244,0.732611,0.510738,-0.0827415,0.049736,-0.445433
0.155743,0.185419,-1.86905,-2.04892,0.353533,0.952663,-0.171712,0.0098433,-0.453094
0.155716,0.15523,-1.84306,-1.25187,0.102167,1.06146,-0.253336,-0.0147806,-0.38909
0.152655,0.142407,-1.81977,-0.393605,-0.0799774,0.994252,-0.276393,-0.063717,-0.246839
0.14548,0.143022,-1.80085,0.109951,-0.380482,0.846834,-0.214029,-0.143369,-0.0941828
0.132845,0.148645,-1.78626,0.188413,-0.641002,0.648345,-0.154478,-0.175449,0.0544624
0.117443,0.15192,-1.77553,-0.0163923,-0.697679,0.444646,-0.114283,-0.170411,0.165236
0.10331,0.150621,-1.76773,-0.161146,-0.569122,0.321315,-0.0839534,-0.175738,0.214928
0.0924422,0.148936,-1.7616,-0.0265955,-0.428585,0.266065,-0.057872,-0.166189,0.215496
0.0834996,0.151436,-1.75695,0.236845,-0.412824,0.199926,-0.0346424,-0.161779,0.209934
0.0740793,0.158506,-1.75481,0.416654,-0.514476,0.052287,-0.000299431,-0.184397,0.208297
0.0616905,0.166725,-1.75646,0.378086,-0.763563,-0.156937,0.0316106,-0.182282,0.166814
0.044824,0.171761,-1.76173,0.119616,-0.97058,-0.319466,0.023401,-0.106411,0.0862092
0.0271228,0.171311,-1.76906,-0.097927,-0.846185,-0.376469,0.0125078,-0.0557835,0.0129386
0.0147723,0.16948,-1.77604,-0.00759739,-0.470084,-0.295904,0.0130278,-0.0214551,-0.0584717
0.0103509,0.173329,-1.77991,0.431894,-0.0504191,-0.0484417,0.00298791,0.0209275,-0.0674048
0.0117051,0.18775,-1.77704,0.997852,0.203334,0.359657,-0.0274599,0.0623205,-0.00793606
0.0140954,0.212693,-1.766,1.43934,0.209682,0.720438,-0.0597826,0.0869937,0.0855994
0.0136606,0.244466,-1.75012,1.66788,0.118471,0.818179,-0.0805454,0.111545,0.18354
0.0130063,0.277751,-1.73424,1.55668,0.269671,0.743065,-0.100185,0.121758,0.272461
0.0175505,0.305448,-1.72013,1.17913,0.583041,0.634563,-0.116469,0.141953,0.291532
0.0267861,0.327456,-1.708,1.05401,0.641302,0.584657,-0.0917661,0.104259,0.229391
0.0327775,0.350175,-1.69573,1.15865,0.320162,0.632804,-0.0351774,-0.0283216,0.138103
0.0291599,0.372257,-1.68417,0.939349,-0.329887,0.432958,-0.0014631,-0.0830277,-0.0106445
0.013819,0.386741,-1.68207,0.481069,-1.10542,-0.251679,0.0293467,-0.0579319,-0.156251
-0.00814552,0.391124,-1.6949,-0.03924,-1.44186,-0.8694,0.033577,0.00877622,-0.213871
-0.026371,0.386144,-1.71647,-0.473549,-1.10898,-1.01928,0.0756044,-0.0108932,-0.235132
-0.0358599,0.372937,-1.73737,-0.944035,-0.633909,-0.877936,0.114671,-0.0333068,-0.329012
-0.0378364,0.348083,-1.75679,-1.56194,-0.218211,-0.829189,0.0831357,0.117571,-0.440756
-0.0308767,0.316487,-1.77381,-1.4849,0.35161,-0.63841,0.0754963,0.0995901,-0.447472
-0.016806,0.293875,-1.78501,-0.746291,0.644003,-0.355729,0.118074,0.0570731,-0.398261
-0.0031214,0.285749,-1.7888,-0.134703,0.559078,0.00819106,0.130955,0.000382245,-0.249828
0.00404647,0.285105,-1.78545,0.00648038,0.230224,0.289345,0.146858,-0.0693581,-0.0933695
0.00315478,0.284475,-1.77777,-0.0916034,-0.0886094,0.412591,0.145654,-0.13669,0.0331229
-0.00306052,0.280951,-1.76945,-0.262723,-0.284864,0.362484,0.123149,-0.141355,0.116641
-0.0115803,0.274109,-1.76315,-0.387725,-0.372299,0.242586,0.105767,-0.122637,0.145769
-0.0202786,0.26673,-1.75918,-0.310626,-0.372185,0.166081,0.108168,-0.094469,0.153298
-0.0280506,0.262635,-1.75561,-0.073128,-0.302907,0.203725,0.125504,-0.0639518,0.153669
-0.0343815,0.264146,-1.75021,0.237376,-0.183147,0.313566,0.135081,-0.0389031,0.173608
-0.0389553,0.271249,-1.74231,0.476837,-0.068337,0.410475,0.138412,-0.0175417,0.204695
-0.0416052,0.281768,-1.73276,0.594259,0.0612129,0.444979,0.129629,-0.000692904,0.22838
-0.0415998,0.294005,-1.72349,0.649497,0.205099,0.367618,0.1139,0.000648618,0.24206
-0.037838,0.306981,-1.71711,0.65999,0.350248,0.169621,0.0905038,0.020566,0.250648
-0.0300074,0.320075,-1.71578,0.640597,0.459494,-0.0938569,0.0813813,0.0423604,0.249062
-0.0190165,0.332804,-1.72036,0.616543,0.469024,-0.369356,0.0835847,0.0705907,0.229841
-0.00691976,0.344946,-1.73068,0.576976,0.392598,-0.603706,0.0760311,0.128811,0.212372
0.00540065,0.356458,-1.74503,0.574326,0.356438,-0.716908,0.0570573,0.199375,0.199332
0.0180253,0.368382,-1.76033,0.636285,0.355433,-0.67068,0.0539398,0.206436,0.173253
0.0299406,0.381324,-1.7736,0.665349,0.350873,-0.524217,0.0614321,0.126651,0.121192
0.0299406,0.381324,-1.7736,0.665349,0.350873,-0.524217,0.0614321,0.126651,0.121192
0.0410224,0.393364,-1.78491,0.54603,0.301727,-0.527289,0.0594266,0.0410889,0.0309868
0.0504642,0.399748,-1.80023,0.0645417,0.0243222,-0.889927,0.0434846,0.0926008,-0.125881
0.0586375,0.391504,-1.82278,-0.769738,0.00853433,-1.16374,0.0198659,0.151354,-0.204221
0.0714379,0.368671,-1.84584,-1.27031,0.463348,-1.03983,0.0273672,0.136744,-0.242775
0.0921786,0.341318,-1.86109,-1.27302,1.06715,-0.557607,0.0286181,0.0939306,-0.268122
0.11888,0.316753,-1.86391,-1.15264,1.41767,0.0303108,0.0473798,-0.00875345,-0.285596
0.143024,0.293684,-1.855,-1.28592,1.16341,0.474797,0.053721,-0.102518,-0.341271
0.155526,0.26682,-1.83745,-1.60635,0.53614,0.770589,-0.0385326,-0.111045,-0.399689
0.153813,0.236126,-1.81393,-1.70158,-0.117449,0.977416,-0.163482,-0.105738,-0.475277
0.141412,0.208433,-1.78845,-1.29503,-0.481604,1.0354,-0.255414,-0.109265,-0.506523
0.126968,0.192759,-1.76536,-0.53329,-0.451169,0.977687,-0.320053,-0.100211,-0.428185
0.116431,0.191228,-1.74628,0.109891,-0.238105,0.843204,-0.319586,-0.118026,-0.262348
0.110459,0.19901,-1.7313,0.444962,-0.0817155,0.700456,-0.275966,-0.15098,-0.0796511
0.107065,0.2104,-1.71944,0.528175,-0.0408902,0.57341,-0.243725,-0.159709,0.0767941
0.103794,0.221907,-1.71035,0.513814,-0.0941605,0.415823,-0.229043,-0.140627,0.190338
0.1,0.232976,-1.70503,0.537953,-0.163058,0.197105,-0.209868,-0.115897,0.275297
0.095835,0.244306,-1.70453,0.573529,-0.230669,-0.0419391,-0.181852,-0.0937338,0.344042
0.0920407,0.255161,-1.7088,0.528383,-0.237161,-0.265509,-0.147544,-0.0601748,0.394099
0.0900733,0.264399,-1.71713,0.459948,-0.159384,-0.437127,-0.10445,-0.0428697,0.427767
0.091323,0.272095,-1.72815,0.39337,0.00611719,-0.543606,-0.0634423,-0.0263095,0.452605
0.0969487,0.278004,-1.74101,0.309018,0.193785,-0.623255,0.00187496,-0.0326916,0.441709
0.105797,0.282156,-1.75473,0.227689,0.293431,-0.621914,0.0565349,-0.0411221,0.398477
0.114701,0.283838,-1.76727,0.0513328,0.204766,-0.54398,0.0797962,-0.00366443,0.327138
0.118886,0.281438,-1.77733,-0.163224,-0.0857432,-0.433643,0.0879645,0.0447053,0.212284
0.116147,0.276814,-1.78452,-0.156887,-0.366057,-0.305259,0.0690527,0.0986099,0.103414
0.108934,0.276505,-1.78938,0.237406,-0.435474,-0.151077,0.0445506,0.132538,0.0329275
0.103064,0.287268,-1.79145,0.843115,-0.153623,0.0872365,0.0193917,0.125741,0.0345752
0.104144,0.30714,-1.78903,0.956829,0.3475,0.308732,0.0320732,0.0390124,0.0357452
0.114682,0.320627,-1.7846,0.231549,0.81558,0.178245,0.0531745,-0.018853,-0.0601258
0.134079,0.316055,-1.78625,-0.581722,1.02979,-0.441762,0.0239899,0.0740788,-0.211901
0.159854,0.300146,-1.79979,-0.691038,1.11478,-1.00038,0.0558428,0.107214,-0.301057
0.188315,0.283965,-1.82045,-0.590014,1.07926,-1.15859,0.161037,0.0466738,-0.355618
0.211462,0.265533,-1.84103,-0.890812,0.605499,-1.14985,0.206188,0.0385923,-0.459419
0.222448,0.237697,-1.85939,-1.41345,0.0752566,-1.17225,0.111467,0.136146,-0.488527
0.225298,0.202878,-1.87593,-1.51805,-0.117515,-1.15839,0.0109668,0.137204,-0.423864
0.224999,0.170927,-1.89193,-1.18061,-0.200832,-1.04609,-0.032736,0.073431,-0.343625
0.222293,0.148913,-1.90503,-0.663854,-0.284263,-0.65918,-0.0564971,-0.0429665,-0.219147
0.216234,0.138778,-1.91163,-0.196262,-0.411693,-0.209256,-0.073116,-0.138308,-0.0815366
0.207284,0.137561,-1.91243,0.0525107,-0.484469,0.067135,-0.0899977,-0.209049,0.0525095
0.196991,0.13909,-1.91119,0.0398332,-0.521772,0.0374683,-0.0845462,-0.229888,0.102415
0.186189,0.13853,-1.91244,-0.0692293,-0.565613,-0.182145,-0.0814895,-0.234151,0.163015
0.174979,0.135432,-1.91775,-0.127414,-0.638925,-0.358888,-0.0723496,-0.203589,0.204625
0.162042,0.132279,-1.92477,-0.0250801,-0.727943,-0.349694,-0.0499083,-0.167972,0.210212
0.147771,0.133696,-1.93084,0.288621,-0.766091,-0.210641,-0.0213625,-0.135516,0.220464
0.133172,0.142997,-1.9353,0.677599,-0.735477,-0.108335,-0.0066981,-0.100272,0.238491
0.119707,0.159182,-1.93962,0.953357,-0.668805,-0.132176,0.00214422,-0.069318,0.277212
0.107916,0.17899,-1.94604,1.04907,-0.614231,-0.286993,0.0160693,-0.0492746,0.312711
0.107916,0.17899,-1.94604,1.04907,-0.614231,-0.286993,0.0160693,-0.0492746,0.312711
0.0977067,0.198879,-1.95619,1.00241,-0.595316,-0.501848,0.0308363,-0.0284734,0.323392
0.088431,0.216442,-1.97051,0.854054,-0.631708,-0.719004,0.0545223,-0.00504673,0.307797
0.0790575,0.230861,-1.98866,0.7397,-0.707554,-0.909647,0.0647826,0.0474344,0.242204
0.0684086,0.244113,-2.00998,0.761512,-0.846713,-1.03823,0.0594648,0.117672,0.125752
0.0569712,0.260149,-2.0331,0.988082,-0.83348,-1.07176,0.0757891,0.122825,0.00981253
0.0480138,0.280247,-2.0575,1.06599,-0.725242,-1.19587,0.103322,0.0447965,-0.102788
0.0405472,0.294752,-2.08726,0.334115,-0.904574,-1.62273,0.070587,0.0712946,-0.262891
0.0329852,0.288425,-2.12648,-0.752197,-0.853252,-2.10831,-0.00557025,0.243701,-0.475803
0.0352447,0.266984,-2.17326,-1.12968,-0.147707,-2.39141,-0.0646439,0.307601,-0.554903
0.052129,0.241841,-2.22083,-1.14487,0.614243,-2.19287,-0.0610413,0.363438,-0.623926
0.0773615,0.217104,-2.25772,-1.07808,0.957465,-1.48549,-0.0171664,0.276254,-0.624372
0.0990465,0.194276,-2.27816,-1.00898,0.712503,-0.719084,-0.0452209,0.178378,-0.593873
0.110021,0.17469,-2.28477,-0.822185,0.255229,-0.166249,-0.12859,0.0663352,-0.501444
0.110797,0.162497,-2.28309,-0.368547,-0.13151,0.173325,-0.193526,-0.0582647,-0.345396
0.104208,0.161245,-2.27715,0.174212,-0.419836,0.362508,-0.251688,-0.13999,-0.143876
0.0921252,0.17007,-2.27054,0.598104,-0.673102,0.338821,-0.251404,-0.193054,0.0667513
0.0758301,0.18432,-2.26644,0.725108,-0.863512,0.162042,-0.211636,-0.230678,0.250454
0.0575793,0.197385,-2.26657,0.53333,-0.927537,-0.0947286,-0.165347,-0.223846,0.393173
0.0405483,0.204518,-2.27165,0.186975,-0.837195,-0.360062,-0.0954632,-0.220489,0.481894
0.0280856,0.204268,-2.28125,-0.16503,-0.563086,-0.560599,-0.0169543,-0.223617,0.531527
0.0224333,0.197715,-2.29346,-0.457954,-0.26139,-0.635654,0.0477077,-0.248822,0.520982
0.0212639,0.185433,-2.30699,-0.722352,-0.126556,-0.702238,0.0941992,-0.243759,0.430388
0.0221181,0.168849,-2.32082,-0.871629,-0.0387037,-0.670998,0.12305,-0.244657,0.30878
0.0229827,0.150981,-2.33288,-0.871738,-0.10011,-0.539551,0.128205,-0.2227,0.149053
0.0195065,0.132635,-2.34219,-0.947844,-0.405703,-0.447209,0.0904988,-0.148362,-0.0767513
0.00997669,0.113966,-2.35189,-0.828785,-0.60721,-0.569884,0.0470797,-0.0832101,-0.253958
0.000914603,0.101975,-2.36516,-0.329028,-0.366333,-0.727563,0.0445766,-0.0864648,-0.358619
-0.00126133,0.0989659,-2.38041,-0.0572082,-0.0161019,-0.784823,0.032322,-0.044201,-0.454113
0.00301404,0.0969164,-2.39706,-0.159126,0.288941,-0.852793,-0.00733342,0.0558559,-0.495664
0.0133976,0.093455,-2.4143,-0.132539,0.571978,-0.861627,-0.0335719,0.084713,-0.496091
0.02945,0.0932944,-2.4318,0.206557,0.870712,-0.85882,-0.0723628,0.163838,-0.386647
0.0508375,0.102634,-2.44834,0.778552,1.04099,-0.725544,-0.0608479,0.126074,-0.192964
0.0710668,0.12071,-2.46316,1.0279,0.737535,-0.641067,-0.0201211,0.0824684,-0.0660111
0.0818293,0.138051,-2.47725,0.715694,0.139214,-0.626487,-0.0179873,0.0468233,-0.00554979
0.0814354,0.144751,-2.49118,0.0475404,-0.325191,-0.702457,-0.047551,0.0561879,-0.0193223
0.0761317,0.13906,-2.5062,-0.430384,-0.343481,-0.812582,-0.104896,0.110109,-0.0789893
0.0743583,0.127559,-2.52232,-0.549347,-0.00901416,-0.833321,-0.142503,0.159532,-0.145829
0.0808533,0.116133,-2.53702,-0.445098,0.47441,-0.673211,-0.153204,0.16383,-0.158372
0.0949605,0.108736,-2.54722,-0.17912,0.77285,-0.379614,-0.140507,0.122392,-0.12423
0.11131,0.108035,-2.55159,0.15796,0.759955,-0.0599318,-0.140813,0.0846465,-0.0566145
0.123962,0.114888,-2.5511,0.514043,0.469101,0.171834,-0.166165,0.087505,0.0349181
0.127392,0.128933,-2.54774,0.80926,-0.13314,0.321164,-0.187852,0.0701958,0.0915585
0.116669,0.14793,-2.54261,0.979551,-0.851442,0.400932,-0.212332,0.0574706,0.137994
0.0931052,0.168704,-2.53697,0.997519,-1.36367,0.337244,-0.244269,0.0733916,0.182828
0.0623142,0.188353,-2.53398,0.910991,-1.59979,0.0851942,-0.258804,0.0858003,0.20755
0.0306421,0.204467,-2.5367,0.680756,-1.56021,-0.290612,-0.254181,0.0809288,0.215236
0.00399528,0.214447,-2.54742,0.315705,-1.28544,-0.742343,-0.239728,0.0750965,0.201742
-0.0136163,0.216855,-2.56757,-0.0848203,-0.893869,-1.21215,-0.216363,0.0839798,0.153506
-0.0136163,0.216855,-2.56757,-0.0848203,-0.893869,-1.21215,-0.216363,0.0839798,0.153506
-0.0219971,0.212382,-2.59661,-0.381121,-0.5698,-1.57125,-0.187209,0.115178,0.056473
-0.024355,0.204732,-2.63135,-0.410403,-0.404837,-1.77439,-0.149603,0.144085,-0.0336719
-0.0241017,0.199373,-2.66942,-0.180682,-0.328482,-1.9178,-0.113402,0.168667,-0.0619181
-0.0221555,0.200188,-2.70995,0.176898,-0.289791,-2.02758,-0.0629293,0.147081,-0.0280849
-0.020914,0.206745,-2.75228,0.31507,-0.482691,-2.13094,-0.00232953,0.065444,-0.00223792
-0.0245961,0.211423,-2.79866,-0.0203701,-0.84847,-2.41486,0.0160046,0.0761229,-0.00301582
-0.0341247,0.205308,-2.85161,-0.776062,-1.16857,-2.69345,0.00691224,0.110973,-0.0687977
-0.0466599,0.185376,-2.90924,-1.33583,-1.11245,-2.81552,-0.00640228,0.151388,-0.154189
-0.0546865,0.162452,-2.96786,-1.10113,-0.639036,-2.78545,-0.0200655,0.18867,-0.214211
-0.0523331,0.151545,-3.02347,-0.231132,0.0159467,-2.57413,-0.00363392,0.182231,-0.193295
-0.0397031,0.157245,-3.07141,0.489812,0.444933,-2.13863,0.0393403,0.139355,-0.108438
-0.0248297,0.170513,-3.11015,0.625964,0.318746,-1.72176,0.0722119,0.103571,-0.0585833
-0.0170268,0.182068,3.14107,0.435211,-0.115244,-1.45663,0.0652981,0.068973,-0.021432
-0.0184305,0.188537,3.11267,0.161251,-0.514343,-1.35916,0.0231688,0.0769786,-0.00865573
-0.0251037,0.190169,3.08483,-0.046776,-0.628947,-1.36861,-0.015894,0.0924827,-0.0100363
-0.0309826,0.188904,3.05644,-0.130678,-0.442525,-1.39401,-0.0412592,0.103386,-0.0181997
-0.0310226,0.187422,3.02811,-0.0928009,-0.0816112,-1.35896,-0.0413029,0.0858629,0.00188202
-0.0247843,0.187024,3.00134,-0.0207312,0.175129,-1.24578,-0.0179782,0.045768,0.0277009
-0.0161747,0.187843,2.97743,0.0498302,0.215602,-1.09408,-0.00593053,0.00754139,0.0670128
-0.00891918,0.189644,2.95625,0.10335,0.086741,-0.985708,-0.00822383,-0.0239084,0.108848
-0.00529417,0.192325,2.93675,0.150445,-0.10223,-0.928439,-0.0108557,-0.060201,0.146817
-0.00580923,0.195329,2.91803,0.123635,-0.296158,-0.902199,-0.0155262,-0.0926849,0.173366
-0.00913126,0.196994,2.89944,0.022314,-0.373129,-0.92516,-0.0205254,-0.113833,0.192853
-0.0123665,0.196382,2.87972,-0.110311,-0.299662,-1.00692,-0.0148337,-0.129707,0.209113
-0.0122759,0.192724,2.85823,-0.284544,-0.085787,-1.07605,0.000863699,-0.134791,0.21919
-0.0075392,0.185289,2.83604,-0.478523,0.136153,-1.07931,0.02067,-0.131734,0.207739
0.00056442,0.173976,2.81433,-0.652087,0.27966,-1.03039,0.0537502,-0.131039,0.172709
0.0108266,0.15952,2.79459,-0.765009,0.412493,-0.903428,0.0789871,-0.123657,0.129458
0.0227845,0.143841,2.77832,-0.741081,0.534217,-0.709544,0.101064,-0.124432,0.0860041
0.0358454,0.130375,2.7671,-0.536405,0.592144,-0.428851,0.114582,-0.131942,0.0480052
0.0476355,0.12243,2.76178,-0.222495,0.490843,-0.129078,0.113658,-0.14048,0.016032
0.0552636,0.121175,2.76189,0.0845015,0.256616,0.119139,0.0878698,-0.144014,-0.0039959
0.057121,0.125444,2.76541,0.311504,-0.0240604,0.231872,0.0479577,-0.136603,-0.0194247
0.0538055,0.134139,2.77014,0.531435,-0.221538,0.278095,0.00592294,-0.128317,-0.018123
0.0483237,0.147267,2.77534,0.751472,-0.225994,0.297833,-0.0403052,-0.108758,0.00352407
0.0437199,0.165094,2.78066,0.998868,-0.148625,0.304702,-0.0803736,-0.0851359,0.0323048
0.0404102,0.188024,2.78589,1.25885,-0.0902761,0.29881,-0.108794,-0.0601675,0.0814423
0.0383079,0.215862,2.79069,1.47839,-0.0269328,0.273839,-0.121348,-0.0323014,0.160417
0.0374361,0.247118,2.79471,1.58605,0.0308783,0.233044,-0.115453,-0.0148196,0.2418
0.0380671,0.278504,2.7978,1.49247,0.127644,0.180151,-0.107957,0.00346389,0.310716
0.0419643,0.306174,2.79977,1.23228,0.32882,0.11636,-0.100182,0.0105042,0.360888
0.0511489,0.327468,2.80041,0.874951,0.60838,0.0423346,-0.094476,0.0161965,0.370838
0.0664876,0.341533,2.79971,0.539231,0.892898,-0.0173106,-0.0680334,0.00601375,0.344335
0.0876067,0.349341,2.79867,0.239804,1.16558,-0.00574064,-0.00614478,-0.0577155,0.305365
0.110967,0.350615,2.79915,-0.138741,1.05122,0.0562243,0.0765245,-0.155517,0.178655
0.122692,0.342713,2.8006,-0.693939,0.0398683,-0.0600077,0.0601024,-0.0271618,-0.110369
0.110753,0.322449,2.79835,-1.21388,-1.2107,-0.387437,0.0658084,0.0982168,-0.387366
0.110753,0.322449,2.79835,-1.21388,-1.2107,-0.387437,0.0658084,0.0982168,-0.387366
0.0839845,0.297425,2.79051,-1.08575,-1.56283,-0.550692,0.162122,0.0543197,-0.550663
0.0573778,0.27999,2.78131,-0.562035,-1.27491,-0.38921,0.264879,0.115427,-0.664776
0.0371021,0.273459,2.77951,-0.116941,-0.798913,0.266078,0.26293,0.211851,-0.562738
0.0215105,0.273419,2.79498,0.0084559,-0.37811,1.21522,0.279415,0.208929,-0.380707
0.00533231,0.272468,2.82864,-0.181831,-0.373784,1.95562,0.320655,0.161505,-0.27073
-0.0150686,0.265116,2.87421,-0.553462,-0.45122,2.36759,0.281189,0.128522,-0.149977
-0.0370335,0.249037,2.92458,-0.889636,-0.424582,2.47439,0.203302,0.100856,-0.0601092
-0.055637,0.227714,2.97328,-0.971498,-0.283518,2.28635,0.138142,0.0544709,0.00049448
-0.0695421,0.206233,3.0154,-0.896325,-0.194338,1.92552,0.103353,-0.00675882,0.0300018
-0.0789204,0.186356,3.04985,-0.838156,-0.0707904,1.5851,0.0832566,-0.0709007,0.0732247
-0.0838794,0.16755,3.07776,-0.804598,0.0754947,1.29844,0.0553251,-0.106746,0.103639
-0.0846767,0.149736,3.10005,-0.774799,0.193614,1.03887,0.0447346,-0.127557,0.110588
-0.0823168,0.133456,3.11761,-0.678932,0.279864,0.82419,0.0379137,-0.12814,0.103444
-0.0785897,0.120212,3.13163,-0.505372,0.255929,0.67073,0.0436863,-0.116574,0.0770908
-0.0754429,0.11169,-3.13962,-0.240781,0.204246,0.575874,0.0445215,-0.0944596,0.0650239
-0.0728222,0.109022,-3.12877,0.0522849,0.171393,0.521386,0.0491326,-0.0605516,0.0789833
-0.0709305,0.11195,-3.11812,0.298042,0.125316,0.508445,0.0512776,-0.0297018,0.0977782
-0.0701583,0.119094,-3.10757,0.479026,0.0733635,0.474134,0.0484555,0.00806481,0.120265
-0.0702873,0.129696,-3.09768,0.645967,0.044932,0.424496,0.043364,0.0377041,0.139757
-0.0703404,0.143841,-3.08845,0.818378,0.0824341,0.392789,0.0396341,0.057026,0.168546
-0.0690761,0.16104,-3.07929,0.936392,0.189218,0.384564,0.0306373,0.0629939,0.212231
-0.0659764,0.179343,-3.07063,0.90504,0.253633,0.328779,0.033316,0.0687338,0.236016
-0.0619205,0.195336,-3.06389,0.720488,0.283441,0.225178,0.0456132,0.0872999,0.23693
-0.0566211,0.208295,-3.05917,0.609133,0.347901,0.176107,0.0599301,0.0859273,0.244975
-0.0499632,0.219643,-3.05483,0.540637,0.395917,0.184716,0.0649017,0.0964521,0.23054
-0.0430382,0.229491,-3.05038,0.452419,0.381799,0.203241,0.0682794,0.116276,0.208293
-0.0367578,0.237849,-3.04513,0.415975,0.383979,0.297335,0.062723,0.112215,0.177047
-0.0302496,0.246516,-3.03622,0.468525,0.484276,0.552162,0.0642122,0.00789657,0.12704
-0.0235329,0.254513,-3.02165,0.313811,0.495777,0.806817,0.0787572,-0.117199,-0.00127763
-0.0203438,0.256996,-3.00536,-0.0227739,0.180993,0.678898,0.0280819,-0.106038,-0.201682
-0.023654,0.254077,-2.99542,-0.236078,-0.245887,0.269325,-0.0646167,-0.0562961,-0.3614
-0.0308697,0.246062,-2.99477,-0.620685,-0.419689,-0.169053,-0.154574,0.0572457,-0.444294
-0.0378966,0.228217,-3.00172,-1.14278,-0.381471,-0.377791,-0.169577,0.105178,-0.546922
-0.0400101,0.202941,-3.00895,-1.33384,0.0450419,-0.166417,-0.142493,0.0557683,-0.612279
-0.0340511,0.17788,-3.00886,-1.08408,0.54569,0.29605,-0.165833,0.0738248,-0.669563
-0.0215074,0.161076,-2.99817,-0.542435,0.829987,0.773083,-0.220502,0.0785321,-0.651036
-0.00778472,0.154857,-2.97975,-0.0750034,0.770873,1.00648,-0.251754,0.0265841,-0.558078
0.00196788,0.156679,-2.95881,0.23803,0.506172,1.02393,-0.287329,-0.024488,-0.396299
0.0060663,0.163789,-2.93914,0.449575,0.228002,0.892527,-0.314243,-0.0529305,-0.210988
0.00619044,0.174652,-2.92312,0.612197,0.0880034,0.677251,-0.318169,-0.0665609,-0.0226628
0.005771,0.188038,-2.91177,0.693724,0.0855089,0.438681,-0.30024,-0.07204,0.144176
0.00712851,0.201844,-2.9053,0.661091,0.189967,0.201042,-0.270579,-0.0626465,0.286803
0.011508,0.213927,-2.90344,0.525297,0.265146,-0.00635431,-0.226684,-0.057598,0.37483
0.0171943,0.222774,-2.90567,0.352067,0.239909,-0.192975,-0.187041,-0.0510673,0.426911
0.0219657,0.227919,-2.91137,0.170503,0.0869123,-0.352039,-0.149417,-0.0481123,0.436855
0.023085,0.229994,-2.92026,0.0730613,-0.186571,-0.496059,-0.102858,-0.0421697,0.415135
0.0186451,0.231243,-2.93143,0.0814098,-0.504449,-0.576913,-0.0661061,-0.0294943,0.383873
0.00835132,0.233235,-2.94381,0.139439,-0.778831,-0.607735,-0.0307539,-0.00471333,0.350041
0.00835132,0.233235,-2.94381,0.139439,-0.778831,-0.607735,-0.0307539,-0.00471333,0.350041
-0.00527014,0.237129,-2.95584,0.25353,-0.818946,-0.529168,0.00312375,-0.000896424,0.342486
-0.0192803,0.243229,-2.96476,0.337438,-0.794974,-0.337903,0.0431868,-0.0281598,0.302859
-0.0338393,0.250041,-2.96994,0.306002,-0.773156,-0.19468,0.0568743,-0.0127793,0.257349
-0.0486615,0.254261,-2.97298,0.0801759,-0.788915,-0.126927,0.0435231,0.0418134,0.170851
-0.064241,0.253986,-2.97587,-0.0823165,-0.822134,-0.163098,0.02338,0.106794,0.0713907
-0.0792385,0.254086,-2.98003,0.129465,-0.756955,-0.233244,0.0238646,0.135821,0.0165991
-0.091157,0.262139,-2.98431,0.648174,-0.497264,-0.229415,0.0275572,0.158042,0.041616
-0.096269,0.279803,-2.9862,1.03525,-0.0242437,-0.0969332,0.0325525,0.188444,0.132044
-0.0917171,0.301519,-2.98339,1.08947,0.550391,0.166021,0.0275965,0.187154,0.235785
-0.0782084,0.320472,-2.97564,0.795326,1.01018,0.39208,0.0469751,0.140652,0.25954
-0.0575092,0.329828,-2.96515,0.148454,1.36328,0.500799,0.0779542,0.0364197,0.188583
-0.0324879,0.324663,-2.95563,-0.585421,1.31518,0.359928,0.129952,-0.049465,-0.00508851
-0.014442,0.309057,-2.9527,-0.858068,0.503514,-0.0928804,0.141458,-0.0383536,-0.297311
-0.0107053,0.29322,-2.96083,-0.694854,-0.314802,-0.652957,0.129999,0.0222818,-0.45506
-0.0164718,0.281549,-2.97891,-0.513535,-0.682062,-1.00606,0.159866,0.0161553,-0.489135
-0.0236209,0.270908,-3.00089,-0.689209,-0.586907,-1.03975,0.171241,-0.0144063,-0.467038
-0.0273411,0.250707,-3.02285,-1.41267,-0.310106,-1.03042,0.140192,0.0229612,-0.506219
-0.0235769,0.216957,-3.04533,-1.91325,0.197488,-1.05071,0.0794643,0.0427433,-0.504153
-0.00938481,0.179298,-3.0672,-1.77982,0.766542,-1.00451,0.027499,0.02688,-0.443381
0.0127011,0.148551,-3.08586,-1.242,1.08739,-0.794635,0.012021,-0.0202838,-0.338089
0.0374251,0.129423,-3.09764,-0.65288,1.17445,-0.396027,0.00221853,-0.0964022,-0.177881
0.0605898,0.120388,-3.10127,-0.267345,1.05375,-0.0218456,-0.0201517,-0.14243,-0.0123861
0.079282,0.117154,-3.09912,-0.0915863,0.82061,0.184546,-0.0398835,-0.175213,0.125615
0.0925756,0.11684,-3.09472,0.0241702,0.537878,0.221246,-0.0538493,-0.191089,0.220771
0.0997941,0.119264,-3.09078,0.183676,0.225712,0.187667,-0.0650768,-0.168341,0.28886
0.100786,0.125045,-3.08756,0.354087,-0.0889351,0.199237,-0.0505894,-0.152807,0.337499
0.0952438,0.134161,-3.08365,0.507125,-0.416084,0.283988,-0.0307534,-0.132965,0.355159
0.083232,0.146385,-3.0781,0.651157,-0.686197,0.358495,-0.00807375,-0.115062,0.372416
0.0666637,0.160786,-3.07199,0.716003,-0.846226,0.326647,0.0152843,-0.100694,0.367233
0.0487577,0.175366,-3.06781,0.696804,-0.831501,0.158808,0.0349407,-0.0667881,0.351779
0.0335712,0.188531,-3.06703,0.594496,-0.650482,-0.0298292,0.0431865,-0.0219804,0.34365
0.0236594,0.199052,-3.07,0.475857,-0.398281,-0.222455,0.0716433,0.0268568,0.314575
0.0185253,0.209138,-3.07604,0.580832,-0.244215,-0.320339,0.113578,0.0531064,0.25856
0.0162237,0.222781,-3.08284,0.768204,-0.153947,-0.318593,0.122072,0.0959582,0.238418
0.0147811,0.238678,-3.08999,0.788058,-0.167325,-0.354147,0.136243,0.116759,0.209674
0.0128305,0.252605,-3.09782,0.579844,-0.202895,-0.372601,0.185026,0.0346563,0.132766
0.0116376,0.261117,-3.10588,0.26675,-0.110954,-0.404628,0.228107,-0.0964391,0.00392437
0.0136533,0.264099,-3.11599,0.0701157,0.04008,-0.590845,0.214634,-0.132332,-0.167101
0.0185728,0.26346,-3.13186,-0.169269,-0.0146343,-0.968208,0.137358,-0.0660394,-0.351322
0.0209969,0.254627,3.12522,-0.620258,-0.348256,-1.57096,0.0249544,0.0923382,-0.577958
0.0265625,0.240017,3.08822,-0.708649,0.0602102,-1.95954,0.000859154,0.0765559,-0.560625
0.0434398,0.225807,3.04972,-0.542524,0.826321,-1.6833,0.0567821,0.0445871,-0.553756
0.0774281,0.215216,3.02481,-0.403783,2.01665,-0.727238,-0.00941946,0.0305755,-0.345989
0.127141,0.205923,3.02141,-0.535086,2.71013,0.241147,-0.0338026,-0.0547148,-0.209372
0.176275,0.19347,3.03372,-0.861499,2.25867,0.6575,-0.0522034,-0.130703,-0.250539
0.209327,0.178581,3.05077,-0.839835,1.34148,0.663277,-0.141142,-0.13746,-0.226228
0.225287,0.168164,3.0662,-0.46565,0.541721,0.588084,-0.207418,-0.115083,-0.171146
0.225287,0.168164,3.0662,-0.46565,0.541721,0.588084,-0.207418,-0.115083,-0.171146
0.22841,0.166486,3.07823,0.0405329,0.0268137,0.530311,-0.224687,-0.0847247,-0.0636253
0.226441,0.173816,3.08768,0.420938,0.015325,0.551175,-0.215696,-0.0731515,0.0219982
0.22787,0.186094,3.09704,0.517735,0.316728,0.622785,-0.190356,-0.0666719,0.221567
0.235535,0.198835,3.10821,0.446753,0.625885,0.72802,-0.158788,-0.0638554,0.390197
0.245309,0.209809,3.12179,0.284525,0.530581,0.804962,-0.102292,-0.10383,0.498915
0.246654,0.216621,3.13705,-0.0137597,-0.137774,0.779579,-0.021734,-0.165532,0.5192
0.232811,0.215853,-3.1301,-0.446395,-0.844922,0.722628,0.0575383,-0.212043,0.491381
0.208575,0.206724,-3.11217,-0.762964,-1.08877,0.810393,0.0978035,-0.172141,0.44468
0.184716,0.196464,-3.09015,-0.570536,-0.814286,1.12442,0.130565,-0.127627,0.382719
0.166027,0.195382,-3.06248,0.0355897,-0.562482,1.51353,0.152225,-0.0582694,0.288407
0.148573,0.208891,-3.02953,0.80272,-0.52719,1.86025,0.149488,0.0477074,0.21077
0.130124,0.236837,-2.9917,1.35762,-0.458119,2.14025,0.164332,0.0992834,0.233886
0.112391,0.269283,-2.94849,1.24604,-0.193633,2.38376,0.231746,0.0625793,0.274546
0.0978058,0.294069,-2.89946,0.671568,0.0260408,2.47322,0.351458,-0.154274,0.224624
0.0803844,0.305475,-2.85248,0.0907902,-0.475103,1.9869,0.425937,-0.258885,-0.043684
0.0553389,0.306822,-2.81898,-0.0590186,-0.869819,1.16947,0.253547,0.0321182,-0.386876
0.0372047,0.309755,-2.80296,0.288402,-0.409674,0.392356,0.169927,0.13086,-0.444293
0.0311133,0.315228,-2.80062,0.0991977,-0.190955,-0.0812068,0.149471,0.0681052,-0.353506
0.0267746,0.309022,-2.80292,-0.736507,-0.331906,-0.0995242,0.178598,0.00305551,-0.23495
0.019268,0.287428,-2.80301,-1.33679,-0.39948,0.0705516,0.212145,-0.0744085,-0.0983917
0.0120759,0.258923,-2.79693,-1.42838,-0.0998284,0.469151,0.219299,-0.177951,0.0251132
0.00967272,0.233622,-2.78306,-1.01784,0.267564,0.813243,0.254689,-0.293644,-0.0310107
0.018211,0.219655,-2.76483,-0.442751,0.927932,0.911601,0.233341,-0.264376,-0.0443307
0.03604,0.213817,-2.74517,-0.221206,1.21089,0.994209,0.221624,-0.206021,-0.150451
0.0554356,0.212446,-2.72316,-0.0123195,1.13704,1.13813,0.209114,-0.123651,-0.230755
0.0705768,0.215476,-2.6984,0.0845057,0.778456,1.28518,0.194067,-0.0513553,-0.335463
0.0774302,0.21893,-2.67181,0.136184,0.527926,1.2959,0.161188,0.0411138,-0.293976
0.0839329,0.228541,-2.64572,0.682812,0.801654,1.3144,0.103053,0.0261783,-0.310955
0.100893,0.251354,-2.62059,1.34239,1.33792,1.31832,0.00232686,0.121121,-0.347521
0.119332,0.286241,-2.60019,1.86049,0.931543,0.906515,-0.153482,0.348998,-0.412378
0.129017,0.327714,-2.59397,2.11029,0.246354,0.239765,-0.0908825,0.317851,-0.435401
0.129386,0.368802,-2.59931,1.93947,-0.426844,-0.212829,-0.0440252,0.155649,-0.493631
0.122949,0.402147,-2.61483,1.50788,-0.693988,-0.799732,-0.168764,0.288352,-0.358803
0.119582,0.424571,-2.64128,1.00203,-0.692467,-1.27224,-0.188387,0.28249,-0.326844
0.12104,0.437137,-2.6714,0.58365,-0.342849,-1.15747,-0.132599,0.119377,-0.182127
0.125908,0.44361,-2.69062,0.272316,-0.0531858,-0.429012,-0.0605643,-0.00909024,-0.0716541
0.123474,0.445746,-2.69136,-0.0823509,-0.304925,0.385542,0.00265813,-0.0136929,-0.028393
0.105825,0.440766,-2.67427,-0.567998,-0.674058,1.04703,0.0805998,-0.0071902,0.0350009
0.0803347,0.430269,-2.64604,-0.646748,-0.575938,1.31553,0.0755341,0.0372933,0.0795523
0.0635997,0.420469,-2.61751,-0.493164,0.141644,1.144,0.0312583,0.133332,0.169063
0.0649087,0.414438,-2.595,-0.213741,0.83275,0.871837,0.00529477,0.159207,0.206872
0.0773459,0.41464,-2.57741,0.116739,1.04851,0.759231,0.0268588,0.13603,0.201206
0.0916004,0.420768,-2.56079,0.355639,1.01468,0.818671,0.0717187,0.150481,0.222151
0.103089,0.431556,-2.54208,0.522184,0.886297,0.982863,0.101246,0.159893,0.256002
0.109126,0.444892,-2.51921,0.570784,0.696934,1.21043,0.0927779,0.13286,0.228907
0.109361,0.45903,-2.4914,0.543688,0.530185,1.41028,0.0716187,0.112467,0.188918
0.103612,0.47181,-2.45952,0.388782,0.32638,1.52472,0.0349479,0.0950629,0.108916
0.0932864,0.480205,-2.42584,0.14235,0.153491,1.49676,0.0568953,0.0977491,0.0452296
0.0932864,0.480205,-2.42584,0.14235,0.153491,1.49676,0.0568953,0.0977491,0.0452296
0.0798072,0.482944,-2.39347,-0.108698,0.0167024,1.35486,0.0969977,0.110553,-0.02005
0.0658338,0.480735,-2.36442,-0.281198,-0.00562874,1.21173,0.134114,0.111021,-0.0839698
0.0548158,0.475231,-2.33588,-0.41771,0.222878,1.32111,0.106449,0.0816896,-0.0991023
0.0468502,0.467445,-2.30165,-0.486091,0.538584,1.70624,0.0717164,0.0198209,-0.0817832
0.0405278,0.459923,-2.25771,-0.404792,0.801656,2.14941,0.0860232,-0.0519702,-0.102223
0.0368885,0.45571,-2.20662,-0.18368,1.05316,2.35331,0.14564,-0.054865,-0.0970924
0.0370715,0.457543,-2.1519,0.191091,1.35219,2.55632,0.261763,-0.174832,0.0404145
0.0333078,0.463891,-2.09494,0.142594,0.580732,2.42728,0.254077,-0.0518665,-0.113884
0.01362,0.462853,-2.04646,-0.343533,-0.171518,1.92073,0.236364,0.0772557,-0.177643
-0.00356173,0.45376,-2.00564,-0.510829,0.378148,1.75416,0.265851,0.0754028,-0.131032
-0.00490927,0.444845,-1.96573,-0.31164,1.21788,1.89482,0.274832,0.20255,-0.124113
0.00481345,0.442229,-1.91803,0.0273515,1.63743,2.41098,0.323881,0.175453,-0.0843696
0.00934884,0.443914,-1.85965,0.055593,1.23915,2.81297,0.366359,0.183994,-0.164146
0.00136542,0.444417,-1.7946,-0.042898,0.793407,2.98828,0.367831,0.153763,-0.1635
-0.0121021,0.4424,-1.72853,-0.112267,0.748727,2.92595,0.309734,0.169168,-0.140575
-0.022573,0.43929,-1.66528,-0.0823315,0.890949,2.76228,0.242962,0.198079,-0.159142
-0.0285413,0.437264,-1.60624,0.0342259,0.99944,2.55467,0.200321,0.244355,-0.167347
-0.0309179,0.437844,-1.55221,0.15851,1.01229,2.30594,0.184903,0.287483,-0.156868
-0.0321053,0.439979,-1.50359,0.177081,0.92333,2.07805,0.186971,0.299654,-0.14931
-0.0328138,0.44182,-1.45905,0.134949,0.920048,1.93355,0.176233,0.304203,-0.112274
-0.0312328,0.443178,-1.41684,0.131465,1.05867,1.86758,0.172574,0.318659,-0.0733805
-0.0256065,0.445548,-1.37522,0.230163,1.27949,1.87276,0.184985,0.321547,-0.0372829
-0.0164786,0.450729,-1.33283,0.361752,1.44636,1.9228,0.200745,0.309889,-0.00219876
-0.00569614,0.458195,-1.28936,0.395938,1.50667,1.94253,0.208401,0.307885,0.0152767
0.00486968,0.465125,-1.24606,0.271473,1.42901,1.90953,0.220013,0.280077,0.00845534
0.0135981,0.468929,-1.20389,0.0652281,1.33807,1.82865,0.207612,0.258877,0.00532806
0.0223373,0.468613,-1.16468,-0.150794,1.29137,1.64335,0.180603,0.262929,-0.018519
0.0327679,0.46493,-1.13017,-0.280537,1.30259,1.413,0.157697,0.250591,-0.0395338
0.0465507,0.459726,-1.10065,-0.326038,1.37885,1.20552,0.12558,0.24804,-0.0643001
0.0632654,0.454339,-1.07459,-0.341962,1.40843,1.11573,0.104659,0.222728,-0.0813957
0.0792231,0.448658,-1.04883,-0.394288,1.26407,1.16387,0.0807155,0.180781,-0.100759
0.0901475,0.442158,-1.02094,-0.458085,1.02146,1.27736,0.0293957,0.131245,-0.123781
0.0962296,0.435529,-0.990793,-0.443444,0.86138,1.35619,-0.0133812,0.0883789,-0.125441
0.0986761,0.429827,-0.960009,-0.38734,0.646336,1.33946,-0.0557719,0.0735437,-0.142046
0.0977371,0.42543,-0.931124,-0.302801,0.445193,1.20395,-0.0953226,0.0534593,-0.139033
0.0948936,0.422847,-0.906512,-0.154873,0.292075,0.994243,-0.109309,0.0397075,-0.13208
0.0918532,0.423315,-0.886401,0.0324932,0.24082,0.842514,-0.116892,0.0306581,-0.109567
0.0899229,0.427121,-0.868227,0.180605,0.339354,0.860066,-0.109093,-0.00322822,-0.0544375
0.0901401,0.432111,-0.848394,0.118202,0.499359,0.975711,-0.102771,-0.0298194,-0.00134957
0.0917923,0.433733,-0.82594,-0.168425,0.57889,1.04766,-0.0911561,-0.0506711,0.0291325
0.0930674,0.428918,-0.802223,-0.485008,0.532261,1.03453,-0.0764278,-0.0620489,0.0147946
0.0937664,0.419882,-0.77891,-0.56304,0.491146,0.985479,-0.0809186,-0.0457465,0.00253987
0.0946857,0.411911,-0.756974,-0.386019,0.479059,0.931099,-0.0681886,-0.0384355,-0.00156575
0.096568,0.408896,-0.736479,-0.0853957,0.537303,0.905391,-0.0619954,-0.0368062,0.0159161
0.100079,0.41146,-0.717295,0.133071,0.545181,0.855767,-0.0371448,-0.0260013,0.0314739
0.103625,0.415997,-0.699581,0.123688,0.518036,0.799172,-0.0212534,-0.0409204,0.0566119
0.106996,0.419101,-0.682755,0.0305327,0.504015,0.762453,-0.000579976,-0.0317662,0.0583171
0.109506,0.422673,-0.666839,0.171315,0.281242,0.683915,0.0585946,-0.00384769,0.0428246
0.109506,0.422673,-0.666839,0.171315,0.281242,0.683915,0.0585946,-0.00384769,0.0428246
0.107141,0.428064,-0.653294,0.210804,0.0449813,0.617066,0.0449092,-0.0231523,0.0354288
0.102265,0.432779,-0.640336,0.111301,0.0765261,0.590595,-0.00760733,0.00545469,0.0465394
0.101764,0.433909,-0.628407,-0.121791,0.399531,0.485728,-0.0281182,0.000361592,0.0528732
0.109131,0.430214,-0.618558,-0.327017,0.716652,0.378016,-0.0418302,0.0150729,0.0566831
0.120363,0.423421,-0.608891,-0.422912,0.713932,0.429575,-0.0401632,0.0139398,0.0319695
0.127019,0.416227,-0.597923,-0.404904,0.394653,0.478492,-0.0072043,0.0213174,0.0134079
0.127427,0.409698,-0.585619,-0.390867,0.14769,0.560377,-0.0291477,0.00816548,0.0121906
