rotationRate_x,rotationRate_y,rotationRate_z,acceleration_x,acceleration_y,acceleration_z,relativeAltitude
-1.41491,-0.551664,-1.3543,-0.0686412,0.0385097,-0.0383779,0
-0.83875,-0.369431,-1.04429,-0.0503519,0.0595099,-0.165873,0
-0.137634,-0.526907,-0.817851,-0.0271224,0.0614534,-0.154873,0
0.384044,-0.989745,-0.796381,0.0116923,0.0611557,-0.129624,0
0.574618,-1.41918,-0.870007,0.0380233,0.0668447,-0.0888724,0
0.49016,-1.66061,-0.911252,0.027413,0.064669,-0.0865018,0
0.228877,-1.89737,-0.746096,0.000114232,0.0112033,-0.159568,0
0.0623575,-1.87398,-0.60744,-0.00925122,0.0557257,-0.149526,0
0.240074,-1.4395,-0.499596,-0.0321684,0.0930549,-0.0816075,0
0.597746,-0.820314,-0.408023,-0.0629092,0.12,0.0113962,0
0.848826,-0.229633,-0.378175,-0.0522524,0.109237,0.142184,0
0.848465,0.261778,-0.319523,-0.0272601,0.0585674,0.269298,0
0.601585,0.616428,-0.24026,0.00538231,0.00408384,0.374109,0
0.179916,0.7596,-0.170637,0.034227,-0.0520369,0.416978,0
-0.225735,0.648467,-0.150944,0.0476973,-0.0874469,0.416379,0
-0.535591,0.338609,-0.242003,0.0245917,-0.0758791,0.364913,0
-0.594252,0.094011,-0.411143,0.0126043,-0.037533,0.32177,0
-0.378693,0.00626153,-0.452065,0.0200178,-0.00323465,0.280011,0
0.0409091,-0.00969986,-0.272197,0.0479007,0.0210914,0.23585,0
0.535602,-0.0226647,0.0605251,0.069434,0.0410438,0.209625,0
0.894914,-0.0457701,0.339198,0.0897991,0.044697,0.210734,0
1.07931,-0.114174,0.497672,0.0913815,0.0294211,0.206965,0
1.08368,-0.157496,0.47758,0.0665223,0.0591008,0.204696,0
1.00882,-0.14689,0.304156,0.0245247,0.113757,0.177088,0
1.04741,-0.0168321,0.157868,-0.0237835,0.162344,0.145551,0
1.20416,0.32096,0.258961,-0.0272599,0.0913786,0.122227,0
1.13084,0.63782,0.501834,0.0108399,-0.0579177,0.0616271,0
0.604466,0.533633,0.524518,0.0420753,-0.157257,-0.0553321,0
-0.417261,-0.327339,0.172534,-0.00656588,-0.110574,-0.26396,0
-1.26367,-0.846565,-0.202253,-0.0629642,-0.128766,-0.360641,0
-1.58324,-0.782486,-0.506495,-0.114791,-0.127706,-0.450018,0
-1.68657,-0.422476,-0.84203,-0.204721,0.0416402,-0.463515,0
-1.64278,0.185073,-0.929972,-0.226495,0.0486971,-0.395954,0
-1.5335,0.744127,-0.816345,-0.170119,0.0202745,-0.28023,0
-1.40487,1.02763,-0.657344,-0.0930343,-0.0153771,-0.147374,0
-1.17656,0.973465,-0.479676,-0.0256572,-0.077139,-0.0406862,0
-0.885307,0.629121,-0.388329,0.0244411,-0.106777,0.0588602,0
-0.667655,0.0853837,-0.389555,0.0588284,-0.1276,0.123248,0
-0.59269,-0.438945,-0.444827,0.079352,-0.128977,0.169324,0
-0.531022,-0.761522,-0.475794,0.0899134,-0.0992573,0.200383,0
-0.354275,-0.897289,-0.475473,0.0967508,-0.0433023,0.165341,0
-0.0297902,-0.76526,-0.446901,0.0937295,0.00750288,0.166673,0
0.262677,-0.561832,-0.356217,0.0860441,0.0406018,0.150853,0
0.489894,-0.351453,-0.289221,0.0971696,0.0642071,0.135257,0
0.679815,-0.143654,-0.252972,0.0959261,0.0821523,0.135756,0
0.843983,0.122263,-0.24208,0.0700431,0.0955231,0.135891,0
0.991852,0.468339,-0.302903,0.0289817,0.103423,0.12159,0
1.1094,0.764967,-0.467067,-0.00623592,0.114357,0.0590898,0
1.24756,0.983858,-0.623247,-0.0351514,0.133826,0.0347328,0
1.27095,1.14535,-0.635055,-0.0209301,0.0629395,0.0303085,0
0.978437,1.25311,-0.535074,0.0321955,-0.113868,-0.00470889,0
0.978437,1.25311,-0.535074,0.0321955,-0.113868,-0.00470889,0
0.288182,0.90626,-0.576208,0.0685816,-0.230046,-0.109871,0
-0.553248,0.00718951,-1.0595,-0.01417,-0.098398,-0.286167,0
-0.963009,-0.379085,-1.55703,-0.0710063,0.00495785,-0.34801,0
-0.776245,0.0325143,-1.50078,-0.0515614,-0.01656,-0.309312,0
-0.90178,0.0627639,-1.03191,0.0174003,-0.128714,-0.43885,0
-1.27806,0.193679,-0.704395,-0.0195645,-0.0145833,-0.383398,0
-1.22268,0.512526,-0.257252,-0.0698988,-0.0236081,-0.343619,0
-0.719873,0.792919,0.256308,-0.074771,-0.0196196,-0.225742,0
-0.113523,0.693586,0.76204,-0.0650243,-0.0878853,-0.111703,0
0.267163,0.249587,1.02403,-0.0692707,-0.124455,-0.0183346,0
0.416994,-0.218033,0.936133,-0.0881938,-0.131692,0.0685281,0
0.441935,-0.450182,0.586518,-0.107216,-0.114877,0.154256,0
0.357392,-0.317953,0.193961,-0.109818,-0.0768064,0.255758,0
0.275383,0.076599,-0.00904681,-0.0756719,-0.0547379,0.343852,0
0.274063,0.442284,-0.00836897,-0.0255915,-0.0328003,0.393014,0
0.250955,0.628772,0.113625,0.00640202,-0.0311928,0.424662,0
0.143352,0.492948,0.208037,0.0319426,-0.0312524,0.399744,0
0.0872188,0.189804,0.211019,0.0469269,-0.0201108,0.354376,0
0.107963,-0.0241701,0.197204,0.0315696,0.0206187,0.294819,0
0.21336,0.0399117,0.237909,0.00116065,0.0531898,0.236175,0
0.452739,0.179451,0.330008,-0.0359625,0.0971972,0.164465,0
0.791932,0.160174,0.420835,-0.0734496,0.136872,0.0845773,0
1.13463,0.019157,0.38224,-0.0919598,0.175636,0.0277911,0
1.35834,0.0686258,0.271526,-0.1019,0.163354,0.0266813,0
1.31149,0.20928,0.167241,-0.0792191,0.090924,0.00987458,0
0.862965,0.309213,-0.0300351,-0.0294303,0.0572546,-0.0216351,0
0.219246,0.211336,-0.260463,0.0234163,0.0226271,-0.10993,0
-0.367238,0.0497936,-0.497735,0.0578612,0.0253929,-0.207233,0
-1.00877,-0.204071,-0.656918,0.0874775,-0.0592788,-0.337056,0
-1.70897,-0.647933,-1.0349,0.0647211,0.107458,-0.471417,0
-1.75758,-0.497649,-1.08311,-0.0210207,0.162303,-0.446397,0
-1.24863,-0.0937545,-0.69212,-0.0729292,0.137521,-0.404045,0
-0.693239,0.133983,-0.120417,-0.0549617,0.0414572,-0.293921,0
-0.460715,0.28032,0.309422,-0.00450531,-0.0841392,-0.11862,0
-0.433934,0.322182,0.506088,0.0192119,-0.165467,-0.0023725,0
-0.467783,0.105068,0.403478,0.0481489,-0.195875,0.082968,0
-0.555786,-0.363764,0.157098,0.0646948,-0.193315,0.115871,0
-0.615505,-0.736833,-0.0158382,0.0710749,-0.166466,0.140617,0
-0.501804,-0.80414,-0.0160768,0.0748516,-0.121438,0.144102,0
-0.229794,-0.636612,0.0802719,0.077364,-0.0723425,0.116972,0
0.104983,-0.369789,0.162595,0.085588,-0.0402015,0.105199,0
0.371609,-0.123169,0.150375,0.0981305,-0.027626,0.121385,0
0.490765,0.0713117,0.046151,0.105528,-0.020535,0.15727,0
0.527952,0.149321,-0.0847777,0.102632,-0.00846571,0.184833,0
0.580833,0.15975,-0.199694,0.0936142,0.0109197,0.211454,0
0.65355,0.194947,-0.263184,0.0677747,0.0430073,0.246842,0
0.72487,0.219394,-0.304248,0.0485033,0.0678962,0.271707,0
0.756677,0.127258,-0.367306,0.024549,0.0936745,0.261301,0
0.720345,-0.00331329,-0.446566,0.010333,0.120871,0.219888,0
0.669773,0.0149638,-0.432891,0.0241206,0.0908881,0.167188,0
0.669773,0.0149638,-0.432891,0.0241206,0.0908881,0.167188,0
0.568367,0.126385,-0.265036,0.071678,-0.0337566,0.0747952,0
0.355431,0.0374632,-0.166861,0.068061,-0.103954,-0.0640323,0
0.0748703,-0.330402,-0.355963,0.000699162,-0.0791334,-0.201729,0
-0.218862,-0.57868,-0.709255,-0.068565,0.0217645,-0.272727,0
-0.448082,-0.403705,-0.609771,-0.00781104,-0.161501,-0.280018,0
-1.26402,-0.539417,-0.59465,-0.0137905,-0.0780156,-0.407031,0
-1.69293,-0.0655492,-0.543461,-0.0797105,0.0105439,-0.389731,0
-1.36159,0.46266,-0.236769,-0.0990947,0.0435942,-0.418129,0
-0.649862,0.567739,0.257158,-0.0900096,0.0386144,-0.365789,0
-0.17027,0.112341,0.701734,-0.0780021,-0.0638942,-0.298893,0
-0.0214812,-0.342029,0.740114,-0.128009,-0.0828447,-0.200651,0
-0.00235492,-0.368195,0.400584,-0.169961,-0.0683684,-0.0627754,0
-0.0895692,-0.115193,-0.0280648,-0.172231,-0.0529569,0.0482772,0
-0.16878,0.220502,-0.23265,-0.132892,-0.0429763,0.153405,0
-0.115149,0.344311,-0.135442,-0.0842991,-0.0481875,0.206414,0
0.062666,0.235149,0.125069,-0.0742851,-0.0634531,0.256371,0
0.222306,-0.025516,0.234688,-0.0878922,-0.0605275,0.279035,0
0.346685,-0.207996,0.126579,-0.093876,-0.0631689,0.313899,0
0.336674,-0.354271,-0.0696033,-0.0955739,-0.0578709,0.319354,0
0.275755,-0.403773,-0.220292,-0.0743224,-0.0511369,0.305401,0
0.295822,-0.401686,-0.215717,-0.0603478,-0.0359693,0.267797,0
0.312055,-0.46546,-0.159506,-0.04319,-0.0120003,0.196697,0
0.47804,-0.461589,-0.0794544,-0.0465462,0.0260395,0.138179,0
0.765133,-0.398456,0.00592425,-0.0714238,0.0707803,0.104459,0
0.985779,-0.289145,0.0382689,-0.0687144,0.0855449,0.10442,0
1.13626,-0.0996835,0.0890263,-0.0471968,0.0682141,0.131918,0
1.18607,0.0950946,0.186202,0.0109123,0.00769076,0.147411,0
0.939224,0.192236,0.266594,0.0787688,-0.101233,0.117504,0
0.359613,-0.0173258,0.105752,0.133318,-0.152795,-0.0114754,0
-0.224458,-0.473204,-0.303215,0.108887,-0.0714239,-0.138912,0
-0.687321,-0.809954,-0.553039,0.0882958,-0.0152087,-0.268998,0
-0.847248,-0.527114,-0.515885,0.121989,-0.101564,-0.32548,0
-1.10749,-0.273553,-0.579703,0.154789,-0.0889106,-0.427066,0
-1.42552,-0.283238,-0.647661,0.0573854,0.0517887,-0.468445,0
-1.51285,-0.291096,-0.542479,0.034386,0.0804973,-0.495691,0
-1.00674,-0.237387,-0.229132,0.0160695,0.0560902,-0.481918,0
-0.183818,-0.284978,0.23659,-0.0188535,-0.00798932,-0.409697,0
0.565111,-0.335106,0.583421,-0.043993,-0.0830591,-0.244105,0
1.05903,-0.311437,0.725848,-0.0775793,-0.110667,-0.0225302,0
1.2216,-0.28521,0.684666,-0.0808246,-0.104452,0.169676,0
1.16079,-0.325409,0.511116,-0.0596245,-0.0663931,0.309997,0
1.0128,-0.504303,0.350295,-0.0428109,-0.0100213,0.376635,0
0.89296,-0.707491,0.24355,-0.0330997,0.0442488,0.396734,0
0.858325,-0.824975,0.122549,-0.0293919,0.0920171,0.379781,0
0.922644,-0.74568,-0.0451796,-0.0282003,0.126542,0.362387,0
0.962762,-0.613247,-0.283678,-0.0205703,0.153558,0.341203,0
0.829434,-0.510721,-0.576706,-0.0146679,0.171231,0.319448,0
0.494919,-0.311078,-0.870067,-0.0125475,0.185496,0.317377,0
0.126929,-0.033965,-1.07961,-0.00653343,0.189436,0.28326,0
0.0274985,0.287305,-1.12632,0.00111244,0.149947,0.221088,0
0.0274985,0.287305,-1.12632,0.00111244,0.149947,0.221088,0
-0.0131099,0.464455,-1.19225,0.0155996,0.0743684,0.167731,0
-0.352508,0.233641,-1.45216,-0.00418502,0.0200323,0.0810274,0
-1.07118,-0.190798,-1.9329,-0.0371389,0.0470003,-0.00401306,0
-1.69564,-0.018502,-2.12567,-0.0717689,0.0138223,-0.0327551,0
-1.90705,0.436996,-1.85467,-0.0621659,-0.0653549,-0.113345,0
-1.96106,0.486752,-1.4357,-0.0227236,-0.142669,-0.267843,0
-1.93691,0.0568065,-1.14891,-0.0158715,-0.211597,-0.430477,0
-1.75864,-0.516941,-1.051,-0.056561,-0.215193,-0.556463,0
-1.32901,-0.893957,-1.00736,-0.113166,-0.180132,-0.610701,0
-0.699664,-0.969456,-0.80592,-0.162576,-0.154484,-0.597862,0
0.0454347,-0.672307,-0.464279,-0.192346,-0.14323,-0.481347,0
0.668369,-0.251031,-0.190677,-0.18164,-0.149146,-0.296415,0
1.05998,0.037027,-0.0867391,-0.146634,-0.164761,-0.0874766,0
1.25965,0.0894,-0.144876,-0.117595,-0.158956,0.09086,0
1.30124,-0.00146635,-0.329789,-0.0789333,-0.136317,0.238356,0
1.24876,-0.118427,-0.529328,-0.0396676,-0.108096,0.358803,0
1.11735,-0.18535,-0.673906,0.00428901,-0.0747052,0.445372,0
0.958277,-0.211523,-0.755558,0.058445,-0.0443668,0.491777,0
0.858986,-0.173469,-0.758427,0.101996,-0.0226074,0.523446,0
0.797816,-0.105684,-0.725702,0.144656,-0.0112243,0.53847,0
0.766344,0.00395214,-0.687745,0.182957,-0.016954,0.549314,0
0.6949,0.0421276,-0.64269,0.212694,-0.0121982,0.539843,0
0.508604,-0.100482,-0.514702,0.218746,-0.000285357,0.496227,0
0.0500259,-0.563336,-0.341486,0.173753,0.0430518,0.334753,0
-0.447854,-0.859878,-0.244769,0.171202,-0.0104136,0.159324,0
-0.696966,-1.33153,-0.254025,0.154825,-0.0494619,-0.169268,0
-0.561317,-1.85782,-0.44666,0.0135891,0.0697581,-0.473663,0
-0.367919,-1.74206,-0.818445,-0.13918,0.205784,-0.612365,0
-0.39093,-0.983909,-1.05285,-0.210015,0.234694,-0.649603,0
-0.589358,0.0100217,-0.917206,-0.218313,0.133191,-0.637864,0
-1.04897,0.571294,-0.796749,-0.229228,0.116552,-0.636249,0
-1.42808,0.738193,-0.888472,-0.278753,0.163891,-0.606758,0
-1.36888,0.762321,-1.03518,-0.304073,0.169418,-0.52591,0
-0.95561,0.702088,-0.996054,-0.29271,0.100854,-0.394137,0
-0.52972,0.511372,-0.777166,-0.252999,-0.0197069,-0.227672,0
-0.332106,0.22565,-0.511536,-0.217118,-0.154605,-0.0775856,0
-0.335532,-0.06742,-0.334092,-0.215562,-0.23601,0.0404673,0
-0.411616,-0.340041,-0.33502,-0.221479,-0.246435,0.113412,0
-0.361976,-0.564216,-0.444752,-0.211656,-0.216713,0.16636,0
-0.125767,-0.801698,-0.529546,-0.170093,-0.179194,0.197213,0
0.24525,-1.08883,-0.549608,-0.109928,-0.134933,0.214787,0
0.55552,-1.45367,-0.560384,-0.0552119,-0.100816,0.227585,0
0.67119,-1.79859,-0.674467,0.010805,-0.0870444,0.212078,0
0.526045,-2.01728,-0.912834,0.0542268,-0.0673566,0.151929,0
0.139858,-1.99659,-1.17654,0.0575253,-0.0156577,0.0696034,0
-0.407912,-1.78982,-1.43192,0.0465762,0.0753631,-0.0768889,0
-0.549489,-1.36355,-1.65586,0.0517526,0.18745,-0.221286,0
-0.0960126,-0.60169,-1.64951,0.0628553,0.206472,-0.274875,0
0.0826957,-0.0961866,-1.69056,0.0751336,0.184797,-0.29526,0
-0.366994,-0.0111185,-1.97954,0.108515,0.190758,-0.308371,0
-0.366994,-0.0111185,-1.97954,0.108515,0.190758,-0.308371,0
-0.819231,0.0762183,-2.27858,0.116731,0.145338,-0.351376,0
-0.75798,0.397888,-2.38814,0.0328754,0.199731,-0.356874,0
-0.23952,0.769801,-2.17695,-0.030342,0.269785,-0.349835,0
0.295292,0.773496,-1.62126,-0.0527784,0.222735,-0.264466,0
0.570039,0.450634,-1.04865,-0.0768467,0.158895,-0.154395,0
0.673744,-0.0668066,-0.69263,-0.100036,0.0724086,-0.0403438,0
0.663366,-0.585036,-0.598778,-0.137223,0.00487655,0.0516376,0
0.550832,-0.886955,-0.681507,-0.16189,-0.0362414,0.132904,0
0.392652,-0.896443,-0.795706,-0.178817,-0.0584385,0.2109,0
0.25473,-0.638002,-0.866195,-0.177549,-0.0665554,0.291122,0
0.0713037,-0.291087,-0.92761,-0.157407,-0.0683537,0.35412,0
-0.138929,-0.0549843,-1.00415,-0.11053,-0.0849863,0.394548,0
-0.401732,0.000317986,-1.06237,-0.0478106,-0.118816,0.412731,0
-0.714905,-0.112978,-1.12439,0.00299235,-0.135493,0.39848,0
-0.925418,-0.323401,-1.15653,0.0458266,-0.122655,0.342072,0
-0.993912,-0.548607,-1.12616,0.0644071,-0.0972004,0.270999,0
-0.725647,-0.750096,-1.02839,0.0975642,-0.0710481,0.162176,0
-0.138538,-0.747701,-0.792035,0.10065,-0.00676563,0.0683349,0
0.435569,-0.588118,-0.407992,0.105562,0.0107938,0.0489402,0
0.751459,-0.34942,-0.00341016,0.105586,0.0101043,0.0598281,0
0.848089,-0.17194,0.24672,0.0811657,0.00405335,0.0781835,0
0.91126,-0.126794,0.276008,0.0472995,0.00684452,0.0816258,0
1.03151,-0.151124,0.12268,0.0115801,0.0240476,0.0971767,0
1.1826,-0.119591,-0.103478,-0.00858943,0.0345953,0.146928,0
1.29395,-0.0845311,-0.234769,-0.0211433,0.0241248,0.202987,0
1.38463,-0.183624,-0.197371,-0.0350234,0.00814894,0.248324,0
1.50226,-0.428997,-0.115953,-0.0512359,0.00710651,0.289733,0
1.58735,-0.561332,-0.144583,-0.0578599,0.0143307,0.36081,0
1.41806,-0.425873,-0.33195,-0.0469227,-0.02492,0.419273,0
0.661527,-0.215983,-0.710484,-0.0173922,-0.097619,0.421407,0
-0.781034,-0.4298,-1.23498,0.0239992,-0.184572,0.253809,0
-2.42283,-1.23251,-1.85517,0.0264739,-0.18377,-0.0938511,0
-3.30204,-2.13238,-2.29689,-0.0421474,-0.0355792,-0.489385,0
-2.71651,-1.94597,-2.3808,-0.150517,0.144188,-0.680259,0
-1.48049,-0.988516,-1.67921,-0.237197,0.173719,-0.751398,0
-0.864996,0.0319243,-0.313113,-0.174604,0.0341485,-0.683833,0
-0.874352,0.718817,0.853612,-0.052875,-0.0626075,-0.612978,0
-0.750411,1.10171,1.29191,0.0549996,-0.134718,-0.494809,0
-0.259568,1.01348,1.07098,0.0687067,-0.157207,-0.450165,0
0.342713,0.570884,0.719086,0.0538028,-0.198597,-0.3586,0
0.722066,0.174593,0.449463,0.0682245,-0.155738,-0.188182,0
0.852481,0.00780562,0.327685,0.0984111,-0.100542,-0.0147626,0
0.933153,0.0503028,0.333932,0.118513,-0.0365893,0.1332,0
1.05036,0.147588,0.376154,0.116717,0.0365228,0.235484,0
1.22821,0.158023,0.378043,0.103169,0.0999077,0.2986,0
1.40307,-0.00932029,0.296131,0.0838502,0.166688,0.330503,0
1.5039,-0.322504,0.127842,0.0585923,0.240332,0.33344,0
1.59541,-0.615152,-0.106906,0.0371067,0.322545,0.335059,0
1.71045,-0.729322,-0.357658,0.0124956,0.409848,0.354926,0
1.71045,-0.729322,-0.357658,0.0124956,0.409848,0.354926,0
1.78373,-0.535934,-0.525503,-0.00693023,0.491962,0.399361,0
1.62856,-0.171058,-0.558112,0.00559294,0.551904,0.402097,0
1.28021,0.177616,-0.535463,0.0681055,0.544643,0.355469,0
0.850941,0.492505,-0.445518,0.133801,0.436104,0.277141,0
0.226927,0.879215,-0.222242,0.139014,0.245044,0.205422,0
-0.674709,1.12925,-0.365013,0.0474076,0.257079,0.097869,0
-1.5641,1.45918,-0.896192,0.0172086,0.22955,0.031472,0
-2.08233,1.77181,-1.04001,0.0574574,0.0610517,-0.0543833,0
-2.1752,1.81694,-0.507838,0.0896427,-0.156705,-0.116615,0
-2.23209,0.926766,0.113075,0.0525129,-0.376887,-0.259949,0
-2.77005,-0.970638,-0.0891971,-0.0975277,-0.289201,-0.487701,0
-3.18105,-2.21906,-0.581259,-0.194786,-0.298202,-0.558662,0
-2.79738,-2.02785,-0.842001,-0.283324,-0.190888,-0.576444,0
-1.81756,-0.776553,-0.676983,-0.295965,-0.12936,-0.469242,0
-1.06584,0.238966,-0.179077,-0.180754,-0.192081,-0.374571,0
-0.552083,0.531432,0.372547,-0.104537,-0.272162,-0.234481,0
-0.0308408,0.193848,0.709778,-0.0925508,-0.338998,-0.0956782,0
0.48651,-0.279954,0.649631,-0.0916253,-0.344904,0.0589219,0
0.772709,-0.580586,0.407461,-0.0513569,-0.377329,0.209397,0
0.762398,-0.633608,0.16858,0.00901663,-0.384015,0.317747,0
0.68653,-0.695972,0.112403,0.0518268,-0.380982,0.336298,0
0.7395,-1.08116,0.123195,0.059239,-0.330663,0.259942,0
0.997828,-1.55793,0.0138171,0.0504074,-0.212885,0.197332,0
1.312,-1.82107,-0.242174,0.0794071,-0.117088,0.149544,0
1.70891,-1.58625,-0.563616,0.100561,-0.0111417,0.148357,0
1.92742,-1.02644,-0.763958,0.110522,0.0981182,0.149048,0
1.93285,-0.286766,-0.672077,0.15326,0.12337,0.146343,0
1.75054,0.338395,-0.355286,0.219184,0.0533604,0.098447,0
1.09245,0.283197,-0.231991,0.24164,0.0708142,-0.0674379,0
0.0792961,-0.150739,-0.516123,0.252847,0.167144,-0.243631,0
-0.591073,-0.174878,-0.710725,0.234229,0.231929,-0.327916,0
-0.811661,0.253751,-0.424994,0.23031,0.211662,-0.362054,0
-0.899884,0.753989,0.103322,0.209752,0.193477,-0.318311,0
-1.22294,1.18985,0.544549,0.150613,0.209794,-0.205618,0
-1.53065,1.49815,0.870296,0.0619929,0.171458,-0.126233,0
-1.39677,1.16667,1.09329,-0.0328371,0.110736,-0.16527,0
-0.922594,0.343215,1.15302,-0.100107,0.0598423,-0.207574,0
-0.443104,-0.167924,1.13725,-0.131759,0.0206388,-0.149059,0
-0.0612692,0.018906,1.09827,-0.151049,0.0167963,-0.0195092,0
0.279024,0.507899,1.04214,-0.147047,0.0390937,0.0969961,0
0.570448,0.825434,0.983735,-0.112271,0.0585028,0.179082,0
0.787377,0.84929,0.88258,-0.0913506,0.0979431,0.252571,0
0.981026,0.664852,0.730896,-0.0795624,0.154386,0.3137,0
1.16669,0.404268,0.561898,-0.069752,0.206181,0.368713,0
1.26895,0.317217,0.374382,-0.0620485,0.237198,0.440859,0
1.19575,0.441926,0.117498,-0.0432374,0.250008,0.516351,0
0.914518,0.567029,-0.25635,-0.000384301,0.261266,0.527527,0
0.572455,0.661899,-0.55715,0.0561269,0.247535,0.491967,0
0.400464,0.577437,-0.436076,0.0790595,0.0836316,0.377455,0
-0.217462,0.0331279,-0.385796,0.0530814,-0.00840753,0.162266,0
-0.217462,0.0331279,-0.385796,0.0530814,-0.00840753,0.162266,0
-1.61526,-0.73068,-0.819713,0.011465,-0.0313439,-0.143457,0
-2.73884,-0.427806,-1.32992,-0.0268973,-0.0968301,-0.332423,0
-2.84887,0.8119,-1.29906,-0.0870669,-0.0594009,-0.487951,0
-2.46988,1.28454,-0.626171,-0.0472318,-0.157391,-0.743557,0
-1.93222,0.56557,0.0930992,-0.015463,-0.1775,-0.940255,0
-0.97984,-0.54419,0.739384,-0.140553,-0.185052,-0.986094,0
-0.135924,-1.23627,1.07389,-0.271799,-0.178338,-0.849546,0
0.171159,-1.32233,1.05979,-0.349862,-0.203822,-0.654101,0
0.161694,-0.879338,0.820613,-0.395858,-0.206274,-0.45024,0
0.318179,-0.300218,0.494784,-0.402937,-0.178257,-0.270754,0
0.634092,0.161614,0.157788,-0.34902,-0.137594,-0.0844008,0
0.903534,0.306477,-0.0507631,-0.2694,-0.112333,0.090985,0
1.06979,0.230811,-0.137736,-0.204078,-0.0728908,0.248372,0
1.11874,0.0695146,-0.189608,-0.143804,-0.0375668,0.369756,0
1.11229,-0.13959,-0.220591,-0.0790007,-0.019949,0.439091,0
1.075,-0.41355,-0.220822,-0.0254592,0.00271204,0.456326,0
1.02326,-0.74248,-0.237893,0.0227044,0.0433969,0.43505,0
1.03835,-0.93612,-0.256025,0.0656426,0.0797386,0.42127,0
1.17298,-0.970904,-0.252406,0.107549,0.11348,0.404884,0
1.3382,-0.926743,-0.196725,0.133734,0.125059,0.387345,0
1.42914,-1.02658,-0.156963,0.156607,0.126328,0.345584,0
1.44569,-1.37541,-0.174593,0.172754,0.146773,0.273559,0
1.43794,-1.16989,-0.202505,0.176133,0.169184,0.295644,0
1.2396,0.13808,-0.0633446,0.149881,0.104439,0.381668,0
0.641218,1.6539,0.160376,0.130893,0.0203943,0.374841,0
-0.0223424,2.63238,0.229087,0.15251,-0.0396796,0.362908,0
-0.77657,2.11978,-0.151593,0.217415,-0.0335894,0.1591,0
-1.5594,0.710446,-0.626043,0.258021,-0.0491421,-0.0471845,0
-2.04141,-0.308076,-0.545674,0.207164,-0.114173,-0.138216,0
-2.76946,-0.682295,-0.399888,0.0661248,-0.00106424,-0.302675,0
-3.51042,-0.222646,-0.415459,-0.0781365,0.0241712,-0.510746,0
-3.16524,0.648424,-0.600733,-0.170758,0.077152,-0.721672,0
-1.78624,1.18364,-0.578345,-0.1889,0.0200598,-0.766135,0
-0.518324,1.11522,-0.293487,-0.154172,-0.135302,-0.628333,0
0.190987,1.00663,-0.172437,-0.124146,-0.246421,-0.332283,0
0.463091,0.865395,-0.245428,-0.123323,-0.301206,-0.0846308,0
0.598189,0.76549,-0.495148,-0.132476,-0.269555,0.117464,0
0.697172,0.633992,-0.766717,-0.123893,-0.204482,0.247049,0
0.809758,0.463295,-0.916401,-0.102272,-0.123834,0.33355,0
0.977239,0.156653,-0.866224,-0.0835311,-0.0591794,0.381338,0
1.0867,-0.279677,-0.66999,-0.085211,-0.0114197,0.374847,0
1.18126,-0.593706,-0.494111,-0.0985051,0.0193755,0.377075,0
1.158,-0.92683,-0.514985,-0.112485,0.0433751,0.326905,0
0.965753,-0.979659,-0.677821,-0.16342,0.0761464,0.318877,0
0.610175,-0.444544,-0.984753,-0.244877,0.166557,0.342114,0
0.237984,0.598355,-1.39052,-0.294268,0.255775,0.340957,0
0.141546,1.36628,-1.54124,-0.224475,0.182551,0.234463,0
0.147933,1.10301,-1.44374,-0.16418,0.0193817,0.0294873,0
-0.29936,-0.413609,-2.03617,-0.104051,0.0719078,-0.300788,0
-1.29245,-1.70116,-3.02475,-0.0135788,0.0858154,-0.484454,0
-2.6519,-1.56097,-3.64554,-0.0863472,0.237475,-0.630115,0
-3.49416,-0.354894,-3.70829,-0.0991525,0.48164,-0.819615,0
-2.6736,0.918206,-2.5491,-0.0873914,0.325963,-0.991091,0
-1.14182,1.2719,-1.05466,-0.0657192,0.242949,-0.907382,0
0.125099,0.61855,0.0280699,-0.0361043,-0.000942454,-0.670882,0
0.7763,-0.439536,0.120416,-0.0540197,-0.111431,-0.497528,0
0.873328,-1.07658,-0.374349,-0.180607,-0.168713,-0.252133,0
0.643748,-1.02863,-0.980657,-0.265549,-0.160056,-0.00870794,0
0.330774,-0.47172,-1.49795,-0.248101,-0.157322,0.170961,0
0.127703,0.0575044,-1.7415,-0.193556,-0.161727,0.252062,0
0.143094,0.212823,-1.81936,-0.143474,-0.117484,0.275958,0
0.143094,0.212823,-1.81936,-0.143474,-0.117484,0.275958,0
0.33129,0.0779922,-1.79258,-0.0867985,-0.105149,0.299727,0
0.539111,-0.276607,-1.72755,-0.0187611,-0.108453,0.297607,0
0.653212,-0.593934,-1.64622,0.040541,-0.099769,0.290362,0
0.566753,-0.755818,-1.50651,0.0847966,-0.0974919,0.254228,0
0.294557,-0.773128,-1.28443,0.116459,-0.0733586,0.172698,0
-0.0305517,-0.883313,-1.0514,0.137403,-0.0475537,0.00515181,0
-0.242113,-0.897711,-0.958375,0.131478,0.00806677,-0.145105,0
-0.160244,-0.558126,-0.898137,0.113777,0.0436414,-0.229531,0
0.0906301,-0.0366907,-0.661288,0.0990661,-0.011804,-0.269744,0
0.0794384,0.163966,-0.550864,0.100938,-0.0234741,-0.314828,0
-0.0365628,0.0750352,-0.561563,0.0995476,-0.0634308,-0.335294,0
0.0283486,-0.0907747,-0.610933,0.0717905,0.00577363,-0.29597,0
0.476942,-0.0900074,-0.357486,0.0343057,0.0332375,-0.186033,0
1.01809,0.121144,0.106601,0.0156443,-0.00829756,0.0133024,0
1.112,0.126918,0.33259,0.0266207,-0.0417154,0.134133,0
0.761842,-0.175807,0.204118,0.0491765,-0.0767229,0.162094,0
0.200338,-0.708329,-0.126744,0.0640022,-0.0867032,0.128912,0
-0.376719,-1.3045,-0.465259,0.0360647,-0.01329,0.0029186,0
-0.652882,-1.61733,-0.704111,0.00748004,0.113718,-0.14993,0
-0.336896,-1.31371,-0.685408,0.00556258,0.211072,-0.236998,0
0.33878,-0.501946,-0.244834,-0.0481391,0.255635,-0.201442,0
0.718144,0.158761,0.365576,-0.0595619,0.204828,-0.104365,0
0.692054,0.367184,0.709852,-0.0338111,0.112423,-0.00777429,0
0.604663,0.127585,0.652579,-0.0487827,0.0744036,0.0178331,0
0.728408,-0.344381,0.28864,-0.0704521,0.0699041,0.0135757,0
0.947239,-0.810167,-0.143047,-0.0878332,0.0938455,0.0130521,0
1.05277,-0.949755,-0.397967,-0.0973138,0.101112,0.0687273,0
1.01825,-0.731238,-0.459138,-0.101219,0.109159,0.130735,0
0.914322,-0.384022,-0.457208,-0.11277,0.128952,0.168066,0
0.87002,-0.0655161,-0.491282,-0.119942,0.156168,0.201088,0
0.928353,0.131483,-0.574381,-0.11665,0.185122,0.239086,0
1.02822,0.175316,-0.676561,-0.116645,0.200789,0.27968,0
1.11061,0.0953138,-0.8017,-0.10252,0.214354,0.328265,0
1.09827,-0.0011896,-0.905944,-0.0813475,0.200712,0.370968,0
0.922515,-0.0554098,-1.0123,-0.0596242,0.186941,0.408607,0
0.594788,-0.100798,-1.16271,-0.0301089,0.175139,0.402842,0
0.24429,-0.165883,-1.32796,-0.0120158,0.173616,0.362385,0
-0.0802385,-0.215324,-1.45929,-0.00768211,0.173685,0.340896,0
-0.247711,-0.236194,-1.50807,0.00914553,0.176252,0.265784,0
-0.262397,-0.147175,-1.4548,0.0177546,0.18833,0.218848,0
-0.20961,0.128705,-1.26133,0.0196658,0.200953,0.204805,0
-0.142491,0.488421,-0.854346,0.0609385,0.110562,0.217183,0
-0.412572,0.43395,-0.532808,0.132111,-0.0761034,0.188595,0
-0.832489,-0.0539444,-0.457654,0.183132,-0.184976,0.108753,0
-1.12539,-0.567994,-0.588956,0.156427,-0.209713,-0.0155653,0
-1.40623,-0.555475,-0.557427,0.170784,-0.297866,-0.0780038,0
-2.46862,-1.05057,-1.05418,0.157865,-0.385709,-0.304374,0
-2.9773,-0.783577,-1.40723,0.106005,-0.138809,-0.41516,0
-2.9773,-0.783577,-1.40723,0.106005,-0.138809,-0.41516,0
-2.36625,-0.15479,-1.02936,0.0422858,-0.0861418,-0.60888,0
-1.35507,0.233962,-0.136057,-0.0501684,-0.0307119,-0.587935,0
-0.832903,0.201173,0.591888,-0.0780959,-0.118353,-0.518434,0
-0.763007,0.137114,0.644578,-0.0675964,-0.159841,-0.343923,0
-0.728698,0.093012,0.268947,-0.082859,-0.159607,-0.199766,0
-0.60177,0.0608284,-0.0203617,-0.112481,-0.15192,-0.0841659,0
-0.33725,0.131689,0.0303274,-0.121734,-0.155465,0.0278736,0
-0.0331781,0.236486,0.215568,-0.10973,-0.158678,0.117556,0
0.163211,0.221352,0.365428,-0.0839899,-0.178647,0.223598,0
0.267085,0.0600467,0.372141,-0.0621261,-0.183952,0.257926,0
0.353548,-0.09182,0.285051,-0.0446098,-0.163068,0.302115,0
0.472979,-0.185453,0.222419,-0.0240865,-0.117028,0.319082,0
0.713288,-0.218306,0.287981,0.0157496,-0.0746863,0.345979,0
0.951999,-0.334388,0.466731,0.0455591,-0.0458245,0.356116,0
1.11536,-0.568856,0.620749,0.0828928,-0.00990576,0.317246,0
1.26423,-0.896977,0.741891,0.101706,0.0330869,0.269591,0
1.39081,-1.05384,0.789843,0.0718331,0.106041,0.238719,0
1.5161,-0.701149,0.822935,0.0401259,0.157312,0.25637,0
1.51338,-0.0927723,1.0219,0.0784277,0.0865425,0.274091,0
1.10343,0.101503,1.36382,0.119196,-0.0529557,0.209146,0
0.00252097,-0.794617,1.19002,0.0953685,-0.032271,-0.106052,0
-0.905419,-1.73313,0.343674,0.0949768,0.0366411,-0.328156,0
-0.964028,-2.007,-0.445547,-0.0381144,0.151319,-0.544432,0
-0.615416,-1.34685,-0.862454,-0.149094,0.251169,-0.611768,0
-0.615322,-0.253418,-0.831734,-0.213387,0.241496,-0.61401,0
-1.1727,0.749696,-0.563754,-0.210575,0.231853,-0.558063,0
-1.43288,1.74947,-0.198491,-0.173277,0.1531,-0.379477,0
-1.03488,2.20784,0.157171,-0.118096,0.016988,-0.240843,0
-0.416274,1.83888,0.346227,-0.0864731,-0.103536,-0.114216,0
0.0427464,0.835191,0.292227,-0.106832,-0.187269,-0.0341395,0
0.338217,-0.194231,0.0127818,-0.133544,-0.208101,0.07157,0
0.518104,-0.885172,-0.331098,-0.129378,-0.183677,0.16838,0
0.663653,-1.13155,-0.517913,-0.125522,-0.135998,0.250651,0
0.808417,-1.1389,-0.602447,-0.110093,-0.0651371,0.287279,0
0.958473,-1.05642,-0.625496,-0.098003,0.00336266,0.294729,0
1.08801,-0.946185,-0.692283,-0.0639629,0.082046,0.296841,0
1.16533,-0.764845,-0.813918,-0.0147032,0.143583,0.318911,0
1.10717,-0.642945,-0.950465,0.0304736,0.199466,0.321353,0
1.02339,-0.294351,-0.965628,0.104687,0.177144,0.333223,0
0.900191,0.216826,-0.648559,0.200708,-0.0237435,0.263847,0
0.434576,0.319799,-0.378541,0.197648,-0.119673,0.121145,0
-0.67438,0.0320424,-0.901118,0.125303,0.0395629,-0.0118939,0
-1.87215,-0.0257043,-1.73503,0.17318,0.0418147,-0.13401,0
-2.32304,0.340777,-1.82766,0.1919,-0.034315,-0.245931,0
-2.49149,0.555676,-1.4126,0.187101,-0.0386426,-0.373514,0
-2.5382,0.702668,-0.993416,0.178806,0.0305415,-0.420029,0
-2.10578,0.994765,-0.419321,0.104929,0.0430914,-0.350651,0
-1.44385,1.00944,0.399639,0.0209018,-0.0263145,-0.290408,0
-1.44385,1.00944,0.399639,0.0209018,-0.0263145,-0.290408,0
-0.884943,0.732495,1.095,-0.0504373,-0.107273,-0.228852,0
-0.488302,0.628434,1.29575,-0.095959,-0.142709,-0.11591,0
-0.152194,0.690011,1.09557,-0.0882352,-0.174299,-0.00517154,0
0.149231,0.669847,0.843173,-0.0764932,-0.193564,0.0906675,0
0.367934,0.529064,0.785562,-0.0858605,-0.20663,0.182545,0
0.467586,0.328271,0.778858,-0.0683295,-0.195714,0.259337,0
0.520771,0.0272206,0.762303,-0.0352113,-0.199794,0.280068,0
0.59786,-0.283003,0.6671,-0.0252424,-0.165957,0.27765,0
0.777709,-0.530047,0.517465,-0.0111473,-0.112214,0.268733,0
1.0768,-0.749721,0.427832,-0.0081263,-0.0417717,0.235346,0
1.43035,-0.856623,0.385963,0.00421542,0.0512265,0.224074,0
1.76528,-0.754107,0.454723,0.0218324,0.098437,0.206148,0
1.85008,-0.592443,0.642587,0.116751,0.00501233,0.130311,0
1.41122,-0.629575,0.748789,0.126438,-0.0254476,-0.0139152,0
0.418204,-0.976283,0.385416,0.097171,0.059815,-0.264117,0
-0.570052,-1.01799,-0.359419,0.0772442,0.131171,-0.469951,0
-0.88137,-0.514696,-0.848672,0.0378401,0.127675,-0.590806,0
-1.08075,-0.042709,-1.01947,-0.0395409,0.233033,-0.63763,0
-1.45678,0.462043,-0.907466,-0.10855,0.223537,-0.621751,0
-1.59915,1.14112,-0.660703,-0.108712,0.173369,-0.54296,0
-1.28956,1.47087,-0.216625,-0.0941758,0.0412639,-0.478758,0
-0.685605,1.27894,0.252916,-0.103306,-0.0817308,-0.381807,0
0.0111447,0.786849,0.543953,-0.148043,-0.158514,-0.247104,0
0.645091,0.202813,0.60102,-0.18545,-0.188095,-0.088814,0
1.07978,-0.393425,0.464335,-0.201292,-0.164782,0.056327,0
1.26045,-0.876556,0.223901,-0.196998,-0.106241,0.179709,0
1.36258,-1.21702,0.0281,-0.201461,-0.0476184,0.255257,0
1.5555,-1.48795,-0.122534,-0.204049,0.0342013,0.293,0
1.85888,-1.49344,-0.325842,-0.199511,0.124658,0.365268,0
2.01934,-1.19311,-0.627052,-0.168918,0.191666,0.452576,0
1.84081,-0.712828,-1.05749,-0.102643,0.22016,0.528455,0
1.43582,-0.308391,-1.50447,-0.00119946,0.222797,0.555679,0
0.997275,-0.157821,-1.77727,0.0735396,0.22989,0.510779,0
0.663443,-0.237356,-1.9016,0.129074,0.241929,0.428634,0
0.509798,-0.410175,-1.90363,0.165013,0.235214,0.338325,0
0.641294,-0.679096,-1.65417,0.192162,0.135111,0.204515,0
1.03731,-0.704968,-1.13847,0.198108,-0.0933132,0.191156,0
0.649765,-1.14859,-0.981865,0.0788592,-0.092191,-0.0217675,0
-0.627764,-1.59338,-1.48121,0.0794327,-0.105225,-0.204926,0
-1.4482,-1.01026,-2.00228,0.163996,-0.171095,-0.214286,0
-1.33431,-0.0537577,-1.92259,0.136739,-0.198378,-0.180957,0
-1.20632,0.349502,-1.22811,0.080872,-0.315859,-0.179418,0
-1.8277,-0.222392,-0.732579,0.0720127,-0.330457,-0.284084,0
-2.40527,-0.924494,-0.56463,0.0228885,-0.267148,-0.340491,0
-2.13215,-1.01217,-0.47428,-0.102368,-0.15741,-0.278585,0
-1.15821,-0.642374,-0.480303,-0.21221,-0.0528852,-0.178971,0
0.015601,-0.199796,-0.53938,-0.232779,0.0145326,-0.0356423,0
0.668042,0.0472102,-0.673665,-0.173854,0.0316856,0.0489286,0
0.668042,0.0472102,-0.673665,-0.173854,0.0316856,0.0489286,0
0.894074,0.171237,-0.657531,-0.109787,-0.0488349,0.132512,0
0.981716,0.199054,-0.4491,-0.100365,-0.0963902,0.190648,0
1.04637,0.472401,-0.354845,-0.121322,-0.0597725,0.30572,0
1.13778,0.954978,-0.570264,-0.109235,-0.018317,0.386213,0
1.10554,1.00998,-0.969706,-0.0475166,-0.000423372,0.354866,0
0.945187,0.616059,-1.17198,0.0327292,-0.0369398,0.307498,0
0.852854,0.323542,-0.961929,0.0357373,-0.0444646,0.260847,0
0.93816,0.447379,-0.53762,-0.0187493,0.00332242,0.193564,0
1.14941,0.853436,-0.142131,-0.0340687,0.017717,0.114046,0
1.51392,1.40731,0.262269,0.0293206,-0.0545526,0.0937621,0
1.77306,1.07421,0.134928,0.120568,-0.0745441,0.0313001,0
0.939315,-0.907257,-0.995957,0.214397,-0.129982,-0.370126,0
-0.272479,-1.01322,-1.39859,0.101494,-0.141286,-0.255359,0
-0.749464,0.0108359,-1.2743,0.131468,-0.339613,-0.205304,0
-1.67498,-0.649008,-1.64126,0.00201723,-0.1135,-0.522998,0
-2.69351,-1.15062,-1.86889,0.0325346,-0.174012,-0.595303,0
-2.8337,-0.771055,-1.31256,0.0555097,-0.224316,-0.587786,0
