attitude_roll,attitude_pitch,attitude_yaw,rotationRate_x,rotationRate_y,rotationRate_z,acceleration_x,acceleration_y,acceleration_z
0.270659,0.0864533,-0.0117788,-0.311609,-0.246377,-0.379707,-0.00387114,-0.0925484,0.0162858
0.265749,0.0790497,-0.016961,-0.250612,-0.302477,-0.308975,-0.0283528,-0.0718352,-0.0313728
0.258982,0.0737593,-0.0211899,-0.152572,-0.382463,-0.24128,-0.0386187,-0.049919,-0.0399444
0.2522,0.0703098,-0.0250646,-0.0848295,-0.313261,-0.22149,-0.0672475,-0.0356593,0.0133212
0.247382,0.0680038,-0.0290528,-0.0437828,-0.173826,-0.213003,-0.0939254,-0.0508078,0.0413361
0.23984,0.0663535,-0.032686,-0.0727395,-0.766378,-0.214081,-0.107996,-0.0517218,-0.196243
0.222339,0.0618832,-0.0373007,-0.233025,-0.967457,-0.328439,-0.0262272,-0.00419628,-0.0454342
0.203225,0.0554696,-0.04387,-0.248084,-0.932453,-0.431749,-0.0401725,-0.0658967,0.052484
0.186253,0.0483896,-0.0505889,-0.319405,-0.798982,-0.328251,-0.096125,-0.110107,0.0661494
0.171981,0.0410097,-0.0544988,-0.303271,-0.63135,-0.196984,-0.075257,-0.116625,0.0598282
0.161392,0.0359443,-0.0566999,-0.143251,-0.429326,-0.0982051,-0.0519156,-0.104322,0.0248497
0.15536,0.034855,-0.0568892,0.0136922,-0.164429,0.0668674,-0.0304815,-0.118686,-0.0182137
0.154465,0.0351912,-0.0540876,-0.0557761,0.0881664,0.200256,-0.0451134,-0.0519438,-0.00578862
0.158338,0.0340092,-0.0494461,-0.0912098,0.315109,0.218844,-0.0351649,0.0615295,0.0320551
0.167534,0.0346738,-0.0454348,0.12246,0.607225,0.180492,0.0204974,0.0332936,-0.0176913
0.181743,0.0402413,-0.0430767,0.378506,0.830852,0.160625,0.00825986,0.0512015,-0.0746545
0.199178,0.0495484,-0.0423435,0.459032,0.783201,0.0318835,0.0670271,0.119108,-0.151451
0.206721,0.0530858,-0.046315,0.047571,0.042762,-0.21885,0.110497,0.100928,-0.303263
0.206418,0.0543144,-0.049037,0.24314,0.0113735,0.0123581,0.014753,-0.0820648,-0.0171636
0.211846,0.065914,-0.0488837,0.919509,0.545178,0.218453,0.00917064,-0.106161,0.149853
0.224761,0.0881643,-0.0493471,1.04762,0.557195,0.222684,0.0718616,-0.0765769,-0.035378
0.233951,0.109162,-0.0453363,0.84136,0.561782,0.597025,-0.061666,-0.10654,-0.00983876
0.24622,0.126599,-0.0353295,0.618863,0.734237,0.748709,-0.110305,-0.00537683,0.0130281
0.262978,0.140191,-0.0225819,0.312391,1.0888,0.841535,-0.118414,-0.0198132,0.0467535
0.286108,0.146848,-0.00302804,-0.198414,1.5732,1.26104,-0.11918,-0.133616,0.051609
0.319755,0.146297,0.0285489,-0.815409,2.0377,1.49901,0.164213,-0.242133,0.131051
0.349459,0.132602,0.0571403,-1.24626,1.22125,0.580812,0.188539,0.130429,0.00264454
0.360912,0.113254,0.0696013,-0.97789,0.127648,0.0527106,0.0518445,0.0512746,0.00557035
0.355527,0.0986902,0.0751144,-0.538484,-0.553769,-0.0427604,-0.0399637,0.0975231,0.00370228
0.343928,0.0914379,0.0758625,-0.139547,-0.592418,-0.13277,-0.113672,0.0892812,0.127141
0.33115,0.0955707,0.0689925,0.78535,-0.506059,-0.37247,-0.187829,0.0926788,-0.0367349
0.32771,0.113677,0.0537232,1.29038,-0.0829534,-0.442711,-0.142384,0.0455922,0.0409214
0.33043,0.135355,0.0369044,1.20227,0.152253,-0.449883,-0.114573,0.00364059,0.0610304
0.337674,0.151272,0.0205315,0.818379,0.329025,-0.546925,-0.0979571,0.0271915,0.0637342
0.346473,0.162703,0.00490178,0.844368,0.238796,-0.523617,-0.106018,-0.0585948,0.0666886
0.351854,0.176318,-0.0128963,0.970279,0.00468904,-0.677862,-0.0749978,-0.0615172,0.0512567
0.356036,0.188318,-0.0339598,0.87273,0.0928729,-0.837516,-0.0861586,-0.0250581,0.10733
0.363975,0.197437,-0.0579036,0.831289,0.222294,-1.02708,-0.0825509,-0.0097606,0.134947
0.370607,0.207059,-0.0863848,0.994894,-0.323388,-1.23719,-0.0384512,-0.042663,0.135144
0.361515,0.214799,-0.121304,0.924206,-1.23938,-1.69401,0.114855,-0.0931695,0.131381
0.340289,0.220258,-0.165761,1.13846,-1.97221,-2.13254,0.123827,-0.00594439,0.284127
0.300969,0.229325,-0.217199,1.14624,-2.85471,-2.28849,0.120968,-0.0129144,0.103203
0.250756,0.238777,-0.264986,0.905822,-3.09218,-1.76168,0.0488964,-0.0423705,0.201128
0.203819,0.244819,-0.294131,0.302242,-2.06043,-0.873623,0.0496575,-0.0166828,0.295955
0.182843,0.242214,-0.303373,-0.373966,-0.283196,-0.0446971,0.0425364,0.0535118,0.416266
0.182411,0.230776,-0.292634,-0.907657,0.279178,0.831499,0.123334,-0.101238,0.154344
0.18139,0.214539,-0.266863,-1.03137,0.193789,1.24699,0.139886,-0.0882201,0.0214695
0.180909,0.202443,-0.238273,-0.585502,0.380179,1.21473,0.0829212,-0.0557117,0.0709377
0.184877,0.201321,-0.216279,0.107228,0.407289,0.798516,0.0398272,-0.0262325,-0.0146769
0.187444,0.211467,-0.210155,0.71788,-0.174991,-0.035832,0.0233238,0.0123545,-0.161518
0.181406,0.226603,-0.219849,0.879951,-0.700621,-0.578894,-0.0158577,-0.0278036,-0.238759
0.166565,0.240544,-0.238436,0.767714,-1.12896,-0.905981,-0.088513,0.0555528,-0.215039
0.166565,0.240544,-0.238436,0.767714,-1.12896,-0.905981,-0.088513,0.0555528,-0.215039
0.148898,0.251177,-0.258616,0.585003,-1.0438,-0.762389,-0.0748917,0.0659267,-0.146421
0.135251,0.259923,-0.270494,0.438063,-0.54495,-0.22072,-0.0079039,-0.0773441,-0.0764279
0.128129,0.26484,-0.272085,-0.0498227,-0.398285,0.0256428,0.0550208,-0.175654,-0.103446
0.113284,0.25341,-0.272177,-1.0751,-1.07194,-0.186428,-0.0191914,-0.0189161,-0.377772
0.0888004,0.22565,-0.275185,-1.4766,-1.36634,-0.385236,-0.123392,0.0683595,-0.464128
0.0666765,0.200384,-0.283142,-0.847825,-0.861898,-0.555036,-0.112825,0.15716,-0.361833
0.0594164,0.192156,-0.292883,0.0592453,-0.0910351,-0.382336,-0.09021,0.100216,-0.197689
0.0627821,0.198252,-0.297448,0.467999,0.262978,-0.0441788,-0.0700264,0.0104169,-0.0545239
0.067668,0.206605,-0.297445,0.30452,0.174547,0.0538662,-0.042207,-0.0298167,0.0516732
0.0695174,0.209489,-0.29798,-0.0017904,0.0121363,-0.107252,-0.0271104,-0.0478075,0.156881
0.0695409,0.207121,-0.302017,-0.176813,-0.0847427,-0.291663,-0.0233069,-0.0542599,0.225026
0.0690783,0.202774,-0.308962,-0.185221,-0.0955723,-0.40149,-0.0293708,-0.0423714,0.274005
0.0691018,0.199391,-0.317293,-0.0857253,-0.0655454,-0.419177,-0.0256867,-0.051973,0.296192
0.069664,0.198073,-0.325606,0.00823533,-0.0469765,-0.405463,-0.0139865,-0.0520292,0.297146
0.0703251,0.198456,-0.334215,0.0950131,-0.050828,-0.42947,-0.0117134,-0.0264926,0.299345
0.0714072,0.200831,-0.34326,0.204751,-0.0169349,-0.424858,-0.0133026,-0.0102637,0.322604
0.0730672,0.205381,-0.351802,0.301685,0.0131564,-0.359675,-0.0203512,0.0112525,0.32209
0.0750855,0.211786,-0.358205,0.369295,0.036857,-0.201499,-0.0174003,0.014329,0.321323
0.075657,0.219512,-0.360794,0.420662,-0.0245725,0.00473549,-0.0197398,0.0248212,0.266104
0.0736519,0.22892,-0.359601,0.499641,-0.192717,0.167982,-0.0280409,0.0455448,0.221089
0.0645607,0.240234,-0.354801,0.596762,-0.613002,0.4171,-0.0327407,0.0856318,0.123296
0.045937,0.253895,-0.344632,0.707513,-0.983097,0.60669,-0.000289854,0.0207992,0.00282419
0.0191172,0.268284,-0.331892,0.631969,-1.40242,0.628343,0.0123752,0.00253451,-0.145293
-0.0154619,0.279139,-0.319758,0.449753,-1.59193,0.513319,-0.044082,0.00064081,-0.277134
-0.0455615,0.285877,-0.312396,0.233519,-1.1478,0.126665,-0.0727885,0.00827149,-0.283723
-0.0624613,0.288546,-0.31504,0.0230225,-0.58599,-0.390568,-0.0737659,0.00887856,-0.335798
-0.063937,0.288101,-0.326803,-0.148004,0.132408,-0.646335,-0.0159953,-0.0510123,-0.33541
-0.053971,0.283063,-0.339882,-0.444228,0.246292,-0.562196,0.0194646,-0.0640701,-0.39355
-0.0516364,0.270373,-0.352812,-0.888935,-0.363267,-0.645031,0.0122322,0.03238,-0.516907
-0.0585499,0.251219,-0.36848,-0.989886,-0.587025,-0.73112,0.00910261,0.0544783,-0.531554
-0.0616529,0.236304,-0.384462,-0.529433,-0.0275173,-0.701028,0.0207474,0.0703843,-0.351979
-0.0513802,0.232331,-0.397618,0.0366302,0.735702,-0.522034,0.044637,0.0433113,-0.137115
-0.0307602,0.236241,-0.405766,0.259044,1.01691,-0.292311,0.0748686,-0.0227103,0.0146725
-0.0114096,0.241012,-0.410314,0.169085,0.736133,-0.182756,0.0913865,-0.0839917,0.145487
-0.00104902,0.242263,-0.414419,-0.0492987,0.184639,-0.233486,0.0829885,-0.123717,0.225924
-0.00112896,0.239342,-0.420606,-0.215616,-0.316602,-0.362919,0.0722026,-0.0969358,0.255063
-0.0089701,0.234804,-0.429239,-0.21161,-0.639899,-0.456772,0.052547,-0.0384968,0.280092
-0.0209952,0.232147,-0.438672,-0.0470367,-0.743014,-0.428582,0.0327747,0.00803652,0.30168
-0.0340075,0.233638,-0.446115,0.178619,-0.712918,-0.275916,0.0215414,0.0489625,0.31112
-0.047277,0.240041,-0.449387,0.455621,-0.680576,-0.0728046,0.00887118,0.0651657,0.291181
-0.0591643,0.252167,-0.449486,0.732097,-0.486484,-0.0339004,-0.0063848,0.093757,0.317815
-0.0667262,0.268377,-0.450332,0.838612,-0.298552,-0.16814,0.00598592,0.101699,0.314459
-0.0691894,0.284902,-0.454644,0.743232,-0.040757,-0.356862,0.0267812,0.0908931,0.322353
-0.0655483,0.297776,-0.462984,0.454575,0.125819,-0.523871,0.0435757,0.0843795,0.27065
-0.0595911,0.30357,-0.475623,0.0391963,0.0656407,-0.701669,0.0752957,0.0594881,0.165289
-0.0540238,0.301942,-0.490988,-0.240707,0.061012,-0.715516,0.103068,-0.0267522,0.0539538
-0.0481817,0.29757,-0.505867,-0.235746,0.0592752,-0.698384,0.10789,-0.10028,-0.0794054
-0.04364,0.294066,-0.522124,-0.19742,-0.0927546,-0.833343,0.132406,-0.136821,-0.22087
-0.0423625,0.290821,-0.539757,-0.183519,-0.281454,-0.784201,0.139891,-0.181157,-0.342579
-0.0450268,0.289306,-0.553063,-0.00194892,-0.329916,-0.422156,0.104954,-0.0826631,-0.36835
-0.0450268,0.289306,-0.553063,-0.00194892,-0.329916,-0.422156,0.104954,-0.0826631,-0.36835
-0.0505965,0.291366,-0.555068,0.167053,-0.295379,0.258398,0.0703853,-0.0255593,-0.352105
-0.0607548,0.293682,-0.541708,0.0984219,-0.326888,0.974187,0.0143097,-0.0207177,-0.365199
-0.0738039,0.292294,-0.517177,-0.0919155,-0.250265,1.26492,-0.0833825,-0.0242281,-0.313881
-0.0847068,0.286161,-0.493821,-0.351009,-0.168557,0.926586,-0.154782,0.0337968,-0.268943
-0.0898774,0.275566,-0.481176,-0.572481,0.0322707,0.385648,-0.17631,0.0724919,-0.183046
-0.0878478,0.262731,-0.477522,-0.647056,0.239971,0.137497,-0.119164,0.0465995,-0.100006
-0.082597,0.249872,-0.475734,-0.59626,0.31183,0.167697,-0.0509644,0.0227012,-0.0376247
-0.0768651,0.238943,-0.471893,-0.456239,0.346639,0.288818,-0.0213702,0.0154692,0.0330052
-0.0715911,0.230514,-0.465689,-0.339306,0.319146,0.353292,-0.0238528,0.00853741,0.0819715
-0.0665797,0.224508,-0.459363,-0.209205,0.330096,0.27382,-0.03571,-0.00323352,0.147625
-0.0600187,0.221687,-0.455869,-0.0517644,0.41988,0.0727601,-0.0388822,-0.00319245,0.221284
-0.0504417,0.222119,-0.456153,0.0856813,0.518221,-0.0853756,-0.0308203,0.00232528,0.290919
-0.0390401,0.225161,-0.458502,0.201779,0.554846,-0.141689,-0.0196487,0.00652771,0.35431
-0.0277701,0.230032,-0.461063,0.26658,0.499089,-0.116457,-0.0148809,0.0157588,0.392
-0.0187479,0.235555,-0.462764,0.269732,0.346922,-0.0637562,-0.0220085,0.0186914,0.399048
-0.0129883,0.240509,-0.463578,0.213797,0.210981,-0.0240821,-0.0310566,0.0246354,0.396535
-0.0109046,0.244068,-0.463928,0.146734,-0.0263525,-0.0190607,-0.040368,0.0293414,0.328185
-0.0136405,0.24665,-0.464712,0.105465,-0.250561,-0.0646446,-0.050051,0.0396126,0.265605
-0.018639,0.248435,-0.465592,0.0773734,-0.226615,0.0159208,-0.0559547,0.0580824,0.199004
-0.0221896,0.25,-0.462907,0.0774284,-0.0490354,0.234351,-0.0299548,-0.000948399,0.153336
-0.0238896,0.250091,-0.456861,-0.106346,-0.0275015,0.314292,-0.00537461,-0.0491999,0.0908669
-0.0285294,0.243409,-0.451569,-0.572156,-0.332411,0.187018,-0.0174815,-0.0357823,-0.0208854
-0.0381203,0.227171,-0.450997,-0.999591,-0.578421,-0.0882595,-0.0347371,0.00361854,-0.123431
-0.0496457,0.205202,-0.456014,-1.16809,-0.63678,-0.263957,-0.0363159,0.0932304,-0.251068
-0.0606632,0.18147,-0.4624,-1.21784,-0.573563,-0.195701,-0.0113383,0.126536,-0.369151
-0.0700683,0.157326,-0.466227,-1.1849,-0.381756,-0.0178816,-0.0118321,0.1624,-0.475971
-0.0739887,0.134267,-0.466528,-1.10451,-0.0248352,0.144661,-0.0329759,0.198195,-0.497033
-0.071894,0.113449,-0.464041,-0.909613,0.247671,0.233996,-0.0421094,0.188904,-0.483009
-0.0650317,0.0987428,-0.46024,-0.494929,0.472266,0.235904,-0.00138609,0.0944015,-0.363832
-0.0540235,0.0930034,-0.455737,-0.0809246,0.642331,0.238469,0.0458902,-0.0339464,-0.19039
-0.0410122,0.0932686,-0.451308,0.0897948,0.679378,0.184136,0.0644124,-0.10105,-0.0228685
-0.0279234,0.0951673,-0.448751,0.0944182,0.640411,0.0562101,0.0749735,-0.143227,0.125489
-0.015805,0.0966039,-0.449006,0.0388173,0.550415,-0.0870881,0.0863177,-0.177747,0.240483
-0.00599915,0.0961148,-0.452219,-0.104317,0.38793,-0.226541,0.0912374,-0.181148,0.300451
0.000267306,0.0924277,-0.458024,-0.254516,0.176134,-0.348489,0.0912865,-0.179738,0.31757
0.00243845,0.0864555,-0.466277,-0.32504,-0.0318386,-0.463308,0.0910306,-0.157091,0.303528
0.00146785,0.0799574,-0.476103,-0.308269,-0.11239,-0.50495,0.0847489,-0.135216,0.289895
0.000665318,0.0738045,-0.486482,-0.321332,-0.0330764,-0.522685,0.0692064,-0.100579,0.277414
0.0013288,0.0663273,-0.497145,-0.418437,0.0234212,-0.537354,0.0417801,-0.0545404,0.22273
0.00261296,0.0583862,-0.507994,-0.305314,0.0493491,-0.539485,0.0233313,-0.00280417,0.131639
0.00580257,0.0561141,-0.518397,0.105153,0.202893,-0.48285,0.0163775,0.0226679,0.08572
0.0110689,0.0625173,-0.526981,0.507281,0.266279,-0.364712,0.00560016,0.0313945,0.00576729
0.0164923,0.0733947,-0.533812,0.498472,0.196977,-0.3125,-0.0236494,0.0655926,-0.0569202
0.0182594,0.0788563,-0.540962,0.0115092,-0.108332,-0.419094,-0.0553569,0.0865413,-0.162209
0.0138722,0.0734256,-0.551574,-0.494853,-0.365051,-0.630056,-0.123683,0.207561,-0.228666
0.00682756,0.0615818,-0.564733,-0.594704,-0.402996,-0.641299,-0.1383,0.24001,-0.240276
-0.000192914,0.0519864,-0.575358,-0.324964,-0.342469,-0.391595,-0.0943967,0.168494,-0.247353
-0.00570282,0.0481232,-0.579547,-0.111969,-0.219609,-0.0221211,-0.0618393,0.101388,-0.220977
-0.0101141,0.0439685,-0.577486,-0.381057,-0.234585,0.186718,-0.0625125,0.0930876,-0.235743
-0.0101141,0.0439685,-0.577486,-0.381057,-0.234585,0.186718,-0.0625125,0.0930876,-0.235743
-0.0152495,0.0309084,-0.573511,-0.902912,-0.234778,0.211883,-0.11162,0.10526,-0.239653
-0.0186671,0.00928139,-0.570112,-1.18421,-0.0920609,0.147684,-0.144329,0.106098,-0.234226
-0.0194705,-0.0134942,-0.568268,-0.995149,-0.00248358,0.0931268,-0.127734,0.0729167,-0.242254
-0.0195788,-0.027958,-0.566236,-0.41075,-0.0273635,0.144442,-0.0997692,0.00431796,-0.180209
-0.0208222,-0.030349,-0.562786,0.145124,-0.0943408,0.19038,-0.080248,-0.0389961,-0.0812283
-0.0224575,-0.0241316,-0.559174,0.439409,-0.0552669,0.145569,-0.0505033,-0.0923666,0.0566162
-0.0219979,-0.0143409,-0.556877,0.506441,0.109958,0.0568511,-0.0224703,-0.125623,0.193991
-0.0179032,-0.00493568,-0.556326,0.420314,0.294142,-0.0146558,0.0125156,-0.150688,0.289439
-0.0108343,0.00219507,-0.556743,0.277102,0.379095,-0.0335072,0.0412295,-0.174486,0.342361
-0.00445439,0.00589878,-0.55748,0.0927701,0.224179,-0.0426749,0.0587144,-0.17031,0.316501
-0.00283838,0.00641172,-0.558417,-0.0198044,-0.0733295,-0.0506985,0.0646668,-0.158078,0.263617
-0.00684017,0.00625516,-0.559395,0.0347022,-0.322994,-0.0401193,0.0581247,-0.13083,0.201434
-0.0150733,0.0094827,-0.559605,0.31852,-0.470412,0.0133216,0.0414544,-0.0832909,0.116846
-0.0248937,0.019318,-0.558756,0.642313,-0.477183,0.0506288,0.0201257,-0.0321663,0.0640789
-0.0323654,0.0339314,-0.556631,0.791677,-0.241958,0.12781,-0.00696559,0.00201873,0.0518948
-0.0350311,0.0506022,-0.552441,0.883976,-0.0271304,0.220718,-0.0067843,0.000165518,0.021026
-0.0340703,0.0693518,-0.547067,0.990934,0.138307,0.246513,0.0103916,0.0328887,0.0138019
-0.0315966,0.0898337,-0.541402,1.04791,0.125535,0.238103,0.0232546,0.0849217,-0.0324835
-0.032086,0.109633,-0.536966,0.901688,-0.152952,0.135226,0.0412109,0.155373,-0.107727
-0.0371258,0.125135,-0.534352,0.632806,-0.271531,0.0897465,0.0553511,0.173896,-0.11858
-0.0421869,0.133863,-0.531692,0.211536,-0.170365,0.145729,0.0612824,0.16154,-0.134645
-0.04449,0.13176,-0.528348,-0.433005,-0.0260588,0.180537,0.0461497,0.147706,-0.179494
-0.0447755,0.115766,-0.52598,-1.13805,0.014067,0.10828,0.0212522,0.146422,-0.249709
-0.0448685,0.0869008,-0.526076,-1.67801,-0.0430081,0.0155742,0.00424825,0.170288,-0.322388
-0.0455427,0.052267,-0.527752,-1.66691,0.00128756,-0.00913,0.00811118,0.17088,-0.347555
-0.0435029,0.0235907,-0.528249,-1.14101,0.197607,0.113303,0.0402421,0.102675,-0.285556
-0.038455,0.00663817,-0.524441,-0.550491,0.294513,0.342169,0.0616685,0.0200964,-0.20764
-0.032773,-0.000704919,-0.515739,-0.183964,0.26073,0.531712,0.0635593,-0.0553009,-0.0978578
-0.0277398,-0.00268162,-0.504104,0.0108581,0.252998,0.61218,0.0478013,-0.110973,0.0241325
-0.0217695,-0.00118251,-0.491518,0.176094,0.337514,0.641071,0.0588923,-0.142723,0.106513
-0.0143565,0.00476292,-0.47732,0.480211,0.385802,0.786831,0.0898714,-0.143644,0.102226
-0.00724955,0.0194703,-0.459371,1.03089,0.30174,0.968358,0.0819855,-0.0853894,0.081907
-0.00430924,0.0464694,-0.43935,1.65935,0.0540664,0.977467,0.0460067,-0.049464,0.0727485
-0.00689731,0.0847277,-0.420624,2.10153,-0.203454,0.855988,0.0573027,-0.0702046,0.123998
-0.0148671,0.127731,-0.404032,2.11824,-0.375128,0.748853,0.0826164,-0.0903738,0.172332
-0.0243426,0.166591,-0.388754,1.73095,-0.316618,0.679615,0.0782329,-0.0818291,0.214425
-0.0323016,0.196085,-0.375219,1.26801,-0.242491,0.535962,0.0446774,-0.0609981,0.191064
-0.0378137,0.219479,-0.365985,1.15114,-0.106182,0.2679,0.0190297,-0.0393744,0.161974
-0.0389939,0.243478,-0.362266,1.25043,0.0810629,0.0127598,-0.00377662,-0.00524305,0.13267
-0.0349064,0.269282,-0.362644,1.2983,0.328366,-0.1283,-0.0396312,0.0340753,0.109722
-0.0237131,0.294825,-0.365652,1.18587,0.694454,-0.242768,-0.0760366,0.0651699,0.142573
-0.007021,0.314631,-0.372616,0.723769,0.69497,-0.470764,-0.118827,0.129,0.0905508
0.00850351,0.322409,-0.385503,0.0420757,0.423502,-0.724316,-0.120324,0.157703,0.0260468
0.0195116,0.317351,-0.401268,-0.470733,0.229629,-0.72973,-0.0897491,0.120644,-0.031347
0.0277326,0.305345,-0.414773,-0.65888,0.174102,-0.563864,-0.0597412,0.0971154,-0.075203
0.032805,0.290482,-0.423921,-0.807461,0.0383133,-0.343028,-0.0403668,0.0584632,-0.162801
0.0317879,0.271776,-0.428254,-1.03674,-0.270286,-0.149407,-0.0558847,0.00675476,-0.289892
0.022279,0.249125,-0.429878,-1.19193,-0.782028,-0.0868653,-0.061537,-0.0443069,-0.407546
0.000880657,0.225387,-0.431357,-1.11362,-1.31652,-0.0936189,-0.0696146,-0.0577057,-0.523248
-0.0259772,0.206672,-0.433712,-0.698903,-1.30899,-0.108139,-0.089584,-0.0289575,-0.483632
-0.0259772,0.206672,-0.433712,-0.698903,-1.30899,-0.108139,-0.089584,-0.0289575,-0.483632
-0.0470063,0.199039,-0.435642,-0.0477146,-0.760839,-0.0292228,-0.100255,-0.00539719,-0.309644
-0.0550198,0.20447,-0.43393,0.558099,-0.0174758,0.180178,-0.0881672,-0.0211336,-0.084752
-0.0515274,0.218875,-0.427295,0.860502,0.433813,0.36875,-0.0433675,-0.0542305,0.0758446
-0.0443831,0.236846,-0.417733,0.94884,0.446881,0.461817,0.0128106,-0.0797541,0.192164
-0.0405103,0.255438,-0.40637,0.938252,0.167085,0.562543,0.0488896,-0.0819564,0.270989
-0.0447363,0.274004,-0.392485,0.981141,-0.214428,0.696108,0.0675891,-0.0542253,0.302415
-0.0577029,0.294436,-0.375353,1.15014,-0.587403,0.827851,0.0752543,-0.0244204,0.301488
-0.0783661,0.318619,-0.35538,1.37047,-0.831998,0.886956,0.0738268,-0.0125656,0.298897
-0.103515,0.345498,-0.334123,1.43598,-0.979243,0.851546,0.050944,-0.00601551,0.283527
-0.13165,0.370796,-0.313505,1.2555,-1.0999,0.754951,0.011082,-0.00931656,0.244241
-0.161238,0.390485,-0.29546,0.913393,-1.15348,0.597365,-0.0342687,-0.0135129,0.169993
-0.188623,0.403582,-0.282105,0.604684,-1.04093,0.37218,-0.0888497,-0.0272528,0.0800149
-0.210856,0.412792,-0.275311,0.445008,-0.910603,0.0372123,-0.148387,-0.00225848,-0.0404099
-0.226784,0.421604,-0.27673,0.377428,-0.718483,-0.357829,-0.201918,0.0457449,-0.118239
-0.235754,0.429397,-0.287229,0.114286,-0.655055,-0.742188,-0.2119,0.0746635,-0.229672
-0.241356,0.431921,-0.30689,-0.280262,-0.706503,-1.0139,-0.17023,0.0990967,-0.332561
-0.243965,0.428913,-0.332025,-0.514049,-0.562892,-1.08832,-0.132638,0.111637,-0.362796
-0.241577,0.423562,-0.357649,-0.532742,-0.23986,-1.0237,-0.126313,0.140243,-0.357822
-0.232948,0.41812,-0.381156,-0.51456,0.124679,-0.926014,-0.116234,0.127051,-0.32285
-0.22018,0.41065,-0.403744,-0.702022,0.184162,-0.936879,-0.0969787,0.096715,-0.320056
-0.208123,0.398521,-0.428687,-0.93543,0.0152146,-1.03159,-0.0539684,0.0942936,-0.286149
-0.198772,0.384585,-0.454535,-0.838656,0.0207431,-0.986141,-0.0104855,0.0945345,-0.200566
-0.186918,0.374867,-0.476275,-0.484249,0.381633,-0.773996,0.00630093,0.095595,-0.0288287
-0.169904,0.370376,-0.490872,-0.234171,0.748106,-0.476618,0.0159748,0.0626347,0.107978
-0.150807,0.367345,-0.499211,-0.224081,0.789483,-0.264277,0.0296631,-0.00192976,0.171761
-0.135786,0.362598,-0.50517,-0.327441,0.439794,-0.245221,0.0405841,-0.0524765,0.19302
-0.129735,0.356095,-0.512513,-0.39083,-0.0983227,-0.362468,0.0337151,-0.0594947,0.215598
-0.133416,0.349734,-0.522637,-0.339479,-0.594573,-0.48583,0.0338575,-0.0274235,0.237878
-0.14383,0.346183,-0.53461,-0.152193,-0.781288,-0.568186,0.0490001,0.00787359,0.294045
-0.153963,0.346669,-0.547452,-0.00158254,-0.622551,-0.626131,0.0563414,0.0353236,0.365862
-0.158426,0.348853,-0.561395,-0.0116878,-0.267671,-0.700281,0.0735233,0.0338521,0.418323
-0.154345,0.34978,-0.577624,-0.151761,0.105249,-0.82438,0.079101,0.0101255,0.460309
-0.142516,0.347662,-0.597881,-0.343434,0.35719,-1.03211,0.0816713,-0.0108923,0.471564
-0.125871,0.34211,-0.62402,-0.509894,0.336854,-1.3443,0.0719992,-0.025669,0.424876
-0.110685,0.336182,-0.658355,-0.396397,0.0552267,-1.81055,0.0506714,0.018835,0.316632
-0.097681,0.335639,-0.702582,-0.0791242,-0.211252,-2.286,0.0352447,0.103832,0.24135
-0.0867048,0.340959,-0.75282,0.139196,-0.311797,-2.3809,0.0198741,0.126429,0.171087
-0.076783,0.347219,-0.800826,0.061533,-0.329841,-2.11881,-0.0087876,0.126493,0.0622776
-0.0715678,0.34727,-0.843134,-0.425027,-0.67898,-1.86959,-0.0702283,0.138763,-0.146986
-0.0791353,0.333428,-0.885377,-1.22588,-1.43264,-2.04355,-0.167183,0.25218,-0.488894
-0.0926399,0.308759,-0.933119,-1.49376,-1.24133,-2.14481,-0.18944,0.273359,-0.469846
-0.0950758,0.284475,-0.975668,-1.28465,-0.184982,-1.55776,-0.200402,0.107207,-0.396119
-0.0849897,0.259443,-1.00323,-1.55043,0.264826,-0.912533,-0.205597,0.0492359,-0.538268
-0.0755052,0.22406,-1.0221,-2.07064,0.25092,-0.661569,-0.258117,0.0573954,-0.581867
-0.0668916,0.182172,-1.03751,-2.0837,0.278564,-0.554663,-0.288253,-0.0329606,-0.524438
-0.0592058,0.146361,-1.0503,-1.48014,0.280937,-0.46416,-0.275919,-0.0874218,-0.391453
-0.0525447,0.124698,-1.05959,-0.751044,0.241358,-0.341513,-0.252651,-0.153427,-0.217905
-0.0481727,0.114074,-1.06741,-0.425143,0.0916461,-0.41634,-0.189128,-0.175526,-0.070274
-0.0473106,0.105358,-1.07852,-0.542202,-0.127408,-0.657327,-0.138181,-0.203278,0.0351971
-0.049612,0.0922158,-1.0953,-0.849038,-0.248732,-0.934706,-0.130154,-0.262026,0.153492
-0.049612,0.0922158,-1.0953,-0.849038,-0.248732,-0.934706,-0.130154,-0.262026,0.153492
-0.0545463,0.0737003,-1.11768,-1.05472,-0.469937,-1.18516,-0.108288,-0.276998,0.192168
-0.0634879,0.0558767,-1.14503,-0.807666,-0.521648,-1.41004,-0.0825278,-0.252975,0.234343
-0.0712608,0.0464716,-1.17543,-0.323432,-0.393113,-1.52264,-0.0606971,-0.222573,0.249071
-0.0757888,0.0467077,-1.20652,0.0918058,-0.186702,-1.55505,-0.0430493,-0.189149,0.248178
-0.0760958,0.0538227,-1.23732,0.36071,-0.00893017,-1.54431,-0.0163272,-0.151678,0.211574
-0.0732023,0.0651992,-1.26715,0.535646,0.128148,-1.48692,0.0145098,-0.123125,0.171305
-0.0670898,0.0790429,-1.29555,0.61018,0.254519,-1.43997,0.0193295,-0.10181,0.126425
-0.0584328,0.0928379,-1.32413,0.564807,0.352325,-1.48478,-0.0146822,-0.060921,0.0403658
-0.0480546,0.104951,-1.35486,0.480835,0.376945,-1.63159,-0.0723302,-0.00577597,-0.103727
-0.0342987,0.115984,-1.38902,0.495729,0.655349,-1.76994,-0.102215,0.0638901,-0.130304
-0.0135404,0.128021,-1.42451,0.618765,0.961412,-1.73594,-0.099898,0.0754404,-0.153797
0.0115039,0.141591,-1.45882,0.703858,1.02386,-1.67276,-0.0871027,0.0554857,-0.202868
0.0371113,0.154134,-1.49397,0.601209,0.927955,-1.74611,-0.0606498,0.152944,-0.241082
0.0575997,0.162609,-1.53023,0.42391,0.572123,-1.74737,-0.0799561,0.191571,-0.302716
0.0726438,0.168532,-1.56466,0.408728,0.402511,-1.56401,-0.0530427,0.196757,-0.212279
0.0864828,0.175499,-1.59382,0.514852,0.495866,-1.1999,0.00153008,0.166772,-0.0972417
0.100516,0.184303,-1.61426,0.505891,0.50372,-0.69842,0.0600898,0.0682401,-0.0979627
0.111422,0.190998,-1.62441,0.21958,0.35825,-0.237144,0.047462,-0.0297959,-0.142696
0.114486,0.190637,-1.6266,-0.246898,-0.171113,-0.0426549,-0.104232,-0.0350941,-0.234749
0.103654,0.180814,-1.62871,-0.673271,-0.913202,-0.352447,-0.212591,0.0199026,-0.304572
0.0832624,0.164672,-1.64041,-0.756784,-1.23185,-0.933748,-0.167704,0.0143777,-0.230675
0.0634848,0.149578,-1.66226,-0.568482,-0.99715,-1.26724,-0.160695,-0.0636258,-0.125554
0.0517586,0.138705,-1.68855,-0.383531,-0.554495,-1.3496,-0.174667,-0.0785053,-0.0274405
0.0475312,0.130217,-1.71533,-0.352525,-0.24591,-1.31732,-0.197349,-0.108233,0.0471461
0.047003,0.121495,-1.74131,-0.39476,-0.176587,-1.29669,-0.20855,-0.128117,0.112535
0.0454339,0.112371,-1.76832,-0.372433,-0.289476,-1.43863,-0.230297,-0.11368,0.169914
0.0420551,0.104732,-1.79963,-0.239843,-0.384542,-1.69849,-0.242679,-0.105878,0.261265
0.0369841,0.0999177,-1.83652,-0.103427,-0.496054,-1.96758,-0.255328,-0.092784,0.31144
0.0304204,0.0972549,-1.87901,-0.0303776,-0.55623,-2.24462,-0.271468,-0.0569512,0.326418
0.0240577,0.0955846,-1.92689,-0.0212264,-0.523025,-2.49356,-0.275639,-0.0213365,0.317962
0.0188977,0.0929354,-1.97923,-0.155397,-0.491713,-2.68047,-0.266496,0.0191017,0.26101
0.013356,0.0869647,-2.0342,-0.331698,-0.56048,-2.75565,-0.246841,0.0705281,0.121254
0.0062367,0.079986,-2.08977,-0.2636,-0.591783,-2.75931,-0.204596,0.0885371,0.00140685
0.000366337,0.0770186,-2.14497,-0.00325869,-0.368544,-2.69671,-0.192718,0.11483,-0.0573621
0.00256001,0.0794744,-2.19724,0.213282,0.20902,-2.48177,-0.168278,0.0417778,-0.0752269
0.0129054,0.0818211,-2.24709,-0.050212,0.244987,-2.54513,-0.140334,0.0613897,-0.188716
0.0139895,0.0715286,-2.30215,-0.952243,-0.610586,-2.92362,-0.143683,0.211101,-0.383972
-7.53263e-05,0.0441691,-2.36189,-1.60371,-0.99708,-2.96202,-0.152101,0.204616,-0.398665
-0.0169083,0.0137207,-2.41946,-1.32328,-0.780554,-2.70692,-0.109742,0.186465,-0.375191
-0.0275755,-0.00197171,-2.46981,-0.276096,-0.289164,-2.23326,-0.0837713,0.169094,-0.266556
-0.0311685,0.00488153,-2.50899,0.766275,-0.178083,-1.70336,-0.0925703,0.14485,-0.155206
-0.0377696,0.0264276,-2.53913,1.16785,-0.571561,-1.41589,-0.108569,0.130596,-0.0786378
-0.0533177,0.0501123,-2.56622,0.988045,-1.06237,-1.42192,-0.13699,0.0877042,0.0144762
-0.0759277,0.0671796,-2.59597,0.496475,-1.30358,-1.65955,-0.160873,0.0600337,0.102749
-0.098554,0.0760271,-2.63211,0.102667,-1.12635,-1.99892,-0.173771,0.0577196,0.190393
-0.11306,0.0803697,-2.67578,-0.125161,-0.656297,-2.33962,-0.156176,0.0657567,0.266821
-0.118419,0.0817195,-2.72552,-0.312846,-0.311267,-2.55247,-0.104572,0.0553223,0.260862
-0.119591,0.079908,-2.77861,-0.49448,-0.272656,-2.63663,-0.0459457,0.0460094,0.218449
-0.121725,0.0747453,-2.83289,-0.65523,-0.367135,-2.63184,-0.00641689,0.060485,0.171744
-0.126046,0.0673611,-2.88656,-0.70727,-0.419036,-2.55692,0.0232701,0.0605962,0.119227
-0.129938,0.0601446,-2.93829,-0.655019,-0.267364,-2.431,0.046437,0.0632516,0.103379
-0.130209,0.0536563,-2.98645,-0.621686,-0.0381646,-2.21603,0.0594945,0.0502125,0.084575
-0.130209,0.0536563,-2.98645,-0.621686,-0.0381646,-2.21603,0.0594945,0.0502125,0.084575
-0.127048,0.0464009,-3.02975,-0.656373,0.122216,-1.95988,0.0696699,0.0147527,0.0537694
-0.122067,0.0373022,-3.06829,-0.720487,0.198513,-1.73633,0.0637414,-0.033431,0.0190141
-0.116265,0.0265785,-3.1029,-0.735692,0.283659,-1.55967,0.037898,-0.0771386,-0.00903976
-0.109216,0.0156273,-3.13457,-0.702603,0.331908,-1.45589,0.0318373,-0.118498,-0.0587223
-0.102822,0.0050872,3.11867,-0.646583,0.266352,-1.39424,0.0316255,-0.150583,-0.146698
-0.0997535,-0.00448409,3.08995,-0.634035,-0.0778164,-1.37888,0.0173881,-0.163893,-0.270164
-0.110395,-0.0161866,3.05904,-0.829049,-0.912707,-1.57932,-0.0425076,0.00572565,-0.532722
-0.130572,-0.0271043,3.02458,-0.547333,-0.831053,-1.64445,-0.0814245,0.127471,-0.452373
-0.139709,-0.0254116,2.99337,0.351921,0.0800674,-1.41956,-0.0226704,0.127744,-0.226143
-0.130032,-0.00567055,2.97215,1.24653,0.811893,-0.891934,0.0522716,0.0467587,-0.0163928
-0.112664,0.0242804,2.96248,1.44258,0.737073,-0.478126,0.140988,0.0026868,0.0443468
-0.10602,0.0490305,2.95637,0.865976,-0.134726,-0.429984,0.157956,0.0147548,-0.0250136
-0.115235,0.0600345,2.94781,0.138988,-0.756689,-0.561979,0.086224,0.0433663,0.0209056
-0.132105,0.0588197,2.93394,-0.384878,-0.934412,-0.790873,0.0385831,0.101282,-0.0118466
-0.147343,0.0520492,2.91515,-0.469578,-0.578361,-0.937095,0.0166988,0.132714,-0.0435776
-0.151126,0.0473954,2.89549,-0.27229,0.088045,-0.890737,0.032066,0.135085,-0.0227009
-0.14399,0.0463991,2.87934,-0.0719665,0.491338,-0.6592,0.063215,0.107036,-0.0322878
-0.132264,0.0480907,2.86888,0.0822452,0.579256,-0.405669,0.0840887,0.079551,0.00324231
-0.122189,0.0516838,2.8628,0.195053,0.360953,-0.254729,0.0919224,0.0370429,0.0221941
-0.117422,0.0576122,2.85898,0.348462,0.10465,-0.210692,0.0690606,0.0104612,0.0801809
-0.116842,0.0666456,2.85551,0.48281,-0.0506452,-0.249224,0.0409394,-0.00727158,0.139124
-0.118302,0.0772675,2.85093,0.48747,-0.11482,-0.329992,0.0265642,-0.0254399,0.183895
-0.120056,0.0870754,2.84427,0.396625,-0.0957675,-0.443322,0.022146,-0.0304663,0.218609
-0.120026,0.0955452,2.83515,0.343798,0.025586,-0.554053,0.0193081,-0.0148296,0.253017
-0.116853,0.104045,2.82399,0.381017,0.181655,-0.638691,0.0210168,0.01232,0.281938
-0.110763,0.114318,2.81129,0.499334,0.270229,-0.726212,0.0189187,0.0365235,0.303761
-0.103629,0.127417,2.79687,0.636247,0.252596,-0.824454,0.0330094,0.05113,0.327759
-0.0971304,0.142815,2.78102,0.723897,0.182297,-0.876349,0.0512365,0.0393031,0.350541
-0.0911875,0.159455,2.76452,0.758902,0.170593,-0.892723,0.0577864,0.0372896,0.384259
-0.0848792,0.17577,2.74772,0.691982,0.179231,-0.899273,0.0435847,0.0340127,0.403624
-0.0779389,0.189359,2.72984,0.494308,0.185598,-0.971766,0.0412816,0.0228086,0.404849
-0.0705963,0.197859,2.70917,0.186972,0.133355,-1.10813,0.0597927,-0.00756131,0.384114
-0.0640664,0.199829,2.68509,-0.142212,0.039675,-1.23882,0.0820205,-0.0247494,0.325532
-0.0586511,0.195891,2.65899,-0.388492,-0.00551961,-1.26378,0.0830702,-0.01204,0.249345
-0.0538405,0.187922,2.63312,-0.518938,0.00737781,-1.20347,0.0649674,-0.00220761,0.156767
-0.0479991,0.179578,2.60932,-0.363599,0.185098,-1.05375,0.0616288,-0.022359,0.0690897
-0.0376696,0.177355,2.59032,0.0543624,0.492492,-0.796445,0.0796878,-0.114116,-0.0128903
-0.0254821,0.180451,2.57598,0.107046,0.371938,-0.64338,0.065944,-0.146469,-0.192201
-0.0213874,0.177197,2.56151,-0.556007,-0.264412,-0.834135,-0.0757049,-0.053114,-0.497268
-0.0265749,0.159708,2.53998,-1.10997,-0.440807,-1.21003,-0.184307,0.0458556,-0.655149
-0.0251841,0.139794,2.51407,-0.864782,0.231508,-1.21014,-0.150159,-0.0135382,-0.613326
-0.0142782,0.125406,2.49184,-0.669615,0.436397,-0.942554,-0.069071,-0.0639787,-0.741551
-0.00438282,0.112071,2.4767,-0.673549,0.383882,-0.505929,-0.087472,-0.0377453,-0.716946
0.00409854,0.099795,2.4713,-0.496917,0.399625,-0.0468537,-0.135349,-0.0262403,-0.608255
0.0114674,0.0946207,2.47382,0.0196068,0.33949,0.277449,-0.135561,-0.077487,-0.44828
0.0158142,0.101394,2.48165,0.61588,0.140804,0.481163,-0.158722,-0.143806,-0.260799
0.0145068,0.118075,2.4916,0.979592,-0.170518,0.492693,-0.191438,-0.16525,-0.0840631
0.0078091,0.139114,2.4993,1.05332,-0.369191,0.255049,-0.205625,-0.177222,0.0997604
-0.000445903,0.15853,2.50039,0.829073,-0.423559,-0.153994,-0.18445,-0.184754,0.24541
-0.00684511,0.171191,2.49304,0.411132,-0.298143,-0.556504,-0.136626,-0.169564,0.339745
-0.00776641,0.175474,2.47884,0.0147783,-0.0367908,-0.815055,-0.0973028,-0.133958,0.402858
-0.00323803,0.172889,2.46072,-0.268038,0.154829,-0.946437,-0.0394432,-0.106917,0.401438
0.00402118,0.165935,2.44081,-0.395845,0.225619,-0.994409,0.0047622,-0.0866867,0.352071
0.0119939,0.157633,2.4207,-0.41006,0.21674,-0.979508,0.0262106,-0.0560622,0.312238
0.017561,0.149281,2.40126,-0.375418,0.0267599,-0.938039,0.0438688,-0.0213016,0.215792
0.0196466,0.143143,2.38342,-0.182626,-0.0472302,-0.805957,0.0454514,0.027024,0.172229
0.0207383,0.141615,2.36958,0.0498586,-0.038192,-0.539788,0.0508362,0.04611,0.144134
0.0215684,0.144777,2.36208,0.283184,0.0421287,-0.182415,0.0568603,0.043533,0.121373
0.0244967,0.153148,2.3621,0.546411,0.24682,0.193257,0.0267263,0.0559005,0.138634
0.0244967,0.153148,2.3621,0.546411,0.24682,0.193257,0.0267263,0.0559005,0.138634
0.0295787,0.166366,2.36829,0.736104,0.327458,0.420777,0.00466278,0.053798,0.144728
0.0345566,0.182738,2.3773,0.851562,0.321943,0.491172,-0.0157096,0.0354522,0.160833
0.0391901,0.200726,2.38665,0.8971,0.314162,0.479266,-0.0382408,0.0257814,0.189451
0.0438708,0.219484,2.39534,0.933401,0.344147,0.439414,-0.0515783,0.0198348,0.227283
0.0500347,0.239165,2.40298,0.98966,0.464485,0.391423,-0.0513062,0.0105428,0.267165
0.0603918,0.259189,2.40961,0.909117,0.722855,0.349945,-0.0240525,-0.0366265,0.301033
0.0750811,0.273266,2.4144,0.389205,0.834731,0.166078,0.0212634,-0.0772136,0.213035
0.0913341,0.273213,2.41379,-0.400929,0.688727,-0.267829,0.0576379,-0.0950875,0.0765713
0.101919,0.257655,2.40376,-0.982405,0.0311749,-0.845338,0.0974621,-0.0579916,-0.153476
0.0989609,0.233317,2.38321,-1.1857,-0.814002,-1.33853,0.131966,0.0453842,-0.384959
0.0828086,0.206958,2.35622,-1.1438,-1.26809,-1.42604,0.175368,0.127268,-0.559941
0.0640214,0.184666,2.33217,-0.872599,-0.94183,-1.02458,0.16233,0.150751,-0.617176
0.0551466,0.168904,2.3178,-0.642394,-0.195994,-0.470603,0.0842003,0.199688,-0.591657
0.0583136,0.156779,2.31436,-0.5478,0.427815,0.0645128,0.00343901,0.202234,-0.515592
0.0712649,0.148528,2.32136,-0.261096,0.961168,0.550483,-0.0220196,0.102954,-0.331101
0.0921874,0.149815,2.33616,0.279114,1.26394,0.890905,-0.00789575,-0.0137999,-0.0874673
0.113056,0.161856,2.35518,0.664836,1.03088,1.06009,-0.00764194,-0.10481,0.0475543
0.125053,0.178142,2.37454,0.653789,0.448395,0.982326,-0.020916,-0.156875,0.137302
0.124483,0.190457,2.39042,0.331896,-0.19494,0.682713,-0.034072,-0.182427,0.204926
0.113606,0.19355,2.39997,-0.14798,-0.669022,0.276477,-0.0328915,-0.176491,0.238902
0.0977967,0.186362,2.40275,-0.567518,-0.800359,-0.0493534,-0.0300169,-0.120211,0.242729
0.0829624,0.172955,2.40117,-0.688374,-0.655197,-0.192317,-0.00280388,-0.0679727,0.210284
0.073849,0.160797,2.39829,-0.450053,-0.290133,-0.161649,0.0338747,-0.0410667,0.209522
0.0716691,0.155568,2.39663,-0.0493211,0.0278172,-0.0302688,0.0704162,-0.0246702,0.212866
0.0743359,0.158066,2.39738,0.259771,0.232098,0.123147,0.101417,-0.0343637,0.236759
0.0798735,0.164416,2.40038,0.303998,0.360205,0.194306,0.117012,-0.0601851,0.277543
0.0881629,0.169115,2.4035,0.119013,0.53492,0.136767,0.11914,-0.0880065,0.298388
0.100888,0.16983,2.40531,-0.0398113,0.734914,0.050403,0.0934965,-0.100578,0.299663
0.116191,0.170124,2.40572,0.146052,0.765396,-0.0105702,0.0574667,-0.104224,0.241385
0.133642,0.17948,2.40293,0.866875,1.02525,-0.175372,-0.00235024,-0.0464118,0.210438
0.161574,0.202056,2.39192,1.41008,1.48422,-0.593938,0.0218753,-0.0595849,0.245888
0.196686,0.22681,2.37086,1.29247,1.51598,-0.919094,0.130187,-0.15666,0.179219
0.230922,0.243642,2.34771,0.783315,1.29183,-0.881935,0.150245,-0.171374,0.140827
0.255577,0.24993,2.32928,0.302706,0.671206,-0.677122,0.181244,-0.190301,-0.0227334
0.265358,0.251699,2.31674,0.234601,0.00178688,-0.461216,0.193778,-0.196339,-0.197137
0.261724,0.253905,2.3066,0.181155,-0.597612,-0.476981,0.115654,-0.0459641,-0.382208
0.249562,0.251448,2.2954,-0.158723,-0.789282,-0.594767,0.0639492,0.0839048,-0.495244
0.237944,0.242903,2.28697,-0.455768,-0.55828,-0.346033,0.0968831,0.0259679,-0.558169
0.229883,0.231643,2.28682,-0.608344,-0.237103,0.0673543,0.0925997,0.0103537,-0.64469
0.226625,0.220132,2.29417,-0.648165,0.0707414,0.343959,-0.0125727,0.096502,-0.644085
0.228053,0.210234,2.30612,-0.548927,0.29124,0.585634,-0.100742,0.124537,-0.546317
0.230866,0.206502,2.32338,-0.140153,0.316378,0.981718,-0.155508,0.0449572,-0.398089
0.231294,0.215515,2.34587,0.519012,0.164473,1.31957,-0.218486,-0.0280466,-0.184798
0.226333,0.237169,2.36947,0.996155,-0.165205,1.3391,-0.261397,-0.0742678,0.00425428
0.214944,0.263039,2.38845,1.03445,-0.479925,0.95188,-0.275567,-0.119195,0.173197
0.201784,0.282768,2.3977,0.643277,-0.517606,0.307914,-0.254409,-0.136589,0.320274
0.194826,0.28963,2.39627,0.0371685,-0.166498,-0.275158,-0.212342,-0.141755,0.425357
0.198949,0.283301,2.38783,-0.464234,0.332183,-0.600953,-0.156649,-0.124114,0.447821
0.198949,0.283301,2.38783,-0.464234,0.332183,-0.600953,-0.156649,-0.124114,0.447821
0.212512,0.268792,2.37642,-0.672852,0.672963,-0.737261,-0.108967,-0.0905428,0.412009
0.230956,0.252846,2.3639,-0.577589,0.809009,-0.782714,-0.070919,-0.103386,0.400627
0.250248,0.239232,2.35011,-0.438358,0.768592,-0.830068,-0.0417081,-0.127393,0.399983
0.268494,0.22657,2.3357,-0.451639,0.722993,-0.835897,-0.0196688,-0.146533,0.414124
0.285002,0.212532,2.32255,-0.530696,0.599765,-0.74608,0.0475853,-0.153902,0.363072
0.295812,0.199656,2.31322,-0.389503,0.252322,-0.468023,0.10963,-0.118334,0.237902
0.297592,0.193829,2.30896,-0.0227314,-0.153192,-0.0905568,0.126457,-0.0265293,0.13553
0.290798,0.197722,2.30997,0.346447,-0.477538,0.283916,0.125226,0.0520579,0.0492896
0.279062,0.209076,2.31595,0.55376,-0.501149,0.578625,0.0856622,0.143836,-0.0125622
0.27027,0.225438,2.32641,0.760387,-0.090901,0.836233,0.0357395,0.180275,-0.019991
0.270635,0.247733,2.33964,1.00303,0.382103,0.942483,0.0208023,0.135679,0.00791395
0.275887,0.271016,2.35192,0.834353,0.395215,0.790397,0.0279321,0.109919,-0.0473931
0.280352,0.286326,2.36149,0.35482,0.314684,0.486619,0.0332767,0.0657858,-0.0531096
0.28474,0.289733,2.36676,-0.155877,0.277492,0.0864023,0.0366015,0.0701966,-0.0482388
0.289919,0.282175,2.36778,-0.572458,0.259376,-0.164985,0.0539988,0.0766633,-0.0518289
0.293928,0.267227,2.36844,-0.867771,0.135001,-0.189602,0.0844455,0.0439804,-0.0549002
0.294284,0.245906,2.3708,-1.23894,-0.0274761,-0.219076,0.103253,0.0104789,-0.099642
0.293249,0.217178,2.37354,-1.53736,0.0455758,-0.369806,0.0749037,0.0152798,-0.128273
0.296057,0.184206,2.37411,-1.58663,0.211384,-0.5201,0.0513957,-0.000946209,-0.143825
0.300149,0.151141,2.37285,-1.51175,0.133635,-0.53729,0.0469566,-0.00490534,-0.194651
0.300091,0.120469,2.37215,-1.36283,-0.157942,-0.424256,0.0298082,-0.00720277,-0.239892
0.294876,0.0948378,2.37226,-1.0534,-0.320509,-0.330439,-8.51154e-05,0.00685088,-0.22689
0.288797,0.0766532,2.37099,-0.633306,-0.260724,-0.316273,-0.0155307,0.00722697,-0.181831
0.285805,0.0666328,2.36763,-0.239663,-0.0586945,-0.27612,-0.0347531,-0.00560576,-0.0981752
0.286419,0.0638814,2.36398,0.0603224,0.0777072,-0.13519,-0.053488,-0.0306292,-0.0146797
0.289596,0.0673013,2.36255,0.29986,0.241988,0.103672,-0.102408,-0.066859,0.0689371
0.29676,0.0766718,2.3643,0.540871,0.511901,0.304117,-0.160812,-0.0908227,0.148716
0.311613,0.0907986,2.36674,0.706348,1.01512,0.31584,-0.211413,-0.070703,0.244092
0.337949,0.106318,2.36694,0.735055,1.58076,0.17164,-0.249847,-0.0424874,0.31491
0.372636,0.120921,2.36247,0.805992,1.72448,-0.0930968,-0.245828,-0.00200826,0.317423
0.405426,0.135699,2.3511,0.985797,1.32948,-0.386387,-0.215461,0.049666,0.284907
0.428845,0.150517,2.333,1.05215,0.745854,-0.625626,-0.177126,0.113237,0.260843
0.443063,0.163439,2.312,0.978808,0.404798,-0.670152,-0.117865,0.148369,0.251861
0.455439,0.174755,2.29253,0.8537,0.56601,-0.544292,-0.0482238,0.129601,0.267401
0.472382,0.18366,2.27727,0.56829,0.806344,-0.422541,0.0202345,0.0606357,0.213737
0.489687,0.185211,2.26586,0.0535383,0.645731,-0.54017,0.0708365,0.0143693,0.0951706
0.500599,0.174077,2.25624,-0.575204,0.253267,-0.810635,0.0847062,0.0341002,-0.00461578
0.502718,0.151247,2.24823,-0.980635,-0.183673,-0.93562,0.10087,0.0250305,-0.0845484
0.494853,0.124468,2.24257,-1.05074,-0.679016,-0.787961,0.153696,-0.0425555,-0.155547
0.47606,0.0986871,2.24087,-1.20518,-1.22757,-0.59036,0.178333,-0.0870961,-0.178048
0.445171,0.0667139,2.24345,-1.78432,-1.78368,-0.613739,0.194384,-0.0861218,-0.257277
0.407484,0.0253957,2.24913,-2.10258,-1.85771,-0.518859,0.185553,-0.0613226,-0.269568
0.372664,-0.0147479,2.25904,-1.89274,-1.56257,-0.0304414,0.133561,-0.0479962,-0.228744
0.345181,-0.0438422,2.2759,-1.38009,-1.26743,0.556239,0.086687,-0.0889636,-0.13948
0.321217,-0.0602607,2.29649,-0.848675,-1.27149,0.758411,0.0668405,-0.101789,-0.0588364
0.29509,-0.0681397,2.3133,-0.407625,-1.4469,0.547094,0.0677895,-0.131075,-0.0175055
0.266906,-0.0689778,2.32206,0.069755,-1.33755,0.295508,0.0705276,-0.161285,0.0929435
0.243515,-0.064123,2.32665,0.224565,-1.04313,0.320988,0.0677757,-0.153892,0.194714
0.243515,-0.064123,2.32665,0.224565,-1.04313,0.320988,0.0677757,-0.153892,0.194714
0.225091,-0.0575312,2.33468,0.234446,-0.839544,0.626122,0.0954878,-0.179677,0.236177
0.210452,-0.0489145,2.34888,0.310586,-0.726033,0.907281,0.0986605,-0.152884,0.233954
0.195771,-0.0373792,2.36597,0.481132,-0.842965,0.943496,0.0768077,-0.101015,0.143345
0.176551,-0.0218502,2.38058,0.797584,-1.11658,0.748874,0.0521598,-0.0207498,0.0167674
0.152817,0.00100696,2.39061,1.30296,-1.20897,0.654307,0.0452109,0.0604553,-0.0332912
0.129826,0.0341716,2.40106,1.78133,-1.05057,0.861992,0.0446103,0.0617071,-0.0306466
0.108983,0.073245,2.4153,1.83074,-0.952456,0.952123,0.0303186,0.0612624,-0.0905377
0.0892122,0.107814,2.42915,1.3862,-0.894311,0.705443,0.00465474,0.0722357,-0.151667
0.0711914,0.130275,2.43699,0.798866,-0.780052,0.232182,-0.0314659,0.132531,-0.214934
0.0577682,0.142594,2.43715,0.472837,-0.566619,-0.0757761,-0.0153257,0.12284,-0.253759
0.0482327,0.150359,2.43491,0.290037,-0.430911,-0.0832256,0.0377945,0.0375643,-0.287655
0.0407307,0.151031,2.43278,-0.298641,-0.334847,-0.139028,0.0320098,0.0751097,-0.312786
0.0370768,0.137311,2.42951,-0.997157,-0.0246932,-0.227923,-0.0180883,0.109322,-0.318733
0.041594,0.115206,2.42576,-1.08299,0.409524,-0.198369,-0.00836255,0.128135,-0.259319
0.0526729,0.097052,2.42489,-0.670947,0.645463,0.0526685,0.00671185,0.0790012,-0.157224
0.0643206,0.0886103,2.4288,-0.234288,0.455984,0.256467,-0.00645259,-0.0218266,-0.0192582
0.0670873,0.0859196,2.43469,-0.126008,-0.155794,0.283385,-0.030672,-0.098268,0.0548152
0.0583594,0.083299,2.43969,-0.16082,-0.607714,0.17529,-0.0432924,-0.103809,0.131036
0.0447636,0.0811808,2.44199,-0.0286569,-0.680412,0.0574746,-0.0163724,-0.0746395,0.164348
0.0324313,0.0832877,2.44282,0.241184,-0.505918,0.0454019,0.016866,-0.0480493,0.161827
0.0252408,0.0906065,2.44382,0.467023,-0.194641,0.0730214,0.0328337,-0.0174428,0.167883
0.024599,0.101614,2.44505,0.62395,0.146496,0.0718603,0.0262049,0.0103598,0.169605
0.0304017,0.116061,2.44597,0.809736,0.416471,0.0584695,0.0189103,0.0213028,0.19748
0.0396365,0.133888,2.44641,0.944276,0.463251,0.0472733,0.0153094,0.0197337,0.224876
0.0473711,0.152965,2.44622,0.922524,0.276291,-0.00333674,0.00936723,0.010005,0.229616
0.05105,0.170373,2.44373,0.829724,0.0795964,-0.160571,0.012089,0.0228978,0.192535
0.0529162,0.186249,2.43822,0.781513,0.0253029,-0.271091,0.0294595,0.0528957,0.158912
0.0559433,0.201884,2.43225,0.8137,0.206076,-0.206347,0.0369269,0.0373682,0.130303
0.0631722,0.217352,2.42801,0.694789,0.381884,-0.126344,0.0475472,-0.0221638,0.0723941
0.0711812,0.227426,2.42479,0.309235,0.299103,-0.138695,0.0575719,-0.106729,-0.0589024
0.0757006,0.229544,2.41965,-0.0504051,0.027463,-0.385293,0.0325109,-0.111593,-0.207317
0.0767803,0.225262,2.40914,-0.255036,-0.107057,-0.614953,-0.0270526,0.00645843,-0.314544
0.0789861,0.219965,2.39758,-0.127829,0.11316,-0.485996,-0.0375892,0.0679572,-0.333366
0.0852841,0.220085,2.39124,0.188342,0.358126,-0.108325,0.000675216,0.0358938,-0.295154
0.0929906,0.226055,2.39235,0.346204,0.392565,0.244059,0.01116,-0.0449082,-0.200658
0.0970976,0.232744,2.39874,0.223334,0.117174,0.400846,-0.0104841,-0.113071,-0.109351
0.0933116,0.235198,2.40642,-0.0697994,-0.317725,0.338719,-0.053944,-0.132824,-0.0519803
0.081931,0.231204,2.41183,-0.350794,-0.652625,0.137044,-0.106014,-0.0930093,-0.0579044
0.0677601,0.223532,2.41296,-0.362928,-0.674744,-0.0736293,-0.11621,-0.0368091,-0.0906699
0.0577612,0.218522,2.41093,-0.0993805,-0.31482,-0.125155,-0.0821129,-0.0133463,-0.0549195
0.056252,0.218749,2.40913,0.0966632,0.100472,-0.0420722,-0.0450711,-0.0250266,0.0274212
0.0607427,0.220591,2.40893,0.0575187,0.306154,0.0275546,-0.019302,-0.0373888,0.119217
0.0670457,0.220789,2.41001,-0.0367514,0.320741,0.0735621,-0.0137486,-0.0587871,0.185584
0.0721727,0.219956,2.41134,-0.0433825,0.203412,0.0378032,-0.0218191,-0.0660383,0.232018
0.0745051,0.219459,2.41152,-0.0109617,0.0369688,-0.0240449,-0.0258368,-0.0711169,0.25024
0.0744924,0.219462,2.41046,0.0117489,-0.0442203,-0.0769925,-0.0316075,-0.0551381,0.252635
0.0739669,0.21945,2.40837,-0.00461654,-0.0394574,-0.124214,-0.0352466,-0.0426224,0.249289
0.0739669,0.21945,2.40837,-0.00461654,-0.0394574,-0.124214,-0.0352466,-0.0426224,0.249289
0.0743444,0.219149,2.4058,0.00552274,0.0190348,-0.10857,-0.0280658,-0.0290758,0.2245
0.0753148,0.220164,2.40447,0.123274,0.0350088,-0.0022177,-0.0135212,-0.0100797,0.18533
0.0756263,0.224301,2.40555,0.278543,0.0188169,0.13824,-0.0156323,0.00675696,0.168834
0.0749791,0.231414,2.40902,0.392875,-0.0141321,0.236025,-0.0319116,0.0178369,0.158795
0.0723664,0.240856,2.41346,0.525057,-0.135909,0.248292,-0.053111,0.0321893,0.112818
0.0690165,0.253745,2.41739,0.725769,-0.0754261,0.219605,-0.0696678,0.0419089,0.114341
0.068177,0.269722,2.42073,0.806716,0.0681814,0.211864,-0.055041,0.0112143,0.0931978
0.0683404,0.28528,2.42357,0.702749,-0.00370123,0.148596,-0.0136473,-0.0313179,0.0134495
0.0671703,0.298444,2.42383,0.602516,-0.120913,-0.056887,0.0139265,-0.036686,-0.0318795
0.0639024,0.309371,2.41872,0.510354,-0.369075,-0.364425,0.0568639,-0.0151207,-0.0947527
0.0574108,0.317034,2.40726,0.273401,-0.6102,-0.647354,0.0828552,0.0534946,-0.136393
0.0492006,0.3171,2.39303,-0.225516,-0.582716,-0.632626,0.135904,0.0785822,-0.181545
0.0443117,0.306876,2.38294,-0.721966,-0.176443,-0.349544,0.168527,0.0464664,-0.208619
0.0463654,0.289166,2.37917,-0.97563,0.242222,-0.118761,0.154611,0.0257843,-0.239661
0.0539444,0.269351,2.3777,-0.94817,0.414751,-0.173542,0.0555851,0.0564655,-0.261808
0.062055,0.251286,2.37245,-0.834986,0.209209,-0.435405,-0.00876738,0.0838242,-0.255637
0.0646372,0.233126,2.36341,-0.94648,-0.163449,-0.499692,-0.0242553,0.0796835,-0.214386
0.0610549,0.211892,2.35648,-1.09876,-0.296276,-0.279184,-0.0401057,0.0298289,-0.141802
0.0562147,0.189404,2.35435,-1.1007,-0.193884,-0.0900624,-0.0839431,-0.0149579,-0.077113
0.0550643,0.168024,2.35349,-0.998339,0.0844611,-0.148644,-0.122621,-0.0507071,-0.0185678
0.0605976,0.149372,2.3496,-0.842828,0.380181,-0.341253,-0.113368,-0.0933397,0.0608259
0.0704319,0.132619,2.34238,-0.788105,0.45629,-0.448579,-0.0605546,-0.121813,0.10778
0.0795089,0.116818,2.33472,-0.705512,0.33239,-0.400611,-0.00683169,-0.128397,0.131816
0.0842934,0.10393,2.32884,-0.505913,0.056431,-0.274996,0.0319529,-0.120119,0.12416
0.0824767,0.0962822,2.32527,-0.211443,-0.260144,-0.151974,0.0483391,-0.111401,0.0899311
0.0756677,0.0951486,2.32315,0.106576,-0.418309,-0.0896736,0.0308561,-0.0900381,0.0716383
0.0666755,0.099368,2.32044,0.315482,-0.47007,-0.166593,0.0360739,-0.0930561,0.0328036
0.0588508,0.10645,2.31498,0.395108,-0.341124,-0.338422,0.0324586,-0.0750251,0.0446659
0.0556842,0.113764,2.3058,0.375495,-0.0494898,-0.520591,0.0379814,-0.0415258,0.0860206
0.0598867,0.120608,2.29369,0.37726,0.326265,-0.619771,0.0527361,-0.0186456,0.158101
0.0712005,0.127789,2.28051,0.420073,0.606542,-0.614154,0.0781519,-0.0137177,0.224669
0.0859611,0.135465,2.2683,0.421914,0.66694,-0.523708,0.0779257,-0.00298007,0.252454
0.100011,0.142487,2.25751,0.356312,0.551274,-0.487954,0.0787948,0.00196055,0.246638
0.109252,0.146532,2.2468,0.111405,0.172733,-0.517944,0.123823,-0.00955467,0.15378
0.109666,0.144016,2.23664,-0.239085,-0.275541,-0.481486,0.183985,-0.0295162,0.0133352
0.102064,0.136746,2.22891,-0.352924,-0.578733,-0.349039,0.243822,-0.0914326,-0.0921425
0.088355,0.130444,2.22382,-0.179895,-0.843576,-0.212082,0.272236,-0.104347,-0.240055
0.0695912,0.129355,2.2208,0.0779031,-1.06547,-0.0905566,0.201691,-0.0108678,-0.267179
0.0449053,0.131968,2.22052,0.150694,-1.39276,0.0753734,0.111201,0.0398187,-0.24085
0.0147111,0.134469,2.22277,0.0896207,-1.50731,0.118413,0.0594427,0.0241556,-0.207362
-0.0112887,0.137024,2.22432,0.182069,-0.963957,0.0324422,0.0593242,-0.0363934,-0.124426
-0.0227414,0.141631,2.22511,0.24587,-0.179396,0.0754665,0.0517934,-0.0820015,-0.0663908
-0.0204467,0.145879,2.22965,0.17376,0.420999,0.390779,0.0325573,-0.150139,-0.0206397
-0.0111532,0.147564,2.24131,-0.0323417,0.571567,0.739362,-0.0383761,-0.177998,0.00925803
-0.00538475,0.141708,2.25819,-0.582762,0.216741,0.878306,-0.148096,-0.145616,-0.0739266
-0.00458282,0.125689,2.27443,-0.892583,0.180847,0.673905,-0.247803,-0.115441,-0.106288
0.00205883,0.11168,2.28385,-0.391057,0.649017,0.249935,-0.280214,-0.084185,-0.0416628
0.019638,0.111568,2.28565,0.343636,1.03883,-0.0178827,-0.217116,-0.0908728,0.0583799
0.019638,0.111568,2.28565,0.343636,1.03883,-0.0178827,-0.217116,-0.0908728,0.0583799
0.040156,0.122509,2.28494,0.65986,0.933421,0.0151237,-0.135364,-0.132573,0.115133
0.0550696,0.134221,2.28562,0.414013,0.520368,0.0924216,-0.0605281,-0.151475,0.153459
0.0603668,0.137216,2.28756,-0.129103,0.0648809,0.109931,-0.0125218,-0.147653,0.131435
0.0598681,0.131144,2.2907,-0.42808,-0.0240502,0.175429,-0.0235824,-0.138458,0.123487
0.0595298,0.123105,2.29592,-0.345345,0.0687955,0.294697,-0.03344,-0.115166,0.0819522
0.0615944,0.119842,2.30339,0.00248128,0.240526,0.421648,-0.0634179,-0.0767642,0.0515375
0.0671603,0.124739,2.31255,0.421503,0.402135,0.50043,-0.107268,-0.0144082,0.0443451
0.0747666,0.137771,2.32193,0.792229,0.461529,0.509413,-0.142837,0.0541145,0.044169
0.0827694,0.157734,2.33082,1.10824,0.460457,0.52652,-0.134963,0.0518257,0.0507331
0.0902292,0.182996,2.34006,1.27966,0.425017,0.603454,-0.0995275,-0.0313413,0.0440307
0.0946925,0.209064,2.35049,1.15913,0.18529,0.624772,-0.106652,-0.0592858,-0.00851774
0.0931591,0.230236,2.35936,0.833188,-0.147151,0.384767,-0.141839,-0.0287205,-0.046463
0.0871052,0.242958,2.36133,0.394029,-0.383424,-0.0971751,-0.183225,0.0318043,-0.0670612
0.0809879,0.245953,2.35447,-0.0149484,-0.343894,-0.507839,-0.19997,0.0495875,-0.0842682
0.0789671,0.242744,2.34158,-0.167613,-0.174445,-0.731525,-0.174595,0.0338695,-0.116327
0.0801071,0.237282,2.32571,-0.282127,-0.11663,-0.830511,-0.141012,0.00393653,-0.169442
0.0813823,0.226654,2.30836,-0.67497,-0.148364,-0.937693,-0.119664,-0.0167215,-0.237389
0.0835586,0.206983,2.28884,-1.09461,-0.0236287,-1.12876,-0.127594,-0.023145,-0.259653
0.0895405,0.180272,2.26564,-1.33184,0.167618,-1.34367,-0.142934,0.00937572,-0.27538
0.0984434,0.15011,2.24024,-1.38963,0.281532,-1.38666,-0.14378,0.00445133,-0.300548
0.10768,0.121369,2.21586,-1.15543,0.31407,-1.29095,-0.157767,-0.00913216,-0.306166
0.116862,0.100452,2.1931,-0.635845,0.335272,-1.17923,-0.187861,-0.0040568,-0.248125
0.124623,0.0907734,2.17099,-0.0646893,0.201639,-1.12197,-0.205073,-0.0128515,-0.182129
0.129009,0.0917159,2.14793,0.424724,0.0324324,-1.14,-0.224439,-0.0118824,-0.0739558
0.130683,0.10095,2.12338,0.776634,-0.104436,-1.14597,-0.222727,-0.0209709,0.0488643
0.129788,0.115833,2.09809,0.994819,-0.251528,-1.14653,-0.214907,-0.0223047,0.136663
0.126972,0.133998,2.07199,1.10571,-0.350175,-1.17896,-0.200065,-0.0122155,0.207591
0.12253,0.152647,2.04481,1.03241,-0.495938,-1.26023,-0.192702,0.00738618,0.215535
0.115452,0.16865,2.01586,0.903673,-0.649409,-1.37021,-0.173268,0.0351766,0.138429
0.107406,0.182682,1.98471,0.80754,-0.69718,-1.51686,-0.184319,0.105785,0.0933398
0.0995985,0.193801,1.95046,0.641569,-0.682306,-1.70103,-0.168297,0.133631,-0.00710434
0.0954201,0.202642,1.91313,0.600089,-0.442535,-1.82484,-0.14545,0.130503,-0.0286713
0.0973644,0.210107,1.87364,0.457004,-0.188607,-1.94518,-0.115871,0.102943,-0.0289885
0.102764,0.210514,1.83069,-0.057336,-0.234092,-2.245,-0.0916668,0.1,-0.0943895
0.105272,0.196617,1.78106,-0.831679,-0.523884,-2.7139,-0.0953165,0.130213,-0.186043
0.103497,0.16783,1.72441,-1.34319,-0.625104,-3.06469,-0.131036,0.187429,-0.288613
0.102745,0.135738,1.66351,-1.09605,-0.31116,-3.17578,-0.143964,0.226707,-0.305073
0.108742,0.114796,1.60206,-0.287829,0.149655,-3.03276,-0.126704,0.256695,-0.265852
0.121492,0.111229,1.54449,0.541281,0.418074,-2.62581,-0.0975258,0.248695,-0.155046
0.134164,0.120835,1.49483,0.959002,0.196017,-2.12665,-0.0652664,0.186582,-0.0831835
0.138063,0.135394,1.45359,0.977021,-0.348575,-1.73283,-0.071241,0.119981,-0.0168102
0.131228,0.148371,1.41832,0.75951,-0.79424,-1.57656,-0.142872,0.0949102,0.0423535
0.11829,0.157734,1.384,0.617071,-0.966238,-1.69523,-0.200152,0.0801761,0.0860465
0.105798,0.166471,1.34542,0.690951,-0.868439,-1.97903,-0.230911,0.0742271,0.142039
0.0970461,0.176704,1.30105,0.728818,-0.771574,-2.22862,-0.220736,0.0530292,0.174514
0.0906398,0.185908,1.25301,0.60671,-0.729258,-2.3428,-0.183362,0.0246062,0.188314
0.0855892,0.191976,1.2041,0.398955,-0.689841,-2.35079,-0.139914,-0.00640579,0.219171
0.0814369,0.192935,1.1561,0.0637411,-0.623767,-2.31414,-0.113163,-0.0329753,0.221586
0.0814369,0.192935,1.1561,0.0637411,-0.623767,-2.31414,-0.113163,-0.0329753,0.221586
0.0789133,0.18677,1.10922,-0.298228,-0.512662,-2.3015,-0.0973732,-0.044554,0.204191
0.0777461,0.174593,1.06289,-0.529368,-0.42889,-2.31357,-0.0826974,-0.0481244,0.162654
0.0771866,0.159311,1.0167,-0.60154,-0.402557,-2.31791,-0.066551,-0.043571,0.0774757
0.0757405,0.145537,0.970906,-0.37822,-0.432238,-2.25878,-0.0230035,-0.0425065,-0.00878507
0.0732757,0.138183,0.926874,-0.0337491,-0.427578,-2.1061,-0.00844069,-0.00779493,-0.0300885
0.0700693,0.137356,0.886215,0.219443,-0.455958,-1.89179,0.0171343,-0.00540908,-0.0616082
0.0652859,0.140837,0.849521,0.34127,-0.529776,-1.70004,0.0644499,-0.0412993,-0.0740374
0.058789,0.14518,0.815955,0.264698,-0.584832,-1.5824,0.0782002,-0.0608191,-0.0817028
0.0517419,0.147011,0.78428,0.0790834,-0.56431,-1.52889,0.0758073,-0.0593587,-0.109065
0.045769,0.14541,0.753344,-0.0762769,-0.469431,-1.52268,0.0792263,-0.060683,-0.151971
0.0419139,0.142139,0.722258,-0.0962874,-0.364173,-1.55345,0.087122,-0.0519885,-0.200789
0.0395269,0.139271,0.690485,-0.058485,-0.325014,-1.58074,0.0965929,-0.033664,-0.249195
0.0380743,0.137495,0.658626,0.00989861,-0.248451,-1.54984,0.0954881,0.0134818,-0.265527
0.0386937,0.138099,0.628347,0.191165,-0.0756808,-1.41065,0.0943899,0.0518299,-0.246239
0.0438169,0.144466,0.601871,0.583494,0.223606,-1.16265,0.0834081,0.0739872,-0.153579
0.0540829,0.159942,0.579747,1.03917,0.425731,-0.955641,0.0854425,0.0602468,-0.0230418
0.0658364,0.181605,0.559816,1.14528,0.344685,-0.885963,0.0947778,0.0315762,0.0636081
0.0735527,0.199698,0.539791,0.714537,0.0315459,-0.954125,0.0989182,0.00139767,0.0728897
0.0760294,0.205958,0.518514,0.0709481,-0.177765,-1.06247,0.0932059,-0.0209278,0.040979
0.0767242,0.200657,0.496507,-0.398501,-0.185888,-1.1039,0.0532306,0.024326,-0.0301034
0.0786504,0.188944,0.474529,-0.529522,0.00493824,-1.12193,-0.0103682,0.0961623,-0.13297
0.0872329,0.179113,0.452318,-0.213522,0.458692,-1.10855,-0.0515489,0.130519,-0.146479
0.10394,0.177142,0.430916,0.192711,0.768408,-0.972741,-0.068942,0.145669,-0.111415
0.12272,0.181206,0.412843,0.372933,0.725242,-0.732163,-0.06276,0.115885,-0.0565006
0.13844,0.187809,0.399197,0.442325,0.591677,-0.519363,-0.0731023,0.0773928,0.0345093
0.151472,0.195657,0.38852,0.484643,0.517303,-0.412664,-0.102406,0.0523365,0.115105
0.16401,0.204675,0.378775,0.550822,0.547607,-0.397265,-0.129838,0.0380269,0.187103
0.176895,0.214255,0.368445,0.537108,0.479378,-0.436197,-0.133803,0.011432,0.225192
0.186789,0.221706,0.356804,0.379458,0.23652,-0.552032,-0.149238,-0.00140397,0.243605
0.191384,0.224633,0.342998,0.150132,-0.0938322,-0.715048,-0.145919,-0.0153647,0.246185
0.189901,0.222688,0.326786,-0.0138363,-0.39299,-0.856139,-0.119572,-0.0222972,0.205089
0.184152,0.218871,0.308589,-0.0119446,-0.554833,-0.948007,-0.0947148,-0.0234427,0.151152
0.17627,0.216045,0.288697,0.0968373,-0.648051,-0.994493,-0.0470293,-0.035555,0.0701535
0.167317,0.215393,0.267654,0.151231,-0.694809,-1.03948,-0.0313716,-0.0303633,0.0178921
0.15766,0.213541,0.245125,0.0204823,-0.726909,-1.1587,-0.0396261,-0.014259,-0.073256
0.149417,0.209063,0.219697,-0.0861596,-0.625057,-1.36975,-0.0765739,0.0306784,-0.112141
0.142866,0.200888,0.189324,-0.32217,-0.675991,-1.68558,-0.0650543,0.0390171,-0.182223
0.135274,0.186303,0.153771,-0.607949,-0.733401,-1.92342,-0.0446531,0.067963,-0.231802
0.128816,0.168087,0.115944,-0.66567,-0.548001,-1.96292,-0.0297561,0.0845783,-0.236129
0.125764,0.15069,0.0782658,-0.560769,-0.364452,-1.92187,-0.0264013,0.103794,-0.284567
0.125117,0.136698,0.0413858,-0.349602,-0.230195,-1.84304,-0.0380403,0.113003,-0.323286
0.12698,0.128772,0.00630331,0.0373995,-0.0292702,-1.67545,-0.0777241,0.141204,-0.289778
0.132668,0.130627,-0.0257922,0.561254,0.153356,-1.43637,-0.135547,0.165168,-0.179128
0.139377,0.142567,-0.054667,0.972735,0.0900486,-1.23173,-0.14713,0.140117,-0.0677638
0.143635,0.160869,-0.0815661,1.17112,-0.078114,-1.15027,-0.157498,0.103184,0.0573528
0.144734,0.180817,-0.108684,1.13924,-0.280561,-1.22366,-0.162264,0.0730679,0.158821
0.142561,0.19727,-0.138451,0.857814,-0.484758,-1.43451,-0.152858,0.0416197,0.216126
0.138461,0.205231,-0.171952,0.376115,-0.555064,-1.68191,-0.15061,0.0373051,0.241663
0.138461,0.205231,-0.171952,0.376115,-0.555064,-1.68191,-0.15061,0.0373051,0.241663
0.135996,0.20411,-0.208525,0.0453407,-0.401256,-1.83281,-0.134136,0.0313703,0.257096
0.13767,0.198892,-0.245907,-0.043525,-0.181479,-1.82474,-0.105478,0.0310639,0.250537
0.142111,0.192733,-0.281474,-0.0710917,-0.0912647,-1.67941,-0.0641819,0.00460616,0.22954
0.145491,0.187026,-0.313301,-0.0378997,-0.200448,-1.48327,-0.0285284,-0.0250148,0.202207
0.14432,0.182444,-0.341544,-0.020843,-0.441759,-1.32851,0.00132892,-0.0589991,0.17571
0.137804,0.177948,-0.367307,-0.0780943,-0.647028,-1.2395,0.0268799,-0.0849067,0.150629
0.127904,0.172075,-0.391261,-0.194064,-0.729266,-1.15501,0.0552366,-0.108589,0.112697
0.11704,0.164262,-0.413006,-0.313583,-0.705818,-1.05458,0.0784176,-0.127324,0.0673603
0.106826,0.154901,-0.432269,-0.384339,-0.599822,-0.923872,0.089768,-0.127715,0.00122392
0.0988902,0.145464,-0.448522,-0.371405,-0.431344,-0.758758,0.0934603,-0.115272,-0.0563041
0.0934961,0.137385,-0.461461,-0.295342,-0.289303,-0.585551,0.0922578,-0.117517,-0.109147
0.0898718,0.131621,-0.471352,-0.185421,-0.223181,-0.442224,0.0974878,-0.139358,-0.144029
0.0861042,0.128316,-0.478931,-0.0789125,-0.256014,-0.343303,0.0797482,-0.156139,-0.17782
0.0813609,0.127122,-0.485555,0.0129407,-0.298286,-0.334036,0.0449948,-0.148946,-0.197462
0.0764778,0.128104,-0.492965,0.154604,-0.25456,-0.392202,0.0197274,-0.152138,-0.200012
0.0737319,0.131993,-0.50227,0.267297,-0.151497,-0.504172,0.0131267,-0.142407,-0.170907
0.0731843,0.135898,-0.513981,0.192621,-0.0500765,-0.611613,0.0176735,-0.127246,-0.158234
0.075539,0.137935,-0.527318,0.118536,0.0969913,-0.675978,0.0271477,-0.0979148,-0.141366
0.0805101,0.139708,-0.541024,0.199909,0.202867,-0.639084,0.0347554,-0.0490854,-0.134472
0.0870996,0.145557,-0.553438,0.506135,0.275577,-0.529772,0.0527853,-0.0154938,-0.0800908
0.0938102,0.157415,-0.564637,0.718392,0.178193,-0.473403,0.0807795,0.00255989,-0.00182939
0.0960629,0.16945,-0.575843,0.512844,-0.141597,-0.524881,0.114672,-0.00723268,-0.00240254
0.0932335,0.174364,-0.587636,0.0799278,-0.282474,-0.5689,0.11777,0.0109147,-0.0250707
0.0905702,0.171802,-0.598736,-0.190204,-0.137848,-0.528928,0.0855981,0.0792068,-0.0802835
0.09232,0.166917,-0.607718,-0.174982,0.16542,-0.373335,0.0563396,0.136801,-0.127015
0.099241,0.165055,-0.612603,0.0631796,0.42242,-0.102237,0.0377663,0.154709,-0.142651
0.108727,0.169917,-0.611792,0.417297,0.494853,0.229711,0.0103743,0.147601,-0.102069
0.116278,0.182099,-0.605648,0.70564,0.338914,0.488591,-0.0302658,0.125018,-0.0337954
0.119041,0.199621,-0.596321,0.911397,0.0987829,0.596996,-0.080971,0.0998485,0.0438535
0.116488,0.220331,-0.586861,1.01591,-0.154552,0.537433,-0.125561,0.0917982,0.106312
0.109676,0.24151,-0.579979,0.979351,-0.360563,0.357467,-0.153353,0.0869629,0.153361
0.100554,0.259927,-0.576913,0.799242,-0.45265,0.125527,-0.170651,0.0894988,0.179514
0.0920781,0.274103,-0.578045,0.623264,-0.395269,-0.091554,-0.18048,0.0997694,0.198153
0.0865527,0.28528,-0.582655,0.536892,-0.285123,-0.235417,-0.180607,0.111458,0.211515
0.0836622,0.295352,-0.589391,0.518074,-0.193905,-0.311759,-0.184774,0.126907,0.246887
0.082806,0.304776,-0.597356,0.467704,-0.134343,-0.365127,-0.176846,0.134262,0.29673
0.0833632,0.312234,-0.606408,0.332816,-0.0889937,-0.429509,-0.155092,0.123164,0.341427
0.0849009,0.316301,-0.616513,0.148948,-0.0748408,-0.488164,-0.124233,0.106876,0.377099
0.0869429,0.3166,-0.627272,-0.0179308,-0.043192,-0.51237,-0.0866988,0.0905422,0.399087
0.0898189,0.314402,-0.63753,-0.10806,0.0036103,-0.463424,-0.0466051,0.0629402,0.412236
0.0920047,0.310371,-0.646271,-0.217552,-0.0683745,-0.399502,-0.0145178,0.0389931,0.379467
0.0923412,0.304324,-0.653865,-0.299871,-0.119353,-0.382313,0.00824881,0.0206414,0.34267
0.0919775,0.297379,-0.661684,-0.304913,-0.162659,-0.429149,0.0271889,0.0200204,0.281839
0.090593,0.291594,-0.67065,-0.167449,-0.228442,-0.46323,0.0602156,0.0197335,0.217577
0.0876854,0.288993,-0.679946,-0.0271696,-0.353897,-0.422235,0.095288,0.0227338,0.142334
0.0805949,0.288453,-0.687194,0.0284255,-0.538045,-0.262666,0.141935,-0.0505826,0.0164557
0.0695361,0.2893,-0.691309,0.0897811,-0.693981,-0.136703,0.19151,-0.182431,-0.116794
0.0544629,0.291324,-0.694763,0.0740246,-0.924833,-0.235821,0.130048,-0.163448,-0.240638
0.0544629,0.291324,-0.694763,0.0740246,-0.924833,-0.235821,0.130048,-0.163448,-0.240638
0.0362811,0.287434,-0.70381,-0.486495,-1.06819,-0.671828,-0.0290784,0.0526727,-0.403366
0.0238096,0.272246,-0.720964,-0.875523,-0.539553,-0.947012,-0.0632291,0.0784813,-0.425882
0.0257055,0.256424,-0.738819,-0.567762,0.25711,-0.72551,-0.00650607,0.0321571,-0.413311
0.0388365,0.25008,-0.747911,-0.0547,0.716612,-0.150986,0.0156188,-0.0224006,-0.376214
0.0509852,0.251967,-0.746893,0.187612,0.40393,0.178702,0.00820218,-0.070423,-0.401441
0.0509897,0.255777,-0.743964,0.132775,-0.331826,0.0735591,-0.0553979,-0.0900513,-0.421837
0.0396867,0.255699,-0.744749,-0.147986,-0.716644,-0.137041,-0.148875,-0.091179,-0.38969
0.0280066,0.251448,-0.748341,-0.175872,-0.433572,-0.194516,-0.211281,-0.0901063,-0.317349
0.0273136,0.252174,-0.751818,0.305159,0.311364,-0.131425,-0.199252,-0.112414,-0.149405
0.0404803,0.263377,-0.754107,0.767908,0.868073,-0.0483305,-0.146435,-0.129993,0.0203284
0.059308,0.280532,-0.755195,0.900198,0.902169,0.0181511,-0.0909834,-0.142383,0.139822
0.0748869,0.297968,-0.756054,0.812017,0.587232,0.00340638,-0.0513329,-0.129746,0.23063
0.0830727,0.312451,-0.757585,0.636082,0.19113,-0.030716,-0.0234941,-0.108151,0.276381
0.0847352,0.323843,-0.759427,0.539736,-0.0457084,-0.040905,-0.00200285,-0.0764262,0.283424
0.0844643,0.335189,-0.761404,0.623332,-0.00966233,-0.0479159,0.00681783,-0.0275435,0.275439
0.0864212,0.348905,-0.76371,0.757083,0.143597,-0.0462835,0.00659436,0.0319472,0.242362
0.0917446,0.36539,-0.76592,0.890796,0.279815,-0.00431958,0.0193819,0.0789319,0.215961
0.0977615,0.384463,-0.767158,1.01199,0.253526,0.0733708,0.0226632,0.130371,0.163968
0.101121,0.406241,-0.766969,1.14353,0.0646153,0.159046,0.00190172,0.186679,0.098597
0.0988909,0.431439,-0.765206,1.36159,-0.222147,0.249239,-0.0315163,0.207149,0.0198481
0.091117,0.463561,-0.762473,1.83716,-0.37957,0.293054,-0.0753612,0.212578,-0.0242227
0.0834505,0.50627,-0.760188,2.33437,-0.251582,0.254561,-0.109641,0.192773,0.0106763
0.0804761,0.554169,-0.760603,2.32908,-0.0786219,0.0787183,-0.0913989,0.122734,-0.000131488
0.0825539,0.595491,-0.766424,1.71996,-0.070508,-0.248944,-0.0147236,-0.00790191,-0.0577891
0.0876862,0.620286,-0.779508,0.823551,-0.143195,-0.585708,0.0223831,-0.0683751,-0.125373
0.0961033,0.627714,-0.796713,0.0927827,0.00495958,-0.694245,-0.0184139,-0.0118554,-0.181377
0.10784,0.624414,-0.812717,-0.224231,0.233873,-0.591287,-0.0273549,0.00777876,-0.238558
0.121475,0.618952,-0.823955,-0.174747,0.452183,-0.374972,-0.0247523,-0.0327485,-0.230425
0.134126,0.61539,-0.831286,-0.151788,0.303853,-0.306853,-0.00386108,-0.0826048,-0.190221
0.139459,0.607392,-0.83942,-0.624315,-0.267096,-0.489716,-0.00373203,-0.0731775,-0.181065
0.136039,0.586398,-0.850625,-1.28885,-0.622903,-0.681604,0.00492619,-0.0559345,-0.143552
0.130304,0.555352,-0.861941,-1.58013,-0.506359,-0.630283,0.00882351,-0.0264686,-0.104281
0.126799,0.522999,-0.869155,-1.48361,-0.195673,-0.371631,0.0235469,-0.0147255,-0.0739337
0.12698,0.495909,-0.870349,-1.15811,0.140867,-0.078804,0.0244958,0.0198527,0.0119513
0.12925,0.476297,-0.866384,-0.838294,0.213132,0.166488,0.0394008,0.0435291,0.0950156
0.127812,0.462122,-0.858399,-0.672501,-0.0401472,0.34343,0.0646624,0.0119347,0.158818
0.11816,0.450583,-0.847831,-0.580525,-0.474134,0.436986,0.0558982,-0.00422236,0.190746
0.0992766,0.441877,-0.837216,-0.339573,-0.918703,0.395919,0.0417079,0.00768405,0.172419
0.0756329,0.440112,-0.83013,0.123513,-1.09671,0.207491,0.0316611,0.0507969,0.188784
0.0530104,0.446863,-0.828597,0.499212,-1.0559,-0.0245998,0.0541153,0.0812171,0.206052
0.035073,0.458027,-0.831904,0.569012,-0.851595,-0.208428,0.0877043,0.105449,0.236188
0.0237448,0.467532,-0.838006,0.363115,-0.536388,-0.289483,0.105758,0.118684,0.245169
0.0195424,0.471874,-0.844885,0.0953135,-0.187376,-0.314562,0.0932967,0.127698,0.214782
0.0232518,0.472754,-0.852539,0.0597375,0.207628,-0.368695,0.0607517,0.13602,0.192445
0.0349745,0.475976,-0.861784,0.306438,0.505642,-0.438947,0.031694,0.128906,0.200421
0.0514387,0.484123,-0.872641,0.513149,0.590409,-0.471625,0.0353335,0.0773404,0.227709
0.0672739,0.49399,-0.883948,0.496003,0.443911,-0.470092,0.0371421,0.0183477,0.227791
0.079533,0.501324,-0.895742,0.280255,0.199524,-0.508234,0.0444324,-0.0157969,0.204803
0.079533,0.501324,-0.895742,0.280255,0.199524,-0.508234,0.0444324,-0.0157969,0.204803
0.0869134,0.503398,-0.907744,0.0253263,-0.0142505,-0.511114,0.0713792,-0.098024,0.111045
0.0911418,0.501308,-0.919106,-0.13069,-0.105196,-0.493971,0.0754109,-0.171817,0.00106168
0.0936935,0.496795,-0.930773,-0.208037,-0.188506,-0.594868,0.0621622,-0.189314,-0.128434
0.0984409,0.491433,-0.946353,-0.181082,-0.0326432,-0.818179,-0.010464,-0.0996279,-0.178641
0.10978,0.486288,-0.965931,-0.15124,0.245527,-0.899911,-0.0429194,-0.000120938,-0.166964
0.125179,0.481824,-0.983304,-0.0961127,0.459735,-0.609633,-0.00680172,-0.010786,-0.119669
0.138628,0.480188,-0.991457,0.0286852,0.452404,-0.130583,0.0769669,-0.142776,-0.0959197
0.143488,0.480032,-0.990837,-0.142866,-0.0166045,0.117158,0.118771,-0.254196,-0.159916
0.135872,0.471534,-0.988635,-0.729812,-0.581826,-0.105193,0.0290012,-0.213059,-0.246809
0.124451,0.451897,-0.992526,-1.11177,-0.638844,-0.473476,-0.0736753,-0.13245,-0.250129
0.118748,0.426816,-1.00201,-1.2309,-0.29712,-0.628927,-0.116127,-0.0297052,-0.23458
0.120233,0.40108,-1.0113,-1.18468,0.0476105,-0.472986,-0.0897494,0.00035274,-0.227852
0.124592,0.378902,-1.0151,-0.933593,0.213867,-0.133009,-0.0614094,-0.000186145,-0.195684
0.127795,0.36421,-1.0123,-0.532457,0.181121,0.185997,-0.0436788,-0.0106402,-0.139117
0.1282,0.358552,-1.00592,-0.120713,0.0712924,0.294885,-0.0372451,-0.0231199,-0.0345964
0.125934,0.359414,-0.999995,0.100116,-0.0844628,0.246503,-0.0343389,-0.0254562,0.0612125
0.121677,0.362277,-0.995973,0.109893,-0.182209,0.164181,-0.0131413,-0.0427513,0.160936
0.116956,0.36387,-0.993129,0.0109072,-0.161829,0.127449,0.0070084,-0.0503257,0.23788
0.113777,0.363546,-0.990218,-0.0686875,-0.0506805,0.144249,0.0224892,-0.0462957,0.288889
0.112039,0.361895,-0.986517,-0.125025,-0.000339084,0.178327,0.0307519,-0.0387905,0.289548
0.110382,0.359833,-0.982037,-0.11392,-0.0164945,0.211289,0.0418095,-0.0343566,0.276161
0.107919,0.358791,-0.97692,-0.0293415,-0.0476921,0.255911,0.0477238,-0.0239492,0.248197
0.104472,0.360263,-0.970707,0.118446,-0.0861017,0.339439,0.0455401,-0.00314686,0.212761
0.0998135,0.365081,-0.962979,0.283471,-0.0975064,0.4201,0.0226878,0.0296632,0.168169
0.0948244,0.373075,-0.954102,0.431389,-0.0734468,0.469786,0.0038869,0.0521485,0.113917
0.0910113,0.384089,-0.944844,0.583555,0.0572007,0.492465,-0.0142261,0.0787705,0.0704435
0.0909363,0.398212,-0.93496,0.730074,0.319584,0.543816,-0.020931,0.0690755,0.0422302
0.0957479,0.414131,-0.924619,0.718807,0.525066,0.527508,-0.00603828,0.00375822,-0.00433022
0.102601,0.427454,-0.91572,0.50836,0.482345,0.385714,0.0133921,-0.0584978,-0.091252
0.108009,0.435799,-0.911141,0.274864,0.20786,0.0971348,0.0185945,-0.0420223,-0.145991
0.108603,0.438356,-0.912513,-0.0220504,-0.196535,-0.162024,0.017795,0.0115635,-0.206253
0.10475,0.434386,-0.916849,-0.324029,-0.314413,-0.243694,0.0212411,0.0320752,-0.234883
0.10099,0.425212,-0.920627,-0.523747,-0.186368,-0.16392,0.0468768,0.00681317,-0.258683
0.0993213,0.413832,-0.921493,-0.586441,-0.0482719,-0.0401693,0.0710011,-0.0457248,-0.259351
0.0971955,0.400647,-0.92107,-0.759745,-0.190545,-0.0733469,0.0703102,-0.0462656,-0.250514
0.0915656,0.381902,-0.921795,-1.09333,-0.376925,-0.166734,0.0218085,0.00415546,-0.21448
0.0841799,0.35757,-0.923542,-1.24276,-0.384289,-0.186419,-0.0107998,0.0436485,-0.189721
0.0778187,0.33423,-0.924282,-1.01072,-0.26264,-0.0418984,-0.00176788,0.0242695,-0.147994
0.0727292,0.31865,-0.921314,-0.549892,-0.162755,0.203817,0.00135107,0.0073463,-0.0745189
0.0673531,0.311883,-0.914578,-0.202913,-0.180217,0.352893,0.00918676,-0.0147274,0.00227273
0.0611489,0.309516,-0.907083,-0.118668,-0.197543,0.321213,0.0113578,-0.0162795,0.088732
0.0560043,0.30629,-0.901255,-0.270553,-0.125027,0.208747,0.0161949,-0.0114196,0.166136
0.0535209,0.29862,-0.897258,-0.49169,0.00585239,0.147089,0.0264325,0.00503245,0.207778
0.0541489,0.288619,-0.893345,-0.475838,0.153715,0.188392,0.0437277,0.0197051,0.222553
0.0562944,0.281802,-0.887811,-0.190616,0.188136,0.303666,0.0369122,0.0466421,0.221287
0.0570782,0.282635,-0.88044,0.24745,0.0694709,0.388047,0.010249,0.0656153,0.226613
0.0540324,0.292368,-0.873245,0.665368,-0.173311,0.326887,-0.0235009,0.0715455,0.233892
0.0474407,0.308836,-0.869133,0.914002,-0.329543,0.12978,-0.049345,0.0794016,0.255937
0.0474407,0.308836,-0.869133,0.914002,-0.329543,0.12978,-0.049345,0.0794016,0.255937
0.0412924,0.327387,-0.869941,0.8951,-0.269643,-0.124814,-0.0669965,0.104315,0.262775
0.0406273,0.34347,-0.875544,0.711083,0.046181,-0.321893,-0.0775658,0.12765,0.26749
0.047836,0.354926,-0.884163,0.478327,0.371079,-0.406868,-0.0599285,0.130419,0.188095
0.0608587,0.363351,-0.892947,0.426668,0.574956,-0.355992,-0.035488,0.0399639,0.102323
0.074573,0.370902,-0.901193,0.350269,0.438886,-0.369605,-0.0122478,-0.056977,-0.0436121
0.083379,0.375932,-0.911011,0.220627,0.0690992,-0.539735,-0.0293251,-0.127489,-0.173896
0.0874271,0.377344,-0.92651,0.010137,-0.205472,-0.876194,-0.0844688,-0.0830248,-0.207312
0.0894068,0.371912,-0.947114,-0.387696,-0.331017,-1.00328,-0.101891,-0.03002,-0.220097
0.0886158,0.359867,-0.964607,-0.601584,-0.35135,-0.661129,-0.0627504,-0.0984881,-0.249308
0.0847561,0.348449,-0.972362,-0.415579,-0.304888,-0.169674,-0.0591663,-0.143819,-0.242624
0.0777335,0.34342,-0.971924,-0.0991559,-0.413176,0.122223,-0.0733498,-0.168799,-0.207124
0.0662929,0.343409,-0.968463,0.0274468,-0.612763,0.171786,-0.114928,-0.157289,-0.158982
0.050696,0.342798,-0.965346,-0.130525,-0.820188,0.111587,-0.142407,-0.148144,-0.126729
0.0330223,0.338737,-0.963957,-0.2459,-0.852701,-0.0144138,-0.154538,-0.149805,-0.100048
0.0176936,0.334177,-0.966225,-0.18422,-0.729947,-0.209978,-0.139685,-0.116772,-0.0821242
0.00752715,0.331758,-0.972472,-0.0486871,-0.460389,-0.382263,-0.121497,-0.0703213,-0.0491386
0.00454495,0.331681,-0.982132,0.023405,-0.152537,-0.509872,-0.0700017,-0.021962,0.00705564
0.00761631,0.331612,-0.993256,-0.0396408,0.087019,-0.518298,-0.0322105,0.0294862,0.0582538
0.0145326,0.329785,-1.00356,-0.120444,0.257873,-0.43447,0.00953582,0.054781,0.105116
0.0229282,0.326998,-1.01112,-0.122914,0.312909,-0.269589,0.044054,0.0584905,0.122528
0.0301256,0.325412,-1.01477,-0.00751306,0.273749,-0.0852506,0.0487912,0.0584531,0.136176
0.0346581,0.326753,-1.01528,0.1393,0.156984,0.0277659,0.0397834,0.0567182,0.121402
0.0365263,0.330738,-1.01436,0.241342,0.0766131,0.0564279,0.0137702,0.0605201,0.0991332
0.0381227,0.33617,-1.01372,0.292179,0.128333,0.0211249,-0.00512693,0.0684758,0.0741679
0.042699,0.342465,-1.01371,0.340706,0.350565,0.0266737,-0.0161595,0.0905553,0.0661781
0.0521845,0.350561,-1.01212,0.482662,0.642127,0.18537,-0.0252001,0.091395,0.0686086
0.0650764,0.363036,-1.00658,0.722277,0.792023,0.393789,-0.0293894,0.0553094,0.0723705
0.0769637,0.379264,-0.998748,0.788958,0.631388,0.401402,-0.0248542,-0.0181454,0.0311071
0.0837758,0.394217,-0.993462,0.638413,0.223815,0.17212,-0.0192915,-0.0586025,-0.0449675
0.0848266,0.405448,-0.99382,0.483192,-0.0968692,-0.0979909,-0.0157832,-0.0475859,-0.0729801
0.0837706,0.413178,-0.998268,0.313957,-0.144338,-0.213662,-0.0206625,0.0025501,-0.0811976
0.0839184,0.41759,-1.00298,0.170248,-0.0307979,-0.158704,-0.00262746,0.00852513,-0.0690061
0.0845131,0.419244,-1.00543,-0.0162453,-0.0439141,-0.0655825,0.017777,-0.0182685,-0.0648692
0.0820601,0.414918,-1.00684,-0.42836,-0.265504,-0.121504,0.0321036,-0.0538707,-0.0978178
0.0765541,0.401609,-1.00992,-0.854633,-0.376922,-0.270118,0.0249579,-0.0632477,-0.093264
0.0710236,0.380547,-1.01565,-1.18784,-0.383856,-0.393179,0.00167853,-0.0117501,-0.100658
0.065117,0.354022,-1.02226,-1.35588,-0.45508,-0.385081,0.00692692,0.018579,-0.138511
0.0575627,0.328292,-1.02781,-1.0915,-0.448171,-0.27846,0.0226899,0.0257809,-0.13789
0.0516135,0.311778,-1.03082,-0.52896,-0.226617,-0.0918389,0.0269921,0.0237469,-0.0518278
0.0487236,0.30572,-1.03047,-0.116345,-0.0754903,0.0844938,0.038347,0.00672892,0.0330806
0.046832,0.305535,-1.02763,0.0516006,-0.0331845,0.173612,0.0524449,-0.0110714,0.129582
0.0452389,0.306772,-1.02359,0.0529231,0.00261157,0.209508,0.0426727,-0.00777048,0.201209
0.0446212,0.308803,-1.01889,0.155249,0.0822678,0.239384,0.0444328,-0.0135104,0.260298
0.0456016,0.314083,-1.01394,0.347639,0.156749,0.250351,0.0359136,-0.00344837,0.299456
0.0474037,0.322659,-1.00945,0.466499,0.146744,0.197192,0.0291864,0.011776,0.306629
0.0493287,0.332321,-1.00709,0.460496,0.126109,0.0583333,0.0286301,0.0243431,0.299439
0.0526323,0.340218,-1.00847,0.314999,0.173325,-0.156859,0.0277847,0.0520309,0.26291
0.0526323,0.340218,-1.00847,0.314999,0.173325,-0.156859,0.0277847,0.0520309,0.26291
0.0591345,0.344392,-1.014,0.136084,0.292716,-0.321516,0.0509528,0.0687035,0.194
0.0690551,0.345778,-1.0216,0.0623686,0.439242,-0.365774,0.0645698,0.0814976,0.105974
0.0819147,0.34677,-1.02912,0.102809,0.570467,-0.321612,0.07179,0.0585962,0.0111898
0.0964876,0.349755,-1.03572,0.257577,0.647803,-0.273281,0.0788671,0.00773758,-0.0701927
0.111763,0.355408,-1.04192,0.315841,0.620705,-0.251015,0.0889055,-0.0857581,-0.0979161
0.124852,0.358608,-1.04845,-0.00606401,0.437614,-0.335668,0.0654004,-0.0843466,-0.0749309
0.134148,0.350202,-1.05547,-0.768294,0.276903,-0.385711,0.0165686,-0.00771201,-0.0617046
0.141193,0.328049,-1.05839,-1.27926,0.338069,-0.145214,0.038212,-0.0226674,-0.0666083
0.145851,0.302159,-1.05355,-1.28803,0.226419,0.224568,0.0917186,-0.0712844,-0.142934
0.143298,0.278013,-1.04228,-1.25489,-0.174613,0.45744,0.0869485,-0.0783378,-0.251073
0.133657,0.254634,-1.02854,-1.24211,-0.371606,0.49884,-0.0140032,-0.0152601,-0.252835
0.123038,0.22998,-1.01478,-1.38787,-0.348043,0.523982,-0.111196,0.0582036,-0.255796
0.113466,0.202067,-0.998899,-1.51606,-0.260036,0.68342,-0.168032,0.0195575,-0.292759
0.105141,0.174657,-0.980967,-1.31156,-0.254744,0.732569,-0.178669,-0.000744075,-0.33953
0.0975488,0.155883,-0.964772,-0.652801,-0.207126,0.644103,-0.17652,0.00515158,-0.298926
0.0934467,0.151011,-0.952581,0.0128344,-0.00720525,0.502954,-0.156198,0.00181748,-0.175347
0.0937405,0.155478,-0.944387,0.291048,0.141722,0.332922,-0.119452,-0.0267272,-0.0559201
0.0970981,0.161609,-0.940442,0.230195,0.249875,0.110224,-0.0853828,-0.0440951,0.0536555
0.103435,0.163918,-0.940708,-0.00875753,0.394299,-0.110596,-0.0594316,-0.0643391,0.105621
0.114351,0.161352,-0.944792,-0.160528,0.634685,-0.308242,-0.0560704,-0.0562047,0.103429
0.131715,0.158379,-0.952144,-0.00336136,1.00086,-0.427674,-0.053138,-0.048093,0.0970032
0.156668,0.15946,-0.961582,0.2266,1.30223,-0.46715,-0.0498307,-0.0443246,0.115724
0.185461,0.163043,-0.972126,0.266453,1.34526,-0.487558,-0.0268026,-0.0683758,0.13185
0.212493,0.16557,-0.982651,0.178123,1.14846,-0.464146,-0.00920661,-0.0913958,0.143019
0.23456,0.167012,-0.991629,0.180361,0.902811,-0.347721,-0.00306162,-0.0919425,0.165627
0.251368,0.170691,-0.9979,0.321096,0.649206,-0.154634,-0.00727561,-0.0797703,0.184203
0.260915,0.177771,-1.00104,0.431465,0.236601,0.0342349,-0.00513506,-0.0560737,0.142151
0.262059,0.188012,-1.00119,0.558499,-0.0932965,0.212622,-0.00757173,-0.0286701,0.113129
0.258186,0.200714,-0.998544,0.544418,-0.232343,0.353213,-0.0205867,0.00141662,0.0980795
0.250452,0.209785,-0.992874,0.133979,-0.430385,0.397832,-0.00762138,0.0395793,0.026677
0.238398,0.210044,-0.983482,-0.282892,-0.557556,0.525801,0.0163736,0.0456615,0.00419384
0.223622,0.205827,-0.969214,-0.425408,-0.610017,0.70719,0.0361224,0.00779793,-0.0287426
0.209193,0.201296,-0.954102,-0.214547,-0.437315,0.576547,0.0530987,-0.025616,-0.252155
0.206396,0.206296,-0.946526,0.562992,0.392088,0.232416,-0.00725964,0.085344,-0.243424
0.222405,0.222248,-0.947884,0.900265,1.09499,0.0274282,0.0073221,0.16218,-0.212454
0.248455,0.237769,-0.950411,0.587176,1.38239,0.123309,0.0891065,0.0738377,-0.148736
0.275989,0.245633,-0.94765,0.106788,1.39175,0.345253,0.14309,-0.0259799,-0.108518
0.299415,0.24675,-0.938444,-0.215348,1.10614,0.509675,0.173094,-0.132165,-0.100623
0.311256,0.243973,-0.927473,-0.359061,0.237508,0.334537,0.154445,-0.176378,-0.134515
0.304067,0.235547,-0.923191,-0.599647,-0.78213,-0.2064,0.0565207,-0.0356379,-0.141372
0.284571,0.218772,-0.926499,-0.882462,-1.09948,-0.50792,0.0551233,-0.00925684,-0.0890498
0.266122,0.198533,-0.929697,-0.925244,-0.736253,-0.254894,0.118029,-0.0803872,-0.0226287
0.255982,0.182521,-0.92483,-0.697969,-0.196301,0.328483,0.10947,-0.0885709,0.0153868
0.252026,0.175884,-0.910319,-0.2812,-0.0234657,0.828836,0.0811863,-0.110239,0.0243
0.246162,0.179465,-0.891629,0.177517,-0.262958,0.987152,0.0525271,-0.1271,0.0546505
0.235028,0.191614,-0.8741,0.567578,-0.497439,0.941118,-0.00303784,-0.100343,0.132001
0.221779,0.208708,-0.859728,0.725048,-0.494985,0.799041,-0.0378544,-0.0556667,0.21418
0.211575,0.225735,-0.848533,0.681944,-0.254654,0.624399,-0.0548764,-0.0174952,0.26584
0.211575,0.225735,-0.848533,0.681944,-0.254654,0.624399,-0.0548764,-0.0174952,0.26584
0.208081,0.241258,-0.840763,0.697511,0.0966627,0.423548,-0.0612564,0.0202502,0.278812
0.212292,0.257498,-0.837726,0.830567,0.378091,0.198204,-0.0577581,0.0638199,0.266747
0.222769,0.275753,-0.84002,0.984405,0.586967,-0.0179651,-0.0522297,0.108667,0.269071
0.237556,0.295002,-0.847569,1.01613,0.656377,-0.251717,-0.054661,0.152894,0.247924
0.254367,0.312093,-0.85947,0.891081,0.647729,-0.404202,-0.0474912,0.171447,0.210743
0.271365,0.326142,-0.872476,0.797603,0.652983,-0.399367,-0.0550491,0.176195,0.149177
0.28928,0.339862,-0.884878,0.854289,0.723594,-0.349118,-0.0641113,0.156813,0.0957961
0.307699,0.355046,-0.897781,0.94096,0.643202,-0.373075,-0.076869,0.112358,0.0488052
0.324072,0.370914,-0.912838,0.975803,0.442675,-0.480406,-0.0913462,0.0785621,0.0615682
0.337074,0.384531,-0.930934,0.786187,0.183594,-0.680882,-0.111584,0.104235,0.103234
0.345867,0.388291,-0.95043,0.100358,-0.0118998,-0.850008,-0.0980164,0.120535,0.131825
0.350722,0.377522,-0.96446,-0.611018,-0.0103971,-0.685601,-0.052704,0.025066,0.125144
0.35182,0.359044,-0.969194,-0.919652,-0.0940299,-0.365491,0.00517213,-0.0885473,0.0552016
0.345099,0.337005,-0.967763,-1.22893,-0.639309,-0.353473,-0.0314952,-0.120113,-0.0858914
0.322869,0.304198,-0.969088,-1.84694,-1.62692,-0.848959,-0.105349,-0.0285209,-0.291973
0.284991,0.257709,-0.975331,-2.29672,-2.17482,-1.03103,-0.168532,0.00372142,-0.455633
0.245418,0.210303,-0.982009,-1.93816,-1.74884,-0.769002,-0.177886,0.0570689,-0.509588
0.221933,0.18009,-0.985466,-0.840313,-0.612161,-0.230939,-0.191395,0.069331,-0.409229
0.220072,0.174941,-0.982956,0.199011,0.354484,0.333453,-0.197634,0.0597308,-0.194485
0.228462,0.18579,-0.975559,0.603462,0.49762,0.552604,-0.133394,-0.0286256,-0.0695407
0.234023,0.200124,-0.968347,0.565596,0.135883,0.41078,-0.116959,-0.119874,0.0713999
0.231425,0.209739,-0.965426,0.292186,-0.312194,0.069562,-0.140232,-0.163759,0.173644
0.222576,0.212352,-0.968519,0.0511964,-0.607968,-0.299403,-0.160639,-0.1728,0.210214
0.210986,0.210719,-0.978014,0.0254026,-0.713327,-0.631933,-0.151844,-0.158314,0.175389
0.200571,0.209298,-0.993863,0.160535,-0.634173,-0.897287,-0.11665,-0.149847,0.11851
0.19346,0.210142,-1.01509,0.329384,-0.494592,-1.10103,-0.0630105,-0.149693,0.0401248
0.190727,0.21348,-1.0404,0.451781,-0.305257,-1.24427,-0.0188726,-0.135489,-0.022249
0.192645,0.218138,-1.06811,0.504742,-0.0904838,-1.2914,0.0219589,-0.11594,-0.0739236
0.198459,0.223676,-1.09555,0.570429,0.0778449,-1.18693,0.0445388,-0.0651414,-0.140364
0.208943,0.233098,-1.11959,0.855882,0.454787,-0.865045,0.0590933,-0.0360822,-0.137744
0.224996,0.250315,-1.13752,1.1425,0.626627,-0.48141,0.0928102,-0.0993211,-0.191099
0.237617,0.270379,-1.15052,1.0415,0.242261,-0.311679,0.0780959,-0.109826,-0.309578
0.240539,0.287842,-1.16209,0.939394,-0.24286,-0.394265,-0.0165268,-0.0365819,-0.360968
0.237047,0.30418,-1.1776,1.00775,-0.528736,-0.662211,-0.0711904,0.0422018,-0.384874
0.231446,0.321336,-1.19867,1.10735,-0.636229,-0.85855,-0.0871965,0.0768663,-0.375557
0.226762,0.339248,-1.22229,1.11611,-0.568352,-0.877125,-0.0933574,0.0916436,-0.320531
0.223771,0.355964,-1.2455,0.943234,-0.538069,-0.892,-0.0944261,0.0813885,-0.244368
0.220603,0.365904,-1.26921,0.45867,-0.614545,-1.0734,-0.108278,0.0766504,-0.211556
0.217242,0.364012,-1.29537,-0.0929711,-0.626472,-1.33412,-0.114714,0.0938955,-0.196207
0.215248,0.353462,-1.3235,-0.322558,-0.536734,-1.40943,-0.0944592,0.114657,-0.17339
0.21383,0.341781,-1.35,-0.260379,-0.511134,-1.238,-0.0554294,0.108267,-0.147093
0.209794,0.333734,-1.37227,-0.08639,-0.626865,-0.986108,-0.0499175,0.0981876,-0.110742
0.201545,0.329866,-1.39096,0.0529716,-0.778016,-0.839515,-0.0680371,0.0852991,-0.059484
0.191104,0.328741,-1.40858,0.159147,-0.783909,-0.834673,-0.099815,0.0688387,0.0134329
0.182595,0.330026,-1.42754,0.295535,-0.65246,-0.905122,-0.115524,0.066865,0.100198
0.177323,0.3335,-1.44836,0.380777,-0.544652,-0.956056,-0.11324,0.0742242,0.161775
0.173994,0.338049,-1.47015,0.423671,-0.505748,-0.984002,-0.10288,0.0837985,0.200491
0.171269,0.343221,-1.493,0.448708,-0.529091,-1.04686,-0.0847631,0.0885819,0.215511
0.171269,0.343221,-1.493,0.448708,-0.529091,-1.04686,-0.0847631,0.0885819,0.215511
0.168742,0.348195,-1.51768,0.425819,-0.55061,-1.15732,-0.0605288,0.0875238,0.20705
0.166474,0.35157,-1.54517,0.320576,-0.633462,-1.33042,-0.0419531,0.0997892,0.164181
0.163097,0.351569,-1.57627,0.153913,-0.755824,-1.53476,-0.0272601,0.123379,0.0855234
0.159175,0.347647,-1.61059,-0.00257827,-0.77968,-1.67614,-0.0170789,0.150455,-0.0168073
0.157804,0.343149,-1.64637,0.159183,-0.518295,-1.68467,-0.00959127,0.155973,-0.0835204
0.163403,0.344852,-1.68275,0.549449,-0.149878,-1.65619,-0.0160145,0.176315,-0.0989074
0.174609,0.351802,-1.72016,0.63631,-0.0707839,-1.70003,-0.00959519,0.146287,-0.0979972
0.185572,0.355665,-1.75944,0.377974,-0.197475,-1.83261,-0.0156129,0.119484,-0.0844778
0.194508,0.354059,-1.80019,0.226916,-0.321819,-1.91245,-0.0354519,0.106306,-0.0652643
0.200943,0.351956,-1.84084,0.335789,-0.449138,-1.82651,-0.0463675,0.0485,-0.0501124
0.202314,0.352105,-1.88001,0.376127,-0.819293,-1.78926,-0.0661418,-0.0103044,-0.0851038
0.194593,0.349795,-1.92146,0.106051,-1.3431,-2.10174,-0.157366,0.0801167,-0.162608
0.181509,0.338794,-1.9693,-0.328173,-1.46303,-2.46876,-0.159206,0.096418,-0.223445
0.172997,0.321189,-2.02035,-0.498537,-0.980918,-2.50054,-0.136813,0.126318,-0.222438
0.173583,0.304064,-2.06742,-0.37534,-0.414566,-2.13688,-0.1011,0.127952,-0.234313
0.179171,0.292455,-2.10571,-0.120229,-0.233201,-1.66395,-0.0862809,0.116825,-0.225697
0.180779,0.286971,-2.13654,0.0933774,-0.530245,-1.36448,-0.0906258,0.0788399,-0.191244
0.173545,0.285741,-2.16403,0.237598,-0.930467,-1.26813,-0.124185,0.0446092,-0.128705
0.160547,0.287254,-2.19104,0.318547,-1.05497,-1.25314,-0.143817,0.0237374,-0.0289546
0.148016,0.289715,-2.21741,0.287564,-0.908707,-1.198,-0.152301,0.00282645,0.0730299
0.138648,0.291213,-2.24253,0.203082,-0.73977,-1.15606,-0.13443,-0.0163377,0.13802
0.131649,0.291358,-2.26703,0.120515,-0.680071,-1.16845,-0.111317,-0.0306177,0.174267
0.124936,0.289721,-2.29241,0.0117862,-0.714218,-1.25894,-0.0805994,-0.0406089,0.181994
0.117635,0.284935,-2.3198,-0.179185,-0.783871,-1.38997,-0.0548315,-0.037341,0.145278
0.110039,0.276077,-2.34924,-0.367063,-0.773221,-1.49404,-0.0294871,-0.0151214,0.0853109
0.103512,0.264676,-2.37956,-0.41777,-0.651616,-1.49774,-0.00404096,0.00202924,0.0132796
0.0999184,0.254773,-2.40869,-0.238293,-0.44312,-1.37452,0.0159861,0.0158195,-0.0519682
0.0993644,0.250933,-2.43486,0.113853,-0.276313,-1.17054,0.0181638,0.0215316,-0.0818732
0.0997242,0.254029,-2.45778,0.380656,-0.289649,-1.0222,0.0143844,0.00174791,-0.093801
0.0976575,0.259839,-2.47973,0.344505,-0.482594,-1.05569,0.0019469,-0.0218988,-0.0934102
0.0926547,0.262038,-2.50367,0.0944527,-0.558284,-1.21046,-0.0321738,0.015184,-0.0966591
0.0914507,0.260604,-2.52965,0.0266404,-0.188266,-1.26773,-0.0304241,0.0155072,-0.0435098
0.0985095,0.259773,-2.55544,0.133704,0.191738,-1.18344,-0.00427587,0.0168556,-0.000532687
0.108522,0.260887,-2.57891,0.182354,0.131521,-1.0621,0.0319525,-0.0111354,0.0164318
0.113629,0.261007,-2.60092,0.0452803,-0.193128,-1.06325,0.0392597,-0.0141024,0.0176701
0.113208,0.25775,-2.6237,-0.10669,-0.381389,-1.15805,0.0315432,0.00574431,0.0116187
0.112535,0.252299,-2.64788,-0.160899,-0.24889,-1.20007,0.0338819,0.0368471,0.013867
0.116138,0.246961,-2.67135,-0.0847079,0.0490233,-1.09522,0.0400892,0.0572027,0.0265737
0.1246,0.244734,-2.6916,0.0974725,0.268362,-0.842762,0.0507358,0.0531656,0.0477938
0.133888,0.246407,-2.70656,0.225153,0.236988,-0.585671,0.0695029,0.0256436,0.0635939
0.138595,0.249546,-2.71798,0.219584,-0.0734104,-0.494136,0.0706564,-0.00671349,0.0356148
0.13628,0.252294,-2.72938,0.21092,-0.430433,-0.582857,0.0470928,-0.01249,0.00831449
0.128379,0.254654,-2.74381,0.192454,-0.689859,-0.775819,0.0206034,0.0112792,-0.0183778
0.118013,0.255125,-2.76251,0.0508365,-0.782614,-1.00804,-0.00119609,0.0437177,-0.0497034
0.10912,0.251518,-2.78566,-0.154811,-0.62353,-1.22605,0.00388242,0.0657538,-0.0744868
0.106254,0.244297,-2.81148,-0.278632,-0.300333,-1.30227,0.00961331,0.0665049,-0.0648581
0.109211,0.235662,-2.83726,-0.290714,-0.0154041,-1.25291,0.018332,0.0596279,-0.0377817
0.116755,0.227986,-2.86137,-0.198212,0.196818,-1.14752,0.0183455,0.0417512,0.0097127
0.116755,0.227986,-2.86137,-0.198212,0.196818,-1.14752,0.0183455,0.0417512,0.0097127
0.12651,0.222546,-2.88334,-0.0837963,0.26402,-1.03301,0.0359812,0.0150857,0.0554195
0.135841,0.219167,-2.90317,-0.00793724,0.208564,-0.920569,0.0437499,-0.0137692,0.0944522
0.14258,0.216919,-2.92107,0.0155519,0.0724277,-0.842289,0.0518151,-0.0391119,0.108654
0.146065,0.214727,-2.93811,0.00449712,-0.0978335,-0.841914,0.0480277,-0.0450523,0.0935075
0.145934,0.212417,-2.95596,0.0346786,-0.288441,-0.922122,0.0433685,-0.0402597,0.0634776
0.142626,0.211239,-2.97614,0.133451,-0.454148,-1.04097,0.0489589,-0.0252374,0.0319153
0.137573,0.21192,-2.99887,0.235669,-0.49203,-1.13253,0.0469737,-0.0100609,0.0138632
0.133785,0.21425,-3.02318,0.306383,-0.378204,-1.17149,0.050663,0.00723171,0.00316399
0.133054,0.217488,-3.04803,0.322014,-0.232732,-1.17915,0.0567429,0.0124694,-0.00409639
0.134681,0.220465,-3.07309,0.299096,-0.164531,-1.1945,0.0611751,0.0214633,-0.0225732
0.13724,0.222988,-3.09848,0.288617,-0.132481,-1.21256,0.0685884,0.0117023,-0.0363092
0.140203,0.225013,-3.1245,0.23588,-0.183626,-1.28716,0.0717866,0.00793964,-0.050292
0.141884,0.224128,3.12993,0.0622569,-0.241138,-1.47731,0.0584026,0.066723,-0.0800664
0.145713,0.219833,3.09916,-0.0507144,-0.0427392,-1.50735,0.0442861,0.0516997,-0.0463254
0.152495,0.213798,3.06952,-0.11078,0.0552726,-1.417,0.0478736,0.0679465,-0.0565083
0.158916,0.20736,3.04269,-0.102829,0.0126217,-1.25745,0.0405305,0.0573172,-0.0695804
0.163384,0.202741,3.01886,0.0457988,-0.0395886,-1.11462,0.0179502,0.0578764,-0.0630063
0.166931,0.202602,2.99701,0.289225,-0.0456608,-0.986306,-0.00800374,0.0571603,-0.0190553
0.169454,0.207079,2.97719,0.452707,-0.116962,-0.845692,-0.0171533,0.03977,0.0160864
0.169779,0.214024,2.95969,0.498744,-0.222328,-0.722179,-0.0264223,0.0328896,0.0462031
0.16802,0.221614,2.94417,0.493365,-0.275191,-0.645652,-0.0429474,0.0367754,0.0684956
0.165867,0.228928,2.92963,0.449461,-0.263018,-0.635647,-0.0584748,0.037297,0.0819123
0.164384,0.234991,2.91493,0.367254,-0.223062,-0.680543,-0.0608344,0.0378267,0.0854745
0.163607,0.238574,2.89901,0.223433,-0.232729,-0.786576,-0.0548102,0.0348558,0.065756
0.162507,0.238642,2.88113,0.0706743,-0.290316,-0.917016,-0.0579493,0.0477084,0.0276752
0.161082,0.236285,2.86127,0.0172216,-0.32064,-1.0073,-0.0536655,0.0580213,-0.00622249
0.159277,0.233363,2.84022,0.0311849,-0.330901,-1.04143,-0.0543903,0.0811199,-0.0536417
0.158384,0.231335,2.81892,0.103614,-0.231067,-1.0143,-0.0457334,0.0930011,-0.0626105
0.160243,0.231306,2.79865,0.203737,-0.039833,-0.916846,-0.0330856,0.0768141,-0.0382175
0.165108,0.233044,2.78028,0.234861,0.0818216,-0.817537,-0.0186957,0.0470413,-0.0046193
0.171039,0.234308,2.76343,0.147328,0.101652,-0.778589,-0.00407138,0.00751449,0.0184496
0.176423,0.233365,2.74718,0.0359572,0.0617357,-0.794967,0.00505981,-0.0226083,0.0288984
0.181219,0.23046,2.73057,-0.0276682,0.0262746,-0.835588,0.0139132,-0.0432874,0.0396808
0.18491,0.226348,2.71357,-0.068703,-0.0446577,-0.849024,0.0191811,-0.0433105,0.0366613
0.187192,0.221432,2.69673,-0.113297,-0.103443,-0.840209,0.0229872,-0.0342028,0.030822
0.188157,0.215591,2.68093,-0.169381,-0.13595,-0.766878,0.0290429,-0.0271334,0.00653011
0.188006,0.20937,2.66734,-0.177703,-0.163849,-0.646094,0.0247774,-0.0143551,-0.0264856
0.187068,0.204267,2.6561,-0.112784,-0.160389,-0.528162,0.00845473,-0.00151139,-0.0418103
0.185654,0.201006,2.64667,-0.0313217,-0.163823,-0.438713,-0.00352016,0.00417517,-0.0567476
0.183603,0.199822,2.63857,0.0591614,-0.206685,-0.357124,-0.0111088,0.00365537,-0.0546666
0.180387,0.200613,2.63171,0.133697,-0.246025,-0.28871,-0.0176399,-0.0019021,-0.0393125
0.176475,0.202839,2.62585,0.173617,-0.258623,-0.240782,-0.0272006,-0.00980727,-0.0228815
0.172151,0.205456,2.62054,0.171209,-0.268432,-0.224648,-0.0310567,-0.0137903,-0.0173903
0.168111,0.207982,2.61556,0.154271,-0.2293,-0.203166,-0.0327177,-0.0240134,-0.000325084
0.165004,0.209952,2.61128,0.103864,-0.165217,-0.172026,-0.0375869,-0.0311655,0.0109453
0.163016,0.210797,2.6077,0.0377988,-0.11099,-0.163641,-0.0411487,-0.0364579,0.0122178
0.161752,0.210532,2.60419,-0.00646621,-0.0945843,-0.182581,-0.0416924,-0.0399979,0.00647569
0.160437,0.209702,2.60025,-0.00729227,-0.126377,-0.207567,-0.0414118,-0.0432959,-0.000349462
0.160437,0.209702,2.60025,-0.00729227,-0.126377,-0.207567,-0.0414118,-0.0432959,-0.000349462
0.158505,0.209007,2.59564,0.00729025,-0.16524,-0.244009,-0.0357699,-0.0403446,0.000535786
0.155607,0.208394,2.59046,0.00957221,-0.228648,-0.259174,-0.0311431,-0.0368242,-0.00422066
0.151595,0.207758,2.58524,0.00263983,-0.275059,-0.250277,-0.0251781,-0.0331132,-0.00242209
0.146469,0.207116,2.58043,0.00511343,-0.344746,-0.21561,-0.0134627,-0.0294533,-0.00948125
0.139683,0.20717,2.57642,0.0616851,-0.393073,-0.165498,-0.00156306,-0.0294314,-0.0178073
0.133107,0.20863,2.57344,0.119757,-0.309426,-0.103695,-0.0120081,-0.0276066,-0.00583255
0.128597,0.210871,2.57142,0.12029,-0.185529,-0.0630478,-0.0155236,-0.0293513,0.00335932
0.126002,0.212689,2.57003,0.0752561,-0.111721,-0.0516684,-0.0178107,-0.0364232,0.00011313
0.124513,0.21372,2.56868,0.047853,-0.0719848,-0.0687232,-0.0230386,-0.0384066,0.00241315
0.123311,0.214484,2.56679,0.0513378,-0.0946606,-0.106473,-0.0248286,-0.0388352,-0.00025779
0.121501,0.215651,2.56391,0.0966298,-0.143387,-0.157897,-0.0226612,-0.0341393,-0.00736922
0.119281,0.218149,2.55992,0.145322,-0.134677,-0.203742,-0.0236033,-0.0278395,0.00151277
0.117775,0.221235,2.55511,0.155124,-0.0960593,-0.229474,-0.0169982,-0.0268882,0.0079006
0.117039,0.223987,2.55001,0.131029,-0.0617269,-0.238087,-0.00965296,-0.0256378,0.0132253
0.117077,0.226061,2.54489,0.0979335,-0.0251598,-0.244084,-0.0121379,-0.0187643,0.015035
0.117748,0.227598,2.53954,0.0857757,0.000223606,-0.264323,-0.00926721,-0.012338,0.013898
0.118749,0.228863,2.53376,0.0713015,-0.00290412,-0.282938,-0.00473923,-0.00709261,0.0119729
0.119828,0.229528,2.52776,0.0501536,-0.0136729,-0.288291,-0.00133964,-0.00459912,0.0151616
0.121076,0.22947,2.52198,0.0107309,0.00754472,-0.263255,0.00111407,-0.00145055,0.0251909
0.122309,0.228684,2.51694,-0.0225521,0.00281559,-0.23358,0.00388286,-0.00517641,0.0188899
0.123358,0.227598,2.51252,-0.0335274,-0.0118293,-0.203545,0.00676101,-0.00983581,0.0188866
0.123524,0.226374,2.50882,-0.0445437,-0.0529761,-0.16626,0.0086261,-0.0149958,0.0132806
0.12289,0.225282,2.5059,-0.0375114,-0.0714349,-0.132885,0.00444858,-0.0196609,0.0171392
0.121948,0.22455,2.50348,-0.0183993,-0.081044,-0.113356,0.005218,-0.0294377,0.020816
0.120714,0.224273,2.5011,0.000933312,-0.0949121,-0.12417,0.00785439,-0.0341327,0.0163383
0.11982,0.224154,2.4984,-0.00699036,-0.0665982,-0.13789,0.00517631,-0.0356071,0.026952
0.11914,0.223508,2.49534,-0.0459008,-0.0817984,-0.16895,0.0138742,-0.0386786,0.0111975
0.11845,0.222592,2.49174,-0.0438464,-0.0795443,-0.19465,0.0158765,-0.0357874,0.010334
0.117885,0.221906,2.48751,-0.0255372,-0.0740281,-0.223452,0.0177642,-0.0249214,-0.00689155
0.118233,0.221864,2.48291,0.0137018,-0.00882719,-0.220839,0.0191652,-0.0158681,-0.000986755
0.119624,0.222447,2.47848,0.0425326,0.0327578,-0.193789,0.0250959,-0.00852425,-0.011102
0.121898,0.223869,2.47475,0.0839836,0.0772496,-0.152314,0.0227036,-0.00553519,-0.00231272
0.124319,0.225834,2.47158,0.112392,0.0723035,-0.130569,0.0221246,-0.00831968,-0.000382185
0.126365,0.228025,2.46855,0.118525,0.0478988,-0.133773,0.0192468,-0.0115558,0.00708866
0.127978,0.229823,2.46535,0.0890497,0.0221973,-0.149664,0.0140174,-0.016122,0.0151213
0.129428,0.23069,2.46182,0.0412875,0.0322439,-0.171378,0.00994152,-0.017338,0.018055
0.131487,0.230792,2.45811,0.0186255,0.0649071,-0.174762,0.0056076,-0.0182452,0.0265296
0.133942,0.230765,2.45458,0.0144346,0.0798007,-0.157407,0.00493167,-0.024268,0.0253191
0.136374,0.230839,2.4515,0.0106212,0.0776992,-0.138922,0.00417526,-0.0291553,0.0323229
0.138655,0.230692,2.44856,-0.0121846,0.0747845,-0.149798,0.00487015,-0.0350053,0.0387962
0.140738,0.229775,2.44541,-0.0546381,0.0599561,-0.168116,0.00925629,-0.0391027,0.0377293
0.142704,0.227935,2.442,-0.0977566,0.0539006,-0.1904,0.0137713,-0.038056,0.0358577
0.144443,0.225521,2.43835,-0.106861,0.0317964,-0.189909,0.0272305,-0.0361974,0.0262802
0.145552,0.223363,2.43509,-0.0836246,0.00636088,-0.150608,0.0337655,-0.0270247,0.0173826
0.14606,0.222041,2.43271,-0.0464356,-0.0135772,-0.0989486,0.0390316,-0.0220279,0.0166537
0.146011,0.221512,2.43133,-0.0294289,-0.0284478,-0.0481919,0.0404199,-0.0203916,0.0172181
0.145624,0.221143,2.43074,-0.0404766,-0.047211,-0.0183596,0.0377449,-0.017471,0.0190163
0.144849,0.220453,2.43063,-0.0538619,-0.0666087,-0.00338359,0.0333908,-0.0171223,0.0151708
0.144849,0.220453,2.43063,-0.0538619,-0.0666087,-0.00338359,0.0333908,-0.0171223,0.0151708
0.143872,0.219691,2.43079,-0.0550222,-0.0738797,0.0136552,0.0307088,-0.0142345,0.0112153
0.142832,0.219095,2.43138,-0.0466036,-0.0636293,0.0433648,0.0244018,-0.0136259,0.00456125
0.141995,0.218722,2.43265,-0.0368037,-0.0472718,0.0769829,0.0167606,-0.0126626,0.00700045
0.141098,0.218484,2.43432,-0.0371576,-0.0464752,0.0794928,0.0115931,-0.0178696,0.00735825
0.140184,0.218059,2.43574,-0.0519899,-0.0524271,0.053958,0.0118841,-0.0222816,0.0117552
0.139304,0.216764,2.43662,-0.108203,-0.0466994,0.0193504,0.0143747,-0.0221271,0.0146387
0.138704,0.214315,2.43725,-0.157004,-0.0227879,0.017548,0.0175067,-0.0187978,0.0219831
0.13837,0.211182,2.43823,-0.186303,-0.0114055,0.037584,0.0215994,-0.00922592,0.0178006
0.137772,0.208007,2.43989,-0.178449,-0.0349647,0.0822215,0.0256582,-0.00181839,0.0117605
0.136331,0.205566,2.44249,-0.132517,-0.0769535,0.133255,0.0242557,0.00339217,0.00652921
0.133921,0.204235,2.44582,-0.0810678,-0.115978,0.16726,0.0180733,0.00826895,-0.00136852
0.130959,0.20369,2.44953,-0.0494139,-0.130798,0.184081,0.0104205,0.0119924,-0.00636923
0.126696,0.207906,2.45186,0.408066,-0.461487,0.0824462,0.0332092,0.0575166,0.017162
0.114275,0.217228,2.45284,0.40551,-0.652089,0.12793,0.00774796,-0.00481358,0.0106723
0.101655,0.220985,2.45505,-0.092592,-0.472887,0.119728,-0.0186742,0.0284555,0.00905168
0.097433,0.214271,2.45823,-0.553756,0.144354,0.124486,-0.0403362,0.018589,0.0212034
0.104296,0.202258,2.46207,-0.593271,0.558929,0.135637,-0.0381264,0.0373078,-0.0559811
0.115648,0.194184,2.46572,-0.205041,0.567566,0.126741,-0.0034503,0.0203279,-0.0921212
