attitude_roll,attitude_pitch,attitude_yaw,rotationRate_x,rotationRate_y,rotationRate_z,acceleration_x,acceleration_y,acceleration_z
0.092023,0.31983,-0.0148528,-0.255268,0.270522,0.279383,0.00123732,-0.00540403,-0.015543
0.0916023,0.315021,-0.00534947,-0.165777,-0.279095,0.371343,0.111041,-0.0183496,0.0138507
0.0792664,0.312227,0.00375599,-0.1731,-0.589032,0.446197,0.109841,-0.0155904,0.0114536
0.0656581,0.310151,0.0129671,-0.0883378,-0.421643,0.408473,0.0603528,-0.0202832,-0.0806938
0.0582465,0.309682,0.0217984,-0.0255659,-0.0724354,0.45123,0.0206359,0.00647688,-0.090124
0.0559241,0.309876,0.0326029,-0.0161404,0.165156,0.582169,0.0134025,0.0249877,-0.026504
0.0561027,0.310194,0.0456888,-0.0265332,0.209832,0.65186,0.00615793,0.0227729,0.0564432
0.0548884,0.31037,0.0596292,-0.0267989,0.0793853,0.680604,0.00238688,0.0177368,0.120586
0.0499218,0.310914,0.0744684,0.012352,-0.115108,0.734394,-0.000526723,0.0398005,0.147218
0.0414884,0.312353,0.0900441,0.0533335,-0.236996,0.74646,-0.0239208,0.0507372,0.148563
0.0320723,0.314041,0.104916,0.0606795,-0.21274,0.671104,-0.0485954,0.0282495,0.124508
0.0250744,0.315508,0.11821,0.035678,-0.0753984,0.616322,-0.0380248,0.02554,0.0904768
0.0202595,0.315414,0.131134,-0.0911617,-0.0219917,0.617346,-0.0101645,0.0328201,0.098346
0.0155029,0.312117,0.144106,-0.25892,-0.0625019,0.606357,-0.00309552,0.0136622,0.0948515
0.0101986,0.305654,0.156253,-0.396422,-0.0871068,0.548333,-0.00769627,0.00248501,0.0576354
0.00592861,0.29699,0.167236,-0.470218,-0.00505985,0.507033,-0.00774421,-0.00740549,-0.00331354
0.00326675,0.287403,0.177835,-0.48128,0.0381485,0.508117,0.0203048,-0.0148319,-0.0449279
0.00227165,0.278414,0.188505,-0.411047,0.18515,0.522231,0.0430124,-0.0315202,-0.0817532
0.0039563,0.270788,0.199776,-0.374247,0.251684,0.560245,0.069247,-0.0533256,-0.0519805
0.00541703,0.263247,0.211721,-0.376393,0.217274,0.587188,0.0857578,-0.0893166,-0.0176944
0.0068318,0.256644,0.223883,-0.282494,0.234411,0.578874,0.068038,-0.112879,-0.0477441
0.00845192,0.252152,0.235813,-0.183877,0.228819,0.580061,0.0667209,-0.12452,-0.0515085
0.0101668,0.249316,0.247828,-0.117089,0.250509,0.577482,0.0698139,-0.137689,-0.0402917
0.0130977,0.247676,0.25931,-0.0662802,0.334367,0.535021,0.0379157,-0.144604,-0.0362442
0.0176116,0.246362,0.270059,-0.0908805,0.358268,0.516303,0.0265154,-0.140889,-0.00652528
0.0217955,0.244531,0.280547,-0.101077,0.313639,0.495515,0.0108217,-0.13679,-0.00181174
0.0248142,0.242957,0.290599,-0.0733177,0.23264,0.483137,-0.0108841,-0.121273,-0.0219774
0.026863,0.242543,0.300623,0.0159472,0.236134,0.490712,-0.0267297,-0.101381,-0.0558497
0.029974,0.244217,0.310848,0.113499,0.32865,0.510229,-0.0458343,-0.0763947,-0.0566897
0.0352192,0.24721,0.321528,0.144234,0.455254,0.537266,-0.0418471,-0.0585081,0.000537694
0.041795,0.250361,0.332846,0.131338,0.465604,0.577205,-0.0278459,-0.0529971,0.0771841
0.0470971,0.253875,0.345328,0.173527,0.366103,0.655641,-0.00716423,-0.040149,0.12854
0.0491328,0.258806,0.359722,0.2584,0.20736,0.767499,0.0177082,-0.0259186,0.160461
0.0482479,0.265755,0.376349,0.349261,0.146424,0.871385,0.0189546,-0.0152097,0.178738
0.046083,0.273828,0.394753,0.372482,0.141369,0.941091,0.0025399,-0.0084967,0.217885
0.0438906,0.28204,0.414378,0.365667,0.180657,0.985057,-0.00448427,-6.56843e-05,0.262177
0.0421521,0.289959,0.435105,0.343933,0.225433,1.0489,0.00600621,0.01243,0.310188
0.0403527,0.297406,0.457509,0.316358,0.24161,1.13477,0.0179325,0.0325584,0.358657
0.0381672,0.30433,0.481793,0.278892,0.262729,1.22036,0.0211669,0.0461599,0.415969
0.0355619,0.310281,0.508388,0.228953,0.2696,1.3383,0.0221584,0.0663889,0.468675
0.0312094,0.315697,0.537187,0.230479,0.178816,1.42047,0.0349434,0.0679407,0.497694
0.0243094,0.320171,0.567668,0.0965082,0.0796781,1.49819,0.0478358,0.0715187,0.515369
0.0152196,0.319969,0.600117,-0.177227,0.0711832,1.59458,0.0594517,0.0814435,0.499276
0.00824301,0.314502,0.634238,-0.406989,0.322697,1.62432,0.0393415,0.049165,0.353583
0.00737659,0.303968,0.666963,-0.688471,0.546154,1.47148,-0.00368147,-0.0149311,0.166167
0.00842477,0.287549,0.695639,-0.962037,0.345841,1.27144,-0.0443337,-0.0804877,-0.0755616
0.00373816,0.267635,0.720185,-0.993363,-0.174017,1.06538,-0.0779307,-0.114378,-0.364297
-0.00748279,0.25,0.737737,-0.764008,-0.410322,0.545268,-0.203306,-0.154284,-0.67972
-0.0146975,0.23585,0.73872,-0.709589,-0.264752,-0.429103,-0.347465,-0.139973,-0.807391
-0.0152885,0.219469,0.723708,-0.986386,-0.134801,-0.890543,-0.136599,-0.0492873,-0.779228
-0.0120331,0.197591,0.70656,-1.18442,0.123377,-0.676606,0.150898,0.118793,-0.801038
-0.0120331,0.197591,0.70656,-1.18442,0.123377,-0.676606,0.150898,0.118793,-0.801038
-0.0051129,0.175255,0.698011,-1.00243,0.373751,-0.129356,0.309249,0.197156,-0.847225
0.00180275,0.160271,0.700716,-0.466403,0.316444,0.37219,0.288244,0.216638,-0.807266
0.00437141,0.156668,0.711457,0.0556817,0.117926,0.643409,0.191117,0.162803,-0.65247
0.00325017,0.160197,0.725344,0.243351,0.00113745,0.718308,0.104,0.0765814,-0.39817
3.80499e-06,0.165563,0.740323,0.297682,-0.0620198,0.765411,0.0722466,0.0368932,-0.187838
-0.00374407,0.172399,0.756508,0.39018,-0.0364848,0.8415,0.0593068,0.0302043,-0.0409234
-0.00681799,0.181043,0.774941,0.483522,0.0649034,0.976976,0.062279,0.0348525,0.100257
-0.00753787,0.19112,0.795846,0.529932,0.252966,1.06894,0.0303192,0.015154,0.230894
-0.00567941,0.201294,0.817546,0.494408,0.334947,1.03537,-0.0397997,0.00216764,0.369548
-0.0026303,0.210482,0.836611,0.439883,0.37339,0.826235,-0.110297,-0.0107341,0.441809
0.00151257,0.218793,0.850989,0.391162,0.297915,0.578809,-0.126095,-0.0145161,0.485009
0.00205896,0.225929,0.860421,0.329224,-0.0362561,0.35536,-0.0898363,0.000592291,0.507589
-0.00166208,0.232432,0.866492,0.328853,-0.168695,0.249534,-0.0420533,0.0205824,0.466256
-0.0066272,0.239209,0.870674,0.361766,-0.217364,0.140053,-0.0316476,0.049983,0.425682
-0.0106486,0.247015,0.871619,0.420236,-0.152011,-0.06218,-0.0431264,0.0506175,0.38344
-0.0126611,0.255275,0.868228,0.381364,-0.161562,-0.279973,-0.0427117,0.0544523,0.389086
-0.0149981,0.261428,0.860414,0.226763,-0.277423,-0.470929,-0.0155414,0.0599734,0.404466
-0.0190286,0.265119,0.849899,0.153606,-0.401999,-0.535794,0.0470033,0.078461,0.341214
-0.0245848,0.268911,0.838994,0.218328,-0.415518,-0.517264,0.0904865,0.113735,0.237466
-0.028894,0.274586,0.829222,0.320677,-0.239775,-0.430074,0.102683,0.144408,0.158547
-0.0279261,0.281855,0.821694,0.370726,0.119699,-0.329926,0.106548,0.138947,0.138008
-0.0214519,0.288433,0.815011,0.241071,0.323445,-0.343857,0.109828,0.0760913,0.185735
-0.012278,0.290359,0.807726,-0.0749481,0.342941,-0.351454,0.149978,-0.00885507,0.20546
-0.00413013,0.28602,0.801246,-0.349065,0.297154,-0.23493,0.261088,-0.0915975,0.097443
0.00020681,0.275214,0.798022,-0.796148,-0.0342356,-0.0791058,0.334045,-0.13584,-0.034627
-0.00472956,0.253772,0.798151,-1.30331,-0.390566,0.093838,0.309143,-0.162319,-0.250422
-0.014085,0.227066,0.80165,-1.27737,-0.438662,0.275902,0.256399,-0.161493,-0.663583
-0.0227076,0.205936,0.808956,-0.796262,-0.222859,0.479166,0.208551,-0.151291,-1.00461
-0.0254779,0.19409,0.820331,-0.43072,0.183145,0.661209,0.113086,-0.129927,-1.08497
-0.0208795,0.185048,0.834774,-0.48684,0.539185,0.777967,-0.0374009,-0.0987674,-0.934584
-0.0101872,0.174557,0.850939,-0.480482,0.795314,0.816121,-0.163109,-0.115223,-0.802525
0.0047377,0.168685,0.866736,-0.0432618,0.963786,0.75148,-0.249788,-0.139899,-0.738814
0.0227038,0.174733,0.881651,0.641244,1.08684,0.736268,-0.260103,-0.142271,-0.590997
0.0428707,0.193701,0.89567,1.1686,1.18433,0.708827,-0.284228,-0.11006,-0.296077
0.0641442,0.220148,0.908387,1.37199,1.20414,0.67624,-0.295082,-0.0651804,0.051846
0.0851107,0.24832,0.919102,1.34321,1.12971,0.566747,-0.312289,-0.0356729,0.323881
0.103909,0.27467,0.926955,1.21457,0.95724,0.44554,-0.305462,0.000447035,0.492846
0.119964,0.298475,0.932024,1.10974,0.799348,0.308051,-0.291219,0.0376384,0.57558
0.133481,0.320245,0.934252,1.03653,0.61309,0.195309,-0.267234,0.0830944,0.618083
0.143247,0.340857,0.935006,1.01157,0.385607,0.172752,-0.230477,0.13326,0.631653
0.147845,0.361462,0.935683,1.03525,0.0976264,0.197282,-0.18828,0.183125,0.62113
0.147086,0.383033,0.937242,1.07053,-0.101775,0.274845,-0.148784,0.221086,0.583551
0.142163,0.404213,0.940974,0.962347,-0.244616,0.372261,-0.127062,0.262711,0.583355
0.133552,0.42273,0.947111,0.803449,-0.353598,0.440879,-0.096181,0.275364,0.54617
0.123118,0.438431,0.955319,0.661984,-0.347031,0.499214,-0.0674299,0.268376,0.466009
0.110666,0.451024,0.964999,0.481712,-0.498919,0.508125,-0.046387,0.261922,0.370738
0.0961118,0.459177,0.974599,0.211329,-0.496387,0.416899,-0.0382333,0.195285,0.218483
0.0826036,0.458632,0.981582,-0.391145,-0.608343,0.188908,-0.0514916,0.157291,0.102922
0.0655845,0.442095,0.983986,-1.27482,-1.0074,-0.0931469,-0.0484792,0.112511,-0.0368066
0.0434156,0.410882,0.980948,-1.72788,-1.30677,-0.342536,-0.029017,0.0682415,-0.417149
0.0199509,0.377983,0.972965,-1.45388,-1.30075,-0.474478,0.00785623,0.0947697,-0.873417
0.0199509,0.377983,0.972965,-1.45388,-1.30075,-0.474478,0.00785623,0.0947697,-0.873417
0.00108892,0.35424,0.963041,-0.938721,-0.885378,-0.468074,0.0224619,0.168258,-1.09537
-0.00683572,0.337724,0.953635,-0.805488,-0.221853,-0.403423,0.0131481,0.196468,-0.983803
-0.003923,0.320152,0.946111,-0.955051,0.22023,-0.300381,0.0259251,0.158751,-0.712151
0.00451002,0.301653,0.941095,-0.850075,0.432738,-0.166521,0.0518459,0.0940198,-0.509656
0.0140031,0.287419,0.939401,-0.562997,0.45446,-0.00947215,0.0431818,0.0373389,-0.303567
0.022725,0.278944,0.940651,-0.292245,0.458796,0.0989007,-0.0060977,-0.0272107,-0.0669318
0.0314688,0.274484,0.942754,-0.180327,0.465555,0.0787882,-0.0654726,-0.0842508,0.16677
0.039357,0.270608,0.9438,-0.21637,0.343929,0.00115852,-0.0988128,-0.13283,0.357028
0.0448817,0.265992,0.942835,-0.235102,0.17778,-0.112402,-0.0956875,-0.159512,0.462884
0.0466372,0.261375,0.939866,-0.203207,-0.0848447,-0.193353,-0.0644309,-0.169707,0.517018
0.0435094,0.258433,0.935343,-0.0539122,-0.343485,-0.246632,-0.0350628,-0.165211,0.529903
0.0359037,0.259376,0.930278,0.18304,-0.535868,-0.230823,-0.01109,-0.135795,0.51854
0.0248213,0.265827,0.925293,0.480627,-0.714604,-0.251214,-0.0321868,-0.0962708,0.500574
0.0104575,0.27785,0.918896,0.717931,-0.895104,-0.347265,-0.0551308,-0.0636323,0.485307
-0.00683757,0.293652,0.911042,0.865128,-1.05225,-0.387615,-0.0183118,-0.017221,0.468218
-0.0248816,0.312362,0.90356,0.989483,-0.906867,-0.361751,0.0173122,0.0437117,0.40702
-0.0355965,0.331383,0.89622,0.837541,-0.365354,-0.415994,0.019935,0.068805,0.365313
-0.0328539,0.344405,0.886737,0.388024,0.306739,-0.515271,0.102696,-0.00603724,0.312702
-0.0199449,0.346028,0.8757,-0.269946,0.46552,-0.527286,0.188683,-0.0668881,0.249424
-0.0136686,0.33343,0.862704,-0.998355,-0.359532,-0.762119,0.0482852,-0.0435941,0.107252
-0.0194338,0.309313,0.84075,-1.3815,-0.781774,-1.26677,-0.117674,-0.0406127,-0.252654
-0.0254545,0.28186,0.811602,-1.3802,-0.600402,-1.40609,-0.0551119,0.0308892,-0.608344
-0.0255134,0.257117,0.783502,-1.16387,-0.121796,-1.18669,0.0298599,0.178717,-0.757675
-0.0170986,0.236345,0.763643,-0.949775,0.487942,-0.675527,0.108633,0.203878,-0.729282
0.00101528,0.221576,0.754661,-0.492282,1.0908,-0.219673,0.112977,0.139002,-0.636036
0.0256932,0.218307,0.753853,0.168529,1.29093,0.145178,0.119023,0.0543911,-0.441522
0.0479881,0.227528,0.76036,0.699643,1.03413,0.517772,0.119053,0.0254509,-0.151696
0.0611691,0.245271,0.772848,0.964117,0.573251,0.770492,0.0548343,-0.0296414,0.103984
0.0637597,0.265475,0.788332,0.928771,0.085196,0.821611,-0.0521766,-0.0970994,0.275111
0.0583591,0.28355,0.802673,0.783099,-0.170396,0.64553,-0.168302,-0.150304,0.315825
0.0514831,0.297837,0.81233,0.582451,-0.255155,0.336879,-0.245072,-0.18346,0.299632
0.0453493,0.307395,0.81491,0.363352,-0.239191,-0.0529472,-0.268963,-0.207692,0.20303
0.0424227,0.311693,0.809571,0.080869,-0.254482,-0.416943,-0.243583,-0.194626,0.0783702
0.0394307,0.310575,0.798537,-0.113067,-0.389878,-0.634692,-0.174024,-0.132047,-0.0998973
0.0354164,0.30755,0.783189,-0.140066,-0.489831,-0.836811,-0.164424,-0.0532788,-0.329426
0.0307871,0.303225,0.76471,-0.238936,-0.490423,-0.919186,-0.112538,0.0076758,-0.461296
0.0292159,0.297686,0.745829,-0.2429,-0.187943,-0.897909,-0.0485111,0.072956,-0.557391
0.0333249,0.292198,0.72819,-0.276433,0.0300872,-0.789595,0.0356137,0.100084,-0.541957
0.0375488,0.285067,0.713818,-0.38864,-0.0428685,-0.622647,0.0779581,0.100267,-0.439959
0.038784,0.276501,0.702362,-0.407803,-0.151184,-0.523048,0.0515962,0.098415,-0.388957
0.0378999,0.268547,0.69243,-0.338005,-0.175588,-0.469362,0.040753,0.0722157,-0.343328
0.0372726,0.262993,0.683981,-0.169102,-0.0993115,-0.355979,0.0666174,0.0550158,-0.285115
0.0373927,0.261805,0.678401,0.0691443,-0.0357493,-0.184344,0.0925062,0.0628103,-0.180121
0.0382612,0.265174,0.676485,0.263569,0.0676521,0.0130112,0.110805,0.0521923,-0.0396724
0.039625,0.271727,0.678177,0.374118,0.0967003,0.162923,0.088151,0.0357751,0.126341
0.0401632,0.279482,0.681996,0.372454,0.0477377,0.215768,0.0613354,0.00657079,0.273778
0.0388416,0.286592,0.686035,0.323937,-0.0773317,0.192733,0.0478045,-0.0217889,0.370095
0.0341572,0.292742,0.68944,0.286553,-0.319596,0.153031,0.0559253,-0.03329,0.417866
0.0244206,0.298332,0.692216,0.271749,-0.547218,0.134508,0.0819155,-0.0193521,0.422462
0.0120306,0.304124,0.694981,0.314414,-0.587613,0.144231,0.108639,0.01186,0.381027
0.0120306,0.304124,0.694981,0.314414,-0.587613,0.144231,0.108639,0.01186,0.381027
-0.000252556,0.31124,0.698071,0.403284,-0.554834,0.155544,0.127972,0.0313064,0.341389
-0.0117681,0.31992,0.70125,0.458323,-0.492115,0.142217,0.131227,0.0510631,0.321799
-0.0217615,0.328644,0.703827,0.409072,-0.441079,0.0810247,0.126308,0.0751249,0.328352
-0.0303845,0.336041,0.704615,0.341091,-0.399036,-0.0391936,0.100275,0.091669,0.29492
-0.0375173,0.342695,0.702068,0.328652,-0.397517,-0.231223,0.0620761,0.109998,0.229032
-0.0427575,0.349852,0.69604,0.373374,-0.3163,-0.334886,0.0956666,0.141267,0.154538
-0.0453089,0.358138,0.689492,0.419931,-0.161212,-0.309733,0.141342,0.198202,0.0975774
-0.0436294,0.365898,0.683479,0.280312,0.137025,-0.295121,0.142901,0.199188,0.0808789
-0.0366531,0.368013,0.677149,-0.101255,0.30256,-0.309488,0.133328,0.159841,0.0902696
-0.0283321,0.363722,0.67036,-0.297742,0.255819,-0.305139,0.12259,0.11253,-0.0184022
-0.0228808,0.358163,0.664254,-0.261143,0.0740459,-0.243791,0.120533,0.0866077,-0.162274
-0.020554,0.352629,0.659955,-0.344376,0.0301669,-0.142205,0.113511,0.0557545,-0.207833
-0.0187348,0.34306,0.658144,-0.639192,0.104268,-6.36517e-05,0.0955229,0.0347804,-0.200769
-0.0161286,0.326652,0.659406,-1.01615,0.177824,0.132651,0.0863352,-0.00659537,-0.206016
-0.0159786,0.301732,0.662363,-1.47998,-0.123633,0.175908,0.0526401,-0.0643367,-0.238368
-0.0228251,0.26891,0.665942,-1.74436,-0.442989,0.2498,0.012283,-0.0696922,-0.407696
-0.0341103,0.235383,0.671637,-1.51542,-0.470954,0.420477,0.00606363,-0.0454711,-0.646945
-0.0417713,0.210654,0.682084,-0.897394,-0.0299736,0.703583,-0.026974,-0.036582,-0.814951
-0.0404567,0.198356,0.698648,-0.302995,0.496138,0.963344,-0.0816854,-0.0691316,-0.729212
-0.0310288,0.195034,0.719029,0.00189277,0.786282,1.01755,-0.138403,-0.133578,-0.44538
-0.0186502,0.196338,0.73894,0.161177,0.811324,0.92714,-0.174611,-0.193974,-0.160924
-0.00693995,0.200392,0.756532,0.266031,0.709379,0.799506,-0.194264,-0.20297,0.058441
0.00348759,0.206769,0.771377,0.374841,0.638053,0.661451,-0.186748,-0.207421,0.207041
0.0129677,0.215036,0.78334,0.429594,0.547451,0.516353,-0.177006,-0.196759,0.340671
0.0210935,0.22327,0.79197,0.369858,0.469279,0.336537,-0.172164,-0.189332,0.448778
0.0290927,0.229751,0.796737,0.267165,0.431853,0.15323,-0.143162,-0.176181,0.503051
0.0370045,0.234137,0.798641,0.172046,0.407888,0.0595664,-0.094138,-0.14289,0.518222
0.0444277,0.237225,0.799677,0.147871,0.341557,0.0722258,-0.0359061,-0.100718,0.508022
0.0489699,0.240745,0.802025,0.208307,0.149273,0.180321,0.0250321,-0.0625075,0.475352
0.047933,0.246036,0.806913,0.295452,-0.151791,0.325417,0.0634831,-0.0379029,0.427817
0.0397798,0.25344,0.814895,0.428597,-0.446218,0.47546,0.0633839,-0.01199,0.332234
0.0273824,0.264413,0.825265,0.628845,-0.491971,0.547816,0.00767592,0.0302179,0.173548
0.0157754,0.278084,0.836252,0.692353,-0.360222,0.532962,-0.0532089,0.0615166,0.0796428
0.00780525,0.291519,0.846636,0.622758,-0.140781,0.4786,-0.0637961,0.0548941,0.011597
0.00385329,0.302669,0.855784,0.484888,-0.0148693,0.407177,-0.0506142,0.0433686,-0.0534582
0.00158764,0.310651,0.863899,0.295188,-0.00015845,0.381737,-0.0312053,0.0284415,-0.13948
-0.00268792,0.313612,0.871369,0.00500585,-0.201762,0.306148,-0.0734015,0.0196013,-0.206264
-0.00989262,0.311505,0.875642,-0.191289,-0.378898,0.086905,-0.156813,0.00885352,-0.32985
-0.0175692,0.307034,0.874754,-0.235737,-0.377127,-0.151673,-0.174644,0.0126822,-0.463295
-0.0222399,0.302308,0.870056,-0.262695,-0.227853,-0.261015,-0.12376,0.0331674,-0.521765
-0.0241153,0.295914,0.864425,-0.407961,-0.140048,-0.265155,-0.0784824,0.0468328,-0.492473
-0.0249584,0.286195,0.858298,-0.56996,-0.129662,-0.305078,-0.0934757,0.0387737,-0.452747
-0.0254537,0.274048,0.850888,-0.642514,-0.121647,-0.375535,-0.10645,0.0312662,-0.421906
-0.0250295,0.261889,0.842097,-0.588519,-0.068051,-0.435929,-0.103436,0.0401247,-0.372153
-0.0235756,0.251302,0.832766,-0.491609,-0.0319194,-0.427268,-0.0561161,0.0356678,-0.254366
-0.0223183,0.242891,0.824691,-0.369064,-0.0440665,-0.326485,0.0125671,0.0308077,-0.105858
-0.0222367,0.23651,0.8192,-0.294655,-0.0787337,-0.199761,0.037958,0.0233583,0.0638403
-0.0227215,0.230971,0.815891,-0.277006,-0.0292788,-0.122151,0.0267396,-0.00513168,0.2074
-0.0216035,0.225443,0.813486,-0.279025,0.0823109,-0.10093,0.0107402,-0.0384251,0.319179
-0.0189435,0.220132,0.811642,-0.250446,0.117805,-0.0616567,0.0183326,-0.0559335,0.405122
-0.0178847,0.216216,0.811331,-0.119914,-0.0387983,0.0460051,0.0308492,-0.0655092,0.460813
-0.0178847,0.216216,0.811331,-0.119914,-0.0387983,0.0460051,0.0308492,-0.0655092,0.460813
-0.0211821,0.216283,0.813784,0.150392,-0.242327,0.18721,0.0188712,-0.0700065,0.478573
-0.0284455,0.222304,0.818578,0.468301,-0.357614,0.251878,-0.0336749,-0.0636258,0.490256
-0.0362143,0.234585,0.823831,0.765357,-0.286976,0.200567,-0.0919673,-0.056074,0.520771
-0.0415298,0.251892,0.827199,0.967188,-0.172714,0.0489015,-0.154098,-0.0320133,0.579104
-0.0451788,0.272554,0.827092,1.09249,-0.23492,-0.153226,-0.186637,0.0038113,0.636603
-0.0504835,0.295691,0.822945,1.20494,-0.415281,-0.346563,-0.179313,0.0394176,0.638595
-0.0573755,0.321003,0.815703,1.28017,-0.459422,-0.476096,-0.122358,0.0770543,0.598695
-0.0610282,0.347054,0.805451,1.26109,-0.186885,-0.668512,-0.0592842,0.09138,0.544173
-0.0573283,0.369845,0.790418,0.833424,-0.0886086,-0.855371,0.0654771,0.0106256,0.533742
-0.0573317,0.378916,0.771554,-0.0744877,-0.675283,-0.956404,0.154264,-0.0119686,0.456486
-0.0681812,0.368655,0.748372,-1.06129,-1.13312,-1.17536,0.046629,0.0658514,0.15292
-0.0778703,0.341667,0.717052,-1.80902,-0.870554,-1.56338,-0.0177542,0.0495353,-0.307621
-0.0768472,0.304296,0.678122,-2.14567,-0.230659,-1.79116,-0.0350319,0.136566,-0.737158
-0.0646925,0.264644,0.638818,-2.01571,0.301221,-1.63021,-0.0250361,0.297973,-1.03041
-0.046326,0.231756,0.608836,-1.36985,0.833186,-1.04097,0.101956,0.281628,-1.21562
-0.0186377,0.215002,0.594512,-0.313228,1.64938,-0.30367,0.178165,0.200822,-1.20644
0.0208368,0.219857,0.594906,0.744341,2.22133,0.337155,0.171149,0.105068,-0.870078
0.062497,0.241149,0.606785,1.21581,2.13117,0.887976,0.113133,0.037525,-0.314813
0.0935094,0.265702,0.626607,0.99844,1.39708,1.16672,0.0104435,-0.090075,0.159454
0.1062,0.283063,0.648206,0.53129,0.497349,1.01356,-0.141684,-0.255568,0.340018
0.105405,0.291421,0.663499,0.161028,-0.0990021,0.521153,-0.30544,-0.347605,0.272482
0.0981495,0.291847,0.669305,-0.16265,-0.415696,0.0557324,-0.337119,-0.374419,0.136516
0.0890603,0.285489,0.666705,-0.441276,-0.576871,-0.363392,-0.311646,-0.367314,-0.00320214
0.0779314,0.274262,0.65635,-0.561574,-0.82628,-0.705365,-0.241523,-0.329811,-0.153257
0.0646894,0.262351,0.639915,-0.502699,-0.89782,-0.963387,-0.177163,-0.257768,-0.329908
0.0535936,0.252215,0.618597,-0.381262,-0.722972,-1.143,-0.126992,-0.181603,-0.44883
0.0482509,0.245301,0.594633,-0.192058,-0.39395,-1.20243,-0.0496417,-0.108974,-0.500074
0.0495399,0.242706,0.570573,0.0536997,-0.0689308,-1.13511,0.0373961,-0.0495872,-0.455564
0.05564,0.24514,0.548435,0.286643,0.114855,-0.993953,0.118094,-0.00581308,-0.324321
0.0630703,0.251515,0.529742,0.450472,0.151602,-0.767441,0.167928,0.019837,-0.147983
0.0688026,0.260807,0.515842,0.557492,0.048248,-0.52785,0.181318,0.0338461,0.0130143
0.0704405,0.272107,0.505967,0.643311,-0.148494,-0.352892,0.14107,0.02929,0.14757
0.0674041,0.285359,0.499098,0.721351,-0.346531,-0.22078,0.107215,0.0362928,0.232879
0.060676,0.300028,0.494743,0.772269,-0.416497,-0.0977147,0.0902176,0.0572047,0.288745
0.053942,0.315758,0.493191,0.804051,-0.282938,0.0311656,0.0821726,0.0845998,0.324988
0.0496529,0.331654,0.493873,0.776879,-0.131951,0.104411,0.0418631,0.100631,0.381672
0.0476235,0.347078,0.495694,0.767553,-0.0207159,0.132763,0.00256589,0.110995,0.427723
0.0463438,0.363103,0.497236,0.839782,-0.075873,0.0663405,-0.0451377,0.119687,0.454822
0.0432896,0.380741,0.496137,0.922491,-0.296898,-0.101486,-0.0972144,0.131358,0.477203
0.036866,0.399269,0.490719,0.9493,-0.545756,-0.325631,-0.119774,0.145977,0.493672
0.0283079,0.417985,0.480502,0.948441,-0.706058,-0.547316,-0.115101,0.17011,0.460692
0.0203225,0.435847,0.466545,0.85372,-0.642488,-0.654118,-0.0832102,0.233504,0.399627
0.0151859,0.450668,0.451841,0.638866,-0.500335,-0.648875,-0.011533,0.238317,0.344846
0.0127531,0.459971,0.437036,0.29223,-0.402289,-0.667429,0.00654752,0.162108,0.260723
0.0109322,0.461367,0.422085,-0.169643,-0.536024,-0.687008,0.0416331,0.0950599,0.164037
0.00061812,0.449308,0.404101,-1.14488,-1.40384,-1.01802,-0.141044,0.0921641,0.0884765
-0.0226112,0.414691,0.374444,-2.2843,-1.98425,-1.65293,-0.393461,0.0396717,-0.183946
-0.0420702,0.36506,0.330108,-2.70335,-1.50514,-2.26642,-0.472585,0.0393326,-0.745908
-0.0421867,0.315195,0.27732,-2.45818,-0.193469,-2.38127,-0.409977,0.218937,-1.15137
-0.0193955,0.270404,0.231062,-2.2179,1.03558,-1.85011,-0.206286,0.292175,-1.12333
-0.0193955,0.270404,0.231062,-2.2179,1.03558,-1.85011,-0.206286,0.292175,-1.12333
0.0147726,0.22713,0.19826,-2.12618,1.4368,-1.39238,-0.104938,0.138497,-0.829272
0.0446178,0.185892,0.173638,-1.88543,0.965008,-1.1726,-0.108105,-0.0596078,-0.62488
0.0610676,0.152337,0.152698,-1.33129,0.36101,-1.08817,-0.12676,-0.16803,-0.567394
0.06768,0.130241,0.133248,-0.792983,0.0964208,-0.961967,-0.128259,-0.17898,-0.474027
0.072258,0.116815,0.116959,-0.461282,0.199378,-0.742977,-0.075884,-0.189862,-0.292305
0.0795314,0.108867,0.105042,-0.265306,0.384747,-0.500684,-0.0431191,-0.203711,-0.086516
0.0889379,0.104343,0.097621,-0.12522,0.459506,-0.280855,-0.0532118,-0.234072,0.103316
0.0979652,0.10285,0.093501,0.0130864,0.379536,-0.167473,-0.102663,-0.260856,0.246462
0.104244,0.104142,0.089917,0.149553,0.214802,-0.190119,-0.171133,-0.281804,0.358324
0.107265,0.107663,0.0847814,0.249737,0.0236544,-0.296438,-0.199121,-0.295926,0.441072
0.106935,0.11256,0.0770761,0.320043,-0.116276,-0.402655,-0.188331,-0.288587,0.477544
0.105014,0.118369,0.0677481,0.346085,-0.177624,-0.45704,-0.14257,-0.266566,0.494246
0.101735,0.124444,0.0576691,0.350304,-0.282363,-0.472442,-0.0945486,-0.250969,0.46994
0.0952127,0.130472,0.0476649,0.357718,-0.512385,-0.453777,-0.0431744,-0.234979,0.402293
0.0836575,0.137182,0.0379653,0.396921,-0.775838,-0.460542,-0.0288351,-0.204664,0.256886
0.0685231,0.144714,0.0273256,0.44817,-0.813158,-0.544694,-0.0571947,-0.159395,0.0681576
0.0587747,0.153791,0.014724,0.529478,-0.294094,-0.640249,-0.0630066,-0.115629,-0.183477
0.058753,0.161978,0.000702277,0.278404,-0.049499,-0.712283,-0.028791,-0.0901943,-0.285819
0.0571249,0.16054,-0.015427,-0.307563,-0.402416,-0.897544,-0.0255673,-0.0713957,-0.330631
0.0485038,0.15101,-0.0351942,-0.465868,-0.76642,-1.09882,-0.0417532,0.000458419,-0.602875
0.0367711,0.143684,-0.0581688,-0.0997736,-0.594948,-1.1802,-0.109885,0.185884,-0.907046
0.0366091,0.14826,-0.08081,0.676355,0.325235,-1.01043,-0.0749567,0.275525,-1.02921
0.0560721,0.168419,-0.0989355,1.34877,1.25561,-0.69656,-0.00205762,0.311133,-0.779279
0.0871722,0.196079,-0.112624,1.41661,1.51428,-0.464763,0.0111184,0.277725,-0.249113
0.116781,0.219852,-0.122515,1.01205,1.16893,-0.280113,0.00335415,0.194098,0.182112
0.134451,0.234159,-0.129881,0.509593,0.381485,-0.292785,-0.0442213,0.103058,0.385394
0.13541,0.23943,-0.138565,0.154329,-0.443943,-0.477795,-0.0960201,0.0330325,0.366358
0.124347,0.23897,-0.149697,-0.0272677,-0.855093,-0.591035,-0.118091,0.048119,0.214737
0.110704,0.237051,-0.162101,0.00371258,-0.757904,-0.616149,-0.0859646,0.0841867,0.0409748
0.101561,0.237112,-0.173882,0.121316,-0.410765,-0.497734,-0.0314113,0.123752,-0.0559987
0.0998809,0.239512,-0.181945,0.187563,0.0637953,-0.250798,0.0228826,0.14508,-0.0655075
0.10601,0.24343,-0.18503,0.246303,0.429303,-0.0190714,0.0182644,0.126698,-0.0460243
0.115085,0.249522,-0.184752,0.354891,0.444373,0.0876835,-0.0251692,0.0900959,-0.00898296
0.122239,0.257114,-0.183895,0.377417,0.261961,0.0751998,-0.0760714,0.051394,0.0341302
0.124608,0.264799,-0.183859,0.406346,-0.017744,0.0278214,-0.0971874,0.0287443,0.0316059
0.122451,0.274488,-0.184632,0.580969,-0.18773,0.0206328,-0.0898321,0.0397762,-0.0342062
0.119334,0.287516,-0.186011,0.698247,-0.126808,-0.00465684,-0.0935337,0.047075,-0.0465564
0.119395,0.300317,-0.188553,0.568421,0.0594962,-0.100725,-0.122249,0.0297092,0.0369739
0.123559,0.308757,-0.193621,0.333972,0.192654,-0.287432,-0.143814,0.00048402,0.120009
0.129941,0.312347,-0.202418,0.140708,0.138907,-0.494079,-0.150192,-0.0133405,0.143605
0.134275,0.312554,-0.214201,0.0530577,-0.0671781,-0.597633,-0.0935264,0.000421464,0.128274
0.135439,0.31244,-0.226864,0.111617,-0.166942,-0.585295,-0.0302671,0.035943,0.0684822
0.136268,0.314135,-0.238587,0.203022,-0.105005,-0.493566,0.00162983,0.0701024,0.0363637
0.138268,0.317438,-0.248337,0.24479,0.00829629,-0.392395,0.0140474,0.0864106,0.0561293
0.141853,0.321245,-0.256536,0.232699,0.0831585,-0.336275,0.00417587,0.0889107,0.101331
0.14595,0.324573,-0.263748,0.19648,0.0831339,-0.290765,-0.00676559,0.0999555,0.147275
0.148589,0.327796,-0.269689,0.220143,-0.0257316,-0.215008,0.00508793,0.110287,0.157346
0.147818,0.332456,-0.273879,0.30171,-0.189224,-0.105083,0.0230924,0.11555,0.141204
0.142938,0.338774,-0.27566,0.341339,-0.33755,0.033598,0.0459734,0.122568,0.12106
0.135321,0.346118,-0.274405,0.354454,-0.353783,0.174769,0.0588524,0.127395,0.07408
0.127607,0.35288,-0.270597,0.243464,-0.251076,0.250264,0.0398217,0.128713,0.0585899
0.123119,0.355607,-0.265615,-0.0839636,0.0164789,0.226617,0.0259274,0.0925749,0.0614733
0.125313,0.349037,-0.260475,-0.666885,0.327315,0.173175,0.02252,0.0399603,0.0711737
0.126172,0.330332,-0.255388,-1.20839,-0.223563,0.0486704,-0.0152589,0.0181128,0.0219574
0.110906,0.305218,-0.25285,-1.2178,-1.18982,-0.0918745,-0.0471988,0.0577486,-0.221451
0.0838392,0.285669,-0.253001,-0.672635,-1.3475,-0.0821933,-0.0447027,0.147217,-0.559125
0.0616491,0.280049,-0.251822,0.110068,-0.741844,0.199918,0.0374241,0.200079,-0.694959
0.0531794,0.28866,-0.243736,0.628082,0.0759821,0.622347,0.115488,0.234055,-0.531544
0.0556047,0.302675,-0.227926,0.626016,0.575325,0.946197,0.112585,0.18545,-0.159009
0.0624755,0.313827,-0.206886,0.355557,0.676114,1.10465,0.0437639,0.105103,0.126916
0.0657919,0.319888,-0.183944,0.137534,0.321641,1.08161,-0.0480355,0.0361397,0.261868
0.0597389,0.323004,-0.163041,0.0659115,-0.294383,0.916549,-0.10285,-0.023236,0.270615
0.0421219,0.325345,-0.145616,0.0859475,-0.853584,0.741852,-0.12271,-0.0458433,0.213729
0.0193731,0.32702,-0.132768,0.0106548,-0.96543,0.466748,-0.182896,-0.0421661,0.121768
-0.000823178,0.325438,-0.12638,-0.187118,-0.82436,0.134355,-0.215651,-0.0344937,0.0496222
-0.0149983,0.319681,-0.127203,-0.372995,-0.607425,-0.204481,-0.225874,-0.010398,-0.063573
-0.0223581,0.311667,-0.134814,-0.417828,-0.372911,-0.488822,-0.19744,0.0280658,-0.19763
-0.0234936,0.305037,-0.146961,-0.233071,-0.0966932,-0.634217,-0.110528,0.059087,-0.312297
-0.01769,0.304123,-0.160486,0.128745,0.287989,-0.639441,-0.0352771,0.12218,-0.35593
-0.00490817,0.309759,-0.1731,0.387235,0.573298,-0.570512,0.0261285,0.166356,-0.247678
0.0113594,0.318013,-0.184364,0.413863,0.690446,-0.499793,0.0718826,0.165875,-0.0500196
0.0281897,0.324976,-0.194121,0.290445,0.669647,-0.413119,0.100777,0.163738,0.108415
0.0430453,0.328885,-0.201792,0.120863,0.558149,-0.305135,0.125366,0.148473,0.199005
0.0539435,0.329193,-0.207055,-0.0586816,0.355438,-0.19714,0.137378,0.121909,0.240475
0.0599221,0.326596,-0.210164,-0.178133,0.161221,-0.116436,0.131725,0.0989119,0.222723
0.0630124,0.322095,-0.211591,-0.265354,0.132887,-0.0474821,0.128775,0.0820722,0.169821
0.0630124,0.322095,-0.211591,-0.265354,0.132887,-0.0474821,0.128775,0.0820722,0.169821
0.0656368,0.31565,-0.211276,-0.398793,0.129189,0.0363877,0.134703,0.063791,0.138734
0.0669956,0.305854,-0.209008,-0.603704,0.0881301,0.110533,0.127201,0.0474756,0.117833
0.0669247,0.292311,-0.205006,-0.741464,-0.00941351,0.179435,0.0967592,0.0388982,0.0380632
0.0631355,0.278949,-0.199717,-0.57296,-0.209479,0.239744,0.0475912,0.0468754,-0.12312
0.0560571,0.271739,-0.193461,-0.164276,-0.280219,0.328491,0.0341935,0.0464377,-0.270736
0.0502173,0.273166,-0.185278,0.245202,-0.0452982,0.479149,0.0271808,0.0538842,-0.31823
0.0491467,0.280831,-0.174256,0.42544,0.215304,0.60093,-0.0263741,0.0547877,-0.22341
0.0509504,0.289736,-0.162378,0.397141,0.26936,0.561498,-0.101967,0.00194636,-0.0690624
0.0526978,0.297593,-0.152789,0.33766,0.167349,0.377416,-0.17313,-0.0386129,0.0211241
0.0529538,0.304032,-0.147907,0.288901,0.00362447,0.120118,-0.214884,-0.0604939,0.0681258
0.0515962,0.309401,-0.148158,0.247726,-0.140746,-0.103496,-0.190634,-0.0538649,0.0834203
0.0494111,0.3134,-0.15202,0.165501,-0.172671,-0.227886,-0.137928,-0.0169924,0.0953784
0.0482148,0.315084,-0.157329,0.0188671,-0.098316,-0.269703,-0.0886854,0.013067,0.100163
0.049125,0.313752,-0.162993,-0.117483,0.00452007,-0.271962,-0.0614174,0.0261126,0.0890273
0.0509968,0.310579,-0.168215,-0.155367,0.00220447,-0.241072,-0.0464606,0.0296092,0.0631472
0.051693,0.307557,-0.173051,-0.113839,-0.0805458,-0.238518,-0.0510917,0.0151489,0.0390984
0.050968,0.305503,-0.17818,-0.0763017,-0.139478,-0.274001,-0.0492277,-0.0343561,0.024372
0.0501824,0.303358,-0.184953,-0.119023,-0.132377,-0.39536,-0.0874827,-0.0653021,0.0258912
0.0508498,0.299815,-0.194749,-0.181993,-0.0814254,-0.561972,-0.106468,-0.0945034,0.0134062
0.0535171,0.29508,-0.20812,-0.227475,-0.0501133,-0.745331,-0.111559,-0.0999458,-0.0169878
0.0574292,0.28957,-0.224792,-0.219558,-0.0302928,-0.873768,-0.0891113,-0.0819836,-0.0532838
0.0627276,0.285075,-0.24349,-0.10706,0.0387123,-0.943835,-0.0513979,-0.0478268,-0.103877
0.0695889,0.283214,-0.262968,0.0425722,0.105933,-0.922229,-0.000631012,-0.00644562,-0.11609
0.0773216,0.283735,-0.281116,0.126988,0.156564,-0.801356,0.0421465,0.0560514,-0.0745139
0.0847249,0.285653,-0.295989,0.18013,0.162903,-0.603988,0.0801978,0.093964,-0.0197024
0.0906656,0.288728,-0.306637,0.214377,0.125612,-0.389475,0.0905594,0.109333,0.0310552
0.0941607,0.292536,-0.312929,0.216102,0.0259613,-0.184494,0.102096,0.0806172,0.082806
0.0933304,0.296416,-0.315601,0.190505,-0.202447,-0.0371216,0.0902059,0.0402324,0.126803
0.0869266,0.299775,-0.31531,0.143588,-0.415669,0.0877908,0.0608077,0.0120254,0.131727
0.0767189,0.302216,-0.313354,0.0846544,-0.527087,0.0920144,-0.000172019,-0.0301831,0.100232
0.0658298,0.303118,-0.312993,-0.00723246,-0.542455,-0.0709289,-0.0860224,-0.0735428,0.0612148
0.056206,0.301741,-0.31662,-0.108449,-0.516185,-0.287249,-0.131672,-0.0972264,0.020421
0.049162,0.298823,-0.324815,-0.116797,-0.409764,-0.513147,-0.155103,-0.0874865,-0.0497891
0.0465907,0.296956,-0.337501,-0.00975974,-0.232,-0.70709,-0.158122,-0.0692511,-0.122061
0.0476967,0.297073,-0.353582,0.0897263,-0.132949,-0.821579,-0.128918,-0.0412466,-0.119673
0.050945,0.298691,-0.371436,0.154085,-0.0711935,-0.876028,-0.10125,-0.014233,-0.0807957
0.0553352,0.301013,-0.390458,0.171033,-0.0407191,-0.935242,-0.0992068,0.00254259,-0.0303271
0.0615242,0.303428,-0.410899,0.182742,0.0558791,-1.01131,-0.107337,-0.000980794,0.0102668
0.0701041,0.305523,-0.433206,0.164027,0.120264,-1.10038,-0.121505,0.000697404,0.060768
0.0794524,0.306759,-0.457019,0.123379,0.0721055,-1.16201,-0.112804,0.00295904,0.111397
0.0868376,0.306555,-0.482072,0.0563303,-0.0896349,-1.22624,-0.10983,0.00178769,0.144062
0.0917876,0.304785,-0.50805,-0.0203822,-0.194302,-1.26778,-0.100084,-0.000266045,0.136587
0.0949749,0.301032,-0.535006,-0.113266,-0.274354,-1.33931,-0.114493,0.00462082,0.116361
0.0980428,0.295661,-0.563095,-0.153225,-0.231247,-1.38636,-0.112407,0.00624642,0.0593004
0.101718,0.289693,-0.591725,-0.16554,-0.22215,-1.41125,-0.110541,0.0282875,0.0212037
0.105188,0.283897,-0.620429,-0.122387,-0.225049,-1.39438,-0.0879587,0.0266199,-0.0086984
0.108007,0.279294,-0.648669,-0.053954,-0.273129,-1.36901,-0.0862401,0.0395318,-0.0157864
0.109127,0.276017,-0.67655,0.00507591,-0.353287,-1.35174,-0.0736293,0.0261109,0.00307155
0.110082,0.273128,-0.704413,-0.0256444,-0.298203,-1.35606,-0.0653364,0.00907889,0.0322376
0.111812,0.268603,-0.731886,-0.136307,-0.254216,-1.33623,-0.0415537,-0.00188857,0.0726241
0.113298,0.262329,-0.758645,-0.186806,-0.308959,-1.30664,-0.0133936,-0.0152054,0.0818347
0.112838,0.255723,-0.784468,-0.194324,-0.403304,-1.25994,0.0139419,-0.0227353,0.080789
0.109988,0.248741,-0.809141,-0.236394,-0.486653,-1.19821,0.0433308,-0.0386367,0.0917692
0.109988,0.248741,-0.809141,-0.236394,-0.486653,-1.19821,0.0433308,-0.0386367,0.0917692
0.105415,0.241058,-0.832314,-0.277278,-0.522406,-1.12834,0.0704149,-0.0591059,0.0825167
0.100438,0.233115,-0.854215,-0.293855,-0.490122,-1.08311,0.0755693,-0.0792171,0.0581819
0.0952828,0.225088,-0.875384,-0.303184,-0.514588,-1.05871,0.0877728,-0.10739,0.0521096
0.0890706,0.217301,-0.896175,-0.279742,-0.554107,-1.04252,0.0962599,-0.12341,0.0284898
0.0823934,0.210484,-0.916664,-0.237125,-0.555613,-1.01629,0.104666,-0.12647,-0.00651258
0.0750725,0.204289,-0.936642,-0.22944,-0.577943,-0.991171,0.11476,-0.13415,-0.0186545
0.0678083,0.198603,-0.956261,-0.197088,-0.545149,-0.977527,0.115949,-0.144055,-0.0560741
0.06086,0.194205,-0.975837,-0.108052,-0.51665,-0.973081,0.109205,-0.141821,-0.102265
0.0553408,0.192306,-0.995511,0.0204356,-0.413628,-0.977718,0.100691,-0.134073,-0.134042
0.0515047,0.192613,-1.01567,0.0965418,-0.355448,-1.00488,0.0996319,-0.128309,-0.106662
0.0485621,0.194011,-1.03628,0.143081,-0.339031,-1.01323,0.106711,-0.122542,-0.0731253
0.0454678,0.196548,-1.05697,0.207695,-0.386116,-1.0096,0.109522,-0.107984,-0.0582155
0.0418033,0.200648,-1.07738,0.29298,-0.364671,-0.978817,0.11719,-0.0992645,-0.0724626
0.0385958,0.206093,-1.09717,0.304113,-0.378523,-0.946426,0.121868,-0.098586,-0.0611671
0.0340307,0.210398,-1.11652,0.185392,-0.481127,-0.945981,0.111349,-0.0951062,-0.0326738
0.0279643,0.211959,-1.13666,0.0228816,-0.529883,-1.03911,0.0441526,-0.0634135,-0.0624343
0.0224022,0.209831,-1.15894,-0.180576,-0.486355,-1.13709,0.00744901,-0.0266603,-0.111092
0.0191209,0.205056,-1.18221,-0.216788,-0.309929,-1.14159,0.0236851,0.0102166,-0.208416
0.0191486,0.202025,-1.20457,-0.0358194,-0.144373,-1.03872,0.0469159,0.0567482,-0.280451
0.0211911,0.202614,-1.22424,0.119901,-0.0706779,-0.896429,0.0563009,0.071683,-0.240082
0.0230076,0.205521,-1.24153,0.195236,-0.106559,-0.809241,0.0439308,0.0607364,-0.152194
0.0239332,0.209022,-1.25774,0.176372,-0.130614,-0.784007,0.00573433,0.0657646,-0.0769622
0.0246528,0.211415,-1.27382,0.106479,-0.12273,-0.784808,-0.0351182,0.0735063,-0.0318242
0.0260696,0.212924,-1.28966,0.102144,-0.0716664,-0.757378,-0.0559344,0.0991363,-0.0294762
0.0281254,0.215299,-1.30463,0.182784,-0.0580007,-0.70207,-0.0825107,0.125551,-0.0272275
0.0296514,0.219524,-1.31883,0.28463,-0.0845208,-0.681582,-0.123876,0.133308,-0.00243992
0.0312953,0.225733,-1.33309,0.377261,-0.0691133,-0.696347,-0.161768,0.130605,0.0208603
0.0333057,0.233428,-1.34804,0.427101,-0.0758236,-0.751495,-0.205202,0.142507,0.0648537
0.0349871,0.241042,-1.36456,0.373629,-0.159132,-0.833028,-0.231112,0.146399,0.118765
0.0353706,0.246635,-1.38272,0.240602,-0.231081,-0.916445,-0.245581,0.159242,0.15056
0.0354416,0.249143,-1.40273,0.073398,-0.251436,-1.0262,-0.260002,0.16355,0.154001
0.0356058,0.248196,-1.4253,-0.0882422,-0.300597,-1.171,-0.261726,0.147115,0.151055
0.0350392,0.244291,-1.45033,-0.206777,-0.362188,-1.26314,-0.221827,0.136919,0.1337
0.0338203,0.238779,-1.47651,-0.249035,-0.391392,-1.30322,-0.179385,0.132498,0.102801
0.0318949,0.232897,-1.50307,-0.255734,-0.417957,-1.30161,-0.127586,0.112709,0.0781589
0.0296593,0.226812,-1.52931,-0.282418,-0.402834,-1.27943,-0.0960797,0.0934789,0.0786502
0.0274077,0.220085,-1.55502,-0.314275,-0.386955,-1.25692,-0.0705054,0.0657244,0.0864896
0.0256042,0.213425,-1.58033,-0.288304,-0.333137,-1.24366,-0.0509604,0.0308847,0.0761578
0.0245646,0.207198,-1.60547,-0.296853,-0.299613,-1.23825,-0.0379985,0.00622508,0.0963274
0.0234429,0.200023,-1.6303,-0.377517,-0.308137,-1.2166,-0.0131161,-0.0310296,0.135188
0.0219455,0.191084,-1.65456,-0.467233,-0.304214,-1.19578,-0.00144843,-0.0606256,0.139094
0.0203997,0.180758,-1.67845,-0.50363,-0.293021,-1.1774,-0.00190791,-0.088154,0.111265
0.0187423,0.170887,-1.70183,-0.433283,-0.281751,-1.15344,0.00571708,-0.109836,0.0593732
0.0171368,0.1629,-1.72471,-0.335096,-0.252588,-1.12357,0.0142647,-0.119664,0.0282269
0.0161943,0.156507,-1.7468,-0.27168,-0.192501,-1.07304,0.0358843,-0.134826,0.0107501
0.0163475,0.151594,-1.76767,-0.182019,-0.116104,-1.00021,0.057556,-0.141848,-0.0150794
0.0176366,0.148658,-1.78709,-0.0896711,-0.055171,-0.929205,0.0690458,-0.147818,-0.0434402
0.0199925,0.146523,-1.80517,-0.113854,0.0453613,-0.873316,0.0760331,-0.156888,-0.0486175
0.0241394,0.14345,-1.82214,-0.139714,0.128077,-0.829267,0.0503297,-0.153169,-0.085282
0.0307344,0.140798,-1.83923,-0.0991549,0.271968,-0.888292,0.0227973,-0.175295,-0.152896
0.037413,0.137885,-1.85739,-0.155229,0.077544,-0.912342,0.0370933,-0.173618,-0.153449
0.0362875,0.13333,-1.87568,-0.223163,-0.458496,-0.924824,0.0195846,-0.117537,-0.175421
0.025488,0.128914,-1.89394,-0.13013,-0.768678,-0.902548,0.0297953,-0.0695938,-0.308089
0.0151393,0.128892,-1.91156,0.179527,-0.41501,-0.847581,0.017244,-0.017262,-0.459047
0.0151393,0.128892,-1.91156,0.179527,-0.41501,-0.847581,0.017244,-0.017262,-0.459047
0.0156666,0.136191,-1.92768,0.564775,0.296922,-0.740824,0.0317204,0.00794731,-0.458585
0.0297112,0.148674,-1.94187,0.660417,0.836349,-0.645453,0.0439852,0.0156349,-0.247537
0.0492917,0.160049,-1.95431,0.512547,0.835024,-0.547168,0.0430481,-0.0125385,0.0115025
0.0631106,0.168294,-1.9654,0.394966,0.326727,-0.515408,0.0271474,-0.035182,0.129234
0.0666006,0.175639,-1.97632,0.433233,-0.0883512,-0.507459,0.00373223,-0.0254277,0.0980939
0.0671345,0.184665,-1.98692,0.539956,0.00410797,-0.470082,-0.0289561,0.0348899,0.0157871
0.071598,0.19539,-1.9967,0.578328,0.26436,-0.413361,-0.021378,0.0671196,0.0248455
0.0796205,0.205509,-2.00516,0.481752,0.317368,-0.333835,0.00455011,0.0717869,0.122722
0.0851466,0.213267,-2.0116,0.345119,0.0611318,-0.223999,0.0269447,0.0847164,0.187961
0.0827982,0.21835,-2.01563,0.195952,-0.402103,-0.144688,0.0278875,0.0911457,0.191555
0.0706022,0.220333,-2.01874,0.0256181,-0.862934,-0.153466,-0.0140437,0.0990786,0.118566
0.0519149,0.219093,-2.02236,-0.117874,-1.0371,-0.209498,-0.0599131,0.127149,-0.0336581
0.0332565,0.216069,-2.02685,-0.141377,-0.884045,-0.245271,-0.0756442,0.159933,-0.188267
0.0211605,0.214331,-2.03204,0.00365669,-0.410678,-0.258664,-0.0765371,0.185136,-0.301069
0.018838,0.216438,-2.03699,0.218902,0.0363825,-0.217481,-0.0693616,0.21196,-0.284949
0.0222738,0.222588,-2.04112,0.385352,0.176007,-0.164972,-0.0589691,0.194372,-0.145884
0.0261421,0.230763,-2.04467,0.430632,0.0968565,-0.178568,-0.0754492,0.176948,0.0209957
0.0276332,0.239267,-2.04932,0.426714,-0.0537307,-0.259564,-0.089434,0.146781,0.123439
0.0267969,0.24729,-2.05611,0.390905,-0.175685,-0.382549,-0.0900349,0.121837,0.179619
0.0249608,0.254139,-2.06548,0.301165,-0.25241,-0.507663,-0.0826129,0.112817,0.219776
0.0213485,0.258183,-2.07704,0.123893,-0.428017,-0.601085,-0.0525301,0.104018,0.259375
0.0139106,0.258512,-2.09051,-0.063441,-0.657362,-0.71201,-0.0357714,0.098401,0.247745
0.00339095,0.255565,-2.10661,-0.210247,-0.791183,-0.859497,-0.0431367,0.0950313,0.169404
-0.00741243,0.25036,-2.1259,-0.307994,-0.751393,-1.00948,-0.0497034,0.104518,0.070344
-0.0153188,0.24434,-2.14802,-0.309178,-0.569706,-1.13566,-0.0476825,0.112033,-0.0295572
-0.018688,0.239638,-2.17275,-0.190676,-0.364952,-1.26228,-0.0547535,0.118271,-0.0990123
-0.0181989,0.238306,-2.19978,0.00908813,-0.236547,-1.35842,-0.0345014,0.116855,-0.11233
-0.0155113,0.240681,-2.22803,0.157485,-0.18118,-1.39322,-0.0013853,0.138403,-0.0455577
-0.0121142,0.244702,-2.25669,0.199142,-0.163568,-1.39974,0.0249214,0.141407,0.0616911
-0.00800819,0.249196,-2.28549,0.220945,-0.131954,-1.40587,0.0316408,0.135815,0.144281
-0.00332086,0.254162,-2.31437,0.268506,-0.1251,-1.40231,0.0351509,0.13826,0.214024
0.001018,0.260062,-2.34327,0.319751,-0.188819,-1.40305,0.036263,0.14038,0.2766
0.00384116,0.266585,-2.3723,0.333654,-0.283163,-1.40398,0.0429407,0.142772,0.336099
0.00465991,0.272512,-2.40172,0.267687,-0.427853,-1.44,0.0550977,0.141863,0.384932
0.00340833,0.277414,-2.43206,0.252241,-0.4999,-1.4833,0.086108,0.133962,0.359665
0.00275192,0.282861,-2.46306,0.301232,-0.402963,-1.49757,0.116223,0.156622,0.308554
0.00490461,0.289048,-2.49369,0.32475,-0.254215,-1.43746,0.175505,0.169699,0.308251
0.00854435,0.295453,-2.52254,0.328979,-0.239226,-1.32533,0.243276,0.173772,0.317277
0.0112339,0.301164,-2.54913,0.251879,-0.247834,-1.21826,0.289977,0.15561,0.293631
0.0146635,0.304323,-2.57352,0.0640323,-0.167556,-1.10201,0.339771,0.0779216,0.240157
0.0161887,0.302456,-2.59476,-0.192588,-0.341882,-0.925593,0.430348,-0.0274975,0.167267
0.0122425,0.297459,-2.61116,-0.257556,-0.490384,-0.661536,0.476073,-0.143568,-0.0216333
0.00686336,0.291584,-2.62335,-0.369703,-0.430788,-0.560461,0.340045,-0.181158,-0.167721
-0.00339814,0.276886,-2.63839,-1.27128,-1.16809,-1.00419,0.0114322,-0.177108,-0.133614
-0.0263647,0.240007,-2.66803,-2.37061,-1.72136,-1.78418,-0.262816,-0.191047,-0.313654
-0.0484267,0.190982,-2.71129,-2.53182,-1.23023,-2.16032,-0.334522,0.00473419,-0.892654
-0.0523244,0.149035,-2.7538,-1.82785,0.15038,-1.70411,-0.198356,0.234834,-1.26885
-0.0337191,0.121587,-2.78059,-1.06814,1.23655,-0.801516,-0.0253741,0.242611,-1.14134
-0.00517089,0.106525,-2.78936,-0.492277,1.39016,-0.122444,-0.0255896,0.0990297,-0.795324
0.0180794,0.100512,-2.7886,-0.146993,0.8684,0.145746,-0.184171,-0.0443566,-0.455985
0.028712,0.0997065,-2.78521,0.0408923,0.271131,0.148438,-0.311524,-0.157203,-0.227835
0.030733,0.101444,-2.7838,0.113809,0.0101616,-0.0146955,-0.380531,-0.24895,-0.0926164
0.0315539,0.103256,-2.7864,0.0657608,0.0773285,-0.242597,-0.395898,-0.267243,0.0118179
0.0352735,0.103429,-2.79307,-0.0298414,0.195355,-0.410954,-0.34686,-0.243343,0.109882
0.0352735,0.103429,-2.79307,-0.0298414,0.195355,-0.410954,-0.34686,-0.243343,0.109882
0.0395276,0.101563,-2.80227,-0.120093,0.123093,-0.50308,-0.268623,-0.200827,0.1919
0.0416939,0.0979478,-2.81278,-0.19513,0.000133781,-0.556271,-0.196893,-0.169115,0.232242
0.0421532,0.0938063,-2.82389,-0.145925,-0.0456403,-0.557213,-0.12655,-0.141713,0.206572
0.0420396,0.0920868,-2.83425,0.0204944,-0.0619565,-0.480274,-0.0644627,-0.0984576,0.171046
0.04097,0.0938902,-2.84287,0.195053,-0.144365,-0.36873,-0.020072,-0.0690131,0.174829
0.0374005,0.0993351,-2.84912,0.371423,-0.273857,-0.229454,0.0248806,-0.0564524,0.170858
0.0312146,0.107568,-2.8527,0.442814,-0.375148,-0.111475,0.0411144,-0.0386507,0.173256
0.023152,0.115961,-2.85452,0.393699,-0.444635,-0.0629757,0.0330664,-0.0500394,0.174536
0.0144259,0.123258,-2.85617,0.342915,-0.44081,-0.103825,0.0197111,-0.0669802,0.123871
0.00730733,0.129952,-2.8594,0.329697,-0.277935,-0.208644,0.00648726,-0.0695714,0.0327862
0.00486949,0.136028,-2.8644,0.2815,-0.0432642,-0.274073,0.0222904,-0.0538749,-0.0342889
0.0068339,0.141774,-2.86972,0.309706,0.156665,-0.237698,0.0759373,-0.0285916,-0.0939949
0.0116194,0.148386,-2.87386,0.346771,0.243361,-0.166387,0.102507,-0.00418136,-0.12011
0.0170683,0.154533,-2.87692,0.252529,0.223774,-0.127084,0.0859344,-2.7433e-05,-0.104147
0.0197078,0.158099,-2.87929,0.113844,-0.0252739,-0.11782,0.0612735,0.00485329,-0.108534
0.0156498,0.159431,-2.88216,0.055814,-0.437008,-0.16106,0.0311954,0.0146069,-0.163957
0.00461285,0.162336,-2.88605,0.265064,-0.680467,-0.198291,0.0176646,0.0472749,-0.268712
-0.00805796,0.170314,-2.88963,0.525773,-0.566841,-0.15201,-0.0170068,0.0991485,-0.327245
-0.0154114,0.182881,-2.89177,0.718801,-0.201769,-0.0690195,-0.0771772,0.125986,-0.260628
-0.0159638,0.198627,-2.89227,0.857557,0.108277,-0.0276564,-0.132788,0.139753,-0.128139
-0.0127104,0.217025,-2.89303,0.992889,0.152725,-0.092524,-0.166299,0.129251,-0.00339502
-0.00985996,0.238559,-2.89592,1.19058,0.144614,-0.24946,-0.150255,0.107228,0.10771
-0.00371786,0.265588,-2.90314,1.49086,0.215802,-0.399791,-0.182692,0.151622,0.158794
-0.00199581,0.29381,-2.90873,1.24129,-0.198259,-0.108321,-0.0905275,0.10146,0.228935
-0.00627835,0.313833,-2.9086,0.790513,-0.139666,0.0443789,-0.0730078,0.0974028,0.348386
-0.00807239,0.326104,-2.90951,0.413945,-0.111844,-0.161644,-0.161802,0.0691188,0.355394
-0.00783531,0.329124,-2.91464,-0.115816,0.0312016,-0.294582,-0.128343,0.0206475,0.352455
-0.00295156,0.32302,-2.92141,-0.4229,0.184265,-0.383317,-0.114877,0.0364721,0.271382
0.00301329,0.314397,-2.93232,-0.433811,0.0176777,-0.674691,-0.126599,-0.00475177,0.151037
0.00507289,0.305918,-2.94959,-0.397672,-0.307909,-0.957587,-0.0854343,-0.0212339,0.0666261
0.00339592,0.298766,-2.97088,-0.318374,-0.481431,-1.05765,-0.0365707,0.0347127,-0.0268185
-0.00113603,0.292823,-2.99228,-0.27957,-0.575548,-0.971537,0.0325513,0.0958314,-0.0988576
-0.00625892,0.287679,-3.01042,-0.244302,-0.405111,-0.763687,0.087392,0.119375,-0.162223
-0.00665422,0.28331,-3.02407,-0.213037,0.0055897,-0.549085,0.111232,0.116068,-0.188842
-5.58843e-05,0.278883,-3.03342,-0.240061,0.360832,-0.349144,0.119744,0.0947402,-0.132097
0.0101637,0.273699,-3.03879,-0.26836,0.48967,-0.178936,0.12141,0.0633092,-0.0564981
0.0201553,0.268497,-3.04116,-0.242528,0.431095,-0.064711,0.10656,0.028283,-0.0128623
0.0272657,0.26432,-3.04158,-0.167344,0.249441,0.00905855,0.0952054,0.000892043,0.00875014
0.0294013,0.262183,-3.04075,-0.0525237,-0.0194723,0.0590875,0.0830119,-0.0158345,0.00103819
0.0263843,0.261695,-3.03939,-0.0145884,-0.229731,0.0704447,0.0733939,-0.0317018,-0.000264823
0.0205568,0.261206,-3.0378,-0.0404522,-0.276949,0.0827821,0.0352413,-0.035181,-0.0243897
0.0156536,0.260203,-3.03602,-0.0599919,-0.15654,0.0791675,-0.00590979,-0.0381942,-0.0685402
0.0137425,0.259207,-3.03476,-0.0368231,-0.00752116,0.0358861,-0.0298846,-0.049228,-0.103047
0.0147438,0.25867,-3.03461,-0.0346319,0.111549,-0.0187178,-0.0456401,-0.0469849,-0.0963624
0.0179975,0.257711,-3.0354,-0.061032,0.179803,-0.0490159,-0.053825,-0.0321955,-0.0569692
0.022436,0.256383,-3.03672,-0.0693484,0.234147,-0.0893223,-0.0661802,-0.0233173,-0.0247361
0.0279633,0.255091,-3.03934,-0.0542944,0.248294,-0.174738,-0.0863201,-0.012605,0.012718
0.0337153,0.254026,-3.04373,-0.0408552,0.224025,-0.258395,-0.095295,0.00198978,0.0576141
0.0390605,0.252919,-3.04959,-0.0571657,0.160342,-0.305406,-0.0996521,0.0347774,0.112177
0.0424769,0.250874,-3.05618,-0.128674,0.0194735,-0.345347,-0.0815401,0.0461789,0.161425
0.0431595,0.246743,-3.06384,-0.2744,-0.140963,-0.422743,-0.0659788,0.0487819,0.199447
0.0409903,0.238763,-3.07309,-0.485073,-0.289705,-0.504346,-0.0491852,0.0436756,0.204275
0.0370288,0.227615,-3.08336,-0.561922,-0.326471,-0.534661,-0.0225004,0.0391926,0.131453
0.032816,0.216865,-3.09377,-0.461565,-0.318306,-0.51303,0.00380129,0.0535942,0.0298992
0.032816,0.216865,-3.09377,-0.461565,-0.318306,-0.51303,0.00380129,0.0535942,0.0298992
0.0291827,0.208838,-3.10328,-0.323016,-0.227804,-0.43575,0.0494125,0.0526143,-0.0229833
0.0276644,0.202765,-3.11095,-0.282398,-0.0818603,-0.342012,0.0886742,0.0417566,-0.0108973
0.0284545,0.196163,-3.11719,-0.379251,0.0263259,-0.298511,0.0991091,0.0126866,0.0361803
0.0305958,0.187024,-3.12291,-0.519082,0.069561,-0.296843,0.0950644,-0.0229571,0.0598151
0.0329016,0.175964,-3.12869,-0.549488,0.0613822,-0.308273,0.103522,-0.0509097,0.0260328
0.0350797,0.16564,-3.13455,-0.456724,0.0452267,-0.298513,0.121612,-0.0503718,-0.0242731
0.0363245,0.157494,-3.13961,-0.348597,0.00762679,-0.222425,0.153937,-0.0435806,-0.049939
0.0371762,0.151191,3.14033,-0.277989,0.0332662,-0.118593,0.16632,-0.0394629,-0.0589046
0.0383298,0.146421,3.13928,-0.187224,0.0679183,-0.0040928,0.160057,-0.0375122,-0.0670758
0.0397271,0.143776,3.14014,-0.0837777,0.0797957,0.071739,0.136383,-0.0398238,-0.0726834
0.0408447,0.142863,-3.1411,-0.0278609,0.0564962,0.114819,0.112735,-0.0493038,-0.0473289
0.0411675,0.142389,-3.13841,-0.0403695,0.00465285,0.151295,0.0917069,-0.0451339,-0.0136444
0.0402607,0.141295,-3.13528,-0.0761108,-0.0410241,0.148383,0.0634227,-0.0434553,-0.00625116
0.0394709,0.139752,-3.13282,-0.0903241,-0.00421069,0.0871109,0.0222644,-0.0514374,-0.0355451
0.0399641,0.137868,-3.13166,-0.109614,0.0578714,0.0249745,0.0120155,-0.0508312,-0.0556593
0.0416748,0.135487,-3.13151,-0.127512,0.107949,-0.0158903,0.0239961,-0.0455912,-0.0660701
0.0447293,0.133215,-3.13206,-0.0980511,0.188783,-0.0455238,0.0288171,-0.0380004,-0.0909519
0.0495537,0.131569,-3.13292,-0.0717108,0.278814,-0.0406457,0.0325902,-0.0194148,-0.0940576
0.055605,0.130046,-3.13327,-0.0848953,0.313228,0.0036271,0.0538254,-0.00946525,-0.0608036
0.0615619,0.128267,-3.13231,-0.0998623,0.290609,0.085249,0.0777152,0.00410633,-0.0310441
0.0665877,0.126511,-3.12933,-0.0925737,0.254033,0.20051,0.0856503,0.022643,-0.0140202
0.0708718,0.125387,-3.12405,-0.055025,0.249795,0.3133,0.0901438,0.0211924,-0.00973094
0.0750423,0.125107,-3.11653,-0.0336683,0.258064,0.428264,0.107636,0.0118657,0.0143248
0.0788085,0.125062,-3.10663,-0.0541183,0.229711,0.556026,0.135603,0.00303254,0.0663503
0.0806167,0.124714,-3.0937,-0.0748697,0.103058,0.73384,0.18952,-0.00909329,0.111646
0.0794174,0.124751,-3.077,-0.0526625,-0.0205813,0.920907,0.236209,-0.0200884,0.128399
0.0750391,0.125267,-3.05681,-0.0544009,-0.175581,1.09126,0.291357,-0.028381,0.144295
0.0660501,0.125772,-3.03332,-0.0533878,-0.425569,1.2376,0.361414,-0.0387586,0.131616
0.0532917,0.12683,-3.00699,0.00730709,-0.490241,1.38995,0.451632,-0.0328421,0.0648699
0.0404642,0.128716,-2.97682,0.0188712,-0.404427,1.63754,0.52644,0.0159032,0.00718164
0.0290284,0.129721,-2.94039,-0.0438085,-0.270129,2.00094,0.560453,0.0840999,-0.0468141
0.0203487,0.130019,-2.89655,-0.0159492,-0.0335001,2.34291,0.530468,0.118987,-0.151956
0.0152117,0.131619,-2.84685,0.104289,0.159242,2.58677,0.461254,0.129118,-0.237325
0.0132072,0.136322,-2.79315,0.304929,0.367738,2.75766,0.392296,0.121893,-0.291987
0.014914,0.145197,-2.73647,0.496085,0.557711,2.87329,0.300154,0.109119,-0.31442
0.0175988,0.15777,-2.67842,0.679777,0.607769,2.88338,0.197754,0.0807153,-0.315261
0.0222753,0.174433,-2.62189,0.884962,0.823976,2.71556,0.0807562,0.0260276,-0.341271
0.0326412,0.195007,-2.57018,1.01803,1.16753,2.43042,-0.00969323,0.00680752,-0.316397
0.0498099,0.217463,-2.52439,1.03693,1.47942,2.16828,-0.0422995,-0.00244763,-0.239729
0.0727415,0.240662,-2.48376,1.0472,1.75763,1.93414,-0.0751605,0.0153081,-0.170304
0.100974,0.264673,-2.44811,1.04594,1.93331,1.72468,-0.113223,0.0485809,-0.0828136
0.130427,0.288574,-2.41742,0.993319,1.79868,1.48597,-0.142197,0.075647,0.0170976
0.154352,0.312014,-2.39239,1.02999,1.32309,1.22163,-0.146667,0.127884,0.0601384
0.171752,0.337668,-2.37369,1.19839,1.10446,0.956058,-0.196597,0.240269,-0.00257301
0.18958,0.362603,-2.36004,0.943128,1.15792,0.78531,-0.251815,0.367725,0.0386474
0.208717,0.379153,-2.3457,0.423934,1.25104,0.908991,-0.188811,0.419343,0.144001
0.221855,0.388395,-2.32538,0.158465,0.711016,1.11648,-0.0471414,0.29687,0.157275
0.220767,0.398939,-2.30308,0.478655,0.118734,1.09901,-0.0661929,0.229078,0.0111851
0.213161,0.416247,-2.28475,0.80069,-0.0931357,0.905957,-0.148016,0.254948,-0.0428247
0.207954,0.4343,-2.27186,0.635466,0.172063,0.61925,-0.188222,0.309066,0.0436719
0.212369,0.443423,-2.26287,0.0563301,0.667047,0.385475,-0.175178,0.358005,0.15271
0.227027,0.439542,-2.25489,-0.572875,1.11984,0.260703,-0.140302,0.357181,0.196545
0.245988,0.425647,-2.24453,-0.929542,1.12561,0.369405,-0.0456082,0.304237,0.178048
0.258629,0.410822,-2.22916,-0.794553,0.712031,0.628711,-0.00588305,0.270197,0.0941874
0.258629,0.410822,-2.22916,-0.794553,0.712031,0.628711,-0.00588305,0.270197,0.0941874
0.260501,0.402632,-2.21052,-0.460916,0.273018,0.791132,-0.0434102,0.21281,0.0484921
0.254862,0.398239,-2.19243,-0.409925,-0.208031,0.674727,-0.130424,0.0866174,0.124271
0.242554,0.392491,-2.17781,-0.525055,-0.355587,0.490899,-0.123423,0.0191181,0.0635999
0.232782,0.380649,-2.16598,-0.920021,-0.163289,0.325782,-0.186311,0.0217459,0.0610212
0.226034,0.36059,-2.15342,-1.25338,-0.0993488,0.388643,-0.144943,0.00967115,0.0270001
0.218353,0.338205,-2.13827,-1.20291,-0.146933,0.505587,-0.137471,-0.0340507,-0.112159
0.21003,0.319336,-2.12239,-0.952469,-0.171458,0.553736,-0.155224,-0.119154,-0.213571
0.202299,0.305938,-2.10727,-0.664712,-0.14271,0.595019,-0.167635,-0.159887,-0.243081
0.194762,0.297653,-2.0922,-0.440882,-0.182123,0.658957,-0.136454,-0.160779,-0.194143
0.187022,0.293374,-2.07723,-0.278432,-0.146376,0.648932,-0.116511,-0.152833,-0.141343
0.18022,0.290139,-2.06406,-0.2942,-0.165355,0.529251,-0.139573,-0.133242,-0.0708796
0.173619,0.285299,-2.0532,-0.363952,-0.166539,0.430955,-0.146279,-0.109334,-0.0485314
0.168399,0.27975,-2.04325,-0.312563,-0.078944,0.430571,-0.112504,-0.0959698,-0.074978
0.165617,0.277558,-2.03369,-0.0383672,0.0555157,0.445419,-0.0908784,-0.0776771,-0.127695
0.165432,0.281079,-2.02469,0.210781,0.168456,0.474138,-0.0659303,-0.0666927,-0.104057
0.166243,0.287148,-2.01535,0.207411,0.161208,0.510436,-0.0390589,-0.070954,-0.00332421
0.165813,0.291918,-2.00524,0.105124,0.0707117,0.53073,-0.0374661,-0.0723943,0.057382
0.162949,0.29509,-1.99442,0.0391271,-0.0516208,0.542942,-0.0324745,-0.0659093,0.0599313
0.157465,0.297023,-1.98331,-0.0138725,-0.152083,0.537488,-0.0324251,-0.0485881,0.0532838
0.151199,0.298045,-1.97222,-0.0429863,-0.138377,0.528068,-0.0206462,-0.0293461,0.0357811
0.146103,0.298912,-1.96086,-0.032967,-0.0323597,0.569063,-0.00778018,-0.00570583,0.0203966
0.142865,0.300151,-1.94826,-0.0165077,0.0838492,0.638261,0.00195587,-0.000600338,0.0313139
0.141299,0.301811,-1.93488,-0.00952115,0.139059,0.6433,-0.00984558,-0.0133886,0.057604
0.140322,0.303159,-1.9221,-0.0317752,0.158193,0.580566,-0.0270382,-0.0263078,0.0912272
0.140944,0.303571,-1.91094,-0.0868253,0.242672,0.482846,-0.0337583,-0.0244041,0.121631
0.143848,0.30254,-1.90129,-0.147529,0.336047,0.428717,-0.0127881,-0.00259134,0.148474
0.148297,0.300541,-1.8918,-0.179533,0.378143,0.461417,0.0268073,0.0229961,0.156744
0.152532,0.298878,-1.88063,-0.141811,0.36569,0.583759,0.0499546,0.0500636,0.153052
0.155652,0.298953,-1.86667,-0.0511671,0.36843,0.742051,0.0375056,0.0750068,0.1503
0.158026,0.301462,-1.84955,0.0416849,0.378865,0.914725,0.00912097,0.0784262,0.158001
0.159757,0.306173,-1.82969,0.127009,0.392639,1.02322,-0.0328448,0.0486198,0.169532
0.161749,0.312948,-1.80869,0.218601,0.447715,1.05445,-0.0824526,-0.00307918,0.172028
0.164056,0.321293,-1.78853,0.284586,0.398058,0.965573,-0.125041,-0.0696277,0.18209
0.164703,0.329499,-1.77101,0.2264,0.191641,0.800073,-0.166445,-0.0920954,0.205037
0.160933,0.334806,-1.75644,0.0717072,-0.0650797,0.672673,-0.217138,-0.029919,0.200397
0.154036,0.336738,-1.74285,-0.0781291,-0.158743,0.641669,-0.260289,0.0436368,0.123595
0.14667,0.336583,-1.72861,-0.105474,-0.083202,0.705139,-0.299673,0.0616786,0.0200275
0.140537,0.338397,-1.71262,0.102574,-0.0282311,0.827362,-0.326299,0.0416772,-0.0896936
0.133264,0.346449,-1.69438,0.475203,-0.10738,0.991541,-0.319693,-0.00446513,-0.142844
0.122175,0.362216,-1.67412,0.825072,-0.311611,1.07526,-0.322582,-0.052666,-0.125201
0.106272,0.381925,-1.65451,0.8629,-0.58485,0.928611,-0.413813,-0.0684544,-0.0327
0.0865349,0.397739,-1.64052,0.545687,-0.852188,0.45605,-0.497908,-0.106593,0.038622
0.0678275,0.404028,-1.63968,0.067972,-0.965546,-0.359055,-0.574602,-0.131762,0.0216647
0.0547572,0.399932,-1.65625,-0.372056,-0.972439,-1.15744,-0.49464,-0.111254,-0.0379958
0.0488494,0.387629,-1.68689,-0.707193,-0.749965,-1.70752,-0.277919,-0.0555538,-0.117716
0.0533818,0.369014,-1.72653,-0.962301,-0.230398,-2.05061,-0.118154,0.0244839,-0.198848
0.069321,0.345417,-1.77088,-1.13312,0.225212,-2.22321,0.011959,0.0999263,-0.220826
0.0888579,0.319077,-1.81473,-1.1358,0.218226,-2.06858,0.193555,0.157471,-0.209357
0.101497,0.29496,-1.85118,-0.911672,-0.060448,-1.59738,0.354866,0.188055,-0.223678
0.105213,0.27726,-1.87634,-0.610083,-0.250178,-0.984347,0.433065,0.185221,-0.240424
0.102593,0.266182,-1.88955,-0.379843,-0.353151,-0.435026,0.423059,0.132252,-0.230919
0.0966414,0.259497,-1.8945,-0.257158,-0.36332,-0.148223,0.31447,0.0552241,-0.212643
0.090511,0.255092,-1.89605,-0.160308,-0.284174,-0.0687753,0.208039,-0.00996423,-0.197087
0.0872971,0.253427,-1.89758,0.00961714,-0.0432948,-0.0984498,0.126704,-0.0378362,-0.198362
0.0872971,0.253427,-1.89758,0.00961714,-0.0432948,-0.0984498,0.126704,-0.0378362,-0.198362
0.0894057,0.254481,-1.89973,0.0962131,0.194824,-0.0869566,0.11383,-0.0356863,-0.11856
0.0952694,0.256221,-1.90147,0.08209,0.363739,-0.0838265,0.111288,-0.0525268,-0.00987154
0.10567,0.256668,-1.90418,-0.0422946,0.558131,-0.191597,0.0528432,-0.0567026,0.153451
0.118251,0.249635,-1.90845,-0.632472,0.119841,-0.340133,0.113221,-0.115986,0.51793
0.114157,0.235787,-1.91669,-0.531292,-0.47548,-0.616856,0.0924443,-0.138218,0.295073
0.106203,0.227231,-1.93099,-0.186301,-0.682841,-0.844705,0.0845569,-0.155029,0.143579
0.0975465,0.223878,-1.94879,-0.0320158,-0.523336,-0.874458,0.0988559,-0.0460384,0.164867
0.0913807,0.220383,-1.96444,-0.179523,-0.471186,-0.657251,0.187794,-0.000283778,0.267412
0.0844563,0.215915,-1.97448,-0.118506,-0.417931,-0.369735,0.228897,0.0245288,0.251192
0.0788167,0.216396,-1.97999,0.230894,-0.258447,-0.184568,0.197973,0.0166063,0.166089
0.0757879,0.224145,-1.98312,0.550157,-0.126478,-0.0638637,0.163255,0.00489666,0.149417
0.073649,0.23703,-1.98433,0.721841,-0.139756,0.0399221,0.162331,-0.000290781,0.189513
0.0698498,0.25219,-1.9839,0.781987,-0.225601,0.104676,0.142971,0.00245515,0.218067
0.0650835,0.268434,-1.9825,0.836692,-0.207778,0.134284,0.113638,0.00791305,0.195194
0.0614103,0.285878,-1.98084,0.897101,-0.100454,0.128718,0.0744505,0.0192743,0.141291
0.0601856,0.303824,-1.97978,0.866878,-0.0054052,0.0699233,0.0416505,0.0222552,0.103732
0.0607679,0.319461,-1.98013,0.671995,0.0476029,0.00216854,0.0181327,0.0242144,0.0676322
0.0615999,0.329551,-1.98051,0.330904,0.00194713,0.0368461,0.0370736,0.00840247,0.023754
0.0587235,0.333095,-1.97902,0.0446497,-0.265493,0.124338,0.0528279,-0.00912085,-0.0678549
0.0502641,0.332547,-1.97649,-0.110146,-0.48536,0.0752302,-0.00838192,-0.0332742,-0.218318
0.0391139,0.328252,-1.9766,-0.327305,-0.598411,-0.103973,-0.0785504,-0.0502309,-0.330881
0.0294684,0.318585,-1.98083,-0.657245,-0.490847,-0.343493,-0.155911,-0.040796,-0.438642
0.0241671,0.300827,-1.99011,-1.09016,-0.308125,-0.570223,-0.188668,-0.0368042,-0.516852
0.0252053,0.276933,-2.00245,-1.19789,0.0939569,-0.642632,-0.111355,-0.0543371,-0.63736
0.0351999,0.256023,-2.01386,-0.814053,0.625221,-0.489043,-0.0327179,-0.00143361,-0.721137
0.0542877,0.244373,-2.02033,-0.352226,1.06043,-0.173104,-0.006552,0.0546617,-0.613294
0.0756749,0.240488,-2.02004,-0.0586862,1.01914,0.163464,-0.0193345,0.0637991,-0.358065
0.0927138,0.242305,-2.01454,0.190711,0.827094,0.35828,-0.0681937,0.0186425,-0.185558
0.105245,0.249037,-2.00681,0.394573,0.622472,0.439193,-0.0890995,-0.0254559,-0.0450471
0.11594,0.258629,-1.99893,0.379682,0.84217,0.422011,-0.12285,-0.0104803,0.132035
0.124651,0.260053,-1.99088,-0.232821,-0.0654735,0.302326,-0.114625,-0.0578098,0.573411
0.119349,0.256938,-1.98647,-0.0634935,-0.260685,0.0677374,-0.17456,-0.101257,0.329784
0.112781,0.258002,-1.98733,0.156194,-0.387491,-0.0996864,-0.176185,-0.0635152,0.247746
0.107175,0.260907,-1.99005,0.104338,-0.239238,-0.117917,-0.120638,-0.0177388,0.335537
0.102671,0.260128,-1.99183,-0.148184,-0.311946,-0.0464624,-0.0834938,0.0266283,0.439097
0.0961709,0.256964,-1.99154,-0.125349,-0.269218,0.0328359,-0.0479785,0.022837,0.355321
0.0928806,0.256812,-1.99033,0.109972,-0.0189401,0.084951,-0.0562886,0.00355583,0.231804
0.093657,0.261892,-1.98802,0.366216,0.138164,0.202982,-0.0379172,0.0265175,0.209197
0.0961751,0.27119,-1.98265,0.488475,0.233598,0.405723,-0.0144533,0.0606337,0.240556
0.0972634,0.282249,-1.97307,0.536133,0.11169,0.614016,-0.0059872,0.0701276,0.264989
0.093763,0.295521,-1.95994,0.681226,-0.0989295,0.75719,-0.0166299,0.0610904,0.23202
0.0849118,0.312284,-1.94511,0.8679,-0.326114,0.790586,-0.0524943,0.0737282,0.182687
0.0736973,0.332484,-1.93077,1.0324,-0.283289,0.711437,-0.0990933,0.0803286,0.114315
0.0664793,0.354116,-1.91895,1.01485,-0.0558652,0.542934,-0.101508,0.0645807,0.0989369
0.0638763,0.372717,-1.91056,0.764114,0.0673695,0.372088,-0.0398426,0.0323602,0.111861
0.0621012,0.38423,-1.90467,0.333992,-0.0685201,0.255361,0.0734301,-0.000428915,0.090034
0.0558166,0.386284,-1.89982,-0.156792,-0.398051,0.216963,0.177663,-0.0424556,-0.0209433
0.0422898,0.379352,-1.89517,-0.516411,-0.739765,0.16664,0.178136,-0.0368314,-0.250408
0.0264393,0.367841,-1.89228,-0.609165,-0.659877,0.0612515,0.0674496,-0.0211357,-0.575979
0.0176088,0.356634,-1.89155,-0.49808,-0.220488,0.00608264,0.0503337,-0.0318134,-0.786365
0.0157643,0.349363,-1.89042,-0.202507,0.104597,0.108079,0.093343,0.00858989,-0.837549
0.0211285,0.348551,-1.88708,0.0920581,0.534131,0.188926,0.0141706,0.043151,-0.809304
0.0350106,0.352221,-1.88326,0.226869,0.968643,0.180254,-0.0403922,0.0607731,-0.599808
0.0350106,0.352221,-1.88326,0.226869,0.968643,0.180254,-0.0403922,0.0607731,-0.599808
0.0536487,0.355443,-1.87976,0.0306737,0.984575,0.150123,0.00807859,0.0485523,-0.241881
0.071162,0.351534,-1.87796,-0.397979,0.633303,-0.0590431,0.0261113,-0.0553353,0.0844035
0.0824339,0.342401,-1.88078,-0.470167,0.50535,-0.239557,0.0283353,-0.088475,0.0394911
0.093148,0.331105,-1.88568,-0.647949,0.364763,-0.2885,0.00910008,-0.0481718,0.119883
0.0982947,0.315434,-1.88811,-0.887445,0.0528427,-0.0730756,0.0697609,-0.00974742,0.23956
0.0953334,0.296535,-1.88566,-0.982786,-0.279777,0.100997,0.055572,-0.00649756,0.261567
0.0854865,0.280011,-1.88115,-0.62105,-0.484308,0.16166,-0.00471001,-0.0338903,0.111702
0.0762407,0.273629,-1.87702,-0.0812416,-0.33835,0.197769,-0.0304864,-0.0437984,0.0148855
0.0681938,0.275749,-1.87169,0.218766,-0.33153,0.347131,0.0223546,-0.0173894,0.104257
0.059415,0.281677,-1.86288,0.279389,-0.296979,0.537942,0.045545,0.0154704,0.208026
0.0506045,0.286767,-1.85004,0.153789,-0.233383,0.717776,0.0456601,0.01912,0.278278
0.0421438,0.289397,-1.83463,0.0451077,-0.183683,0.744484,-0.00546715,0.00600129,0.291061
0.0339968,0.290114,-1.82064,-0.0144107,-0.234481,0.573685,-0.0689162,-0.0131477,0.268265
0.0271342,0.289513,-1.81177,-0.0894761,-0.180252,0.266986,-0.121293,-0.0370699,0.229591
0.0231587,0.286176,-1.80943,-0.262848,-0.172822,-0.0431246,-0.1192,-0.0402388,0.229703
0.0195351,0.279079,-1.81254,-0.434487,-0.301321,-0.254345,-0.0762273,-0.0102965,0.224676
0.0133105,0.269259,-1.81859,-0.52789,-0.483266,-0.331154,-0.016874,0.0325117,0.197922
0.00460005,0.258775,-1.82536,-0.50385,-0.538245,-0.330396,0.0291531,0.069282,0.161869
-0.00316461,0.249984,-1.83172,-0.359412,-0.364559,-0.273394,0.0504754,0.102872,0.145379
-0.00687775,0.244912,-1.83618,-0.144222,-0.12162,-0.148589,0.0641524,0.129205,0.181012
-0.00719517,0.244403,-1.83776,0.0898868,0.0308374,-0.0105506,0.060082,0.144016,0.249493
-0.00664185,0.248279,-1.83678,0.286872,0.0344987,0.0924507,0.0453634,0.140588,0.332032
-0.00670695,0.255185,-1.83448,0.386763,0.0211924,0.112456,0.014699,0.130354,0.394078
-0.00696793,0.262463,-1.83265,0.321126,0.00499688,0.0451147,0.0132601,0.106842,0.446413
-0.00681398,0.266922,-1.83263,0.107157,-0.00659154,-0.0429636,0.0337181,0.0760506,0.457942
-0.00810081,0.266258,-1.83373,-0.172598,-0.179261,-0.0475844,0.0780668,0.045807,0.404092
-0.0141373,0.260512,-1.83398,-0.407759,-0.410828,0.0457668,0.104602,0.0186531,0.234198
-0.023744,0.24993,-1.83211,-0.601902,-0.508167,0.154992,0.114008,0.00260033,0.00106633
-0.035738,0.236125,-1.82928,-0.830943,-0.653477,0.111944,0.040278,-0.0188706,-0.273669
-0.0514503,0.213759,-1.83022,-1.44813,-0.90065,-0.113639,-0.102666,-0.0492326,-0.487172
-0.0650495,0.180576,-1.83756,-1.84476,-0.540744,-0.42761,-0.155642,-0.152496,-0.788222
-0.07064,0.144171,-1.85157,-1.84326,-0.285799,-0.658158,-0.100912,-0.129384,-1.00442
-0.0722419,0.111164,-1.86654,-1.539,-0.0454161,-0.541809,-0.00309545,-0.0431484,-1.08491
-0.0690709,0.0850408,-1.87606,-1.13753,0.293037,-0.202758,0.0232497,0.0262531,-1.02042
-0.0585933,0.0670399,-1.87758,-0.655946,0.749736,0.160994,0.0316949,-0.000408351,-0.856696
-0.0395963,0.0594771,-1.87204,-0.0699692,1.17213,0.419893,0.036327,-0.0512147,-0.60509
-0.0141732,0.0630464,-1.86139,0.433816,1.42465,0.643134,0.0418089,-0.0777729,-0.271435
0.0145742,0.0750304,-1.84609,0.733133,1.52857,0.890266,0.0277342,-0.0586001,0.0674999
0.0428156,0.0911652,-1.82655,0.794481,1.44755,1.10046,-0.0159218,-0.0281932,0.343796
0.067292,0.107472,-1.80389,0.698685,1.22304,1.2356,-0.0562941,-0.028202,0.543967
0.086112,0.122261,-1.7795,0.604933,0.939473,1.29027,-0.0882932,-0.0463781,0.647274
0.0988558,0.136967,-1.75478,0.657866,0.662746,1.28678,-0.1045,-0.0476035,0.664265
0.106316,0.154103,-1.7308,0.808578,0.445253,1.24749,-0.104721,-0.0190676,0.659938
0.10976,0.173257,-1.70824,0.823031,0.24089,1.17901,-0.123235,0.0181409,0.673834
0.106903,0.190642,-1.68637,0.666582,-0.133689,1.16927,-0.0641778,0.0383205,0.676625
0.0965548,0.205065,-1.66338,0.567498,-0.426752,1.2339,0.00806264,0.0587184,0.558777
0.0814284,0.218086,-1.63822,0.506387,-0.529182,1.34045,0.0502117,0.102531,0.366114
0.0669238,0.228627,-1.61104,0.312992,-0.246049,1.36959,0.0184236,0.113573,0.153179
0.0598296,0.231555,-1.58377,-0.24112,0.101838,1.28968,0.0159598,0.0389094,0.00996023
0.0547716,0.222055,-1.55945,-0.804835,-0.186351,0.960562,-0.0120792,-0.0971027,-0.163955
0.0393121,0.203152,-1.54634,-1.13075,-1.11923,0.19493,-0.208782,-0.146281,-0.466435
0.0108322,0.179728,-1.54829,-1.13544,-1.63282,-0.371485,-0.211951,-0.117777,-0.822501
-0.0171541,0.161753,-1.55829,-0.606082,-1.2202,-0.568102,-0.0782701,-0.0495225,-1.13985
-0.0313799,0.156887,-1.5694,0.0472049,-0.389663,-0.477477,0.0138844,0.0560096,-1.17007
-0.0313799,0.156887,-1.5694,0.0472049,-0.389663,-0.477477,0.0138844,0.0560096,-1.17007
-0.0316907,0.160814,-1.57643,0.247611,0.18925,-0.221326,0.0143699,0.124645,-0.89261
-0.0250804,0.164999,-1.5786,0.161521,0.394708,-0.0356348,-0.0427218,0.108007,-0.573126
-0.017601,0.168557,-1.5794,0.237035,0.30982,-0.0925576,-0.0934127,0.00886983,-0.369519
-0.0126668,0.175057,-1.58329,0.388939,0.106984,-0.308988,-0.105386,-0.0462644,-0.202267
-0.0105476,0.182853,-1.59148,0.347989,-0.00946893,-0.486615,-0.0771222,-0.0428807,-0.0267965
-0.00845024,0.187663,-1.60191,0.102525,0.0430522,-0.516654,-0.0129078,-0.0267547,0.124742
-0.00500428,0.186922,-1.61118,-0.167217,0.126982,-0.376047,0.0546303,-0.0203722,0.216379
-0.000629751,0.182281,-1.6167,-0.268139,0.20621,-0.174175,0.0908141,-0.0375382,0.242542
0.00400962,0.177627,-1.61879,-0.168208,0.208954,-0.0472655,0.0763301,-0.0479609,0.250035
0.00747641,0.176399,-1.61885,0.0575298,0.124758,0.0331166,0.0735419,-0.0679688,0.27988
0.00855867,0.179848,-1.61768,0.280016,0.00423882,0.0866478,0.0875421,-0.0670764,0.340509
0.00741789,0.186686,-1.61516,0.382307,-0.0677626,0.177472,0.103002,-0.0396007,0.424126
0.00435656,0.193855,-1.61007,0.30186,-0.161915,0.34209,0.118101,-0.00483607,0.519056
-0.00317486,0.197228,-1.60105,0.00829796,-0.415338,0.541049,0.111191,0.0215742,0.583392
-0.0165656,0.193002,-1.58879,-0.430484,-0.704223,0.66639,0.0821601,0.000369728,0.53298
-0.0355106,0.18098,-1.57458,-0.675824,-0.886774,0.750831,0.0850638,-0.0676868,0.316269
-0.0556282,0.168192,-1.56058,-0.471769,-0.868584,0.653745,0.036001,-0.114079,-0.0330615
-0.0720784,0.162858,-1.55052,0.0100954,-0.576642,0.346015,-0.0188721,-0.146806,-0.317399
-0.0793597,0.166858,-1.54705,0.38459,-0.0868069,-0.0359964,-0.0195418,-0.19323,-0.401849
-0.0757508,0.176975,-1.55073,0.567508,0.368314,-0.391188,-0.00529172,-0.172717,-0.310785
-0.0638488,0.189617,-1.56014,0.618454,0.616907,-0.596634,0.033182,-0.0929659,-0.132534
-0.0478371,0.203246,-1.57237,0.690458,0.738666,-0.66838,0.0762537,-0.0446867,0.0213564
-0.0297619,0.219034,-1.58575,0.853296,0.782351,-0.701221,0.0818115,-0.000486612,0.151808
-0.0110702,0.237928,-1.59994,0.991453,0.755997,-0.71811,0.0651864,0.051577,0.290006
0.00678409,0.258016,-1.61468,0.993556,0.669535,-0.711221,0.0472889,0.099279,0.431842
0.0234577,0.276264,-1.62932,0.832474,0.613094,-0.677483,0.0360735,0.116575,0.541772
0.0384754,0.28942,-1.64356,0.503927,0.481777,-0.658129,0.0388177,0.0896566,0.617429
0.0500622,0.294538,-1.65738,0.0550265,0.256,-0.641592,0.0490071,0.04161,0.645008
0.0547004,0.2905,-1.66999,-0.378027,-0.187671,-0.604475,0.0372937,-0.00423351,0.559634
0.0485487,0.278718,-1.68334,-0.756936,-0.846307,-0.786604,-0.0223495,-0.0194324,0.34231
0.0287302,0.256219,-1.70309,-1.46476,-1.59631,-1.22805,-0.147997,0.0444103,0.0343234
0.0046377,0.220497,-1.73213,-1.99425,-1.36542,-1.63934,-0.200875,0.0597488,-0.507269
-0.00745143,0.181173,-1.76789,-1.8501,-0.484578,-1.80031,-0.14683,0.131737,-1.08472
1.90284e-05,0.150937,-1.80167,-1.16586,0.673877,-1.43876,-0.0390812,0.306294,-1.37898
0.024552,0.134166,-1.82314,-0.527122,1.35838,-0.68619,0.0211882,0.403966,-1.2544
0.0532615,0.12853,-1.82978,-0.0356445,1.34559,-0.0451129,0.0043776,0.296954,-0.91087
0.0752142,0.131493,-1.82701,0.288119,0.858888,0.30821,-0.0638133,0.143627,-0.557288
0.0863578,0.139295,-1.81936,0.392897,0.389221,0.488446,-0.153027,0.0360465,-0.27363
0.0899887,0.147168,-1.80979,0.283378,0.149977,0.50439,-0.25427,-0.0284878,-0.0565602
0.0908875,0.151591,-1.80104,0.0827169,0.0902005,0.380461,-0.331802,-0.0947622,0.0912788
0.0918816,0.152048,-1.79591,-0.0760528,0.080256,0.111963,-0.383266,-0.148616,0.181483
0.0931735,0.149561,-1.79681,-0.152049,0.0325023,-0.224412,-0.389226,-0.167845,0.247426
0.0942511,0.145951,-1.80419,-0.127801,-0.0241907,-0.524371,-0.346331,-0.168547,0.278678
0.0949611,0.142894,-1.81624,-0.0661137,-0.10073,-0.668507,-0.246776,-0.140032,0.317258
0.0938267,0.140913,-1.82961,-0.00409309,-0.1838,-0.64707,-0.148058,-0.0869855,0.342865
0.0920175,0.140474,-1.84145,0.0554273,-0.159568,-0.522112,-0.0748692,-0.0493951,0.359328
0.0901678,0.140578,-1.85061,0.0226244,-0.153325,-0.389943,-0.0404817,-0.0282043,0.383192
0.0876536,0.139685,-1.8575,-0.0535252,-0.209365,-0.314279,-0.0300632,-0.0413875,0.390786
0.0836273,0.137875,-1.86364,-0.0574339,-0.265241,-0.313511,-0.0262795,-0.0732239,0.337253
0.0795775,0.137077,-1.86984,0.0369615,-0.205425,-0.30085,-0.0204134,-0.0747622,0.261594
0.077837,0.138845,-1.87556,0.187392,-0.0433769,-0.241603,0.00367843,-0.063703,0.20332
0.0784014,0.143684,-1.87976,0.312456,-0.00169681,-0.136988,0.0335242,-0.0518326,0.202201
0.0773702,0.150449,-1.88198,0.374207,-0.138875,-0.0328185,0.0264855,-0.0324757,0.220228
0.0735715,0.158608,-1.88243,0.458082,-0.234221,0.039212,-0.00655758,-0.00663726,0.197561
0.0735715,0.158608,-1.88243,0.458082,-0.234221,0.039212,-0.00655758,-0.00663726,0.197561
0.0691681,0.169419,-1.88228,0.64158,-0.183981,0.0406658,-0.0530172,0.0162352,0.142658
0.066839,0.184536,-1.88266,0.871833,-0.0484932,0.0346178,-0.0784115,0.0388216,0.112434
0.0667088,0.203895,-1.88272,1.04796,0.00810244,0.102887,-0.0464186,0.0684672,0.14297
0.0655724,0.22605,-1.88064,1.14856,-0.0951376,0.261856,0.0241544,0.0840692,0.153999
0.061504,0.25002,-1.87497,1.20166,-0.14656,0.422333,0.0218822,0.103518,0.0863535
0.0559985,0.273148,-1.86762,1.0266,-0.26144,0.394689,-0.0451814,0.0731241,0.0314854
0.0451493,0.28888,-1.86249,0.4291,-0.739025,0.146297,-0.066396,0.0106788,0.0129455
0.0245687,0.28727,-1.86394,-0.607791,-1.32361,-0.296601,-0.113464,-0.00191307,-0.0664454
-0.000730392,0.266868,-1.87423,-1.31624,-1.4451,-0.718945,-0.130841,-0.05422,-0.381178
-0.0231149,0.2401,-1.89413,-1.29399,-1.23422,-1.16745,-0.152431,-0.0298695,-0.78482
-0.0363531,0.218881,-1.92154,-0.915833,-0.665451,-1.39628,-0.114211,0.0619857,-0.971602
-0.0367364,0.203811,-1.95075,-0.758115,-0.00556739,-1.38489,-0.0530975,0.14033,-0.851391
-0.0267424,0.189196,-1.97851,-0.814585,0.404078,-1.30906,0.030382,0.103718,-0.593833
-0.0125725,0.173065,-2.00512,-0.833707,0.504486,-1.28722,0.0781956,0.0146251,-0.38669
0.00154802,0.157902,-2.03089,-0.669389,0.490655,-1.24883,0.099393,-0.0337785,-0.261084
0.0154487,0.146983,-2.05532,-0.405521,0.530827,-1.1715,0.0908587,-0.0436398,-0.15412
0.0293923,0.140668,-2.07741,-0.192588,0.544082,-1.02425,0.0999306,-0.0463036,0.000421822
0.0426438,0.137651,-2.09613,-0.048519,0.512987,-0.840403,0.111245,-0.0528621,0.153657
0.0541362,0.137002,-2.11107,0.0496508,0.427492,-0.651762,0.107683,-0.0593339,0.276166
0.0623254,0.138131,-2.12257,0.13286,0.208784,-0.489299,0.0878139,-0.0742984,0.361507
0.0644505,0.141369,-2.13148,0.251659,-0.123353,-0.377344,0.0641816,-0.090669,0.391457
0.0595067,0.147481,-2.13857,0.404024,-0.467505,-0.288339,0.0664182,-0.113581,0.393537
0.0489692,0.156661,-2.14412,0.540808,-0.632084,-0.207941,0.0629322,-0.100311,0.375486
0.0374611,0.168611,-2.14797,0.672725,-0.558788,-0.12441,0.0565237,-0.0762355,0.345265
0.0281407,0.183274,-2.15047,0.789196,-0.425183,-0.0903715,0.0417465,-0.0550552,0.331618
0.020424,0.199571,-2.15296,0.845792,-0.416375,-0.126649,0.0218683,-0.0483029,0.344251
0.0123005,0.216843,-2.1568,0.894017,-0.491128,-0.232048,-0.000674784,-0.0425886,0.339285
0.0029818,0.235618,-2.16318,1.00703,-0.575148,-0.385212,-0.0149996,-0.0307924,0.292205
-0.00578028,0.25695,-2.17249,1.12062,-0.505629,-0.509003,-0.000619777,0.0101131,0.232244
-0.0112564,0.279577,-2.1836,1.11675,-0.333324,-0.583124,0.0355079,0.0558259,0.206656
-0.0128047,0.300852,-2.196,0.987395,-0.191376,-0.632459,0.0591348,0.0598381,0.17751
-0.0115275,0.319105,-2.20911,0.841008,-0.0888485,-0.637783,0.0798998,0.0371819,0.102194
-0.00771824,0.335567,-2.22259,0.801033,0.0594546,-0.667785,0.0815828,0.00497898,-0.0208007
-0.00101247,0.34968,-2.237,0.541656,0.0621061,-0.713027,0.0363974,-0.000862718,-0.0324267
0.00251296,0.352559,-2.25527,-0.373531,-0.403529,-1.08948,-0.126397,-0.0198725,0.0176975
2.95304e-05,0.331891,-2.2856,-1.68676,-0.809805,-1.82274,-0.292463,-0.112385,-0.0643684
-0.00164529,0.287777,-2.33258,-2.66125,-0.716423,-2.62581,-0.308786,-0.156547,-0.381716
0.00446544,0.231634,-2.39016,-2.78977,-0.0208523,-2.81,-0.129453,-0.000672027,-0.799193
0.0266634,0.182399,-2.44055,-1.9969,1.21546,-2.0843,0.153042,0.157204,-1.07469
0.0654569,0.15119,-2.46961,-1.03015,2.07226,-0.902262,0.330691,0.176555,-0.903677
0.109056,0.137753,-2.47572,-0.323505,2.10316,0.144062,0.34405,0.0381515,-0.524803
0.143918,0.136804,-2.46552,0.0460852,1.46475,0.761373,0.198113,-0.125387,-0.182121
0.162221,0.142318,-2.44878,0.236923,0.607474,0.918981,-0.0252488,-0.237113,0.00861669
0.165722,0.152099,-2.43211,0.468029,0.0724643,0.843917,-0.165715,-0.298682,0.0595382
0.163928,0.165821,-2.41936,0.674788,0.00933728,0.618541,-0.262275,-0.284431,0.0851061
0.164534,0.182313,-2.41145,0.815668,0.203296,0.438478,-0.285315,-0.231445,0.159446
0.169851,0.200407,-2.40643,0.880764,0.418762,0.368464,-0.259707,-0.160825,0.274813
0.178446,0.219188,-2.40223,0.901995,0.505763,0.375134,-0.229192,-0.09903,0.389713
0.187091,0.238426,-2.39775,0.921427,0.43865,0.411045,-0.22055,-0.0519886,0.471233
0.192556,0.258533,-2.3926,0.966491,0.225547,0.45392,-0.217494,-0.0247938,0.516266
0.193293,0.279825,-2.38757,1.0268,-0.0184572,0.42739,-0.223439,-0.0212516,0.523207
0.189139,0.301545,-2.38345,1.02436,-0.270723,0.379791,-0.199946,-0.0106515,0.513396
0.180261,0.322154,-2.37976,0.937395,-0.512044,0.342172,-0.177082,0.00658214,0.471837
0.166491,0.341408,-2.37629,0.925771,-0.745751,0.316558,-0.143096,0.0117858,0.342783
0.166491,0.341408,-2.37629,0.925771,-0.745751,0.316558,-0.143096,0.0117858,0.342783
0.148216,0.361304,-2.37304,1.00708,-0.980525,0.294818,-0.115495,0.0210969,0.181757
0.124857,0.382456,-2.37024,1.03487,-1.27393,0.255448,-0.105114,0.0241096,0.0391353
0.0942676,0.401411,-2.36757,0.767963,-1.72582,0.178144,-0.0791232,0.0203104,-0.0903054
0.0555128,0.411273,-2.36797,0.195477,-2.11285,-0.194166,-0.183212,0.00794569,-0.291617
0.0188586,0.409866,-2.37858,-0.252959,-1.868,-0.801138,-0.286979,-0.0180331,-0.607983
-0.00193809,0.403155,-2.40246,-0.367756,-1.13759,-1.36775,-0.311862,0.0301403,-0.877904
-0.00453278,0.3967,-2.43532,-0.291568,-0.43403,-1.62083,-0.234589,0.139123,-0.930879
0.00504466,0.390714,-2.47138,-0.358115,-0.058028,-1.71571,-0.171016,0.226216,-0.771648
0.0192532,0.380227,-2.50996,-0.667397,-0.0051024,-1.90456,-0.159387,0.179084,-0.544065
0.0347912,0.36264,-2.55319,-0.963992,-0.00405238,-2.18294,-0.149069,0.105324,-0.408589
0.0519296,0.340019,-2.60098,-1.07282,0.0898856,-2.39101,-0.12738,0.10032,-0.350393
0.0714312,0.316435,-2.65064,-0.973817,0.262297,-2.43141,-0.071779,0.114845,-0.289255
0.0924941,0.295144,-2.69857,-0.775381,0.381462,-2.28489,0.00112427,0.12265,-0.167325
0.112099,0.27762,-2.74131,-0.556609,0.351241,-1.9668,0.0581906,0.115132,-0.0165241
0.127466,0.264772,-2.77661,-0.29978,0.232936,-1.57934,0.069493,0.0995344,0.108796
0.137709,0.258255,-2.80489,0.0218091,0.0516881,-1.23637,0.0241543,0.0828325,0.201504
0.142156,0.258757,-2.82774,0.324515,-0.19691,-0.964247,-0.0336285,0.0775497,0.293017
0.140488,0.265053,-2.84652,0.536906,-0.45429,-0.758321,-0.0760851,0.0756961,0.387074
0.133417,0.274918,-2.86218,0.640541,-0.676467,-0.619605,-0.105382,0.0720355,0.451346
0.121859,0.286749,-2.87636,0.705132,-0.871082,-0.616689,-0.15201,0.0523823,0.467146
0.107619,0.299286,-2.89213,0.686595,-1.00907,-0.754454,-0.189963,0.0282824,0.4495
0.0914053,0.30979,-2.91059,0.509826,-1.19826,-0.899011,-0.196018,0.017673,0.429989
0.0697522,0.315946,-2.93148,0.28426,-1.64551,-1.05063,-0.195824,0.0234078,0.347209
0.041678,0.319459,-2.95611,0.217803,-1.87724,-1.29353,-0.177986,-0.0144688,0.147662
0.0119831,0.321607,-2.98758,-0.00838116,-2.17246,-1.75167,-0.208802,-0.0436802,-0.0485775
-0.0216914,0.313864,-3.03287,-0.870829,-2.54421,-2.61405,-0.368347,0.0220232,-0.172687
-0.0504198,0.28852,-3.09973,-1.89078,-2.22372,-3.69048,-0.414362,0.060535,-0.386684
-0.0616932,0.248793,3.09583,-2.44453,-1.10052,-4.42756,-0.292341,0.195362,-0.697902
-0.0470109,0.208188,3.00284,-1.99603,0.465434,-4.27297,0.0139506,0.362281,-0.964065
-0.0103931,0.180764,2.92278,-0.972239,1.50189,-3.45182,0.280441,0.451449,-0.88184
0.0318024,0.169865,2.86262,-0.139941,1.56509,-2.53427,0.379992,0.413464,-0.51457
0.0660852,0.168695,2.81838,0.162525,1.06511,-1.8966,0.344019,0.238987,-0.147207
0.0867887,0.169443,2.78315,0.166646,0.42804,-1.61605,0.225612,0.102242,0.0544177
0.0953914,0.170103,2.75185,0.196476,-0.0679991,-1.45187,0.101166,0.0382717,0.0803604
0.0958514,0.17241,2.72449,0.3013,-0.313831,-1.20956,0.0129376,0.0626397,0.0416872
0.0928173,0.177544,2.70206,0.419213,-0.373973,-0.952558,-0.0813548,0.102577,0.0219901
0.0888114,0.185325,2.68396,0.511858,-0.345472,-0.776045,-0.178988,0.100969,0.0321338
0.0850535,0.194343,2.66795,0.510385,-0.347385,-0.741134,-0.281777,0.0865389,0.0767186
0.0807669,0.202286,2.65122,0.412738,-0.412228,-0.850779,-0.363748,0.0606355,0.126029
0.0755169,0.207397,2.63149,0.24404,-0.5344,-1.05206,-0.397513,0.0346492,0.173825
0.068537,0.208509,2.60773,0.0298175,-0.637422,-1.26397,-0.384902,0.0112918,0.193924
0.0611602,0.205042,2.58044,-0.200266,-0.654222,-1.42332,-0.340756,-0.00302652,0.195468
0.0549388,0.197893,2.55088,-0.317087,-0.524385,-1.50777,-0.289771,-0.00377463,0.140457
0.0525496,0.189959,2.51998,-0.302457,-0.32623,-1.56896,-0.246802,-0.0185022,0.0844771
0.0528788,0.183069,2.48841,-0.214705,-0.24943,-1.56009,-0.168777,-0.0535783,0.0755432
0.0526371,0.178267,2.45748,-0.101538,-0.340332,-1.51191,-0.110602,-0.0762312,0.102373
0.0503674,0.175674,2.42768,-0.0186758,-0.41228,-1.43601,-0.0669053,-0.0914176,0.13015
0.0459201,0.173889,2.39956,-0.0412988,-0.532855,-1.36202,-0.0390625,-0.107885,0.173029
0.0396817,0.170942,2.37201,-0.157702,-0.530381,-1.3902,-0.0434267,-0.138193,0.185104
0.0351645,0.16488,2.34292,-0.344785,-0.385427,-1.51338,-0.0661594,-0.17043,0.163227
0.0352479,0.15553,2.31156,-0.468355,-0.105789,-1.61482,-0.0577951,-0.183353,0.106685
0.0398203,0.145139,2.27891,-0.429323,0.0710932,-1.6482,-0.0307853,-0.180672,0.0505758
0.0470513,0.136754,2.24667,-0.274145,0.178904,-1.5692,0.0185448,-0.165369,0.0188338
0.0541997,0.1314,2.21704,-0.12483,0.136395,-1.38888,0.0802202,-0.160146,0.0161382
0.0541997,0.1314,2.21704,-0.12483,0.136395,-1.38888,0.0802202,-0.160146,0.0161382
0.0597141,0.128832,2.19181,-0.00452413,0.091078,-1.12684,0.11588,-0.15192,-0.0093683
0.0636889,0.128635,2.17196,0.105183,0.0724685,-0.84287,0.119085,-0.142593,-0.0634345
0.0678031,0.131461,2.15775,0.280672,0.201684,-0.554222,0.0931575,-0.127859,-0.162854
0.0762357,0.139258,2.14874,0.572869,0.518366,-0.289908,0.0228724,-0.102082,-0.263839
0.0868328,0.152454,2.14352,0.733403,0.353982,-0.148616,-0.0403231,-0.117133,-0.249011
0.0869835,0.164825,2.13904,0.510033,-0.476152,-0.223995,-0.135181,-0.141249,-0.216928
0.071387,0.172487,2.13111,0.356927,-1.10675,-0.525895,-0.23636,-0.160216,-0.340071
0.0520588,0.178815,2.11558,0.415729,-0.9645,-0.976223,-0.326825,-0.114998,-0.535741
0.0462924,0.189286,2.09148,0.795293,0.0185031,-1.28549,-0.320642,-0.0244738,-0.644707
0.0628526,0.20887,2.06456,1.28806,1.03664,-1.19933,-0.225585,0.135791,-0.507583
0.0924414,0.235897,2.04071,1.54609,1.26303,-0.904753,-0.14525,0.237774,-0.136567
0.11749,0.264994,2.02142,1.51029,0.678356,-0.672048,-0.115219,0.225328,0.193991
0.126324,0.2911,2.00458,1.26698,-0.285286,-0.668214,-0.146673,0.15221,0.350335
0.117139,0.310609,1.98499,0.885183,-1.16181,-0.994032,-0.225048,0.0917406,0.355474
0.097946,0.32058,1.95811,0.377808,-1.51039,-1.45351,-0.290241,0.0854264,0.260102
0.0795499,0.320244,1.92269,-0.0952483,-1.41437,-1.8965,-0.316591,0.15333,0.126028
0.0685496,0.312071,1.87984,-0.400627,-0.973381,-2.20307,-0.251681,0.217446,-0.00373662
0.0686931,0.299292,1.83353,-0.5438,-0.425467,-2.25378,-0.123159,0.277418,-0.0859842
0.0776875,0.285996,1.78978,-0.447986,0.0242423,-1.99435,0.00617032,0.325067,-0.12031
0.0900244,0.276833,1.75338,-0.149212,0.157559,-1.5686,0.130027,0.305629,-0.107125
0.100235,0.275061,1.72536,0.21912,0.0688137,-1.1485,0.182778,0.257629,-0.0424678
0.104642,0.279774,1.70466,0.422992,-0.218953,-0.812627,0.159437,0.217545,0.0784344
0.101272,0.287013,1.68882,0.433155,-0.54367,-0.662807,0.0823732,0.17759,0.173433
0.0926422,0.293273,1.67421,0.305127,-0.71667,-0.696622,0.0402547,0.119592,0.217541
0.082912,0.29615,1.65808,0.110913,-0.683013,-0.82667,0.0347408,0.0700076,0.217326
0.0763946,0.29479,1.63959,-0.116465,-0.51982,-0.941317,0.0520023,0.0540738,0.204057
0.0723737,0.289005,1.62008,-0.3116,-0.466064,-0.948504,0.10238,0.05247,0.186777
0.0674621,0.280723,1.60163,-0.371457,-0.562798,-0.872588,0.151445,0.0556148,0.138266
0.0595368,0.272786,1.58507,-0.319381,-0.685804,-0.777174,0.16801,0.0533969,0.0675341
0.0492359,0.266383,1.57007,-0.243294,-0.704542,-0.712691,0.166051,0.044295,0.00123429
0.0403425,0.261655,1.55602,-0.184859,-0.539863,-0.674725,0.159543,0.021253,-0.0554985
0.0355611,0.257619,1.54247,-0.176749,-0.283385,-0.641581,0.16229,0.00104013,-0.0677763
0.0350986,0.253478,1.53022,-0.19892,-0.0999691,-0.555759,0.178585,-0.0272888,-0.0455658
0.0361235,0.248882,1.51968,-0.226233,-0.0723467,-0.493103,0.149033,-0.0480063,-0.0132401
0.0365598,0.243816,1.50982,-0.248637,-0.13783,-0.494315,0.107504,-0.0837421,0.00767827
0.0357191,0.238407,1.49932,-0.260044,-0.196953,-0.555652,0.0689667,-0.12055,0.0086323
0.0344516,0.232854,1.48712,-0.252688,-0.189594,-0.652809,0.0390861,-0.134799,-0.0081259
0.0348362,0.227328,1.47336,-0.259063,-0.0868606,-0.696814,0.0368371,-0.140668,-0.016874
0.0369721,0.221186,1.4597,-0.327209,-0.0226428,-0.649894,0.0632409,-0.139714,-0.000217915
0.0374449,0.212202,1.44717,-0.560788,-0.248443,-0.636395,0.0766695,-0.163792,0.0236677
0.032722,0.196676,1.43346,-0.958783,-0.479559,-0.785125,0.00613774,-0.184991,-0.0170721
0.0257938,0.173999,1.41573,-1.22493,-0.51023,-1.02498,-0.0681415,-0.203816,-0.18039
0.0190992,0.149457,1.39408,-1.12469,-0.507495,-1.13678,-0.0499216,-0.153329,-0.364493
0.0126891,0.130422,1.37219,-0.741851,-0.419608,-1.03449,-0.00215939,-0.0493447,-0.488965
0.00856826,0.11898,1.35471,-0.404824,-0.186307,-0.683851,0.0308295,0.0625321,-0.49406
0.00881576,0.113744,1.34542,-0.110585,0.0981073,-0.252009,0.0390775,0.111531,-0.445435
0.0128199,0.115178,1.34414,0.272114,0.245752,0.119398,0.0232912,0.109979,-0.362695
0.0166532,0.125203,1.34982,0.727645,0.191047,0.447613,-0.0084808,0.104186,-0.247849
0.0176011,0.144107,1.36095,1.12416,0.0262477,0.670153,-0.0981368,0.137459,-0.111868
0.0139396,0.169001,1.37526,1.31281,-0.157541,0.761884,-0.191063,0.16719,0.021119
0.00630075,0.19509,1.38973,1.24778,-0.344635,0.653713,-0.302126,0.184059,0.12365
-0.00398699,0.217883,1.40021,1.02887,-0.465039,0.351329,-0.387907,0.170524,0.188477
-0.0144419,0.236188,1.40323,0.81588,-0.486324,-0.0891161,-0.428663,0.147068,0.189833
-0.0144419,0.236188,1.40323,0.81588,-0.486324,-0.0891161,-0.428663,0.147068,0.189833
-0.0220189,0.250529,1.39667,0.602347,-0.430687,-0.563714,-0.405199,0.142051,0.19134
-0.0256872,0.260315,1.38115,0.328771,-0.324723,-0.957548,-0.336952,0.157242,0.212267
-0.0254408,0.264489,1.35807,0.0333893,-0.258435,-1.27509,-0.265592,0.169726,0.217889
-0.0222092,0.263438,1.32913,-0.194019,-0.174043,-1.51804,-0.195997,0.171763,0.19831
-0.0164293,0.258756,1.29576,-0.32363,-0.113587,-1.68761,-0.120532,0.154971,0.165996
-0.00890051,0.25226,1.26046,-0.360253,-0.0315262,-1.71395,-0.0409725,0.155019,0.134694
-0.000465456,0.245389,1.22579,-0.340734,0.0226587,-1.64925,0.00818762,0.151366,0.122661
0.00807484,0.238724,1.19268,-0.316714,0.0312445,-1.57716,0.0360842,0.115064,0.128439
0.0153807,0.232372,1.16148,-0.281866,-0.0276912,-1.46498,0.0706655,0.0740057,0.143326
0.0204713,0.226715,1.13321,-0.243968,-0.110058,-1.30557,0.100293,0.0517891,0.166207
0.0232404,0.221177,1.10821,-0.273363,-0.146289,-1.15157,0.0946068,0.0329914,0.188328
0.0254194,0.214547,1.08625,-0.346717,-0.109091,-1.02325,0.0761791,0.00540027,0.187527
0.0275958,0.206445,1.0664,-0.423804,-0.0945099,-0.94614,0.036409,-0.0239922,0.174072
0.0293869,0.196644,1.04831,-0.503755,-0.07232,-0.852675,0.0413281,-0.055109,0.159549
0.031659,0.186321,1.03252,-0.469684,0.00876563,-0.736741,0.0602789,-0.078595,0.111091
0.0355891,0.177847,1.01922,-0.336712,0.155804,-0.596165,0.0685104,-0.0904841,0.0735084
0.0421545,0.172136,1.00919,-0.206813,0.323228,-0.419584,0.0898894,-0.107568,0.0869766
0.0507739,0.168615,1.00271,-0.124902,0.425615,-0.237396,0.0877087,-0.117644,0.13535
0.0602924,0.166547,0.999936,-0.069699,0.471905,-0.0442186,0.0872758,-0.133249,0.187832
0.0699216,0.166139,1.00092,0.0248718,0.513205,0.136763,0.0751098,-0.144332,0.224803
0.0793965,0.168363,1.00514,0.176464,0.493071,0.298581,0.0722752,-0.151798,0.255689
0.0876844,0.174489,1.01222,0.377045,0.470983,0.450708,0.0783083,-0.141001,0.275801
0.0956984,0.18456,1.02199,0.526618,0.515373,0.600714,0.0695072,-0.113773,0.320713
0.104531,0.197081,1.03438,0.589083,0.608935,0.73392,0.0610087,-0.104729,0.371011
0.114275,0.210919,1.04879,0.642614,0.638673,0.799096,0.0307731,-0.099281,0.393336
0.12245,0.225598,1.06244,0.63496,0.44063,0.67273,-0.0409239,-0.0792129,0.389848
0.126462,0.237825,1.07233,0.439217,0.211826,0.428876,-0.0612807,-0.0639099,0.368068
0.129169,0.2448,1.0775,0.201385,0.199173,0.152243,-0.0310064,-0.0662923,0.24491
0.133116,0.246926,1.07766,0.0124348,0.199795,-0.0947043,0.0108595,-0.034903,0.0471036
0.13736,0.244823,1.07437,-0.186635,0.0977072,-0.240467,0.0692571,0.0222764,-0.1514
0.136416,0.237998,1.06879,-0.416892,-0.375557,-0.405418,0.0731165,0.0793854,-0.348206
0.125111,0.226798,1.05953,-0.555797,-0.958932,-0.645131,0.0389636,0.124868,-0.590323
0.106741,0.213792,1.04551,-0.575575,-1.09174,-0.853192,0.0219402,0.179834,-0.860619
0.0918932,0.200341,1.02839,-0.610029,-0.684394,-0.93343,0.0296393,0.223509,-1.03033
0.0880421,0.185979,1.01072,-0.681085,-0.0476842,-0.917887,0.0174696,0.269061,-1.02685
0.0950406,0.170567,0.993994,-0.684525,0.417837,-0.851939,0.00381526,0.272967,-0.9067
0.108744,0.15722,0.979731,-0.472868,0.695331,-0.658667,0.0472882,0.226229,-0.752237
0.125122,0.150226,0.970878,-0.12201,0.787609,-0.257614,0.115944,0.186877,-0.537745
0.140055,0.150452,0.970804,0.126899,0.679224,0.244475,0.135371,0.141935,-0.268506
0.150724,0.155874,0.978503,0.281445,0.505439,0.549664,0.0691657,0.0811162,-0.0292898
0.156888,0.163719,0.990028,0.299251,0.297022,0.683683,0.00748058,0.016931,0.165871
0.158397,0.171127,1.00366,0.212826,0.0868861,0.753935,-0.0313472,-0.0339307,0.308293
0.15599,0.176914,1.01844,0.142428,-0.0497918,0.765213,-0.0908143,-0.0494562,0.382473
0.151473,0.181977,1.03302,0.146529,-0.151019,0.726605,-0.130687,-0.0625409,0.415586
0.144684,0.187228,1.04625,0.181248,-0.281835,0.63321,-0.147703,-0.0835633,0.438246
0.135762,0.19264,1.05693,0.208487,-0.421949,0.475934,-0.161452,-0.0952009,0.454633
0.123968,0.198073,1.06397,0.248696,-0.62977,0.273484,-0.147906,-0.111524,0.450905
0.108899,0.204129,1.06655,0.330056,-0.826468,0.0536685,-0.112577,-0.104171,0.423419
0.0917083,0.211488,1.06503,0.400188,-0.89678,-0.129915,-0.0666971,-0.0598906,0.392434
0.0755253,0.218886,1.05987,0.368997,-0.81612,-0.303596,-0.015502,-0.0306148,0.367507
0.0626649,0.225308,1.0517,0.329007,-0.657589,-0.447827,0.0409028,-0.00811529,0.333454
0.0525031,0.230834,1.04071,0.283429,-0.631639,-0.591546,0.0733941,0.0255884,0.310635
0.0424209,0.235432,1.02671,0.24311,-0.707572,-0.755127,0.0968995,0.0431845,0.270062
0.0321087,0.239526,1.00925,0.233938,-0.710317,-0.931686,0.108019,0.0611857,0.190432
0.0321087,0.239526,1.00925,0.233938,-0.710317,-0.931686,0.108019,0.0611857,0.190432
0.0243353,0.243408,0.988422,0.207759,-0.555098,-1.07559,0.129125,0.0943135,0.123433
0.0214901,0.246949,0.965609,0.203267,-0.26183,-1.11634,0.160819,0.143327,0.0642417
0.0255625,0.251051,0.943129,0.264439,0.110096,-1.04387,0.183112,0.176889,0.0238165
0.0354876,0.256116,0.922866,0.282787,0.347283,-0.896827,0.227503,0.175475,0.0308438
0.0476035,0.260078,0.906131,0.159201,0.42977,-0.710863,0.230489,0.130661,0.0711406
0.0602804,0.260023,0.892995,-0.130325,0.484472,-0.584526,0.198068,0.0588606,0.0710741
0.070973,0.251936,0.880958,-0.651707,0.185674,-0.687278,0.140828,-0.0152171,0.0587824
0.068974,0.228759,0.864823,-1.61702,-0.843995,-1.05633,0.0342249,-0.0289989,-0.00663871
0.0490788,0.185723,0.843759,-2.48039,-1.44659,-1.2121,0.0124687,-0.0233357,-0.315713
0.0234218,0.133515,0.821736,-2.52705,-1.33614,-1.10578,-0.00169635,0.11847,-0.849687
0.00728333,0.0888729,0.805561,-1.86136,-0.431164,-0.472211,0.116677,0.232066,-1.2533
0.00724701,0.0601122,0.806832,-1.02219,0.385685,0.605744,0.272505,0.200411,-1.28359
0.0188278,0.0480433,0.828856,-0.228451,0.81083,1.51909,0.226694,0.103475,-1.07648
0.0328021,0.0509596,0.864242,0.390496,0.695553,1.96609,0.0286172,-0.0317652,-0.757176
0.0412515,0.064365,0.903927,0.778082,0.389234,2.00443,-0.173097,-0.15739,-0.470388
0.0451738,0.0838978,0.940777,0.98831,0.310595,1.72307,-0.306123,-0.23839,-0.24898
0.048853,0.105279,0.970042,0.984197,0.340183,1.29148,-0.347544,-0.273075,-0.0376069
0.0535539,0.124601,0.990835,0.833809,0.361669,0.888444,-0.324308,-0.269978,0.146724
0.0588702,0.14014,1.00442,0.650822,0.354289,0.556683,-0.288087,-0.228635,0.269655
0.0648792,0.152337,1.01229,0.532932,0.365287,0.314952,-0.251781,-0.178055,0.336361
0.0712577,0.162731,1.01626,0.494835,0.323551,0.157908,-0.211736,-0.123661,0.380708
0.0763852,0.173145,1.0177,0.550877,0.212921,0.0734551,-0.167364,-0.0738738,0.407484
0.079045,0.184804,1.0179,0.604041,0.0450829,0.050426,-0.130353,-0.0238571,0.439605
0.0785525,0.196912,1.01835,0.590738,-0.0769975,0.0910408,-0.088842,0.0237816,0.47196
0.0761972,0.207854,1.01964,0.478632,-0.120487,0.113183,-0.0758279,0.056031,0.494344
0.0736485,0.216144,1.02157,0.33718,-0.0925426,0.142942,-0.0683909,0.0832083,0.48475
0.0715202,0.222039,1.02447,0.24497,-0.0500084,0.185593,-0.0660124,0.100178,0.441234
0.0701931,0.227197,1.02846,0.247742,0.00180534,0.242622,-0.062245,0.118619,0.395975
0.0693343,0.232862,1.03386,0.280454,0.031559,0.329257,-0.0507464,0.139668,0.37886
0.0676065,0.239092,1.04139,0.287786,-0.050915,0.44215,-0.0451866,0.156925,0.39449
0.0622365,0.245008,1.05081,0.235279,-0.272586,0.494458,-0.0840663,0.174281,0.406001
0.0526277,0.249544,1.06026,0.168163,-0.443322,0.432702,-0.134409,0.16574,0.389299
0.0413631,0.25278,1.06747,0.131989,-0.481412,0.268687,-0.140822,0.135319,0.343018
0.0320168,0.255602,1.07092,0.148019,-0.341382,0.0883142,-0.125851,0.114369,0.260183
0.027876,0.259202,1.07175,0.215534,-0.0268824,0.026986,-0.0974676,0.1417,0.177584
0.0302801,0.263852,1.07269,0.229183,0.238496,0.100612,-0.0474773,0.175993,0.156021
0.0332115,0.267643,1.07625,0.12898,0.0905801,0.258092,0.00378915,0.173944,0.151686
0.0283406,0.268838,1.08226,-0.0434523,-0.497456,0.284582,0.00518222,0.125978,0.0832762
0.00787719,0.263929,1.08577,-0.529267,-1.47794,0.0101528,-0.0170649,0.0658682,-0.00488758
-0.0270909,0.24579,1.08159,-1.3111,-2.01218,-0.399318,-0.0589012,-0.0164434,-0.200103
-0.0647759,0.21327,1.06713,-1.94833,-2.07086,-0.867038,-0.111892,-0.0359017,-0.517244
-0.0994383,0.174744,1.04232,-2.01975,-1.80224,-1.208,-0.0748753,0.0192539,-0.892332
-0.12436,0.139833,1.01298,-1.77727,-1.11864,-1.23975,0.000331149,0.107197,-1.12221
-0.136056,0.110207,0.986083,-1.52574,-0.400929,-0.984187,0.0892972,0.147322,-1.11704
-0.135943,0.0844972,0.966706,-1.30215,0.177924,-0.577496,0.182389,0.0992434,-0.995442
-0.128148,0.061897,0.956129,-1.06885,0.49707,-0.177029,0.223561,0.0429517,-0.827878
-0.116046,0.0441429,0.954137,-0.694474,0.684248,0.187088,0.202327,-0.0259551,-0.681369
-0.1022,0.0343786,0.960065,-0.214126,0.706711,0.498257,0.172961,-0.0940768,-0.493446
-0.0884279,0.0332652,0.972502,0.197312,0.726529,0.740756,0.142661,-0.153737,-0.274279
-0.0741816,0.0386357,0.989212,0.449312,0.757409,0.871749,0.0983197,-0.195779,-0.0567018
-0.0597983,0.0474559,1.00788,0.544095,0.744405,0.925014,0.0529967,-0.22191,0.143268
-0.0473025,0.0574388,1.02718,0.557677,0.591684,0.947841,0.0328483,-0.238049,0.300136
-0.0390134,0.0679273,1.04648,0.58553,0.355855,0.934953,0.0180394,-0.232067,0.392458
-0.0361157,0.0795112,1.06524,0.647307,0.0699988,0.89811,0.00317205,-0.219645,0.444372
-0.0361157,0.0795112,1.06524,0.647307,0.0699988,0.89811,0.00317205,-0.219645,0.444372
-0.0392623,0.0928361,1.08316,0.764711,-0.222349,0.839101,-0.00327528,-0.203257,0.461891
-0.0476108,0.109025,1.10004,0.939717,-0.425705,0.773378,-0.00643126,-0.17444,0.452531
-0.0594038,0.128652,1.11554,1.09383,-0.571153,0.652951,-0.0174463,-0.136641,0.446804
-0.0733069,0.150419,1.12835,1.14822,-0.623336,0.462372,-0.0276377,-0.098011,0.452011
-0.0865823,0.172101,1.13716,1.07444,-0.555239,0.228807,-0.0206537,-0.065274,0.459747
-0.0970742,0.191916,1.14118,0.919722,-0.415725,-0.0123952,-0.00278859,-0.0260568,0.464476
-0.10352,0.208303,1.14003,0.698613,-0.260054,-0.26296,-0.00354379,0.0391517,0.457093
-0.106118,0.220924,1.13352,0.506446,-0.152314,-0.499627,0.00289557,0.0946652,0.409385
-0.106047,0.23122,1.1224,0.428171,-0.106278,-0.676419,0.0382423,0.130395,0.339318
-0.105329,0.24144,1.10878,0.467379,-0.175154,-0.727224,0.104099,0.173686,0.269004
-0.107822,0.252849,1.09586,0.52155,-0.400287,-0.622796,0.203801,0.213176,0.211147
-0.11451,0.263188,1.08597,0.35809,-0.472121,-0.439573,0.262456,0.252973,0.1584
-0.120612,0.266972,1.07831,-0.126687,-0.344186,-0.391026,0.22113,0.238634,0.085466
-0.124851,0.257591,1.06632,-0.990808,-0.426357,-0.703946,0.0649522,0.204779,-0.0147941
-0.128676,0.231603,1.04335,-1.82351,-0.47785,-1.16485,-0.0392596,0.150314,-0.224444
-0.129979,0.194987,1.01174,-2.13305,-0.279377,-1.37533,-0.0046785,0.168637,-0.560505
-0.126,0.15736,0.980412,-1.95521,0.173369,-1.11596,0.080321,0.312686,-0.83006
-0.113777,0.123504,0.961009,-1.65872,0.783801,-0.330912,0.158458,0.392005,-0.912639
-0.0920948,0.0928272,0.959704,-1.42854,1.32633,0.468153,0.115296,0.29559,-0.846614
-0.0638082,0.0654561,0.970954,-1.2276,1.55466,0.804915,-0.0896616,0.122706,-0.725852
-0.0341101,0.0417107,0.986536,-1.08491,1.43691,0.833401,-0.280654,-0.041233,-0.584596
-0.0094555,0.0211641,1.00131,-0.916759,1.07362,0.671092,-0.444969,-0.151125,-0.474786
0.00835725,0.00652107,1.01217,-0.510585,0.738921,0.404431,-0.518504,-0.241358,-0.433818
0.0198945,0.00205966,1.01752,0.0636187,0.420491,0.136281,-0.491039,-0.287461,-0.357744
0.0254976,0.00841492,1.01844,0.541001,0.162031,-0.00907885,-0.406872,-0.263146,-0.199243
0.0278328,0.0220486,1.01755,0.800118,0.102951,-0.0295039,-0.316732,-0.212237,-0.0156449
0.0306153,0.0389868,1.01665,0.883592,0.176071,-0.0112226,-0.270211,-0.165384,0.151207
0.0342976,0.0566277,1.01587,0.875986,0.167444,-0.014117,-0.250682,-0.139951,0.287422
0.0366307,0.0734734,1.01458,0.81288,0.0446278,-0.0639018,-0.23472,-0.131061,0.38204
0.0361858,0.0884808,1.01169,0.698402,-0.117643,-0.171435,-0.216716,-0.133787,0.430113
0.0326825,0.100973,1.00684,0.572207,-0.274464,-0.260493,-0.162256,-0.132658,0.431799
0.026411,0.11066,1.00071,0.405916,-0.418097,-0.315258,-0.0877546,-0.0982758,0.402137
0.0176456,0.116464,0.9943,0.186862,-0.529923,-0.303803,-0.0172659,-0.0548804,0.343459
0.00632632,0.118372,0.988631,0.0439983,-0.678165,-0.251773,0.0428817,-0.0314715,0.22339
-0.00770004,0.119498,0.984298,0.0845048,-0.763523,-0.188086,0.0695194,0.00669514,0.0494035
-0.0217292,0.122335,0.980901,0.20222,-0.620349,-0.154906,0.0435072,0.059332,-0.107073
-0.0303115,0.128673,0.97863,0.457195,-0.253216,-0.0752374,0.0458949,0.079734,-0.207483
-0.0309199,0.142166,0.979484,0.929568,0.204292,0.1337,0.0830322,0.0947976,-0.221316
-0.0241155,0.165704,0.985477,1.42493,0.540577,0.388718,0.0770818,0.139083,-0.0934215
-0.013522,0.197104,0.996045,1.70791,0.69093,0.57538,0.0297544,0.165862,0.131153
-0.00263672,0.231904,1.00881,1.76012,0.630359,0.619485,-0.0338109,0.169193,0.318686
0.00450348,0.2661,1.02067,1.65557,0.351524,0.520013,-0.0733605,0.148301,0.426983
0.00464716,0.297999,1.02969,1.54645,-0.080844,0.358263,-0.0673391,0.124587,0.426237
-0.00175859,0.327877,1.03532,1.44889,-0.33728,0.196787,-0.0308059,0.133039,0.356074
-0.00864514,0.355705,1.03854,1.33254,-0.198195,0.100625,0.0132765,0.152375,0.254947
-0.00998368,0.37988,1.0398,1.05217,0.114507,-0.0167221,0.0402776,0.154271,0.184171
-0.00438282,0.396247,1.0377,0.569377,0.331738,-0.201678,0.0362239,0.116443,0.128745
0.00437407,0.402465,1.03073,0.0563506,0.201937,-0.462099,0.0271643,0.0696816,0.0319974
0.00918326,0.398024,1.01664,-0.504138,-0.274504,-0.835069,-0.0202604,0.0981536,-0.0918363
0.00940947,0.38285,0.996459,-0.956365,-0.370369,-1.01877,0.0323637,0.112915,-0.301929
0.0136096,0.362303,0.974393,-1.01628,0.0325535,-1.04672,0.0952149,0.128141,-0.549104
0.0266207,0.343371,0.953697,-0.847135,0.53978,-0.909772,0.145941,0.168511,-0.663796
0.0444766,0.326224,0.937978,-0.852457,0.658142,-0.631124,0.17529,0.180942,-0.57478
0.0594442,0.30808,0.928528,-0.898703,0.549331,-0.377256,0.171537,0.111061,-0.464491
0.0594442,0.30808,0.928528,-0.898703,0.549331,-0.377256,0.171537,0.111061,-0.464491
0.0711241,0.290771,0.923771,-0.77225,0.498864,-0.201125,0.120716,0.0358213,-0.428905
0.0820181,0.277557,0.922377,-0.532943,0.574305,-0.0350802,0.0623683,0.0142409,-0.378755
0.0943216,0.269376,0.924209,-0.318418,0.698822,0.137031,0.0290113,-0.0128161,-0.255298
0.107397,0.265009,0.929274,-0.175465,0.733879,0.306458,0.00732987,-0.0380244,-0.0964088
0.119153,0.263492,0.937489,-0.0756602,0.627787,0.460507,8.02428e-06,-0.0714101,0.0484388
0.12645,0.26388,0.948292,-0.024445,0.361245,0.575505,-0.0116555,-0.0953275,0.167227
0.126253,0.26497,0.961017,-0.0306166,-0.0498542,0.651348,-0.0170008,-0.110221,0.243506
0.117818,0.265809,0.974776,-0.0473783,-0.416086,0.667874,-0.0175769,-0.128805,0.25264
0.103799,0.26627,0.988353,-0.0554242,-0.593855,0.640944,-0.0234082,-0.132587,0.211459
0.0881576,0.265958,1.00112,-0.104315,-0.629799,0.582339,-0.0459008,-0.105727,0.152913
0.0727497,0.264459,1.0123,-0.121104,-0.609711,0.471105,-0.062926,-0.0929065,0.081852
0.0591685,0.262962,1.02038,-0.0854513,-0.540088,0.289834,-0.0547209,-0.101936,0.0193698
0.0481066,0.261277,1.02448,-0.121673,-0.456493,0.104797,-0.0138175,-0.103197,0.00833923
0.0396094,0.258024,1.02554,-0.213803,-0.373121,-0.00172563,0.0425528,-0.0818204,0.0157289
0.0328231,0.252955,1.02535,-0.278892,-0.312796,-0.0316029,0.0808216,-0.0532617,0.000828207
0.0277501,0.247423,1.02447,-0.264515,-0.2095,-0.0813728,0.0908809,-0.0381597,-0.0287818
0.0255462,0.242435,1.02188,-0.225246,-0.0624167,-0.185244,0.0911093,-0.0396264,-0.0411724
0.0276074,0.238406,1.01754,-0.168377,0.161958,-0.237358,0.123186,-0.0456,-0.0335068
0.0336904,0.235489,1.01263,-0.112541,0.316985,-0.241787,0.140845,-0.0367472,-0.00695688
0.041343,0.233149,1.00834,-0.121552,0.334083,-0.175289,0.167307,-0.036719,0.0472772
0.0492324,0.229557,1.0055,-0.239318,0.387139,-0.12297,0.168967,-0.0445178,0.0807874
0.0573097,0.223758,1.00384,-0.311609,0.377635,-0.0741559,0.138333,-0.0452863,0.0656633
0.0643007,0.218024,1.00289,-0.241434,0.293465,-0.053656,0.119745,-0.0493395,0.0100757
0.0686143,0.214394,1.00274,-0.118125,0.142265,0.0274226,0.122951,-0.0348801,-0.0320143
0.0702482,0.213218,1.00469,-0.0197282,0.0848948,0.152358,0.124911,-0.0178103,-0.0516973
0.0714634,0.213542,1.00908,0.0147568,0.14464,0.280196,0.118345,-0.00672084,-0.0507969
0.0737146,0.214495,1.01616,0.0321216,0.229544,0.412455,0.104614,-0.0119999,-0.0367846
0.0768785,0.216335,1.02523,0.0918329,0.254088,0.47015,0.060638,-0.0245149,-0.0212808
0.0791251,0.21966,1.03438,0.172885,0.149814,0.43788,0.0104421,-0.0491769,0.00103998
0.078714,0.224011,1.04228,0.18948,-0.0138731,0.363707,-0.0155261,-0.0693615,0.0319775
0.0761809,0.22796,1.0487,0.15086,-0.0748989,0.298553,-0.0172383,-0.0711588,0.03887
0.0737282,0.231079,1.05421,0.132796,-0.0363547,0.263314,-0.0183893,-0.0553353,0.0169638
0.0727553,0.234544,1.05897,0.193467,0.0509245,0.218962,-0.0272134,-0.0528943,-0.00967366
0.0735806,0.239766,1.06239,0.310901,0.0994249,0.148071,-0.0418092,-0.0579041,-0.00677508
0.0752336,0.247274,1.06409,0.423601,0.104332,0.0729743,-0.0519263,-0.0514724,0.0357341
0.0772904,0.256547,1.06431,0.500536,0.117262,0.0236872,-0.0452676,-0.0387384,0.0962812
0.0803171,0.26714,1.06336,0.557535,0.147358,-0.0324589,-0.0472642,-0.0239746,0.15449
0.0838551,0.27839,1.0609,0.57946,0.137368,-0.114291,-0.0532495,-0.0202668,0.216879
0.0877485,0.289627,1.05661,0.578682,0.137189,-0.204007,-0.0562913,-0.0153845,0.263074
0.0919317,0.300694,1.05022,0.581805,0.0860388,-0.305931,-0.0558382,0.00127605,0.283862
0.0951918,0.311921,1.04181,0.61389,-0.0118731,-0.377812,-0.040657,0.02492,0.29108
0.0976131,0.32382,1.03236,0.642861,-0.0204306,-0.398405,-0.00738634,0.0562885,0.276217
0.101111,0.335286,1.02275,0.574636,0.0669251,-0.389197,0.00903679,0.0830982,0.264383
0.105984,0.34475,1.01386,0.454653,0.0941538,-0.346279,0.0280475,0.0767914,0.245419
0.108878,0.35229,1.00606,0.3801,-0.0925183,-0.310363,0.052216,0.0269322,0.176955
0.107332,0.358532,0.999147,0.322717,-0.293284,-0.267358,0.0910002,-0.0312873,0.0471286
0.103079,0.363964,0.99338,0.272182,-0.272016,-0.197997,0.116383,-0.0782995,-0.0975667
0.101943,0.367699,0.989706,0.111792,0.0210484,-0.116813,0.0609195,-0.0519687,-0.181276
0.104652,0.367118,0.987037,-0.148464,0.118459,-0.168326,-0.0305755,-0.0433708,-0.175653
0.108249,0.361387,0.982222,-0.365116,0.0697824,-0.338074,-0.109787,-0.0487417,-0.191192
0.112083,0.351927,0.97524,-0.490091,0.0851674,-0.388311,-0.08354,-0.039952,-0.234904
0.116208,0.341101,0.9694,-0.526073,0.0971649,-0.263083,-0.0153336,-0.0190667,-0.266743
0.116354,0.329561,0.967437,-0.632682,-0.192535,-0.0551079,0.0246316,0.00848779,-0.24608
0.108531,0.315289,0.969614,-0.816698,-0.496619,0.0799087,-0.0264254,0.0239582,-0.286195
0.108531,0.315289,0.969614,-0.816698,-0.496619,0.0799087,-0.0264254,0.0239582,-0.286195
0.0967605,0.298071,0.973277,-0.906732,-0.513205,0.0760248,-0.0948064,-0.00156593,-0.395048
0.0880755,0.281238,0.975962,-0.75882,-0.247876,0.0354804,-0.13135,-0.0290646,-0.492337
0.0869941,0.26947,0.978214,-0.421278,0.211089,0.0933859,-0.114724,-0.0279381,-0.508956
0.0935119,0.264634,0.981865,-0.109012,0.472689,0.214548,-0.101874,-0.0145217,-0.37637
0.101154,0.265109,0.986846,0.103511,0.391704,0.247447,-0.122189,-0.0324189,-0.176969
0.106604,0.269256,0.990996,0.264627,0.275796,0.187472,-0.15341,-0.0496291,-0.032119
0.111035,0.276124,0.993351,0.378879,0.246259,0.113821,-0.13612,-0.0539252,0.0909909
0.116071,0.284053,0.994456,0.377673,0.294374,0.0839861,-0.12211,-0.0347085,0.203911
0.122118,0.290946,0.995126,0.292986,0.316666,0.0539324,-0.119152,-0.0287545,0.296313
0.127555,0.295981,0.995027,0.219119,0.208027,-0.00223878,-0.122258,-0.0343106,0.344788
0.130631,0.300138,0.993463,0.224332,0.0621042,-0.101504,-0.135286,-0.0420857,0.345792
0.131743,0.30454,0.989454,0.268846,-0.0580583,-0.215997,-0.137189,-0.0349083,0.333429
0.13229,0.309431,0.983614,0.276628,-0.0449526,-0.261783,-0.101821,-0.0156742,0.326753
0.134339,0.313436,0.977463,0.186249,0.0813697,-0.265305,-0.0632011,0.00141388,0.332205
0.139233,0.31507,0.971671,0.0489411,0.200384,-0.247555,-0.0515531,0.0100784,0.326187
0.144489,0.314814,0.967124,0.00271666,0.166474,-0.174509,-0.0299464,0.0189287,0.285047
0.146744,0.314732,0.964862,0.0129793,-0.0277175,-0.0275003,-0.00268275,0.051505,0.236314
0.143884,0.315007,0.966399,-0.00411455,-0.2002,0.176893,0.0138446,0.0800561,0.197653
0.137323,0.316097,0.971687,0.0655045,-0.271061,0.328443,-0.0012649,0.0889046,0.119105
0.129776,0.320783,0.979493,0.330766,-0.234535,0.478644,0.00418837,0.0838034,0.00729287
0.122632,0.332531,0.990055,0.713294,-0.142982,0.664521,0.0285407,0.0861867,-0.0827381
0.116625,0.351688,1.0037,1.01027,0.0103022,0.82942,0.0139151,0.0951848,-0.11539
0.111617,0.374338,1.01912,1.0425,-0.00474311,0.832758,-0.0269358,0.0464118,-0.0782614
0.104657,0.395911,1.03297,0.963206,-0.174113,0.664965,-0.0618545,-0.0268267,-0.0628715
0.0949861,0.414845,1.04243,0.8163,-0.433143,0.37777,-0.076026,-0.0368174,-0.089038
0.0823968,0.428268,1.04579,0.452766,-0.673602,0.0565317,-0.0998798,-0.0176117,-0.0959479
0.0678327,0.43177,1.04389,-0.100996,-0.854679,-0.195786,-0.0993258,0.0133426,-0.115819
0.0529444,0.42437,1.03717,-0.5874,-0.898674,-0.468632,-0.0800403,0.024677,-0.218534
0.0409207,0.408456,1.0247,-0.930531,-0.750876,-0.726273,-0.0447919,0.046622,-0.354563
0.036429,0.387572,1.00892,-1.07819,-0.298269,-0.764586,0.0348839,0.0969966,-0.465166
0.0393025,0.365615,0.995865,-1.0521,0.0704565,-0.491684,0.152803,0.13502,-0.474593
0.0439576,0.346429,0.990535,-0.817295,0.174278,-0.0863599,0.23418,0.106662,-0.42308
0.0454179,0.333444,0.99323,-0.501689,0.0346525,0.267318,0.233984,0.0345591,-0.325676
0.0414896,0.326211,1.00175,-0.288762,-0.139432,0.477367,0.170259,-0.028207,-0.200082
0.0345972,0.321751,1.0124,-0.211637,-0.177149,0.495128,0.0938784,-0.0844981,-0.0961655
0.0293539,0.31803,1.02214,-0.194217,-0.0308779,0.410749,0.038391,-0.117999,-0.0206029
0.0277984,0.314706,1.03003,-0.146798,0.111235,0.340954,0.0233444,-0.116824,0.0471997
0.028502,0.313151,1.03678,-0.0113361,0.146648,0.302854,0.0199611,-0.102587,0.103752
0.0288804,0.314816,1.04281,0.155045,0.0634557,0.278724,0.0167169,-0.08106,0.168871
0.0270849,0.319279,1.04799,0.2724,-0.0820651,0.218178,0.00823775,-0.0639253,0.236269
0.0232617,0.325427,1.05112,0.31634,-0.204377,0.0792112,-0.00436918,-0.0537455,0.277641
0.018469,0.33133,1.05063,0.268692,-0.269409,-0.111859,-0.00376116,-0.0469677,0.297653
0.0147073,0.335846,1.04636,0.192679,-0.235094,-0.279431,0.0106204,-0.0142891,0.276488
0.0132692,0.339239,1.03929,0.165662,-0.145233,-0.378146,0.0418239,0.032461,0.228768
0.0141734,0.34252,1.03053,0.176785,-0.0576856,-0.441604,0.0773027,0.0584266,0.193526
0.0171824,0.346089,1.02054,0.193716,0.0233776,-0.494606,0.0858574,0.0735354,0.17685
0.0224254,0.350057,1.00941,0.21619,0.129936,-0.545572,0.0757534,0.0864357,0.164932
0.0303953,0.353936,0.99705,0.181356,0.2225,-0.610152,0.0644038,0.0991251,0.18891
0.039798,0.355899,0.983139,0.0485235,0.229713,-0.691101,0.0608961,0.0891096,0.241462
0.0494384,0.354598,0.967715,-0.105876,0.206582,-0.757984,0.0520295,0.0858603,0.259074
0.0595808,0.350866,0.95149,-0.168014,0.251105,-0.777792,0.0514582,0.0910713,0.227372
0.0707178,0.346998,0.935558,-0.109371,0.314575,-0.74421,0.0565688,0.0859253,0.18759
0.0817021,0.344411,0.920683,-0.0553611,0.263865,-0.66375,0.0611208,0.0785482,0.184244
0.0817021,0.344411,0.920683,-0.0553611,0.263865,-0.66375,0.0611208,0.0785482,0.184244
0.0901335,0.342621,0.908548,-0.0130621,0.182409,-0.477526,0.0962351,0.0678903,0.177159
0.0962101,0.343115,0.900796,0.142918,0.177222,-0.262535,0.110313,0.0388143,0.109903
0.100981,0.347053,0.895917,0.281342,0.115899,-0.173417,0.060779,-0.0105342,0.0632893
0.103683,0.352678,0.891503,0.300049,-0.00950992,-0.200015,0.011225,-0.0904246,0.0344092
0.103727,0.356841,0.885873,0.147795,-0.1822,-0.290205,-0.0245243,-0.149158,-0.00258636
0.102416,0.357053,0.878187,-0.0348895,-0.166458,-0.438568,-0.0612283,-0.200138,-0.100754
0.103372,0.353209,0.866529,-0.272571,-0.199624,-0.707834,-0.131456,-0.203483,-0.185805
0.10429,0.341269,0.849341,-0.784102,-0.264873,-1.03415,-0.183593,-0.185932,-0.215346
0.107048,0.318498,0.827088,-1.21892,-0.157161,-1.27592,-0.169768,-0.155838,-0.338765
0.112195,0.290271,0.803411,-1.28806,-0.0562838,-1.22202,-0.0629192,-0.0834319,-0.500678
0.116794,0.26437,0.784789,-1.05874,0.0101388,-0.823865,0.0595627,0.00342765,-0.598066
0.120248,0.24479,0.775499,-0.796964,0.0791029,-0.303233,0.0657924,0.0555851,-0.59178
0.121933,0.231153,0.775452,-0.557265,0.0648963,0.0925452,-0.0226018,0.0289963,-0.538341
0.120484,0.223591,0.779828,-0.237677,-0.117102,0.203109,-0.125837,-0.0647357,-0.456354
0.116705,0.222254,0.784078,0.0397825,-0.12537,0.181679,-0.170613,-0.126876,-0.338513
0.115623,0.225339,0.787037,0.219285,0.0999083,0.140315,-0.184821,-0.129987,-0.183111
0.119246,0.230982,0.788738,0.31185,0.279358,0.08911,-0.175069,-0.113779,-0.00141197
0.12509,0.237967,0.789227,0.378612,0.299247,0.0484913,-0.133746,-0.109808,0.166039
0.130407,0.246375,0.788878,0.459884,0.210251,0.0291674,-0.0962646,-0.0867219,0.304311
0.133362,0.256126,0.788071,0.502027,0.0610705,0.0300813,-0.0689831,-0.0485905,0.421908
0.13298,0.265797,0.787276,0.45885,-0.116414,0.0239225,-0.0448636,-0.0234545,0.519368
0.129272,0.274366,0.786768,0.405178,-0.275763,0.0489779,-0.00980204,-0.0108166,0.565878
0.121443,0.282696,0.787327,0.435122,-0.474989,0.113073,0.0456967,0.00495893,0.558184
0.110436,0.292667,0.78953,0.523847,-0.56239,0.222801,0.102025,0.0179992,0.526489
0.0976422,0.304042,0.794367,0.549634,-0.539856,0.361266,0.145494,0.0400714,0.507497
0.0862777,0.315335,0.802128,0.507428,-0.346675,0.464983,0.16965,0.0482633,0.479841
0.0787565,0.325668,0.811476,0.451556,-0.121907,0.491911,0.15924,0.0488233,0.432385
0.0748005,0.334939,0.821371,0.409302,0.0554419,0.53029,0.156305,0.0663368,0.359834
0.0733089,0.343908,0.833541,0.41315,0.173703,0.699162,0.201752,0.080226,0.283963
0.0707829,0.35422,0.849809,0.5173,0.109562,0.901174,0.221203,0.0837815,0.184623
0.065776,0.366648,0.869742,0.562913,0.119367,1.04989,0.192363,0.0801069,0.0797394
0.0597202,0.376395,0.892732,0.190931,0.0413775,1.12699,0.151616,0.0952621,0.0429465
0.0481058,0.373491,0.915317,-0.619349,-0.402646,0.906255,0.0482302,0.0501859,-0.0184584
0.0314178,0.354913,0.929557,-1.22325,-0.729713,0.303107,-0.0700892,-0.120707,-0.282391
0.015093,0.328451,0.929107,-1.37764,-0.857938,-0.375663,-0.0737187,-0.171274,-0.573721
0.00413597,0.301249,0.917557,-1.3414,-0.534035,-0.6874,0.00100933,-0.0409949,-0.750257
0.00307789,0.274112,0.903427,-1.40037,0.0361733,-0.621153,0.0462008,0.116502,-0.707322
0.0118357,0.245648,0.893682,-1.41688,0.561385,-0.348998,0.0914098,0.101065,-0.574796
0.0265258,0.219489,0.888665,-1.14898,0.722536,-0.219383,0.0353623,0.00998232,-0.425808
0.0407213,0.201545,0.885123,-0.610356,0.612538,-0.187138,-0.0129696,-0.111508,-0.282483
0.0528764,0.195458,0.881966,0.0105082,0.574055,-0.15208,-0.0392875,-0.152937,-0.119045
0.0657576,0.200696,0.878927,0.490161,0.657269,-0.106712,-0.0885155,-0.131521,0.0829586
0.0797836,0.212914,0.876557,0.708692,0.680937,-0.0354692,-0.120502,-0.100337,0.325278
0.0920091,0.22743,0.875198,0.735317,0.465837,0.0150106,-0.156805,-0.0876662,0.517507
0.0976083,0.241993,0.873682,0.728669,0.0315613,-0.0375922,-0.215906,-0.0832686,0.59765
0.0943716,0.256648,0.869826,0.781202,-0.421027,-0.206562,-0.265767,-0.0862485,0.554053
0.0854041,0.272657,0.861609,0.894,-0.683131,-0.448885,-0.290966,-0.062115,0.449295
0.0746223,0.290732,0.8483,1.00868,-0.703669,-0.680185,-0.269178,-0.0292034,0.29866
0.06844,0.309382,0.831075,0.926117,-0.433683,-0.806959,-0.210953,0.023617,0.156911
0.0665344,0.324249,0.813081,0.66955,-0.347551,-0.816205,-0.139055,0.0535367,0.0254286
0.0648125,0.332611,0.792464,0.231792,-0.579099,-1.16927,-0.267104,0.095631,-0.134001
0.0596836,0.326951,0.759291,-0.649207,-0.952913,-2.09185,-0.541947,0.0623983,-0.360813
0.058963,0.302049,0.703658,-1.48299,-0.781608,-3.37168,-0.607103,-0.0411918,-0.653711
0.0703801,0.262317,0.625666,-1.95174,-0.209215,-4.22607,-0.500702,0.170498,-0.963464
0.0703801,0.262317,0.625666,-1.95174,-0.209215,-4.22607,-0.500702,0.170498,-0.963464
0.0938669,0.21619,0.544089,-1.93788,0.665851,-3.87933,-0.16955,0.502412,-1.12783
0.126811,0.174971,0.48096,-1.4177,1.29692,-2.68673,0.141725,0.553535,-1.09915
0.158679,0.150327,0.442566,-0.449565,1.15448,-1.46525,0.238055,0.372952,-0.92702
0.177951,0.147431,0.422405,0.430053,0.419452,-0.626784,0.120576,0.160416,-0.637171
0.179235,0.1592,0.412311,0.843258,-0.415748,-0.210388,-0.0895056,0.0293168,-0.319494
0.167835,0.176331,0.405231,0.929334,-0.754573,-0.258241,-0.295881,-0.0993772,-0.121472
0.155215,0.192585,0.393563,0.857057,-0.68961,-0.641346,-0.451005,-0.171152,0.0165731
0.147786,0.205953,0.373696,0.757829,-0.431321,-1.08462,-0.487277,-0.162367,0.140056
0.147731,0.216069,0.345976,0.63668,-0.168179,-1.43113,-0.442371,-0.0979865,0.271498
0.153397,0.222683,0.31309,0.501112,2.93613e-05,-1.63114,-0.373862,-0.0269405,0.391484
0.161187,0.226398,0.277725,0.424834,-0.0554531,-1.71211,-0.310615,0.0246551,0.465649
0.165001,0.229391,0.241675,0.458876,-0.422287,-1.7086,-0.244469,0.0435619,0.485909
0.159327,0.234248,0.205987,0.604863,-0.96919,-1.6401,-0.163354,0.0553685,0.437649
0.144425,0.243312,0.171961,0.780942,-1.28459,-1.50139,-0.0897426,0.0882386,0.334449
0.124966,0.255407,0.140263,0.812224,-1.40405,-1.40401,-0.0857924,0.130202,0.231805
0.105305,0.266933,0.109592,0.646932,-1.38582,-1.43991,-0.0912564,0.125957,0.140332
0.0851752,0.274793,0.0775407,0.452364,-1.46164,-1.58002,-0.0979327,0.119218,0.0245287
0.0663074,0.280594,0.0421473,0.379872,-1.39535,-1.80604,-0.117424,0.114268,-0.146552
0.0502589,0.28348,0.000236717,0.0891653,-1.40732,-2.25022,-0.209167,0.118428,-0.275179
0.0366498,0.278315,-0.0518596,-0.390153,-1.36144,-2.774,-0.222945,0.125291,-0.375094
0.0288131,0.265442,-0.112982,-0.644044,-1.02564,-3.13318,-0.165999,0.199027,-0.520562
0.0316614,0.253274,-0.177146,-0.294402,-0.268586,-3.03637,-0.0287999,0.309474,-0.670022
0.049164,0.252358,-0.234674,0.434693,0.537654,-2.51171,0.108052,0.411095,-0.598945
0.0758643,0.265075,-0.280976,1.07944,0.866539,-1.91649,0.135504,0.457767,-0.294356
0.101051,0.286535,-0.31844,1.29397,0.530041,-1.52712,0.087697,0.384452,0.074178
0.112797,0.306685,-0.350608,0.983015,-0.332456,-1.37331,0.0336704,0.272634,0.352372
0.106412,0.317494,-0.382059,0.407829,-1.26946,-1.52783,-0.0325894,0.152854,0.450308
0.0855337,0.316379,-0.417582,-0.168411,-1.84534,-1.85462,-0.10864,0.0845187,0.356882
0.0597261,0.306171,-0.458851,-0.529587,-1.95015,-2.13918,-0.172195,0.138065,0.128247
0.0371021,0.292143,-0.505135,-0.615699,-1.62623,-2.34762,-0.154418,0.176509,-0.0791476
0.0246831,0.279188,-0.554761,-0.533565,-0.992496,-2.45138,-0.10127,0.185151,-0.221798
0.0245756,0.267787,-0.605738,-0.510602,-0.454708,-2.48471,-0.0339359,0.173762,-0.207609
0.0302491,0.255976,-0.656148,-0.535369,-0.351396,-2.42321,0.0436934,0.117005,-0.110495
0.0338189,0.243994,-0.704899,-0.493517,-0.517481,-2.35583,0.0856584,0.0568576,-0.060005
0.0332287,0.233633,-0.752411,-0.385424,-0.66117,-2.31237,0.0910779,0.0254584,-0.0629225
0.0293912,0.225513,-0.798905,-0.278261,-0.771221,-2.25225,0.108915,-0.000286013,-0.0710294
0.0235935,0.219947,-0.844203,-0.158762,-0.816645,-2.19511,0.115023,-0.0189283,-0.086588
0.0165599,0.21728,-0.888478,-0.0204961,-0.837112,-2.14434,0.126714,-0.0316939,-0.090892
0.00985747,0.217822,-0.931883,0.134181,-0.756918,-2.11237,0.128086,-0.0431123,-0.0905105
0.00507114,0.221324,-0.975033,0.233658,-0.677921,-2.11408,0.126431,-0.0410527,-0.0401825
0.00123471,0.226141,-1.01829,0.257153,-0.676674,-2.11701,0.14818,-0.0476781,0.0296377
-0.00237757,0.231049,-1.0619,0.221026,-0.660966,-2.15673,0.153468,-0.0508019,0.066106
-0.00481903,0.234979,-1.10653,0.1606,-0.615484,-2.19901,0.151751,-0.0442316,0.0662276
-0.00605247,0.238149,-1.15177,0.147292,-0.558542,-2.20631,0.180183,-0.0343744,0.0241266
-0.0055916,0.241471,-1.19666,0.162739,-0.476958,-2.16736,0.192777,-0.00339241,-0.0121821
-0.00381175,0.2448,-1.24115,0.136244,-0.429563,-2.17853,0.162252,0.0273054,-0.0125179
-0.0022929,0.246264,-1.28704,-0.0342247,-0.580553,-2.31237,0.108333,0.0211262,0.00692153
-0.00435325,0.24274,-1.33671,-0.337254,-0.808696,-2.50206,0.0647421,0.0347811,-0.0261217
-0.00712575,0.234278,-1.38915,-0.499754,-0.640538,-2.60302,0.0781134,0.0480584,-0.14099
-0.00267583,0.225045,-1.44233,-0.412696,-0.0824893,-2.55361,0.0706779,0.0991882,-0.246457
0.0132323,0.218465,-1.49198,-0.241493,0.540256,-2.27299,0.0924142,0.166209,-0.223409
0.035052,0.213099,-1.53391,-0.221239,0.662235,-1.84187,0.123798,0.201632,-0.065609
0.0527724,0.206695,-1.56696,-0.29025,0.392129,-1.43659,0.109325,0.165645,0.0728568
0.0624889,0.198341,-1.59207,-0.396,0.0954624,-1.08102,0.0468695,0.141028,0.11665
0.0624889,0.198341,-1.59207,-0.396,0.0954624,-1.08102,0.0468695,0.141028,0.11665
0.066168,0.1894,-1.60986,-0.354038,-0.0622137,-0.722217,-0.00904422,0.10247,0.0724212
0.0661546,0.183743,-1.6205,-0.124009,-0.11459,-0.356064,-0.0462251,0.074206,0.0107096
0.0637904,0.1835,-1.6244,0.10939,-0.213701,-0.0484153,-0.108179,0.0513838,0.0201212
0.0577636,0.187217,-1.62404,0.237139,-0.400417,0.0613474,-0.192236,-0.0196398,0.0807866
0.0476584,0.19186,-1.62437,0.1997,-0.603583,-0.104478,-0.280866,-0.0872847,0.133872
0.0353331,0.193875,-1.62975,0.0027819,-0.725531,-0.441128,-0.34251,-0.133616,0.154496
0.0236739,0.191082,-1.64302,-0.246948,-0.662111,-0.88084,-0.371873,-0.153661,0.125796
0.0166631,0.18346,-1.66492,-0.464577,-0.455196,-1.27422,-0.323573,-0.150926,0.0745888
0.0143183,0.173093,-1.69309,-0.510639,-0.278192,-1.4864,-0.211659,-0.134242,0.0112008
0.0146192,0.163395,-1.72351,-0.412528,-0.231466,-1.50829,-0.100911,-0.0977073,-0.0132111
0.014632,0.156018,-1.75272,-0.28509,-0.222989,-1.38853,-0.03458,-0.0748698,-0.00312704
0.0146863,0.150972,-1.77946,-0.188646,-0.198889,-1.27324,-0.00882706,-0.091743,0.0209895
0.0141974,0.147636,-1.80417,-0.113839,-0.225749,-1.18654,0.0160479,-0.118784,0.0478751
0.0127634,0.145542,-1.82726,-0.0738724,-0.24261,-1.1103,0.0343995,-0.151693,0.06442
0.0110039,0.143762,-1.84874,-0.0791158,-0.246183,-1.02485,0.0383806,-0.176252,0.0725251
0.00960276,0.142123,-1.86855,-0.0565843,-0.176967,-0.943309,0.0439001,-0.190355,0.0622137
0.00966227,0.141585,-1.88676,0.0249026,-0.0603593,-0.86126,0.046938,-0.188645,0.0408507
0.0121732,0.142595,-1.90304,0.0827123,0.0663029,-0.74963,0.0524344,-0.189156,0.0570226
0.0160272,0.144192,-1.91692,0.0982678,0.111023,-0.625248,0.052957,-0.195816,0.0848933
