attitude_roll,attitude_pitch,attitude_yaw,rotationRate_x,rotationRate_y,rotationRate_z,acceleration_x,acceleration_y,acceleration_z
0.18751,0.324785,-0.0308086,-0.210401,-1.0167,-1.03543,-0.24312,0.0764593,0.113709
0.164517,0.309687,-0.065006,-0.357044,-1.10218,-1.27063,-0.242014,0.0634126,-0.0333163
0.152639,0.298721,-0.0913032,-0.322273,-0.852608,-1.37927,-0.24712,0.0921804,-0.131662
0.147136,0.289021,-0.118794,-0.249834,-0.493962,-1.35819,-0.215903,0.104609,-0.165557
0.147037,0.280845,-0.145036,-0.198121,-0.290296,-1.25109,-0.182592,0.11045,-0.127198
0.148038,0.274192,-0.168809,-0.122642,-0.286219,-1.11847,-0.149144,0.0893421,-0.0676448
0.146959,0.269648,-0.190445,-0.0116299,-0.414576,-1.0322,-0.151133,0.0628859,-0.00949174
0.143744,0.267884,-0.211407,0.120781,-0.45006,-1.00309,-0.177905,0.0380982,0.0221214
0.140089,0.267971,-0.232189,0.14895,-0.466716,-0.997492,-0.19135,0.0272571,0.0886676
0.13701,0.267988,-0.25367,0.138013,-0.371495,-1.07143,-0.192406,-0.00661677,0.127999
0.137825,0.267218,-0.276876,0.0674748,-0.178625,-1.1676,-0.201315,-0.0226486,0.154689
0.140918,0.263433,-0.30162,-0.126762,-0.164336,-1.25325,-0.178118,-0.0337622,0.216704
0.144086,0.255661,-0.326881,-0.29685,-0.162065,-1.28555,-0.124242,-0.0462024,0.223691
0.146766,0.245096,-0.352288,-0.391587,-0.212731,-1.30821,-0.0852592,-0.0449483,0.201323
0.147839,0.232855,-0.37755,-0.458722,-0.276022,-1.30047,-0.0383302,-0.0526912,0.165996
0.147118,0.219759,-0.40188,-0.481021,-0.340665,-1.2342,0.015492,-0.0591659,0.114776
0.144753,0.20774,-0.424027,-0.375764,-0.35532,-1.0743,0.0799228,-0.0569656,0.0137373
0.141894,0.199506,-0.442887,-0.1791,-0.292537,-0.874956,0.110914,-0.0455126,-0.0716937
0.141046,0.195478,-0.45842,-0.00948573,-0.0657246,-0.708579,0.126518,-0.0616541,-0.115548
0.145242,0.19425,-0.472003,0.0479985,0.196252,-0.64916,0.111637,-0.101448,-0.128
0.151775,0.192369,-0.485045,-0.0702381,0.159367,-0.656381,0.100909,-0.114601,-0.0857294
0.15525,0.18741,-0.498185,-0.224321,-0.0657892,-0.710854,0.124097,-0.136851,-0.0884084
0.154306,0.179651,-0.512483,-0.329935,-0.251462,-0.805463,0.142556,-0.142282,-0.15167
0.152237,0.170401,-0.528038,-0.354503,-0.187978,-0.840609,0.147299,-0.119714,-0.236773
0.153227,0.161649,-0.543232,-0.254067,0.0743789,-0.760775,0.170406,-0.0830272,-0.294559
0.160799,0.157067,-0.556308,0.0121238,0.463511,-0.574715,0.193823,-0.0497856,-0.306499
0.173743,0.158254,-0.565664,0.243262,0.657882,-0.315075,0.21137,-0.016829,-0.17783
0.188102,0.163881,-0.570258,0.379489,0.682507,-0.0440599,0.224279,-0.0140514,-0.0100951
0.20079,0.172034,-0.570695,0.411597,0.556951,0.147575,0.201099,-0.0189078,0.120337
0.208452,0.180339,-0.56785,0.324486,0.240275,0.289618,0.197869,-0.0220378,0.196022
0.207634,0.185958,-0.561993,0.0906423,-0.237814,0.392111,0.191635,-0.0281096,0.213757
0.196189,0.186633,-0.553526,-0.190475,-0.733707,0.425952,0.136394,-0.0177108,0.140557
0.17699,0.182466,-0.54442,-0.354531,-0.976438,0.370848,0.0392886,0.0178658,-0.044979
0.155822,0.177401,-0.536582,-0.213076,-0.947892,0.309299,-0.0141758,0.0497324,-0.259401
0.139551,0.177779,-0.530324,0.166541,-0.531871,0.327458,-0.0391736,0.102702,-0.421798
0.133091,0.185101,-0.523353,0.437365,0.0135773,0.468397,-0.0520016,0.163843,-0.400668
0.135773,0.196039,-0.513542,0.488239,0.391298,0.625295,-0.0609102,0.177589,-0.221525
0.142572,0.207003,-0.50164,0.429614,0.491453,0.667492,-0.0981321,0.152961,-0.028837
0.148993,0.216586,-0.489833,0.356477,0.37791,0.608893,-0.161042,0.129921,0.0957605
0.152045,0.224845,-0.479525,0.316854,0.132481,0.509812,-0.196109,0.12127,0.167226
0.149891,0.232271,-0.471527,0.300622,-0.16989,0.368789,-0.20187,0.116311,0.193222
0.142636,0.238592,-0.466464,0.235508,-0.428721,0.20892,-0.19202,0.113532,0.212308
0.131865,0.242137,-0.463961,0.0820772,-0.570946,0.0913977,-0.170738,0.12459,0.21597
0.119967,0.242755,-0.462902,-0.0256229,-0.594242,0.0192362,-0.145117,0.143393,0.167453
0.107562,0.241415,-0.463322,-0.0974142,-0.656986,-0.0861146,-0.13833,0.14963,0.131618
0.0950235,0.238892,-0.466278,-0.117623,-0.656796,-0.23315,-0.119255,0.128884,0.101418
0.0841478,0.23629,-0.472564,-0.0854785,-0.571079,-0.393166,-0.0932487,0.124646,0.0788501
0.0760341,0.23439,-0.481686,-0.0357196,-0.434189,-0.497947,-0.0455329,0.132793,0.0805942
0.0712625,0.23346,-0.492165,0.00617179,-0.292605,-0.52129,0.0115705,0.143973,0.117802
0.0687435,0.233058,-0.502538,0.0149984,-0.188638,-0.489319,0.0548412,0.141324,0.176218
0.0680899,0.232606,-0.512336,-0.00186991,-0.11484,-0.479443,0.060031,0.122375,0.239048
0.0684082,0.231706,-0.522359,-0.0230163,-0.0807099,-0.506581,0.0544436,0.0919426,0.298041
0.0684082,0.231706,-0.522359,-0.0230163,-0.0807099,-0.506581,0.0544436,0.0919426,0.298041
0.0695155,0.230195,-0.53316,-0.0658091,-0.0774206,-0.558526,0.0472103,0.0664397,0.348742
0.0697845,0.227294,-0.544996,-0.142931,-0.150192,-0.616617,0.0479713,0.0447698,0.392349
0.0694883,0.222712,-0.557669,-0.234779,-0.174241,-0.647169,0.0661021,0.0176286,0.393542
0.0679593,0.216074,-0.570595,-0.337468,-0.259946,-0.650076,0.0892049,0.000926122,0.390904
0.0653763,0.208574,-0.583062,-0.316836,-0.239028,-0.623464,0.113943,-0.026486,0.317286
0.0631826,0.201976,-0.595198,-0.276057,-0.239122,-0.609191,0.101092,-0.0318778,0.261607
0.0605711,0.195577,-0.607141,-0.297994,-0.262419,-0.599083,0.114952,-0.0606265,0.239986
0.0570677,0.188923,-0.618224,-0.284036,-0.276688,-0.50911,0.140237,-0.068257,0.194704
0.0542437,0.183754,-0.626499,-0.185095,-0.152998,-0.325141,0.16186,-0.0612209,0.104048
0.052787,0.180744,-0.630993,-0.0929028,-0.0695106,-0.136706,0.156914,-0.0808126,0.0197393
0.0515158,0.179016,-0.632814,-0.103572,-0.151672,-0.0810571,0.112965,-0.131036,-0.062452
0.0454266,0.175146,-0.635114,-0.273221,-0.540945,-0.187875,0.0472638,-0.190006,-0.161395
0.0311678,0.168771,-0.641018,-0.313341,-0.950008,-0.432333,0.0164144,-0.261732,-0.352913
0.0129023,0.162144,-0.65149,-0.373222,-1.01515,-0.580353,-0.0108101,-0.198826,-0.550781
-0.00402084,0.151531,-0.662635,-0.71622,-0.806761,-0.503595,0.00113665,-0.0866581,-0.641533
-0.0145617,0.133409,-0.671461,-1.08937,-0.370179,-0.338533,-0.0227081,-0.0594302,-0.74863
-0.0174827,0.110763,-0.676174,-1.09897,0.0209962,-0.0790903,-0.0550893,-0.0723705,-0.884377
-0.0124681,0.0942405,-0.675075,-0.478829,0.51256,0.213506,-0.058251,-0.109543,-1.00154
0.00258161,0.093936,-0.668079,0.444353,1.05337,0.480073,-0.0967627,-0.0949533,-0.897784
0.026236,0.109763,-0.656545,1.04154,1.38662,0.68223,-0.132124,-0.0688175,-0.498853
0.053023,0.132441,-0.642576,1.09747,1.41596,0.775856,-0.146116,-0.0732376,-0.0261418
0.0772096,0.152665,-0.628607,0.807745,1.17756,0.716372,-0.173923,-0.103878,0.32977
0.0951233,0.166697,-0.617064,0.521638,0.797319,0.531168,-0.188863,-0.147886,0.507498
0.10579,0.176812,-0.609253,0.442355,0.419334,0.356863,-0.173939,-0.155177,0.553277
0.110767,0.187039,-0.603604,0.53317,0.21578,0.323014,-0.144654,-0.105645,0.544882
0.113981,0.199466,-0.598536,0.640268,0.239893,0.30833,-0.119734,-0.0620778,0.548565
0.118682,0.212808,-0.594293,0.608391,0.307004,0.254497,-0.0888318,-0.0564791,0.607391
0.123968,0.223954,-0.590865,0.437514,0.29134,0.230245,-0.0230898,-0.0670214,0.672088
0.128095,0.231266,-0.586,0.233352,0.21754,0.358088,0.0608364,-0.0475536,0.697107
0.129018,0.235493,-0.577096,0.0918562,0.0736552,0.565326,0.119596,-0.0112915,0.666725
0.124795,0.23866,-0.563331,0.0783649,-0.187845,0.803314,0.142027,0.015835,0.589008
0.114566,0.243702,-0.545398,0.233471,-0.381138,0.982066,0.119379,0.0452669,0.44642
0.10059,0.252752,-0.52501,0.448537,-0.53064,1.07702,0.088088,0.0693136,0.316422
0.0812985,0.265145,-0.502877,0.5788,-0.869478,1.18288,0.130384,0.0628608,0.241393
0.0528692,0.278625,-0.478078,0.55505,-1.3703,1.28015,0.220815,0.062067,0.144341
0.00809256,0.286048,-0.451126,0.0449801,-2.42742,1.37039,0.337299,0.0528694,-0.0114444
-0.0555119,0.281669,-0.420168,-0.315577,-2.87516,1.63143,0.350721,0.102056,-0.474572
-0.117439,0.274703,-0.385087,0.0186815,-2.21688,1.75334,0.0726152,0.260671,-1.147
-0.158938,0.276771,-0.349387,0.639795,-0.956103,1.58015,-0.195547,0.33508,-1.5097
-0.175328,0.286099,-0.318554,0.650984,0.103029,1.16331,-0.309847,0.281998,-1.3166
-0.171085,0.290221,-0.299245,0.0350018,0.859344,0.57269,-0.370941,0.164613,-0.898872
-0.148225,0.28498,-0.294569,-0.409542,1.54667,-0.0273328,-0.357114,0.0472672,-0.59741
-0.111393,0.276699,-0.300456,-0.431631,1.92536,-0.377089,-0.247604,0.00218529,-0.347497
-0.0699263,0.2705,-0.310184,-0.269733,1.91454,-0.478952,-0.14547,0.0180066,-0.0595915
-0.0321392,0.266586,-0.320919,-0.195788,1.54467,-0.552124,-0.117302,0.00793085,0.221716
-0.0034362,0.262919,-0.333665,-0.194512,0.988423,-0.684605,-0.105462,-0.0374018,0.427742
0.0146895,0.258953,-0.349118,-0.18873,0.448459,-0.807622,-0.0784997,-0.0625812,0.54117
0.0243533,0.25521,-0.365989,-0.147479,0.145869,-0.819179,-0.0415523,-0.0325095,0.597908
0.031359,0.252533,-0.38212,-0.0742895,0.194181,-0.751045,-0.00512137,0.00763938,0.625598
0.0401291,0.251347,-0.396261,-0.000489133,0.320918,-0.610399,0.0185459,0.030493,0.676798
0.0401291,0.251347,-0.396261,-0.000489133,0.320918,-0.610399,0.0185459,0.030493,0.676798
0.0489562,0.251795,-0.406242,0.0915535,0.282403,-0.343341,0.0391848,0.05206,0.731177
0.0537834,0.254739,-0.410535,0.233705,0.0747468,-0.0627777,0.0303596,0.0716186,0.743368
0.0527422,0.261011,-0.410263,0.383693,-0.160135,0.0957946,-0.00938246,0.0807201,0.708225
0.0481121,0.269928,-0.408856,0.499574,-0.19047,0.0583029,-0.0573231,0.0631861,0.615827
0.0489458,0.280855,-0.409849,0.585963,0.308907,-0.111914,-0.064328,0.0188455,0.456418
0.0619065,0.291635,-0.413953,0.458461,0.824391,-0.176438,0.0305586,-0.0137971,0.357506
0.078323,0.295458,-0.416005,-0.157525,0.591471,0.0242548,0.179542,0.00222248,0.327332
0.0788629,0.282099,-0.414749,-1.19382,-0.527427,-0.140186,0.119249,-0.132959,0.167083
0.0617908,0.249979,-0.423271,-1.85951,-1.36268,-0.962925,-0.105975,-0.335731,-0.31705
0.0360692,0.21108,-0.448818,-1.80988,-1.65853,-1.63952,-0.192243,-0.273517,-0.894489
0.0162797,0.179127,-0.483187,-1.29412,-0.810141,-1.72168,-0.174298,0.00350299,-1.27358
0.0200286,0.15741,-0.513245,-0.855949,0.709928,-1.20439,-0.0943646,0.15789,-1.24651
0.0501893,0.144713,-0.528238,-0.342517,1.98554,-0.294087,0.0621116,0.086866,-0.919963
0.0946361,0.14495,-0.525181,0.338377,2.35744,0.567421,0.118486,-0.0052309,-0.461738
0.135598,0.159977,-0.508975,0.930486,1.89294,1.16387,0.0226252,-0.0761021,-0.0135151
0.160587,0.185397,-0.485939,1.18582,0.970355,1.40297,-0.124397,-0.140752,0.345919
0.165251,0.212904,-0.462519,1.11848,-0.00267844,1.26756,-0.245945,-0.208989,0.557978
0.154591,0.236987,-0.4438,0.966934,-0.557224,0.90798,-0.308272,-0.236889,0.591958
0.139079,0.256267,-0.431444,0.763778,-0.654037,0.597155,-0.297098,-0.171547,0.52389
0.125196,0.270491,-0.422016,0.518521,-0.450589,0.538122,-0.210798,-0.0548167,0.394544
0.115217,0.279073,-0.41,0.184388,-0.250266,0.766395,-0.0762433,0.0605903,0.257291
0.104897,0.281373,-0.389717,-0.168637,-0.259097,1.22039,0.0897664,0.137691,0.0123405
0.0868424,0.276662,-0.360346,-0.588519,-0.851304,1.47164,0.145889,0.20059,-0.31393
0.0539217,0.263402,-0.332346,-0.882586,-1.64098,1.02395,0.013927,0.0695551,-0.703496
0.0161344,0.246875,-0.319755,-0.777378,-1.67265,0.121339,-0.0730329,-0.121241,-1.14197
-0.0101304,0.232898,-0.324446,-0.653984,-1.00785,-0.487349,-0.0698705,-0.0130982,-1.32363
-0.0194687,0.221005,-0.335872,-0.53512,-0.199178,-0.550917,0.0327269,0.146792,-1.18273
-0.0150116,0.213286,-0.345772,-0.233139,0.369723,-0.396683,0.105781,0.160662,-0.852054
-0.00435885,0.212136,-0.35267,0.09154,0.494466,-0.288939,0.0775796,0.107658,-0.422954
0.00496456,0.215669,-0.357912,0.225441,0.276603,-0.2307,0.00772373,0.0797385,-0.00451696
0.00646947,0.219439,-0.362737,0.110045,-0.279624,-0.256313,-0.0588503,0.0617063,0.337251
-0.0046319,0.21841,-0.369458,-0.233409,-0.968471,-0.431111,-0.0945382,0.0192137,0.543722
-0.0256698,0.210935,-0.381335,-0.497831,-1.29527,-0.732976,-0.0919216,-0.0587686,0.538564
-0.045777,0.200897,-0.399514,-0.545611,-1.03304,-0.991612,-0.0429431,-0.0575313,0.430171
-0.0571243,0.191665,-0.421117,-0.484099,-0.517676,-1.04478,0.00786054,0.00570942,0.379547
-0.0590972,0.184618,-0.441244,-0.317916,-0.0849189,-0.86454,0.0754999,0.0694964,0.426008
-0.0556143,0.182031,-0.456096,-0.00907928,0.108853,-0.584937,0.11938,0.0936705,0.518853
-0.0524087,0.18606,-0.465131,0.358668,0.0250616,-0.331486,0.137708,0.0805875,0.642799
-0.0529094,0.196706,-0.468939,0.667998,-0.157642,-0.105531,0.130814,0.0792592,0.766514
-0.0586626,0.211623,-0.468828,0.776482,-0.430024,-0.00144407,0.0953613,0.0837047,0.864712
-0.0700414,0.225876,-0.468201,0.635085,-0.684597,-0.0304857,0.0472714,0.0744541,0.906886
-0.0855693,0.236759,-0.468405,0.457034,-0.849663,-0.0891781,0.051022,0.0511882,0.822825
-0.100018,0.245048,-0.470487,0.382431,-0.567416,-0.19097,0.0556082,0.0269201,0.591803
-0.103477,0.254598,-0.475098,0.573788,0.209208,-0.370831,0.0430477,-0.0154017,0.282641
-0.085441,0.270467,-0.482933,0.922814,1.34539,-0.4972,0.0163626,-0.0308686,0.0255455
-0.0506783,0.291564,-0.490875,1.12669,1.79697,-0.395862,0.0760456,0.0106557,0.00846106
-0.013849,0.314971,-0.499882,1.06769,1.44667,-0.697064,-0.00790511,-0.0524244,-0.00755292
0.0115491,0.327324,-0.526345,0.05741,0.287701,-1.91189,-0.2028,-0.253228,0.0384721
0.0278903,0.313835,-0.580805,-1.29109,-0.245408,-3.25672,-0.287633,-0.422706,-0.10796
0.045524,0.27532,-0.656368,-2.19308,-0.150238,-3.99559,-0.280122,-0.225505,-0.492669
0.0642241,0.225131,-0.734416,-2.28071,0.140775,-3.68587,-0.112579,0.151929,-0.842613
0.0642241,0.225131,-0.734416,-2.28071,0.140775,-3.68587,-0.112579,0.151929,-0.842613
0.0871132,0.18127,-0.796035,-1.54498,0.946978,-2.61884,0.0705352,0.313122,-1.0472
0.12044,0.158543,-0.834367,-0.306065,1.68708,-1.37144,0.167933,0.250821,-0.961116
0.157502,0.161909,-0.850188,0.783949,1.62598,-0.147328,0.214676,0.157693,-0.597408
0.18255,0.185526,-0.846491,1.41609,0.890252,0.854981,0.142241,0.125962,-0.151457
0.187643,0.220717,-0.82902,1.6793,-0.00396551,1.41721,-0.0369984,0.118298,0.153529
0.174611,0.258822,-0.804735,1.5903,-0.677353,1.53821,-0.198274,0.0652075,0.29704
0.149279,0.291043,-0.779971,1.16768,-1.18423,1.29558,-0.324279,-0.0158135,0.335078
0.113637,0.311327,-0.760368,0.604098,-1.83133,0.807659,-0.390198,-0.0757581,0.272296
0.0692543,0.319307,-0.751257,0.115579,-2.25638,0.0893949,-0.439938,-0.112804,0.0631594
0.0272029,0.315073,-0.759346,-0.570085,-2.14695,-0.905976,-0.503583,-0.146459,-0.170717
-0.00213668,0.294289,-0.789215,-1.47553,-1.61897,-1.95425,-0.45903,-0.162257,-0.349222
-0.0129508,0.25974,-0.8383,-1.91527,-0.815574,-2.66099,-0.270763,-0.115897,-0.589304
-0.00872603,0.224442,-0.894474,-1.59878,-0.13739,-2.64139,0.0296405,0.0350622,-0.790789
0.0018489,0.199383,-0.942103,-0.902203,0.114026,-1.94708,0.298588,0.162115,-0.748542
0.00833342,0.188977,-0.972099,-0.127927,-0.0761184,-1.00961,0.444223,0.173526,-0.552505
0.00722171,0.192479,-0.984702,0.420866,-0.269633,-0.292526,0.415412,0.100045,-0.318816
7.87154e-05,0.202171,-0.986829,0.486033,-0.46796,0.0396425,0.284682,-0.0148868,-0.0488245
-0.00932889,0.209837,-0.985115,0.262013,-0.390795,0.0819962,0.17192,-0.148694,0.133906
-0.0148109,0.2127,-0.984833,0.0417272,-0.146439,-0.0769186,0.0803335,-0.22756,0.22101
-0.0145077,0.212305,-0.988273,-0.0674626,0.0913154,-0.248374,0.0391602,-0.236354,0.268674
-0.0105673,0.210903,-0.994102,-0.0626592,0.139271,-0.300653,0.060748,-0.214547,0.317982
-0.00850854,0.210457,-0.999664,0.0190565,-0.0874219,-0.225451,0.108128,-0.178376,0.367411
-0.0127796,0.212183,-1.00244,0.157038,-0.380536,-0.0357963,0.146816,-0.11985,0.383515
-0.0222306,0.216855,-1.00099,0.31616,-0.502457,0.164392,0.162943,-0.0787705,0.364216
-0.0325203,0.22463,-0.995985,0.454878,-0.393234,0.297052,0.161245,-0.0670039,0.341106
-0.0405577,0.234071,-0.988841,0.485769,-0.264999,0.356295,0.150662,-0.0631041,0.363272
-0.0473949,0.243098,-0.980929,0.445679,-0.261842,0.366626,0.137079,-0.0605288,0.392679
-0.0561354,0.251161,-0.973211,0.407479,-0.439567,0.327765,0.119119,-0.0558226,0.385693
-0.067612,0.259128,-0.966881,0.432845,-0.519041,0.224117,0.0886814,-0.0486935,0.328327
-0.0781728,0.267941,-0.963455,0.466958,-0.429093,0.0301231,0.0417069,-0.0381401,0.266366
-0.0840681,0.277334,-0.964488,0.452534,-0.169836,-0.207325,0.0197712,-0.0344959,0.225482
-0.0831631,0.286561,-0.970014,0.430335,0.0876055,-0.385584,0.0193009,-0.0160965,0.200535
-0.0776462,0.296201,-0.978305,0.487572,0.209671,-0.468406,0.0245229,0.0139497,0.164111
-0.0702989,0.308009,-0.986913,0.631959,0.281069,-0.422005,0.0405988,0.0414582,0.0969325
-0.0620725,0.321672,-0.993966,0.649634,0.300665,-0.362093,0.0222146,0.0275178,0.032193
-0.0542199,0.333167,-1.00161,0.423943,0.230531,-0.454789,-0.0925397,-0.00586393,-0.0696676
-0.0478423,0.337963,-1.01355,-0.0339128,-0.0281416,-0.742859,-0.252412,-0.0261,-0.239898
-0.0448676,0.332446,-1.03603,-0.623435,-0.388435,-1.42806,-0.447685,-0.0879501,-0.449015
-0.0402005,0.316608,-1.07599,-1.08274,-0.358142,-2.26812,-0.576279,-0.0824999,-0.678828
-0.02862,0.295456,-1.12873,-1.13968,-0.0320756,-2.58104,-0.52342,0.107049,-0.879889
-0.00992837,0.276716,-1.17923,-0.803321,0.48712,-2.1389,-0.404008,0.348272,-0.952412
0.0133961,0.265154,-1.21455,-0.367782,0.855639,-1.24516,-0.286212,0.428837,-0.825577
0.034672,0.260543,-1.2317,-0.0941124,0.754674,-0.497136,-0.272234,0.333091,-0.594084
0.0468872,0.259015,-1.23921,-0.0713342,0.221864,-0.337402,-0.416477,0.185175,-0.389125
0.0474644,0.25547,-1.24908,-0.262028,-0.381792,-0.686815,-0.542458,0.0332787,-0.258795
0.0421794,0.246862,-1.2679,-0.507294,-0.504158,-1.17881,-0.567347,-0.0695724,-0.213872
0.042621,0.234272,-1.29578,-0.614924,-0.0704328,-1.55923,-0.521486,-0.0638555,-0.197587
0.0538026,0.2208,-1.3289,-0.553682,0.42251,-1.69466,-0.394878,-0.0159908,-0.129251
0.0722948,0.209775,-1.3618,-0.324049,0.680619,-1.55925,-0.252136,0.0199613,-0.0168629
0.0914704,0.204213,-1.3905,0.00240417,0.607599,-1.28747,-0.16284,0.0318066,0.116973
0.0914704,0.204213,-1.3905,0.00240417,0.607599,-1.28747,-0.16284,0.0318066,0.116973
0.105684,0.205334,-1.41444,0.336863,0.321809,-1.05096,-0.135574,0.0300201,0.245687
0.113388,0.212731,-1.43535,0.602088,0.0158783,-0.930481,-0.129378,0.0159703,0.356176
0.115132,0.223501,-1.45586,0.672605,-0.277935,-0.961805,-0.133962,-0.00406328,0.456327
0.112793,0.233901,-1.47792,0.583827,-0.440157,-1.06613,-0.103584,-0.0249856,0.519842
0.108178,0.24121,-1.5018,0.407761,-0.577538,-1.15213,-0.0570966,-0.0262591,0.535976
0.102386,0.245878,-1.52613,0.311592,-0.592641,-1.14411,0.00197191,-0.00585958,0.464982
0.0941244,0.24878,-1.54951,0.182147,-0.832157,-1.08813,0.022296,0.032995,0.390552
0.0809452,0.249972,-1.57105,0.137828,-0.965817,-0.990633,0.0668132,0.0315105,0.235446
0.0665547,0.251128,-1.59152,0.11219,-1.00256,-1.00785,0.0476411,0.0281599,0.0811123
0.051957,0.251917,-1.61321,0.0981407,-0.945171,-1.08801,0.0398698,0.000619218,-0.125812
0.0404861,0.252138,-1.63683,-0.0102732,-0.84298,-1.21408,0.00838167,0.018609,-0.342288
0.0298048,0.249096,-1.6631,-0.192641,-0.826985,-1.34633,-0.017589,0.0463326,-0.488601
0.0234402,0.244903,-1.69186,-0.122089,-0.47231,-1.45592,-0.0070221,0.034378,-0.656174
0.0267111,0.24409,-1.72183,0.128424,0.112359,-1.42159,-0.00246346,0.0883225,-0.706807
0.0426055,0.249273,-1.74865,0.491212,0.827579,-1.1476,0.0548695,0.138957,-0.598483
0.0696866,0.261176,-1.7699,0.782005,1.2865,-0.852323,0.0551067,0.15934,-0.324695
0.100667,0.276409,-1.78616,0.84197,1.33037,-0.59577,0.0257539,0.136916,0.011172
0.128504,0.291195,-1.79865,0.742433,1.06321,-0.450204,-5.93215e-05,0.088779,0.269522
0.147133,0.302647,-1.80915,0.518779,0.448398,-0.401347,-0.0211347,0.0425547,0.423699
0.151034,0.308563,-1.81879,0.194448,-0.364418,-0.439589,0.00859247,-0.023138,0.483139
0.138881,0.307278,-1.82943,-0.174482,-1.1388,-0.59519,0.00618744,-0.0649973,0.441969
0.115539,0.298609,-1.84251,-0.536545,-1.54026,-0.756544,-0.00236205,-0.0547773,0.30672
0.0881885,0.282795,-1.85831,-0.873782,-1.59149,-0.905529,0.00578676,-0.0209014,0.138066
0.0645531,0.262258,-1.87639,-1.01465,-1.21178,-0.97369,0.0376426,0.0174558,-0.0720322
0.0508429,0.24203,-1.89462,-0.868975,-0.59853,-0.875927,0.104133,0.0557445,-0.270101
0.0487236,0.22755,-1.90872,-0.500913,0.042155,-0.53446,0.207266,0.0882627,-0.372759
0.0559258,0.22068,-1.91483,-0.185371,0.504991,-0.103547,0.229242,0.1276,-0.317754
0.0678579,0.218634,-1.91347,-0.0449673,0.676914,0.190277,0.144471,0.130104,-0.153997
0.0799164,0.219138,-1.90844,0.0599444,0.612203,0.274391,0.0363357,0.0970269,-0.00934511
0.0890162,0.221626,-1.90321,0.131923,0.385546,0.251518,-0.0440149,0.0845471,0.102752
0.0919015,0.224703,-1.89859,0.12428,-0.00663539,0.228679,-0.0608854,0.0812761,0.20268
0.0869097,0.227271,-1.89445,0.0892546,-0.394457,0.194323,-0.0592234,0.072182,0.253307
0.0750999,0.228667,-1.89136,0.0246461,-0.715168,0.111285,-0.058855,0.0658516,0.262453
0.0581402,0.228976,-1.89015,0.00533806,-0.932501,0.00467164,-0.0440328,0.0499323,0.23353
0.0391752,0.229128,-1.89144,0.0145343,-0.964894,-0.129978,-0.020716,0.0475174,0.187519
0.021748,0.229429,-1.89527,0.0308687,-0.846826,-0.238996,0.00961581,0.053319,0.162073
0.0086671,0.231112,-1.90119,0.14784,-0.576224,-0.340313,0.0315415,0.057734,0.133517
0.00152917,0.235801,-1.90926,0.324326,-0.35215,-0.443717,0.047677,0.0565135,0.153952
-0.0022483,0.243863,-1.91914,0.475096,-0.279909,-0.519683,0.0769041,0.0499248,0.226346
-0.00488208,0.254477,-1.93072,0.568582,-0.271249,-0.614357,0.0891823,0.0375824,0.313975
-0.00674156,0.266205,-1.94498,0.591085,-0.288588,-0.785548,0.0810585,0.0165051,0.3808
-0.00759846,0.277845,-1.96327,0.554296,-0.286323,-0.992043,0.0858593,-0.00382286,0.415173
-0.00680681,0.288036,-1.98561,0.435969,-0.244588,-1.15346,0.121639,0.00640556,0.422557
-0.00335974,0.295101,-2.01049,0.264466,-0.112458,-1.23109,0.16186,0.0338933,0.391246
0.0042756,0.299099,-2.03637,0.137984,0.133679,-1.24048,0.184345,0.0651518,0.317105
0.0173621,0.300356,-2.06142,0.0132997,0.417683,-1.14537,0.203494,0.0674975,0.258462
0.0341374,0.298963,-2.08391,-0.101207,0.576075,-1.01563,0.214255,0.0289964,0.175483
0.0518336,0.294585,-2.10407,-0.2543,0.593281,-0.944758,0.179563,-0.00749335,0.0640206
0.0687516,0.286684,-2.12328,-0.443572,0.520924,-0.96678,0.141,-0.0905637,-0.0752142
0.080967,0.272884,-2.14401,-0.815429,0.0604637,-1.15075,0.0760601,-0.161596,-0.188503
0.0824032,0.251209,-2.16812,-1.10568,-0.465179,-1.33705,0.0402687,-0.193166,-0.391211
0.0824032,0.251209,-2.16812,-1.10568,-0.465179,-1.33705,0.0402687,-0.193166,-0.391211
0.0795787,0.22731,-2.19406,-1.04192,-0.342067,-1.35186,0.0307807,-0.144409,-0.713255
0.0827663,0.20578,-2.21901,-0.941624,0.126131,-1.24001,-0.0188853,-0.0575096,-0.865361
0.0919792,0.183924,-2.24025,-1.09318,0.310712,-1.02387,-0.0756672,-0.0217008,-0.785198
0.100304,0.158877,-2.25663,-1.22278,0.222034,-0.847386,-0.113874,-0.092676,-0.678995
0.105656,0.134472,-2.26996,-1.01465,0.150448,-0.708834,-0.136185,-0.165311,-0.647961
0.111038,0.117539,-2.27992,-0.551569,0.285546,-0.434956,-0.133238,-0.181773,-0.576507
0.118894,0.110538,-2.28386,-0.115603,0.451172,-0.0267829,-0.165818,-0.139809,-0.376263
0.1291,0.112306,-2.28039,0.236441,0.599306,0.378649,-0.201601,-0.137549,-0.152509
0.139889,0.120978,-2.27104,0.477553,0.550831,0.629245,-0.231798,-0.174407,0.0708693
0.147009,0.133436,-2.25928,0.560395,0.281015,0.682622,-0.258688,-0.21431,0.270261
0.147221,0.145747,-2.24817,0.475172,-0.114655,0.572928,-0.276818,-0.245851,0.413815
0.139405,0.155081,-2.23959,0.331611,-0.535616,0.404998,-0.248324,-0.257451,0.487081
0.125312,0.161911,-2.23311,0.280569,-0.719566,0.344396,-0.179014,-0.2347,0.471599
0.111027,0.168587,-2.22679,0.317684,-0.560831,0.364388,-0.140005,-0.177013,0.439241
0.101926,0.176048,-2.21958,0.336704,-0.224554,0.428612,-0.109165,-0.144196,0.453814
0.0982944,0.184032,-2.2106,0.367838,-0.00388703,0.526343,-0.0566842,-0.132023,0.509603
0.0963315,0.192893,-2.2,0.403324,-0.0436956,0.599601,-0.0201495,-0.115841,0.575826
0.0902938,0.201912,-2.1877,0.379762,-0.335044,0.698011,0.0106445,-0.0744968,0.631944
0.077755,0.210861,-2.17291,0.416586,-0.580912,0.821134,0.0226613,-0.0108366,0.61781
0.0624119,0.222185,-2.156,0.618092,-0.566564,0.896277,-0.0223555,0.0760289,0.550866
0.0478433,0.237282,-2.13867,0.768286,-0.497306,0.866567,-0.0651465,0.151626,0.487241
0.0339101,0.252116,-2.12129,0.592621,-0.477852,0.919418,-0.0100504,0.218478,0.422923
0.0186958,0.257543,-2.10059,-0.256509,-0.663863,1.09336,0.108494,0.32955,0.311836
-0.011377,0.238671,-2.07732,-1.6113,-1.79039,1.15184,0.1697,0.445579,0.0907765
-0.0584307,0.198815,-2.05657,-2.12015,-2.38367,0.954718,-1.91033e-05,0.437666,-0.584665
-0.107993,0.160835,-2.04566,-1.4583,-2.22365,0.405051,-0.167625,0.394487,-1.30488
-0.143784,0.141283,-2.04487,-0.560996,-1.28298,-0.0364193,-0.0906065,0.332662,-1.50106
-0.157984,0.132285,-2.04982,-0.565045,-0.237962,-0.307526,0.0287868,0.248477,-1.14158
-0.152475,0.117677,-2.06099,-1.0375,0.627619,-0.549483,0.0768293,0.0982562,-0.681218
-0.132049,0.0982245,-2.07649,-1.0234,1.18187,-0.691334,0.131839,-0.0544144,-0.415126
-0.105689,0.083656,-2.09296,-0.591893,1.25003,-0.749954,0.140845,-0.104567,-0.174951
-0.0814697,0.0779538,-2.10816,-0.135999,1.03879,-0.685594,0.14377,-0.138937,0.110478
-0.0618917,0.0796235,-2.12035,0.201073,0.849852,-0.538508,0.169582,-0.174611,0.365651
-0.0450113,0.0867867,-2.12946,0.453825,0.775432,-0.410414,0.184185,-0.213066,0.577625
-0.0296126,0.0979426,-2.13606,0.607919,0.695421,-0.29487,0.191957,-0.239921,0.735494
-0.0173082,0.110813,-2.1409,0.670315,0.477414,-0.223415,0.1778,-0.24624,0.821019
-0.0102708,0.125026,-2.14488,0.759739,0.174175,-0.191874,0.139585,-0.222193,0.797974
-0.0090556,0.142392,-2.14829,1.03187,-0.0777619,-0.171384,0.0683511,-0.158931,0.679933
-0.00944253,0.168833,-2.15225,1.66172,0.0688793,-0.262075,-0.0355069,-0.10777,0.442677
-0.0017077,0.207099,-2.15763,2.03502,0.609462,-0.257214,-0.0622478,-0.0653131,0.296211
0.0128574,0.242551,-2.1625,1.34698,0.602151,-0.249734,0.0165262,-0.0583582,0.35874
0.0193727,0.254076,-2.17337,-0.263155,-0.325574,-0.917243,-0.0634426,-0.282676,0.353716
0.0119021,0.232094,-2.20304,-1.77309,-1.01158,-1.99258,-0.247163,-0.491923,-0.000591278
0.0020976,0.191599,-2.25112,-2.02281,-0.823423,-2.6381,-0.315749,-0.36586,-0.715353
0.00514717,0.158205,-2.30421,-1.24663,0.32048,-2.45869,-0.152925,-0.0753189,-1.2044
0.0331218,0.140855,-2.34412,-0.483034,1.86089,-1.44191,0.137882,0.0378053,-1.10336
0.0824007,0.135587,-2.36042,0.0228593,2.70017,-0.208465,0.297949,-0.0172481,-0.660107
0.13571,0.142622,-2.35429,0.624662,2.60593,0.854085,0.327293,-0.153835,-0.228758
0.177656,0.165118,-2.33192,1.20645,1.86853,1.6509,0.209363,-0.143889,0.11629
0.2003,0.200129,-2.29839,1.56897,1.04615,2.22428,0.0374448,-0.0390739,0.373228
0.206578,0.242628,-2.25751,1.75835,0.547589,2.51704,-0.100075,0.0235948,0.493421
0.203707,0.287779,-2.21252,1.74987,0.400912,2.66929,-0.140225,0.0716806,0.513406
0.198138,0.330658,-2.1623,1.45515,0.616946,2.91994,-0.104043,0.16869,0.472993
0.189539,0.363781,-2.10254,0.595079,0.369007,3.22216,-0.078344,0.291556,0.39182
0.160843,0.375965,-2.03641,-0.383085,-0.801828,2.93204,-0.158104,0.200682,0.10934
0.120507,0.371498,-1.98386,-0.709908,-1.21266,1.78341,-0.344346,0.0465143,-0.50138
0.0861627,0.355777,-1.95692,-1.19724,-1.24317,0.643873,-0.340738,-0.0207305,-0.899582
0.0587031,0.325547,-1.94735,-1.84976,-1.17564,0.142747,-0.154892,0.12894,-1.03376
0.0372686,0.288264,-1.94441,-1.73558,-0.797407,-0.0191404,-0.0621355,0.266802,-1.21266
0.0293241,0.26117,-1.94474,-0.962311,0.0090197,-0.0847654,-0.00464398,0.257296,-1.19673
0.0358362,0.247984,-1.94591,-0.434481,0.526938,-0.0569264,0.0312465,0.201581,-0.781152
0.0470676,0.240932,-1.9459,-0.310111,0.541698,0.0295342,0.054498,0.122611,-0.247306
0.0548435,0.234727,-1.94428,-0.325188,0.243157,0.0914113,0.0377364,0.0413853,0.134095
0.055315,0.228423,-1.94161,-0.302661,-0.132136,0.132985,0.00895452,-0.0147993,0.329041
0.0491944,0.223946,-1.93835,-0.144074,-0.363451,0.159275,-0.0128666,-0.0460333,0.397082
0.0413641,0.223597,-1.93487,0.0999258,-0.308383,0.178636,-0.0169158,-0.0469079,0.434935
0.0364452,0.228255,-1.931,0.34886,-0.0970703,0.225715,-0.00642406,-0.0256753,0.500805
0.0353862,0.237476,-1.92578,0.545541,0.0956224,0.330682,-0.00827808,0.027532,0.598798
0.0358892,0.249968,-1.91778,0.653898,0.122467,0.496722,-0.0182105,0.0869569,0.715382
0.0345891,0.263175,-1.90666,0.598266,0.0153574,0.612103,-0.0517021,0.120544,0.80131
0.0303677,0.273736,-1.89422,0.417722,-0.0912606,0.600961,-0.0993771,0.12081,0.823713
0.0257405,0.28148,-1.88304,0.357554,-0.0382525,0.489022,-0.141699,0.0999063,0.734039
0.0251369,0.289389,-1.87523,0.407939,0.235644,0.2574,-0.196117,0.0934412,0.619188
0.0339165,0.297064,-1.87411,0.338455,0.701974,-0.151049,-0.262527,0.0773055,0.564628
0.0548626,0.300427,-1.88188,-0.0280558,1.09804,-0.558215,-0.233074,-0.0329748,0.542777
0.0548626,0.300427,-1.88188,-0.0280558,1.09804,-0.558215,-0.233074,-0.0329748,0.542777
0.0782629,0.29401,-1.89503,-0.474243,0.710233,-0.705513,-0.0812368,-0.16617,0.437726
0.0875064,0.284639,-1.9102,-0.227464,-0.224069,-0.879886,-0.0610205,-0.222027,0.120779
0.0813987,0.28093,-1.9354,-0.0664307,-1.03391,-1.7284,-0.308529,-0.304828,-0.233332
0.0724324,0.270025,-1.98654,-0.754699,-1.13646,-3.29944,-0.516463,-0.437056,-0.350729
0.0743467,0.23998,-2.06455,-1.6594,-0.601145,-4.28778,-0.477301,-0.317661,-0.415786
0.0868293,0.196515,-2.14914,-1.87375,-0.000815392,-4.17996,-0.232924,-0.0809005,-0.57943
0.105072,0.158493,-2.22353,-1.08697,0.529676,-3.42669,-0.00331417,0.0415583,-0.780522
0.129359,0.143205,-2.28123,0.259475,1.01874,-2.41882,0.155388,0.0621497,-0.804242
0.159621,0.1555,-2.32225,1.46383,1.41475,-1.45097,0.188158,0.0811591,-0.643613
0.19547,0.186843,-2.35005,1.98237,1.64643,-0.760724,0.0396367,0.129407,-0.274688
0.229987,0.221909,-2.36987,1.767,1.32296,-0.45039,-0.0719389,0.0771939,0.0857803
0.252729,0.24836,-2.38582,1.13837,0.519246,-0.476339,-0.097813,-0.0237626,0.26044
0.253418,0.25846,-2.40131,0.157916,-0.990489,-0.742298,-0.0782633,-0.132027,0.262399
0.21816,0.246627,-2.41701,-0.898954,-2.88723,-0.995718,-0.05957,-0.169058,0.0533845
0.151431,0.220153,-2.4343,-1.2657,-4.02662,-1.14404,-0.122721,-0.0423633,-0.510233
0.0769072,0.195113,-2.45541,-0.933083,-3.60295,-1.18348,-0.227931,0.198302,-1.15847
0.024597,0.179291,-2.47793,-0.608442,-1.96236,-1.09811,-0.290253,0.407198,-1.41605
0.00770468,0.166711,-2.49816,-0.678613,-0.125883,-0.89936,-0.252669,0.417435,-1.19856
0.0208392,0.151518,-2.51392,-0.797435,1.03843,-0.68778,-0.133331,0.325836,-0.774245
0.0469148,0.136728,-2.52516,-0.593428,1.30497,-0.469312,-0.0141723,0.193187,-0.446488
0.0719499,0.128833,-2.5313,-0.146094,1.05417,-0.180092,0.033841,0.118437,-0.209385
0.0872006,0.129979,-2.53212,0.244406,0.433245,0.10425,-0.00900865,0.120947,0.0310557
0.0886716,0.137838,-2.52856,0.49382,-0.212514,0.296361,-0.0519642,0.0799981,0.215765
0.0793219,0.149634,-2.52324,0.620433,-0.602522,0.29474,-0.0958551,0.0233591,0.33853
0.0652764,0.162314,-2.51996,0.598303,-0.714758,0.0964248,-0.150036,-0.0153844,0.425321
0.0517794,0.172701,-2.52167,0.43559,-0.659583,-0.211391,-0.192832,-0.0325325,0.49302
0.0406873,0.178917,-2.52967,0.225316,-0.603653,-0.553675,-0.21767,-0.0326072,0.527458
0.0309902,0.181232,-2.54436,0.0686381,-0.655459,-0.885964,-0.211966,-0.0261946,0.531246
0.0202851,0.181793,-2.56564,0.0712886,-0.791633,-1.20382,-0.176322,-0.0258107,0.46481
0.00884543,0.183991,-2.5925,0.180246,-0.837547,-1.43392,-0.145308,0.0153831,0.391484
-0.00312416,0.187469,-2.62366,0.138627,-0.956421,-1.65092,-0.139844,0.0787683,0.384375
-0.017475,0.188309,-2.66077,-0.151115,-1.19161,-2.06158,-0.190034,0.106815,0.363093
-0.036187,0.181191,-2.71017,-0.738489,-1.61465,-2.84338,-0.300458,0.10116,0.235015
-0.0600898,0.163387,-2.77818,-1.31877,-1.90896,-3.76222,-0.312374,0.110385,-0.0242541
-0.0862039,0.14211,-2.86158,-1.30358,-1.90911,-4.21503,-0.163306,0.243561,-0.478036
-0.108519,0.129097,-2.94652,-0.79711,-1.37139,-3.96673,0.0245494,0.487809,-0.865382
-0.116366,0.126896,-3.02037,-0.280941,-0.306547,-3.27118,0.158551,0.624176,-1.00865
-0.104062,0.131471,-3.07833,0.066383,0.741049,-2.52353,0.204998,0.602497,-0.902008
-0.0776485,0.139327,-3.12191,0.319032,1.2204,-1.87934,0.174582,0.530875,-0.616388
-0.0488489,0.150175,3.12938,0.552276,1.12772,-1.36903,0.115556,0.447539,-0.313735
-0.0273614,0.163397,3.1066,0.665206,0.637958,-0.945614,0.0318916,0.394558,-0.0577257
-0.0181652,0.176833,3.09143,0.630062,0.021523,-0.609167,-0.0412773,0.330699,0.125738
-0.0214809,0.18817,3.08098,0.467317,-0.515132,-0.480886,-0.139438,0.244343,0.20905
-0.0336067,0.194841,3.07086,0.155975,-0.88281,-0.559654,-0.222467,0.157294,0.251521
-0.0512463,0.194954,3.05766,-0.183456,-1.10775,-0.748517,-0.270883,0.0711481,0.237779
-0.0702921,0.18982,3.03969,-0.426118,-1.13138,-1.00046,-0.271649,0.00247885,0.186538
-0.088448,0.181979,3.01555,-0.487821,-1.12363,-1.30995,-0.237467,-0.0533985,0.0945112
-0.10238,0.177512,2.98613,-0.201694,-0.72264,-1.51269,-0.16416,-0.0726864,-0.0474945
-0.105174,0.179576,2.95469,0.0408388,-0.125514,-1.57918,-0.129969,-0.0352396,-0.0294824
-0.0965635,0.183661,2.92267,0.0111718,0.388638,-1.61163,-0.0720629,-0.0341509,0.112558
-0.079403,0.18541,2.88959,-0.125563,0.669724,-1.64457,-0.0115022,-0.0958021,0.249097
-0.0602291,0.184329,2.85625,-0.194959,0.58371,-1.61757,0.0454553,-0.139116,0.339096
-0.0455003,0.1823,2.82422,-0.155977,0.297653,-1.51533,0.105827,-0.176557,0.35526
-0.0367836,0.181525,2.79479,-0.0306437,0.0718872,-1.38462,0.148613,-0.203077,0.322138
-0.0367836,0.181525,2.79479,-0.0306437,0.0718872,-1.38462,0.148613,-0.203077,0.322138
-0.0312465,0.183168,2.76807,0.0957982,0.0187657,-1.25326,0.164447,-0.220839,0.260288
-0.0266203,0.186423,2.74438,0.150025,-0.00118254,-1.07905,0.19562,-0.218952,0.206507
-0.0234025,0.1904,2.72503,0.20262,-0.0234099,-0.832364,0.233869,-0.206134,0.122742
-0.0221153,0.19519,2.71086,0.216348,-0.162832,-0.58483,0.241451,-0.1774,0.020627
-0.0271895,0.198483,2.70083,0.0721139,-0.553485,-0.423156,0.209254,-0.167823,-0.105704
-0.0391637,0.199299,2.69334,0.00773423,-0.719882,-0.32398,0.172702,-0.143372,-0.295433
-0.0501815,0.200403,2.68755,0.0965802,-0.439012,-0.257046,0.107994,-0.0707571,-0.473212
-0.0518522,0.204844,2.68312,0.357495,0.233514,-0.193636,0.0566505,0.00816251,-0.536139
-0.0391884,0.215713,2.68091,0.708246,0.953532,-0.0641483,0.0648207,0.0554743,-0.462372
-0.0167683,0.231893,2.68184,0.86007,1.2303,0.119195,0.0786661,0.093163,-0.219989
0.00472477,0.247348,2.68613,0.640574,0.939204,0.270537,0.0680814,0.0986848,0.0434679
0.0156265,0.256499,2.69211,0.272721,0.267269,0.295743,0.0240851,0.0689117,0.166171
0.0117362,0.258712,2.69696,-0.0468819,-0.528181,0.150193,-0.0377431,0.048682,0.16482
-0.00417773,0.255331,2.69756,-0.270807,-0.961087,-0.10527,-0.0686811,0.0265218,0.0551263
-0.0212013,0.249447,2.69245,-0.30323,-0.7565,-0.374059,-0.0745951,0.0512204,-0.0911511
-0.0277255,0.243823,2.68304,-0.289451,-0.119523,-0.490968,-0.0630181,0.117177,-0.135221
-0.0226009,0.238108,2.6739,-0.305356,0.375771,-0.346947,0.0176584,0.175028,-0.051442
-0.0112412,0.232076,2.66955,-0.305203,0.622914,-0.0639206,0.0856924,0.188967,0.0629733
0.000780601,0.226148,2.67086,-0.280783,0.551163,0.187736,0.0917685,0.16789,0.159519
0.00672615,0.221461,2.67644,-0.172673,0.144509,0.339364,0.0714716,0.116094,0.208161
0.00325602,0.220046,2.68388,0.035958,-0.334344,0.372134,0.0395318,0.0732703,0.208686
-0.00912841,0.222918,2.69123,0.243605,-0.720535,0.342279,0.0214146,0.0586774,0.196026
-0.0271096,0.228783,2.69781,0.337888,-0.891449,0.289095,0.0258811,0.0575881,0.19972
-0.0455787,0.235251,2.7032,0.316089,-0.803409,0.20321,0.0241816,0.0598386,0.199611
-0.0601644,0.240895,2.70653,0.269494,-0.560906,0.0844156,0.019421,0.0616312,0.192314
-0.0685292,0.246234,2.70721,0.274298,-0.276996,-0.0551261,0.0163613,0.0576724,0.194154
-0.0717388,0.25221,2.70496,0.303621,-0.116405,-0.20773,0.021787,0.0556509,0.223761
-0.0720073,0.258956,2.69952,0.314481,-0.0612601,-0.370214,0.0255094,0.0538007,0.275463
-0.0708932,0.265351,2.69057,0.249917,-0.0648496,-0.541499,0.0345412,0.0552773,0.334204
-0.0687738,0.270236,2.67802,0.149139,-0.0462918,-0.695957,0.058169,0.0514741,0.364948
-0.0654311,0.273184,2.66271,0.0492403,-0.0415862,-0.785123,0.0926839,0.0608749,0.368983
-0.0620235,0.274244,2.64638,-0.0385597,-0.0631714,-0.784844,0.119116,0.0871191,0.351953
-0.0592091,0.273918,2.63065,-0.0702173,-0.0740123,-0.729991,0.117058,0.1033,0.302462
-0.0556606,0.274189,2.61595,0.0300062,0.0709707,-0.695685,0.104716,0.0912921,0.210224
-0.0471802,0.276547,2.6022,0.115117,0.426857,-0.63116,0.0950686,0.0914252,0.159038
-0.0309526,0.279033,2.59095,0.0707522,0.901409,-0.438559,0.101879,0.0996751,0.136719
-0.00677403,0.279074,2.58507,-0.0968416,1.33695,-0.117039,0.119442,0.0767808,0.0967107
0.0218764,0.2747,2.5863,-0.333741,1.52242,0.208499,0.0982234,-0.00266781,-0.0185433
0.0478622,0.266478,2.59174,-0.517372,1.09259,0.201201,0.0335261,-0.141709,-0.193078
0.0604716,0.253836,2.59147,-0.744765,0.194207,-0.37318,-0.0986746,-0.338786,-0.399688
0.0632448,0.235564,2.57687,-1.01113,-0.180605,-1.13521,-0.145838,-0.485618,-0.621846
0.0656609,0.210333,2.55112,-1.35355,-0.0769916,-1.42623,-0.0786026,-0.361832,-0.788153
0.0724082,0.179489,2.52788,-1.53168,0.311574,-0.955282,0.0693202,-0.127152,-0.900388
0.0827375,0.150533,2.52107,-1.2191,0.565784,0.113153,0.228152,-0.0277697,-0.961773
0.0913877,0.135507,2.53565,-0.344003,0.44416,1.14184,0.22731,-0.0645231,-0.954494
0.0930061,0.14164,2.56455,0.657296,0.114462,1.69349,0.0589826,-0.160728,-0.80749
0.0879543,0.164083,2.59765,1.1938,-0.0706856,1.7013,-0.140403,-0.253476,-0.513552
0.0821942,0.191056,2.62619,1.19336,0.0375766,1.28257,-0.296047,-0.316711,-0.198589
0.0816588,0.214002,2.64437,0.941608,0.273739,0.686078,-0.351634,-0.345901,0.061335
0.0872125,0.230898,2.65164,0.70068,0.415815,0.201856,-0.311231,-0.305999,0.222646
0.0954978,0.243615,2.65179,0.590417,0.389515,-0.0318935,-0.237419,-0.206327,0.320787
0.102348,0.255482,2.64947,0.642161,0.224022,-0.0479162,-0.163077,-0.0939219,0.378464
0.10507,0.269701,2.64777,0.801628,-0.00582692,0.0476894,-0.097362,-0.0122283,0.421014
0.102367,0.287644,2.6482,0.976263,-0.235691,0.177064,-0.0449504,0.0529501,0.447853
0.102367,0.287644,2.6482,0.976263,-0.235691,0.177064,-0.0449504,0.0529501,0.447853
0.0959466,0.308666,2.65088,1.08121,-0.289264,0.27837,-0.0190521,0.106431,0.456674
0.0901827,0.330779,2.65546,1.067,-0.130941,0.359827,-0.00931165,0.146984,0.475897
0.0870802,0.351728,2.66206,0.960338,0.0396317,0.447168,0.0184061,0.174858,0.496608
0.0854264,0.370144,2.67097,0.790873,0.0792561,0.544572,0.0350341,0.196802,0.519467
0.0808719,0.384811,2.68252,0.573321,-0.140692,0.642998,0.0601643,0.19855,0.517498
0.0694771,0.395463,2.69602,0.409041,-0.486355,0.6764,0.0681695,0.177106,0.445525
0.0520139,0.403716,2.7096,0.360894,-0.69877,0.617565,0.0564982,0.162263,0.332472
0.0335669,0.412391,2.72167,0.489755,-0.616786,0.535762,0.0433038,0.17288,0.212784
0.0204411,0.424862,2.7325,0.744453,-0.221369,0.502175,0.0304498,0.221842,0.139848
0.0168185,0.442324,2.74384,0.968148,0.345152,0.581274,0.0279984,0.275895,0.144064
0.0213461,0.462434,2.7583,0.986992,0.660997,0.767228,0.0283827,0.321799,0.222127
0.0250518,0.48152,2.77708,0.876278,0.523831,0.936452,0.00555483,0.299705,0.240598
0.0229652,0.497548,2.79783,0.667332,0.211483,0.887813,-0.0406411,0.215737,0.161086
0.014394,0.507925,2.81373,0.319444,-0.326844,0.475008,-0.092212,0.108329,0.0309983
0.000162747,0.50874,2.81784,-0.286853,-0.867454,-0.112715,-0.0955554,-0.035918,-0.091088
-0.0144028,0.495793,2.80967,-1.00888,-0.902903,-0.553926,-0.0762906,-0.102105,-0.275987
-0.0235229,0.470396,2.79433,-1.51022,-0.732914,-0.722977,-0.044723,-0.00652286,-0.501879
-0.0284986,0.438794,2.77692,-1.65064,-0.490916,-0.755268,-0.0443799,0.100873,-0.732584
-0.026497,0.406519,2.75891,-1.63219,-0.0330443,-0.802682,-0.0682098,0.124983,-0.858034
-0.0155129,0.374134,2.74053,-1.66198,0.431334,-0.819631,0.000996172,0.0509828,-0.804486
0.00311519,0.341058,2.72386,-1.64847,0.837568,-0.695792,0.0537964,0.000896424,-0.677034
0.026479,0.309415,2.71172,-1.49291,1.07675,-0.508386,0.0529979,0.0131199,-0.516496
0.0500179,0.281154,2.7036,-1.3177,0.993604,-0.387349,0.0445869,-0.0232254,-0.299987
0.0680572,0.255665,2.69792,-1.21783,0.639064,-0.311321,0.0570543,-0.096278,-0.0738527
0.0775057,0.231509,2.69407,-1.16825,0.218259,-0.240016,0.0571906,-0.134857,0.0916609
0.0788705,0.209045,2.6916,-1.04149,-0.11474,-0.179186,0.014998,-0.132578,0.171218
0.074838,0.190657,2.69018,-0.756219,-0.29889,-0.100545,-0.0273166,-0.122172,0.186697
0.0684356,0.180064,2.69007,-0.280542,-0.301441,0.0277791,-0.00372381,-0.100967,0.195381
0.0647971,0.179818,2.69273,0.229459,0.0399513,0.244083,0.0237403,-0.0372595,0.255844
0.0692988,0.188761,2.6996,0.589255,0.518389,0.492965,0.0099742,0.0311935,0.405646
0.079973,0.20353,2.71087,0.789797,0.728363,0.71121,-0.0283884,0.0622195,0.595461
0.0909576,0.221641,2.72496,0.879899,0.625692,0.791599,-0.0783717,0.0421726,0.723092
0.0971481,0.240525,2.73926,0.862954,0.298987,0.75829,-0.142146,0.0183181,0.792073
0.0965368,0.258464,2.75103,0.80873,-0.0319705,0.524888,-0.194031,-0.000980914,0.789995
0.094411,0.274874,2.75745,0.779179,0.0773378,0.266473,-0.184055,-0.0400975,0.692655
0.101268,0.290501,2.76022,0.748457,0.7589,0.19192,-0.139736,-0.056951,0.587286
0.123257,0.304381,2.76417,0.546154,1.48705,0.361152,0.00698879,-0.143794,0.486193
0.148377,0.3143,2.77294,0.403092,1.08618,0.606277,0.26076,-0.386894,0.392483
0.155224,0.325602,2.78394,0.500089,-0.14737,0.466529,0.28829,-0.570791,0.254106
0.137704,0.329558,2.78501,-0.239058,-1.44439,-0.346748,0.0478677,-0.662276,0.197895
0.111267,0.316035,2.76992,-0.802702,-1.51043,-1.23974,-0.06585,-0.72634,-0.0736364
0.0945735,0.298096,2.73795,-0.604427,-1.1068,-1.92778,-0.0966003,-0.542267,-0.465473
0.0913585,0.285345,2.69527,-0.327602,-0.378294,-2.20476,0.00249963,-0.348745,-0.584049
0.105046,0.27486,2.65105,-0.36082,0.505918,-2.09416,0.103245,-0.200237,-0.495753
0.132152,0.262056,2.61241,-0.443732,1.10632,-1.72754,0.108968,-0.0663722,-0.348272
0.162676,0.250641,2.58386,-0.233694,1.15012,-1.15019,0.148628,0.0141843,-0.263855
0.187017,0.247119,2.5682,0.146781,0.864,-0.381035,0.225298,0.0976393,-0.216704
0.198582,0.253166,2.5687,0.398893,0.284897,0.57194,0.243487,0.210401,-0.169615
0.193891,0.266157,2.58875,0.487155,-0.1967,1.5724,0.248294,0.27389,-0.248526
0.177515,0.284335,2.62676,0.629684,-0.333146,2.29097,0.159135,0.263826,-0.431212
0.156457,0.305028,2.67382,0.604063,-0.48144,2.39954,-0.0939393,0.229519,-0.540417
0.128074,0.319502,2.71756,0.149727,-1.07558,1.84694,-0.366194,0.130317,-0.533481
0.0879691,0.317943,2.74673,-0.631691,-2.02791,0.858074,-0.505404,-0.00986546,-0.520727
0.0413089,0.300048,2.75469,-1.13717,-2.20899,-0.20028,-0.534188,-0.0903895,-0.710959
0.0413089,0.300048,2.75469,-1.13717,-2.20899,-0.20028,-0.534188,-0.0903895,-0.710959
0.0073314,0.276484,2.74196,-1.12965,-1.46572,-1.02913,-0.433094,-0.0656485,-0.874934
-0.00414914,0.257239,2.71576,-0.746664,-0.363438,-1.41677,-0.25351,0.0230428,-0.744231
0.00379131,0.246731,2.68758,-0.323137,0.374208,-1.2615,-0.104766,0.166919,-0.44678
0.0202239,0.243548,2.6659,0.0191712,0.698355,-0.838328,-0.0251037,0.238385,-0.146211
0.0381026,0.246241,2.65288,0.239655,0.697686,-0.433017,0.0150271,0.136323,0.0648501
0.0502665,0.24932,2.64631,0.0353286,0.363334,-0.257053,0.0382527,0.0128129,0.24697
0.0576191,0.246221,2.63969,-0.291276,0.262781,-0.438684,0.0298582,-0.0580931,0.386154
0.0661285,0.238122,2.62875,-0.425733,0.323646,-0.67031,0.043435,-0.10363,0.401589
0.0758197,0.228382,2.61384,-0.421085,0.294885,-0.831081,0.012966,-0.0907059,0.398558
0.0852544,0.219986,2.59756,-0.271429,0.299046,-0.797168,-0.0140225,-0.0175171,0.416921
0.0942838,0.215748,2.58306,-0.00350233,0.286281,-0.645479,-0.0344207,0.0269288,0.451421
0.102451,0.218419,2.57149,0.388658,0.263792,-0.455375,-0.0544623,0.0642361,0.48249
0.107985,0.229535,2.56248,0.802061,0.0706262,-0.31996,-0.0990432,0.0898905,0.536658
0.108895,0.248122,2.55431,1.09931,-0.15891,-0.281034,-0.134313,0.100305,0.592265
0.106466,0.270482,2.54582,1.18894,-0.267928,-0.307206,-0.128555,0.118453,0.616679
0.10461,0.292805,2.53614,1.10747,-0.159452,-0.396145,-0.158706,0.139438,0.633021
0.106716,0.312089,2.52435,0.92611,0.00703906,-0.520321,-0.197026,0.171138,0.637748
0.110497,0.3268,2.51093,0.67209,-0.106137,-0.571425,-0.185781,0.222564,0.6454
0.110112,0.336512,2.49756,0.455831,-0.311157,-0.584193,-0.0966765,0.225949,0.562661
0.113228,0.343776,2.48318,0.46721,0.369174,-0.710682,-0.0279454,0.114892,0.295796
0.140943,0.352523,2.46542,0.587523,1.68163,-0.818516,0.0352147,-0.00145823,0.122802
0.181811,0.360548,2.44747,0.467406,1.64622,-0.671976,0.124546,0.0031777,0.162545
0.217804,0.36564,2.4333,0.237985,1.42199,-0.626209,0.200878,-0.136212,0.183346
0.246362,0.356565,2.41362,-0.882734,0.69943,-1.55576,-0.066535,-0.220355,0.221703
0.264238,0.317201,2.37732,-1.97053,-0.0614843,-2.7412,-0.279669,-0.286999,0.0936185
0.271468,0.258682,2.32615,-2.23628,-0.669316,-3.4408,-0.277032,-0.158683,-0.33224
0.268747,0.202275,2.2697,-1.63165,-0.69545,-3.23351,-0.127649,0.103715,-0.72024
0.271227,0.165988,2.22188,-0.596662,0.112113,-2.17808,0.0583699,0.239201,-0.820017
0.2855,0.157169,2.19286,0.533199,0.768509,-0.84214,0.13492,0.218153,-0.669203
0.303369,0.174817,2.17996,1.43178,0.651991,0.00786988,0.0765438,0.0820395,-0.459121
0.305512,0.203706,2.17208,1.41638,-0.746376,0.0393932,0.0480734,-0.114152,-0.269502
0.280775,0.226499,2.16529,0.932466,-1.67629,0.000614672,0.169202,-0.355526,-0.249369
0.248624,0.238265,2.16123,0.305571,-1.44871,-0.0824273,-0.065504,-0.311621,-0.471491
0.229669,0.237543,2.15674,-0.264517,-0.537533,-0.434311,-0.229594,-0.335806,-0.704374
0.229936,0.224422,2.1433,-0.718483,0.111562,-1.18146,-0.326433,-0.39997,-0.802857
0.235291,0.199483,2.11609,-1.06106,-0.217655,-1.95722,-0.276126,-0.352221,-0.781549
0.234732,0.168982,2.07818,-0.955478,-0.449365,-2.30152,-0.0616667,-0.261966,-0.861741
0.233928,0.149224,2.03654,0.0900005,-0.365742,-2.11664,0.0949183,-0.0396531,-0.924064
0.232247,0.150049,1.99953,0.737631,-0.291533,-1.40912,0.222342,0.0757862,-0.739931
0.229764,0.161577,1.9748,0.919006,-0.34154,-0.771341,0.17953,0.0397355,-0.38842
0.226077,0.17652,1.95859,0.865578,-0.302091,-0.474987,0.0414728,-0.0157863,-0.120531
0.222882,0.190822,1.94791,0.808586,-0.21924,-0.257128,-0.0445134,-0.0383312,0.0639159
0.220122,0.208375,1.93988,1.11683,-0.222673,-0.142087,-0.120775,-0.0120318,0.167881
0.215445,0.232503,1.93149,1.40478,-0.488478,-0.12114,-0.195701,-0.0486996,0.279743
