attitude_roll,attitude_pitch,attitude_yaw,rotationRate_x,rotationRate_y,rotationRate_z,acceleration_x,acceleration_y,acceleration_z
0.140256,0.255928,-0.0180754,-0.155355,0.170626,-0.0037616,0.0133929,-0.0132449,-0.0138727
0.139741,0.253413,-0.0162428,-0.103641,-0.179229,0.128642,0.077488,0.00678256,0.045311
0.132771,0.252687,-0.013694,-0.0224841,-0.416488,0.0728205,0.0333975,-0.0120019,0.0304011
0.124814,0.252052,-0.0135324,-0.0765816,-0.361015,-0.0583399,-0.0115328,-0.0167365,0.00708807
0.119095,0.248447,-0.0149123,-0.267761,-0.244775,-0.104987,0.0074844,-0.0206115,0.0138365
0.116077,0.242061,-0.0160416,-0.321458,-0.0897084,-0.0691091,0.0392017,-0.0239826,-0.0183991
0.114872,0.23683,-0.0162707,-0.173306,-0.0458986,-0.0190298,0.0578303,-0.0150726,-0.0470305
0.114474,0.235492,-0.016425,0.025142,-0.0126229,-0.0116843,0.041181,-0.00871317,-0.0478349
0.114286,0.236596,-0.0169828,0.0648601,-0.0180833,-0.0320845,0.0338387,-0.00432909,0.0206551
0.114722,0.237228,-0.0178301,-0.0166461,0.0342269,-0.040608,0.0282769,0.00280094,0.0895358
0.116187,0.235481,-0.018606,-0.148168,0.0834159,-0.0545333,0.0113119,0.0178872,0.122676
0.118289,0.231611,-0.0191663,-0.21024,0.0986901,-0.0343575,0.0257022,0.0140455,0.122182
0.119318,0.227725,-0.0190978,-0.168761,-0.00792676,-0.00924087,0.0350849,0.0109941,0.119356
0.117937,0.224783,-0.0187332,-0.14398,-0.130487,0.0151827,0.0463834,0.00411424,0.121269
0.113915,0.221468,-0.0177201,-0.210564,-0.239628,0.0453648,0.0492178,0.0016143,0.133529
0.108032,0.216164,-0.0161522,-0.343907,-0.323422,0.0424032,0.0382721,0.00040327,0.131708
0.100851,0.208261,-0.0146158,-0.448635,-0.345932,0.0279605,0.0308591,-0.0122353,0.0823378
0.0939994,0.199241,-0.0130891,-0.454034,-0.307707,0.0285864,0.0145021,-0.0104337,0.00749075
0.0881192,0.190813,-0.0118838,-0.397156,-0.263676,0.010677,0.00287121,-0.0220586,-0.0433825
0.0831994,0.183673,-0.011091,-0.329318,-0.218843,0.0161226,0.0188345,-0.0374968,-0.0627476
0.0790291,0.177775,-0.00970595,-0.274685,-0.172837,0.0717516,0.0334423,-0.040079,-0.0641357
0.0754355,0.17279,-0.0077086,-0.239247,-0.144564,0.0750999,0.013893,-0.0558366,-0.0598832
0.0734023,0.168425,-0.00616971,-0.210486,-0.0279904,0.0487584,-0.0119044,-0.0805391,-0.0776414
0.073299,0.164309,-0.00499127,-0.212809,0.0150407,0.0424107,-0.0266843,-0.0797005,-0.0611918
0.0729705,0.16003,-0.00378967,-0.223928,-0.0447752,0.0436506,-0.0246415,-0.0881645,-0.0416346
0.0713081,0.155378,-0.00283265,-0.252451,-0.0833392,0.00983703,-0.0435339,-0.0966503,-0.0466163
0.0700467,0.149758,-0.00250713,-0.323999,-0.0338486,-0.0172616,-0.0642164,-0.0999768,-0.0610725
0.0704448,0.142834,-0.0024317,-0.35195,0.0797054,-0.01946,-0.0709058,-0.110153,-0.0733226
0.0730214,0.136611,-0.00232415,-0.254198,0.171126,-0.0133762,-0.0754201,-0.124372,-0.0778902
0.0765392,0.133048,-0.00220132,-0.107758,0.172281,-0.00261072,-0.0715926,-0.136753,-0.0358028
0.0799391,0.131998,-0.00209878,-0.0059026,0.175518,0.00622911,-0.0647551,-0.157722,0.0218419
0.0828544,0.132436,-0.00173512,0.0331669,0.112729,0.0322248,-0.0514411,-0.16214,0.0796243
0.0843246,0.133417,-0.00126539,0.0396371,0.0607714,0.00878315,-0.0578415,-0.164982,0.110272
0.0850956,0.133635,-0.00182741,-0.039456,0.00958484,-0.0657725,-0.0750799,-0.166963,0.134974
0.0849945,0.131301,-0.00370313,-0.186036,-0.0347027,-0.13231,-0.058893,-0.165401,0.149358
0.0843519,0.126579,-0.00637726,-0.263296,-0.0490921,-0.16745,-0.0408075,-0.154246,0.113518
0.0843739,0.121787,-0.0092023,-0.192123,0.0397947,-0.150843,-0.0304728,-0.122685,0.0406826
0.0866297,0.119717,-0.0115183,-0.017514,0.164754,-0.0964379,-0.0111645,-0.103118,-0.00158811
0.0910203,0.121431,-0.0129467,0.163195,0.262567,-0.0330946,-0.00590529,-0.0866764,0.0129414
0.0971694,0.126148,-0.0134947,0.27518,0.355852,0.0131499,-0.00881284,-0.085368,0.0725639
0.1052,0.132359,-0.013611,0.321911,0.451952,0.0351239,-0.0293498,-0.0829926,0.151758
0.115205,0.139388,-0.0135487,0.381053,0.542246,0.0451457,-0.0486351,-0.0747017,0.224307
0.126765,0.147896,-0.0137881,0.463297,0.621693,0.0317452,-0.0580743,-0.0641754,0.284217
0.139927,0.157592,-0.0144372,0.497715,0.678147,0.0389305,-0.0592207,-0.0397145,0.346913
0.153561,0.167449,-0.0149415,0.475742,0.672953,0.05223,-0.0589148,-0.0161177,0.393936
0.165793,0.176413,-0.0152069,0.412735,0.533994,0.0707138,-0.0613841,0.00466214,0.405077
0.174826,0.184431,-0.0146353,0.38031,0.378668,0.131882,-0.0561493,0.0450968,0.368828
0.180835,0.193202,-0.0124681,0.475751,0.294461,0.232055,-0.0595009,0.10518,0.288847
0.185776,0.204644,-0.00974896,0.582419,0.229087,0.212182,-0.0853196,0.141802,0.237509
0.188652,0.21557,-0.00909321,0.431512,0.0442162,0.0475443,-0.0787477,0.108146,0.210195
0.186183,0.219547,-0.0110567,-0.0534406,-0.326284,-0.165039,-0.0409569,0.0694877,0.146598
0.186183,0.219547,-0.0110567,-0.0534406,-0.326284,-0.165039,-0.0409569,0.0694877,0.146598
0.175869,0.211557,-0.0146396,-0.652544,-0.817713,-0.303031,0.030094,0.0441805,-0.070869
0.158158,0.194735,-0.0196609,-0.83307,-0.90748,-0.496126,-0.0264254,0.1271,-0.497272
0.14899,0.179897,-0.0305973,-0.401253,-0.138604,-0.790154,-0.118166,0.180729,-0.938704
0.15543,0.174088,-0.0476934,0.0116189,0.36089,-0.938888,-0.0101917,0.157936,-1.01629
0.166023,0.171173,-0.0665793,-0.060532,0.340299,-0.922124,0.113918,0.158665,-0.779003
0.175337,0.165529,-0.0825242,-0.200097,0.366096,-0.683964,0.213854,0.190058,-0.5968
0.184657,0.160738,-0.0911011,-0.0893783,0.381415,-0.215071,0.314195,0.188153,-0.488428
0.190439,0.161174,-0.0906555,0.121114,0.189503,0.240143,0.324928,0.126771,-0.324003
0.190355,0.165552,-0.0848501,0.147287,-0.115218,0.343077,0.193338,0.00415243,-0.145151
0.185454,0.167378,-0.0794636,-0.0838857,-0.208843,0.218077,0.067665,-0.0690288,-0.00381368
0.182696,0.163823,-0.0745839,-0.35117,0.0257731,0.214556,0.0429957,-0.0918226,0.0700907
0.184925,0.156366,-0.068247,-0.460171,0.316723,0.249158,0.0334428,-0.118913,0.116801
0.193667,0.149002,-0.0630032,-0.341986,0.614122,0.0836646,-0.0426519,-0.202729,0.124546
0.206229,0.143514,-0.062972,-0.204409,0.590226,-0.180064,-0.0800146,-0.25955,0.19885
0.216389,0.139696,-0.0675606,-0.072217,0.345633,-0.318948,-0.013974,-0.273462,0.260805
0.221762,0.138446,-0.0736968,0.0937722,0.144777,-0.267142,0.0643517,-0.229916,0.259436
0.224605,0.141305,-0.0779124,0.273907,0.0906132,-0.0729897,0.106601,-0.160724,0.228013
0.226254,0.148075,-0.0792713,0.411994,0.0615855,0.0806406,0.114827,-0.126803,0.221311
0.226995,0.156956,-0.0791456,0.422526,-0.0231905,0.0993857,0.0502683,-0.102812,0.233839
0.224514,0.164135,-0.0798804,0.278691,-0.236069,-0.021427,-0.0189262,-0.0651924,0.257103
0.217831,0.166819,-0.0822279,0.0151519,-0.469476,-0.133669,-0.0287555,-0.0149381,0.209091
0.20781,0.163869,-0.084689,-0.23008,-0.550418,-0.143505,-0.000169188,0.0281728,0.0876455
0.197778,0.159043,-0.0855166,-0.170997,-0.438962,-0.0159739,0.0553175,0.0579092,-0.0894251
0.191128,0.159622,-0.0836155,0.229728,-0.203516,0.230016,0.100397,0.0816135,-0.205694
0.188325,0.170755,-0.0785452,0.759794,-0.0120034,0.448308,0.113482,0.0740858,-0.166992
0.187685,0.190722,-0.0724304,1.0391,0.0435627,0.499768,0.0846967,0.0217823,0.026133
0.18797,0.212717,-0.0666803,0.978683,0.110514,0.457205,0.0374549,-0.0218701,0.239251
0.190106,0.231789,-0.0614885,0.807818,0.2264,0.400059,0.00668766,-0.0320758,0.380161
0.19538,0.248188,-0.0570213,0.735491,0.40393,0.333347,-0.0481151,0.0167047,0.441822
0.203988,0.263734,-0.0540192,0.742071,0.500807,0.264912,-0.101974,0.0738127,0.492587
0.21267,0.2793,-0.0527915,0.749748,0.368407,0.162727,-0.130732,0.092883,0.549379
0.217983,0.293435,-0.0541736,0.637238,0.115665,0.00539754,-0.119538,0.0935637,0.570895
0.21901,0.302615,-0.0580299,0.296798,-0.0978593,-0.157665,-0.026544,0.0501997,0.524151
0.218923,0.301638,-0.0624747,-0.342703,0.013427,-0.282618,0.0192197,0.0535701,0.38871
0.223104,0.286015,-0.0662458,-1.0876,0.229641,-0.392298,0.0142932,0.053906,0.16245
0.224955,0.260258,-0.0667595,-1.28395,-0.140932,-0.159461,0.168666,0.0702875,-0.184855
0.214408,0.23935,-0.061284,-0.854182,-0.802732,0.179552,0.266777,0.140758,-0.60306
0.189532,0.226037,-0.05309,-0.708192,-1.45454,0.334314,0.267275,0.126751,-0.853086
0.158379,0.212273,-0.0418032,-0.817313,-1.23274,0.493695,0.230695,0.00134732,-1.07184
0.142256,0.199433,-0.0296761,-0.549378,-0.0335156,0.505804,0.0629682,-0.0100006,-1.32123
0.151794,0.19682,-0.0169542,0.1273,1.13078,0.709479,-0.00258636,0.0430402,-1.26561
0.175668,0.206513,-0.00250747,0.531191,1.42023,0.839486,-0.0225388,-0.00508079,-0.800792
0.198718,0.221116,0.0130515,0.58699,1.19217,0.907117,-0.0793706,-0.0704462,-0.317991
0.21607,0.235379,0.0277501,0.510394,0.884844,0.759482,-0.213974,-0.108997,-0.0147848
0.228882,0.247081,0.038151,0.39928,0.666609,0.478435,-0.322232,-0.107705,0.156212
0.239246,0.254576,0.0433834,0.202231,0.512935,0.200663,-0.367028,-0.0886191,0.287678
0.247868,0.256424,0.044652,-0.0532907,0.377832,-0.0316715,-0.37344,-0.0666743,0.383175
0.254515,0.253166,0.0427624,-0.176764,0.250799,-0.221046,-0.377661,-0.0545531,0.398256
0.260172,0.249154,0.0374009,-0.0524612,0.181243,-0.378259,-0.375692,-0.0333532,0.343809
0.264989,0.247947,0.0283331,0.17193,0.0824784,-0.494534,-0.350722,-0.00275454,0.33057
0.2683,0.250764,0.0167202,0.398697,-0.0449091,-0.5045,-0.289486,0.027166,0.356901
0.2683,0.250764,0.0167202,0.398697,-0.0449091,-0.5045,-0.289486,0.027166,0.356901
0.269856,0.257785,0.00461919,0.580328,-0.0741965,-0.438645,-0.221102,0.0619312,0.395097
0.272458,0.267888,-0.00678591,0.674979,0.0604,-0.357761,-0.190288,0.0826737,0.43909
0.27814,0.279148,-0.0170789,0.670145,0.225809,-0.291048,-0.176735,0.0914089,0.503371
0.286194,0.290083,-0.0261203,0.612638,0.300074,-0.248562,-0.189728,0.105963,0.563456
0.29334,0.299442,-0.0342668,0.507118,0.149756,-0.228052,-0.19317,0.110173,0.617337
0.295267,0.30689,-0.0410228,0.396492,-0.205663,-0.164333,-0.155588,0.100314,0.616873
0.286242,0.313029,-0.0455434,0.331531,-0.874047,-0.0861867,-0.100782,0.107655,0.533895
0.267617,0.318895,-0.049732,0.362732,-0.942946,-0.139668,-0.0904722,0.123424,0.302698
0.256136,0.326242,-0.0544725,0.460526,-0.37578,-0.108915,-0.0661839,0.105291,0.0623007
0.251666,0.333994,-0.0596661,0.352236,-0.364339,-0.201879,0.0174737,0.0227652,-0.0243662
0.241635,0.334192,-0.0671369,-0.234132,-0.919899,-0.520288,0.0752479,-0.10191,-0.0514276
0.221691,0.317897,-0.0799823,-1.07112,-1.45663,-1.04704,0.101715,-0.192954,-0.200046
0.196427,0.286513,-0.0982354,-1.52748,-1.54826,-1.2087,0.236511,-0.112579,-0.597327
0.17261,0.256154,-0.113503,-1.04265,-1.20151,-0.707324,0.437,0.0596976,-1.08512
0.153311,0.244893,-0.118085,0.0180928,-0.891315,0.062974,0.545083,0.147833,-1.3
0.136061,0.254436,-0.113057,0.749313,-0.725588,0.48471,0.418057,0.116049,-1.15204
0.120822,0.271262,-0.104495,0.715719,-0.577646,0.510279,0.193511,0.0509826,-0.79034
0.109557,0.28292,-0.0966657,0.35231,-0.319101,0.36311,0.0686084,-0.0347581,-0.48138
0.104593,0.28779,-0.0915246,0.119179,-0.0423005,0.195525,0.0327499,-0.0591684,-0.307612
0.104727,0.289951,-0.08804,0.0742244,0.128704,0.18653,0.0472581,-0.00930685,-0.172694
0.106272,0.291857,-0.0832228,0.0685835,0.141167,0.30312,0.0693421,0.0264859,-0.019219
0.106086,0.294012,-0.0762345,0.0743365,0.0263651,0.366865,0.0472464,0.0307152,0.117526
0.102463,0.296558,-0.0694665,0.114684,-0.204549,0.284467,0.0125327,0.000360459,0.233376
0.0947631,0.29937,-0.0657599,0.125169,-0.441513,0.0783745,0.00577857,-0.04163,0.309359
0.0857146,0.301009,-0.0665007,0.0205902,-0.440818,-0.116321,0.0247,-0.0461977,0.35206
0.0795571,0.299027,-0.0693088,-0.201127,-0.245604,-0.140411,0.0875057,0.00662667,0.39448
0.076878,0.293066,-0.0706462,-0.354728,-0.0946203,-0.0258607,0.153996,0.0559792,0.410101
0.0743453,0.286268,-0.0692203,-0.306635,-0.141907,0.104916,0.171361,0.0900217,0.414906
0.0692967,0.28201,-0.0660185,-0.138193,-0.289634,0.151219,0.144111,0.0972715,0.409655
0.061587,0.281317,-0.0635795,0.0561383,-0.401218,0.0671138,0.087493,0.0988646,0.402305
0.0543018,0.284427,-0.0631893,0.243071,-0.283387,0.0038017,0.0813283,0.118697,0.38158
0.0506294,0.290128,-0.0632125,0.31367,-0.0691288,0.043685,0.129394,0.162067,0.411707
0.051218,0.296497,-0.0614,0.3077,0.163579,0.164384,0.157795,0.206204,0.459583
0.054568,0.302332,-0.057285,0.241833,0.26595,0.252392,0.147518,0.224704,0.504508
0.0580636,0.306015,-0.0521611,0.0918532,0.235193,0.242499,0.110498,0.207969,0.531235
0.0608843,0.306236,-0.0480243,-0.111924,0.151977,0.154669,0.0801372,0.162494,0.48749
0.0613744,0.30089,-0.0446426,-0.459358,0.0581687,0.142427,0.126783,0.145598,0.385282
0.0659874,0.28839,-0.0398997,-0.844451,0.612035,0.241064,0.166718,0.123826,0.170331
0.0817666,0.265478,-0.0332371,-1.53326,1.08682,0.195529,0.155271,0.0427511,-0.00902104
0.102608,0.2291,-0.0269744,-2.08548,1.07729,0.0936642,0.0589703,-0.0282543,-0.232011
0.117286,0.188196,-0.0199609,-1.94924,0.396894,0.167583,-0.020286,0.037627,-0.576545
0.109208,0.156108,-0.0103441,-1.35679,-1.12711,0.414181,0.0521851,0.0390198,-0.84527
0.0720891,0.133784,0.00207973,-1.03784,-2.16851,0.579178,0.014295,-0.048179,-1.08532
0.0318858,0.116026,0.0143424,-0.785404,-1.43888,0.514117,-0.225849,-0.148959,-1.37066
0.019686,0.105021,0.0239429,-0.294746,0.362665,0.431279,-0.35765,-0.23056,-1.48904
0.0409788,0.105732,0.0320509,0.326322,1.68143,0.372649,-0.357297,-0.248942,-1.19007
0.0771427,0.116564,0.0379263,0.674478,1.85693,0.286862,-0.305578,-0.258914,-0.611623
0.108547,0.131296,0.0411829,0.727976,1.23855,0.147023,-0.272731,-0.260163,-0.112449
0.12438,0.144246,0.0397352,0.557532,0.352705,-0.151775,-0.293273,-0.243613,0.199072
0.126753,0.151699,0.0323874,0.265372,-0.135756,-0.466813,-0.296455,-0.211416,0.309306
0.126753,0.151699,0.0323874,0.265372,-0.135756,-0.466813,-0.296455,-0.211416,0.309306
0.12496,0.152954,0.0205521,0.0399439,-0.176162,-0.657599,-0.261073,-0.135865,0.277998
0.125173,0.151471,0.00642155,0.0133755,-0.00930576,-0.723146,-0.206746,-0.0553296,0.209331
0.128599,0.150985,-0.00750224,0.128455,0.153703,-0.63221,-0.114106,0.00717735,0.174338
0.135068,0.153872,-0.0187087,0.308074,0.303152,-0.414074,-0.0555218,0.0572571,0.186765
0.142413,0.161107,-0.0254046,0.502001,0.303967,-0.137277,-0.0301849,0.0950273,0.248527
0.147896,0.172708,-0.0275814,0.67242,0.192156,0.076524,-0.0490502,0.097388,0.327091
0.149737,0.187896,-0.0272134,0.831807,0.00518243,0.170511,-0.115501,0.0833229,0.390108
0.149233,0.205859,-0.0265819,0.90694,-0.0213463,0.142061,-0.163012,0.0650799,0.426822
0.149293,0.223441,-0.0268793,0.827805,0.04329,0.0929665,-0.180976,0.0756665,0.48503
0.152,0.239132,-0.027833,0.744575,0.203928,0.043816,-0.17352,0.0887579,0.512329
0.157438,0.253251,-0.0300388,0.689739,0.263857,-0.0341994,-0.155342,0.10744,0.536086
0.162582,0.266072,-0.0333069,0.626473,0.123184,-0.0759053,-0.11868,0.129704,0.558472
0.162478,0.277415,-0.0378225,0.570272,-0.301436,-0.186148,-0.113144,0.161734,0.567294
0.151838,0.287922,-0.0451112,0.606176,-0.976281,-0.324117,-0.0565891,0.1802,0.505055
0.130305,0.300579,-0.0538903,0.777476,-1.3455,-0.309972,0.0603072,0.222725,0.332138
0.107518,0.315899,-0.0612334,0.764234,-1.06933,-0.201245,0.123326,0.259111,0.160361
0.0941644,0.325714,-0.0656258,0.135743,-0.412851,-0.131831,0.153747,0.192834,0.091495
0.0894164,0.316407,-0.0682395,-1.07709,-0.269277,-0.232566,0.0963794,0.0756808,0.0592489
0.0818428,0.285405,-0.0733587,-1.82558,-0.676111,-0.541125,-0.0308981,-0.0166415,-0.27604
0.0671444,0.249367,-0.083812,-1.55743,-1.00447,-0.663146,0.0170584,-0.00636828,-0.827518
0.0511374,0.226854,-0.0921838,-0.582867,-0.720768,-0.190244,0.21083,0.0736836,-1.18969
0.0393616,0.22622,-0.0883097,0.450054,-0.446117,0.538546,0.34309,0.0622929,-1.20139
0.0256257,0.240775,-0.0737857,0.833227,-0.636212,0.848787,0.22005,-0.0324037,-0.866827
0.00757628,0.255588,-0.0571586,0.567364,-0.673848,0.739761,-0.000707828,-0.149743,-0.536053
-0.00445156,0.263229,-0.0450062,0.211304,-0.184879,0.425509,-0.125005,-0.232079,-0.358399
-0.00462132,0.264479,-0.0396426,-0.0798413,0.270289,0.110186,-0.120982,-0.23835,-0.198432
0.0025093,0.260118,-0.0391362,-0.348168,0.394557,-0.0259501,-0.017821,-0.237587,-0.0361457
0.00862243,0.2517,-0.039792,-0.446092,0.173113,-0.0337964,0.0737111,-0.238437,0.0584509
0.0101142,0.24497,-0.0403188,-0.178034,-0.00632372,-0.0270735,0.12535,-0.237545,0.0286582
0.00940876,0.245431,-0.0409097,0.209569,-0.0833589,-0.0318596,0.13838,-0.197898,0.0399514
0.00760594,0.251978,-0.0418439,0.414797,-0.095358,-0.0668215,0.132084,-0.16134,0.131647
0.00729564,0.260506,-0.0442411,0.418513,0.0156136,-0.168813,0.0886231,-0.101347,0.231676
0.0103612,0.268077,-0.0487285,0.343537,0.164509,-0.24797,0.07143,-0.0266564,0.306439
0.0157384,0.274243,-0.0540045,0.298964,0.21459,-0.239376,0.0958123,0.0500846,0.353258
0.0212415,0.280646,-0.0582684,0.368735,0.216683,-0.147101,0.127403,0.122039,0.379346
0.0254341,0.289379,-0.0599817,0.512114,0.143949,0.00201298,0.14538,0.174761,0.409771
0.0271808,0.30077,-0.059125,0.608087,0.0619433,0.100899,0.133772,0.192328,0.448332
0.0266141,0.313083,-0.0569396,0.606494,-0.0696594,0.121486,0.0980347,0.185954,0.491197
0.0236564,0.324117,-0.0554456,0.468241,-0.155192,0.0296345,0.048485,0.182303,0.501561
0.0207383,0.330744,-0.0561147,0.194022,-0.153168,-0.0611282,0.0371498,0.182672,0.473292
0.0186369,0.332581,-0.0573296,0.0287205,-0.110286,-0.0270297,0.0681092,0.198401,0.364747
0.016328,0.333587,-0.0566978,0.0948211,-0.0794639,0.0861304,0.10295,0.205502,0.228409
0.0155949,0.336584,-0.0538774,0.190597,0.098836,0.191035,0.102026,0.154331,0.0998404
0.0176748,0.340253,-0.0488481,0.120991,0.283937,0.265587,0.0677357,0.0865184,0.0214261
0.0233771,0.338462,-0.0442954,-0.371222,0.43948,0.120834,0.00737005,0.0169883,-0.0209499
0.0336275,0.324644,-0.0439075,-0.996017,0.547885,-0.109749,-0.0874528,-0.0369399,-0.12789
0.0412101,0.300659,-0.0456263,-1.33454,0.0618008,-0.0991981,-0.0400523,-0.0555959,-0.302521
0.0336185,0.274321,-0.0443698,-1.22856,-0.754278,0.141484,0.0379266,-5.66542e-05,-0.553911
0.0155473,0.254645,-0.0383052,-0.724667,-0.750952,0.373106,-0.0158846,-0.00285885,-0.876908
0.0045434,0.245713,-0.0295574,-0.213948,-0.0880293,0.440913,-0.128736,-0.0566635,-1.01564
0.00728776,0.244084,-0.0210943,-0.007587,0.49052,0.369008,-0.209525,-0.127702,-0.877964
0.00728776,0.244084,-0.0210943,-0.007587,0.49052,0.369008,-0.209525,-0.127702,-0.877964
0.0168597,0.24379,-0.0148032,-0.0562044,0.543763,0.240934,-0.274188,-0.126446,-0.575286
0.0243966,0.241589,-0.0112023,-0.159943,0.295463,0.101148,-0.288044,-0.117733,-0.337084
0.0282991,0.238396,-0.0106167,-0.138204,0.133332,-0.0605102,-0.282286,-0.138687,-0.225754
0.031352,0.236569,-0.0135421,-0.0314298,0.11888,-0.221493,-0.279787,-0.123252,-0.149027
0.0354434,0.237085,-0.0191997,0.100971,0.149445,-0.314583,-0.218679,-0.107766,-0.0486186
0.0400853,0.240048,-0.0260421,0.208594,0.157905,-0.333835,-0.141434,-0.0782601,0.0813556
0.0452996,0.244305,-0.0329796,0.233473,0.210139,-0.322719,-0.0933322,-0.0485228,0.208309
0.0518865,0.248305,-0.0397895,0.193926,0.282651,-0.320353,-0.0796459,-0.0223511,0.326699
0.0596014,0.251199,-0.0463896,0.13344,0.307342,-0.296561,-0.0617403,-0.00317422,0.424552
0.0667137,0.25311,-0.0520336,0.0989462,0.261842,-0.231839,-0.033809,0.0231665,0.489758
0.0718297,0.254991,-0.0560462,0.126054,0.140315,-0.143094,-0.00873271,0.0490965,0.512793
0.0741904,0.258268,-0.0585492,0.230785,0.0463224,-0.0895281,0.0027073,0.0617422,0.504854
0.0752907,0.264356,-0.0607812,0.394432,0.00829522,-0.0843729,-0.0288749,0.0782131,0.477587
0.0750125,0.27359,-0.0628346,0.531402,-0.100525,-0.0300834,-0.0205191,0.0917233,0.461992
0.0721299,0.28475,-0.0632754,0.562759,-0.195126,0.0550522,-0.00127906,0.0920293,0.442893
0.0668307,0.295286,-0.0630087,0.477635,-0.331266,0.0260467,-0.0261252,0.0639172,0.382394
0.0604388,0.303079,-0.0640709,0.292604,-0.30037,-0.088136,-0.0534986,0.0222911,0.299435
0.0570371,0.306378,-0.067966,0.0694698,-0.157575,-0.269078,-0.120697,0.0262018,0.212578
0.0573682,0.306645,-0.0756172,0.0495245,-0.043698,-0.45715,-0.12026,-0.00830317,0.0343332
0.0608731,0.309311,-0.0861991,0.297778,0.0788298,-0.504942,-0.0121721,-0.0384317,-0.182232
0.0663337,0.316921,-0.0962845,0.482779,0.116405,-0.393315,0.096394,-0.00392467,-0.258525
0.0678981,0.325496,-0.10358,0.389302,-0.255445,-0.234234,0.199373,-0.00384444,-0.263035
0.0576932,0.330521,-0.107094,0.100753,-0.889427,-0.0700701,0.214701,0.0316586,-0.315664
0.0339941,0.328537,-0.107068,-0.272684,-1.44532,0.0652136,0.141521,0.0742917,-0.469559
0.00189666,0.322851,-0.10346,-0.223742,-1.62338,0.282344,0.141054,0.038555,-0.735017
-0.0323754,0.32268,-0.094443,0.264519,-1.45644,0.560691,0.172392,0.052415,-0.883407
-0.0603484,0.333317,-0.0798317,0.853993,-0.831105,0.762751,0.0504311,0.0690002,-0.799174
-0.07705,0.352899,-0.0615909,1.14311,-0.291012,0.769259,-0.0493824,-0.0170053,-0.56415
-0.0860132,0.372595,-0.046127,0.869441,-0.0544255,0.483065,-0.128834,-0.0679278,-0.275197
-0.0851327,0.384305,-0.0388122,0.34247,0.462791,0.0855401,-0.157912,-0.101633,0.00860184
-0.0699094,0.385305,-0.0413231,-0.261887,0.933753,-0.315959,-0.13612,-0.0710123,0.222592
-0.0448065,0.375302,-0.0517013,-0.763439,1.14443,-0.562155,-0.0570506,0.00516477,0.378102
-0.0189835,0.357501,-0.0653448,-1.00034,0.87194,-0.636062,0.0472774,0.0419661,0.445974
-0.003031,0.338722,-0.0782833,-0.828508,0.269296,-0.540302,0.144811,0.0429751,0.376831
0.000470956,0.326835,-0.0877809,-0.340266,-0.159109,-0.354056,0.172726,0.0627002,0.270458
-0.00158792,0.325031,-0.0932638,0.129335,-0.168555,-0.173031,0.119562,0.0816829,0.215447
-0.00319323,0.330181,-0.0954962,0.339872,-0.0864911,-0.0427896,0.102859,0.0657305,0.232676
-0.00436124,0.336924,-0.0952852,0.311596,0.00864573,0.0555271,0.092739,0.0495799,0.281642
-0.00193823,0.341784,-0.093678,0.169094,0.29545,0.0845141,0.048106,0.0391781,0.325869
0.00614547,0.343962,-0.0920302,0.0652588,0.540022,0.0601077,-0.00389344,0.0327153,0.359301
0.0176785,0.345237,-0.0918351,0.077348,0.573655,-0.0579586,-0.0510736,0.0145668,0.358405
0.0271869,0.346757,-0.0951767,0.0585483,0.220047,-0.263521,-0.0575938,0.0166992,0.372658
0.0293087,0.345642,-0.10279,-0.167232,-0.28306,-0.428664,-0.0223987,0.0233712,0.385873
0.0215567,0.341146,-0.111274,-0.197392,-0.741309,-0.354139,0.0857052,0.0516233,0.270309
0.00793056,0.339535,-0.117164,0.0703183,-0.723,-0.202967,0.115584,0.131785,0.0944303
-0.00183216,0.344394,-0.119033,0.400844,-0.320491,0.0427597,0.102936,0.14915,-0.0360469
-0.00760171,0.353203,-0.115403,0.398661,-0.143355,0.262152,0.115683,0.0931123,-0.0736898
-0.00898924,0.355472,-0.110147,-0.247993,0.214531,0.19509,0.0455822,-0.00697815,-0.0879157
-0.00308745,0.343238,-0.107422,-0.909708,0.412837,0.0724327,-0.033607,-0.0805461,-0.140198
0.00291632,0.323649,-0.106116,-0.954469,0.184839,0.084928,0.0323303,-0.0721845,-0.329007
0.00291632,0.323649,-0.106116,-0.954469,0.184839,0.084928,0.0323303,-0.0721845,-0.329007
0.0029488,0.308819,-0.102071,-0.493293,-0.0325148,0.323163,0.13838,-0.0259308,-0.502236
-0.00274397,0.303433,-0.0928069,-0.113921,-0.28997,0.521681,0.0856416,-0.0177451,-0.54468
-0.014488,0.301473,-0.0823993,-0.100315,-0.531038,0.444808,-0.046255,-0.0798433,-0.565738
-0.0258215,0.299441,-0.0747652,-0.0639983,-0.311533,0.294526,-0.0917701,-0.201824,-0.652392
-0.0287706,0.299716,-0.0695325,0.12183,0.176717,0.218194,-0.0955627,-0.222665,-0.64878
-0.0219895,0.30402,-0.065065,0.311924,0.594258,0.1945,-0.11133,-0.167057,-0.498666
-0.0100752,0.311198,-0.0617247,0.397047,0.666074,0.0945611,-0.164023,-0.0841205,-0.274964
0.00253561,0.319085,-0.0608568,0.373645,0.630038,-0.00640388,-0.224316,0.0130237,-0.0732921
0.0151929,0.325447,-0.0620365,0.252451,0.612836,-0.110198,-0.244253,0.0589288,0.0835681
0.0289871,0.328451,-0.0661072,0.0406239,0.627719,-0.271869,-0.25276,0.0580357,0.198404
0.0429955,0.32631,-0.0730257,-0.230568,0.526019,-0.366032,-0.213169,0.0522395,0.276968
0.0541813,0.319231,-0.0801497,-0.41908,0.397553,-0.34571,-0.133297,0.0463349,0.293176
0.0611744,0.309551,-0.0864429,-0.48504,0.11466,-0.30001,-0.102252,0.0296066,0.25382
0.0642836,0.300577,-0.091167,-0.359616,0.0804605,-0.204468,-0.074375,0.00647467,0.178397
0.067276,0.29545,-0.0944185,-0.132358,0.126069,-0.150423,-0.0697447,-0.0222145,0.12388
0.0713024,0.294994,-0.0972764,0.10958,0.197927,-0.1224,-0.053623,-0.0725318,0.111584
0.0761297,0.299367,-0.0997037,0.340628,0.196412,-0.0731675,-0.0314442,-0.0942595,0.13612
0.0793583,0.308,-0.101316,0.524011,0.061374,-0.0145767,-0.0142194,-0.0856712,0.188407
0.0788615,0.319833,-0.102034,0.660684,-0.131318,0.0337355,-0.0288405,-0.0434259,0.23537
0.0750005,0.334389,-0.102236,0.799402,-0.228913,0.0530742,-0.0815068,0.0168213,0.250809
0.0703019,0.351509,-0.102942,0.902064,-0.273831,-0.00712215,-0.1344,0.0646521,0.262417
0.0650514,0.369316,-0.105518,0.873616,-0.348129,-0.118604,-0.168365,0.0951695,0.280898
0.0585072,0.385357,-0.110027,0.738489,-0.499276,-0.192352,-0.161394,0.113714,0.289397
0.0484656,0.398125,-0.115213,0.579161,-0.686362,-0.212224,-0.122416,0.123241,0.240455
0.0377212,0.409051,-0.120482,0.558917,-0.530928,-0.224505,-0.0982301,0.108356,0.111609
0.0325797,0.420306,-0.126121,0.570779,-0.252789,-0.255315,-0.0971522,0.0858198,0.00716054
0.0288781,0.430808,-0.132351,0.488529,-0.445065,-0.276321,-0.0514282,0.0523708,-0.0545493
0.0195979,0.439297,-0.138521,0.369758,-0.73329,-0.258781,-0.0209099,0.038768,-0.12886
0.00521402,0.445088,-0.143939,0.206083,-0.935843,-0.220781,-0.00328699,0.0297504,-0.199445
-0.0130964,0.446965,-0.148423,-0.0368118,-1.05299,-0.18138,0.0323172,-0.0174764,-0.261354
-0.030243,0.443294,-0.152069,-0.340588,-0.757562,-0.139264,0.0190606,-0.0631938,-0.340905
-0.0410868,0.433682,-0.15508,-0.627091,-0.53324,-0.104805,0.0253403,-0.110044,-0.379871
-0.0514478,0.41888,-0.158571,-0.857977,-0.662507,-0.165606,0.000500858,-0.12845,-0.390001
-0.0615472,0.401265,-0.165049,-0.899689,-0.529386,-0.340215,-0.0868101,-0.0971032,-0.450926
-0.0624454,0.385686,-0.175636,-0.690596,0.0788853,-0.532804,-0.114527,-0.0593218,-0.476434
-0.0492289,0.375142,-0.188848,-0.462486,0.715393,-0.608693,-0.069829,-0.0221295,-0.333398
-0.0268182,0.367138,-0.20209,-0.418107,0.992204,-0.597682,-0.0041316,-0.0277881,-0.0828769
-0.00314975,0.358573,-0.215496,-0.457191,0.839103,-0.659273,-0.011516,-0.069624,0.129738
0.0146023,0.349568,-0.230697,-0.417459,0.385969,-0.776965,-0.0143902,-0.108558,0.235395
0.0235001,0.342651,-0.248114,-0.215167,-0.0603523,-0.870705,-0.000937536,-0.105955,0.235781
0.0259916,0.341091,-0.266957,0.110501,-0.254892,-0.911573,-0.000596255,-0.0635253,0.185602
0.0288463,0.345682,-0.286777,0.375099,-0.0787694,-0.950519,-0.0230774,-0.0236951,0.155434
0.0386639,0.353305,-0.307938,0.412165,0.362391,-1.01935,-0.0388913,-0.0101697,0.168093
0.0579908,0.3593,-0.330531,0.279769,0.742331,-1.06668,-0.033841,0.000941664,0.219848
0.0823831,0.362312,-0.35357,0.187318,0.878376,-1.05746,-0.0017066,0.0246798,0.239648
0.107815,0.364514,-0.375275,0.251588,0.843796,-0.928645,0.0132637,0.0686839,0.244485
0.129113,0.369724,-0.39391,0.489524,0.615342,-0.752461,0.0373402,0.0830229,0.230727
0.145016,0.379868,-0.411005,0.717577,0.364516,-0.717788,0.0131928,0.0732668,0.202916
0.156934,0.392065,-0.429464,0.700734,0.109894,-0.809973,-0.008766,0.0438411,0.211304
0.163656,0.401251,-0.450207,0.524831,-0.221453,-0.926808,-0.0163803,0.0351928,0.226434
0.166241,0.407896,-0.472282,0.486007,-0.362545,-0.959347,0.00964479,0.0626489,0.178282
0.167908,0.414738,-0.493538,0.511401,-0.297012,-0.827806,0.0384386,0.105221,0.126899
0.170402,0.422054,-0.510545,0.471289,-0.155476,-0.57606,0.0451922,0.122099,0.123097
0.172707,0.429218,-0.522638,0.412308,-0.111614,-0.430719,0.0248144,0.0576088,0.10777
0.178496,0.432697,-0.534308,0.0550089,0.247442,-0.60135,-0.0614853,-0.0602931,0.0465971
0.194114,0.42663,-0.549478,-0.352564,0.610954,-0.858564,-0.157449,-0.150572,-0.0203369
0.210192,0.415363,-0.567576,-0.349809,0.119492,-0.939544,-0.0598788,-0.159313,-0.0933118
0.2086,0.407849,-0.583914,-0.0558214,-0.950189,-0.642115,0.14182,-0.0871598,-0.159221
0.182677,0.406767,-0.59287,0.0542932,-1.98831,-0.178112,0.17929,-0.0270114,-0.225035
0.137506,0.407331,-0.592295,0.0125601,-2.36128,0.19831,0.121395,-0.0562479,-0.366074
0.0914388,0.408842,-0.587261,0.10018,-1.97132,0.218943,-0.0753324,-0.112356,-0.593378
0.0591804,0.411406,-0.585218,0.0975997,-1.14322,-0.0368703,-0.228634,-0.161107,-0.698753
0.0468125,0.411041,-0.589674,-0.133672,-0.291033,-0.382325,-0.33077,-0.171512,-0.62681
0.053129,0.405862,-0.60167,-0.305157,0.382321,-0.724099,-0.392769,-0.150904,-0.506683
0.0695603,0.398727,-0.618399,-0.285788,0.536411,-0.811987,-0.302898,-0.0924064,-0.349395
0.0853286,0.393459,-0.634662,-0.11172,0.389433,-0.725706,-0.230477,-0.0269389,-0.185866
0.0962585,0.391849,-0.649829,0.0756748,0.115596,-0.714467,-0.268757,0.00717252,-0.0319324
0.102311,0.393305,-0.666815,0.220996,-0.139948,-0.857564,-0.325445,0.00448909,0.0820715
0.10658,0.396441,-0.688331,0.278536,-0.223492,-1.09536,-0.353789,0.00364593,0.167863
0.113614,0.398939,-0.714428,0.224542,-0.0533078,-1.25197,-0.330511,0.0302712,0.245672
0.125437,0.399347,-0.742128,0.120914,0.147882,-1.26816,-0.27864,0.0642167,0.315917
0.139398,0.397849,-0.76912,0.0786163,0.154366,-1.22801,-0.235623,0.087403,0.359518
0.151091,0.396474,-0.795586,0.157114,-0.0105027,-1.22185,-0.206911,0.0814049,0.343346
0.159474,0.396802,-0.822508,0.255198,-0.182301,-1.2302,-0.178077,0.066784,0.305755
0.164895,0.39874,-0.849436,0.330505,-0.321623,-1.19576,-0.152019,0.0692267,0.259682
0.167126,0.401402,-0.875564,0.299326,-0.445637,-1.14984,-0.11231,0.0600969,0.20934
0.167126,0.401402,-0.875564,0.299326,-0.445637,-1.14984,-0.11231,0.0600969,0.20934
0.168125,0.402136,-0.900875,0.14367,-0.422624,-1.16979,-0.109582,0.0146604,0.140849
0.169958,0.399064,-0.927348,-0.029881,-0.461769,-1.30196,-0.147474,-0.0416501,0.0612099
0.170309,0.392643,-0.955971,-0.153544,-0.601125,-1.40863,-0.10593,-0.0821663,-0.0365024
0.168485,0.383096,-0.985669,-0.354516,-0.723068,-1.47406,-0.0721138,-0.0831612,-0.109975
0.163122,0.368342,-1.01594,-0.632469,-0.915569,-1.57251,-0.0930354,-0.085533,-0.200187
0.156277,0.349369,-1.04854,-0.71982,-0.862681,-1.76272,-0.130035,-0.0951492,-0.380745
0.154897,0.331723,-1.08508,-0.448113,-0.458283,-1.89927,-0.156351,-0.064144,-0.574596
0.162054,0.321472,-1.12391,0.0253791,-0.126867,-1.87576,-0.125416,0.00265512,-0.587646
0.171887,0.320165,-1.16237,0.408787,-0.160868,-1.76224,-0.0575836,0.0564829,-0.435333
0.178144,0.323136,-1.1997,0.458528,-0.401961,-1.69554,-0.0229511,0.0608428,-0.245656
0.179814,0.325119,-1.23577,0.357213,-0.551724,-1.64467,-0.0116101,0.0520261,-0.143517
0.180932,0.326293,-1.27072,0.37477,-0.414358,-1.60609,-0.0149798,0.0803145,-0.129306
0.186643,0.329137,-1.30496,0.50052,-0.114616,-1.53157,-0.00995141,0.123291,-0.107452
0.1972,0.333737,-1.33749,0.513587,0.0793418,-1.39239,0.0230762,0.152329,-0.0133978
0.206962,0.337853,-1.36567,0.4261,-0.0986403,-1.12752,0.069526,0.161098,0.0920357
0.208195,0.341864,-1.38819,0.428922,-0.537399,-0.896951,0.0879203,0.151467,0.107028
0.200647,0.34724,-1.40786,0.468696,-0.887286,-0.828299,0.0241705,0.144594,0.0725892
0.185623,0.35327,-1.42678,0.450893,-1.24303,-0.808374,-0.00760388,0.159292,0.0708256
0.165631,0.357867,-1.4449,0.273704,-1.35052,-0.789001,-0.00715123,0.17587,0.0640253
0.146436,0.358501,-1.46195,0.0447008,-1.12358,-0.791395,-0.0356843,0.181834,0.0201973
0.134027,0.355466,-1.47923,-0.106025,-0.719058,-0.870042,-0.0747051,0.158101,-0.0345156
0.130146,0.350215,-1.49848,-0.161556,-0.373514,-1.00924,-0.0995626,0.118704,-0.0509905
0.131904,0.345109,-1.52148,-0.035342,-0.26391,-1.21783,-0.139468,0.0872006,-0.0459567
0.136544,0.342821,-1.54953,0.145529,-0.220466,-1.42716,-0.123149,0.0786991,-0.00555462
0.143116,0.342054,-1.58095,0.157865,-0.172701,-1.50081,-0.0655325,0.104832,0.087359
0.15067,0.339254,-1.61268,-0.0206597,-0.147481,-1.50788,-0.029088,0.125142,0.187035
0.157183,0.33201,-1.6437,-0.240827,-0.239544,-1.50406,0.00493565,0.11606,0.242877
0.160188,0.321158,-1.67346,-0.367061,-0.422207,-1.45586,0.0420873,0.10186,0.227463
0.158801,0.309285,-1.70112,-0.378152,-0.5555,-1.31995,0.0736728,0.0994974,0.168777
0.154197,0.298058,-1.72513,-0.375273,-0.607222,-1.12803,0.0976155,0.0846494,0.116259
0.147969,0.287946,-1.7458,-0.318682,-0.626852,-1.00291,0.0695017,0.0427113,0.0377682
0.139747,0.280271,-1.76499,-0.164068,-0.741379,-0.935585,0.0575793,-0.00771585,-0.050341
0.12858,0.276709,-1.78319,0.0378485,-0.861665,-0.85561,0.0705301,-0.0521867,-0.112525
0.116423,0.276624,-1.80066,0.125888,-0.800978,-0.839791,0.0593373,-0.0962299,-0.148625
0.10761,0.276708,-1.81885,0.0718643,-0.54614,-0.914268,0.016129,-0.141651,-0.171687
0.106057,0.27586,-1.83902,0.0405467,-0.163721,-1.0379,-0.00891428,-0.176203,-0.207125
0.111254,0.273056,-1.86186,-0.103748,0.0212728,-1.18292,-0.014748,-0.180306,-0.1944
0.118336,0.266289,-1.88756,-0.269229,-0.0339764,-1.37232,-0.048362,-0.15004,-0.176392
0.12253,0.25698,-1.91682,-0.286812,-0.332378,-1.52914,-0.0248413,-0.118001,-0.213216
0.120295,0.249132,-1.94705,-0.110838,-0.616811,-1.44667,0.0598316,-0.043766,-0.273167
0.114755,0.24656,-1.97474,0.175282,-0.55343,-1.26261,0.060102,0.0358177,-0.321029
0.113317,0.249809,-1.99986,0.407079,-0.195729,-1.14197,-0.00252421,0.0630912,-0.304207
0.118729,0.256461,-2.02395,0.516682,0.11154,-1.12185,-0.0637335,0.051465,-0.186
0.129356,0.264648,-2.04854,0.594242,0.308985,-1.136,-0.0871355,0.0378906,-0.0469533
0.142882,0.273779,-2.07307,0.621491,0.351818,-1.07392,-0.0676506,0.0464184,0.0950046
0.154129,0.282854,-2.09557,0.592776,0.127162,-0.928367,-0.0433695,0.0656877,0.208462
0.158688,0.291092,-2.11506,0.509442,-0.237925,-0.817013,-0.0746839,0.0892601,0.259234
0.155588,0.29764,-2.13306,0.416583,-0.569143,-0.798358,-0.121674,0.0906586,0.24441
0.148375,0.302479,-2.15087,0.308162,-0.63875,-0.81993,-0.144431,0.0937244,0.183721
0.142345,0.304521,-2.16868,0.131845,-0.487532,-0.835788,-0.162071,0.113664,0.144385
0.138867,0.302955,-2.18591,-0.0478562,-0.40611,-0.822637,-0.145301,0.101808,0.129185
0.135457,0.29865,-2.2025,-0.145136,-0.437976,-0.808551,-0.114402,0.077784,0.108876
0.131211,0.293535,-2.21855,-0.142859,-0.450541,-0.786274,-0.0985055,0.0621952,0.0773254
0.12718,0.289337,-2.23397,-0.0788311,-0.390099,-0.731882,-0.0710737,0.0554733,0.0539947
0.12718,0.289337,-2.23397,-0.0788311,-0.390099,-0.731882,-0.0710737,0.0554733,0.0539947
0.124317,0.28658,-2.24812,-0.0363,-0.31683,-0.656183,-0.0456365,0.0457344,0.0628977
0.121507,0.284359,-2.26062,-0.0416615,-0.331829,-0.559069,-0.0139694,0.016931,0.0925508
0.116967,0.282283,-2.27072,-0.0523581,-0.405668,-0.434752,0.0131472,-0.0127412,0.114504
0.110748,0.280306,-2.27851,-0.0559875,-0.430063,-0.340435,0.0107348,-0.0477218,0.111212
0.104012,0.278606,-2.28511,-0.0526584,-0.417013,-0.32976,-0.0271889,-0.0885558,0.0957245
0.0984285,0.276563,-2.29244,-0.0934811,-0.344985,-0.402843,-0.0663219,-0.135046,0.0804361
0.094921,0.273254,-2.30155,-0.147847,-0.243251,-0.501806,-0.0810539,-0.16475,0.0566164
0.0944528,0.269366,-2.31225,-0.128848,-0.0829984,-0.558904,-0.0742337,-0.169121,0.0195186
0.0976762,0.266817,-2.32402,-0.0104367,0.0970305,-0.603183,-0.0751188,-0.170359,-0.0187273
0.103732,0.266542,-2.33692,0.0941316,0.132366,-0.64395,-0.065786,-0.175308,-0.0130933
0.109174,0.267377,-2.35085,0.11788,0.0519709,-0.688812,-0.0511455,-0.185398,0.000290215
0.11393,0.267733,-2.36578,0.0661005,0.0322714,-0.745618,-0.0742174,-0.170009,-0.0152523
0.118231,0.266497,-2.3817,-0.00525292,-0.0197023,-0.800368,-0.0965193,-0.135587,-0.058759
0.122075,0.264012,-2.39885,-0.033057,-0.0179705,-0.889129,-0.109679,-0.104874,-0.121972
0.128147,0.261345,-2.4179,0.00916923,0.158227,-0.969369,-0.107099,-0.0886511,-0.195732
0.138782,0.25982,-2.43812,0.094969,0.368723,-0.98787,-0.0832331,-0.0599881,-0.218988
0.15192,0.259106,-2.45846,0.104962,0.386898,-0.972109,-0.0532819,-0.0278407,-0.15482
0.162859,0.257436,-2.47835,0.0148427,0.186022,-0.965255,-0.0205819,-0.0187749,-0.0718122
0.169554,0.253008,-2.49781,-0.147697,0.00913875,-0.969591,-0.00824936,-0.00436753,-0.0313455
0.173601,0.245775,-2.51636,-0.233405,-0.0401282,-0.92176,0.00978251,0.00771239,-0.0545789
0.177323,0.238909,-2.53299,-0.138447,0.025702,-0.776028,0.0390337,0.0319918,-0.109007
0.181958,0.235839,-2.5463,0.0761048,0.12707,-0.553127,0.0520812,0.0542002,-0.129442
0.187467,0.237885,-2.55627,0.303487,0.181645,-0.370911,0.00764374,0.0573336,-0.114296
0.192714,0.244861,-2.56396,0.519017,0.150268,-0.240026,-0.0209545,0.0376942,-0.067915
0.197097,0.255928,-2.57038,0.669569,0.12939,-0.165158,-0.0571514,0.0232545,-0.00869888
0.200273,0.268494,-2.57628,0.655238,0.0235057,-0.155389,-0.0900937,0.0115258,0.0604396
0.200716,0.279509,-2.58221,0.522563,-0.150768,-0.193795,-0.101195,-0.0144153,0.111267
0.197397,0.286669,-2.5889,0.293291,-0.373031,-0.301568,-0.114856,-0.00544897,0.1302
0.190483,0.288359,-2.59711,0.0345359,-0.530734,-0.447293,-0.153211,0.0381182,0.105403
0.182239,0.285003,-2.60765,-0.172319,-0.593183,-0.612585,-0.172425,0.0752737,0.0409983
0.173296,0.277704,-2.6203,-0.322637,-0.657883,-0.701604,-0.127463,0.102136,-0.0219703
0.163114,0.26862,-2.63344,-0.338731,-0.726128,-0.683194,-0.0695168,0.135701,-0.0875236
0.151505,0.261539,-2.64531,-0.152064,-0.717194,-0.547961,-0.00556558,0.166618,-0.14961
0.140998,0.260186,-2.65455,0.156345,-0.565603,-0.354131,0.0288411,0.180692,-0.169011
0.133115,0.265578,-2.66091,0.446514,-0.400934,-0.200859,0.0226263,0.169678,-0.111894
0.127506,0.275585,-2.66614,0.587712,-0.29981,-0.196944,-0.0279262,0.120377,-0.00605577
0.124546,0.286521,-2.67308,0.548828,-0.18892,-0.351317,-0.0757031,0.0603113,0.102926
0.125125,0.293955,-2.68396,0.29081,-0.0721571,-0.599522,-0.103286,0.0187134,0.205574
0.128472,0.294365,-2.69927,-0.0606361,-0.0606305,-0.847697,-0.112843,-0.00382835,0.261218
0.131676,0.288372,-2.71824,-0.2724,-0.170764,-1.02442,-0.0692035,-0.00943166,0.24469
0.132993,0.27931,-2.73946,-0.350324,-0.280611,-1.10133,-0.0197053,0.00809884,0.17694
0.132674,0.269056,-2.7611,-0.3845,-0.321119,-1.09544,0.0348893,0.0117933,0.10559
0.132086,0.258966,-2.78196,-0.345994,-0.28282,-1.03621,0.0763633,0.00495201,0.0309432
0.131696,0.250387,-2.80147,-0.247833,-0.252518,-0.949143,0.0919719,0.000891417,-0.0254735
0.130949,0.244389,-2.8191,-0.125604,-0.255877,-0.821238,0.118712,-0.00673923,-0.0663117
0.129619,0.241053,-2.83415,-0.0229272,-0.238418,-0.674868,0.129302,-0.0150281,-0.0856279
0.127762,0.239862,-2.84674,0.055661,-0.262775,-0.567466,0.104963,-0.0357164,-0.0924698
0.124575,0.240243,-2.85807,0.121708,-0.314173,-0.532561,0.0744293,-0.0721506,-0.10247
0.12134,0.24211,-2.8693,0.19741,-0.263661,-0.528095,0.0421556,-0.08993,-0.121173
0.120045,0.245532,-2.88045,0.268757,-0.12791,-0.505183,0.035339,-0.0998541,-0.126847
0.120541,0.24951,-2.89133,0.222095,-0.135026,-0.510212,0.0406549,-0.116657,-0.0918615
0.119826,0.250909,-2.90279,0.0516699,-0.205646,-0.587984,0.00476379,-0.116858,-0.0780537
0.118138,0.249217,-2.91561,-0.0559648,-0.305761,-0.666196,-0.0237068,-0.0980664,-0.114401
0.118138,0.249217,-2.91561,-0.0559648,-0.305761,-0.666196,-0.0237068,-0.0980664,-0.114401
0.113275,0.24667,-2.92928,-0.008803,-0.507506,-0.661894,-0.013771,-0.0609078,-0.17746
0.105795,0.246914,-2.94193,0.173588,-0.514171,-0.55253,0.0132515,-0.0229978,-0.250304
0.0999223,0.251197,-2.95257,0.350713,-0.32728,-0.435826,-0.00273791,7.41482e-05,-0.261939
0.0971615,0.258726,-2.9614,0.470661,-0.195939,-0.343546,-0.0132441,-0.00944051,-0.197099
0.095793,0.267966,-2.96879,0.521195,-0.134597,-0.291989,-0.038812,-0.00920114,-0.0895327
0.095614,0.278013,-2.97605,0.541686,-0.0974052,-0.324972,-0.0983486,-0.00561419,-0.00838095
0.0957897,0.288116,-2.98473,0.543528,-0.148365,-0.420658,-0.154353,0.00492558,0.0558566
0.094747,0.297611,-2.99591,0.503,-0.27934,-0.561793,-0.19828,0.0254299,0.102234
0.09256,0.305943,-3.0099,0.452665,-0.333392,-0.689438,-0.204438,0.0423421,0.120716
0.0913308,0.313133,-3.02615,0.401957,-0.283729,-0.784952,-0.187309,0.0799375,0.130162
0.0913395,0.318602,-3.04384,0.282526,-0.289608,-0.844825,-0.161528,0.132209,0.158682
0.0901359,0.321017,-3.06217,0.126344,-0.421444,-0.87105,-0.11929,0.166072,0.17808
0.08595,0.320809,-3.08076,0.0054342,-0.580539,-0.894961,-0.088102,0.195019,0.153974
0.0793326,0.318144,-3.0991,-0.133503,-0.633404,-0.850573,-0.0521096,0.221679,0.106941
0.0722341,0.312581,-3.11533,-0.307547,-0.572696,-0.726846,-0.0037784,0.226827,0.0604814
0.0659594,0.304339,-3.12829,-0.408118,-0.431556,-0.563416,0.0247334,0.219661,0.00516284
0.062342,0.296311,-3.1378,-0.311926,-0.215991,-0.401109,0.0252372,0.197817,-0.055005
0.0614947,0.291493,3.13858,-0.13008,-0.0850705,-0.29582,0.00153083,0.158766,-0.0596958
0.0617642,0.289926,3.13293,-0.0183942,-0.0631487,-0.267169,-0.0164547,0.100517,0.0138568
0.0617954,0.288728,3.12731,-0.0933576,-0.0983735,-0.28783,-0.0287585,0.0401196,0.107809
0.0614693,0.284744,3.1211,-0.278834,-0.113218,-0.333788,-0.0322693,-0.0122402,0.163732
0.061151,0.276953,3.11427,-0.447546,-0.103868,-0.369579,-0.0293804,-0.0474057,0.170819
0.0609603,0.266651,3.10711,-0.527607,-0.104522,-0.38267,-0.0249407,-0.0678275,0.132728
0.0611172,0.25606,3.09983,-0.47814,-0.0636213,-0.389356,-0.0156459,-0.0891972,0.0695626
0.06196,0.247221,3.09239,-0.355972,-0.0305858,-0.380578,-0.00850881,-0.0945845,0.0266042
0.0637859,0.241191,3.0855,-0.220892,0.0552373,-0.318257,0.0178754,-0.0967882,0.0115904
0.0666134,0.237104,3.08012,-0.173396,0.0893618,-0.240816,0.0263474,-0.0935722,0.0437344
0.0691656,0.233506,3.07565,-0.169829,0.0539459,-0.23089,0.00530549,-0.106135,0.06546
0.0713327,0.229932,3.07096,-0.151869,0.0746114,-0.248282,-0.0141748,-0.112482,0.0473167
0.0750618,0.227481,3.06606,-0.0579661,0.191627,-0.243214,-0.0305636,-0.0877995,0.0266395
0.0809319,0.227188,3.06145,0.0440449,0.290407,-0.2096,-0.027344,-0.0571562,0.0518795
0.0885087,0.228748,3.05761,0.136626,0.386283,-0.153667,-0.0274969,-0.04021,0.103348
0.0978169,0.232451,3.05453,0.242819,0.470837,-0.114267,-0.0367458,-0.0267631,0.163186
0.107736,0.238009,3.052,0.325922,0.450163,-0.078413,-0.0361824,-0.0153307,0.23885
0.1163,0.244543,3.04971,0.33433,0.343256,-0.0745897,-0.0395723,-0.00889425,0.309138
0.122333,0.250287,3.04735,0.258727,0.206841,-0.0813121,-0.0350353,-0.00820836,0.350685
0.126219,0.25427,3.04514,0.164795,0.13056,-0.0761601,-0.0247299,0.00506321,0.328755
0.127846,0.257117,3.04384,0.147423,-0.00533833,-0.0185326,-0.0238961,0.0501312,0.257192
0.127138,0.259829,3.0429,0.124636,-0.0553702,-0.0477415,-0.0431478,0.0728183,0.149491
0.128641,0.261951,3.04124,0.11032,0.201392,-0.0797966,-0.0361877,0.0539486,0.0157211
0.13567,0.263765,3.0389,0.0961212,0.426667,-0.116982,0.00959039,0.0273038,-0.0893394
0.145899,0.265006,3.03665,0.0489494,0.496984,-0.054325,0.104841,0.00297344,-0.122799
0.154302,0.264065,3.03649,-0.188871,0.312301,-0.0066492,0.161467,0.00493371,-0.106557
0.155512,0.256116,3.03723,-0.619519,-0.233097,-0.0615041,0.0856704,0.0508406,-0.117764
0.144771,0.240447,3.03721,-0.863507,-0.795559,-0.18027,0.00823057,0.0926745,-0.29993
0.129631,0.224893,3.03471,-0.578264,-0.647418,-0.250912,0.0203339,0.0832012,-0.599752
0.122783,0.21645,3.0318,-0.27578,-0.150121,-0.0999897,0.104718,0.0885738,-0.679902
0.121809,0.211544,3.03369,-0.280514,0.0453523,0.227236,0.172277,0.107736,-0.534786
0.120195,0.205549,3.04113,-0.391986,-0.06265,0.374655,0.100163,0.063785,-0.407569
0.117335,0.198674,3.04875,-0.364453,-0.0454849,0.266711,-0.00804349,-0.0466183,-0.390273
0.116647,0.193081,3.05395,-0.243594,0.102734,0.203066,-0.0571825,-0.0969043,-0.353682
0.12008,0.19054,3.05893,-0.058267,0.347113,0.257733,-0.0590608,-0.0859253,-0.248908
0.128589,0.19194,3.06451,0.116417,0.607519,0.2973,-0.0864975,-0.0772418,-0.103831
0.141603,0.195765,3.0703,0.162963,0.785901,0.313306,-0.105079,-0.0775172,0.0772063
0.141603,0.195765,3.0703,0.162963,0.785901,0.313306,-0.105079,-0.0775172,0.0772063
0.156116,0.199431,3.07593,0.111129,0.749842,0.275343,-0.128231,-0.0802846,0.240064
0.168103,0.201972,3.08021,0.0752334,0.500597,0.173811,-0.135271,-0.0952211,0.332746
0.173215,0.203374,3.08243,0.0193759,0.050135,0.0680845,-0.102835,-0.0905207,0.37335
0.170864,0.203259,3.08348,-0.0464678,-0.209396,0.0446782,-0.0534052,-0.0673946,0.335605
0.16714,0.20194,3.08454,-0.11611,-0.0977388,0.0162985,-0.0496399,-0.0271522,0.238778
0.166981,0.197949,3.08418,-0.282399,0.0425872,-0.126639,-0.0709189,-0.0315826,0.161812
0.167572,0.19028,3.08114,-0.40321,-0.0714154,-0.295552,-0.0443331,-0.0443561,0.0797384
0.165764,0.181143,3.07497,-0.390174,-0.193792,-0.452006,-0.00735298,-0.0259162,-0.0478042
0.162924,0.172018,3.06585,-0.368709,-0.257026,-0.571996,0.0048475,0.016538,-0.163762
0.159685,0.163742,3.05544,-0.265202,-0.196818,-0.558669,0.0754196,0.0335248,-0.280353
0.160464,0.159197,3.04574,-0.0124916,0.166311,-0.449082,0.111699,0.0627459,-0.380722
0.170082,0.160989,3.03794,0.305243,0.659498,-0.283067,0.115365,0.0880594,-0.377851
0.186758,0.168159,3.03192,0.479242,0.855165,-0.189274,0.101064,0.0626622,-0.22383
0.203605,0.177242,3.02664,0.495824,0.703104,-0.148962,0.0752437,0.0173338,-0.0415832
0.216132,0.185973,3.02186,0.454507,0.475371,-0.141074,0.0517261,-0.00113261,0.0840225
0.225193,0.193434,3.01703,0.365587,0.358136,-0.161008,0.0237902,0.0011898,0.160765
0.232096,0.198359,3.01277,0.204728,0.240769,-0.123619,0.0280021,0.0136041,0.228792
0.235617,0.200118,3.01063,0.0194516,0.0598736,-0.0322518,0.0515964,0.0282985,0.27015
0.234615,0.199528,3.01135,-0.0782099,-0.148007,0.0936376,0.0695222,0.0384626,0.263168
0.229432,0.198948,3.01517,-0.0524394,-0.271789,0.261831,0.0738452,0.0508638,0.222868
0.222017,0.200236,3.02235,0.0210147,-0.32645,0.451582,0.05619,0.0629908,0.196017
0.213233,0.203653,3.03265,0.0954931,-0.345226,0.609716,0.0215578,0.058632,0.188462
0.203547,0.2091,3.04547,0.178881,-0.358465,0.720931,-0.0122097,0.0220634,0.189896
0.194028,0.216427,3.05923,0.267898,-0.297184,0.722948,-0.0688234,-0.0170249,0.197968
0.186224,0.22514,3.07141,0.348933,-0.221577,0.591393,-0.141796,-0.0337913,0.228326
0.180282,0.233998,3.07983,0.356674,-0.184582,0.372501,-0.17674,-0.0467265,0.288662
0.176234,0.241499,3.08371,0.308761,-0.128171,0.127893,-0.165566,-0.0594865,0.342202
0.174391,0.246542,3.08264,0.187211,-0.0991482,-0.138527,-0.130557,-0.0538152,0.397467
0.172156,0.247041,3.07756,-0.0697882,-0.285922,-0.314985,-0.0273887,-0.0373246,0.460525
0.165765,0.241142,3.07129,-0.421352,-0.468364,-0.382423,0.0801998,-0.0112795,0.458731
0.15657,0.228543,3.06578,-0.703819,-0.578352,-0.327932,0.120569,0.0508838,0.376116
0.145384,0.213998,3.06348,-0.639381,-0.541601,-0.085761,0.176196,0.140591,0.217705
0.137443,0.205072,3.06668,-0.274701,-0.186291,0.271644,0.201874,0.231394,0.0747787
0.132486,0.203929,3.07544,0.0094599,-0.226109,0.549181,0.212588,0.267796,0.07673
0.121882,0.206159,3.08798,-0.017797,-0.599044,0.66334,0.23895,0.226903,0.112737
0.102309,0.202461,3.10108,-0.570679,-1.09366,0.554423,0.21862,0.169724,0.0935473
0.0755605,0.184197,3.11259,-1.36286,-1.29663,0.429088,0.195625,0.110419,-0.0937876
0.0498285,0.151561,3.12308,-1.86405,-1.0417,0.43947,0.194141,0.0968738,-0.45402
0.0322731,0.116295,3.13555,-1.60971,-0.545698,0.680282,0.173792,0.13059,-0.868051
0.0234844,0.0916671,-3.13034,-0.865383,-0.197203,0.968605,0.0895467,0.110963,-1.12758
0.0209748,0.0831493,-3.10874,-0.0611564,0.177858,1.14437,-0.0433312,0.0243834,-1.15008
0.0279438,0.0884309,-3.08551,0.48416,0.718648,1.17288,-0.189467,-0.0954765,-1.00504
0.0448001,0.101615,-3.06338,0.711906,1.13774,1.05949,-0.307158,-0.213364,-0.741142
0.0667435,0.117104,-3.04546,0.726203,1.20498,0.787468,-0.393691,-0.287247,-0.457089
0.087515,0.132144,-3.0346,0.694412,0.975472,0.389776,-0.431459,-0.323898,-0.236664
0.102619,0.145518,-3.03253,0.613377,0.561009,-0.0554867,-0.419075,-0.303771,-0.0704769
0.111041,0.155897,-3.0385,0.4785,0.21945,-0.389789,-0.348574,-0.232688,0.0497208
0.11537,0.162623,-3.04872,0.303084,0.0764673,-0.505576,-0.244608,-0.133488,0.126486
0.117801,0.165755,-3.05902,0.137575,0.00410514,-0.451447,-0.149533,-0.0458333,0.167813
0.118604,0.167158,-3.06709,0.122564,-0.0423314,-0.319143,-0.0827715,0.00793345,0.161309
0.118538,0.169942,-3.07258,0.23211,-0.0573741,-0.184151,-0.0496471,0.0380976,0.142451
0.117914,0.175794,-3.07568,0.382189,-0.0480156,-0.0595063,-0.037459,0.0584042,0.145247
0.117778,0.183858,-3.07736,0.422893,0.0172983,-0.0230415,-0.0460063,0.0402147,0.163118
0.119838,0.191795,-3.07922,0.378619,0.167163,-0.0833546,-0.0719643,0.0226066,0.196608
0.119838,0.191795,-3.07922,0.378619,0.167163,-0.0833546,-0.0719643,0.0226066,0.196608
0.125786,0.197959,-3.08299,0.268576,0.348205,-0.204108,-0.0840637,0.0300886,0.23049
0.134998,0.20116,-3.08803,0.109778,0.458078,-0.224921,-0.0371329,0.0614702,0.27689
0.143759,0.201029,-3.09186,-0.071524,0.293034,-0.130939,0.0209214,0.102479,0.307782
0.146102,0.198224,-3.09244,-0.18564,-0.0713767,0.0292729,0.0681297,0.103209,0.287447
0.142039,0.194741,-3.09055,-0.175009,-0.261655,0.082517,0.0486295,0.077668,0.20016
0.137048,0.19169,-3.0889,-0.148783,-0.160906,0.0266267,-0.0159376,0.0693938,0.107702
0.136908,0.189317,-3.08846,-0.0956465,0.174402,-0.00256254,-0.0290312,0.0419634,0.035626
0.142934,0.18722,-3.08769,-0.145338,0.415107,0.0604789,-0.00394198,0.0366983,0.0511041
0.151477,0.183667,-3.08488,-0.248223,0.474621,0.149297,-0.00527865,0.00238372,0.092177
0.160263,0.179038,-3.08129,-0.251443,0.472213,0.104774,-0.060332,-0.0390491,0.0921179
0.16973,0.174992,-3.07979,-0.184502,0.522254,-0.0189655,-0.117539,-0.0612515,0.0745055
0.181094,0.172522,-3.07865,-0.0667612,0.669202,0.130577,-0.0997339,-0.0347079,0.0690512
0.195892,0.174715,-3.07386,0.204529,0.866842,0.361542,-0.114011,-0.00712693,0.0750422
0.211136,0.182867,-3.06693,0.444515,0.762601,0.452397,-0.149955,-0.055364,0.128955
0.224026,0.195347,-3.0604,0.625334,0.668983,0.426309,-0.213796,-0.0911711,0.168762
0.236091,0.210124,-3.05603,0.70843,0.635048,0.329923,-0.268844,-0.093482,0.205285
0.248145,0.225909,-3.05389,0.778107,0.632943,0.246959,-0.27028,-0.108802,0.221579
0.261998,0.241942,-3.05454,0.781398,0.779462,0.0871917,-0.270724,-0.111074,0.216994
0.280702,0.25642,-3.05836,0.709152,0.964648,-0.0472758,-0.240278,-0.115094,0.206499
0.300366,0.268871,-3.06438,0.661689,0.758317,-0.159768,-0.150184,-0.10806,0.191782
0.309224,0.280025,-3.07338,0.67502,-0.228986,-0.34121,-0.053055,-0.0837434,0.167252
0.294108,0.288832,-3.08672,0.46747,-1.61047,-0.648257,0.0465235,-0.0306889,0.0657478
0.258735,0.286367,-3.10348,-0.335398,-2.26669,-0.925302,0.162658,-0.0285661,-0.125968
0.220392,0.268324,-3.11968,-0.939619,-1.85057,-0.994858,0.244731,-0.0134186,-0.478982
0.197981,0.247298,-3.13505,-0.69484,-0.803988,-0.846276,0.266996,0.107273,-0.92627
0.190665,0.238057,3.13678,0.0175357,-0.312412,-0.386878,0.383155,0.180273,-1.03339
0.18618,0.244255,3.1321,0.615443,-0.294918,0.0137126,0.389983,0.158582,-0.847644
0.180127,0.259055,3.13154,0.804254,-0.262553,0.177462,0.299648,0.036807,-0.586803
0.177567,0.276235,3.1329,0.867123,0.0683343,0.251022,0.196165,-0.0319675,-0.387938
0.181025,0.294725,3.13471,0.908606,0.271802,0.228238,0.111905,-0.0451404,-0.167976
0.185878,0.311818,3.13418,0.751761,0.175637,0.00223243,0.0018366,-0.0534404,0.09856
0.190094,0.322956,3.12858,0.432077,0.098864,-0.322741,-0.103056,-0.0407832,0.28652
0.196143,0.325998,3.1173,0.0849209,0.136236,-0.676343,-0.158562,0.00671658,0.3627
0.203798,0.32174,3.10081,-0.185764,0.113202,-0.900976,-0.136264,0.109721,0.376228
0.212545,0.312643,3.08367,-0.345609,0.260718,-0.851719,-0.0424276,0.182682,0.353147
0.223828,0.302154,3.06946,-0.374563,0.399071,-0.698232,0.0381066,0.182038,0.318837
0.233816,0.292061,3.05885,-0.400015,0.24981,-0.515356,0.108397,0.138421,0.324493
0.236622,0.28108,3.05298,-0.561753,-0.151406,-0.28706,0.170669,0.0750616,0.330104
0.23077,0.267278,3.05286,-0.782937,-0.382088,-0.0551991,0.189825,0.0136951,0.233679
0.221916,0.25152,3.05706,-0.807035,-0.377174,0.0720307,0.131324,-0.0580084,0.0644285
0.214131,0.238649,3.062,-0.530948,-0.283692,0.110861,0.076514,-0.0935813,-0.0945545
0.207536,0.232454,3.06617,-0.172699,-0.307642,0.157943,0.0688711,-0.104656,-0.139925
0.199416,0.232222,3.06958,0.0410673,-0.432399,0.150254,0.0751501,-0.122307,-0.0955819
0.188657,0.233754,3.07198,0.0421331,-0.585075,0.117221,0.092265,-0.128934,-0.0310137
0.176011,0.234779,3.07423,0.0297339,-0.605916,0.112879,0.120503,-0.118766,-0.0367078
0.164058,0.236154,3.07645,0.0765523,-0.517517,0.134874,0.134011,-0.0813422,-0.0636064
0.154826,0.239178,3.07989,0.173787,-0.32757,0.254001,0.146584,-0.0244942,-0.0619997
0.148288,0.244652,3.08553,0.285318,-0.212851,0.357592,0.125774,0.0143589,-0.00678033
0.142717,0.252546,3.09236,0.396544,-0.173262,0.409188,0.0848285,0.0409767,0.0764162
0.138145,0.262525,3.09974,0.48365,-0.0936116,0.439202,0.0450979,0.0637805,0.173838
0.134914,0.273773,3.10762,0.52381,-0.0146227,0.469918,0.014547,0.0728865,0.27806
0.133539,0.285789,3.11605,0.558764,0.116705,0.493792,-0.0129503,0.0694668,0.363632
0.134877,0.298557,3.12418,0.602761,0.245719,0.437174,-0.0502419,0.0487191,0.421264
0.138647,0.311722,3.13007,0.609662,0.282585,0.28306,-0.0775262,0.01965,0.477601
0.138647,0.311722,3.13007,0.609662,0.282585,0.28306,-0.0775262,0.01965,0.477601
0.142559,0.323303,3.13157,0.501102,0.132873,0.0173643,-0.11372,0.0280269,0.534169
0.144062,0.330759,3.12828,0.254017,-0.104538,-0.202863,-0.0902809,0.0490345,0.53811
0.141827,0.332253,3.12279,-0.0221925,-0.219074,-0.281598,0.0170435,0.0513625,0.436185
0.143112,0.327071,3.11628,-0.467122,0.179181,-0.417368,0.0286786,0.0492373,0.265126
0.152875,0.309008,3.10894,-1.23904,0.5023,-0.51153,0.0531287,0.0441498,0.130383
0.162283,0.278203,3.10463,-1.61089,0.218928,-0.340683,0.141333,0.0425417,-0.107281
0.159851,0.250392,3.10664,-1.04965,-0.404409,0.122678,0.257948,0.112758,-0.47333
0.14525,0.239843,3.1167,-0.168619,-0.762429,0.66289,0.267363,0.184709,-0.692448
0.12645,0.243802,3.1329,0.234882,-0.654275,0.883162,0.150734,0.142394,-0.713743
0.1123,0.248026,-3.13387,-0.111474,-0.40302,0.705562,0.0286792,-0.0425184,-0.611247
0.103736,0.240158,-3.1221,-0.795982,-0.137582,0.34253,-0.0883713,-0.156309,-0.517564
0.10363,0.219633,-3.11616,-1.24826,0.268729,0.0573949,-0.161919,-0.137368,-0.573128
0.113154,0.194956,-3.1131,-1.15802,0.762724,0.0178655,-0.134256,-0.10779,-0.666865
0.131807,0.176487,-3.10945,-0.69908,1.12568,0.128557,-0.111577,-0.0855514,-0.629999
0.15402,0.168265,-3.10468,-0.193214,1.11898,0.20857,-0.120727,-0.110207,-0.440787
0.172324,0.169362,-3.10074,0.214057,0.75375,0.178289,-0.160978,-0.138042,-0.205558
0.183945,0.176542,-3.09968,0.446893,0.485119,0.0391426,-0.200909,-0.156207,-0.00460881
0.194314,0.185878,-3.10245,0.491364,0.541578,-0.131371,-0.223519,-0.157476,0.143783
0.207699,0.193405,-3.10805,0.33508,0.694946,-0.249039,-0.215594,-0.136244,0.289228
0.223838,0.196495,-3.11456,0.105916,0.778707,-0.310424,-0.189474,-0.128955,0.392828
0.240339,0.195138,-3.12141,-0.0656388,0.716569,-0.372436,-0.18934,-0.123679,0.43401
0.254341,0.191511,-3.12842,-0.0859314,0.554367,-0.377795,-0.193846,-0.102397,0.418946
0.265375,0.189221,-3.13567,0.0678846,0.434038,-0.362343,-0.197882,-0.0662093,0.364137
0.274692,0.190856,3.14018,0.280358,0.353661,-0.276143,-0.179197,-0.01721,0.333627
0.281948,0.196748,3.13413,0.443639,0.277576,-0.12652,-0.157366,0.0408028,0.342802
0.288175,0.206355,3.13038,0.575195,0.271607,0.0415399,-0.139029,0.0889415,0.357521
0.293459,0.218928,3.12905,0.658201,0.217924,0.188845,-0.130886,0.125356,0.394346
0.295798,0.232975,3.12971,0.647627,0.00112705,0.263737,-0.141522,0.145759,0.436312
0.292188,0.245994,3.13148,0.548984,-0.313568,0.270977,-0.145054,0.136724,0.442795
0.283852,0.257108,3.13329,0.479246,-0.418111,0.203619,-0.162467,0.144085,0.350014
0.276699,0.266963,3.13379,0.463056,-0.28022,0.119013,-0.171189,0.158563,0.231643
0.272394,0.276183,3.13274,0.44637,-0.19303,0.0302203,-0.120079,0.134272,0.148508
0.26828,0.283475,3.12956,0.29924,-0.370009,-0.147132,-0.0713888,0.0660399,0.0972235
0.25781,0.284473,3.12343,-0.0729319,-0.843927,-0.396646,0.00403269,0.00408599,0.0168339
0.240336,0.275743,3.11468,-0.571678,-1.12237,-0.629026,0.0380227,-0.00166422,-0.181628
0.220834,0.257598,3.10404,-0.906663,-1.03584,-0.754588,0.0735084,0.0478038,-0.456732
0.206458,0.237361,3.09441,-0.816956,-0.636928,-0.529239,0.206484,0.0902862,-0.708637
0.195989,0.222901,3.09102,-0.55849,-0.620874,-0.0946996,0.3424,0.116583,-0.766891
0.177959,0.212426,3.09341,-0.565784,-1.15101,0.0763469,0.307487,0.0630966,-0.676023
0.152898,0.201014,3.09688,-0.591568,-1.154,0.0562825,0.138667,0.0229664,-0.686169
0.134842,0.190924,3.09958,-0.421253,-0.576234,0.086347,0.0391977,0.0319599,-0.679396
0.127989,0.18602,3.1035,-0.116632,-0.0793191,0.232759,0.0550276,0.0146758,-0.519644
0.128388,0.186694,3.10902,0.0839398,0.211218,0.307133,0.0771009,-0.0449491,-0.24336
0.133955,0.189701,3.11514,0.10673,0.445352,0.32254,0.0462244,-0.0838808,0.0378991
0.142418,0.191616,3.12112,-0.0119794,0.477366,0.272029,-0.00980699,-0.102187,0.283572
0.150056,0.190712,3.12566,-0.133812,0.359181,0.150729,-0.0608148,-0.1234,0.442394
0.154974,0.188084,3.12762,-0.132936,0.171238,-0.00481811,-0.0846614,-0.139057,0.504069
0.156943,0.186365,3.12624,0.00363281,0.0131089,-0.149722,-0.0896283,-0.125335,0.50796
0.157102,0.187964,3.12208,0.222443,-0.0561674,-0.220072,-0.0672442,-0.0782318,0.500364
0.157351,0.193758,3.11651,0.418636,-0.0203863,-0.227293,-0.0379707,-0.0237453,0.511599
0.158212,0.202145,3.11031,0.484593,-0.0124206,-0.248894,-0.0245538,0.0150414,0.555812
0.16021,0.209919,3.10292,0.354362,0.0694162,-0.365391,-0.0272549,0.0154938,0.579002
0.1643,0.211323,3.09275,-0.0959409,0.127555,-0.600533,-0.0418351,0.00375992,0.575106
0.169526,0.202195,3.07996,-0.56864,0.133734,-0.773307,-0.0018567,0.018294,0.460595
0.169526,0.202195,3.07996,-0.56864,0.133734,-0.773307,-0.0018567,0.018294,0.460595
0.175244,0.186455,3.06614,-0.67978,0.201529,-0.809437,0.0437458,0.12048,0.249142
0.184257,0.172779,3.05352,-0.422736,0.486591,-0.625008,0.158135,0.197632,0.0581419
0.19611,0.165,3.04585,-0.248318,0.47729,-0.251675,0.27027,0.231559,0.0246854
0.199508,0.159207,3.04637,-0.354608,-0.226415,0.205724,0.351682,0.220455,0.0709941
0.183655,0.152668,3.0574,-0.503675,-1.14649,0.716464,0.419887,0.174582,-0.0128414
0.155154,0.143379,3.0763,-0.752927,-1.24262,0.919634,0.309761,0.0881399,-0.267939
0.13416,0.127386,3.09666,-1.14572,-0.567716,0.806741,0.132753,-0.0867335,-0.556429
0.124332,0.102163,3.11314,-1.54624,-0.319059,0.486428,-0.00840507,-0.18166,-0.751891
0.116074,0.0713662,3.12437,-1.57172,-0.435519,0.306903,-0.0617924,-0.148726,-0.949824
0.107044,0.0456376,3.13469,-1.01768,-0.339565,0.478542,-0.0401082,-0.0766012,-1.13631
0.104048,0.0360775,-3.13488,-0.0381295,0.13312,0.7613,-0.0764187,-0.0839865,-1.20118
0.111952,0.0473073,-3.11953,0.948096,0.681075,0.849458,-0.17777,-0.137342,-1.03394
0.127607,0.074129,-3.10677,1.48914,0.910854,0.713201,-0.281666,-0.168828,-0.626989
0.145514,0.106183,-3.09956,1.52692,0.931816,0.417172,-0.349445,-0.182011,-0.18501
0.163948,0.134206,-3.09928,1.20903,0.926688,0.0446817,-0.379429,-0.184495,0.158627
0.183337,0.152672,-3.10527,0.702723,0.928708,-0.296057,-0.374863,-0.148122,0.3902
0.202919,0.159815,-3.11516,0.212206,0.869754,-0.506006,-0.328172,-0.091902,0.508077
0.220639,0.158954,-3.12629,-0.0146046,0.72461,-0.567453,-0.255187,-0.0359282,0.509599
0.235012,0.156341,-3.13679,0.027396,0.54657,-0.482861,-0.196873,0.0266307,0.473254
0.245174,0.156618,3.13829,0.200854,0.35617,-0.279733,-0.162056,0.0672634,0.453034
0.251959,0.161444,3.13324,0.386143,0.259867,-0.10618,-0.156994,0.0672228,0.444572
0.257538,0.170003,3.12936,0.53377,0.238372,-0.0633259,-0.198417,0.058406,0.444291
0.262557,0.180948,3.12529,0.606128,0.200025,-0.0453664,-0.202685,0.063187,0.463863
0.266812,0.192343,3.12187,0.572972,0.164902,0.0369815,-0.182074,0.0914425,0.4885
0.269202,0.203647,3.12143,0.541258,0.0292522,0.219722,-0.164977,0.123857,0.480379
0.266159,0.215349,3.12372,0.531108,-0.302234,0.278195,-0.179285,0.127675,0.416975
0.257202,0.226923,3.12583,0.556116,-0.504702,0.222162,-0.21723,0.0888869,0.273077
0.245753,0.239991,3.12709,0.684009,-0.625838,0.237428,-0.152497,0.0415418,0.0936298
0.231677,0.254672,3.12849,0.67803,-0.748271,0.222326,-0.100515,0.0642754,-0.0226634
0.215295,0.266085,3.1282,0.389432,-0.910293,-0.0551015,-0.126787,0.012056,-0.118303
0.196571,0.266236,3.12069,-0.273196,-1.17559,-0.69104,-0.152874,-0.0933431,-0.225992
0.177167,0.250522,3.10283,-0.913271,-1.15751,-1.24768,-0.0558408,-0.133102,-0.410731
0.161556,0.224923,3.07938,-1.16318,-0.985912,-1.36585,0.166608,-0.0677858,-0.643718
0.147351,0.199893,3.05749,-0.918235,-0.893177,-1.11325,0.407558,0.012987,-0.844147
0.135485,0.184447,3.04033,-0.348315,-0.574655,-0.772288,0.504137,0.0723494,-0.942032
0.130194,0.182959,3.02881,0.35318,-0.190083,-0.367215,0.531124,0.0424594,-0.905017
0.129508,0.195427,3.02317,0.910194,-0.013557,-0.0494991,0.518087,-0.0429665,-0.708815
0.130696,0.215722,3.02109,1.06066,0.0498274,0.090255,0.397446,-0.0429054,-0.438369
0.130554,0.235177,3.02071,0.854373,-0.0759755,0.125579,0.253084,0.0515274,-0.166464
0.127802,0.250336,3.02271,0.644385,-0.146191,0.293297,0.196404,0.143543,0.00778764
0.123358,0.262359,3.02934,0.481753,-0.0805256,0.46294,0.0901953,0.160864,0.103828
0.122513,0.272171,3.03746,0.406942,0.217488,0.404196,-0.0426195,0.115838,0.133445
0.127607,0.28029,3.04269,0.325961,0.431086,0.184562,-0.134578,0.128991,0.200751
0.138424,0.285065,3.0433,0.122862,0.652754,-0.0536418,-0.174849,0.134201,0.29075
0.15223,0.284759,3.04021,-0.108917,0.583433,-0.237298,-0.162488,0.104306,0.384421
0.162292,0.279903,3.03483,-0.273141,0.264395,-0.326346,-0.0750466,0.0706347,0.422391
0.166286,0.273189,3.02964,-0.289619,0.0263683,-0.257645,0.00110967,0.0702335,0.373584
0.166859,0.267466,3.02681,-0.224278,-0.0360736,-0.100134,0.0189578,0.0878359,0.311919
0.165364,0.264141,3.02704,-0.0887888,-0.119424,0.0555954,0.0235322,0.0560932,0.265702
0.161575,0.26494,3.02851,0.144961,-0.230945,0.0661148,-0.0297862,-0.00337651,0.226921
0.155111,0.269433,3.02788,0.268854,-0.450368,-0.0717999,-0.0909177,-0.047093,0.240512
0.14495,0.273828,3.024,0.213681,-0.650659,-0.22377,-0.0850607,-0.0749487,0.260706
0.134372,0.277296,3.01793,0.225808,-0.517942,-0.297709,-0.0549518,-0.0523705,0.226674
0.134372,0.277296,3.01793,0.225808,-0.517942,-0.297709,-0.0549518,-0.0523705,0.226674
0.128494,0.281501,3.01102,0.272498,-0.277341,-0.287961,-0.0303998,0.00284982,0.233451
0.125931,0.286367,3.00498,0.275028,-0.184478,-0.226197,-0.00115932,0.0303026,0.302907
0.123498,0.29135,2.99928,0.303721,-0.238354,-0.278481,-0.0315515,0.0324697,0.350022
0.120479,0.297454,2.99123,0.39886,-0.270435,-0.403838,-0.0791588,0.0256002,0.311506
0.119996,0.30501,2.98181,0.439616,-0.00335373,-0.381105,-0.0114148,0.031321,0.241312
0.126665,0.311243,2.97302,0.224404,0.37262,-0.40668,0.0117473,0.0160356,0.232688
0.137602,0.309092,2.96305,-0.36591,0.328579,-0.578806,0.0267112,-0.0373588,0.245989
0.142565,0.294719,2.95215,-0.820993,-0.219292,-0.606145,0.0876763,-0.0108899,0.0843678
0.132461,0.278616,2.94365,-0.570929,-1.01607,-0.4245,0.134204,0.102418,-0.258945
0.10912,0.271422,2.93743,-0.0914175,-1.42257,-0.253601,0.145694,0.16126,-0.547771
0.0822086,0.271248,2.93439,0.0268438,-1.25338,-0.0691111,0.104602,0.107732,-0.714636
0.0621896,0.269114,2.93302,-0.290952,-0.790634,-0.0962889,-0.0393894,0.00824821,-0.78276
0.0521133,0.258093,2.9305,-0.785917,-0.335829,-0.204538,-0.0946759,-0.0386318,-0.728358
0.0501031,0.239751,2.92688,-0.965192,0.0525142,-0.215846,-0.088887,-0.0500605,-0.726187
0.0554117,0.222255,2.92426,-0.71525,0.408971,-0.114298,-0.0529224,-0.0683734,-0.714769
0.0656269,0.213026,2.92443,-0.182181,0.583547,0.0912449,-0.0238446,-0.090675,-0.598179
0.0763378,0.215489,2.92836,0.389037,0.539661,0.296103,-0.0358035,-0.107174,-0.380389
0.08415,0.227685,2.93399,0.723208,0.346801,0.307236,-0.10747,-0.104462,-0.0874221
0.0877696,0.241964,2.93698,0.609661,0.091039,0.074263,-0.177968,-0.13275,0.218154
0.0887901,0.250059,2.93459,0.192082,-0.0080895,-0.219727,-0.158608,-0.157995,0.434335
0.0906376,0.248897,2.92868,-0.24094,0.0657423,-0.33653,-0.0747086,-0.119296,0.519162
0.0950405,0.240911,2.92242,-0.458276,0.244111,-0.334246,-0.0269256,-0.0618281,0.470294
0.103018,0.231385,2.91718,-0.403752,0.408186,-0.264022,-0.0241061,-0.0234361,0.38184
0.112217,0.225255,2.91326,-0.145206,0.41656,-0.188002,-0.0143953,-0.0124547,0.322198
0.120841,0.225428,2.91008,0.201581,0.371399,-0.113143,0.0067398,-0.0218376,0.300049
0.128061,0.23234,2.90798,0.48691,0.300687,0.000235037,0.0181766,-0.00943027,0.328214
0.133067,0.243807,2.90794,0.62197,0.207523,0.141391,0.0113398,0.0151569,0.388345
0.136412,0.256781,2.90967,0.619725,0.176494,0.173048,-0.0340422,0.0277569,0.430746
0.139231,0.268162,2.91098,0.479623,0.139737,0.103978,-0.0701614,0.0312715,0.446139
0.141148,0.276454,2.91121,0.351842,0.0506745,0.0311915,-0.0811239,0.0431484,0.40725
0.141258,0.28272,2.91004,0.287057,-0.0872493,-0.0563661,-0.0915284,0.0716319,0.312704
0.138792,0.287458,2.90735,0.220549,-0.212082,-0.127099,-0.0723215,0.0750194,0.195046
0.135537,0.290843,2.9039,0.160636,-0.198866,-0.15047,-0.0253978,0.0567034,0.0708748
0.132772,0.292922,2.9005,0.0905457,-0.182191,-0.133309,0.0248531,0.0493555,-0.0579495
0.129817,0.294072,2.89821,0.0497167,-0.191568,-0.0688923,0.0725313,0.0554617,-0.183107
0.124424,0.293715,2.89671,-0.0887128,-0.443484,-0.0965568,0.048753,0.074758,-0.255638
0.112835,0.290013,2.89436,-0.237567,-0.780402,-0.155198,0.0793471,0.0779572,-0.350038
0.0954425,0.284774,2.89233,-0.250275,-0.97677,-0.0655823,0.147798,0.111797,-0.487941
0.0760932,0.279638,2.89378,-0.295298,-0.896383,0.182972,0.237572,0.111121,-0.573517
0.0576317,0.272986,2.9013,-0.427721,-0.749358,0.488577,0.280639,0.0919046,-0.59237
0.0408414,0.263766,2.91414,-0.554498,-0.591694,0.696838,0.207912,0.04383,-0.58788
0.0270138,0.252778,2.93078,-0.55981,-0.317891,0.880495,0.135408,-0.0429046,-0.592587
0.0210663,0.244646,2.95072,-0.262643,0.22546,1.024,0.0511873,-0.109716,-0.605798
0.0245811,0.244087,2.97226,0.154604,0.584553,1.05323,-0.0699774,-0.107558,-0.44534
0.0310933,0.250996,2.99267,0.444292,0.513854,0.922006,-0.141488,-0.151319,-0.154346
0.0348276,0.261127,3.00862,0.48672,0.25561,0.646728,-0.170069,-0.192469,0.129058
0.0351127,0.270286,3.01814,0.382759,0.0290268,0.297724,-0.165713,-0.20896,0.329357
0.0335854,0.276194,3.02041,0.190211,-0.0949677,-0.0434906,-0.131687,-0.183466,0.45521
0.0328418,0.277232,3.01666,-0.0754143,-0.0675064,-0.300111,-0.0607416,-0.14371,0.523325
0.0334497,0.273255,3.00899,-0.280504,-0.0968559,-0.431472,-0.00165449,-0.0861973,0.533358
0.0334453,0.266611,2.99949,-0.338167,-0.167073,-0.515496,0.0224757,-0.0497684,0.48743
0.0322603,0.259856,2.98806,-0.289461,-0.231715,-0.610965,0.0152607,-0.0132312,0.42764
0.0317851,0.25505,2.97475,-0.151525,-0.133697,-0.692171,0.0317483,0.00925201,0.358123
0.0341046,0.252906,2.96003,-0.0211121,-0.0218318,-0.730371,0.0562812,0.0475357,0.331121
0.0341046,0.252906,2.96003,-0.0211121,-0.0218318,-0.730371,0.0562812,0.0475357,0.331121
0.0379023,0.253431,2.94568,0.127481,0.0554765,-0.635272,0.134307,0.0756322,0.321611
0.0443317,0.256855,2.93413,0.234021,0.34975,-0.471622,0.167433,0.124615,0.291469
0.0588543,0.260549,2.92572,0.160488,0.886304,-0.328899,0.145741,0.141064,0.274528
0.0780497,0.268123,2.91877,0.729853,0.534956,-0.341878,0.119655,0.177947,0.273727
0.0776624,0.282256,2.91221,0.609942,-0.465524,-0.142208,0.242273,0.13062,0.289612
0.0687107,0.289665,2.91227,0.123728,-0.297952,0.184533,0.224685,0.129503,0.237466
0.0698608,0.28651,2.91719,-0.490798,0.471935,0.218328,0.10806,0.0412582,0.0863059
0.0750261,0.272525,2.92222,-0.83393,0.073727,0.217051,0.0218811,0.0359184,-0.0138734
0.0668738,0.257704,2.93017,-0.666262,-0.787274,0.447314,0.0530585,-0.0483926,-0.234051
