attitude_roll,attitude_pitch,attitude_yaw,rotationRate_x,rotationRate_y,rotationRate_z,acceleration_x,acceleration_y,acceleration_z
0.108589,0.280695,-0.0153558,-0.063235,-0.640284,-0.892933,0.0170055,-0.0422671,0.189792
0.0952266,0.279379,-0.0304579,0.0763774,-1.07903,-0.520287,0.0315745,-0.0317666,0.137597
0.0738523,0.281508,-0.0371543,0.187508,-1.14048,-0.121661,0.0225487,-0.126324,0.0916097
0.0569504,0.2862,-0.0381494,0.259146,-0.472628,-0.00323375,-0.0682457,-0.171274,0.101354
0.0535922,0.289988,-0.0404314,0.0968572,-0.0544776,-0.23544,-0.108444,-0.165887,0.069222
0.0548187,0.290081,-0.0489487,-0.00683017,-0.0693362,-0.563713,-0.0417142,-0.150158,-0.0205746
0.0565687,0.289605,-0.0630983,0.0401972,-0.19216,-0.752412,-0.0217134,-0.0887698,-0.0230958
0.0557804,0.28991,-0.0787403,0.0649309,-0.306221,-0.689578,-0.00980009,-0.0380166,-0.0627217
0.0526442,0.290354,-0.0905354,0.0286978,-0.349754,-0.412777,0.00805428,-0.0857787,-0.11217
0.0465955,0.289834,-0.0966754,-0.0559531,-0.425341,-0.20616,-0.0300943,-0.0899244,-0.19967
0.0383605,0.287665,-0.100429,-0.140755,-0.485402,-0.187764,-0.112383,-0.0310595,-0.267489
0.0298801,0.28448,-0.105102,-0.143729,-0.495429,-0.277549,-0.154117,-0.0153469,-0.306078
0.0221823,0.282429,-0.112056,-0.0288784,-0.435266,-0.38347,-0.178986,0.026156,-0.294493
0.0175996,0.283789,-0.12056,0.190867,-0.235611,-0.40528,-0.166172,0.0539669,-0.215547
0.0179843,0.289932,-0.128391,0.427929,0.0525566,-0.319696,-0.148748,0.0812359,-0.093161
0.0233285,0.299985,-0.134361,0.555266,0.296162,-0.239248,-0.139289,0.102116,-0.0204897
0.0317421,0.310371,-0.139736,0.455521,0.321255,-0.252795,-0.123391,0.136223,0.0430949
0.0375721,0.316643,-0.146061,0.17751,0.0401804,-0.330842,-0.0573633,0.106406,0.0167237
0.0369065,0.316791,-0.154386,-0.133866,-0.390076,-0.459891,-0.0279515,0.105388,-0.000877082
0.0275038,0.310961,-0.165337,-0.389021,-0.861495,-0.577928,-0.0631535,0.186498,-0.0684465
0.0116831,0.301861,-0.177762,-0.463545,-1.01994,-0.611077,-0.100068,0.201075,-0.13343
-0.00356603,0.29306,-0.190925,-0.380569,-0.824546,-0.644578,-0.0851023,0.195881,-0.145852
-0.0115717,0.287518,-0.204571,-0.170029,-0.329991,-0.638176,-0.0569578,0.211734,-0.0886446
-0.00947624,0.28631,-0.216753,0.0194144,0.16326,-0.505239,-0.0409433,0.222524,0.0139065
-0.00171841,0.287467,-0.224966,0.0666969,0.317199,-0.275741,-0.0387422,0.190918,0.0903724
0.00481737,0.288353,-0.228578,0.0142685,0.204476,-0.0855232,-0.0318249,0.132976,0.138604
0.0068592,0.287871,-0.229726,-0.0577429,-0.0455923,-0.0556264,-0.0257725,0.0990509,0.159069
0.00444242,0.286483,-0.232574,-0.0662281,-0.245674,-0.244441,-0.0235332,0.0883972,0.141439
0.00150575,0.285636,-0.240708,-0.0102297,-0.252605,-0.536196,-0.0331831,0.0948173,0.141519
0.000728164,0.285955,-0.254427,0.0336664,-0.216337,-0.741861,-0.0353513,0.106858,0.15411
0.000435104,0.286595,-0.270314,0.0257689,-0.283781,-0.743895,-0.0172631,0.0914339,0.16548
-0.0027174,0.28685,-0.284835,0.00205809,-0.438388,-0.637364,-0.0117522,0.0793037,0.155959
-0.00921748,0.287153,-0.297373,0.0305232,-0.545399,-0.572676,-0.0337932,0.0874828,0.146391
-0.0165117,0.288717,-0.309673,0.118337,-0.490089,-0.615229,-0.0625111,0.109918,0.138884
-0.020018,0.292489,-0.32349,0.229578,-0.232201,-0.710304,-0.0814347,0.120078,0.158479
-0.0173347,0.297996,-0.339024,0.273256,0.0447791,-0.765086,-0.0915387,0.134471,0.21033
-0.00963568,0.303524,-0.354555,0.24678,0.239724,-0.697,-0.080725,0.116802,0.259161
-0.000136934,0.307977,-0.367706,0.184209,0.288802,-0.546864,-0.0717385,0.0794532,0.27616
0.00829253,0.310985,-0.378013,0.123407,0.227479,-0.442971,-0.0697844,0.0599482,0.252491
0.0154648,0.313527,-0.387392,0.158671,0.214035,-0.461244,-0.0840463,0.0399673,0.212674
0.0237183,0.317668,-0.398427,0.277971,0.265271,-0.583921,-0.0862807,0.0435378,0.20742
0.0333114,0.323849,-0.41286,0.363194,0.21347,-0.762818,-0.0686376,0.0545001,0.203015
0.0419264,0.33037,-0.431261,0.324542,0.0191536,-0.943092,-0.0432791,0.0528936,0.193443
0.0453412,0.334262,-0.453519,0.140845,-0.418394,-1.13387,-0.00709625,0.0280535,0.105562
0.0416713,0.333924,-0.479688,-0.0639686,-0.760334,-1.31746,0.0569706,-0.00253898,0.0456127
0.0331504,0.329421,-0.508692,-0.284193,-1.04504,-1.39967,0.0787757,0.0143525,-0.0358728
0.0191325,0.321011,-0.537595,-0.462657,-1.22579,-1.33163,0.0932808,0.000950933,-0.163851
0.00271892,0.31045,-0.564839,-0.534382,-1.20509,-1.25849,0.0887043,-0.0145354,-0.273698
-0.00986437,0.300494,-0.590356,-0.457708,-0.757154,-1.14886,0.101051,-0.0338878,-0.326106
-0.0142149,0.291448,-0.6136,-0.512301,-0.421385,-1.07462,0.140446,-0.07054,-0.330781
-0.016007,0.278617,-0.636945,-0.827284,-0.413717,-1.14441,0.088616,0.00578451,-0.381002
-0.0155337,0.258964,-0.661132,-1.13166,-0.113599,-1.10363,0.0158391,0.0318969,-0.381849
-0.0155337,0.258964,-0.661132,-1.13166,-0.113599,-1.10363,0.0158391,0.0318969,-0.381849
-0.00775126,0.235577,-0.681716,-1.17391,0.374768,-0.819975,0.027404,-0.0333503,-0.329392
0.00642487,0.213691,-0.6945,-0.979159,0.739712,-0.402494,0.0658343,-0.0659624,-0.261947
0.024597,0.196513,-0.697711,-0.735818,0.965916,0.0601053,0.0636015,-0.109895,-0.155529
0.0425207,0.183352,-0.692202,-0.622636,0.844643,0.397652,0.026274,-0.146608,-0.0731468
0.0515829,0.171329,-0.682279,-0.610792,0.189284,0.474222,-0.0207302,-0.165857,-0.0949158
0.0477047,0.160823,-0.672843,-0.447285,-0.381145,0.378171,-0.117506,-0.157481,-0.104451
0.0354269,0.155408,-0.666636,-0.0986169,-0.69239,0.208496,-0.201588,-0.102052,-0.0832129
0.0206677,0.157526,-0.663553,0.292178,-0.711691,0.122527,-0.174097,-0.0671235,0.0279654
0.00590691,0.166694,-0.660645,0.595645,-0.708267,0.197885,-0.109753,-0.0485239,0.15351
-0.00932889,0.180227,-0.655174,0.724024,-0.712435,0.331728,-0.0708242,-0.0222238,0.261577
-0.0245394,0.194616,-0.647759,0.706379,-0.629542,0.346304,-0.0703325,0.00640897,0.311607
-0.0357556,0.20804,-0.641534,0.639851,-0.340408,0.201393,-0.0675161,0.0165858,0.365935
-0.0393506,0.219819,-0.639224,0.531028,0.0301396,-0.018513,-0.0359013,0.0221146,0.418648
-0.0349303,0.228996,-0.640818,0.36906,0.359456,-0.141758,-0.000336114,0.0294288,0.463764
-0.0243932,0.234488,-0.643193,0.169699,0.62478,-0.0732607,0.0238147,0.0241543,0.470086
-0.0102781,0.236135,-0.642639,0.00571041,0.755697,0.131561,0.0588818,-0.00908044,0.442154
0.0038927,0.235457,-0.638496,-0.0422559,0.750915,0.236969,0.0707081,-0.0410807,0.342716
0.0180683,0.235524,-0.634299,0.0542179,0.743438,0.145005,0.0433598,-0.0139621,0.251057
0.0309152,0.237224,-0.632938,0.0754988,0.524404,-0.00716685,0.00241081,0.0294851,0.176119
0.0384538,0.237155,-0.633908,-0.0946248,0.205465,-0.0616305,-0.0138698,0.0576159,0.141427
0.0403299,0.233903,-0.634235,-0.185944,0.00210008,0.0303356,-0.00884089,0.0458021,0.130929
0.0398904,0.23207,-0.632308,0.0420143,0.0235246,0.140482,-0.0231553,0.0594451,0.117804
0.0406782,0.237312,-0.628922,0.477905,0.146723,0.206403,-0.0409616,0.105193,0.0927818
0.0448841,0.250987,-0.624496,0.821506,0.385628,0.283104,-0.047812,0.126381,0.106349
0.0512935,0.268183,-0.618704,0.794706,0.311821,0.341333,-0.0408629,0.132152,0.0766943
0.0507438,0.280401,-0.613321,0.311552,-0.301684,0.180244,-0.0207107,0.163948,-0.0496614
0.0367334,0.278187,-0.613608,-0.536588,-1.02912,-0.228362,-0.0692946,0.262101,-0.223496
0.017028,0.260768,-0.622476,-1.09031,-1.06107,-0.674572,-0.168872,0.243938,-0.339017
0.00312471,0.23696,-0.64178,-1.21675,-0.819225,-1.21901,-0.169068,0.240257,-0.451441
-0.00571524,0.212773,-0.671926,-1.18248,-0.721719,-1.65712,-0.0974563,0.249746,-0.539733
-0.0104456,0.190202,-0.70785,-1.08217,-0.414293,-1.77342,-0.0528228,0.205537,-0.514776
-0.00730246,0.170314,-0.743029,-0.919283,0.107804,-1.61354,-0.0297754,0.158124,-0.372725
0.00347415,0.153344,-0.772282,-0.782741,0.467408,-1.21724,0.0119322,0.0882902,-0.241675
0.0178509,0.138671,-0.791584,-0.648729,0.655843,-0.685813,0.049872,-0.00990485,-0.100257
0.0328761,0.127773,-0.800206,-0.394654,0.699457,-0.207856,0.0442104,-0.057114,0.025858
0.0468222,0.123175,-0.800212,-0.0526027,0.689462,0.17847,0.0313083,-0.090927,0.143725
0.0595391,0.126183,-0.793644,0.307639,0.645305,0.466196,0.0148217,-0.110541,0.258862
0.0698274,0.136111,-0.782818,0.589535,0.507781,0.644657,-0.0148651,-0.102224,0.346094
0.0765233,0.150875,-0.769875,0.764383,0.339065,0.719121,-0.0407444,-0.0933791,0.425124
0.0777379,0.167703,-0.756687,0.774413,-0.0712422,0.680459,-0.0231491,-0.10214,0.453711
0.0678893,0.182761,-0.744977,0.605111,-0.709344,0.571457,0.106388,-0.160906,0.38672
0.0504356,0.192941,-0.734979,0.352901,-0.672955,0.476459,0.233541,-0.210735,0.3091
0.0418028,0.198264,-0.725578,0.155058,0.0971629,0.47415,0.190824,-0.228066,0.153153
0.0531102,0.201159,-0.71606,0.116142,1.14982,0.417602,0.164141,-0.399194,-0.0205845
0.0760406,0.203056,-0.713249,0.00284435,0.879404,-0.271331,0.111568,-0.410703,-0.252364
0.0840145,0.197234,-0.730308,-0.482876,-0.375496,-1.40955,0.0617083,-0.249034,-0.491642
0.0783454,0.179156,-0.764961,-1.00408,-0.662044,-1.98494,0.0942215,-0.275674,-0.469829
0.0752698,0.153494,-0.803197,-1.18206,-0.186946,-1.84286,0.133708,-0.164475,-0.434553
0.0834892,0.129606,-0.831898,-0.914642,0.598589,-1.0763,0.177637,-0.0351246,-0.337464
0.0834892,0.129606,-0.831898,-0.914642,0.598589,-1.0763,0.177637,-0.0351246,-0.337464
0.103018,0.114832,-0.84091,-0.461588,1.18386,0.0978571,0.19557,-0.00421013,-0.188443
0.128132,0.111585,-0.825292,-0.0624839,1.43598,1.39732,0.118771,-0.0231222,-0.0244061
0.152043,0.118716,-0.786173,0.207113,1.33864,2.46198,-0.00105374,-0.0729075,0.0817567
0.168962,0.134161,-0.731681,0.441832,1.00999,2.9947,-0.150825,-0.0688927,0.126926
0.177193,0.155378,-0.673261,0.628845,0.65487,2.94896,-0.28538,-0.0343031,0.166347
0.179492,0.178607,-0.620806,0.716085,0.466025,2.48386,-0.359467,0.00438014,0.241384
0.179688,0.20079,-0.578971,0.711102,0.34036,1.94192,-0.362266,0.0301017,0.313452
0.179286,0.220241,-0.546837,0.61461,0.309526,1.48117,-0.319451,0.0556228,0.347548
0.181749,0.234795,-0.523788,0.386858,0.519877,0.948063,-0.281931,0.0921259,0.302277
0.195989,0.241737,-0.512267,0.0875322,1.21306,0.264652,-0.266421,0.131342,0.223759
0.225576,0.241164,-0.513028,-0.0894468,1.59908,-0.302525,-0.155428,0.176257,0.0936302
0.256728,0.237574,-0.52172,-0.0235768,1.15536,-0.57701,-0.119649,0.304086,-0.0477805
0.274079,0.234405,-0.537335,0.105396,0.184387,-1.03169,-0.184965,0.47848,-0.176506
0.274898,0.228581,-0.566551,0.0720426,-0.735169,-1.88135,-0.165847,0.53258,-0.236181
0.263487,0.215436,-0.612227,-0.189641,-1.32589,-2.68321,-0.044147,0.459104,-0.295357
0.247474,0.193825,-0.666505,-0.553495,-1.23633,-2.83903,0.122775,0.392076,-0.327338
0.238279,0.168038,-0.714292,-0.773348,-0.469531,-2.21988,0.213873,0.340695,-0.345927
0.242903,0.14456,-0.745968,-0.714078,0.433708,-1.37198,0.223779,0.26242,-0.361395
0.261419,0.128187,-0.763294,-0.422554,1.09694,-0.72066,0.148545,0.191954,-0.297517
0.287386,0.12085,-0.770933,-0.0875422,1.33042,-0.212958,0.0512781,0.0666923,-0.179522
0.313318,0.121774,-0.770981,0.158201,1.19895,0.224641,-0.0263937,-0.0540481,-0.0191535
0.332831,0.128944,-0.764735,0.303754,0.777859,0.571753,-0.106386,-0.121169,0.12656
0.341896,0.140328,-0.753792,0.401901,0.27748,0.800015,-0.18766,-0.162699,0.2303
0.341144,0.153989,-0.740636,0.430153,-0.13969,0.835842,-0.260873,-0.178375,0.309838
0.333132,0.16651,-0.728688,0.339009,-0.449461,0.648033,-0.305895,-0.174072,0.370139
0.321474,0.174284,-0.721662,0.166298,-0.540674,0.219142,-0.296515,-0.195539,0.384654
0.311779,0.175425,-0.723124,-0.0176614,-0.441684,-0.315512,-0.21246,-0.246188,0.38193
0.304912,0.169756,-0.73224,-0.271106,-0.426092,-0.65536,-0.0960194,-0.296055,0.294182
0.297163,0.157462,-0.743305,-0.566557,-0.525408,-0.71712,0.0389995,-0.35306,0.125525
0.28722,0.140772,-0.753962,-0.681172,-0.61646,-0.792851,0.0163446,-0.295209,-0.0599272
0.275864,0.122283,-0.768378,-0.72002,-0.728096,-1.13283,-0.055821,-0.17662,-0.196484
0.26105,0.0978252,-0.790888,-1.08146,-0.969598,-1.64809,-0.0478006,-0.0661186,-0.312639
0.245419,0.063781,-0.819514,-1.44203,-0.723488,-1.88222,0.0378501,-0.105681,-0.335663
0.237333,0.0268952,-0.848099,-1.36639,-0.207981,-1.67385,0.147069,-0.121729,-0.331484
0.237273,-0.00248569,-0.869065,-0.955195,0.138118,-0.96663,0.243967,-0.12364,-0.282232
0.242151,-0.0186486,-0.8748,-0.473482,0.353714,0.0584923,0.250607,-0.120973,-0.149599
0.252017,-0.02084,-0.861927,-0.0724647,0.597776,1.10438,0.169047,-0.120814,0.0017705
0.265279,-0.0116297,-0.833238,0.214602,0.605143,1.8197,0.0625916,-0.145388,0.0974461
0.275076,0.00585603,-0.796412,0.487103,0.328296,2.12365,0.00110459,-0.153171,0.159287
0.275691,0.0293198,-0.758396,0.702596,-0.253879,2.10155,-0.078766,-0.115734,0.188615
0.262139,0.0545016,-0.723712,0.782147,-0.905782,1.87109,-0.139102,-0.042495,0.166751
0.238844,0.0800718,-0.693957,0.992319,-1.11589,1.62547,-0.180844,-0.00320458,0.139581
0.217627,0.110821,-0.669966,1.46092,-0.720529,1.36293,-0.182576,0.0642228,0.134272
0.204956,0.147501,-0.653623,1.68673,-0.365934,0.951555,-0.198247,0.224054,0.118372
0.198808,0.180961,-0.645708,1.33129,-0.135863,0.481707,-0.150071,0.3094,0.123475
0.196038,0.201221,-0.644798,0.605473,-0.174173,-0.0180586,-0.121961,0.288809,0.0673181
0.192188,0.20484,-0.65276,-0.0620123,-0.357369,-0.699803,-0.13431,0.330974,-0.0630874
0.188059,0.195209,-0.672855,-0.474682,-0.454264,-1.36706,-0.101233,0.358751,-0.191746
0.182293,0.17788,-0.701734,-0.660601,-0.692326,-1.65431,0.057797,0.240558,-0.289747
0.169939,0.159852,-0.732228,-0.515473,-1.02495,-1.56536,0.196819,0.142998,-0.386956
0.169939,0.159852,-0.732228,-0.515473,-1.02495,-1.56536,0.196819,0.142998,-0.386956
0.151606,0.148864,-0.760793,-0.0927926,-1.1913,-1.38947,0.144727,0.191482,-0.418918
0.132785,0.147266,-0.787466,0.281256,-1.03087,-1.22119,0.0263863,0.219488,-0.346634
0.118292,0.152222,-0.810928,0.472931,-0.722726,-1.0026,-0.040938,0.164269,-0.216454
0.111376,0.16049,-0.830154,0.535229,-0.267321,-0.781211,-0.058433,0.0991633,-0.0122533
0.112425,0.169295,-0.845202,0.477135,0.0964267,-0.584761,-0.0778082,0.0602112,0.156605
0.11811,0.176036,-0.856186,0.299091,0.244384,-0.421274,-0.114427,0.00781611,0.249339
0.123881,0.179138,-0.864793,0.118451,0.16129,-0.409913,-0.174184,-0.0405533,0.235109
0.128104,0.179297,-0.874831,0.0361548,0.0835009,-0.589506,-0.204426,-0.054267,0.219681
0.131306,0.177528,-0.88967,-0.0354513,-0.0374719,-0.879812,-0.180568,-0.093835,0.187557
0.131307,0.172409,-0.910122,-0.229713,-0.345564,-1.16623,-0.109244,-0.136915,0.130502
0.125305,0.162358,-0.934867,-0.428165,-0.604292,-1.34606,-0.0615506,-0.132758,-0.0011434
0.117697,0.14963,-0.961051,-0.495634,-0.515662,-1.32624,-0.0533391,-0.0938319,-0.141672
0.112946,0.136901,-0.984836,-0.509522,-0.341158,-1.13604,-0.0171689,-0.0883797,-0.275312
0.103761,0.121958,-1.00545,-0.778985,-0.980275,-1.07681,0.053353,-0.0968648,-0.474894
0.0784639,0.10251,-1.02596,-0.894288,-1.65218,-1.1108,0.0484013,-0.0624948,-0.704904
0.0462617,0.0855438,-1.04719,-0.607943,-1.64674,-1.08269,-0.0634254,0.00684145,-0.777351
0.019591,0.0773002,-1.0677,-0.141088,-1.09551,-0.964384,-0.108139,0.0659164,-0.733097
0.00829799,0.0786365,-1.08481,0.273105,-0.113143,-0.713507,-0.115893,0.0778688,-0.535199
0.0168389,0.0865823,-1.09597,0.498033,0.803452,-0.373066,-0.111959,0.0569026,-0.262844
0.0380584,0.0975244,-1.10057,0.591561,1.18496,-0.0736131,-0.125225,0.00920459,-0.0612433
0.0616929,0.10998,-1.10155,0.64416,1.09655,-0.0102417,-0.194643,-0.0200326,0.0577412
0.0802688,0.12307,-1.10471,0.678158,0.675345,-0.247472,-0.272676,-0.00727569,0.108061
0.0903668,0.136458,-1.11494,0.739541,0.219525,-0.658618,-0.311756,-0.00317062,0.14047
0.0945995,0.150128,-1.13449,0.776623,-0.0500368,-1.13216,-0.299527,0.00709304,0.186281
0.0963715,0.162796,-1.16293,0.72583,-0.192156,-1.49152,-0.248606,0.0365437,0.232398
0.0979019,0.172951,-1.19568,0.580817,-0.184135,-1.56583,-0.208028,0.0649734,0.280977
0.100306,0.180143,-1.22719,0.450315,-0.124197,-1.40318,-0.18357,0.0847484,0.2965
0.103371,0.186129,-1.25367,0.423546,-0.0541687,-1.10149,-0.170405,0.0655793,0.287251
0.106458,0.193465,-1.27447,0.521417,-0.0311773,-0.869846,-0.161312,0.0400537,0.248509
0.109544,0.202814,-1.29266,0.567851,-0.0263863,-0.813781,-0.153074,0.0367687,0.231415
0.111883,0.211148,-1.31029,0.416648,-0.0992653,-0.797879,-0.102868,0.003711,0.20915
0.112966,0.21525,-1.32663,0.163557,-0.133702,-0.719084,-0.0780353,-0.00889702,0.16578
0.11193,0.215081,-1.33987,-0.0117713,-0.269879,-0.547285,-0.0680309,0.0312673,0.0369772
0.106979,0.213851,-1.34908,0.0147157,-0.398739,-0.372733,-0.0742988,0.0460562,-0.116241
0.100231,0.214108,-1.35641,0.0622226,-0.427046,-0.363399,-0.0702976,0.0478793,-0.21327
0.0925139,0.213671,-1.36515,-0.0475831,-0.533857,-0.497777,-0.0667522,0.0376108,-0.293186
0.0828703,0.209781,-1.37674,-0.234171,-0.663929,-0.654825,-0.0625282,0.0347072,-0.343334
0.0721855,0.203177,-1.39065,-0.280348,-0.638365,-0.731277,-0.0740878,0.0514065,-0.360004
0.0650447,0.198305,-1.4055,-0.0674427,-0.320818,-0.735005,-0.0861097,0.071489,-0.31403
0.0661867,0.199595,-1.42011,0.295738,0.144657,-0.665078,-0.0739044,0.0894775,-0.190639
0.0752097,0.208084,-1.43314,0.613495,0.451697,-0.536687,-0.0520947,0.101026,-0.0474545
0.0871073,0.22126,-1.44404,0.739739,0.453405,-0.418257,-0.022529,0.101188,0.0853565
0.0963239,0.234441,-1.45342,0.602295,0.22778,-0.385837,-0.0167924,0.0931847,0.15945
0.0998335,0.241993,-1.46322,0.202246,-0.127099,-0.50259,-0.0311052,0.0926656,0.178461
0.0953678,0.239614,-1.47547,-0.316305,-0.614186,-0.705072,-0.0388529,0.0933307,0.116872
0.0824697,0.227705,-1.49137,-0.690312,-1.00934,-0.936017,-0.0691721,0.119221,0.000554442
0.0648523,0.210881,-1.51215,-0.784608,-1.13948,-1.19441,-0.074205,0.142228,-0.100686
0.0482647,0.19496,-1.53749,-0.638756,-0.981809,-1.32854,-0.0356286,0.163851,-0.111686
0.0367618,0.182798,-1.56394,-0.464404,-0.623467,-1.28156,-0.0179985,0.192112,-0.048133
0.0337756,0.174481,-1.58874,-0.274682,-0.0835055,-1.17631,-0.0115128,0.171034,0.0121023
0.0337756,0.174481,-1.58874,-0.274682,-0.0835055,-1.17631,-0.0115128,0.171034,0.0121023
0.0413075,0.169743,-1.61182,-0.136789,0.388441,-1.10582,-0.00366921,0.170744,0.100648
0.0540333,0.166008,-1.63335,-0.155923,0.466245,-1.01292,0.0033608,0.166544,0.151332
0.0651543,0.160813,-1.65258,-0.244074,0.300709,-0.911533,-0.0247632,0.147135,0.174578
0.0711995,0.154163,-1.67074,-0.283076,0.00744738,-0.938548,-0.0662675,0.145496,0.150966
0.0717783,0.147233,-1.69086,-0.255048,-0.215923,-1.09701,-0.0961483,0.142139,0.0978398
0.0702184,0.141067,-1.71442,-0.195612,-0.245898,-1.24645,-0.0869198,0.124242,0.0775163
0.0696068,0.135778,-1.7397,-0.157453,-0.148533,-1.2507,-0.0531329,0.111771,0.0880522
0.0716571,0.131274,-1.76362,-0.121118,0.0529527,-1.12056,-0.0265005,0.0991742,0.120444
0.0776086,0.127923,-1.78446,-0.0524679,0.26175,-0.950882,-0.022515,0.0886034,0.16374
0.0863699,0.126628,-1.8019,0.07531,0.364232,-0.770846,-0.0277869,0.0609515,0.211227
0.0957563,0.128772,-1.81603,0.275528,0.375748,-0.600734,-0.0511173,0.0213756,0.248118
0.104539,0.135556,-1.82781,0.507401,0.352237,-0.495711,-0.114195,0.030023,0.27863
0.113281,0.146591,-1.8383,0.676513,0.382233,-0.408706,-0.188517,0.0808351,0.332284
0.1222,0.159925,-1.84745,0.723036,0.337908,-0.343122,-0.255793,0.110324,0.349918
0.12762,0.172907,-1.85646,0.656585,0.009861,-0.411088,-0.284129,0.112308,0.344708
0.125269,0.183315,-1.86919,0.518653,-0.476419,-0.727529,-0.239197,0.0852286,0.352112
0.11445,0.189635,-1.88952,0.329677,-0.973161,-1.17941,-0.143006,0.0075466,0.358629
0.0965019,0.190329,-1.91883,0.027051,-1.344,-1.65399,-0.0987932,-0.0373956,0.325655
0.0739432,0.184745,-1.95676,-0.238834,-1.56113,-2.06301,-0.0927756,-0.0542799,0.184627
0.0511593,0.17677,-2.00144,-0.229025,-1.43008,-2.31895,-0.0120711,-0.0768807,0.0190634
0.0346945,0.171704,-2.04908,-0.0987939,-1.01286,-2.33135,0.121584,-0.11109,-0.0930872
0.0250139,0.166485,-2.09543,-0.389426,-0.822422,-2.23904,0.250496,-0.138299,-0.158972
0.0100522,0.148725,-2.14123,-1.35512,-1.46554,-2.28922,0.26429,-0.0290536,-0.365505
-0.0156615,0.11332,-2.18672,-2.04368,-1.48817,-2.13585,0.178997,0.00120049,-0.568242
-0.0337895,0.0746775,-2.22706,-1.76135,-0.64932,-1.73201,0.143461,-0.0142286,-0.611327
-0.0373302,0.0486605,-2.25704,-0.890825,0.0797502,-1.10569,0.21936,-0.0251045,-0.589892
-0.0297149,0.0398967,-2.27143,-0.0769741,0.577072,-0.27428,0.289239,-0.0942692,-0.389039
-0.0157912,0.0433707,-2.26861,0.363556,0.780026,0.515853,0.242063,-0.132241,-0.162289
-0.000270436,0.0519589,-2.25279,0.449303,0.812608,0.979879,0.122829,-0.148428,0.0166405
0.0138559,0.0596726,-2.23212,0.268748,0.691093,1.02747,0.017648,-0.148188,0.130937
0.0245436,0.0623881,-2.21278,-0.0437558,0.476582,0.871539,-0.0650361,-0.169769,0.199597
0.0312257,0.0590671,-2.19799,-0.295502,0.298473,0.566506,-0.113579,-0.208484,0.213666
0.0358486,0.0529776,-2.18992,-0.299229,0.223435,0.223904,-0.124917,-0.218959,0.204697
0.0402556,0.0485499,-2.18762,-0.13522,0.236887,0.0269197,-0.100912,-0.186149,0.225124
0.0457505,0.0479144,-2.18699,0.0698946,0.321714,0.0662395,-0.0701419,-0.14821,0.28156
0.0529419,0.0512774,-2.18428,0.240008,0.389747,0.226462,-0.0643376,-0.0957483,0.33655
0.060376,0.0577283,-2.17827,0.362691,0.380332,0.402569,-0.0649386,-0.0425083,0.364221
0.0675091,0.0668194,-2.16905,0.482985,0.398541,0.567742,-0.0700997,-0.000368997,0.393521
0.0743927,0.078816,-2.15709,0.617493,0.309947,0.683224,-0.0742612,0.0433339,0.398695
0.0748078,0.0931082,-2.14427,0.689664,-0.19486,0.673814,-0.0306979,0.103868,0.268549
0.0660331,0.107804,-2.13163,0.67441,-0.47099,0.709491,0.00652616,0.174871,0.115258
0.0558047,0.121818,-2.11607,0.588784,-0.356782,0.904448,0.0411494,0.205638,-0.0441731
0.0452629,0.130165,-2.09871,0.0605574,-0.574679,0.762475,-0.063099,0.384924,-0.270065
0.0287935,0.123317,-2.08813,-0.774868,-0.83239,0.220994,-0.228217,0.418369,-0.54397
0.0138668,0.102036,-2.09114,-1.25007,-0.656007,-0.605461,-0.240403,0.254752,-0.596834
0.00471654,0.076875,-2.11197,-1.16644,-0.443358,-1.42194,-0.123981,0.206514,-0.620106
0.000184154,0.0567095,-2.14405,-0.827517,-0.197048,-1.66431,-0.0019234,0.185524,-0.491949
0.000633045,0.0424923,-2.1757,-0.619438,0.0830764,-1.43351,0.0301902,0.157927,-0.274462
0.00552486,0.0309202,-2.2006,-0.530242,0.303737,-1.04033,0.0273299,0.086381,-0.0863392
0.0134228,0.0212428,-2.21797,-0.399036,0.417104,-0.718427,0.00333477,-0.00419523,0.0535784
0.0134228,0.0212428,-2.21797,-0.399036,0.417104,-0.718427,0.00333477,-0.00419523,0.0535784
0.0222852,0.0151327,-2.23038,-0.176105,0.435362,-0.542126,-0.0231811,-0.0755814,0.162586
0.0309241,0.0139544,-2.24014,0.0841126,0.387005,-0.439174,-0.0399036,-0.117119,0.264439
0.0370636,0.017188,-2.24898,0.237899,0.178114,-0.452637,-0.0776228,-0.0941105,0.32581
0.0377965,0.0213574,-2.25938,0.184141,-0.112218,-0.572893,-0.147551,-0.00440115,0.333271
0.0342173,0.0232531,-2.27238,0.0566956,-0.238085,-0.715877,-0.200934,0.0305752,0.300048
0.0299456,0.0230186,-2.2884,-0.0281365,-0.228311,-0.874236,-0.0886643,-0.0465331,0.218251
0.0263087,0.0211203,-2.30628,-0.0944944,-0.120344,-0.840805,0.0523287,-0.105026,0.103603
0.028075,0.0193755,-2.31856,-0.0235023,0.299776,-0.336996,0.0910288,-0.180073,0.0592785
0.0380183,0.0199893,-2.32049,0.0739508,0.622873,0.062673,0.0150532,-0.19777,0.0232782
0.050513,0.0207966,-2.32062,-0.0557047,0.548956,-0.16506,-0.0490311,-0.149401,-0.00329196
0.0562973,0.0134862,-2.32988,-0.7097,-0.0647957,-0.829716,-0.126941,-0.115741,-0.0457577
0.049739,-0.0104786,-2.35128,-1.50069,-0.485173,-1.33798,-0.0851314,-0.18748,-0.0442451
0.0370219,-0.0448635,-2.37675,-1.70414,-0.766341,-1.25835,0.0509296,-0.264743,0.00165093
0.0153314,-0.076743,-2.39585,-1.33742,-1.27729,-0.64009,0.198856,-0.228401,-0.0218898
-0.0148549,-0.0970685,-2.39906,-0.655558,-1.66575,0.333782,0.303038,-0.265068,0.0408065
-0.0471746,-0.103148,-2.38335,0.0978208,-1.60129,1.18054,0.309297,-0.282179,0.0957512
-0.0703427,-0.0968568,-2.35368,0.645559,-0.94126,1.65962,0.246194,-0.273982,0.201027
-0.0777214,-0.0848136,-2.3162,0.758558,-0.144365,1.93313,0.164003,-0.256785,0.31786
-0.0720468,-0.0745151,-2.2745,0.546076,0.31434,2.09085,0.0676954,-0.218794,0.33291
-0.0600884,-0.0682664,-2.23153,0.404796,0.571076,2.08465,-0.0339445,-0.193091,0.259969
-0.0447481,-0.0607915,-2.1917,0.580526,0.635787,1.7684,-0.0787778,-0.168878,0.130119
-0.031763,-0.0470717,-2.16095,0.911784,0.503803,1.22599,-0.0387274,-0.114056,-0.0869845
-0.0210903,-0.0262949,-2.14052,1.16644,0.468001,0.789411,0.0180449,-0.0368968,-0.176227
-0.0138319,-0.0034432,-2.12626,1.06361,0.148401,0.608194,0.0133583,0.133764,-0.22729
-0.0191289,0.0130098,-2.11597,0.530761,-0.731475,0.355547,-0.163079,0.399576,-0.367608
-0.0428375,0.0175486,-2.11434,-0.043747,-1.53406,-0.287896,-0.310911,0.440475,-0.543201
-0.0766478,0.0148127,-2.1307,-0.280533,-1.79713,-1.33894,-0.264271,0.348095,-0.535852
-0.110729,0.0121046,-2.16689,-0.313737,-1.52828,-2.13499,-0.119226,0.309056,-0.486849
-0.132134,0.0114229,-2.2134,-0.330301,-0.559423,-2.36353,-0.0080746,0.284158,-0.309578
-0.130265,0.0103025,-2.25961,-0.396274,0.693665,-2.1203,0.0401832,0.223147,-0.0887252
-0.105247,0.00642277,-2.29855,-0.435454,1.67686,-1.66555,0.0577788,0.105208,0.0967106
-0.0665189,0.000823933,-2.32821,-0.34767,2.06767,-1.24039,0.0564906,-0.00109873,0.214127
-0.0260549,-0.00300248,-2.35013,-0.115551,1.88902,-0.936111,0.031957,-0.0651974,0.275855
0.0079011,-0.0019053,-2.36655,0.215785,1.48598,-0.70664,-0.000363185,-0.109449,0.314115
0.0333498,0.00550223,-2.37903,0.52302,1.01401,-0.530973,-0.0281552,-0.140936,0.337167
0.0476282,0.0165413,-2.38934,0.585401,0.406335,-0.452324,-0.0495568,-0.129212,0.262935
0.0531553,0.0285067,-2.39821,0.670592,0.228921,-0.353229,-0.0393758,-0.154557,0.204664
0.0589384,0.0431443,-2.40448,0.806551,0.297457,-0.173896,0.0133094,-0.1975,0.193593
0.0628817,0.0595083,-2.40655,0.812617,0.0323384,0.0574113,0.0614317,-0.275946,0.118282
0.0585567,0.075026,-2.4056,0.693623,-0.494351,0.0847433,0.0326143,-0.286113,0.0709019
0.0417903,0.0854567,-2.40642,0.271347,-1.17166,-0.131268,-0.0736539,-0.203252,-0.0353113
0.0151719,0.0837079,-2.41128,-0.407601,-1.37674,-0.326291,-0.16969,-0.158516,-0.169403
-0.00721072,0.0723499,-2.41887,-0.633434,-0.845059,-0.429296,-0.260112,-0.142923,-0.228106
-0.0173417,0.0610301,-2.42812,-0.468256,-0.250048,-0.438564,-0.22967,-0.0879184,-0.267728
-0.017101,0.0544899,-2.4351,-0.193113,0.227595,-0.226641,-0.160232,-0.102458,-0.228086
-0.00795621,0.0527608,-2.43774,-0.00314657,0.666439,-0.0617051,-0.15624,-0.0907574,-0.120594
0.0100058,0.0537111,-2.43853,0.0967104,1.11154,-0.0367405,-0.176175,-0.0788678,0.006473
0.0348515,0.0571376,-2.43998,0.257022,1.26523,-0.107042,-0.224698,-0.0720592,0.0512897
0.0575319,0.0637698,-2.44329,0.410056,0.904384,-0.1796,-0.250865,-0.0214938,-0.00182217
0.0699928,0.0729633,-2.44808,0.538977,0.301142,-0.240782,-0.264437,0.0128399,-0.101782
0.0699928,0.0729633,-2.44808,0.538977,0.301142,-0.240782,-0.264437,0.0128399,-0.101782
0.0726764,0.0853269,-2.45519,0.755562,-0.0235029,-0.390154,-0.272528,0.0650054,-0.159665
0.0716191,0.101956,-2.46695,0.953923,-0.189016,-0.671124,-0.285908,0.143192,-0.167564
0.0681753,0.120297,-2.48506,0.96135,-0.34939,-0.977058,-0.276645,0.214794,-0.163418
0.0633386,0.137218,-2.50783,0.858062,-0.40088,-1.11626,-0.25574,0.242226,-0.162417
0.0584495,0.151935,-2.53142,0.738715,-0.46684,-1.1001,-0.219425,0.234725,-0.215189
0.0498665,0.163562,-2.5548,0.529885,-0.778985,-1.16143,-0.171434,0.185112,-0.310624
0.0339979,0.170439,-2.58183,0.240618,-1.27697,-1.50666,-0.166403,0.143431,-0.403685
0.00968523,0.17007,-2.61867,-0.230639,-1.68771,-2.12475,-0.230966,0.173127,-0.538033
-0.0144187,0.16002,-2.66882,-0.772233,-1.40916,-2.77535,-0.240572,0.207113,-0.534332
-0.0254272,0.141517,-2.73046,-1.17454,-0.557005,-3.18641,-0.191993,0.266289,-0.47397
-0.0183981,0.116648,-2.79623,-1.42923,0.401992,-3.16952,-0.118615,0.310964,-0.390524
0.00442004,0.087115,-2.85677,-1.52783,1.2302,-2.75413,-0.0476619,0.253097,-0.278918
0.0389886,0.0564554,-2.90634,-1.38089,1.78298,-2.23045,-0.0403967,0.159697,-0.203737
0.0776227,0.030093,-2.945,-0.987929,1.82107,-1.77384,-0.0502269,0.0792216,-0.152388
0.11203,0.0122474,-2.97522,-0.49608,1.49463,-1.39037,-0.0519734,0.0266666,-0.0463519
0.136978,0.00390674,-2.99882,-0.0505413,0.950959,-1.04231,-0.0471627,-0.0134121,0.0721381
0.150478,0.00372075,-3.01692,0.258016,0.402514,-0.765434,-0.0632548,-0.0403772,0.181823
0.154164,0.00810311,-3.03151,0.361462,-0.0155036,-0.620633,-0.0843966,-0.0526118,0.271219
0.151092,0.0131888,-3.04443,0.304106,-0.281675,-0.588297,-0.0959389,-0.059413,0.327312
0.144174,0.0158213,-3.05737,0.147391,-0.398379,-0.659213,-0.111751,-0.0584135,0.319228
0.136796,0.0160797,-3.07171,0.100136,-0.35808,-0.752179,-0.121414,-0.0828743,0.272711
0.128567,0.0164413,-3.08791,0.158533,-0.538354,-0.841212,-0.0993266,-0.0792169,0.211309
0.114557,0.0182926,-3.10618,0.248637,-0.889975,-0.941828,-0.0901178,-0.0303535,0.135186
0.0941008,0.0224157,-3.12701,0.379006,-1.15809,-1.08465,-0.0875755,0.0216355,0.0391642
0.0711689,0.0291134,3.13217,0.466149,-1.12982,-1.23036,-0.0774263,0.0895493,-0.0199677
0.0513825,0.0370671,3.10606,0.456733,-0.924351,-1.29689,-0.0292299,0.096751,-0.0369179
0.0350179,0.0436969,3.07959,0.294054,-0.844131,-1.29931,0.0114246,0.106107,-0.0546829
0.0182517,0.0461455,3.05254,-0.00605073,-0.97145,-1.42409,-0.0168579,0.141771,-0.100108
-0.00120699,0.0410503,3.02004,-0.496038,-1.07666,-1.84884,-0.0666346,0.183434,-0.143665
-0.0200352,0.0259789,2.97752,-1.04319,-0.88566,-2.34186,-0.0413132,0.151708,-0.130467
-0.0323795,0.00210412,2.92627,-1.43,-0.380306,-2.65052,0.0334114,0.123534,-0.0963821
-0.035304,-0.0262113,2.87163,-1.52764,0.129295,-2.61295,0.142371,0.102866,-0.076177
-0.032022,-0.0540674,2.82222,-1.36594,0.319644,-2.14643,0.237582,0.0575617,-0.015523
-0.0286107,-0.0758453,2.78458,-0.843782,0.255072,-1.52851,0.283224,-0.029157,-0.0447411
-0.0273202,-0.0843905,2.75858,-0.071826,0.0398646,-1.05264,0.305189,-0.0680246,-0.0377899
-0.0318264,-0.0785153,2.74131,0.550769,-0.360977,-0.670545,0.261398,-0.0108688,-0.0102689
-0.0447306,-0.064202,2.73267,0.777269,-0.878062,-0.240478,0.185188,0.0103812,0.0286951
-0.0669919,-0.0488934,2.73202,0.711532,-1.26733,0.0548995,0.0538308,0.0320892,-0.0101188
-0.0918626,-0.0364462,2.73478,0.538033,-1.1176,0.0740699,-0.109835,0.0724791,-0.0608317
-0.108041,-0.0271866,2.73534,0.381941,-0.442976,-0.139977,-0.217587,0.0712816,-0.0652039
-0.109598,-0.0204931,2.73027,0.218673,0.273705,-0.427885,-0.211537,0.0413979,-0.0368024
-0.0988601,-0.016556,2.72005,0.0647196,0.770304,-0.599033,-0.133858,-0.0177149,0.0304424
-0.0809459,-0.0151603,2.70777,-0.0310821,0.995816,-0.606481,-0.100579,-0.0385057,0.0970445
-0.0605971,-0.015363,2.69634,-0.0560107,1.01662,-0.517947,-0.110727,-0.0398986,0.136871
-0.0410827,-0.0153389,2.6869,0.0247282,0.924779,-0.421055,-0.124888,-0.0461306,0.156219
-0.0242896,-0.0132843,2.67945,0.158963,0.737976,-0.327112,-0.122504,-0.0561916,0.188185
-0.0125011,-0.00871204,2.67372,0.272796,0.41766,-0.25547,-0.100857,-0.0745079,0.201849
-0.00737076,-0.00268136,2.66916,0.314551,0.114065,-0.206009,-0.0702813,-0.0898396,0.213119
-0.00695054,0.00390883,2.66553,0.334851,-0.0483983,-0.15886,-0.066307,-0.116697,0.203093
-0.00863949,0.010747,2.66295,0.34123,-0.112574,-0.0966318,-0.0690741,-0.11967,0.197613
-0.0114049,0.0176966,2.66209,0.35533,-0.162822,0.0122384,-0.0811874,-0.120671,0.178856
-0.0147732,0.0253955,2.66355,0.417959,-0.177142,0.118366,-0.0920589,-0.116346,0.179302
-0.0188573,0.035016,2.66683,0.551981,-0.195105,0.183517,-0.110641,-0.0984751,0.170672
-0.0218522,0.0474843,2.67099,0.686284,-0.0813595,0.200193,-0.121195,-0.0946997,0.225319
-0.0230981,0.0618384,2.67583,0.734782,-0.0462372,0.258202,-0.092274,-0.103515,0.267598
-0.0255837,0.0766241,2.68267,0.752285,-0.169842,0.393715,-0.0428992,-0.132802,0.276448
-0.0311948,0.0921684,2.69242,0.839986,-0.316576,0.513512,-0.0461826,-0.145862,0.285753
-0.0393991,0.110788,2.70339,1.06266,-0.361216,0.479032,-0.0956945,-0.12096,0.289683
-0.0480745,0.134883,2.71276,1.38427,-0.397905,0.331841,-0.142413,-0.0656138,0.285961
-0.0565207,0.165924,2.71945,1.71477,-0.319244,0.166012,-0.0917156,-0.0325139,0.289135
-0.0621552,0.202021,2.72393,1.85861,-0.148479,0.0698475,-0.0509034,0.00109504,0.266697
-0.0638461,0.239298,2.72729,1.84471,0.0611181,0.0242979,-0.0427821,0.0465756,0.183194
-0.0610934,0.275151,2.72992,1.70372,0.251066,0.0140895,-0.0061979,0.0433899,0.0230736
-0.0577049,0.306245,2.73249,1.37543,0.109891,0.0616049,0.07919,-0.0358457,-0.115757
-0.0587171,0.330037,2.73691,1.03227,-0.0507563,0.244292,0.108327,-0.0639226,-0.177594
-0.0640022,0.348611,2.7462,0.891361,-0.171909,0.507923,0.0376809,-0.0192469,-0.276233
-0.0744986,0.365247,2.75946,0.842465,-0.442729,0.542973,-0.0587911,-0.018156,-0.421064
-0.0908173,0.380102,2.76786,0.655289,-0.909794,0.026284,-0.100625,-0.0472586,-0.586629
-0.109773,0.391223,2.76115,0.394643,-1.11445,-0.733688,-0.00208748,-0.102644,-0.595815
-0.120542,0.400154,2.74088,0.29064,-0.679367,-1.14105,0.00151341,-0.0712244,-0.435536
-0.11884,0.408759,2.71624,0.29721,-0.108079,-1.14672,-0.0444205,0.0437571,-0.304693
-0.107229,0.417054,2.69394,0.274842,0.3288,-0.954573,-0.0800673,0.109308,-0.145698
-0.0907131,0.423266,2.67553,0.179093,0.522513,-0.760216,-0.0801405,0.118351,-0.0135204
-0.0746724,0.427524,2.66239,0.134858,0.493583,-0.478221,-0.0702341,0.105659,0.078602
-0.0612573,0.430553,2.65215,0.136007,0.47436,-0.493258,0.00108168,0.116654,0.163927
-0.0474461,0.434714,2.64118,0.199706,0.349538,-0.522507,-0.0207341,0.127542,0.288721
-0.0474461,0.434714,2.64118,0.199706,0.349538,-0.522507,-0.0207341,0.127542,0.288721
-0.0381388,0.43856,2.6276,0.116051,0.050971,-0.734443,-0.0285128,0.150145,0.294782
-0.0299642,0.439985,2.60886,-0.0590984,-0.050735,-0.937339,-0.0215234,0.169151,0.431497
-0.0235941,0.43687,2.58787,-0.295147,-0.182821,-0.892623,0.0115648,0.184489,0.472646
-0.0202459,0.42951,2.57082,-0.477949,-0.164664,-0.621583,0.00777036,0.158476,0.515688
-0.0152317,0.418464,2.5593,-0.626989,0.21382,-0.413321,-0.0692282,0.164353,0.518894
-0.00224013,0.403966,2.55073,-0.825884,0.838247,-0.389703,-0.106857,0.15764,0.440595
0.0209201,0.386742,2.54146,-0.833334,0.885341,-0.464747,0.00220237,0.0882787,0.319113
0.0351961,0.371303,2.53077,-0.65768,0.145287,-0.61011,0.0928653,0.0315925,0.0210761
0.0391832,0.35936,2.51679,-0.548879,-0.192118,-0.708214,0.0922202,0.0858363,0.0181063
0.0352181,0.343447,2.50177,-1.07846,-0.732742,-0.775838,-0.0134401,0.0525092,-0.0602508
0.0226152,0.31201,2.48485,-2.00555,-1.00456,-0.875439,-0.0291661,0.0386772,-0.18828
0.00934451,0.265561,2.46849,-2.43195,-0.686091,-0.720963,0.0415814,-0.146943,-0.316881
0.00458639,0.220438,2.45621,-1.93257,-0.137619,-0.488306,0.0767472,-0.190858,-0.391228
0.00737146,0.191032,2.44968,-0.96481,0.272964,-0.128241,0.109462,-0.109261,-0.334853
0.0149485,0.180175,2.45226,-0.188819,0.498168,0.377159,0.11214,-0.115248,-0.181855
0.0239829,0.180466,2.46466,0.126488,0.623001,0.80479,0.088912,-0.153321,-0.0137456
0.0345528,0.183858,2.48325,0.123406,0.751192,0.979026,0.048327,-0.170341,0.145431
0.0461218,0.185786,2.50298,-0.0210838,0.703529,0.932666,0.00629321,-0.182392,0.238842
0.0539836,0.184782,2.52115,-0.154297,0.397629,0.840769,-0.0258781,-0.193069,0.247963
0.0561554,0.183016,2.53784,-0.0674584,0.1468,0.788113,-0.0669225,-0.173579,0.233535
0.0553057,0.185635,2.55381,0.262056,0.0972087,0.788078,-0.0815037,-0.0881197,0.227304
0.054481,0.194791,2.56898,0.520414,0.0982467,0.708666,-0.0740236,0.0166812,0.219028
0.0542326,0.205264,2.58017,0.394605,0.0626219,0.424149,-0.0652903,0.0824874,0.150954
0.0501307,0.209909,2.58628,0.0331138,-0.382395,0.235866,0.0263382,0.069287,-0.0115211
0.0361973,0.208266,2.59215,-0.184769,-0.877803,0.356878,0.103921,0.0615612,-0.103564
0.0119659,0.204682,2.60072,-0.151377,-1.34072,0.431619,0.037265,0.198724,-0.215418
-0.0191295,0.203465,2.60745,0.0229043,-1.58578,0.162555,-0.1106,0.328132,-0.384973
-0.0525342,0.20438,2.60578,0.0300701,-1.76859,-0.340881,-0.179372,0.265704,-0.543328
-0.085618,0.20572,2.59434,0.0499033,-1.68618,-0.743934,-0.0257104,0.0647764,-0.567854
-0.112881,0.209573,2.57725,0.166691,-1.35222,-0.909343,0.0539635,0.0564462,-0.4476
-0.132235,0.215796,2.55999,0.218583,-0.931854,-0.789678,0.0561443,0.115339,-0.280836
-0.143865,0.221442,2.54719,0.153826,-0.475226,-0.517587,-0.00804995,0.10869,-0.158856
-0.145236,0.224961,2.53908,0.0869168,0.172061,-0.336158,-0.035938,0.0856321,-0.00318772
-0.133931,0.227871,2.53312,0.138856,0.80149,-0.285282,-0.0119493,0.0762153,0.148699
-0.112668,0.232283,2.52809,0.223598,1.12708,-0.25374,0.0190326,0.08724,0.289315
-0.0894527,0.237027,2.52364,0.188683,1.03991,-0.215628,0.0135325,0.0926319,0.338546
-0.0687629,0.240883,2.51986,0.192395,0.963639,-0.183465,-0.0220506,0.0339706,0.309745
-0.0483007,0.24727,2.51637,0.452745,0.985991,-0.185347,-0.0506597,-0.0292137,0.190621
-0.028422,0.259684,2.51379,0.753613,0.918482,-0.079982,0.0795589,-0.0776821,0.134172
-0.013096,0.275531,2.5156,0.749466,0.594088,0.236059,0.178724,-0.207938,0.119791
-0.00728322,0.286991,2.52312,0.346308,0.236005,0.41907,0.164822,-0.288816,0.0838914
-0.0076968,0.287641,2.53045,-0.308551,-0.12981,0.225312,0.00324543,-0.216447,0.0415596
-0.0170684,0.273277,2.53051,-1.1276,-0.767563,-0.241753,-0.233947,-0.154733,-0.213976
-0.0310243,0.243839,2.51839,-1.7732,-0.833247,-0.842852,-0.236378,-0.192912,-0.266697
-0.0392393,0.20664,2.49546,-1.9124,-0.421732,-1.18718,-0.117138,-0.209744,-0.297006
-0.0354008,0.171682,2.46906,-1.62351,0.332918,-1.19805,-0.0278862,-0.143705,-0.242262
-0.0174186,0.143347,2.44694,-1.26415,1.09105,-0.843743,0.0353971,-0.112042,-0.0848543
0.0117045,0.120945,2.43492,-0.984903,1.58224,-0.329607,0.0563135,-0.144883,0.0973328
0.0451084,0.103288,2.43348,-0.774524,1.65863,0.125498,0.0317159,-0.151076,0.220786
0.0451084,0.103288,2.43348,-0.774524,1.65863,0.125498,0.0317159,-0.151076,0.220786
0.0753516,0.0902344,2.44094,-0.562086,1.35212,0.513119,-0.0166854,-0.147437,0.291598
0.0943704,0.0826436,2.45474,-0.290218,0.614914,0.761672,-0.0936646,-0.128647,0.260219
0.0980042,0.0825241,2.47148,0.141101,-0.0684754,0.870035,-0.126735,-0.121686,0.23095
0.0904864,0.0915519,2.4886,0.571242,-0.495174,0.893894,-0.112873,-0.0896673,0.251244
0.0772824,0.106829,2.50476,0.748732,-0.587907,0.809563,-0.0662367,-0.022998,0.247343
0.0672853,0.121205,2.5182,0.516211,-0.188338,0.594761,-0.0624535,0.0488255,0.234253
0.0665261,0.12688,2.52752,-0.0249736,0.139844,0.392403,-0.0429476,0.0365126,0.14176
0.0672196,0.123522,2.53609,-0.275385,-0.0325975,0.465405,0.0598077,-0.111472,-0.0880463
0.0584116,0.122138,2.54676,0.194246,-0.789558,0.534381,0.124048,-0.180839,-0.36249
0.0354268,0.136427,2.55447,1.20143,-1.25803,0.216863,-0.0224102,0.0104551,-0.548671
0.0111969,0.166644,2.55214,1.65203,-1.1764,-0.37626,-0.140924,0.156292,-0.441161
-0.0100255,0.196884,2.54002,1.26722,-1.14356,-0.749796,-0.0925853,0.109799,-0.304097
-0.0273415,0.216266,2.52374,0.639282,-0.866032,-0.836425,0.005339,0.040893,-0.135033
-0.0367607,0.224924,2.50709,0.212846,-0.433861,-0.802602,0.0318137,0.0350444,-0.0606071
-0.0370658,0.228182,2.49021,0.101475,0.0572433,-0.877441,-0.0423486,0.0701252,-0.0797668
-0.0248004,0.23195,2.46931,0.220312,0.691394,-1.18923,-0.140814,0.0917069,-0.00939423
0.000184123,0.237606,2.44132,0.285183,1.0673,-1.49005,-0.144985,0.0841615,0.115596
0.0283132,0.242485,2.40982,0.240619,0.911681,-1.4992,-0.00695809,0.0260195,0.165469
0.0501466,0.245991,2.38015,0.228426,0.55182,-1.33662,0.0984018,0.00085707,0.134632
0.0652964,0.24946,2.35437,0.250577,0.365255,-1.10399,0.115649,0.0234156,0.127931
0.0783986,0.252288,2.33434,0.133458,0.504273,-0.795028,0.0525943,0.0384689,0.127158
0.0943009,0.250593,2.32102,-0.225115,0.663,-0.506807,0.0183381,-9.88096e-05,0.102385
0.104608,0.240938,2.31342,-0.630383,0.0583196,-0.352868,0.104715,-0.105472,-0.101653
0.098648,0.226961,2.30692,-0.580764,-0.702049,-0.464613,0.14151,-0.135106,-0.34627
0.0870568,0.219666,2.2956,0.00424399,-0.544302,-0.666806,0.0387692,-0.0811076,-0.469101
0.0846406,0.225099,2.28249,0.597245,0.019603,-0.481599,-0.039499,-0.0373258,-0.481812
0.0903362,0.239704,2.27543,0.837296,0.277518,-0.107393,-0.0805233,-0.0182307,-0.413122
0.0943134,0.254828,2.27146,0.629863,-0.0168172,-0.230465,-0.138053,0.104038,-0.390659
0.0938465,0.262085,2.26105,0.162739,-0.250541,-0.70814,-0.164178,0.119462,-0.302421
0.095082,0.259285,2.2426,-0.239323,-0.0111043,-1.04074,-0.149611,0.0736351,-0.203716
0.107012,0.250513,2.22053,-0.387972,0.677499,-1.11637,-0.138386,0.106055,-0.0840281
0.131902,0.239871,2.20038,-0.42927,1.24687,-0.89242,-0.103432,0.136198,0.0319006
0.161705,0.22914,2.18731,-0.438325,1.33809,-0.518968,-0.0859924,0.0807933,0.0599273
0.1859,0.220128,2.18114,-0.315687,0.838826,-0.247773,-0.0713926,0.0215463,0.0230358
0.196002,0.21583,2.17788,-0.0278261,0.114857,-0.185808,-0.0951378,0.000580579,-0.0183135
0.193709,0.217477,2.17278,0.266188,-0.389285,-0.279813,-0.178825,0.0279464,-0.0187157
0.18787,0.222901,2.16481,0.360521,-0.247521,-0.375533,-0.220018,0.0482084,0.0368657
0.190614,0.229235,2.15494,0.496838,0.268023,-0.434498,-0.280606,0.0478047,0.0797527
0.198579,0.2395,2.14397,0.706743,0.165413,-0.396574,-0.218913,0.0593607,0.0449407
0.198247,0.250804,2.1337,0.514137,-0.41195,-0.376291,-0.0983361,-0.0694595,0.0271625
0.191461,0.25518,2.1226,0.0938458,-0.469917,-0.64015,-0.136829,-0.110327,0.159165
0.188998,0.248916,2.10567,-0.391003,-0.137893,-1.03938,-0.242158,0.0148624,0.216341
0.194801,0.234783,2.08546,-0.575957,0.0963328,-1.09554,-0.247724,0.0178183,0.27552
0.194401,0.219114,2.0675,-0.585557,-0.599605,-0.88256,-0.0845257,-0.0364799,0.100267
