rotationRate_x,rotationRate_y,rotationRate_z,acceleration_x,acceleration_y,acceleration_z,relativeAltitude,altitude_pressure
0.0223475,0.807709,0.0160645,0.00662217,-0.154374,0.114557,0.001,0.0001
0.122135,0.649187,-0.0315427,0.0307201,-0.17802,0.18598,0.001,0.0001
0.228141,0.408675,-0.115416,0.0314233,-0.153607,0.230488,0.001,0.0001
0.24903,0.217014,-0.19909,0.0342268,-0.111832,0.26112,0.001,0.0001
0.122179,0.0513568,-0.230383,0.053693,-0.0573939,0.29422,0.001,0.0001
-0.0565337,-0.104333,-0.160913,0.0895257,-0.00771159,0.281706,0.001,0.0001
-0.148585,-0.202451,-0.0120185,0.109558,0.0339163,0.218544,0.001,0.0001
-0.145094,-0.217452,0.151519,0.102226,0.0670618,0.15215,0.001,0.0001
-0.0322356,-0.155366,0.34333,0.0879346,0.0960056,0.101923,0.001,0.0001
0.160683,-0.00152384,0.522458,0.0562822,0.123165,0.0889127,0.001,0.0001
0.377352,0.286175,0.664128,0.0253974,0.137805,0.123648,0.001,0.0001
0.420126,0.495742,0.723159,0.000328869,0.137272,0.227024,0.001,0.0001
0.315162,0.550269,0.741291,8.83788e-05,0.115275,0.319142,0.001,0.0001
0.22372,0.500729,0.75469,0.00663158,0.0993934,0.355288,0.001,0.0001
0.205279,0.307618,0.742506,0.000176474,0.0877038,0.345581,0.001,0.0001
0.264786,0.0402134,0.722676,0.00275962,0.0810806,0.302102,0.001,0.0001
0.332744,-0.0744796,0.68929,-0.00887325,0.0996976,0.23672,0.001,0.0001
0.337446,0.0658479,0.65993,-0.0341717,0.118731,0.176013,0.001,0.0001
0.253294,0.291442,0.655707,-0.0424972,0.12357,0.128304,0.001,0.0001
0.124582,0.618878,0.641923,-0.0457523,0.0881549,0.058453,0.001,0.0001
-0.0622913,0.798076,0.580746,-0.0505583,0.0216424,-0.00466639,0.001,0.0001
-0.255221,0.367974,0.444914,-0.0307072,-0.0639214,-0.0976208,0.001,0.0001
-0.266496,-0.361613,0.261672,-0.00243668,-0.102219,-0.284291,0.001,0.0001
-0.297317,-0.918379,0.119888,0.0307665,-0.0918421,-0.473709,0.001,0.0001
-0.41546,-0.803842,0.0561009,0.0455835,-0.0702957,-0.646639,0.001,0.0001
-0.495356,-0.329845,-0.0395601,0.0315295,-0.0418217,-0.768044,0.001,0.0001
-0.545236,0.083778,-0.129476,0.0316156,-0.019601,-0.757051,0.001,0.0001
-0.548477,0.288278,-0.113194,0.0630562,0.00695652,-0.660165,0.001,0.0001
-0.441024,0.408213,-0.0161774,0.0829854,0.0195463,-0.545857,0.001,0.0001
-0.255448,0.400004,0.0617489,0.0824935,0.0124573,-0.398549,0.001,0.0001
-0.119763,0.375246,0.0983085,0.0707598,-0.00550401,-0.235839,0.001,0.0001
-0.00561102,0.460525,0.12515,0.0624351,-0.0117277,-0.0863715,0.001,0.0001
0.123432,0.567562,0.115199,0.0424779,0.00422156,0.0657895,0.001,0.0001
0.214825,0.574079,0.107977,0.0269402,0.023858,0.221085,0.001,0.0001
0.239394,0.477121,0.193031,0.0359051,0.0446565,0.34467,0.001,0.0001
0.308964,0.212466,0.265809,0.0262818,0.0476464,0.402155,0.001,0.0001
0.44895,-0.0912946,0.314195,0.00297299,0.0627269,0.427936,0.001,0.0001
0.537787,-0.364867,0.340408,-0.0271519,0.0649353,0.449375,0.001,0.0001
0.516996,-0.196427,0.354927,-0.0797596,0.0966339,0.431773,0.001,0.0001
0.531011,0.0828673,0.32298,-0.117243,0.100718,0.402091,0.001,0.0001
0.570302,0.0676108,0.200356,-0.18403,0.125783,0.361217,0.001,0.0001
0.663223,0.0703986,-0.0111325,-0.209719,0.123797,0.305145,0.001,0.0001
0.814525,-0.0569914,-0.277113,-0.206372,0.143102,0.260814,0.001,0.0001
0.966884,-0.175838,-0.482768,-0.176666,0.202163,0.213211,0.001,0.0001
0.940625,-0.242608,-0.574181,-0.165965,0.2652,0.198641,0.001,0.0001
0.739781,-0.165304,-0.606369,-0.171333,0.295001,0.180483,0.001,0.0001
0.438363,-0.0481139,-0.643726,-0.171243,0.283042,0.13328,0.001,0.0001
0.077429,0.014931,-0.859178,-0.215722,0.289563,0.0517036,0.001,0.0001
-0.336477,0.0814634,-1.19595,-0.219299,0.291712,-0.02805,0.001,0.0001
-0.827218,-0.0300095,-1.51321,-0.178627,0.308682,-0.121299,0.001,0.0001
-1.36617,-0.0564568,-1.60791,-0.109761,0.346,-0.215196,0.001,0.0001
-1.36617,-0.0564568,-1.60791,-0.109761,0.346,-0.215196,-0.0290527,0.000335693
-1.80481,-0.120941,-1.46974,-0.0572474,0.337187,-0.331809,-0.0290527,0.000335693
-2.05414,-0.279168,-1.31309,-0.0424863,0.277752,-0.46028,-0.0290527,0.000335693
-2.13345,-0.641205,-1.10297,0.0319373,0.153073,-0.574474,-0.0290527,0.000335693
-1.97417,-0.999325,-0.860936,0.0671918,0.0492088,-0.705113,-0.0290527,0.000335693
-1.68312,-1.13649,-0.547157,0.0843753,-0.0221916,-0.774648,-0.0290527,0.000335693
-1.36398,-1.19418,-0.19558,0.0728131,-0.0866952,-0.748992,-0.0290527,0.000335693
-1.07461,-1.12465,-0.0315997,0.0183495,-0.172841,-0.670562,-0.0290527,0.000335693
-0.849623,-0.823655,-0.0638439,-0.0265368,-0.269222,-0.568584,-0.0290527,0.000335693
-0.718352,-0.394772,-0.196176,-0.0200384,-0.342696,-0.426255,-0.0290527,0.000335693
-0.530597,-0.0483391,-0.310754,0.0205173,-0.35667,-0.279796,-0.0290527,0.000335693
-0.246174,0.15256,-0.336259,0.0595921,-0.334331,-0.128077,-0.0290527,0.000335693
0.0561711,0.149195,-0.275742,0.101997,-0.302558,0.0275787,-0.0290527,0.000335693
0.307472,0.0568973,-0.178838,0.124554,-0.271983,0.162469,-0.0290527,0.000335693
0.489968,-0.102734,-0.0909862,0.134091,-0.248754,0.276451,-0.0290527,0.000335693
0.58385,-0.359164,-0.0233607,0.157135,-0.227084,0.363313,-0.0290527,0.000335693
0.578681,-0.594782,0.0266453,0.177166,-0.201071,0.409767,-0.0290527,0.000335693
0.467512,-0.670661,0.0884501,0.18335,-0.163567,0.424672,-0.0290527,0.000335693
0.38057,-0.586075,0.134582,0.187037,-0.146116,0.387284,-0.0290527,0.000335693
0.349178,-0.373017,0.164946,0.191911,-0.123364,0.335115,-0.0290527,0.000335693
0.211856,-0.153586,0.202669,0.193337,-0.0982281,0.331221,-0.0290527,0.000335693
-0.0600943,0.0619575,0.231547,0.173332,-0.0752142,0.318436,-0.0290527,0.000335693
-0.317402,0.144473,0.264322,0.131247,-0.04296,0.264171,-0.0290527,0.000335693
-0.387283,0.0114778,0.384321,0.125737,-0.0110557,0.161097,-0.0290527,0.000335693
-0.150536,-0.128963,0.568205,0.133627,0.0186175,0.0267082,-0.0290527,0.000335693
0.306497,-0.0610824,0.769636,0.135046,0.0570413,-0.0690297,-0.0290527,0.000335693
0.727555,0.193551,0.971374,0.135217,0.0885178,-0.0795368,-0.0290527,0.000335693
0.962008,0.385128,1.13327,0.10417,0.128548,-0.045564,-0.0290527,0.000335693
1.04684,0.51956,1.31742,0.0641462,0.196387,0.00492394,-0.0290527,0.000335693
1.03049,0.633924,1.50185,0.0183621,0.224931,0.026599,-0.0290527,0.000335693
0.989446,0.942301,1.55105,-0.0516794,0.157306,-0.00156111,-0.0290527,0.000335693
0.761034,1.15817,1.4646,-0.103903,0.0597297,0.00750899,-0.0290527,0.000335693
0.387461,1.01458,1.33648,-0.113651,-0.0421158,0.026107,-0.0290527,0.000335693
0.0616406,0.479239,1.10682,-0.135409,-0.10822,-0.0210127,-0.0290527,0.000335693
-0.149347,-0.0847231,0.745837,-0.159561,-0.140463,-0.15227,-0.0290527,0.000335693
-0.259925,-0.177104,0.517154,-0.135213,-0.129199,-0.286601,-0.0290527,0.000335693
-0.343675,-0.275248,0.421428,-0.073058,-0.093981,-0.336235,-0.0290527,0.000335693
-0.593803,-0.571305,0.251652,-0.114288,-0.0513374,-0.350359,-0.0290527,0.000335693
-1.02206,-0.654579,0.0606304,-0.166967,-0.0383857,-0.40703,-0.0290527,0.000335693
-1.25964,-0.259729,-0.0886956,-0.152103,-0.066246,-0.517986,-0.0290527,0.000335693
-0.957884,0.397831,-0.0747299,-0.0871452,-0.0395794,-0.585223,-0.0290527,0.000335693
-0.361223,1.0022,0.0773412,-0.0067227,0.0287135,-0.460823,-0.0290527,0.000335693
0.0495967,1.34512,0.207556,0.0322204,0.0468239,-0.191858,-0.0290527,0.000335693
0.0609479,1.47126,0.19863,0.0100602,0.0202566,0.0965558,-0.0290527,0.000335693
-0.0598856,1.39151,0.0663015,-0.0263363,-0.00110582,0.271063,-0.0290527,0.000335693
-0.0196856,1.26129,-0.18501,-0.00968541,-0.0393218,0.325145,-0.0290527,0.000335693
0.0935977,0.97039,-0.389598,0.0640088,-0.0466834,0.361392,-0.0290527,0.000335693
0.131847,0.648868,-0.377675,0.149609,-0.0168559,0.399074,-0.0290527,0.000335693
0.066135,0.426784,-0.172756,0.187378,0.0281382,0.414667,-0.0290527,0.000335693
-0.0391178,0.341331,0.114871,0.187435,0.0457073,0.389105,-0.0290527,0.000335693
-0.128021,0.195989,0.29814,0.152462,0.00813103,0.332161,-0.0290527,0.000335693
-0.204177,0.136057,0.335196,0.109823,-0.0454989,0.239527,-0.0290527,0.000335693
-0.204177,0.136057,0.335196,0.109823,-0.0454989,0.239527,-0.0264282,0.000335693
-0.367664,-0.136012,0.296597,0.0676187,-0.0755752,0.186416,-0.0264282,0.000335693
-0.543838,-0.627159,0.200905,0.0164156,-0.09546,0.0813931,-0.0264282,0.000335693
-0.528875,-1.17083,0.0646284,-0.018016,-0.0721116,-0.105466,-0.0264282,0.000335693
-0.189115,-1.39807,0.049693,0.00159721,-0.0490143,-0.329674,-0.0264282,0.000335693
0.399576,-0.881028,0.137075,-0.00785021,-0.0103579,-0.466867,-0.0264282,0.000335693
0.900851,-0.109077,0.27742,-0.0344101,0.0548821,-0.367888,-0.0264282,0.000335693
1.07184,0.407405,0.400193,-0.030813,0.0820394,-0.0988314,-0.0264282,0.000335693
0.976365,0.594679,0.371882,-0.0581825,0.0652022,0.164353,-0.0264282,0.000335693
0.811628,0.603507,0.278073,-0.0718062,0.0497393,0.327719,-0.0264282,0.000335693
0.726245,0.480921,0.176454,-0.0809236,0.0534688,0.40464,-0.0264282,0.000335693
0.681193,0.249161,0.0432679,-0.0877593,0.0560485,0.447473,-0.0264282,0.000335693
0.573862,-0.0646162,-0.0686169,-0.0637115,0.0688915,0.485094,-0.0264282,0.000335693
0.402039,-0.371555,-0.106436,-0.023254,0.0875102,0.48948,-0.0264282,0.000335693
0.251952,-0.575086,-0.113293,0.000208922,0.0937353,0.421661,-0.0264282,0.000335693
0.205894,-0.413556,-0.104584,-0.00664707,0.108139,0.291536,-0.0264282,0.000335693
0.120088,-0.119809,-0.0448749,0.00982525,0.0982165,0.176591,-0.0264282,0.000335693
0.0277954,0.261796,0.0686027,0.0482956,0.0561856,0.0361273,-0.0264282,0.000335693
-0.0483065,0.500515,0.164017,0.0843584,0.00426212,-0.0822592,-0.0264282,0.000335693
-0.119747,0.481185,0.162844,0.0775511,-0.0443022,-0.175772,-0.0264282,0.000335693
-0.410383,-0.0613415,-0.00488201,0.00268608,-0.0763907,-0.22979,-0.0264282,0.000335693
-0.777806,-0.969988,-0.290387,-0.0812974,-0.104261,-0.389185,-0.0264282,0.000335693
-0.821833,-1.44522,-0.51295,-0.0787226,-0.0958902,-0.671634,-0.0264282,0.000335693
-0.478534,-1.24468,-0.567651,-0.0560756,-0.0203519,-0.911831,-0.0264282,0.000335693
-0.0902982,-0.526227,-0.336295,-0.0159503,0.048988,-0.918371,-0.0264282,0.000335693
0.0970405,0.112041,0.0146591,0.00281277,0.0487963,-0.71781,-0.0264282,0.000335693
0.02176,0.355747,0.214852,-0.0112866,-0.034714,-0.457979,-0.0264282,0.000335693
-0.134968,0.359742,0.168568,-0.0730998,-0.133449,-0.27703,-0.0264282,0.000335693
-0.186661,0.355016,-0.0441225,-0.163167,-0.182368,-0.190723,-0.0264282,0.000335693
-0.0673006,0.385278,-0.285377,-0.201156,-0.171283,-0.136849,-0.0264282,0.000335693
0.0828196,0.321266,-0.410829,-0.151917,-0.139258,-0.048792,-0.0264282,0.000335693
0.185769,0.271418,-0.405846,-0.102311,-0.088762,0.0486436,-0.0264282,0.000335693
0.263772,0.327166,-0.327834,-0.0769054,-0.0373493,0.131104,-0.0264282,0.000335693
0.358158,0.437918,-0.228494,-0.0779916,0.00171311,0.217693,-0.0264282,0.000335693
0.430575,0.538598,-0.129576,-0.0994391,0.0465624,0.312818,-0.0264282,0.000335693
0.471653,0.535015,-0.0375038,-0.122545,0.0703452,0.403995,-0.0264282,0.000335693
0.452152,0.329143,-0.00314783,-0.155664,0.0795443,0.486488,-0.0264282,0.000335693
0.388634,0.0532666,-0.0202881,-0.168135,0.0716382,0.529312,-0.0264282,0.000335693
0.348161,-0.142307,-0.0320951,-0.153451,0.0692881,0.520775,-0.0264282,0.000335693
0.350005,-0.210179,-0.0593502,-0.161001,0.0858212,0.488665,-0.0264282,0.000335693
0.401833,-0.138104,-0.0968532,-0.151665,0.0918167,0.457466,-0.0264282,0.000335693
0.431509,-0.0420013,-0.114059,-0.130933,0.100102,0.460657,-0.0264282,0.000335693
0.394118,-0.0179388,-0.0882728,-0.0930694,0.104917,0.473787,-0.0264282,0.000335693
0.411512,-0.0918662,-0.0128418,-0.0568825,0.105798,0.449621,-0.0264282,0.000335693
0.486832,-0.243588,0.0579017,-0.0384466,0.113762,0.408781,-0.0264282,0.000335693
0.505019,-0.424506,0.132008,-0.0199641,0.116403,0.359964,-0.0264282,0.000335693
0.469447,-0.409652,0.180228,-0.00203273,0.0940487,0.276268,-0.0264282,0.000335693
0.310652,-0.319167,0.227926,0.0540085,0.0400024,0.188156,-0.0264282,0.000335693
-0.0981081,-0.225247,0.246408,0.0950377,-0.0209231,0.127784,-0.0264282,0.000335693
-0.749064,-0.389793,0.151139,0.0757807,-0.0879125,0.0645207,-0.0264282,0.000335693
-1.54896,-1.07229,-0.289161,-0.0250955,-0.158537,-0.110116,-0.0264282,0.000335693
-1.54896,-1.07229,-0.289161,-0.0250955,-0.158537,-0.110116,-0.184967,0.00218964
-2.13718,-2.22872,-0.892208,-0.0186537,-0.226182,-0.463563,-0.184967,0.00218964
-1.87231,-2.88965,-1.24187,0.0609146,-0.145421,-1.04562,-0.184967,0.00218964
-0.77155,-2.20485,-0.999183,0.177128,0.0741844,-1.56442,-0.184967,0.00218964
0.250762,-0.437983,-0.219111,0.275557,0.218921,-1.53699,-0.184967,0.00218964
0.542966,0.895763,0.425396,0.271165,0.198102,-1.02096,-0.184967,0.00218964
0.248354,1.44126,0.608193,0.181609,0.0666672,-0.435361,-0.184967,0.00218964
-0.363919,1.22204,0.477135,0.0615073,-0.0166207,-0.00585186,-0.184967,0.00218964
-0.760924,0.643198,0.265788,-0.0163008,-0.0737652,0.141855,-0.184967,0.00218964
-0.705669,0.248899,0.0578581,-0.0755348,-0.044718,0.129169,-0.184967,0.00218964
-0.325509,0.154612,-0.0668103,-0.08467,0.000954866,0.129094,-0.184967,0.00218964
0.151286,0.374103,-0.113231,-0.0760391,0.0547198,0.205676,-0.184967,0.00218964
0.475834,0.638207,-0.045188,-0.044675,0.0927816,0.375153,-0.184967,0.00218964
0.637898,0.793746,0.110798,-0.023012,0.118113,0.552611,-0.184967,0.00218964
0.719121,0.771536,0.227581,-0.033931,0.107081,0.682743,-0.184967,0.00218964
0.724793,0.444416,0.275928,-0.0588647,0.0884576,0.761632,-0.184967,0.00218964
0.707901,0.0465069,0.209408,-0.076569,0.0639866,0.78163,-0.184967,0.00218964
0.664666,-0.135274,0.0287916,-0.0831295,0.0260416,0.748382,-0.184967,0.00218964
0.482897,-0.172205,-0.208593,-0.0809051,0.0060941,0.713095,-0.184967,0.00218964
0.182863,-0.404765,-0.354377,-0.00804152,0.00539643,0.627023,-0.184967,0.00218964
-0.11764,-0.484198,-0.384414,0.0655049,0.0242811,0.427435,-0.184967,0.00218964
-0.29299,-0.201637,-0.248429,0.141629,0.0418229,0.13354,-0.184967,0.00218964
-0.379822,-0.0293539,0.0778309,0.228465,0.0454504,-0.113004,-0.184967,0.00218964
-0.571703,-0.572194,0.330367,0.148646,0.0270682,-0.323081,-0.184967,0.00218964
-0.759971,-0.735905,0.232916,-0.07734,-0.0157354,-0.638407,-0.184967,0.00218964
-1.10679,-0.443406,-0.31075,-0.31213,-0.0585211,-0.932738,-0.184967,0.00218964
-1.69514,-0.147429,-1.07264,-0.422566,-0.0440504,-1.06282,-0.184967,0.00218964
-2.1362,-0.0718037,-1.40494,-0.318289,0.063069,-1.19674,-0.184967,0.00218964
-1.7365,0.237921,-1.26213,-0.170539,0.14847,-1.40868,-0.184967,0.00218964
-0.524788,1.0492,-0.808442,-0.0539809,0.187537,-1.41925,-0.184967,0.00218964
0.73342,1.52992,-0.151653,0.0508362,0.221014,-0.996088,-0.184967,0.00218964
1.467,1.46778,0.525182,0.0313999,0.236882,-0.411318,-0.184967,0.00218964
1.57052,0.873969,0.995976,-0.0771256,0.201911,0.0742366,-0.184967,0.00218964
1.32864,0.109329,1.04043,-0.229445,0.108039,0.335821,-0.184967,0.00218964
1.02085,-0.4812,0.645942,-0.37563,0.00814173,0.414407,-0.184967,0.00218964
0.754039,-0.928761,0.0498345,-0.422206,-0.0375591,0.404977,-0.184967,0.00218964
0.557598,-1.06144,-0.509185,-0.3673,-0.0299093,0.356382,-0.184967,0.00218964
0.385069,-0.939049,-0.896985,-0.292587,0.0365577,0.321327,-0.184967,0.00218964
0.276028,-0.599749,-1.10506,-0.211354,0.087058,0.270639,-0.184967,0.00218964
0.282834,-0.26825,-1.13958,-0.114489,0.124672,0.233861,-0.184967,0.00218964
0.382834,0.0228288,-1.09369,-0.0482358,0.130819,0.193697,-0.184967,0.00218964
0.431646,0.141546,-0.993531,-0.0176522,0.133336,0.216551,-0.184967,0.00218964
0.390975,0.175848,-0.887307,-0.011448,0.120904,0.238996,-0.184967,0.00218964
0.338769,0.188098,-0.786913,-0.00686768,0.0973045,0.231091,-0.184967,0.00218964
0.215907,0.0327492,-0.650178,0.0221745,0.0689917,0.221051,-0.184967,0.00218964
0.0677521,-0.222971,-0.50873,0.0302588,0.0118395,0.15502,-0.184967,0.00218964
-0.165437,-0.636567,-0.5071,-0.0465589,-0.040926,0.044751,-0.184967,0.00218964
-0.48264,-1.37095,-0.603261,-0.088281,-0.0914064,-0.123279,-0.184967,0.00218964
-0.460989,-1.6476,-0.792091,-0.136142,-0.10438,-0.409568,-0.184967,0.00218964
0.0114979,-1.10546,-1.03391,-0.178759,-0.0315421,-0.645578,-0.184967,0.00218964
0.568187,0.110809,-1.03101,-0.10033,0.055029,-0.591849,-0.184967,0.00218964
0.784551,1.14111,-0.871733,-0.0306688,0.127712,-0.251895,-0.184967,0.00218964
0.784551,1.14111,-0.871733,-0.0306688,0.127712,-0.251895,-0.169098,0.00198364
0.645748,1.42799,-0.653731,0.00854242,0.128261,0.130998,-0.169098,0.00198364
0.266309,1.02829,-0.461872,0.0259196,0.0585397,0.383254,-0.169098,0.00198364
-0.102099,0.0270149,-0.461602,-0.0125182,-0.0160731,0.455554,-0.169098,0.00198364
-0.268693,-1.04357,-0.662687,-0.057622,-0.0823716,0.363573,-0.169098,0.00198364
-0.315479,-1.69696,-0.90729,-0.0646344,-0.0872655,0.204369,-0.169098,0.00198364
-0.392046,-1.70987,-1.13151,-0.0369683,-0.0496432,0.0447588,-0.169098,0.00198364
-0.484606,-1.19204,-1.28869,0.0135979,-0.013781,-0.0861019,-0.169098,0.00198364
-0.58072,-0.60615,-1.26097,0.091439,0.0193237,-0.154662,-0.169098,0.00198364
-0.547074,-0.114604,-1.09363,0.159463,0.0306666,-0.184043,-0.169098,0.00198364
-0.387674,0.171136,-0.913798,0.182908,0.0204521,-0.173858,-0.169098,0.00198364
-0.101699,0.297109,-0.729521,0.172055,0.00876075,-0.147806,-0.169098,0.00198364
0.162138,0.173728,-0.5901,0.145127,-0.00393108,-0.0636278,-0.169098,0.00198364
0.320418,-0.0550757,-0.501606,0.1271,-0.0205344,0.0217189,-0.169098,0.00198364
0.32045,-0.261486,-0.444315,0.107836,-0.0207403,0.0953685,-0.169098,0.00198364
0.16359,-0.379962,-0.470567,0.0711114,-0.037274,0.136306,-0.169098,0.00198364
0.00604736,-0.332078,-0.598767,0.0171125,-0.0593323,0.109971,-0.169098,0.00198364
-0.0879833,-0.219266,-0.751707,-0.0158445,-0.0487449,0.0767173,-0.169098,0.00198364
-0.11045,-0.137088,-0.890025,-0.0233738,-0.04316,0.055413,-0.169098,0.00198364
-0.088946,-0.0732491,-0.996196,-0.000918254,-0.0296743,0.0607019,-0.169098,0.00198364
-0.109428,-0.091915,-1.00069,0.0389234,-0.00526878,0.0962882,-0.169098,0.00198364
-0.135918,-0.149966,-0.961441,0.0591621,0.00931653,0.114349,-0.169098,0.00198364
-0.166385,-0.172291,-0.884868,0.0731391,0.014099,0.116895,-0.169098,0.00198364
-0.195589,-0.240352,-0.843012,0.0615512,0.000721633,0.109169,-0.169098,0.00198364
-0.184832,-0.267439,-0.868991,0.0482339,-0.0254822,0.0697947,-0.169098,0.00198364
-0.161011,-0.221618,-0.841675,0.0587029,-0.0224859,0.0536401,-0.169098,0.00198364
-0.122402,-0.189895,-0.753067,0.0743646,-0.0147201,0.0550681,-0.169098,0.00198364
-0.0328404,-0.166057,-0.63823,0.0844153,-0.0250534,0.0585935,-0.169098,0.00198364
0.108178,-0.0901612,-0.533365,0.0646265,-0.0347573,0.0772738,-0.169098,0.00198364
0.20071,-0.0303218,-0.476872,0.0395443,-0.059139,0.137219,-0.169098,0.00198364
0.227663,0.00911784,-0.474537,0.0238449,-0.0878839,0.211852,-0.169098,0.00198364
0.225463,0.0312072,-0.473399,0.0122605,-0.101005,0.282154,-0.169098,0.00198364
0.209705,0.0171654,-0.518587,-0.0146711,-0.117351,0.330727,-0.169098,0.00198364
0.165296,-0.050869,-0.605942,-0.0251451,-0.138655,0.360587,-0.169098,0.00198364
0.126344,-0.169968,-0.697877,-0.0201142,-0.149842,0.364804,-0.169098,0.00198364
0.0980641,-0.301114,-0.756712,-0.00491811,-0.141312,0.326015,-0.169098,0.00198364
0.134572,-0.164835,-0.768737,0.0319548,-0.156703,0.229035,-0.169098,0.00198364
0.149023,0.224883,-0.752632,0.066313,-0.183787,0.109316,-0.169098,0.00198364
0.118277,0.697367,-0.670947,0.103111,-0.227344,-0.00368291,-0.169098,0.00198364
0.115576,0.595599,-0.530385,0.148648,-0.276249,-0.104274,-0.169098,0.00198364
0.051014,-0.468453,-0.401779,0.0609075,-0.218277,-0.221525,-0.169098,0.00198364
-0.133252,-1.74803,-0.559259,-0.164771,-0.151431,-0.473851,-0.169098,0.00198364
-0.155427,-2.25098,-1.10205,-0.349447,-0.100218,-0.823833,-0.169098,0.00198364
-0.0145611,-1.90834,-1.6778,-0.398224,0.041916,-1.07932,-0.169098,0.00198364
0.199121,-0.695124,-1.75038,-0.296901,0.251946,-1.12588,-0.169098,0.00198364
0.38087,0.651815,-1.29843,-0.179262,0.41388,-0.918033,-0.169098,0.00198364
0.486693,1.23983,-0.713194,-0.113066,0.424182,-0.548044,-0.169098,0.00198364
0.51807,0.857945,-0.298586,-0.132451,0.320735,-0.200483,-0.169098,0.00198364
0.431922,-0.00442612,-0.172948,-0.187323,0.190084,0.0343198,-0.169098,0.00198364
0.254258,-0.705584,-0.362563,-0.258462,0.0945227,0.132511,-0.169098,0.00198364
0.0147866,-0.816125,-0.69108,-0.291767,0.0335173,0.157084,-0.169098,0.00198364
-0.233934,-0.535132,-1.00161,-0.269366,0.0393868,0.173799,-0.169098,0.00198364
-0.399098,-0.13965,-1.17283,-0.192999,0.0609082,0.203731,-0.169098,0.00198364
-0.416707,0.152055,-1.20224,-0.120865,0.0813382,0.246304,-0.169098,0.00198364
-0.322881,0.347164,-1.12736,-0.064429,0.087411,0.305554,-0.169098,0.00198364
-0.198835,0.332824,-0.986095,-0.0222228,0.0838622,0.377771,-0.169098,0.00198364
-0.0695994,0.279811,-0.778891,0.012491,0.0667348,0.438181,-0.169098,0.00198364
0.0186851,0.157955,-0.612318,0.0152154,0.0397649,0.482236,-0.169098,0.00198364
0.0814092,0.0878504,-0.535771,0.0237374,-0.0136952,0.471689,-0.169098,0.00198364
0.0202975,0.056332,-0.489918,0.0367338,-0.0527036,0.445132,-0.169098,0.00198364
-0.142077,0.0117547,-0.44199,0.0490878,-0.097319,0.378013,-0.169098,0.00198364
-0.305962,-0.283552,-0.428203,0.0607235,-0.153217,0.250828,-0.169098,0.00198364
-0.2941,-0.670977,-0.4145,0.0640572,-0.176339,0.0335147,-0.169098,0.00198364
-0.0613547,-0.93086,-0.354671,0.0608352,-0.156224,-0.202011,-0.169098,0.00198364
0.0966502,-1.04788,-0.385179,0.0201824,-0.157773,-0.361085,-0.169098,0.00198364
0.238501,-0.765229,-0.557825,-0.0526929,-0.162295,-0.527977,-0.169098,0.00198364
0.377836,-0.190536,-0.701846,-0.0967465,-0.10165,-0.594046,-0.169098,0.00198364
0.489202,0.508543,-0.682083,-0.0778102,-0.0659578,-0.541705,-0.169098,0.00198364
0.482861,0.840135,-0.642664,-0.072218,-0.0680049,-0.368678,-0.169098,0.00198364
0.341051,0.468609,-0.698891,-0.0920184,-0.103088,-0.190682,-0.169098,0.00198364
0.255915,-0.0666947,-0.908524,-0.144392,-0.115015,-0.145924,-0.169098,0.00198364
0.399366,-0.12448,-1.08378,-0.161388,-0.052438,-0.199585,-0.169098,0.00198364
0.689011,0.277029,-1.07552,-0.0942797,0.033255,-0.155531,-0.169098,0.00198364
0.882229,0.840978,-0.955227,-0.0420978,0.107198,0.0237427,-0.169098,0.00198364
0.802475,1.08072,-0.773549,-0.00155309,0.122103,0.270825,-0.169098,0.00198364
0.554146,0.897153,-0.554304,0.0585847,0.0740532,0.449833,-0.169098,0.00198364
0.554146,0.897153,-0.554304,0.0585847,0.0740532,0.449833,-0.198181,0.00235748
0.294509,0.418213,-0.417246,0.0960757,0.00660449,0.516367,-0.198181,0.00235748
-0.0155221,-0.321689,-0.379632,0.113177,-0.0460914,0.507414,-0.198181,0.00235748
-0.517227,-1.25289,-0.363654,0.119515,-0.0633787,0.427478,-0.198181,0.00235748
-1.13464,-2.086,-0.415786,0.0708121,-0.0324575,0.203691,-0.198181,0.00235748
-1.33528,-2.29821,-0.521994,0.0694233,-0.00857466,-0.222809,-0.198181,0.00235748
-0.899164,-1.4678,-0.522663,0.0636417,0.105574,-0.646932,-0.198181,0.00235748
-0.369819,-0.187852,-0.183066,0.116016,0.226043,-0.705253,-0.198181,0.00235748
0.00129775,0.764715,0.401891,0.196506,0.270228,-0.485462,-0.198181,0.00235748
0.263482,1.06121,0.863519,0.174639,0.239476,-0.184581,-0.198181,0.00235748
0.352821,0.86834,1.17872,0.121142,0.181528,0.0777428,-0.198181,0.00235748
0.315044,0.414585,1.32918,0.0381787,0.135879,0.259087,-0.198181,0.00235748
0.22174,-0.195132,1.3209,-0.0389912,0.0852148,0.344276,-0.198181,0.00235748
0.115472,-0.689192,1.15249,-0.104561,0.0417221,0.352459,-0.198181,0.00235748
-0.0689732,-0.929877,0.859957,-0.132451,0.00241414,0.333389,-0.198181,0.00235748
-0.311587,-0.916537,0.527825,-0.125943,-0.0183873,0.280187,-0.198181,0.00235748
-0.52402,-0.798787,0.218164,-0.0961832,-0.015046,0.206471,-0.198181,0.00235748
-0.638798,-0.654985,-0.000836355,-0.0244488,-0.00801662,0.118601,-0.198181,0.00235748
-0.575057,-0.541405,-0.123377,0.0431097,-0.00102721,0.028187,-0.198181,0.00235748
-0.317965,-0.384713,-0.175577,0.0980487,0.00420651,-0.0586538,-0.198181,0.00235748
-0.00293857,-0.284702,-0.126147,0.13244,0.0340139,-0.0641558,-0.198181,0.00235748
0.26044,-0.132602,-0.0576055,0.130036,0.052132,-0.0137643,-0.198181,0.00235748
0.418739,0.023164,-0.0421975,0.116485,0.0507181,0.0887696,-0.198181,0.00235748
0.458271,0.145686,-0.094499,0.0865126,0.045317,0.205265,-0.198181,0.00235748
0.479495,0.24893,-0.153941,0.0631173,0.0479417,0.298312,-0.198181,0.00235748
0.527798,0.2482,-0.206343,0.0416728,0.0594714,0.376549,-0.198181,0.00235748
0.606546,0.156094,-0.260277,0.0318096,0.0656087,0.430147,-0.198181,0.00235748
0.639239,-0.0511239,-0.303431,0.0312831,0.0747082,0.469875,-0.198181,0.00235748
0.641841,-0.230525,-0.316709,0.0386899,0.0811012,0.457514,-0.198181,0.00235748
0.653763,-0.337531,-0.334113,0.0405317,0.0782109,0.395655,-0.198181,0.00235748
0.538683,-0.363346,-0.321879,0.0694285,0.0675792,0.34225,-0.198181,0.00235748
0.184647,-0.293258,-0.262347,0.0884893,0.0369833,0.268415,-0.198181,0.00235748
-0.291661,-0.397009,-0.145905,0.0680734,0.00616413,0.120757,-0.198181,0.00235748
-0.680319,-0.771441,-0.0870289,-0.0598313,-0.00591847,-0.172822,-0.198181,0.00235748
-1.05024,-1.17285,-0.306599,-0.248568,-0.0730479,-0.509041,-0.198181,0.00235748
-1.27039,-1.14503,-0.855244,-0.380618,-0.113305,-0.846212,-0.198181,0.00235748
-1.32719,-0.59508,-1.21323,-0.362905,0.000674576,-1.0968,-0.198181,0.00235748
-1.19574,0.457439,-0.946134,-0.222506,0.142392,-1.19106,-0.198181,0.00235748
-0.708803,1.47999,-0.24021,-0.0613622,0.160044,-1.10732,-0.198181,0.00235748
-0.111936,1.9057,0.30964,-0.0534785,0.0753139,-0.807249,-0.198181,0.00235748
0.17136,1.62726,0.581779,-0.134032,-0.041869,-0.417296,-0.198181,0.00235748
0.158901,0.992911,0.506478,-0.259432,-0.135014,-0.12508,-0.198181,0.00235748
0.0802444,0.406435,0.173251,-0.336018,-0.211577,0.0185369,-0.198181,0.00235748
0.0703381,0.0211926,-0.289992,-0.354439,-0.220981,0.0628364,-0.198181,0.00235748
0.0855921,-0.0188734,-0.650714,-0.289773,-0.16375,0.0980123,-0.198181,0.00235748
0.0680867,0.176442,-0.804698,-0.215395,-0.0596844,0.151177,-0.198181,0.00235748
0.0961096,0.48427,-0.793378,-0.140835,0.0143836,0.204664,-0.198181,0.00235748
0.172763,0.709286,-0.691108,-0.0942352,0.0611905,0.277848,-0.198181,0.00235748
0.259629,0.718577,-0.555505,-0.072946,0.0844398,0.365377,-0.198181,0.00235748
0.307692,0.527776,-0.415294,-0.0624347,0.0919839,0.447656,-0.198181,0.00235748
0.342788,0.181673,-0.245943,-0.052287,0.102739,0.500168,-0.198181,0.00235748
0.398817,-0.110721,-0.100278,-0.0516235,0.107213,0.501813,-0.198181,0.00235748
0.40703,-0.250808,-0.0056805,-0.0632369,0.10817,0.499909,-0.198181,0.00235748
0.334525,-0.223001,0.0594416,-0.0576841,0.0938815,0.493111,-0.198181,0.00235748
0.199784,-0.152895,0.0651132,-0.0662241,0.0789146,0.484299,-0.198181,0.00235748
0.199784,-0.152895,0.0651132,-0.0662241,0.0789146,0.484299,-0.0502014,0.000587463
0.0886179,-0.0869684,0.0371756,-0.0821337,0.0672109,0.451832,-0.0502014,0.000587463
0.0920394,-0.0513239,0.0350501,-0.0736676,0.0664105,0.40099,-0.0502014,0.000587463
0.142042,-0.0983834,0.0727141,-0.051278,0.0732732,0.369273,-0.0502014,0.000587463
0.178737,-0.200293,0.133384,-0.0328277,0.0748301,0.340649,-0.0502014,0.000587463
0.16934,-0.285537,0.171206,-0.0271531,0.0793201,0.294263,-0.0502014,0.000587463
0.0909227,-0.252377,0.189124,-0.0263705,0.0721447,0.227251,-0.0502014,0.000587463
-0.0524876,-0.0912527,0.210257,-0.0179984,0.0569445,0.149639,-0.0502014,0.000587463
-0.280664,-0.0392112,0.329189,0.0286061,0.062551,0.0864714,-0.0502014,0.000587463
-0.515378,-0.359422,0.542751,0.0896586,0.0587434,-0.0145885,-0.0502014,0.000587463
-0.644568,-0.870334,0.621542,0.0148406,0.0627544,-0.210812,-0.0502014,0.000587463
-0.84149,-1.20905,0.40106,-0.0714702,0.00235167,-0.415797,-0.0502014,0.000587463
-1.0643,-1.04938,-0.00499005,-0.091575,-0.103709,-0.6046,-0.0502014,0.000587463
-1.27402,-0.811452,-0.400923,-0.0806241,-0.0755853,-0.715022,-0.0502014,0.000587463
-1.42314,-0.539865,-0.638093,-0.0421967,0.0160832,-0.766228,-0.0502014,0.000587463
-1.37771,-0.227,-0.635238,0.0533494,0.0323439,-0.796317,-0.0502014,0.000587463
-1.09248,0.0436037,-0.463923,0.160337,0.000632197,-0.774156,-0.0502014,0.000587463
-0.771825,0.218155,-0.197113,0.212082,-0.0136797,-0.653747,-0.0502014,0.000587463
-0.656933,0.274736,0.0418062,0.18909,-0.0459809,-0.449658,-0.0502014,0.000587463
-0.639589,0.303429,0.189542,0.155278,-0.112921,-0.287657,-0.0502014,0.000587463
-0.517788,0.368836,0.223846,0.104717,-0.158781,-0.18332,-0.0502014,0.000587463
-0.375359,0.444766,0.243037,0.081723,-0.173944,-0.0529884,-0.0502014,0.000587463
-0.257339,0.466277,0.314907,0.0793526,-0.166221,0.081913,-0.0502014,0.000587463
-0.116035,0.471795,0.440259,0.0737443,-0.162109,0.188564,-0.0502014,0.000587463
-0.00232049,0.359182,0.577155,0.0590052,-0.156504,0.291229,-0.0502014,0.000587463
0.103376,0.251962,0.677177,0.0282043,-0.159786,0.358292,-0.0502014,0.000587463
0.228078,0.0894584,0.71205,-0.00564352,-0.168692,0.413101,-0.0502014,0.000587463
0.340353,-0.20304,0.68857,-0.0156266,-0.171605,0.453339,-0.0502014,0.000587463
0.42096,-0.455515,0.660885,0.00568082,-0.166594,0.476238,-0.0502014,0.000587463
0.432895,-0.680534,0.651494,0.0255308,-0.149817,0.492193,-0.0502014,0.000587463
0.409724,-0.762455,0.598202,0.0248514,-0.136517,0.472803,-0.0502014,0.000587463
0.386423,-0.749363,0.501388,0.0153018,-0.134382,0.425156,-0.0502014,0.000587463
0.377224,-0.746822,0.295912,-0.012957,-0.146642,0.356364,-0.0502014,0.000587463
0.387488,-0.734524,-0.0380616,-0.0453574,-0.152493,0.273075,-0.0502014,0.000587463
0.383996,-0.78618,-0.479204,-0.0455827,-0.13581,0.170554,-0.0502014,0.000587463
0.340198,-0.698937,-0.846905,0.0214654,-0.0822765,0.0710098,-0.0502014,0.000587463
0.311478,-0.113738,-1.04347,0.0978517,-0.00412118,-0.0317944,-0.0502014,0.000587463
0.344131,0.684376,-1.01827,0.165098,0.0775225,-0.0736265,-0.0502014,0.000587463
0.284008,1.00404,-0.843375,0.19943,0.127119,-0.0208459,-0.0502014,0.000587463
0.110778,0.949071,-0.669202,0.190591,0.108686,-0.0326307,-0.0502014,0.000587463
-0.125765,0.493405,-0.570359,0.0801776,0.088266,-0.132473,-0.0502014,0.000587463
-0.284129,-0.0289698,-0.618312,-0.0714942,0.0528454,-0.319206,-0.0502014,0.000587463
-0.319237,-0.276875,-0.897252,-0.250618,0.0702056,-0.549454,-0.0502014,0.000587463
-0.495215,-0.244471,-1.22034,-0.348303,0.160197,-0.664073,-0.0502014,0.000587463
-0.902616,0.0575718,-1.26346,-0.284766,0.250309,-0.680053,-0.0502014,0.000587463
-1.12898,0.599291,-0.860634,-0.158771,0.309235,-0.705796,-0.0502014,0.000587463
-0.886448,0.927674,-0.0886689,-0.0544231,0.289396,-0.688435,-0.0502014,0.000587463
-0.300552,0.755689,0.613065,-0.0802083,0.184146,-0.562314,-0.0502014,0.000587463
0.144128,0.157515,0.958241,-0.218365,0.0589498,-0.318875,-0.0502014,0.000587463
0.240547,-0.421713,0.946218,-0.320229,-0.0623387,-0.0881569,-0.0502014,0.000587463
0.110746,-0.630334,0.607699,-0.397682,-0.154759,0.0438409,-0.0502014,0.000587463
-0.117282,-0.413415,0.0649318,-0.411318,-0.217231,0.11423,-0.0502014,0.000587463
-0.319735,0.00597353,-0.45698,-0.337016,-0.218209,0.168418,-0.0502014,0.000587463
-0.421756,0.303791,-0.711918,-0.207124,-0.156681,0.239856,-0.0502014,0.000587463
-0.39509,0.391471,-0.690013,-0.0851573,-0.0988036,0.290678,-0.0502014,0.000587463
-0.39509,0.391471,-0.690013,-0.0851573,-0.0988036,0.290678,-0.198181,0.00234222
-0.215767,0.317418,-0.47929,0.00520125,-0.0716963,0.319064,-0.198181,0.00234222
0.0269115,0.168621,-0.240131,0.0294798,-0.0610187,0.357785,-0.198181,0.00234222
0.22108,0.0240178,-0.0894265,0.0142456,-0.07992,0.417208,-0.198181,0.00234222
0.299024,0.00113043,-0.0781958,-0.0123597,-0.108837,0.480924,-0.198181,0.00234222
0.255547,0.104647,-0.112369,-0.00962524,-0.125261,0.543329,-0.198181,0.00234222
0.16001,0.203883,-0.124583,0.0162635,-0.129413,0.593525,-0.198181,0.00234222
0.149622,0.353519,-0.0483626,0.0531872,-0.129876,0.603597,-0.198181,0.00234222
0.260943,0.493482,0.072774,0.0701136,-0.129438,0.610265,-0.198181,0.00234222
0.391833,0.503378,0.231099,0.0781389,-0.125236,0.649878,-0.198181,0.00234222
0.421366,0.138792,0.375398,0.0726827,-0.127669,0.689022,-0.198181,0.00234222
0.314973,-0.463217,0.434639,0.0795181,-0.1444,0.67223,-0.198181,0.00234222
0.00298259,-1.13867,0.427931,0.0948586,-0.145481,0.571526,-0.198181,0.00234222
-0.312756,-1.45413,0.432836,0.0984733,-0.127306,0.311397,-0.198181,0.00234222
-0.520627,-1.60953,0.512888,0.0949713,-0.0581584,-0.0409058,-0.198181,0.00234222
-0.532411,-1.46584,0.481971,0.0323722,-0.0103355,-0.434069,-0.198181,0.00234222
-0.495505,-1.02096,0.111194,-0.121899,0.0165813,-0.806291,-0.198181,0.00234222
-0.637647,-0.632715,-0.465549,-0.19174,0.0167826,-1.01311,-0.198181,0.00234222
-0.629336,-0.301321,-0.83299,-0.121853,0.0406618,-1.17488,-0.198181,0.00234222
-0.28992,-0.0128955,-0.863875,-0.0645716,0.150187,-1.24616,-0.198181,0.00234222
0.0950799,0.224879,-0.728783,-0.0715948,0.20649,-1.1271,-0.198181,0.00234222
0.300476,0.513053,-0.702408,-0.0964144,0.135526,-0.884791,-0.198181,0.00234222
0.49625,0.841746,-0.767738,-0.0755928,0.00614592,-0.614341,-0.198181,0.00234222
0.709449,1.05333,-0.842648,-0.0674395,-0.0525695,-0.325584,-0.198181,0.00234222
0.793647,1.09544,-0.911453,-0.0732198,-0.0854581,-0.0317174,-0.198181,0.00234222
0.780822,1.0115,-0.95013,-0.0783907,-0.106984,0.204798,-0.198181,0.00234222
0.770276,0.826589,-0.919668,-0.0896224,-0.111817,0.369627,-0.198181,0.00234222
0.825273,0.637515,-0.865054,-0.121062,-0.0932076,0.469958,-0.198181,0.00234222
0.957175,0.527157,-0.835699,-0.143805,-0.088131,0.54114,-0.198181,0.00234222
1.01108,0.425368,-0.883964,-0.173909,-0.0746151,0.62836,-0.198181,0.00234222
0.933481,0.34167,-0.969815,-0.184997,-0.0681568,0.708768,-0.198181,0.00234222
0.766826,0.275499,-1.1072,-0.177503,-0.0645054,0.750715,-0.198181,0.00234222
0.643512,0.223359,-1.19702,-0.1343,-0.0612079,0.741583,-0.198181,0.00234222
0.651122,0.122598,-1.163,-0.0872875,-0.0263081,0.702007,-0.198181,0.00234222
0.683992,0.0133397,-1.04823,-0.0610088,0.0121287,0.666759,-0.198181,0.00234222
0.589521,0.0915866,-0.964821,-0.0406416,-0.00824612,0.609173,-0.198181,0.00234222
0.061986,0.0743022,-1.01475,-0.0802559,-0.0342616,0.527303,-0.198181,0.00234222
-0.916713,-0.479733,-1.12189,-0.130283,-0.024497,0.293644,-0.198181,0.00234222
-1.33107,-1.09711,-1.26961,-0.157327,0.0137739,-0.28779,-0.198181,0.00234222
-1.21233,-2.24276,-1.9806,-0.445635,0.183901,-0.902963,-0.198181,0.00234222
-1.55304,-2.72708,-2.90273,-0.63429,0.388135,-1.33553,-0.198181,0.00234222
-2.14997,-1.63908,-3.3596,-0.610002,0.659793,-1.68273,-0.198181,0.00234222
-2.13317,0.391096,-2.95361,-0.39476,0.804811,-1.86034,-0.198181,0.00234222
-1.18324,2.11665,-2.08661,-0.126126,0.665755,-1.65484,-0.198181,0.00234222
0.191741,2.61571,-1.15551,0.00939662,0.435799,-1.13664,-0.198181,0.00234222
1.14458,2.06565,-0.414326,-0.0389565,0.283055,-0.48502,-0.198181,0.00234222
1.49795,0.998928,-0.0358018,-0.182821,0.191323,0.0401016,-0.198181,0.00234222
1.35929,0.0104205,-0.0169048,-0.290232,0.0454319,0.386674,-0.198181,0.00234222
1.04459,-0.552363,-0.409338,-0.364481,-0.0599319,0.540078,-0.198181,0.00234222
0.670586,-0.787595,-0.948005,-0.360131,-0.1164,0.603573,-0.198181,0.00234222
0.385797,-0.797798,-1.39903,-0.306349,-0.11101,0.613941,-0.198181,0.00234222
0.191088,-0.755442,-1.64225,-0.198888,-0.072943,0.613575,-0.198181,0.00234222
0.0527994,-0.568427,-1.70929,-0.113297,-0.030465,0.594024,-0.198181,0.00234222
-0.0439616,-0.214457,-1.70625,-0.0481402,-0.0242278,0.568872,-0.198181,0.00234222
-0.0138689,0.0123529,-1.62255,0.0468486,-0.0564529,0.529343,-0.198181,0.00234222
-0.0138689,0.0123529,-1.62255,0.0468486,-0.0564529,0.529343,-0.203461,0.00242615
0.23831,-0.132704,-1.45428,0.144074,-0.0823487,0.448283,-0.203461,0.00242615
0.486333,-0.58902,-1.24268,0.178546,-0.0696226,0.375259,-0.203461,0.00242615
0.602916,-0.62762,-1.00096,0.246347,-0.0961135,0.242997,-0.203461,0.00242615
0.247244,-0.283474,-0.782824,0.339256,-0.146029,0.142495,-0.203461,0.00242615
-0.494693,-0.963627,-0.452664,0.318468,-0.0381597,0.0200564,-0.203461,0.00242615
-0.856663,-1.6425,-0.301155,0.129946,0.0404857,-0.388288,-0.203461,0.00242615
-0.527143,-1.64777,-0.57056,-0.0132525,-0.00192057,-0.882922,-0.203461,0.00242615
0.0210946,-0.73512,-0.938955,-0.0366966,-0.00573102,-1.14102,-0.203461,0.00242615
0.248834,0.238066,-0.981181,0.00270497,0.107247,-1.00853,-0.203461,0.00242615
0.188096,0.625678,-0.80015,0.014486,0.192207,-0.694163,-0.203461,0.00242615
0.138734,0.594863,-0.669311,-0.0119855,0.179064,-0.453987,-0.203461,0.00242615
0.267281,0.548836,-0.639051,-0.0512414,0.11766,-0.306047,-0.203461,0.00242615
0.562601,0.606544,-0.65168,-0.10204,0.103063,-0.145179,-0.203461,0.00242615
0.82888,0.641809,-0.617604,-0.125361,0.113629,0.0672774,-0.203461,0.00242615
0.928138,0.594479,-0.575482,-0.125861,0.112546,0.288481,-0.203461,0.00242615
0.757933,0.344505,-0.575221,-0.112913,0.0819894,0.47802,-0.203461,0.00242615
0.405284,0.0415036,-0.592238,-0.0880757,0.0480139,0.566898,-0.203461,0.00242615
0.049982,-0.187324,-0.558069,-0.0765178,0.0500739,0.543016,-0.203461,0.00242615
-0.157606,-0.586894,-0.497936,-0.0684946,0.0661622,0.437929,-0.203461,0.00242615
-0.160271,-0.991727,-0.411433,-0.0512213,0.0521809,0.263689,-0.203461,0.00242615
-0.0351491,-1.22342,-0.351844,-0.0583989,0.0748592,0.087976,-0.203461,0.00242615
0.123623,-1.12783,-0.35345,-0.0709997,0.077551,-0.06628,-0.203461,0.00242615
0.27797,-0.728018,-0.450128,-0.105665,0.0829478,-0.153379,-0.203461,0.00242615
0.30891,-0.383948,-0.59322,-0.115578,0.102426,-0.119073,-0.203461,0.00242615
0.214005,-0.259211,-0.686366,-0.0723378,0.0984927,-0.024466,-0.203461,0.00242615
0.169151,-0.201977,-0.726071,-0.0497114,0.110111,0.0407124,-0.203461,0.00242615
0.175624,-0.135633,-0.754728,-0.0448121,0.107437,0.105974,-0.203461,0.00242615
0.211516,-0.0735589,-0.788638,-0.0447456,0.0867984,0.187275,-0.203461,0.00242615
0.250134,-0.0948621,-0.818915,-0.0441695,0.0787801,0.28831,-0.203461,0.00242615
0.252574,-0.204361,-0.838351,-0.0472176,0.0810703,0.393383,-0.203461,0.00242615
0.258115,-0.280076,-0.825621,-0.0503259,0.0894936,0.476018,-0.203461,0.00242615
0.290044,-0.247608,-0.810217,-0.0488511,0.0941551,0.535259,-0.203461,0.00242615
0.322573,-0.197345,-0.864471,-0.0624922,0.0794526,0.574018,-0.203461,0.00242615
0.317147,-0.127028,-0.976199,-0.0727502,0.064658,0.595754,-0.203461,0.00242615
0.253394,-0.133768,-1.0625,-0.034126,0.0627804,0.599805,-0.203461,0.00242615
0.15658,-0.249625,-0.968818,0.0424258,0.0861471,0.557078,-0.203461,0.00242615
0.0411573,-0.307929,-0.7573,0.126334,0.0342031,0.461317,-0.203461,0.00242615
-0.146813,-0.240333,-0.443109,0.199346,-0.0595083,0.285522,-0.203461,0.00242615
-0.555226,-0.297914,-0.156713,0.170613,-0.0624912,0.105718,-0.203461,0.00242615
-1.42909,-1.1499,-0.278969,-0.0147645,-0.0985653,-0.143027,-0.203461,0.00242615
-2.16916,-1.85757,-0.933497,-0.211685,-0.256558,-0.671529,-0.203461,0.00242615
-2.03844,-1.72244,-1.60646,-0.226949,-0.20865,-1.3108,-0.203461,0.00242615
-1.33209,-0.765657,-1.51748,-0.0655794,0.0850014,-1.61107,-0.203461,0.00242615
-0.717449,0.568964,-0.737159,0.101737,0.250913,-1.43486,-0.203461,0.00242615
-0.305373,1.29004,-0.0224232,0.155221,0.173689,-1.01168,-0.203461,0.00242615
-0.00483089,1.4633,0.275238,0.0894663,-0.00111172,-0.57993,-0.203461,0.00242615
0.122277,1.28669,0.314053,-0.0275762,-0.0835196,-0.216584,-0.203461,0.00242615
0.176247,0.963677,0.290915,-0.0966233,-0.112263,0.0569225,-0.203461,0.00242615
0.202518,0.57134,0.270775,-0.113192,-0.13131,0.235812,-0.203461,0.00242615
0.215165,0.283963,0.230497,-0.103478,-0.144208,0.348532,-0.203461,0.00242615
0.16286,0.0989638,0.220174,-0.0837809,-0.149373,0.432272,-0.203461,0.00242615
0.0804194,0.0463632,0.254814,-0.0799246,-0.147743,0.477856,-0.203461,0.00242615
0.0188847,0.0131284,0.281784,-0.0925762,-0.14304,0.492951,-0.203461,0.00242615
0.0731772,-0.0353699,0.246244,-0.107971,-0.158515,0.474826,-0.203461,0.00242615
0.0731772,-0.0353699,0.246244,-0.107971,-0.158515,0.474826,-0.221954,0.00261688
0.236648,-0.114759,0.187867,-0.10785,-0.155153,0.447537,-0.221954,0.00261688
0.481846,-0.0487843,0.207775,-0.079617,-0.128858,0.425641,-0.221954,0.00261688
0.692687,0.13342,0.25034,-0.059331,-0.0990342,0.439762,-0.221954,0.00261688
0.768285,0.276142,0.276585,-0.0206455,-0.0893872,0.517284,-0.221954,0.00261688
0.697349,0.187601,0.312369,0.00848932,-0.0903754,0.59497,-0.221954,0.00261688
0.563472,-0.182352,0.332579,0.00444435,-0.0819165,0.605767,-0.221954,0.00261688
0.461036,-0.652349,0.312294,0.0155412,-0.0718632,0.49814,-0.221954,0.00261688
0.462434,-0.630114,0.296992,0.0294561,-0.0435154,0.265241,-0.221954,0.00261688
0.300156,-0.369536,0.288046,0.0270476,-0.00662984,0.0961867,-0.221954,0.00261688
-0.161198,-0.566672,0.202489,0.0436529,-0.00740491,-0.00698966,-0.221954,0.00261688
-0.509703,-1.22732,0.0446941,0.0623918,-0.0017176,-0.270057,-0.221954,0.00261688
-0.54288,-1.66505,-0.113495,-0.0191413,0.0947285,-0.667789,-0.221954,0.00261688
-0.556494,-1.62706,-0.230591,-0.0868818,0.182604,-0.990211,-0.221954,0.00261688
-0.596724,-1.17046,-0.327891,-0.130529,0.203138,-1.20858,-0.221954,0.00261688
-0.537376,-0.562619,-0.488266,-0.18721,0.243398,-1.27555,-0.221954,0.00261688
-0.388272,0.0899251,-0.52969,-0.154598,0.259368,-1.17534,-0.221954,0.00261688
-0.103449,0.739173,-0.331777,-0.0250553,0.221911,-0.927056,-0.221954,0.00261688
0.21472,1.18797,-0.127132,0.020394,0.189343,-0.562222,-0.221954,0.00261688
0.282495,1.26115,0.0380218,0.0250075,0.124369,-0.150851,-0.221954,0.00261688
0.0751002,1.0535,0.0702877,-0.0115743,0.0332728,0.207751,-0.221954,0.00261688
-0.27454,0.649789,-0.00465521,-0.017253,-0.0447356,0.428564,-0.221954,0.00261688
-0.575649,0.270011,-0.179908,-0.00133415,-0.116661,0.502927,-0.221954,0.00261688
-0.813528,0.0548236,-0.307187,0.0090732,-0.129657,0.534589,-0.221954,0.00261688
-1.07982,-0.106552,-0.335943,0.0316051,-0.0999729,0.550135,-0.221954,0.00261688
-1.28168,-0.213647,-0.262429,0.105262,-0.101151,0.519465,-0.221954,0.00261688
-1.26231,-0.423562,-0.142091,0.157057,-0.113694,0.447373,-0.221954,0.00261688
-0.960891,-0.72227,0.0285519,0.185415,-0.120252,0.345753,-0.221954,0.00261688
-0.506793,-0.965527,0.279465,0.189749,-0.0973497,0.251629,-0.221954,0.00261688
-0.101969,-0.92766,0.515248,0.179515,-0.0786618,0.186765,-0.221954,0.00261688
0.189631,-0.671863,0.696602,0.177711,-0.0927859,0.151487,-0.221954,0.00261688
0.332407,-0.436283,0.728303,0.16217,-0.117419,0.184191,-0.221954,0.00261688
0.302098,-0.272273,0.670633,0.146792,-0.138884,0.25837,-0.221954,0.00261688
0.228349,-0.126747,0.55417,0.102503,-0.142145,0.294603,-0.221954,0.00261688
0.209221,-0.00564195,0.366208,0.0523652,-0.140037,0.31833,-0.221954,0.00261688
0.258664,0.0311149,0.157441,0.0345019,-0.139392,0.344593,-0.221954,0.00261688
0.34614,0.116216,-0.0359398,0.0237725,-0.115355,0.38893,-0.221954,0.00261688
0.389757,0.250051,-0.157228,0.0284618,-0.0584189,0.455208,-0.221954,0.00261688
0.364115,0.335326,-0.221408,0.029509,-0.0124927,0.507416,-0.221954,0.00261688
0.160533,0.247074,-0.220441,0.0386724,0.0209882,0.537433,-0.221954,0.00261688
-0.075736,0.196463,-0.161302,0.063098,0.00935431,0.45867,-0.221954,0.00261688
-0.32611,0.165005,-0.106036,0.0335679,0.0143347,0.268722,-0.221954,0.00261688
-0.782633,-0.384755,-0.187289,-0.0409248,0.0587586,-0.0187958,-0.221954,0.00261688
-0.994874,-0.620064,-0.507339,-0.146974,0.0578135,-0.480551,-0.221954,0.00261688
-1.12998,-0.287577,-0.996866,-0.200507,0.0619168,-0.858261,-0.221954,0.00261688
-1.15076,0.199727,-1.09941,-0.0302675,0.0690951,-1.09049,-0.221954,0.00261688
-0.75963,0.905464,-0.676542,0.153021,0.127996,-1.19454,-0.221954,0.00261688
-0.189026,1.57768,-0.0235189,0.208848,0.140166,-1.02637,-0.221954,0.00261688
0.280926,1.83408,0.54086,0.161207,0.0259047,-0.658189,-0.221954,0.00261688
0.585026,1.6917,0.843977,0.0481806,-0.11079,-0.280048,-0.221954,0.00261688
0.680681,1.21211,0.920982,-0.0573301,-0.2082,0.0184922,-0.221954,0.00261688
0.654806,0.638205,0.850033,-0.115578,-0.290169,0.209813,-0.221954,0.00261688
0.582664,0.148547,0.762542,-0.113887,-0.341063,0.30057,-0.221954,0.00261688
0.588693,-0.122712,0.693951,-0.108612,-0.331977,0.302198,-0.221954,0.00261688
0.588693,-0.122712,0.693951,-0.108612,-0.331977,0.302198,-0.2061,0.00245667
0.720683,-0.25892,0.657529,-0.113927,-0.304356,0.267871,-0.2061,0.00245667
0.845918,-0.316493,0.571756,-0.133881,-0.26444,0.237921,-0.2061,0.00245667
0.907422,-0.243534,0.419775,-0.152318,-0.219352,0.196133,-0.2061,0.00245667
0.968804,0.0454683,0.270884,-0.139097,-0.16706,0.120885,-0.2061,0.00245667
1.04481,0.398309,0.234616,-0.0964558,-0.0729384,0.0553057,-0.2061,0.00245667
1.1505,0.568224,0.328036,-0.00856186,-0.0277813,-0.00807929,-0.2061,0.00245667
1.01786,0.719187,0.482169,0.0556051,0.0192232,-0.0528653,-0.2061,0.00245667
0.467131,0.424783,0.515808,0.0456577,0.0539982,-0.0521964,-0.2061,0.00245667
-0.306789,-0.50339,0.184232,-0.0664145,0.00724614,-0.203657,-0.2061,0.00245667
-0.680544,-1.27685,-0.451862,-0.134577,-0.0751517,-0.591403,-0.2061,0.00245667
-0.416228,-1.5499,-0.945158,-0.0476745,-0.0234105,-0.948735,-0.2061,0.00245667
-0.0462621,-0.940997,-1.09468,-0.0123104,0.178734,-1.02018,-0.2061,0.00245667
0.012925,0.0276248,-0.948597,-0.0101175,0.270558,-0.778587,-0.2061,0.00245667
-0.0858914,0.58682,-0.788751,0.00412349,0.199796,-0.399644,-0.2061,0.00245667
-0.113282,0.652301,-0.776079,0.000899944,0.100689,-0.0675419,-0.2061,0.00245667
-0.0553018,0.444208,-0.83635,-0.0183028,0.0152643,0.175909,-0.2061,0.00245667
0.0471242,0.156075,-0.938635,-0.0494074,-0.0225649,0.363087,-0.2061,0.00245667
0.158496,-0.241284,-1.04079,-0.0626131,-0.0252527,0.502653,-0.2061,0.00245667
0.305874,-0.667257,-0.996716,-0.0291482,0.0244945,0.593504,-0.2061,0.00245667
0.386492,-0.970621,-0.951065,-0.0476296,0.0432675,0.66987,-0.2061,0.00245667
0.489859,-0.939528,-0.883402,0.000313006,0.0578161,0.675626,-0.2061,0.00245667
0.776917,-0.717925,-0.727116,0.0847494,0.0748052,0.605253,-0.2061,0.00245667
1.26278,-0.352578,-0.523936,0.0932047,0.108636,0.570446,-0.2061,0.00245667
1.62279,-0.122435,-0.392872,0.00893176,0.150916,0.617695,-0.2061,0.00245667
1.64751,-0.0406549,-0.292638,-0.0520169,0.179358,0.688558,-0.2061,0.00245667
1.41807,-0.021954,-0.21754,-0.0762939,0.168847,0.679188,-0.2061,0.00245667
1.17036,0.206403,-0.150459,-0.0251939,0.0986753,0.563245,-0.2061,0.00245667
0.807288,0.481133,-0.132629,0.0277736,0.0231338,0.464713,-0.2061,0.00245667
0.184809,0.396233,-0.183642,-0.00721332,-0.0601676,0.377966,-0.2061,0.00245667
-0.432115,0.256763,-0.621573,-0.217317,-0.111601,0.201454,-0.2061,0.00245667
-1.12788,0.00802302,-1.51278,-0.337525,-0.18341,0.020836,-0.2061,0.00245667
-1.65822,-0.200148,-2.21344,-0.18018,-0.250119,-0.212877,-0.2061,0.00245667
-1.52176,-0.162042,-2.16276,0.0472564,-0.119888,-0.520873,-0.2061,0.00245667
-0.866324,-0.0975237,-1.57707,0.100578,0.0428671,-0.702077,-0.2061,0.00245667
-0.152925,-0.0669329,-0.920665,0.0971678,0.0608699,-0.704647,-0.2061,0.00245667
0.284369,-0.0144619,-0.528274,0.0616139,-0.0414522,-0.614272,-0.2061,0.00245667
0.574554,0.276498,-0.366583,0.0157446,-0.106463,-0.518147,-0.2061,0.00245667
0.838574,0.751494,-0.246049,-0.00958377,-0.0785116,-0.391979,-0.2061,0.00245667
0.838067,0.693319,-0.0964302,-0.0320725,-0.036457,-0.195254,-0.2061,0.00245667
0.757304,0.520816,-0.00967381,-0.0552659,-0.0719029,-0.106093,-0.2061,0.00245667
0.657431,0.41396,-0.0667831,-0.128563,-0.0945446,-0.0945498,-0.2061,0.00245667
0.43611,0.114347,-0.266426,-0.18147,-0.108558,-0.0706524,-0.2061,0.00245667
0.0523105,-0.363619,-0.640656,-0.199485,-0.134032,-0.0634433,-0.2061,0.00245667
-0.367801,-0.916745,-1.06469,-0.210922,-0.102504,-0.130854,-0.2061,0.00245667
-0.682719,-1.16833,-1.38917,-0.175924,-0.036689,-0.310098,-0.2061,0.00245667
-0.887985,-0.899765,-1.63294,-0.123563,0.0387621,-0.497677,-0.2061,0.00245667
-0.972257,-0.28927,-1.75964,-0.0500069,0.111382,-0.597894,-0.2061,0.00245667
-0.853947,0.0358896,-1.59492,0.0442519,0.17042,-0.617558,-0.2061,0.00245667
-0.484789,0.0569063,-1.24118,0.120646,0.18283,-0.580437,-0.2061,0.00245667
-0.0634663,-0.0313107,-0.857563,0.13004,0.161395,-0.471274,-0.2061,0.00245667
0.314662,-0.080202,-0.520014,0.0882694,0.115148,-0.307968,-0.2061,0.00245667
0.617545,-0.045645,-0.299258,0.0081491,0.0706097,-0.123531,-0.2061,0.00245667
0.761155,0.0579047,-0.215038,-0.0815791,0.0417228,0.0795217,-0.2061,0.00245667
0.751731,0.0599304,-0.212173,-0.132236,0.0310669,0.258064,-0.2061,0.00245667
0.751731,0.0599304,-0.212173,-0.132236,0.0310669,0.258064,-0.221954,0.00263214
0.716237,-0.0630323,-0.235218,-0.14885,0.0437378,0.368685,-0.221954,0.00263214
0.761341,-0.297617,-0.244431,-0.149467,0.061022,0.406524,-0.221954,0.00263214
0.843828,-0.632209,-0.267327,-0.130246,0.0657972,0.404903,-0.221954,0.00263214
0.928221,-0.935775,-0.373872,-0.131975,0.0609829,0.36736,-0.221954,0.00263214
1.02172,-1.16948,-0.5273,-0.125054,0.0786046,0.29015,-0.221954,0.00263214
1.03294,-1.29435,-0.662023,-0.0997987,0.119344,0.216915,-0.221954,0.00263214
0.869023,-1.43331,-0.812776,-0.102585,0.159946,0.159957,-0.221954,0.00263214
0.646022,-1.39408,-1.0724,-0.0951542,0.160722,0.0674091,-0.221954,0.00263214
0.366986,-1.0681,-1.41645,-0.0721218,0.141483,-0.0202367,-0.221954,0.00263214
-0.140045,-0.784628,-1.81635,-0.0319088,0.119099,-0.0101405,-0.221954,0.00263214
-0.828094,-0.937515,-2.42339,-0.119855,0.134532,-0.04022,-0.221954,0.00263214
-1.5287,-1.33667,-3.17471,-0.125105,0.151095,-0.189415,-0.221954,0.00263214
-1.7761,-0.945708,-3.51075,0.0737297,0.195517,-0.489122,-0.221954,0.00263214
-1.3121,0.266523,-3.24627,0.244598,0.305069,-0.696958,-0.221954,0.00263214
-0.769063,1.17754,-2.65026,0.301711,0.346233,-0.539056,-0.221954,0.00263214
-0.704656,1.01935,-2.30511,0.265067,0.207025,-0.199584,-0.221954,0.00263214
-0.823526,0.328588,-2.17809,0.211155,0.0516378,-0.0439506,-0.221954,0.00263214
-0.678139,-0.137852,-2.06676,0.163847,0.0117125,-0.12654,-0.221954,0.00263214
-0.314565,-0.0862085,-1.73249,0.145417,0.0636795,-0.22085,-0.221954,0.00263214
0.0759445,0.159064,-1.1945,0.142271,0.065716,-0.192812,-0.221954,0.00263214
0.392628,0.321213,-0.679192,0.095563,0.0275999,-0.0800958,-0.221954,0.00263214
0.551371,0.281285,-0.388023,0.000229031,-0.0463167,0.0679435,-0.221954,0.00263214
0.573659,0.0812898,-0.262873,-0.0867032,-0.0922578,0.166478,-0.221954,0.00263214
0.569591,0.0114662,-0.218709,-0.159175,-0.0892357,0.16784,-0.221954,0.00263214
0.532196,0.0986208,-0.279793,-0.222904,-0.0702119,0.10526,-0.221954,0.00263214
0.975506,-0.126205,-0.433081,-0.254063,-0.00592381,0.0623132,-0.221954,0.00263214
0.809319,-0.746016,-0.494057,-0.219294,-0.0179372,0.156244,-0.221954,0.00263214
0.39305,-0.634366,-0.563136,-0.28836,0.0194068,0.126181,-0.221954,0.00263214
0.21778,-0.110185,-0.676481,-0.254483,0.050505,0.0258023,-0.221954,0.00263214
0.264231,0.214654,-0.7001,-0.222886,0.0903084,0.0086239,-0.221954,0.00263214
0.388561,-0.0440144,-0.582686,-0.191631,0.11369,0.0840854,-0.221954,0.00263214
0.437433,-0.746196,-0.541622,-0.161973,0.0908534,0.114203,-0.221954,0.00263214
0.451449,-1.10508,-0.629725,-0.187723,0.0628666,0.0461481,-0.221954,0.00263214
0.39917,-1.21693,-0.78636,-0.20759,0.0591591,-0.0307637,-0.221954,0.00263214
0.243565,-1.09379,-0.942941,-0.212308,0.0455189,-0.082014,-0.221954,0.00263214
0.0719479,-0.809004,-1.07679,-0.227013,0.0442056,-0.111125,-0.221954,0.00263214
