rotationRate_x,rotationRate_y,rotationRate_z,acceleration_x,acceleration_y,acceleration_z,relativeAltitude
0.815921,-1.6416,-1.02879,0.11889,0.0284261,0.185122,0
0.304303,-1.49571,-0.789972,0.106853,0.0107905,0.388798,0
-0.217048,-0.3425,-0.733516,0.0868818,0.0275361,0.532061,0
-0.66184,0.505031,-0.625837,0.0213929,0.0464019,0.507184,0
-1.16365,0.448571,-0.398635,0.000695251,-0.0313121,0.287122,0
-1.37334,-0.0980765,0.0267375,0.0266297,-0.126618,0.0119362,0
-1.13983,-0.279915,0.537434,0.0618054,-0.134725,-0.0312296,0
-0.719221,-0.248917,0.704012,0.0631865,-0.131082,-0.0918489,0
-0.35005,-0.231749,0.50489,0.0334663,-0.0905534,-0.152212,0
-0.282366,-0.262226,0.230393,0.0249888,-0.069375,-0.0986385,0
-0.594136,-0.472095,0.134237,0.0231197,-0.0901649,-0.130673,0
-1.03346,-0.809876,0.183379,0.0515651,-0.107973,-0.205976,0
-1.24813,-1.0804,0.303458,0.0872329,-0.0540403,-0.323699,0
-1.14745,-1.13238,0.521951,0.126561,0.0200402,-0.39401,0
-0.73914,-0.932705,0.912064,0.176149,0.0391749,-0.375043,0
-0.0745854,-0.552256,1.30548,0.162713,0.0152416,-0.331612,0
0.60081,0.119314,1.43307,0.100144,0.0191996,-0.212583,0
0.921175,0.697965,1.28723,0.0770767,0.074272,-0.0566298,0
0.846419,0.846964,1.16399,0.104283,0.0846749,0.0747944,0
0.545633,0.729546,1.20945,0.125321,0.019363,0.180073,0
0.148199,0.472726,1.29725,0.108552,-0.0335459,0.216086,0
-0.289159,-0.00154085,1.27603,0.0833146,-0.00849825,0.160948,0
-0.592326,-0.590786,1.15187,0.0796542,0.0121827,0.0187454,0
-0.671679,-1.00019,0.956619,0.0677762,0.0181559,-0.103884,0
-0.492229,-0.913814,0.755036,0.0781989,0.0507671,-0.162036,0
-0.172048,-0.465155,0.650045,0.0968911,0.0926273,-0.133707,0
0.186225,0.212629,0.766471,0.131938,0.130307,-0.0838057,0
0.457671,0.7231,1.07415,0.153055,0.136246,0.00642109,0
0.539364,0.632142,1.36339,0.169009,0.109632,0.00827789,0
0.57838,0.459549,1.49161,0.158191,0.0886052,0.0567956,0
0.618189,0.234588,1.38097,0.117538,0.0893874,0.0797867,0
0.626551,0.109791,1.08243,0.103267,0.0878784,0.0819098,0
0.472891,0.0449495,0.790716,0.0881125,0.0828169,0.112508,0
0.140179,0.0638784,0.620344,0.0785528,0.0819123,0.118937,0
-0.25192,0.176548,0.565168,0.0664075,0.0937199,0.0897891,0
-0.450488,0.0736054,0.498507,0.0628446,0.082618,-0.0549488,0
-0.341688,-0.10476,0.346759,0.0340963,0.108267,-0.184344,0
-0.270997,-0.460959,0.158611,0.00760388,0.148384,-0.303803,0
-0.248062,-0.672516,0.0462636,-0.00824275,0.140951,-0.366746,0
-0.229576,-0.714108,-0.0179353,-0.0121536,0.165255,-0.390689,0
-0.164179,-0.522613,-0.00678267,-0.0159599,0.189597,-0.364661,0
-0.186248,-0.213261,-0.0200332,-0.0698742,0.194091,-0.305246,0
-0.384398,0.00722941,-0.204079,-0.0747308,0.143255,-0.247895,0
-0.717083,-0.035766,-0.428739,-0.0158368,0.0724624,-0.217158,0
-0.900136,-0.09306,-0.426759,0.0243571,0.000361592,-0.19976,0
-0.770359,0.00769708,-0.226838,0.00714698,0.0103629,-0.173299,0
-0.345625,0.368986,0.0105625,-0.0454654,0.0682211,-0.10112,0
0.164974,0.83506,0.214074,-0.0932526,0.098312,0.010907,0
0.52304,1.08527,0.368973,-0.100233,0.0977879,0.120398,0
0.599783,1.04126,0.484538,-0.0991885,0.0886818,0.218759,0
0.436261,0.827668,0.538884,-0.10006,0.0553676,0.286859,0
0.436261,0.827668,0.538884,-0.10006,0.0553676,0.286859,0
0.189389,0.543028,0.497957,-0.11761,0.0190241,0.322656,0
-0.0480166,0.185437,0.364145,-0.128548,-0.000687107,0.292641,0
-0.155842,-0.110771,0.193965,-0.130671,-0.0038105,0.261176,0
-0.154458,-0.329909,0.0257339,-0.124741,-0.000665583,0.232579,0
-0.0492187,-0.452769,-0.101658,-0.11646,0.00923335,0.163024,0
0.0422821,-0.398881,-0.180794,-0.0941068,0.00408906,0.154655,0
0.0155593,-0.267271,-0.210593,-0.0568509,-0.000373602,0.146514,0
-0.0798155,-0.080274,-0.152882,-0.0213828,-0.0041277,0.15882,0
-0.16953,0.13383,0.0202919,0.00242496,0.00769084,0.169407,0
-0.227486,0.0804006,0.187895,0.00389013,-0.00870117,0.14085,0
-0.197352,-0.0752456,0.274036,0.000971958,-0.0307634,0.0917158,0
-0.118394,-0.268259,0.266302,-0.0125607,-0.0505857,0.0535604,0
-0.0768697,-0.325421,0.203291,-0.00474618,-0.0635246,0.0344512,0
-0.155216,-0.325633,0.156734,-0.0161138,-0.0774808,0.0286471,0
-0.32505,-0.31258,0.0650243,-0.0293112,-0.080465,-0.0138304,0
-0.450667,-0.278648,-0.0425147,-0.0167138,-0.0779366,-0.085381,0
-0.411369,-0.172155,-0.124408,0.00208053,-0.0751827,-0.186915,0
-0.260632,0.0474403,-0.161876,0.0119637,-0.0385096,-0.259001,0
-0.0541012,0.37685,-0.0916746,0.0410843,-0.0136038,-0.291593,0
0.223891,0.671183,0.134965,0.0662984,0.00235779,-0.282232,0
0.434035,0.779211,0.385384,0.0667918,0.029779,-0.243134,0
0.409851,0.580376,0.540344,0.0608625,0.0273537,-0.223409,0
0.169695,0.182411,0.527546,0.0390618,0.0178665,-0.225305,0
-0.0475949,-0.0153341,0.41149,0.0299927,0.00213522,-0.22394,0
-0.0427335,0.159386,0.327913,0.0215725,0.0193033,-0.185226,0
0.141698,0.556099,0.373653,0.0322939,0.0686264,-0.102895,0
0.307334,0.896719,0.580732,0.050756,0.0873886,0.0167227,0
0.359132,0.905483,0.856207,0.05254,0.0682014,0.0815558,0
0.3744,0.69639,1.01418,0.0340571,0.0415317,0.13507,0
0.395195,0.331465,1.02096,0.0101069,0.0347541,0.147876,0
0.410147,0.0189535,0.930331,-0.0194377,0.0358064,0.165755,0
0.376599,-0.142996,0.792096,-0.0230317,0.0352727,0.191787,0
0.293479,-0.109157,0.654195,-0.00518052,0.0384909,0.20623,0
0.202525,0.0629166,0.555713,0.0126992,0.0376312,0.226197,0
0.137543,0.247389,0.500253,0.0321737,0.0326153,0.231831,0
0.0967398,0.315169,0.456097,0.0410567,0.027661,0.234181,0
0.131518,0.227781,0.411664,0.0583803,0.0199452,0.211244,0
0.352593,0.1536,0.391794,0.07226,0.00764851,0.156296,0
0.595208,0.0944861,0.407437,0.100199,0.00666815,0.147717,0
0.661888,0.0688516,0.469452,0.122838,0.00703253,0.167463,0
0.509538,0.0116663,0.570142,0.122974,6.97523e-05,0.180063,0
0.343506,-0.0361372,0.591398,0.10564,-0.0220826,0.105061,0
0.299942,0.082365,0.463974,0.0703516,-0.0208092,0.0341858,0
0.206087,0.155591,0.317171,0.0549739,0.0149705,-0.0125112,0
-0.0158534,0.0596003,0.306389,0.0588276,0.0361948,-0.0629436,0
-0.18474,-0.137773,0.336161,0.0353261,0.0608723,-0.174535,0
-0.173913,-0.222548,0.320011,0.00109296,0.0949999,-0.271119,0
-0.0602922,-0.261053,0.292316,-0.00416159,0.125002,-0.316099,0
0.135145,-0.144407,0.270947,-0.0178734,0.149474,-0.334715,0
0.265197,0.158813,0.206623,-0.0549483,0.19321,-0.277371,0
0.265197,0.158813,0.206623,-0.0549483,0.19321,-0.277371,0
0.126612,0.35976,0.0966961,-0.0890554,0.217957,-0.179699,0
-0.223795,0.246475,-0.0538589,-0.105848,0.178585,-0.139684,0
-0.601616,-0.244976,-0.308065,-0.108025,0.118338,-0.191794,0
-0.575713,-0.62178,-0.609199,-0.129019,0.0923145,-0.328648,0
-0.109068,-0.540756,-0.791191,-0.138089,0.129076,-0.381655,0
0.383453,-0.166466,-0.780996,-0.12773,0.183173,-0.302682,0
0.565097,0.239164,-0.611552,-0.126443,0.174067,-0.143965,0
0.400637,0.411419,-0.44792,-0.122681,0.126852,-0.014486,0
0.187749,0.476267,-0.364846,-0.14629,0.0742107,0.112465,0
0.0327883,0.41979,-0.37223,-0.170284,0.0628135,0.195943,0
-0.12745,0.297692,-0.42623,-0.186805,0.0669141,0.260434,0
-0.328221,0.132298,-0.474017,-0.204481,0.0489706,0.295714,0
-0.468886,-0.00216426,-0.533534,-0.211853,0.02603,0.311321,0
-0.437988,-0.122531,-0.615551,-0.210301,0.025005,0.302846,0
-0.25693,-0.24208,-0.687015,-0.183116,0.0199231,0.299162,0
-0.0425392,-0.386459,-0.707359,-0.164322,0.0115116,0.27377,0
0.0991497,-0.453069,-0.673778,-0.136071,0.00420727,0.301934,0
0.0960605,-0.51212,-0.640716,-0.0958409,-0.00762704,0.317695,0
0.00983541,-0.540955,-0.59533,-0.0645395,-0.0278288,0.328521,0
-0.183677,-0.630462,-0.573905,-0.0488198,-0.0446354,0.294047,0
-0.377411,-0.696812,-0.552415,-0.0163125,-0.0817669,0.209491,0
-0.363745,-0.689126,-0.522116,0.0174781,-0.0943841,0.125902,0
-0.191735,-0.582909,-0.451668,0.0222456,-0.0841948,0.0648236,0
-0.154621,-0.467369,-0.382256,0.0154394,-0.0838812,0.0240621,0
-0.271853,-0.323086,-0.345832,0.00915618,-0.105923,-0.0065887,0
-0.418496,-0.242754,-0.344172,0.0288657,-0.126063,-0.0648478,0
-0.431653,-0.268979,-0.380609,0.0386302,-0.135898,-0.161395,0
-0.264573,-0.151498,-0.448204,0.0396026,-0.113637,-0.243741,0
-0.10353,0.0766674,-0.462162,0.0571637,-0.0828593,-0.276279,0
0.0218666,0.385608,-0.350634,0.0927157,-0.070576,-0.241458,0
0.101735,0.629318,-0.142925,0.113543,-0.0475837,-0.193279,0
0.105615,0.597377,0.0851689,0.107536,-0.0350291,-0.148393,0
0.0128403,0.293724,0.197486,0.102477,-0.0546346,-0.141175,0
-0.0780374,-0.221606,0.149623,0.0954924,-0.0727184,-0.207731,0
-0.0811196,-0.541819,0.0461146,0.0633801,-0.0559178,-0.305659,0
-0.0504544,-0.641479,-0.0249328,0.0493353,-0.0192947,-0.368973,0
0.0378743,-0.511955,-0.00813685,0.066891,0.00581514,-0.328914,0
0.152588,-0.247703,0.0951805,0.0917223,0.035087,-0.228533,0
0.233548,-0.0702647,0.254605,0.108195,0.0488355,-0.100861,0
0.349726,0.0294256,0.394465,0.0797574,0.0586358,-0.0258403,0
0.371783,0.0290987,0.415595,0.0718118,0.0746411,0.0687724,0
0.306718,-0.0445551,0.409776,0.102714,0.0555956,0.135374,0
0.269217,0.0262742,0.430838,0.109643,0.0560041,0.200035,0
0.248931,0.271795,0.468027,0.104923,0.0828015,0.271827,0
0.175864,0.450011,0.542443,0.10629,0.0847107,0.326572,0
0.0501706,0.4183,0.632959,0.128012,0.0381923,0.325517,0
-0.0395985,0.226655,0.690384,0.13529,-0.00509211,0.287663,0
-0.0132794,0.0274434,0.696022,0.099729,-0.00788565,0.229006,0
0.090753,-0.127575,0.648434,0.0643859,0.0100292,0.186554,0
0.174064,-0.188712,0.572803,0.0589654,0.00764339,0.164824,0
0.174064,-0.188712,0.572803,0.0589654,0.00764339,0.164824,0.100403
0.210968,-0.130707,0.506959,0.0641745,-0.0111467,0.127664,0.100403
0.208737,-0.0577041,0.544159,0.101361,-0.0413218,0.0980631,0.100403
0.25362,-0.0277045,0.618062,0.109125,-0.0430443,0.0501451,0.100403
0.309853,-0.0281758,0.618941,0.0753775,-0.009692,0.0228513,0.100403
0.351389,0.0747329,0.598318,0.037215,0.0152711,-0.0208829,0.100403
0.305132,0.0882794,0.554344,0.0114835,-0.0293915,-0.0821549,0.100403
0.146458,0.162813,0.439633,0.0128472,-0.032398,-0.116193,0.100403
-0.0757892,0.0687221,0.26389,0.0232424,-0.0199812,-0.174411,0.100403
-0.098346,-0.194274,0.144394,0.0287158,-0.0174576,-0.26983,0.100403
0.113526,-0.509775,0.0586382,0.0208852,0.0062577,-0.345974,0.100403
0.361563,-0.70323,-0.0397898,-0.00823202,0.0525547,-0.398105,0.100403
0.439351,-0.664978,-0.192496,-0.0406291,0.0879376,-0.38475,0.100403
0.365706,-0.372004,-0.314908,-0.0582697,0.114457,-0.339932,0.100403
0.247754,0.0445314,-0.311241,-0.0618548,0.155195,-0.256961,0.100403
0.107165,0.352393,-0.178052,-0.0830881,0.187895,-0.18166,0.100403
-0.0511245,0.431206,-0.0214998,-0.0859579,0.174634,-0.121963,0.100403
-0.209469,0.255691,0.0164537,-0.0858693,0.13006,-0.109465,0.100403
-0.269335,0.0780914,-0.0435123,-0.0957358,0.0877771,-0.0870156,0.100403
-0.187742,0.0520122,-0.138089,-0.118044,0.080598,-0.0636171,0.100403
-0.0240314,0.184851,-0.20022,-0.129298,0.0947592,0.00464988,0.100403
0.100077,0.280076,-0.196219,-0.114106,0.104865,0.0820553,0.100403
0.0923629,0.243067,-0.13763,-0.101718,0.096637,0.134185,0.100403
0.034018,0.190094,-0.0662466,-0.0846846,0.0691608,0.166094,0.100403
0.0646453,0.149823,0.00577221,-0.0670143,0.0436047,0.196711,0.100403
0.202097,0.113752,0.0768544,-0.0514704,0.033915,0.235037,0.100403
0.359688,0.063568,0.156399,-0.0439267,0.0306614,0.28905,0.100403
0.444518,-0.049458,0.23733,-0.0468327,0.0222623,0.320419,0.100403
0.398623,-0.252217,0.260992,-0.0534103,0.00753342,0.325212,0.100403
0.280788,-0.447264,0.16599,-0.0575206,-0.0136845,0.306432,0.100403
0.189725,-0.46885,-0.0435467,-0.0576742,-0.0200903,0.290807,0.100403
0.0775161,-0.345346,-0.277904,-0.0503369,-0.00498305,0.305006,0.100403
-0.131617,-0.192247,-0.417146,-0.013365,-0.00399266,0.307511,0.100403
-0.365331,-0.0910754,-0.385164,0.0262499,-0.0317341,0.296376,0.100403
-0.510927,-0.0679168,-0.280748,0.0373548,-0.0473091,0.251658,0.100403
-0.499857,-0.0876228,-0.224141,0.026367,-0.0546643,0.180249,0.100403
-0.370889,-0.0788649,-0.209038,0.0266475,-0.067318,0.135217,0.100403
-0.27719,-0.0574505,-0.143111,0.0423554,-0.0779916,0.105174,0.100403
-0.272266,-0.041957,0.00785708,0.0453726,-0.098429,0.0832067,0.100403
-0.327057,-0.105946,0.143055,0.040053,-0.111472,0.0490688,0.100403
-0.332263,-0.147607,0.19216,0.0211643,-0.114562,0.00260437,0.100403
-0.291209,-0.135419,0.123939,-0.0109378,-0.110091,-0.0472035,0.100403
-0.253004,-0.0862192,0.0206725,-0.0322013,-0.100776,-0.121774,0.100403
-0.201367,-0.0122422,-0.0417787,-0.0251526,-0.0987113,-0.184452,0.100403
-0.129558,0.111534,-0.0312826,-0.013143,-0.0830489,-0.214263,0.100403
-0.0169229,0.288476,0.0579252,-0.0108992,-0.0481896,-0.224963,0.100403
0.146087,0.512268,0.186094,-0.0155979,-0.0254451,-0.208892,0.100403
0.238291,0.548749,0.25563,-0.0282552,0.000797287,-0.194999,0.100403
0.252019,0.314577,0.222771,0.0291927,0.00273947,-0.218088,0.100403
0.245547,0.12328,0.195557,0.0881681,0.0127863,-0.216451,0.100403
0.131389,-0.059385,0.29612,0.122881,0.0344837,-0.235752,0.100403
0.131389,-0.059385,0.29612,0.122881,0.0344837,-0.235752,0.269516
-0.0800439,-0.285722,0.432187,0.106814,0.0555363,-0.317215,0.269516
-0.15377,-0.299933,0.424445,0.0608498,0.0734443,-0.353645,0.269516
-0.00973814,-0.0969456,0.286069,0.0477449,0.0915102,-0.347924,0.269516
0.206468,0.282351,0.2,0.0811477,0.101388,-0.260481,0.269516
0.324012,0.661779,0.288922,0.126726,0.0983578,-0.127475,0.269516
0.30043,0.814344,0.491498,0.154424,0.100101,-0.01809,0.269516
0.181884,0.724533,0.701392,0.174471,0.0782731,0.0489767,0.269516
0.031943,0.462547,0.792529,0.164561,0.060883,0.0719659,0.269516
-0.0231498,0.252691,0.796529,0.141175,0.0496695,0.0829228,0.269516
0.0269151,0.14726,0.774949,0.126931,0.0513672,0.121073,0.269516
0.119623,0.137363,0.785755,0.126612,0.060293,0.164057,0.269516
0.125547,0.259607,0.839928,0.125194,0.0605515,0.248034,0.269516
0.0150283,0.355864,0.905761,0.12111,0.0649432,0.319272,0.269516
-0.154132,0.327807,0.986554,0.127212,0.073909,0.346426,0.269516
-0.256371,0.27518,1.06284,0.119278,0.060806,0.356881,0.269516
-0.283165,0.276691,1.09151,0.0811959,0.0512346,0.345279,0.269516
-0.235345,0.311977,1.04394,0.0403258,0.0485158,0.310071,0.269516
-0.0985737,0.338833,0.95139,0.0280329,0.0352091,0.244003,0.269516
0.072848,0.271966,0.84859,0.081766,0.0190369,0.189279,0.269516
0.196637,0.073193,0.74091,0.133465,0.0130371,0.0944496,0.269516
0.301126,-0.0659765,0.693026,0.131362,0.0130759,0.0115604,0.269516
0.365776,-0.00939258,0.72085,0.085143,0.0274384,-0.0281245,0.269516
0.326984,0.00511127,0.769577,0.0661372,0.0243213,-0.0781704,0.269516
0.214714,-0.0732272,0.751285,0.0562538,0.0080608,-0.146535,0.269516
0.138809,-0.0797089,0.642435,0.0596532,-0.00315741,-0.168386,0.269516
0.137708,0.00325763,0.532663,0.0599914,0.00836951,-0.121539,0.269516
0.133734,0.101376,0.535582,0.0776339,0.0134582,-0.042197,0.269516
0.11281,0.124294,0.662758,0.0816314,-0.00374694,0.0180489,0.269516
0.117362,0.197309,0.777386,0.0498429,-0.0111359,0.0812483,0.269516
0.123276,0.274011,0.786419,0.0360929,-0.0119964,0.145463,0.269516
0.0967815,0.276607,0.725848,0.0527525,-0.0186069,0.182939,0.269516
0.0172914,0.221238,0.655283,0.0499952,-0.0326784,0.210029,0.269516
-0.102835,0.102987,0.611742,0.0473415,-0.0578117,0.206011,0.269516
-0.190214,-0.0545257,0.569116,0.0598268,-0.0825873,0.175459,0.269516
-0.233905,-0.195452,0.516002,0.0667202,-0.069444,0.168033,0.269516
-0.247205,-0.323705,0.456805,0.0777995,-0.0499777,0.138381,0.269516
-0.219883,-0.44159,0.454732,0.096938,-0.0439844,0.0920757,0.269516
-0.13202,-0.497071,0.541859,0.102613,-0.0278905,0.0574023,0.269516
-0.0152255,-0.497766,0.629476,0.0731045,0.00574732,0.0353897,0.269516
0.0468196,-0.457208,0.657314,0.0452402,0.042189,0.00619429,0.269516
0.00706303,-0.398594,0.640432,0.0470906,0.0382387,0.00152522,0.269516
-0.164494,-0.520333,0.588614,0.0463686,0.0443308,-0.0488995,0.269516
-0.389722,-0.551577,0.504311,0.000349499,0.0692116,-0.08244,0.269516
-0.62278,-0.417023,0.443602,-0.0208083,0.0570116,-0.0851432,0.269516
-0.830207,-0.251658,0.427897,-0.0152233,0.0364176,-0.0991153,0.269516
-0.962665,-0.0357602,0.456702,-0.00107107,0.0234502,-0.0877386,0.269516
-0.984682,0.127598,0.535344,0.0190722,-0.000333428,-0.0558093,0.269516
-0.893718,0.168186,0.702003,0.0453403,-0.025071,-0.0170699,0.269516
-0.705678,0.114818,0.970578,0.0699282,-0.0392348,0.0353503,0.269516
-0.442819,0.0971964,1.25793,0.0835981,-0.0450163,0.10042,0.269516
-0.442819,0.0971964,1.25793,0.0835981,-0.0450163,0.10042,0.49411
-0.149233,0.276278,1.41349,0.0697734,-0.0591915,0.154141,0.49411
0.058337,0.403052,1.31306,0.0490559,-0.0666466,0.134317,0.49411
0.0294313,0.29708,0.973239,0.0303269,-0.0876254,0.0724244,0.49411
-0.260784,-0.124853,0.57076,0.039362,-0.111201,-0.0108453,0.49411
-0.511068,-0.663021,0.32419,0.0453945,-0.10263,-0.116311,0.49411
-0.448936,-0.985066,0.219446,0.00873435,-0.0255345,-0.224355,0.49411
-0.157787,-0.932387,0.195525,0.0047061,0.044987,-0.276786,0.49411
0.166283,-0.580495,0.256885,0.023044,0.0716509,-0.281151,0.49411
0.419297,-0.119663,0.410152,0.0704909,0.0616294,-0.231685,0.49411
0.555096,0.277996,0.681904,0.119845,0.0481368,-0.140265,0.49411
0.605053,0.533587,1.01056,0.126108,0.0399987,-0.017844,0.49411
0.625743,0.57425,1.2634,0.107465,0.0352553,0.0764068,0.49411
0.655046,0.431705,1.39935,0.0844474,0.0191868,0.144825,0.49411
0.635484,0.161975,1.42289,0.066051,0.001809,0.186205,0.49411
0.514874,-0.100079,1.36932,0.0432513,-0.00904978,0.219768,0.49411
0.293996,-0.279416,1.273,0.0167046,-0.0163937,0.242442,0.49411
0.00590174,-0.363439,1.15512,-0.0111,-0.00568836,0.249403,0.49411
-0.211272,-0.327703,1.0436,-0.032042,0.00382546,0.227032,0.49411
-0.263682,-0.206129,0.943974,-0.0443138,0.00828566,0.1878,0.49411
-0.260966,-0.106681,0.8834,-0.0314378,0.0125481,0.157384,0.49411
-0.308639,-0.0779804,0.865,-0.014688,0.00558577,0.108436,0.49411
-0.322731,-0.071301,0.866741,-0.00891918,6.42166e-05,0.0467685,0.49411
-0.263451,-0.0479744,0.848585,-0.000117958,-0.00149469,-0.0151748,0.49411
-0.190997,0.0306157,0.83705,0.017069,-0.012946,-0.0528123,0.49411
-0.156874,0.0860962,0.845221,0.0354206,-0.0404851,-0.101238,0.49411
-0.0842772,0.130562,0.858221,0.0554387,-0.0729672,-0.164434,0.49411
0.112909,0.132316,0.882231,0.0584081,-0.0786485,-0.217575,0.49411
0.383367,0.108809,0.918349,0.0564359,-0.0729574,-0.26307,0.49411
0.57033,0.0998494,0.946215,0.0458097,-0.0644706,-0.2701,0.49411
0.651741,0.162487,0.988294,0.0207911,-0.0431929,-0.285088,0.49411
0.63892,0.326325,0.981448,-0.0128876,-0.034588,-0.30295,0.49411
0.446646,0.294377,0.81158,-0.0435671,-0.0133285,-0.342979,0.49411
0.0947482,0.0902488,0.523273,-0.0647599,0.028843,-0.472381,0.49411
-0.173947,0.136071,0.262544,-0.0636538,0.0381268,-0.53647,0.49411
-0.148765,0.303869,0.126307,-0.0147319,0.0503694,-0.596653,0.49411
0.1472,0.525799,0.172356,0.0405812,0.0853237,-0.57466,0.49411
0.604946,0.787857,0.461605,0.0904838,0.102569,-0.480827,0.49411
1.03609,1.06747,0.91042,0.132542,0.120841,-0.328795,0.49411
1.25033,1.46986,1.2707,0.127972,0.138472,-0.168859,0.49411
1.24887,1.60851,1.45548,0.0883963,0.146919,-0.058656,0.49411
1.25112,1.23538,1.58201,0.0869884,0.132683,-0.0164608,0.49411
1.34564,0.621186,1.62977,0.0800216,0.121938,0.00964236,0.49411
1.50359,0.0402233,1.55301,0.073749,0.128403,0.0182761,0.49411
1.56541,-0.262598,1.38477,0.0571285,0.144894,0.0417936,0.49411
1.42368,-0.326211,1.18846,0.0278254,0.168577,0.039911,0.49411
1.14929,-0.126086,0.937072,-0.00562768,0.185994,0.0705398,0.49411
0.866126,0.0871002,0.672355,-0.0255845,0.208163,0.0956935,0.49411
0.713991,0.189469,0.495246,-0.00521676,0.207364,0.105774,0.49411
0.667349,0.159881,0.41928,0.00895999,0.211633,0.121819,0.49411
0.69422,0.165665,0.439434,0.0210413,0.205347,0.174919,0.49411
0.737522,0.137097,0.460934,0.0235396,0.208371,0.186788,0.49411
0.765503,0.144339,0.437335,0.0211389,0.212835,0.175005,0.49411
0.782179,0.25149,0.407671,0.0255918,0.205196,0.188487,0.49411
0.796452,0.386037,0.393496,0.0190534,0.198392,0.198204,0.49411
0.784158,0.455359,0.373705,-0.0036483,0.197891,0.192884,0.49411
0.66318,0.476079,0.305071,-0.00907204,0.189507,0.200692,0.49411
0.420949,0.516307,0.211239,-0.00389516,0.147581,0.194288,0.49411
0.155465,0.614711,0.124415,-0.00732139,0.0985163,0.179417,0.49411
-0.0547507,0.54921,0.0740481,-0.0135193,0.0788269,0.150336,0.49411
-0.131565,0.157007,0.123847,0.0146177,0.0552468,0.0919992,0.49411
-0.0293931,-0.229638,0.242417,0.0203277,0.0227153,0.0417848,0.49411
0.187971,-0.246678,0.308459,0.000924677,0.00467029,0.0389798,0.49411
0.417871,-0.0153757,0.340824,-0.00951932,-0.00309402,0.040998,0.49411
0.580297,0.155195,0.429285,0.00306888,-0.0364574,0.0266287,0.49411
0.633817,0.211373,0.546343,0.0200648,-0.0637727,0.0163024,0.49411
0.538358,0.237628,0.605,0.00770399,-0.0584635,0.0143764,0.49411
0.354982,0.326572,0.572924,-0.0132605,-0.0679202,-0.0213616,0.49411
0.123571,0.360077,0.485402,-0.00340259,-0.0796161,-0.0541893,0.49411
-0.0792134,0.201574,0.380894,0.00364317,-0.0631661,-0.117773,0.49411
-0.167865,0.00193284,0.324363,0.00243264,-0.0505038,-0.152666,0.49411
-0.170945,-0.169748,0.266065,0.00159903,-0.0479463,-0.193098,0.49411
-0.125315,-0.282355,0.162734,-0.0083621,-0.0239494,-0.234857,0.49411
-0.0657512,-0.277051,0.0537121,-0.0232356,0.00179905,-0.238953,0.49411
-0.000200393,-0.166545,0.0171414,-0.0311318,0.0121279,-0.21025,0.49411
0.0447837,-0.093114,0.0385136,-0.0398428,0.0311123,-0.181209,0.49411
-0.00306203,-0.0820533,0.056709,-0.050271,0.0493444,-0.14618,0.49411
-0.00306203,-0.0820533,0.056709,-0.050271,0.0493444,-0.14618,0.673798
-0.101217,-0.124209,0.0246127,-0.0644423,0.0680865,-0.121083,0.673798
-0.197527,-0.0680279,-0.0853948,-0.104472,0.101843,-0.0624711,0.673798
-0.277654,0.0713926,-0.236087,-0.138309,0.121815,0.00553131,0.673798
-0.342654,0.262832,-0.322232,-0.133795,0.117807,0.0767142,0.673798
-0.438478,0.294879,-0.306309,-0.0973604,0.0995693,0.120665,0.673798
-0.514564,0.0379066,-0.228465,-0.037044,0.0751978,0.0917963,0.673798
-0.432067,-0.181544,-0.13405,-0.0316515,0.0742614,0.104568,0.673798
-0.210357,-0.351011,-0.0843393,-0.0589923,0.105418,0.120044,0.673798
0.0446354,-0.408688,-0.0828044,-0.0861303,0.110996,0.135621,0.673798
0.228907,-0.405602,-0.116785,-0.0879105,0.0975791,0.149782,0.673798
0.3082,-0.437914,-0.136476,-0.051673,0.0811063,0.166805,0.673798
0.311425,-0.469773,-0.118226,-0.0252924,0.0656911,0.194114,0.673798
0.239804,-0.400766,-0.121336,-0.0219956,0.0599422,0.217564,0.673798
0.0897368,-0.249431,-0.157414,-0.026771,0.0577577,0.231301,0.673798
-0.0923657,-0.030254,-0.192778,-0.0331821,0.0427485,0.241433,0.673798
-0.249642,0.137149,-0.211109,-0.0345166,0.0151059,0.230096,0.673798
-0.310811,0.183265,-0.212529,-0.0165439,-0.00986266,0.222125,0.673798
-0.268569,0.0740233,-0.2079,0.0105969,-0.0224227,0.184977,0.673798
-0.15748,-0.042513,-0.177571,0.0156409,-0.0225292,0.147429,0.673798
0.00160159,-0.0468634,-0.0796724,-0.00175652,-0.0346119,0.131022,0.673798
0.123026,0.0515056,0.0198928,-0.016361,-0.0437223,0.127281,0.673798
0.118284,0.0735572,0.0570163,-0.0224622,-0.0543824,0.111768,0.673798
0.0177901,-0.0162268,0.0253114,-0.0174219,-0.0639613,0.085825,0.673798
-0.104932,-0.0842542,-0.0421574,-0.0325705,-0.0607068,0.0606128,0.673798
-0.201624,-0.111821,-0.081517,-0.050709,-0.0579187,0.0253965,0.673798
-0.240427,-0.0630378,-0.0450372,-0.0482713,-0.0812782,0.00760329,0.673798
-0.254782,0.0130892,0.0256013,-0.0514023,-0.0975206,3.29018e-05,0.673798
-0.287314,-0.0173897,0.0474003,-0.0634927,-0.0919445,-0.0355244,0.673798
-0.335486,-0.17778,-0.0420027,-0.0787257,-0.0717452,-0.110691,0.673798
-0.376013,-0.445301,-0.232573,-0.0845447,-0.0492332,-0.21564,0.673798
-0.344928,-0.557748,-0.379141,-0.0723602,-0.0485025,-0.27853,0.673798
-0.22055,-0.380663,-0.370666,-0.0665516,-0.0652249,-0.252146,0.673798
-0.0546617,-0.0918588,-0.231882,-0.073606,-0.0535059,-0.213724,0.673798
0.0350981,0.129199,-0.0432705,-0.0771546,-0.033353,-0.182418,0.673798
0.0371847,0.127182,0.0962501,-0.0278348,-0.0408171,-0.195374,0.673798
0.0132813,0.0685922,0.141377,0.0233454,-0.0393955,-0.177759,0.673798
0.0158956,0.00016914,0.137445,0.0501548,-0.0230967,-0.14481,0.673798
0.0151626,-0.0391507,0.110507,0.0231365,0.0114182,-0.123515,0.673798
-0.00345598,0.0338235,0.080074,0.00276001,0.0469552,-0.0919812,0.673798
-0.00202532,0.171927,0.106922,0.0262281,0.0535659,-0.0361273,0.673798
0.00252334,0.302277,0.197549,0.0600389,0.0516846,0.0316314,0.673798
-0.033791,0.343004,0.324565,0.0836413,0.0462871,0.0611556,0.673798
-0.0812775,0.373051,0.46575,0.0884528,0.0279319,0.0972393,0.673798
-0.136643,0.344725,0.557864,0.0709402,0.0226734,0.119049,0.673798
-0.163428,0.269902,0.545215,0.0409881,0.0406767,0.134822,0.673798
-0.142868,0.2235,0.45548,0.0249368,0.0652901,0.172429,0.673798
-0.0671374,0.227126,0.388234,0.0280708,0.0769503,0.224122,0.673798
-0.00274704,0.307002,0.387343,0.0358683,0.0637799,0.271075,0.673798
-0.0160542,0.401486,0.4249,0.039846,0.0340108,0.290916,0.673798
-0.0675922,0.415794,0.440334,0.0422637,0.0118329,0.292314,0.673798
-0.0675922,0.415794,0.440334,0.0422637,0.0118329,0.292314,0.755707
-0.0885398,0.34011,0.390952,0.0463349,0.0141239,0.287987,0.755707
-0.0699964,0.280425,0.307909,0.0414927,0.0170704,0.283142,0.755707
-0.0562078,0.217584,0.228413,0.0466703,-0.000933439,0.26493,0.755707
-0.0662954,0.152175,0.156428,0.0586885,-0.0162288,0.237948,0.755707
-0.099808,0.108017,0.0853642,0.066672,-0.0304973,0.227384,0.755707
-0.181494,0.0227975,0.0298886,0.07085,-0.0485282,0.194704,0.755707
-0.308726,-0.0619753,-0.0333637,0.0509607,-0.0564963,0.139893,0.755707
-0.474133,-0.194718,-0.150928,0.0226573,-0.0493016,0.0660557,0.755707
-0.647696,-0.350513,-0.276583,0.0223422,-0.0437769,-0.0320047,0.755707
-0.747304,-0.39456,-0.313028,0.030053,-0.0587848,-0.0875343,0.755707
-0.676949,-0.297077,-0.247905,0.0190697,-0.0623661,-0.15021,0.755707
-0.479515,-0.054474,-0.120447,-0.00531688,-0.0402799,-0.176564,0.755707
-0.270995,0.196636,0.0411023,-0.00371388,-0.0384572,-0.185428,0.755707
-0.0988929,0.212967,0.217584,0.0190411,-0.0523904,-0.194548,0.755707
0.112578,0.205335,0.35048,0.0224834,-0.0558108,-0.174928,0.755707
0.199668,-0.000162753,0.358672,0.0363494,-0.041755,-0.168806,0.755707
0.0955097,-0.375853,0.276503,0.0721023,-0.0513482,-0.210362,0.755707
-0.0985451,-0.614627,0.207177,0.0973887,-0.0828067,-0.239211,0.755707
-0.265752,-0.610101,0.162542,0.0838782,-0.0865979,-0.247832,0.755707
-0.394144,-0.547271,0.105083,0.0439612,-0.0309193,-0.280044,0.755707
-0.485914,-0.465,0.0179823,-0.0225229,0.00851795,-0.333342,0.755707
-0.545278,-0.336924,-0.108637,-0.0601719,0.0280808,-0.33786,0.755707
-0.522311,-0.202509,-0.209716,-0.0475594,0.0440107,-0.303076,0.755707
-0.37043,-0.0183303,-0.207005,-0.0106129,0.0443068,-0.207866,0.755707
-0.172518,0.162315,-0.125788,0.00367281,0.0524004,-0.110485,0.755707
0.0223382,0.278953,-0.012679,-0.0105751,0.0478719,-0.0328588,0.755707
0.174306,0.303749,0.0879399,-0.041967,0.0286711,0.0370322,0.755707
0.231015,0.203961,0.07476,-0.0659966,0.0231235,0.0939374,0.755707
0.181669,-0.128804,-0.0255682,-0.0471519,0.0224709,0.0987235,0.755707
0.160662,-0.389018,-0.0852774,-0.0109224,-0.00111032,0.122988,0.755707
0.206337,-0.503941,-0.0635526,-0.0217277,0.0062184,0.161635,0.755707
0.287711,-0.48126,-0.00646216,-0.0423343,0.0200348,0.18023,0.755707
0.364491,-0.283879,0.0748824,-0.0546528,0.0211397,0.228745,0.755707
0.374939,-0.00945728,0.141378,-0.0519529,0.0159938,0.27332,0.755707
0.284656,0.129378,0.158662,-0.0413189,0.00212766,0.28498,0.755707
0.151521,0.117235,0.156193,-0.0280131,-0.0160205,0.280677,0.755707
0.0697457,0.141571,0.152136,-0.0208321,-0.0321412,0.29733,0.755707
0.040714,0.215514,0.148724,-0.0204726,-0.036184,0.315635,0.755707
0.0175918,0.295392,0.16319,-0.0124177,-0.044918,0.32479,0.755707
-0.0257946,0.293217,0.188542,0.0159817,-0.06312,0.326517,0.755707
-0.0518737,0.162746,0.205667,0.0478895,-0.0729787,0.295912,0.755707
-0.0401542,0.0377214,0.1921,0.0589073,-0.0686809,0.286597,0.755707
-0.0526171,-0.0467936,0.151645,0.0345203,-0.06124,0.270319,0.755707
-0.147804,-0.115101,0.113092,0.0138807,-0.0713797,0.235546,0.755707
-0.339463,-0.123883,0.0808237,-0.00723806,-0.0875376,0.209242,0.755707
-0.557571,-0.14127,0.0426903,-0.0133204,-0.100269,0.165947,0.755707
-0.710534,-0.139933,0.00706362,-0.0199831,-0.108803,0.104248,0.755707
-0.754891,-0.0458114,-0.00139428,-0.0398263,-0.115299,0.0524115,0.755707
-0.735011,0.0764911,0.0247402,-0.0516006,-0.127711,0.0055877,0.755707
-0.659242,0.255545,0.0642436,-0.0620381,-0.156231,-0.02952,0.755707
-0.659242,0.255545,0.0642436,-0.0620381,-0.156231,-0.02952,0.959167
-0.529939,0.38482,0.116144,-0.0627969,-0.170714,-0.0457676,0.959167
-0.380417,0.301003,0.183959,-0.0522607,-0.182109,-0.0819325,0.959167
-0.202069,0.0844804,0.211139,-0.0791989,-0.193673,-0.156583,0.959167
0.042429,-0.191849,0.0857189,-0.106469,-0.207221,-0.261865,0.959167
0.336488,-0.354891,-0.131339,-0.0874439,-0.172292,-0.357664,0.959167
0.538652,-0.304505,-0.220261,-0.0603169,-0.114262,-0.369026,0.959167
0.51787,-0.109042,-0.119923,-0.0280803,-0.0741322,-0.373171,0.959167
0.259559,0.0518847,0.0880898,-0.0186896,-0.0468418,-0.392497,0.959167
-0.108768,0.0501289,0.284367,-0.0356281,-0.0191529,-0.413234,0.959167
-0.359265,0.0161172,0.357592,-0.0577157,0.0297267,-0.399903,0.959167
-0.423466,-0.00247304,0.304646,-0.0761682,0.0780296,-0.37971,0.959167
-0.342947,0.0762859,0.182396,-0.0770844,0.111981,-0.341548,0.959167
-0.178803,0.259641,0.0970855,-0.0402942,0.127873,-0.258479,0.959167
0.015497,0.479098,0.12431,0.0243466,0.133904,-0.139021,0.959167
0.161581,0.550266,0.253615,0.0610282,0.144975,-0.0419564,0.959167
0.250626,0.468287,0.423026,0.0867573,0.142166,0.0120379,0.959167
0.292454,0.279496,0.5382,0.0910937,0.139457,0.0359669,0.959167
0.334414,0.120945,0.563269,0.0884424,0.133169,0.0487102,0.959167
0.424534,0.0915526,0.518869,0.0754644,0.129951,0.0614136,0.959167
0.516872,0.202955,0.450564,0.0703432,0.128007,0.102769,0.959167
0.57056,0.361098,0.428483,0.0901333,0.109696,0.152073,0.959167
0.54932,0.410428,0.462793,0.119391,0.08703,0.186949,0.959167
0.484483,0.356408,0.530964,0.129092,0.0802145,0.210916,0.959167
0.416576,0.25787,0.579093,0.131003,0.0752361,0.217241,0.959167
0.365944,0.205872,0.564464,0.123438,0.072074,0.20851,0.959167
0.332694,0.22531,0.492188,0.123643,0.0686071,0.208421,0.959167
0.284904,0.268097,0.405242,0.118343,0.0698628,0.202787,0.959167
0.23212,0.294781,0.362888,0.107788,0.0720779,0.181225,0.959167
0.199971,0.328849,0.387164,0.124328,0.0673268,0.173598,0.959167
0.168084,0.335848,0.458428,0.146196,0.0620318,0.17761,0.959167
0.116725,0.305787,0.561977,0.1613,0.0594474,0.178392,0.959167
0.0310531,0.247547,0.679363,0.150921,0.0615497,0.173185,0.959167
-0.0708602,0.171567,0.766653,0.117918,0.0614303,0.132255,0.959167
-0.134266,0.114173,0.804861,0.10785,0.0474105,0.11819,0.959167
-0.162694,0.00772125,0.804879,0.100429,0.0444032,0.0814584,0.959167
-0.182204,-0.0479202,0.835179,0.0775103,0.0467463,0.0476789,0.959167
-0.182019,0.0100892,0.891415,0.0586406,0.0347618,0.0281752,0.959167
-0.164837,0.170994,0.946074,0.0483967,0.0109564,0.0387107,0.959167
-0.13855,0.3096,0.98989,0.0351421,-0.0136771,0.0565051,0.959167
-0.111569,0.333248,1.01788,0.0219719,-0.0277017,0.0687309,0.959167
-0.0981474,0.225433,1.00904,0.0124681,-0.0478906,0.0538819,0.959167
-0.100142,0.0570885,0.962445,0.0196925,-0.0690201,0.0362126,0.959167
-0.0923991,-0.0497392,0.873846,0.0358091,-0.0830525,0.0196992,0.959167
-0.0999435,-0.0838123,0.775689,0.0324847,-0.0730145,-0.00763357,0.959167
-0.123852,-0.0198359,0.720767,0.0344051,-0.0649628,-0.0378425,0.959167
-0.179763,0.156339,0.662793,0.0447435,-0.0806576,-0.0751671,0.959167
-0.213594,0.354023,0.549362,0.0276291,-0.0982168,-0.14907,0.959167
-0.228353,0.309372,0.404039,0.0137591,-0.0836482,-0.267422,0.959167
-0.254894,0.321259,0.337706,0.0112968,-0.0528371,-0.310364,0.959167
-0.321746,0.449514,0.421614,0.0130948,-0.0410836,-0.336606,0.959167
-0.321746,0.449514,0.421614,0.0130948,-0.0410836,-0.336606,1.15997
-0.439162,0.553303,0.55573,0.0216938,-0.0341407,-0.366286,1.15997
-0.580288,0.620972,0.622363,0.0308848,-0.03988,-0.378229,1.15997
-0.656911,0.566422,0.6118,0.0281086,-0.0318527,-0.373997,1.15997
-0.553584,0.407778,0.62791,0.0228302,-0.00733863,-0.347981,1.15997
-0.28581,0.262572,0.689976,0.00297301,0.0294028,-0.295826,1.15997
0.0413844,0.266755,0.801484,-0.00664279,0.0610834,-0.198584,1.15997
0.293262,0.274074,0.929824,0.00119883,0.0713296,-0.0935803,1.15997
0.426518,0.219061,1.06913,0.00126284,0.0743452,-0.0153846,1.15997
0.508563,0.141945,1.1704,-0.0169985,0.0712311,0.0414055,1.15997
0.60044,0.00519428,1.20794,-0.0264557,0.0740329,0.0677129,1.15997
0.713218,-0.0478725,1.18949,-0.0526333,0.0909409,0.109885,1.15997
0.770674,-0.0493406,1.12654,-0.0726915,0.0991,0.149955,1.15997
0.752424,-0.0464287,1.07609,-0.0671741,0.0840047,0.195139,1.15997
0.705017,-0.0229955,1.05118,-0.0656388,0.0552714,0.223454,1.15997
0.681179,0.0747491,0.978566,-0.0686535,0.0387825,0.248885,1.15997
0.686491,0.192525,0.915436,-0.0554579,0.0300062,0.278149,1.15997
0.732084,0.327789,0.99432,-0.0385136,0.023838,0.320926,1.15997
0.792699,0.543607,1.21738,-0.0320669,0.0168336,0.383042,1.15997
0.854975,0.895591,1.41242,-0.0535182,0.00398785,0.447548,1.15997
0.921063,1.2473,1.38909,-0.11549,0.0193119,0.470465,1.15997
0.812301,1.16734,1.10636,-0.182048,0.0372284,0.428199,1.15997
0.294807,0.19267,0.696191,-0.178342,0.0183471,0.27968,1.15997
-0.22493,-1.07848,0.397198,-0.0586924,-0.122684,0.130116,1.15997
-0.20302,-1.91956,0.15671,0.00901577,-0.17907,-0.000521064,1.15997
0.178728,-2.13908,-0.071094,0.0237531,-0.097405,-0.133523,1.15997
0.479691,-1.77735,-0.116312,0.0480592,-0.0570003,-0.157943,1.15997
0.436331,-1.29121,0.0384334,0.0427334,-0.0390001,-0.159172,1.15997
0.112677,-0.80285,0.278268,0.0188596,-0.00787753,-0.141032,1.15997
-0.1844,-0.355062,0.465458,0.00481485,-0.0106074,-0.148449,1.15997
-0.177569,0.0458976,0.503679,-0.0268516,-0.00658795,-0.19732,1.15997
0.0858397,0.411159,0.46022,-0.0631541,0.0451708,-0.229306,1.15997
0.394285,0.7832,0.477337,-0.0832073,0.1071,-0.149321,1.15997
0.552257,0.964434,0.608975,-0.0626367,0.131304,-0.0542942,1.15997
0.542212,0.94681,0.788729,-0.041277,0.146236,0.018503,1.15997
0.442638,0.749105,0.915243,-0.034591,0.157763,0.0357448,1.15997
0.354602,0.562534,0.966663,-0.0303501,0.14996,0.00825828,1.15997
0.205787,0.426198,0.932486,-0.0244861,0.154778,-0.0233769,1.15997
-0.0179264,0.450566,0.878795,-0.0402908,0.161668,-0.0450157,1.15997
-0.239269,0.575463,0.773534,-0.0555315,0.158549,-0.0827856,1.15997
-0.417183,0.722718,0.610683,-0.0451944,0.161667,-0.1147,1.15997
-0.484312,0.822762,0.497874,0.00119127,0.144306,-0.136057,1.15997
-0.400888,0.768997,0.515124,0.0500247,0.122022,-0.172805,1.15997
-0.219216,0.742936,0.585088,0.0634874,0.115496,-0.165737,1.15997
-0.0787717,0.648501,0.578024,0.0659669,0.100387,-0.127571,1.15997
-0.109945,0.436479,0.432768,0.0661807,0.0763207,-0.0942501,1.15997
-0.351569,0.271337,0.110401,0.0282907,0.061493,-0.0701674,1.15997
-0.634108,0.307719,-0.246873,-0.0130609,0.0347974,-0.0867083,1.15997
-0.759332,0.504162,-0.602817,-0.0473426,0.00592169,-0.116676,1.15997
-0.76291,0.527524,-0.900271,-0.013184,-0.00742021,-0.139251,1.15997
-0.722268,0.279644,-0.932406,0.0402745,-0.0324153,-0.140466,1.15997
-0.722268,0.279644,-0.932406,0.0402745,-0.0324153,-0.140466,1.35022
-0.686138,-0.0742146,-0.767851,0.0699677,-0.0270156,-0.125464,1.35022
-0.602932,-0.278344,-0.521269,0.0700506,-0.0192704,-0.119866,1.35022
-0.456468,-0.249199,-0.253347,0.0470118,-0.00369656,-0.0814415,1.35022
-0.270166,-0.103098,-0.0325908,0.0232501,0.0194681,-0.0367257,1.35022
-0.0986674,-0.006348,0.116663,0.0168687,0.0277566,0.0256622,1.35022
-0.0260938,-0.0936593,0.18215,0.0105696,0.0418439,0.0772486,1.35022
-0.031542,-0.183003,0.180768,0.0146277,0.0529191,0.127764,1.35022
0.0160957,-0.112987,0.0943614,0.00126837,0.0646856,0.161,1.35022
0.146834,-0.0019167,-0.0635625,-0.00151836,0.0863016,0.16884,1.35022
0.22631,0.122054,-0.177458,0.0165162,0.110471,0.227083,1.35022
0.137381,0.124869,-0.17984,0.0372965,0.112617,0.270102,1.35022
-0.00677995,0.0298769,-0.133368,0.0551963,0.074717,0.261748,1.35022
-0.106703,0.00988523,-0.104877,0.0722525,0.0257749,0.236768,1.35022
-0.158808,0.104344,-0.027978,0.0670736,-0.0290237,0.223553,1.35022
-0.152433,0.0990233,0.0040753,0.0184134,-0.06138,0.169322,1.35022
-0.109281,0.134036,-0.252258,-0.0569673,-0.0246453,0.150903,1.35022
-0.208813,-0.135982,-0.703619,-0.00551439,0.00996082,0.083361,1.35022
-0.321398,-0.634933,-0.785793,0.152751,-0.0429299,0.0373892,1.35022
-0.344952,-1.12241,-0.47078,0.257239,-0.068769,0.0401266,1.35022
-0.369993,-1.45159,-0.0623196,0.229541,-0.00961617,0.0192546,1.35022
-0.265432,-1.25903,0.301617,0.127074,0.0113153,0.0290707,1.35022
-0.0928664,-0.822188,0.467583,0.0335326,-0.0106874,0.00468552,1.35022
0.00594571,-0.268338,0.353327,-0.0277751,-0.0127906,-0.00190467,1.35022
-0.0862045,0.0179775,0.0756876,-0.020702,-0.0229908,0.00480855,1.35022
-0.318589,-0.00916559,-0.145891,0.04408,-0.0560138,-0.0108247,1.35022
-0.446051,0.0569374,-0.166215,0.0805905,-0.10077,0.0168137,1.35022
-0.425284,0.256776,-0.0556838,0.0944233,-0.112468,0.0285103,1.35022
-0.322061,0.53672,0.114895,0.101872,-0.131026,0.0553589,1.35022
-0.288668,0.62742,0.22296,0.106003,-0.151725,0.0388035,1.35022
-0.358758,0.477097,0.203192,0.118273,-0.181749,-0.0117489,1.35022
-0.407046,0.236266,0.125793,0.127748,-0.198206,-0.0592474,1.35022
-0.349024,-0.0670691,0.139904,0.139498,-0.213609,-0.105117,1.35022
-0.232266,-0.283994,0.260228,0.153474,-0.216696,-0.136178,1.35022
-0.140973,-0.453532,0.343967,0.14976,-0.201118,-0.203415,1.35022
-0.14167,-0.608643,0.332322,0.102746,-0.149144,-0.298162,1.35022
-0.223827,-0.781519,0.222336,0.0274973,-0.0905942,-0.38731,1.35022
-0.301117,-0.878515,0.0462121,-0.0320596,-0.0525413,-0.465325,1.35022
-0.249116,-0.761509,-0.124948,-0.0644981,-0.0241713,-0.467745,1.35022
-0.0981777,-0.482941,-0.231374,-0.077264,0.025349,-0.408416,1.35022
0.0615095,-0.0823702,-0.226974,-0.0844754,0.0722895,-0.306153,1.35022
0.162897,0.225404,-0.116334,-0.0579525,0.0948702,-0.209813,1.35022
0.264788,0.39539,0.103009,-0.0258259,0.103257,-0.0899838,1.35022
0.441251,0.506979,0.392563,-0.00918509,0.103687,0.0370529,1.35022
0.651942,0.495054,0.672146,-0.0331978,0.10106,0.123905,1.35022
0.84895,0.322085,0.863179,-0.0560791,0.0843218,0.165264,1.35022
0.986103,0.0797324,0.922022,-0.0680055,0.069897,0.183911,1.35022
1.04954,-0.125635,0.854132,-0.0555291,0.0481102,0.201131,1.35022
1.05663,-0.192528,0.756326,-0.0316963,0.0176572,0.228589,1.35022
1.02235,-0.0944266,0.673896,-0.0246241,-0.0132147,0.270395,1.35022
0.931786,-0.0180019,0.592345,-0.0283868,-0.0245009,0.264969,1.35022
0.931786,-0.0180019,0.592345,-0.0283868,-0.0245009,0.264969,1.55898
0.816171,0.0764636,0.521686,-0.0136719,-0.0441958,0.25549,1.55898
0.66039,0.0515098,0.499854,0.0320687,-0.103731,0.234195,1.55898
0.545954,-0.0623379,0.457729,0.0483404,-0.134254,0.179886,1.55898
0.509192,-0.150424,0.332603,0.0199245,-0.104385,0.134569,1.55898
0.501127,-0.217335,0.173004,0.0150289,-0.0750301,0.103419,1.55898
0.487884,-0.264139,0.0531086,0.0212482,-0.0465801,0.0874138,1.55898
0.454036,-0.169238,-0.0436222,0.0154859,-0.00187317,0.100316,1.55898
0.376686,0.0180777,-0.122724,-0.00924793,0.0555397,0.125938,1.55898
0.250458,0.135498,-0.152067,-0.0151938,0.0919786,0.114526,1.55898
0.121061,0.21686,-0.0927724,-0.00510712,0.108778,0.131318,1.55898
0.0179607,0.222386,0.0526811,-0.00431128,0.131242,0.145761,1.55898
-0.043744,0.253497,0.220246,-0.0244492,0.14385,0.155176,1.55898
-0.0811149,0.361394,0.357667,-0.0412579,0.140366,0.160744,1.55898
-0.119313,0.457373,0.417464,-0.0347796,0.121074,0.15781,1.55898
-0.165961,0.464536,0.445047,-0.0118432,0.0943963,0.13239,1.55898
-0.201619,0.532396,0.507349,-0.0172628,0.0631008,0.136727,1.55898
-0.271083,0.533801,0.565719,-0.0407151,0.0246148,0.115451,1.55898
-0.395068,0.246549,0.540947,-0.0614979,-0.0107806,0.0160798,1.55898
-0.45581,-0.139564,0.431139,-0.0550226,-0.0462587,-0.104586,1.55898
-0.382644,-0.272477,0.276126,-0.0504895,-0.070617,-0.163506,1.55898
-0.267581,-0.228074,0.0793246,-0.07433,-0.0678595,-0.22402,1.55898
-0.234549,-0.229592,-0.145638,-0.112899,-0.0374215,-0.285068,1.55898
-0.259762,-0.32696,-0.354116,-0.113822,-0.00409672,-0.314822,1.55898
-0.250752,-0.39276,-0.472761,-0.0983882,0.0245139,-0.30345,1.55898
-0.140847,-0.23868,-0.482031,-0.0902321,0.0523144,-0.260579,1.55898
0.0101029,0.156846,-0.368245,-0.0803346,0.0755933,-0.19367,1.55898
0.0661478,0.559923,-0.174554,-0.0666559,0.0952868,-0.132086,1.55898
-0.0733794,0.732612,0.00998948,-0.0634229,0.104041,-0.111325,1.55898
-0.372802,0.641918,0.0909568,-0.0365158,0.100247,-0.123762,1.55898
-0.648935,0.56062,0.0755826,-0.0363076,0.0999865,-0.113183,1.55898
-0.778521,0.573016,0.0342049,-0.0355801,0.104801,-0.0855663,1.55898
-0.758469,0.649795,0.0550741,-0.00119798,0.094028,-0.0411361,1.55898
-0.636223,0.731502,0.154235,0.0204945,0.0788088,0.00251979,1.55898
-0.467231,0.575545,0.28367,0.045725,0.0570983,-0.0207656,1.55898
-0.269555,0.236545,0.420275,0.0678549,0.0510953,-0.012699,1.55898
-0.0502029,-0.194436,0.542395,0.0812359,0.0606708,-0.0187876,1.55898
0.219899,-0.359678,0.631888,0.0638685,0.0651522,0.0260758,1.55898
0.471693,-0.281955,0.700841,0.0467956,0.0664549,0.0843023,1.55898
0.63244,-0.13031,0.767322,0.0453833,0.0623112,0.142109,1.55898
0.711383,-0.0127915,0.83537,0.0488231,0.0650917,0.187503,1.55898
0.737891,0.132943,0.887446,0.0356703,0.0672294,0.233974,1.55898
0.693255,0.292835,0.898701,0.0321949,0.0586672,0.264939,1.55898
0.583344,0.404112,0.86293,0.0292074,0.0364311,0.263736,1.55898
0.403967,0.513303,0.774866,0.0202199,0.00630513,0.267209,1.55898
0.16622,0.468603,0.653084,0.00886762,-0.014551,0.237678,1.55898
-0.0655381,0.272489,0.545347,-0.000606824,-0.0425933,0.182374,1.55898
-0.20309,0.117684,0.427372,-0.00172847,-0.0762509,0.144583,1.55898
-0.253287,0.0678344,0.260579,-0.0101496,-0.0696132,0.125626,1.55898
-0.251315,0.0827429,0.0969263,-0.0266023,-0.0498149,0.104886,1.55898
-0.249403,0.106757,-0.011076,-0.0386119,-0.0399169,0.0958748,1.55898
-0.249403,0.106757,-0.011076,-0.0386119,-0.0399169,0.0958748,1.77827
-0.318322,0.00566642,-0.104658,-0.0334931,-0.0250714,0.0649377,1.77827
-0.431093,-0.172605,-0.199576,-0.0301575,-0.00835493,0.028802,1.77827
-0.484188,-0.237361,-0.256379,-0.033619,-0.0133809,0.00905448,1.77827
-0.453394,-0.078727,-0.255073,-0.0468505,-0.0181035,0.0258288,1.77827
-0.369819,0.155085,-0.173913,-0.0504585,-0.0261215,0.036938,1.77827
-0.322438,0.202477,-0.0436669,-0.0339596,-0.0421095,0.0241238,1.77827
-0.302324,0.036575,0.0149033,-0.0199318,-0.0662018,-0.0291474,1.77827
-0.311101,-0.208262,-0.0879261,-0.033416,-0.0719315,-0.112367,1.77827
-0.307191,-0.32624,-0.259292,-0.0481516,-0.0723238,-0.188071,1.77827
-0.28939,-0.246532,-0.324573,-0.0542109,-0.0577074,-0.222463,1.77827
-0.287881,-0.101322,-0.236436,-0.0648633,-0.0409445,-0.261529,1.77827
-0.2883,-0.00261856,-0.101165,-0.0791713,-0.0255767,-0.28033,1.77827
-0.336478,-0.174255,-0.100751,-0.0983657,0.00941987,-0.326512,1.77827
-0.423818,-0.389421,-0.268934,-0.0877647,0.026537,-0.341348,1.77827
-0.548726,-0.552611,-0.517789,-0.0966312,0.0261726,-0.354653,1.77827
-0.64218,-0.642949,-0.682023,-0.117274,0.0287065,-0.360688,1.77827
-0.615569,-0.639393,-0.719602,-0.1369,0.042286,-0.32475,1.77827
-0.437499,-0.503751,-0.672698,-0.156759,0.0728755,-0.279079,1.77827
-0.165633,-0.215289,-0.616407,-0.158684,0.0975548,-0.201134,1.77827
0.0857339,0.153446,-0.589936,-0.126219,0.11304,-0.0999531,1.77827
0.209112,0.477318,-0.578263,-0.0788053,0.106462,0.0241916,1.77827
0.199636,0.547534,-0.537675,-0.0475716,0.0941811,0.0960141,1.77827
0.122681,0.526119,-0.436373,-0.0535732,0.0706163,0.172175,1.77827
-0.00404528,0.356305,-0.361759,-0.0734018,0.0555792,0.208964,1.77827
-0.068168,0.0735538,-0.398124,-0.0942917,0.0555839,0.184605,1.77827
-0.00327155,-0.143346,-0.542461,-0.097892,0.0554131,0.188132,1.77827
0.118722,-0.240705,-0.696896,-0.0566704,0.0485726,0.200567,1.77827
0.202855,-0.205987,-0.783509,-0.0272729,0.0325998,0.226467,1.77827
0.242188,-0.162243,-0.791123,-0.00968163,0.0242547,0.231145,1.77827
0.263898,-0.159057,-0.721102,0.0157618,0.0197116,0.238959,1.77827
0.283226,-0.201493,-0.606646,0.0447867,0.0171124,0.23849,1.77827
0.290486,-0.197083,-0.472139,0.0420967,0.00896554,0.224037,1.77827
0.267563,-0.161906,-0.370009,0.0300759,-0.000347272,0.214917,1.77827
0.226008,-0.113268,-0.320657,0.016025,0.000520051,0.207536,1.77827
0.188564,-0.0496083,-0.313601,0.00935241,-0.00300169,0.20811,1.77827
0.153063,0.0272074,-0.334451,0.00606149,-0.00845838,0.210539,1.77827
0.0899928,0.0835947,-0.355732,0.0087279,-0.014092,0.200027,1.77827
0.00323367,0.0571327,-0.331081,0.0196463,-0.0241887,0.185847,1.77827
-0.0951302,-0.0160809,-0.277886,0.0152292,-0.0305013,0.163075,1.77827
-0.189952,-0.0211297,-0.257116,-0.00971111,-0.0355031,0.139797,1.77827
-0.271833,0.0173082,-0.278283,-0.0301521,-0.0335092,0.122865,1.77827
-0.353837,0.00998194,-0.321825,-0.0408645,-0.0290887,0.0949408,1.77827
-0.399307,0.0175771,-0.326672,-0.0397483,-0.0412066,0.0695556,1.77827
-0.407065,0.0665218,-0.28634,-0.0354989,-0.0534107,0.0694134,1.77827
-0.39736,0.0913579,-0.207137,-0.0309022,-0.0566568,0.0615916,1.77827
-0.36623,0.14432,-0.122624,-0.0463013,-0.070062,0.0559862,1.77827
-0.348509,0.169185,-0.105419,-0.0888711,-0.0804654,0.0471188,1.77827
-0.35159,0.0216487,-0.216373,-0.123652,-0.0849998,-0.0552253,1.77827
-0.362382,-0.125865,-0.41711,-0.117356,-0.0912805,-0.131901,1.77827
-0.385614,-0.245743,-0.53271,-0.0737197,-0.0724254,-0.214546,1.77827
-0.385614,-0.245743,-0.53271,-0.0737197,-0.0724254,-0.214546,1.97646
-0.377248,-0.138516,-0.368244,-0.0541352,-0.0352182,-0.245627,1.97646
-0.28072,0.158905,0.0224929,-0.0412591,-0.0377832,-0.244825,1.97646
-0.108967,0.400464,0.340123,-0.011847,-0.0564126,-0.260171,1.97646
0.125197,0.564548,0.380376,-0.00713919,-0.0411908,-0.281979,1.97646
0.260575,0.2413,0.15111,0.0208491,0.0129051,-0.31685,1.97646
0.231621,-0.410997,-0.160961,0.0416968,0.0614123,-0.354322,1.97646
0.173437,-1.02603,-0.333962,0.0442028,0.0805208,-0.381371,1.97646
0.339483,-1.14568,-0.292845,0.0139599,0.0819297,-0.35747,1.97646
0.636804,-0.806407,-0.149511,-0.00455631,0.0849226,-0.283724,1.97646
0.833353,-0.0982965,-0.005411,-0.00349727,0.0764845,-0.164785,1.97646
0.758413,0.467069,0.102179,0.0381526,0.0604948,-0.0812413,1.97646
0.567335,0.739676,0.285494,0.0594687,0.0593443,-0.00666636,1.97646
0.376567,0.805557,0.477196,0.0457517,0.0556849,0.0584379,1.97646
0.240353,0.666855,0.528751,0.0292712,0.0673556,0.0690995,1.97646
0.2461,0.510308,0.450276,0.0112432,0.0768649,0.062982,1.97646
0.362781,0.385363,0.345971,-0.00125331,0.0865704,0.0648798,1.97646
0.490995,0.26944,0.276802,0.00561032,0.0892034,0.084314,1.97646
0.589681,0.199287,0.243127,0.00742363,0.0688587,0.144088,1.97646
0.579268,0.0526304,0.164662,-0.00064303,0.063373,0.179243,1.97646
0.489773,0.0458963,0.0689199,-0.00347386,0.0682965,0.204849,1.97646
0.380918,0.247968,0.0508175,-0.0106841,0.0582422,0.233312,1.97646
0.227331,0.460592,0.0833201,-0.00195425,0.0459837,0.23755,1.97646
0.0219363,0.554147,0.100534,0.0100098,0.0366831,0.23924,1.97646
-0.120351,0.552778,0.104937,0.010658,0.0246841,0.215552,1.97646
-0.139122,0.580752,0.0860531,-0.0189161,0.0110269,0.169184,1.97646
-0.106335,0.665819,0.0317956,0.00031844,0.00509655,0.172563,1.97646
-0.114212,0.726274,0.0484302,0.0285233,-0.00220673,0.194589,1.97646
-0.207864,0.647015,0.192955,0.0294982,-0.0326053,0.189625,1.97646
-0.359196,0.602816,0.271265,-0.00943787,-0.0636038,0.175884,1.97646
-0.491434,0.413192,0.170925,-0.0433339,-0.0708396,0.131641,1.97646
-0.423889,0.163627,0.00605296,-0.0452635,-0.0586393,0.0895573,1.97646
-0.127716,0.119673,-0.0567088,-0.0498345,-0.0578881,0.112896,1.97646
0.163879,0.127286,0.0116062,-0.0451346,-0.0720784,0.0975845,1.97646
0.258085,-0.0507884,0.0531452,-0.0143508,-0.0914627,0.0753444,1.97646
0.207613,-0.348157,0.0241951,0.0136641,-0.0756392,0.0462318,1.97646
0.108441,-0.414689,0.00781302,-0.00025446,-0.0639768,0.0348844,1.97646
-0.0510189,-0.246401,-0.0139654,-0.0485988,-0.0789969,0.0315862,1.97646
-0.237751,0.0195438,-0.0500823,-0.0614335,-0.0987754,0.0210508,1.97646
-0.387785,0.118206,-0.0463966,-0.0319579,-0.0971126,-0.013779,1.97646
-0.393129,-0.0457242,0.049496,0.0127283,-0.0993601,-0.10378,1.97646
-0.233628,-0.239251,0.165719,0.037131,-0.102387,-0.141373,1.97646
-0.0587174,-0.510523,0.148025,-0.0168089,-0.0460751,-0.247809,1.97646
0.105943,-0.475974,0.0353139,-0.0654929,-0.0506829,-0.332053,1.97646
0.207141,-0.440365,0.00150922,-0.0332957,-0.063709,-0.391722,1.97646
0.152454,-0.5683,0.0796186,0.0239586,-0.0319602,-0.415389,1.97646
-0.128857,-0.782471,0.100438,0.026763,-0.0197941,-0.421221,1.97646
-0.379205,-0.648989,-0.024478,-0.0229258,-0.00335814,-0.403409,1.97646
-0.389351,-0.150854,-0.140156,-0.0606584,0.0324027,-0.3188,1.97646
-0.245711,0.212379,-0.122718,-0.0585749,0.0427021,-0.213751,1.97646
-0.245711,0.212379,-0.122718,-0.0585749,0.0427021,-0.213751,2.15613
-0.0507172,0.28681,-0.0579139,-0.0152502,0.0625234,-0.139249,2.15613
0.103251,0.335335,-0.0447193,0.0119811,0.0675958,-0.0167309,2.15613
0.101803,0.237806,-0.097565,0.0392041,0.0519671,0.0395461,2.15613
0.0332324,0.0556866,-0.135874,0.0642584,0.035724,0.0517094,2.15613
0.000538576,-0.0877514,-0.13075,0.0542579,0.0420914,0.0412179,2.15613
0.0776802,-0.0226063,-0.0503775,-0.00571076,0.0504207,0.0532175,2.15613
0.222898,0.163488,-0.000312062,-0.0556491,0.0284453,0.0924717,2.15613
0.327056,0.316543,-0.0806925,-0.0787002,0.0326304,0.149833,2.15613
0.28704,0.346333,-0.246485,-0.0624736,0.0291997,0.200587,2.15613
0.159123,0.32816,-0.312125,-0.0462085,0.0431198,0.234736,2.15613
0.545143,0.302346,-0.235203,-0.0258722,0.0748951,0.351262,2.15613
0.668356,-0.0212412,0.0733945,0.0135138,-0.00268239,0.268045,2.15613
0.388893,-0.133882,0.240331,-0.0227035,-0.00414148,0.326806,2.15613
-0.132648,0.0739704,0.110531,-0.0830081,-0.00521119,0.29492,2.15613
-0.424963,0.55774,-0.140904,-0.105373,-0.00782309,0.300037,2.15613
