rotationRate_x,rotationRate_y,rotationRate_z,acceleration_x,acceleration_y,acceleration_z,relativeAltitude
0.511915,0.00733079,0.193873,0.00267963,0.1901,0.0906845,0.0237732
0.403411,-0.0846785,0.0771787,-0.0242372,0.160313,0.143838,0.0237732
0.259148,-0.0631595,-0.0667888,-0.0316259,0.168567,0.17027,0.0237732
0.126318,-0.0401361,-0.152034,-0.00834428,0.184372,0.193765,0.0237732
0.0116083,-0.148545,-0.167943,0.0244021,0.193862,0.211574,0.0237732
-0.0863949,-0.364569,-0.153658,0.0436698,0.198113,0.198843,0.0237732
-0.126302,-0.542112,-0.149816,0.0448212,0.193793,0.141779,0.0237732
-0.10175,-0.563756,-0.19816,0.0169353,0.205272,0.0864502,0.0237732
-0.039755,-0.442733,-0.269667,0.0131887,0.218132,0.0573404,0.0237732
0.0958953,-0.221405,-0.305922,0.0313738,0.223966,0.0767769,0.0237732
0.208238,-0.0596408,-0.309235,0.0539859,0.238853,0.173339,0.0237732
0.2288,-0.0509875,-0.274749,0.078769,0.241901,0.290669,0.0237732
0.209766,-0.108089,-0.281392,0.0892618,0.216746,0.389721,0.0237732
0.114972,-0.182573,-0.232442,0.0910884,0.185948,0.463552,0.0237732
-0.0304896,-0.211964,-0.254357,0.0911611,0.178179,0.531144,0.0237732
-0.092901,-0.453747,-0.301108,0.0594257,0.174738,0.568587,0.0237732
-0.1799,-0.850792,-0.311961,0.0698103,0.15145,0.558794,0.0237732
-0.323928,-1.18143,-0.23054,0.0824589,0.124814,0.475403,0.0237732
-0.571572,-1.18558,-0.097103,0.0853067,0.0719696,0.315875,0.0237732
-1.03723,-0.552475,-0.0250451,0.0677054,-0.0181651,0.0863626,0.0237732
-1.75864,0.240863,0.0543438,0.0486103,-0.0653629,-0.105453,0.0237732
-1.75864,0.240863,0.0543438,0.0486103,-0.0653629,-0.105453,0.0449219
-2.61891,0.648868,-0.0143357,0.0428813,-0.213471,-0.409799,0.0449219
-2.52953,0.729734,-0.207864,0.00625682,-0.319586,-0.917067,0.0449219
-1.61379,0.788962,-0.356838,0.00982041,-0.23924,-1.22422,0.0449219
-0.715524,1.03995,-0.14171,0.0421003,-0.191624,-1.2156,0.0449219
-0.268275,0.779775,0.14668,0.0543588,-0.227647,-0.990221,0.0449219
-0.151763,0.453803,0.280035,0.0181705,-0.292204,-0.80518,0.0449219
-0.0615834,0.348194,0.323324,-0.0798944,-0.293329,-0.693336,0.0449219
0.103635,0.411766,0.35413,-0.155439,-0.269932,-0.592385,0.0449219
0.394691,0.487702,0.373456,-0.203787,-0.244965,-0.45091,0.0449219
0.722097,0.508313,0.308658,-0.243583,-0.207311,-0.266646,0.0449219
0.919119,0.549955,0.209766,-0.252087,-0.156846,-0.0673859,0.0449219
0.982261,0.600392,0.13635,-0.235684,-0.0888739,0.118148,0.0449219
0.96447,0.581391,0.108831,-0.208772,-0.0256317,0.268274,0.0449219
0.94128,0.585101,0.116215,-0.188803,0.0276339,0.368108,0.0449219
0.872762,0.578979,0.130743,-0.169,0.0686025,0.461625,0.0449219
0.756227,0.50596,0.177158,-0.140061,0.0954993,0.532202,0.0449219
0.596869,0.287963,0.272491,-0.113345,0.122071,0.571184,0.0449219
0.420137,-0.12266,0.360502,-0.100083,0.133393,0.547172,0.0449219
0.273545,-0.400281,0.392611,-0.119191,0.143532,0.462777,0.0449219
0.0972936,-0.504627,0.369941,-0.132979,0.154171,0.38115,0.0449219
-0.0890716,-0.438374,0.30788,-0.131868,0.143907,0.289358,0.0449219
-0.196989,-0.260932,0.26095,-0.119255,0.135959,0.215125,0.0449219
-0.172689,0.0175644,0.230228,-0.0976768,0.126004,0.161208,0.0449219
-0.0643246,0.222901,0.237248,-0.078328,0.118072,0.163628,0.0449219
0.0973507,0.274737,0.263753,-0.0658663,0.0942532,0.203507,0.0449219
0.292923,0.275124,0.265726,-0.0628928,0.0700918,0.251752,0.0449219
0.481498,0.273243,0.24938,-0.0532833,0.0682653,0.313555,0.0449219
0.595687,0.216815,0.273603,-0.0432981,0.0744819,0.39139,0.0449219
0.537361,0.0175277,0.327562,-0.0376909,0.0729492,0.45151,0.0449219
0.318597,-0.20252,0.402057,-0.00734273,0.0465869,0.408754,0.0449219
0.0637391,-0.200765,0.458126,0.0207773,0.0328403,0.238025,0.0449219
-0.175682,-0.0733423,0.450695,0.0265172,0.00978413,-0.0106578,0.0449219
-0.414296,-0.259725,0.363182,0.0501493,-0.0602266,-0.243697,0.0449219
-0.584335,-0.736597,0.296373,0.0855986,-0.0939211,-0.499611,0.0449219
-0.562059,-0.91504,0.170899,0.00197753,-0.0714409,-0.765585,0.0449219
-0.42085,-0.518083,-0.0618792,-0.0559819,-0.0585988,-0.939254,0.0449219
-0.317678,0.16549,-0.27533,-0.0410104,-0.0669317,-0.932547,0.0449219
-0.312849,0.419518,-0.326435,0.0315796,-0.0542919,-0.765803,0.0449219
-0.346872,0.298677,-0.283091,0.0672775,-0.0432312,-0.603833,0.0449219
-0.294225,0.28854,-0.260186,0.0441049,-0.0328058,-0.493959,0.0449219
-0.233256,0.424708,-0.276554,0.0243248,-0.0193376,-0.34556,0.0449219
-0.187194,0.489953,-0.248918,0.0308069,-0.0130929,-0.177445,0.0449219
-0.177484,0.430363,-0.207373,0.0364819,-0.0151301,-0.0219278,0.0449219
-0.186282,0.300937,-0.12539,0.0401619,-0.0188099,0.0960953,0.0449219
-0.159863,0.232224,-0.052398,0.030518,-0.0112208,0.171003,0.0449219
-0.117648,0.224233,-0.0114745,0.0308845,-0.00521028,0.239126,0.0449219
-0.0819582,0.183313,0.0448509,0.0535143,0.00674695,0.30835,0.0449219
-0.0808079,0.0502563,0.138295,0.0746993,0.0255809,0.361461,0.0449219
-0.100381,-0.191114,0.243792,0.0951759,0.0414985,0.390895,0.0449219
-0.133574,-0.450511,0.361669,0.098593,0.051186,0.389099,0.0449219
-0.1657,-0.721283,0.433218,0.100115,0.0562239,0.374035,0.0449219
-0.1657,-0.721283,0.433218,0.100115,0.0562239,0.374035,0.0449219
-0.190072,-0.829676,0.418022,0.0702527,0.0594037,0.297112,0.0449219
-0.197469,-0.781997,0.362999,0.0586348,0.0449983,0.207193,0.0449219
-0.138874,-0.612545,0.328784,0.0678618,0.0321912,0.131282,0.0449219
0.010047,-0.335955,0.280519,0.0566982,0.030597,0.0776015,0.0449219
0.23597,-0.104919,0.190639,0.0276821,0.0391228,0.0759385,0.0449219
0.429826,-0.0290295,0.0557315,0.0219002,0.0414259,0.140684,0.0449219
0.508345,-0.00610266,-0.0772111,0.0362999,0.0379221,0.24101,0.0449219
0.475905,0.00755851,-0.182768,0.0526261,0.0587661,0.343695,0.0449219
0.378744,0.0388556,-0.251001,0.0654713,0.0861281,0.426367,0.0449219
0.224331,0.077392,-0.333918,0.0559452,0.111572,0.482671,0.0449219
0.0360133,0.10841,-0.419714,0.0296393,0.133997,0.511993,0.0449219
-0.173805,-0.0567894,-0.46957,0.0124836,0.149704,0.52202,0.0449219
-0.463994,-0.298178,-0.449633,0.0338761,0.157722,0.468909,0.0449219
-0.755177,0.00357713,-0.434085,0.0414788,0.131709,0.237011,0.0449219
-1.13686,0.562545,-0.534656,0.00366322,0.0900801,-0.0975845,0.0449219
-1.63492,0.549219,-0.783507,-0.0219502,0.0015803,-0.387432,0.0449219
-1.94163,0.348547,-0.946093,0.0311729,-0.112667,-0.682284,0.0449219
-1.69925,0.503275,-0.736172,0.055424,-0.103302,-1.09646,0.0449219
-0.903369,0.802938,-0.259751,0.0946776,-0.0301295,-1.39064,0.0449219
-0.0543367,0.684087,0.257869,0.145114,-0.0549226,-1.36972,0.0449219
0.378765,0.213388,0.739757,0.0866827,-0.123397,-0.929127,0.0449219
0.45117,-0.159951,1.05566,-0.0578838,-0.178562,-0.702655,0.0449219
0.522424,-0.281981,1.1994,-0.194286,-0.234792,-0.537931,0.0449219
0.699861,-0.176416,1.07983,-0.304553,-0.26121,-0.364075,0.0449219
0.890391,0.0421218,0.754821,-0.35651,-0.255019,-0.14233,0.0449219
0.971192,0.172174,0.450323,-0.336939,-0.199831,0.0903991,0.0449219
0.941769,0.186237,0.257181,-0.292616,-0.131158,0.298019,0.0449219
0.855925,0.122736,0.142927,-0.254939,-0.0720558,0.44305,0.0449219
0.779349,0.088144,0.0399857,-0.233625,-0.0190028,0.537803,0.0449219
0.708002,0.0502903,-0.0850461,-0.213254,0.0267654,0.601864,0.0449219
0.622953,0.0367157,-0.188507,-0.17833,0.0744986,0.650715,0.0449219
0.532493,0.0255541,-0.233023,-0.142256,0.124125,0.680321,0.0449219
0.446346,-0.00530277,-0.210429,-0.114154,0.172547,0.697983,0.0449219
0.302794,-0.118916,-0.152179,-0.0954254,0.20698,0.706265,0.0449219
0.0633455,-0.290807,-0.121353,-0.0823038,0.206584,0.671644,0.0449219
-0.117891,-0.439932,-0.0762809,-0.0535873,0.202574,0.566022,0.0449219
-0.205811,-0.582103,-0.00926681,-0.0551548,0.227437,0.469803,0.0449219
-0.318719,-0.795938,-0.00426569,-0.0823226,0.249226,0.362578,0.0449219
-0.46252,-0.811929,-0.0782445,-0.111542,0.224618,0.20802,0.0449219
-0.474845,-0.439436,-0.154972,-0.081507,0.203681,0.049877,0.0449219
-0.310799,0.0129167,-0.130937,-0.0461431,0.219154,-0.0416555,0.0449219
-0.0530673,0.363576,-0.0197984,-0.0206427,0.224856,-0.05704,0.0449219
0.23977,0.413368,0.173488,-0.0194644,0.216283,-0.0197343,0.0449219
0.450454,0.0666649,0.278883,-0.0633506,0.176811,-0.000216484,0.0449219
0.391417,-0.600205,0.225394,-0.0683349,0.0849781,-0.0399091,0.0449219
-0.0982438,-1.01879,0.0748454,-0.0412262,-0.0134438,-0.142179,0.0449219
-1.03775,-1.20429,-0.169276,-0.106173,-0.0497067,-0.319661,0.0449219
-1.80583,-1.18323,-0.453243,-0.170287,-0.0653675,-0.659633,0.0449219
-1.78442,-0.892983,-0.679473,-0.117955,-0.0188104,-1.05885,0.0449219
-1.05779,-0.387054,-0.642629,0.0283947,0.0436444,-1.22367,0.0449219
-1.05779,-0.387054,-0.642629,0.0283947,0.0436444,-1.22367,0
-0.32408,0.0173184,-0.386437,0.135503,0.0457225,-1.08687,0
0.0119182,0.263166,-0.135706,0.170891,-0.0194467,-0.781827,0
0.0537824,0.379017,-0.00824411,0.156312,-0.0891582,-0.473501,0
0.0277145,0.402104,0.0394613,0.140011,-0.125651,-0.23319,0
0.0630553,0.353788,0.0684278,0.130374,-0.125604,-0.0448483,0
0.117857,0.290224,0.0716489,0.130681,-0.122432,0.112517,0
0.116037,0.244902,0.0753075,0.148313,-0.119579,0.246178,0
0.0898093,0.202702,0.116398,0.16729,-0.105253,0.349781,0
0.0636389,0.144891,0.205794,0.188154,-0.0853278,0.411473,0
0.0712588,-0.0499118,0.330361,0.202072,-0.0679464,0.437044,0
0.113422,-0.347805,0.470026,0.188002,-0.0328898,0.435955,0
0.127424,-0.663115,0.580328,0.163036,0.0122559,0.403169,0
0.0604137,-0.801773,0.638385,0.151084,0.0275864,0.312575,0
-0.0154348,-0.689495,0.659828,0.152712,0.0244454,0.174088,0
-0.040203,-0.437987,0.611754,0.139193,0.0211845,0.0483878,0
-0.01299,-0.168484,0.509698,0.136442,0.00517924,-0.0218563,0
0.0440261,-0.00429938,0.410386,0.129835,0.00281928,-0.0346813,0
0.10031,0.0237543,0.264671,0.118625,-0.00892474,-0.0116752,0
0.165925,-0.0669987,0.141783,0.120661,-0.0026651,0.0200878,0
0.289998,-0.136539,0.0470261,0.128204,0.00531235,0.0364944,0
0.429873,2.19303e-05,-0.0439614,0.119205,0.0338419,0.0823827,0
0.487621,0.237163,-0.130407,0.10781,0.0526676,0.181544,0
0.459368,0.410627,-0.186109,0.105712,0.0633267,0.299098,0
0.381881,0.341299,-0.207675,0.110888,0.0761476,0.40146,0
0.235428,0.0170862,-0.232503,0.10719,0.0766268,0.430644,0
0.150647,-0.121083,-0.275124,0.105609,0.0533333,0.326388,0
0.154944,0.0437942,-0.293304,0.104088,0.0753456,0.218652,0
0.111022,0.350437,-0.162377,0.104889,0.0977422,0.108944,0
-0.0348075,0.614164,0.048321,0.0590828,0.0818482,-0.000642717,0
-0.245914,0.575373,0.0508115,-0.0509876,-0.000612721,-0.133732,0
-0.514512,0.176351,-0.180829,-0.0889167,-0.0993795,-0.277754,0
-0.831563,-0.216814,-0.400244,-0.139599,-0.137882,-0.493949,0
-1.09927,-0.336951,-0.50054,-0.221799,-0.081878,-0.755987,0
-1.00268,-0.0773743,-0.422295,-0.249248,-0.0184056,-0.99556,0
-0.631472,0.0809897,-0.196935,-0.216096,0.0363636,-1.05854,0
-0.228513,0.186697,0.196953,-0.178493,0.0621644,-0.961255,0
0.0437263,0.305763,0.591853,-0.176819,0.0133599,-0.777456,0
0.334848,0.464514,0.79219,-0.22297,-0.0626422,-0.552809,0
0.57011,0.501492,0.746622,-0.274598,-0.100041,-0.272686,0
0.607727,0.413534,0.633659,-0.261015,-0.12235,0.00971049,0
0.448297,0.25854,0.525756,-0.23717,-0.136924,0.239025,0
0.215765,0.103875,0.403063,-0.220797,-0.129111,0.385848,0
0.0499201,0.0083566,0.311906,-0.195549,-0.100571,0.442986,0
0.010321,-0.0122008,0.239407,-0.165168,-0.0640842,0.459777,0
0.0923223,-0.0367027,0.204633,-0.136217,-0.0242913,0.480138,0
0.207647,-0.153456,0.212357,-0.11196,0.000334486,0.491251,0
0.298294,-0.25688,0.229344,-0.0696232,0.00478928,0.495775,0
0.306924,-0.42918,0.25226,-0.0337223,0.00871462,0.502657,0
0.192891,-0.616425,0.254889,-0.0136051,-7.05868e-05,0.473932,0
0.0150377,-0.733092,0.241316,-0.0034465,-0.0191497,0.38223,0
-0.0441429,-0.612457,0.231578,0.00839877,-0.0204804,0.259243,0
0.0909769,-0.388389,0.237143,-0.0135107,0.00631666,0.150455,0
0.351007,-0.0634583,0.217527,-0.0419248,0.0210873,0.0984563,0
0.587219,0.231501,0.145698,-0.0686951,0.0181711,0.119839,0
0.713863,0.456403,0.00900348,-0.0654397,0.00728026,0.203023,0
0.667907,0.400302,-0.0678994,-0.0388477,0.0272548,0.286524,0
0.531609,0.151409,-0.0182676,-0.0101057,0.0542325,0.305193,0
0.370818,0.0090531,0.0900194,-0.00320999,0.0568737,0.237772,0
0.265683,0.106013,0.136162,-0.0360502,0.0194931,0.0974683,0
0.253153,0.267329,0.115268,-0.0579029,-0.0145603,-0.034858,0
0.213727,0.299251,0.102828,-0.0380776,-0.0182895,-0.107161,0
-0.0263997,0.023241,0.119523,0.000413962,-0.0519923,-0.147444,0
-0.361588,-0.496785,0.129545,-0.0270006,-0.111109,-0.293061,0
-0.505938,-0.630826,-0.000946825,-0.14462,-0.123026,-0.544413,0
-0.412882,-0.399853,-0.307303,-0.192159,-0.118338,-0.715387,0
-0.280722,-0.256894,-0.524707,-0.129936,-0.0775568,-0.731083,0
-0.290484,-0.317869,-0.584126,-0.0995104,-0.0285184,-0.682146,0
-0.301827,-0.322138,-0.648154,-0.117811,0.00678641,-0.654856,0
-0.175036,-0.0423537,-0.721929,-0.124423,0.042754,-0.600755,0
0.000294411,0.340983,-0.715294,-0.0828881,0.0852195,-0.447226,0
0.206892,0.593446,-0.579356,-0.0155941,0.0958904,-0.227115,0
0.423001,0.56206,-0.432507,0.00338522,0.10346,0.00692356,0
0.574222,0.316826,-0.348987,-0.00573816,0.100422,0.208083,0
0.586087,0.0244962,-0.342635,-0.0169818,0.0856745,0.3779,0
0.440871,-0.261555,-0.395581,-0.00560288,0.0794828,0.485207,0
0.221411,-0.432254,-0.423996,0.0277284,0.0902732,0.527942,0
0.221411,-0.432254,-0.423996,0.0277284,0.0902732,0.527942,0
0.0244331,-0.54094,-0.410923,0.0604975,0.106178,0.523086,0
-0.088723,-0.576719,-0.388434,0.0747877,0.12222,0.48426,0
-0.112161,-0.591696,-0.388309,0.0837585,0.126351,0.43956,0
-0.0693862,-0.661322,-0.419503,0.086015,0.129132,0.394478,0
0.00153834,-0.759773,-0.485195,0.10564,0.126238,0.33957,0
0.0566095,-0.720574,-0.536315,0.132034,0.13702,0.289103,0
0.0860068,-0.57603,-0.562706,0.17506,0.139139,0.262596,0
0.0604588,-0.421248,-0.559599,0.195894,0.128948,0.253876,0
-0.0832711,-0.378067,-0.650199,0.157714,0.119551,0.23339,0
-0.249627,-0.245009,-0.827532,0.11891,0.102061,0.162997,0
-0.293388,-0.0655923,-0.931871,0.115148,0.0953948,0.0857958,0
-0.257926,0.0778477,-0.937083,0.105919,0.121439,0.0370755,0
-0.186916,0.288989,-0.854495,0.122943,0.117112,0.00898677,0
-0.212136,0.49686,-0.705444,0.133096,0.0630872,0.0386525,0
-0.576506,0.503761,-0.609252,0.0920357,-0.00776663,0.07033,0
-1.10651,0.369628,-0.604096,0.0599022,-0.121865,-0.0214594,0
-1.4387,0.25011,-0.650503,-0.0431941,-0.128559,-0.229187,0
-1.41187,0.105676,-0.692717,-0.0831425,-0.0807793,-0.438095,0
-1.11167,-0.0614359,-0.591485,-0.0565462,-0.0387536,-0.566024,0
-0.834684,-0.0925669,-0.393575,-0.0570057,-0.0186686,-0.629949,0
-0.635831,0.127439,-0.204753,-0.0751815,-0.0654896,-0.648598,0
-0.524199,0.18939,-0.12219,-0.0946977,-0.110982,-0.579909,0
-0.484291,0.124792,-0.0903783,-0.115811,-0.137982,-0.485534,0
-0.488373,0.0960507,-0.071841,-0.158685,-0.153084,-0.401112,0
-0.396931,0.21423,-0.132467,-0.223071,-0.167119,-0.338744,0
-0.176534,0.362368,-0.28607,-0.235852,-0.168442,-0.219657,0
0.0740809,0.359776,-0.360392,-0.177349,-0.148938,-0.0441052,0
0.285701,0.291958,-0.345746,-0.117209,-0.11816,0.142752,0
0.383938,0.270286,-0.301907,-0.0766874,-0.0936131,0.319654,0
0.347456,0.262729,-0.217761,-0.0467579,-0.0925957,0.47009,0
0.251783,0.242798,-0.163842,-0.0445058,-0.0968937,0.573611,0
0.137267,0.200401,-0.191851,-0.0414854,-0.103,0.631486,0
-0.0539763,0.0863482,-0.213953,-0.00453857,-0.0972418,0.65773,0
-0.260404,-0.0487535,-0.126804,0.0349039,-0.0820326,0.620193,0
-0.336138,-0.0923158,-0.0214068,0.0327488,-0.0801209,0.51298,0
-0.122929,-0.0806547,0.00481872,0.0110782,-0.088449,0.367229,0
0.264782,-0.0355534,-0.0141121,0.0148038,-0.0711691,0.300724,0
0.405043,-0.218831,0.0179556,0.0255923,-0.0502296,0.311434,0
0.321197,-0.365673,0.0768264,0.00157286,-0.0541532,0.269462,0
0.275171,-0.310017,0.0341724,-0.0760668,-0.0226613,0.157682,0
0.363869,0.0209258,-0.0994951,-0.138481,0.0120345,0.0546024,0
0.344359,0.123377,-0.194513,-0.0972229,0.0297024,0.018514,0
0.0561457,-0.138488,-0.163522,-0.0139221,0.0286404,-0.058695,0
-0.267955,-0.268264,-0.0451915,0.0285716,0.0608182,-0.25892,0
-0.346353,-0.111304,0.103601,0.0307577,0.102938,-0.519925,0
-0.27954,0.0128944,0.314755,0.0721402,0.10888,-0.668208,0
-0.213817,-0.18332,0.511059,0.0903097,0.0609611,-0.712443,0
-0.170571,-0.507625,0.535812,0.00596614,0.0185331,-0.736454,0
-0.150592,-0.683497,0.328781,-0.0934875,-0.0130862,-0.721906,0
-0.192949,-0.662126,0.0660654,-0.105434,-0.0335638,-0.658128,0
-0.189347,-0.372914,-0.0767277,-0.0462411,-0.0389245,-0.559918,0
-0.10945,0.0133758,-0.0900992,0.0191348,-0.0390632,-0.387513,0
-0.00284122,0.256417,-0.029643,0.0559378,-0.0442293,-0.167734,0
0.102848,0.256981,0.0664346,0.0740638,-0.06467,0.0478387,0
0.102848,0.256981,0.0664346,0.0740638,-0.06467,0.0478387,0
0.187153,0.0812058,0.161801,0.0628231,-0.0848592,0.21923,0
0.24746,-0.138324,0.197702,0.0264374,-0.0985367,0.341299,0
0.336802,-0.310135,0.179332,-0.0115855,-0.0964772,0.395299,0
0.547681,-0.360523,0.122731,-0.0435741,-0.0775196,0.408782,0
0.821031,-0.253022,0.0352808,-0.067178,-0.025731,0.451624,0
1.09616,0.0107172,-0.0488641,-0.0746317,0.0288973,0.527006,0
1.35625,0.277209,-0.113204,-0.0640763,0.0816277,0.63192,0
1.53557,0.358965,-0.182346,-0.0681826,0.13268,0.747415,0
1.52575,0.203002,-0.27973,-0.0981092,0.184373,0.82835,0
1.19329,-0.0282374,-0.470444,-0.140135,0.207902,0.827111,0
0.561933,0.067893,-0.714586,-0.150387,0.164443,0.663224,0
0.0185575,0.822747,-0.867826,-0.0413648,0.0646578,0.405828,0
-0.361091,1.38473,-0.899166,0.101615,-0.027269,0.172237,0
-0.528388,1.09889,-1.00987,0.0427636,-0.0976047,-0.0636362,0
-0.649108,0.838114,-1.55814,-0.171542,-0.0916727,-0.282307,0
-0.983919,0.267734,-2.11088,-0.152273,-0.143066,-0.438565,0
-1.02324,-0.182554,-2.20918,-0.0151151,-0.15413,-0.663606,0
-0.642151,-0.0870749,-1.94167,0.0285172,-0.0444682,-0.811372,0
0.0598602,0.618443,-1.28512,0.0873976,-0.0216455,-0.797622,0
0.781137,1.17711,-0.584176,0.0857058,-0.035964,-0.703657,0
1.28284,1.38101,-0.0914757,0.047904,-0.10244,-0.417376,0
1.41454,1.13488,0.121087,-0.048819,-0.16528,-0.127878,0
1.20254,0.32367,0.169916,-0.115481,-0.207125,0.0761287,0
0.877983,-0.5967,0.101999,-0.122485,-0.259543,0.125997,0
0.672107,-1.09417,-0.134207,-0.188037,-0.222684,-0.0235261,0
0.55541,-1.13849,-0.426076,-0.289241,-0.0963895,-0.202041,0
0.428457,-0.828607,-0.718614,-0.2811,-0.0670332,-0.356035,0
0.0896605,-0.779773,-0.982169,-0.229701,-0.0470511,-0.394368,0
-0.280736,-0.956072,-1.15403,-0.181596,0.0135585,-0.389922,0
-0.471564,-0.967008,-1.31416,-0.189677,0.0849555,-0.462668,0
-0.483059,-0.700881,-1.44953,-0.205659,0.146025,-0.512396,0
-0.241604,-0.24161,-1.44466,-0.149147,0.1773,-0.508067,0
0.116816,0.200369,-1.32896,-0.106139,0.21044,-0.417107,0
0.336967,0.251754,-1.12468,-0.0621499,0.227003,-0.19709,0
0.413171,-0.0150897,-0.867186,-0.0289421,0.195121,0.0350095,0
0.423186,-0.365415,-0.709028,-0.0476788,0.142761,0.191109,0
0.442905,-0.645149,-0.697207,-0.0996914,0.106243,0.282772,0
0.439202,-0.82066,-0.744259,-0.123346,0.0965891,0.34916,0
0.35553,-0.944733,-0.818559,-0.127715,0.108493,0.411212,0
0.203753,-0.970626,-0.928356,-0.104518,0.099827,0.446913,0
0.0445423,-1.02563,-0.983697,-0.0449995,0.0732329,0.438006,0
-0.0199167,-1.0663,-0.957024,0.0471268,0.0739035,0.338322,0
-0.112254,-1.11878,-0.981195,0.05884,0.0669707,0.280953,0
-0.285431,-1.13059,-1.06138,0.0663883,0.0304856,0.205962,0
-0.527067,-1.24197,-1.21434,0.0563783,0.030151,0.105023,0
-0.679816,-1.12277,-1.32025,0.0917619,0.0455461,-0.0435371,0
-0.529081,-0.637239,-1.23387,0.144425,0.0713885,-0.182078,0
-0.304167,-0.0836393,-1.04126,0.141405,0.123775,-0.195581,0
-0.587714,0.362027,-1.05775,0.0358497,0.114122,-0.128237,0
-1.23958,0.71287,-1.34878,-0.168433,0.0141729,-0.210432,0
-1.57893,0.771554,-1.85021,-0.251266,-0.0702629,-0.400736,0
-1.21447,0.24232,-2.11502,-0.166928,0.0101155,-0.590991,0
-0.39639,-0.235833,-1.95459,-0.0831316,0.131072,-0.706114,0
0.325023,-0.204872,-1.66686,-0.0880128,0.162916,-0.660941,0
0.325023,-0.204872,-1.66686,-0.0880128,0.162916,-0.660941,0
0.642712,-0.0362429,-1.44767,-0.151758,0.141375,-0.473737,0
0.76307,-0.0205459,-1.31068,-0.24215,0.123213,-0.266997,0
0.828228,-0.21538,-1.29882,-0.335108,0.152199,-0.0886562,0
0.808376,-0.517337,-1.31452,-0.393167,0.198624,0.0586712,0
0.626586,-0.8168,-1.35327,-0.446366,0.21833,0.156101,0
0.382569,-0.979834,-1.55609,-0.522647,0.212153,0.17317,0
0.151774,-0.989715,-1.92259,-0.54399,0.20266,0.177695,0
-0.157575,-1.01924,-2.27446,-0.457663,0.187095,0.191309,0
-0.467086,-1.00545,-2.4694,-0.333521,0.169505,0.14844,0
-0.653978,-0.91108,-2.52504,-0.221921,0.175842,0.108645,0
-0.694193,-0.867383,-2.45244,-0.112939,0.165253,0.078091,0
-0.584513,-0.81559,-2.30742,-0.0100825,0.102466,0.0430393,0
-0.358515,-0.735628,-2.1567,0.0441159,0.0451385,0.0442386,0
-0.0908428,-0.642088,-2.02912,0.0853214,-0.002426,0.0859814,0
0.0463141,-0.629701,-1.92718,0.113255,-0.0559933,0.164573,0
0.00697712,-0.642204,-1.87733,0.132593,-0.110522,0.228071,0
-0.153787,-0.63668,-1.83956,0.153611,-0.141031,0.239945,0
-0.287138,-0.513959,-1.75022,0.178539,-0.153885,0.183346,0
-0.323055,-0.382629,-1.63562,0.171082,-0.145463,0.0991163,0
-0.231631,-0.191965,-1.54802,0.156132,-0.158211,-0.00455731,0
-0.0515322,-0.000224431,-1.48583,0.137053,-0.171029,-0.0795726,0
0.136914,0.14529,-1.43034,0.125177,-0.170688,-0.0959648,0
0.209752,0.186172,-1.37934,0.113403,-0.165757,-0.0720751,0
0.173804,0.298004,-1.33977,0.0881709,-0.157223,-0.0403897,0
0.038423,0.389333,-1.30882,0.0839621,-0.146515,-0.0128132,0
-0.105519,0.466511,-1.23548,0.0888158,-0.142164,-0.0149879,0
-0.224682,0.348018,-1.13545,0.0952891,-0.150899,-0.0480506,0
-0.294936,0.212841,-1.05141,0.0872967,-0.168491,-0.126959,0
-0.418058,-0.0280587,-1.00285,0.0872675,-0.169301,-0.208108,0
-0.436819,0.0016841,-0.896629,0.0909255,-0.150842,-0.357917,0
-0.154251,0.444538,-0.710057,0.0744272,-0.0917262,-0.466468,0
0.380936,0.907633,-0.417445,0.0658578,-0.0386603,-0.425297,0
0.863048,0.981316,-0.117118,0.0181807,-0.0249919,-0.235629,0
1.0991,0.602762,0.0797405,-0.0589351,-0.0406173,-0.0316476,0
1.08654,0.110092,0.103123,-0.140839,-0.0603197,0.0927157,0
0.883055,-0.278551,-0.0680932,-0.209874,-0.0476877,0.13848,0
0.514976,-0.489744,-0.292688,-0.249629,-0.00071165,0.121441,0
0.161286,-0.585202,-0.426642,-0.248468,0.0780975,0.0483554,0
-0.00479382,-0.645749,-0.511569,-0.238446,0.151505,-0.0550446,0
0.0783456,-0.562075,-0.577694,-0.226927,0.206197,-0.121411,0
0.268012,-0.461263,-0.62423,-0.208139,0.248632,-0.103553,0
0.345081,-0.396389,-0.647707,-0.155935,0.251675,0.000426233,0
0.236465,-0.36738,-0.629379,-0.0894009,0.239235,0.120399,0
0.0399907,-0.278976,-0.545641,-0.0367707,0.235551,0.207388,0
-0.158856,-0.274199,-0.396859,0.0143984,0.21989,0.273616,0
-0.292154,-0.438555,-0.198968,0.0453391,0.174706,0.30278,0
-0.337808,-0.686129,-0.0382593,0.0372859,0.116535,0.286274,0
-0.337585,-0.850146,0.00464234,0.00101662,0.0597411,0.256403,0
-0.370605,-0.981652,-0.0837377,-0.0275003,0.00225593,0.208349,0
-0.463632,-1.06081,-0.21545,-0.0234357,-0.0471247,0.16044,0
-0.574684,-1.0113,-0.378223,-0.00649177,-0.0819641,0.0580266,0
-0.531212,-0.709562,-0.496717,0.02312,-0.0806233,-0.0508208,0
-0.425847,-0.387496,-0.545654,0.0561553,-0.0793987,-0.0969959,0
-0.425847,-0.387496,-0.545654,0.0561553,-0.0793987,-0.0969959,0
-0.275614,-0.169454,-0.535277,0.0759096,-0.109571,-0.113466,0
-0.110142,-0.245734,-0.543725,0.0738477,-0.134694,-0.0848083,0
-0.00148798,-0.413637,-0.581452,0.050921,-0.155162,-0.0775217,0
0.0217162,-0.393574,-0.696618,0.0200036,-0.179344,-0.0933635,0
-0.0412031,-0.288183,-0.873721,-0.00626528,-0.177412,-0.0904287,0
-0.167621,-0.210979,-1.002,0.00448012,-0.175513,-0.0879971,0
-0.246344,-0.21739,-1.09226,0.00954776,-0.180328,-0.120917,0
-0.113236,-0.173362,-1.16073,0.014937,-0.164005,-0.199757,0
0.182242,-0.00594156,-1.11509,0.0416266,-0.125468,-0.235628,0
0.379863,0.026575,-0.957461,0.0729007,-0.11015,-0.163914,0
0.342923,-0.221744,-0.804812,0.0514539,-0.109686,-0.0937477,0
0.11453,-0.530589,-0.895398,-0.0516406,-0.129697,-0.115465,0
-0.169987,-0.647035,-1.19961,-0.0993814,-0.159464,-0.208629,0
-0.316021,-0.646841,-1.44318,-0.0875767,-0.0606268,-0.296633,0
-0.357614,-0.429769,-1.43707,-0.0548388,0.112256,-0.343635,0
-0.407965,-0.0508271,-1.28743,-0.0613812,0.222802,-0.337648,0
-0.325224,0.361707,-1.10661,-0.0730178,0.249669,-0.296211,0
-0.00584375,0.59584,-0.954649,-0.0813635,0.250877,-0.194239,0
0.413375,0.537352,-0.727754,-0.0881222,0.275838,-0.0272942,0
0.671797,0.16945,-0.43281,-0.122628,0.293211,0.154756,0
0.700194,-0.372858,-0.262226,-0.186523,0.258268,0.276552,0
0.58775,-0.756175,-0.359983,-0.257922,0.205913,0.300531,0
0.386363,-0.884337,-0.662544,-0.300208,0.184644,0.285362,0
0.129785,-0.739975,-1.00606,-0.271568,0.180362,0.248635,0
-0.112,-0.456931,-1.26113,-0.197671,0.198185,0.223231,0
-0.277068,-0.256408,-1.37969,-0.102152,0.215661,0.212453,0
-0.345735,-0.288787,-1.35982,0.00321406,0.214303,0.215135,0
-0.370894,-0.407501,-1.25261,0.088341,0.183405,0.205382,0
-0.393125,-0.378971,-1.17235,0.122091,0.149804,0.183156,0
-0.436427,-0.272116,-1.12585,0.143701,0.110804,0.161611,0
-0.490211,-0.163476,-1.0899,0.181245,0.05958,0.133323,0
-0.566835,-0.0392983,-1.03408,0.235639,0.0159234,0.0923404,0
-0.659628,0.168229,-0.889321,0.288768,-0.0165423,0.0481509,0
-0.749965,0.358199,-0.670556,0.321414,-0.0444193,-0.00151473,0
-0.791405,0.364303,-0.395582,0.32588,-0.0875234,-0.0738917,0
-0.578096,0.320582,-0.11125,0.280117,-0.139471,-0.216937,0
-0.0920676,0.440637,0.0941475,0.217741,-0.159633,-0.312351,0
0.383869,0.688233,0.258018,0.17072,-0.160174,-0.284297,0
0.584137,0.920263,0.439172,0.153481,-0.169306,-0.166107,0
0.574614,1.02939,0.647341,0.143104,-0.187015,-0.0670984,0
0.567196,0.967556,0.743866,0.0995577,-0.186541,-0.0157357,0
0.701534,0.819542,0.724537,0.0715936,-0.151166,-0.00990242,0
0.929217,0.716282,0.651784,0.0778557,-0.0944398,0.0108289,0
1.06674,0.656956,0.556938,0.116885,-0.0349974,0.090369,0
1.05266,0.619078,0.589653,0.164504,0.0186776,0.158053,0
0.849629,0.761261,0.967675,0.219327,0.122461,0.188369,0
0.717682,1.01765,1.42791,0.25727,0.105882,0.154355,0
0.825171,0.864241,1.63611,0.170499,0.0998671,0.162174,0
0.992793,0.249263,1.68387,0.105781,0.121845,0.156868,0
1.08995,-0.388008,1.95985,0.0863485,0.172932,0.128752,0
1.03628,0.467266,1.9685,0.0268853,0.127892,-0.0180283,0
0.882551,1.38239,2.05117,-0.121201,0.0827087,-0.112394,0
0.683396,2.04158,1.92155,-0.154221,0.0184694,-0.162045,0
0.415179,2.22357,1.60313,-0.14562,-0.113784,-0.115566,0
0.415179,2.22357,1.60313,-0.14562,-0.113784,-0.115566,0
0.120151,2.0532,1.06011,-0.191972,-0.183598,-0.102377,0
-0.132026,1.30164,0.412991,-0.233104,-0.118598,-0.13094,0
-0.258016,0.457991,0.0649391,-0.160791,-0.0222585,-0.230373,0
-0.0591782,0.216489,0.080654,-0.129373,0.074812,-0.344342,0
0.193988,0.29738,0.0730763,-0.219417,0.182414,-0.293558,0
-0.00753475,0.323037,-0.126757,-0.318266,0.185454,-0.141168,0
-0.52831,0.430306,-0.433192,-0.369091,0.152767,-0.0143142,0
-0.982932,0.275817,-0.577415,-0.311539,0.140812,-0.0120192,0
-1.03297,-0.158298,-0.406065,-0.270281,0.17471,-0.0942918,0
-0.719952,-0.550509,-0.142371,-0.288925,0.208874,-0.141125,0
-0.285584,-0.644086,0.0841752,-0.272454,0.156867,-0.118846,0
0.0255872,-0.621371,0.172149,-0.263554,0.0810373,-0.0404856,0
0.105732,-0.520545,0.0850008,-0.294713,0.054061,0.10076,0
-0.00616658,-0.388786,-0.111486,-0.305781,0.0262272,0.225837,0
-0.300064,-0.31327,-0.436135,-0.293995,0.0202077,0.3154,0
-0.523677,-0.27253,-0.723908,-0.204817,0.0245259,0.341662,0
-0.567551,-0.464376,-0.828508,-0.0688341,0.0410176,0.31557,0
-0.446511,-0.651074,-0.769863,-0.0286322,0.110499,0.284466,0
-0.28943,-0.759302,-0.611108,-0.0475883,0.140126,0.274242,0
-0.146289,-0.856927,-0.41272,-0.0661393,0.124685,0.292275,0
-0.0024785,-1.06726,-0.358754,-0.118222,0.0435515,0.266875,0
-0.0321761,-1.14843,-0.679724,-0.16548,-0.0147967,0.281289,0
-0.256547,-1.21769,-1.00158,-0.127265,-0.0349838,0.293063,0
-0.577942,-1.28908,-1.23666,-0.0836876,-0.00142294,0.272932,0
-0.95483,-1.34925,-1.44433,-0.0497856,0.0399492,0.229161,0
-1.21211,-1.51855,-1.57507,0.0269924,0.0451868,0.125405,0
-1.15962,-1.75464,-1.60623,0.0922042,0.0844849,-0.00482851,0
-0.786544,-2.03004,-1.50535,0.158306,0.136929,-0.0903987,0
-0.18974,-2.17518,-1.20195,0.234113,0.157296,-0.111052,0
0.338252,-1.95569,-0.812179,0.25983,0.154971,-0.0521234,0
0.462358,-1.35649,-0.495663,0.255445,0.117153,0.0359049,0
0.218558,-0.390151,-0.286513,0.229028,0.0416041,0.105881,0
-0.232888,0.431482,-0.223769,0.209958,-0.0611804,0.113445,0
-0.703066,1.0171,-0.262882,0.200691,-0.137634,0.0646669,0
-0.989224,1.23991,-0.400687,0.189777,-0.23394,-0.0767505,0
-1.09799,1.07476,-0.699812,0.150163,-0.318455,-0.211552,0
-1.3141,0.204797,-1.10202,0.138432,-0.376929,-0.351797,0
-1.44542,-0.608585,-1.40185,0.14232,-0.353723,-0.624034,0
-1.2349,-0.904075,-1.42287,0.11002,-0.118885,-0.926375,0
-0.862761,-0.505263,-1.17011,0.136568,0.0689135,-1.05754,0
-0.511329,0.123338,-0.659508,0.194214,0.119064,-0.991602,0
-0.159201,0.582655,-0.123187,0.19493,0.0866607,-0.787627,0
0.0894002,0.630645,0.282141,0.141262,0.0486312,-0.504502,0
0.205174,0.454891,0.592627,0.078219,0.0130794,-0.26226,0
0.260563,0.232253,0.761827,0.0199832,-0.0244974,-0.0719412,0
0.320201,0.0234197,0.832974,0.00836429,-0.062853,0.0738556,0
0.35302,-0.125142,0.87208,0.0226633,-0.0678605,0.192189,0
0.418245,-0.174224,0.918288,0.0489482,-0.0556005,0.261689,0
0.540403,-0.144905,0.988504,0.077846,-0.0228961,0.327133,0
0.656823,-0.096559,1.07245,0.0980629,0.00417104,0.398192,0
0.709412,-0.0829683,1.16021,0.110686,0.0213265,0.465163,0
0.686536,-0.101662,1.23505,0.106886,0.0357726,0.513801,0
0.710631,-0.117991,1.32134,0.119704,0.0576242,0.510359,0
0.778298,-0.135028,1.43603,0.0790009,0.0969734,0.505843,0
0.778298,-0.135028,1.43603,0.0790009,0.0969734,0.505843,0
0.794767,0.0858192,1.50318,0.051594,0.117981,0.510783,0
0.579147,0.365149,1.50881,0.0441654,0.120824,0.53716,0
0.108697,0.481815,1.48244,0.0303595,0.0851699,0.53153,0
-0.264169,0.382619,1.44176,0.015509,0.0421416,0.422222,0
-0.238286,0.343914,1.42935,0.0189194,0.0768322,0.154664,0
0.259257,0.145684,1.36348,0.0501869,0.0699458,0.0438628,0
0.854936,0.384416,1.30969,0.0544744,0.109731,-0.19334,0
0.917771,0.908684,1.19127,0.00656336,0.120326,-0.276427,0
0.345097,1.32467,1.01068,0.00489428,0.053091,-0.26609,0
-0.387977,0.879037,0.722058,0.0100545,-0.0631184,-0.281598,0
-0.638967,-0.0322988,0.455949,0.0174991,-0.0936348,-0.427728,0
-0.144967,-0.524531,0.302963,-0.00525054,-0.0426794,-0.778191,0
0.398497,-0.0550136,0.39962,-0.0273408,0.044622,-0.935854,0
0.0660766,0.990323,0.976899,0.18187,0.0946108,-0.698555,0
-0.84315,0.820409,1.31418,0.167416,0.0615869,-0.333024,0
-1.60647,0.516151,1.37426,0.0484143,0.0211961,-0.068856,0
-2.30712,-0.575811,1.2665,-0.0704846,0.0260896,0.102093,0
-2.92753,-2.12574,0.94291,-0.190372,0.021719,0.243948,0
-3.3315,-2.65803,0.545641,-0.245216,-0.023947,0.409144,0
-2.70385,-0.793677,-0.525799,-0.28775,-0.104682,0.452976,0
-1.76536,0.160906,-1.27599,-1.27184,-0.47143,-0.543163,0
-1.2022,-1.75232,-1.15907,0.218043,0.0425577,0.544672,0
-0.356198,-1.53072,-1.36911,0.0634469,-0.0146798,0.266521,0
0.462174,-1.1186,-1.4578,-0.0238685,0.00558364,0.136178,0
1.21565,-0.475032,-1.41384,0.0946835,0.00946059,0.22009,0
1.79006,-0.311391,-1.58625,0.0282295,-0.0106892,0.319912,0
2.20454,-0.0596537,-1.56525,0.016035,0.0149233,0.503433,0
2.58792,0.408143,-1.48362,-0.0318577,0.0847786,0.53266,0
3.13732,1.30505,-1.51763,-0.07056,0.0489125,0.414071,0
1.51448,1.88763,-1.17233,-0.0147696,-0.0135981,0.616506,0
0.0506111,1.80887,-1.80423,-0.0775916,-0.0866201,0.490977,0
-0.446499,0.648248,-1.72774,0.140781,-0.142753,0.25257,0
-1.07876,-1.1784,-1.30668,0.295152,-0.128182,0.00622237,0
-1.5207,-2.58286,-0.953196,0.204073,-0.0210721,-0.587269,0
-1.2601,-1.34929,-0.429641,0.176727,-0.0772424,-0.68906,0
-0.341675,-0.525257,0.00961315,0.00488102,-0.168647,-0.857266,0
0.194673,1.04478,0.55058,-0.0598589,-0.178697,-0.911977,0
0.158826,1.9882,0.864892,-0.131153,-0.112032,-0.928767,0
0.173591,2.32878,0.83641,-0.178161,-0.0299479,-1.0381,0
0.547998,2.06277,0.701486,-0.162705,0.0131768,-1.05886,0
1.04999,1.4477,0.47085,-0.151023,0.0421629,-0.869955,0
1.4841,0.841832,0.174053,-0.122121,0.0421053,-0.542539,0
1.769,0.520348,-0.0382702,-0.0811898,0.0577507,-0.174176,0
1.90916,0.435972,-0.144278,-0.0471892,0.0502271,0.125601,0
1.91893,0.400833,-0.109827,-0.0123714,0.0749927,0.355111,0
1.81198,0.27817,-0.020251,0.00399869,0.113455,0.52178,0
1.68604,0.156001,0.0944316,0.0228597,0.154793,0.622375,0
1.63497,0.0518582,0.209396,0.0289848,0.221314,0.693972,0
1.56725,-0.0489841,0.250627,0.00381538,0.273667,0.756642,0
1.35373,-0.190486,0.305915,0.00165334,0.312147,0.833314,0
1.00964,-0.36397,0.369118,-0.0099715,0.325481,0.887203,0
0.533629,-0.418169,0.393165,-0.0577485,0.312315,0.910053,0
-0.0626524,-0.555649,0.403556,-0.0409416,0.299308,0.853003,0
-0.59052,-0.666433,0.547303,0.0727817,0.235392,0.664289,0
-0.59052,-0.666433,0.547303,0.0727817,0.235392,0.664289,0
-0.757123,-0.837424,0.939983,0.196334,0.166298,0.294591,0
-0.545879,-0.666432,1.22205,0.0598235,0.0926735,-0.0766177,0
-0.993307,-0.0447445,1.57926,-0.1382,-0.0287516,-0.268377,0
-2.09192,-0.0207805,1.76504,-0.275834,-0.127843,-0.467134,0
-2.7272,-0.310613,1.71585,-0.301304,-0.072078,-0.910602,0
-2.16021,-0.525533,1.38885,-0.388811,-0.0125629,-1.33216,0
-1.25392,-0.521059,0.737878,-0.447776,0.0232165,-1.33374,0
-0.68163,-0.625133,-0.0112142,-0.41647,-0.0224587,-1.02528,0
-0.408953,-0.699449,-0.539187,-0.27393,-0.116866,-0.66055,0
-0.156738,-0.671235,-0.826428,-0.126891,-0.174156,-0.336541,0
0.0838533,-0.4794,-1.03928,-0.0231619,-0.184122,-0.0647355,0
0.302642,-0.232154,-1.23973,0.0580315,-0.159923,0.145957,0
0.500697,-0.0546985,-1.36021,0.132756,-0.126973,0.296217,0
0.664804,0.0732081,-1.39597,0.183697,-0.0999907,0.409155,0
0.786965,0.170328,-1.35463,0.213933,-0.073857,0.493285,0
0.837034,0.227972,-1.27778,0.219827,-0.0370693,0.56724,0
0.843184,0.228382,-1.18093,0.212267,0.0124779,0.623298,0
0.783573,0.1105,-1.06844,0.204336,0.0625447,0.679877,0
0.695982,-0.0618129,-0.973989,0.18542,0.111119,0.725155,0
0.514063,-0.0581402,-0.883954,0.169278,0.13444,0.760686,0
0.156948,0.212022,-0.748685,0.166286,0.125093,0.779363,0
-0.311137,0.749157,-0.596664,0.133403,0.111707,0.690287,0
-0.598472,1.06211,-0.548983,0.062878,0.122879,0.406764,0
-0.563298,1.01308,-0.530084,0.0600567,0.164169,0.029985,0
-0.558998,0.907394,-0.511466,0.0926964,0.188962,-0.259015,0
-0.661692,1.1359,-0.328386,0.106957,0.159761,-0.477886,0
-0.80501,1.48043,0.025355,0.0988924,0.0893284,-0.666508,0
-0.946713,1.51717,0.39692,0.092377,0.057239,-0.88916,0
-1.05408,1.12321,0.658255,0.086413,0.0614178,-1.04303,0
-1.18738,0.791477,0.798964,0.0476218,0.058409,-1.05663,0
-1.15346,0.451765,0.793308,0.0156138,0.0729072,-1.02722,0
-0.831327,-0.0135713,0.639766,-0.0156291,0.0634806,-0.908997,0
-0.427891,-0.537779,0.513299,-0.0504538,0.0332003,-0.655971,0
-0.103656,-0.941392,0.4139,-0.0820769,-0.0040777,-0.339739,0
0.141397,-1.21164,0.354488,-0.0792304,-0.0146029,-0.033385,0
0.353424,-1.26635,0.303419,-0.0746263,-0.0219038,0.219058,0
0.528434,-1.13441,0.26404,-0.0578672,-0.0167478,0.415119,0
0.649507,-0.934953,0.19921,-0.0543516,-0.00991622,0.562531,0
0.647794,-0.741569,0.135974,-0.0355144,0.00572379,0.685534,0
0.520797,-0.585028,0.101722,-0.00597642,0.014906,0.766582,0
0.331933,-0.44773,0.10715,0.0065406,0.00457004,0.798011,0
0.190619,-0.329476,0.130751,0.0165936,0.00308233,0.778216,0
0.183963,-0.239385,0.20222,0.0214768,0.00943157,0.706196,0
0.169464,-0.219653,0.323453,0.0186868,0.0129224,0.640785,0
0.0138457,0.120483,0.43161,-0.0328411,0.00633696,0.54437,0
0.0182866,0.445795,0.364172,-0.101833,0.0579469,0.276716,0
0.140726,0.485262,0.257966,-0.12777,0.117364,-0.00352162,0
0.0714226,0.254496,0.391736,-0.154569,0.054656,-0.200921,0
-0.303375,-0.469404,0.651624,-0.190771,-0.0341771,-0.378305,0
-0.895731,-1.10421,0.775648,-0.238438,-0.0799683,-0.538251,0
-1.25064,-1.1912,0.782804,-0.278273,-0.14141,-0.728002,0
-1.09703,-0.828702,0.673254,-0.323951,-0.162081,-0.900078,0
-0.876086,-0.324578,0.329837,-0.343186,-0.101049,-0.927795,0
-0.743429,0.0570548,-0.217173,-0.337575,-0.0500548,-0.896474,0
-0.743429,0.0570548,-0.217173,-0.337575,-0.0500548,-0.896474,0
-0.468965,0.214128,-0.835151,-0.252472,-0.0158413,-0.829901,0
0.0157824,0.279295,-1.3319,-0.079167,-0.0140908,-0.668419,0
0.460628,0.287079,-1.5484,0.0986131,-0.0555233,-0.41264,0
0.600427,0.277694,-1.50692,0.235024,-0.0790625,-0.135986,0
0.472373,0.157022,-1.37161,0.304753,-0.0938551,0.080741,0
0.26447,-0.0734822,-1.18976,0.333857,-0.0822615,0.208106,0
0.0869452,-0.325041,-0.971936,0.334679,-0.0694289,0.298154,0
-0.0480997,-0.456793,-0.755611,0.306742,-0.0633885,0.368161,0
-0.101335,-0.501156,-0.576948,0.272699,-0.0438515,0.421219,0
-0.0529349,-0.510157,-0.462207,0.228177,-0.0123227,0.455714,0
0.0718768,-0.492461,-0.465175,0.178603,0.0232451,0.482184,0
0.171669,-0.452988,-0.556686,0.142425,0.0647976,0.536771,0
0.169256,-0.333253,-0.702715,0.1229,0.0888284,0.600276,0
0.0769361,-0.168227,-0.831075,0.122339,0.098195,0.642289,0
0.0233869,0.00426859,-0.912456,0.144262,0.0962825,0.635611,0
0.0363789,0.164327,-0.873976,0.169273,0.0781723,0.598479,0
0.00552492,0.349412,-0.773237,0.162187,0.044251,0.557836,0
-0.0709741,0.611164,-0.697077,0.107753,0.0358901,0.473396,0
-0.162851,0.717775,-0.755457,0.0343016,0.070102,0.294268,0
-0.0509556,0.519747,-0.998432,-0.00675382,0.112512,-0.0125551,0
0.0851463,0.389399,-0.974964,0.0344012,0.0457574,-0.186302,0
0.00551665,0.454577,-0.671406,0.0168997,-0.029409,-0.396224,0
0.0304808,0.0233838,-0.524467,-0.0341976,0.00382113,-0.639974,0
-0.114189,-0.518969,-0.381512,-0.0558467,-0.029298,-0.684394,0
-0.561135,-0.739278,-0.090159,-0.052524,-0.11503,-0.66351,0
-0.952039,-0.46022,0.226445,-0.0652703,-0.154409,-0.729025,0
-1.06459,0.215762,0.412356,-0.138836,-0.141311,-0.850527,0
-0.907922,0.746966,0.39237,-0.201215,-0.0934252,-0.969344,0
-0.461578,0.738551,0.235104,-0.192724,-0.0439753,-1.00017,0
0.0153313,0.236629,0.0588153,-0.144423,-0.0291784,-0.808773,0
0.225364,-0.305525,-0.0508244,-0.102643,-0.0590673,-0.467751,0
0.249105,-0.599209,-0.0524558,-0.0596283,-0.0844772,-0.142724,0
0.206076,-0.678943,-0.0283882,-0.0375023,-0.10314,0.117339,0
0.117819,-0.594181,-0.0261737,-0.0289357,-0.106505,0.308802,0
0.0424753,-0.435344,-0.0471821,-0.0239579,-0.104848,0.436601,0
-0.0181129,-0.246215,-0.0776632,-0.0127252,-0.0962775,0.523734,0
-0.0575559,-0.0510237,-0.124007,-0.0117066,-0.0791423,0.583376,0
-0.0446256,0.172023,-0.198215,-0.0204796,-0.0597902,0.595161,0
0.0662777,0.291285,-0.298053,-0.0369963,-0.0370857,0.584245,0
0.198817,0.366775,-0.425601,-0.0636511,-0.00583385,0.579028,0
0.339883,0.422501,-0.588527,-0.0960804,0.00505766,0.570496,0
0.508413,0.458381,-0.714025,-0.0979033,0.0161772,0.556971,0
0.644009,0.52223,-0.747598,-0.103095,-0.00069648,0.558498,0
0.65552,0.595498,-0.69056,-0.112868,-0.0181586,0.562653,0
0.561574,0.629824,-0.604758,-0.128721,-0.01998,0.528951,0
0.476082,0.67401,-0.475794,-0.135456,-0.021262,0.444688,0
0.33149,0.652547,-0.310011,-0.158015,-0.0372798,0.348969,0
0.0550568,0.313203,-0.126583,-0.168354,-0.0295509,0.234399,0
-0.326402,-0.144506,0.0389561,-0.169934,-0.014594,0.0742494,0
-0.736419,-0.369172,0.282797,-0.159725,0.00338924,-0.14359,0
-1.22507,-0.439874,0.409519,-0.217363,-0.00875579,-0.361958,0
-1.65515,-0.342454,0.276305,-0.268679,0.0357688,-0.625248,0
-1.44952,-0.280611,-0.268932,-0.335007,0.117852,-0.993618,0
-0.52494,-0.265218,-1.1873,-0.322215,0.206124,-1.20817,0
-0.52494,-0.265218,-1.1873,-0.322215,0.206124,-1.20817,0
0.486271,-0.462114,-2.13069,-0.16272,0.229611,-1.07153,0
0.892243,-0.470309,-2.66955,0.0103907,0.107225,-0.665538,0
0.793349,-0.224799,-2.6974,0.175351,-0.0437207,-0.319522,0
0.539066,0.0215701,-2.44298,0.286668,-0.154625,-0.132104,0
0.349498,0.169736,-2.06613,0.366654,-0.188981,-0.0596479,0
0.291838,0.128696,-1.63109,0.383572,-0.208239,-0.0209762,0
0.293932,-0.0431557,-1.18561,0.337445,-0.203341,0.0569783,0
0.285039,-0.253211,-0.827838,0.259892,-0.160198,0.166234,0
0.305796,-0.365113,-0.605556,0.18629,-0.107932,0.28396,0
0.371999,-0.280003,-0.532592,0.119815,-0.0577899,0.386764,0
0.480551,-0.0881424,-0.536508,0.0753544,-0.0201196,0.470533,0
0.634415,0.225209,-0.61276,0.0199217,0.025221,0.531082,0
0.790409,0.534403,-0.722735,-0.0238238,0.0690407,0.578976,0
0.942321,0.586406,-0.85064,-0.0490201,0.114745,0.605148,0
1.06733,0.371066,-0.977783,-0.0743826,0.150028,0.631088,0
1.0447,0.00529735,-1.03842,-0.0838762,0.1675,0.684937,0
0.824189,-0.355844,-1.06621,-0.134706,0.148546,0.71803,0
0.535602,-0.592232,-1.13269,-0.19523,0.163726,0.629835,0
0.114508,-0.900314,-1.21752,-0.174317,0.144606,0.461924,0
-0.767063,-0.499156,-1.0801,-0.185998,0.0764108,0.127551,0
-1.34227,0.35477,-0.757686,-0.240428,-0.0273665,-0.441301,0
-1.51819,1.06823,-0.376689,-0.361696,-0.123739,-1.022,0
-1.0984,1.12499,-0.31087,-0.489108,-0.0240042,-1.56995,0
-0.472592,0.484917,-0.649237,-0.464107,0.170899,-1.75404,0
-0.324563,-0.119333,-0.962569,-0.331933,0.135494,-1.55463,0
-0.204721,-0.525575,-0.882429,-0.220449,0.0113783,-1.29859,0
0.093384,-0.857539,-0.732364,-0.188139,-0.00403674,-0.99224,0
0.352633,-1.21208,-0.773374,-0.184023,0.0305138,-0.601024,0
0.494757,-1.46038,-0.904803,-0.157337,0.0585677,-0.221106,0
0.529277,-1.52619,-0.989529,-0.103832,0.0653875,0.0932181,0
0.507235,-1.45312,-1.03338,-0.0621921,0.0615113,0.319174,0
0.492054,-1.29334,-1.08366,-0.0301998,0.0804751,0.475779,0
0.527614,-1.13848,-1.18351,-0.0126642,0.115212,0.582096,0
0.610496,-0.998951,-1.34677,0.000254415,0.156281,0.65095,0
0.675116,-0.863131,-1.56061,0.00723732,0.185054,0.715825,0
0.682766,-0.713528,-1.77702,0.00873461,0.197514,0.757443,0
0.594507,-0.496664,-1.90525,0.0592604,0.185692,0.791714,0
0.436034,-0.316913,-1.90895,0.0492811,0.112149,0.790378,0
0.0177066,-0.0162346,-1.83342,-0.0154842,0.0191516,0.757988,0
-0.501865,0.496471,-1.74472,-0.0842573,-0.0680736,0.516655,0
-0.376022,0.479422,-1.59356,-0.161575,-0.212376,-0.0734373,0
-0.0279372,0.370793,-1.30615,-0.169382,-0.288261,-0.474045,0
-0.44205,0.608631,-0.728875,-0.162606,-0.380141,-0.604737,0
-0.791115,0.56108,-0.116378,-0.142242,-0.304069,-0.896503,0
-0.577687,0.204408,0.11163,-0.180778,-0.216779,-1.06675,0
0.24707,-0.577077,-0.16593,-0.255702,0.013055,-1.32524,0
1.06821,-1.48767,-0.686711,-0.24794,0.236153,-1.24367,0
1.41686,-2.01465,-1.09154,-0.134639,0.334631,-0.821002,0
1.43029,-2.02363,-1.25984,-0.0114841,0.339664,-0.330855,0
1.27812,-1.76288,-1.35917,0.0697901,0.339617,0.0414565,0
1.04442,-1.41923,-1.47632,0.114697,0.360287,0.283362,0
0.73876,-1.03279,-1.63437,0.118096,0.376865,0.447272,0
0.400568,-0.67354,-1.77576,0.100839,0.358007,0.542757,0
0.0915494,-0.359237,-1.88189,0.0727667,0.319312,0.584783,0
0.0915494,-0.359237,-1.88189,0.0727667,0.319312,0.584783,0
-0.0904533,-0.0810611,-2.01068,0.0393306,0.284651,0.540827,0
-0.305161,0.0225227,-1.98998,0.0517759,0.230568,0.491569,0
-0.555269,0.0624245,-1.7601,0.116397,0.151554,0.457978,0
-0.758411,0.102983,-1.41177,0.129149,0.050552,0.378719,0
-0.976214,0.0443002,-1.07545,0.0944452,-0.0253006,0.27896,0
-1.03926,-0.143064,-0.851466,0.0377083,-0.0527537,0.129301,0
-0.918267,-0.470568,-0.703808,-0.00139688,-0.0644769,-0.0329001,0
-0.73363,-0.781776,-0.648651,-0.0434645,-0.0495362,-0.12309,0
-0.627911,-0.973092,-0.690047,-0.0999993,-0.0455718,-0.128198,0
-0.5427,-1.02685,-0.742179,-0.136236,-0.0625665,-0.110823,0
-0.485503,-0.946154,-0.75181,-0.1469,-0.0920847,-0.101033,0
-0.452056,-0.770186,-0.760382,-0.162589,-0.101773,-0.126105,0
-0.386568,-0.625161,-0.822724,-0.162993,-0.0893514,-0.187573,0
-0.305735,-0.493801,-0.929561,-0.174863,-0.0766365,-0.257832,0
-0.132563,-0.552211,-1.07997,-0.171694,-0.0764865,-0.352824,0
-0.0415892,-0.58927,-1.17183,-0.112416,-0.0762786,-0.365817,0
-0.0547529,-0.368103,-1.20723,-0.0564927,-0.0621957,-0.362572,0
0.017239,-0.356465,-1.18639,-0.00486881,-0.0429102,-0.374359,0
0.135075,-0.490211,-1.16831,0.0204654,0.00367707,-0.319694,0
0.218192,-0.776048,-1.2039,0.0127145,0.048368,-0.189822,0
0.209564,-1.05045,-1.25131,-0.00257654,0.0790046,-0.0201111,0
0.14886,-1.21326,-1.2859,-0.00899099,0.0951368,0.139655,0
0.0439804,-1.23265,-1.31727,-0.0156077,0.112229,0.276901,0
-0.0872179,-1.08196,-1.37145,-0.0401035,0.122157,0.375683,0
-0.216926,-0.773355,-1.46573,-0.0796251,0.126389,0.417267,0
-0.384193,-0.520147,-1.54503,-0.0944359,0.132931,0.436723,0
-0.655234,-0.247134,-1.63888,-0.141559,0.12464,0.420174,0
-0.9096,0.089813,-1.74929,-0.194891,0.114558,0.344077,0
-1.07591,0.496619,-1.85225,-0.259291,0.0873048,0.176112,0
-1.09298,0.775313,-1.96334,-0.322294,0.0661564,-0.0557958,0
-0.888117,0.810175,-2.04688,-0.342383,0.065138,-0.284124,0
-0.541596,0.641809,-2.05203,-0.341539,0.0435481,-0.439618,0
-0.206678,0.375495,-1.98483,-0.353485,0.0219916,-0.475672,0
0.0449392,0.0545749,-1.96301,-0.377734,0.0335706,-0.432028,0
0.26224,-0.230644,-1.99555,-0.385089,0.0501293,-0.350703,0
0.449522,-0.441657,-2.00517,-0.360873,0.0531191,-0.237948,0
0.582136,-0.549718,-1.94262,-0.31406,0.0490611,-0.111783,0
0.633961,-0.579987,-1.82243,-0.277786,0.0511878,0.00629288,0
0.58653,-0.583277,-1.6721,-0.249216,0.0577453,0.105169,0
0.50078,-0.494861,-1.51605,-0.243264,0.0599948,0.147352,0
0.466548,-0.444432,-1.38012,-0.242952,0.0852815,0.136497,0
0.424212,-0.47883,-1.30528,-0.243043,0.115007,0.123357,0
0.392979,-0.534845,-1.26258,-0.242215,0.130275,0.0944944,0
0.339676,-0.592316,-1.19424,-0.22582,0.140545,0.0715721,0
0.218457,-0.689593,-1.07701,-0.190956,0.135599,0.0414536,0
-0.0209,-0.846964,-0.868099,-0.138441,0.12664,0.0120648,0
-0.17109,-0.891998,-0.694425,-0.130526,0.136158,-0.0609941,0
-0.163795,-0.824394,-0.602757,-0.144051,0.160363,-0.135383,0
-0.118964,-0.713356,-0.642766,-0.146284,0.197882,-0.163804,0
-0.143755,-0.615734,-0.729183,-0.109635,0.190164,-0.170301,0
-0.231006,-0.523338,-0.725495,-0.00848,0.168511,-0.168793,0
-0.382007,-0.458126,-0.62279,0.0671932,0.128288,-0.161609,0
-0.547958,-0.498068,-0.510531,0.125401,0.102664,-0.159955,0
-0.547958,-0.498068,-0.510531,0.125401,0.102664,-0.159955,0
-0.602517,-0.544384,-0.458837,0.174454,0.102479,-0.17886,0
-0.524786,-0.6191,-0.449408,0.222277,0.0926769,-0.180104,0
-0.369217,-0.684334,-0.458544,0.253264,0.0754438,-0.141925,0
-0.211413,-0.734265,-0.475569,0.273858,0.0616594,-0.0700082,0
-0.0402627,-0.664498,-0.519829,0.277696,0.0555173,0.0124671,0
0.10938,-0.462459,-0.572782,0.283245,0.0489367,0.106925,0
0.137024,-0.214942,-0.547534,0.300223,0.0271273,0.196189,0
0.0445354,0.0392977,-0.467446,0.307127,0.00212738,0.248663,0
-0.0813468,0.246231,-0.329532,0.30769,-0.00965482,0.251016,0
-0.191342,0.358723,-0.150077,0.312785,-0.00255114,0.218329,0
-0.310953,0.403696,0.0464998,0.292519,-0.00350997,0.161554,0
-0.401747,0.386285,0.22359,0.246309,0.00310341,0.0759148,0
-0.484673,0.310889,0.359348,0.222874,0.00625831,-0.0160378,0
-0.545183,0.293742,0.524669,0.208524,0.00650534,-0.102594,0
-0.557497,0.297845,0.676222,0.166472,0.0151402,-0.17952,0
-0.438989,0.295912,0.723211,0.105479,0.0405876,-0.256142,0
-0.173796,0.270181,0.640942,0.0491785,0.0719111,-0.287836,0
0.0806576,0.175158,0.514266,0.0214779,0.0751972,-0.236983,0
0.198836,0.0456164,0.417198,0.0202875,0.0552121,-0.105252,0
0.208748,0.0501237,0.401677,0.0388198,0.0304957,0.0239795,0
0.17817,0.0724572,0.43442,0.0515272,0.00693786,0.125118,0
0.120216,0.103503,0.515656,0.060632,-0.0104061,0.207233,0
0.00377968,0.138205,0.593612,0.0379511,-0.0268925,0.265503,0
-0.153843,0.127052,0.63325,0.00436229,-0.0197952,0.300211,0
-0.299671,0.0834202,0.617423,-0.0313468,-0.0152494,0.29289,0
-0.398764,0.0322828,0.551974,-0.0674609,-0.005988,0.270685,0
-0.458018,0.0234381,0.408737,-0.0993409,-0.0010778,0.246932,0
-0.471382,0.0285975,0.23835,-0.127084,-0.00529787,0.207527,0
-0.413345,0.055827,0.0774904,-0.129867,-0.016925,0.165681,0
-0.300366,0.0494902,-0.0588843,-0.124015,-0.0276789,0.130976,0
-0.150925,-0.0589426,-0.220402,-0.12482,-0.0285484,0.112588,0
-0.0299207,-0.223732,-0.392787,-0.110476,-0.0222773,0.132609,0
0.0870636,-0.308694,-0.531645,-0.086731,-0.0348551,0.159203,0
0.227695,-0.323637,-0.61724,-0.0526797,-0.0403172,0.189115,0
0.381052,-0.346571,-0.694613,-0.0199058,-0.0290076,0.228881,0
0.469906,-0.385393,-0.755775,0.0172195,-0.0139791,0.285794,0
0.496871,-0.346933,-0.785516,0.0551342,-0.00721498,0.318771,0
0.545596,-0.274463,-0.770731,0.075219,-0.00854889,0.305032,0
0.559916,-0.241841,-0.721227,0.0899445,0.00783703,0.266741,0
0.412179,-0.204888,-0.618442,0.0747493,0.00379705,0.223275,0
-0.0245613,-0.203968,-0.488579,0.0645626,0.014601,0.115101,0
-0.361199,-0.11545,-0.280208,0.0723893,-0.00552994,-0.203343,0
-0.842744,0.242025,0.20569,0.105022,-0.0144386,-0.440389,0
-1.37445,0.83674,0.753247,0.00952467,-0.0223718,-0.784011,0
-1.10125,0.953753,0.874159,-0.172393,0.110503,-1.27583,0
-0.184692,0.364499,0.422485,-0.315086,0.251603,-1.49525,0
0.707271,-0.479023,-0.254025,-0.288852,0.285409,-1.3059,0
1.04102,-0.932049,-0.573876,-0.16314,0.180004,-0.847995,0
0.957415,-0.873063,-0.538684,-0.082812,0.0497496,-0.466163,0
0.805041,-0.562309,-0.397768,-0.0503081,-0.0352561,-0.243917,0
0.764853,-0.322106,-0.334569,-0.0577205,-0.0521897,-0.0996206,0
0.793962,-0.213548,-0.370704,-0.0577126,-0.0332013,0.0358691,0
0.827492,-0.236825,-0.437235,-0.0345095,-0.0223443,0.18175,0
0.854387,-0.306482,-0.485782,0.0103719,-0.0121307,0.322582,0
0.854387,-0.306482,-0.485782,0.0103719,-0.0121307,0.322582,0
0.873941,-0.355582,-0.457026,0.059706,0.00244972,0.459134,0
0.810886,-0.355996,-0.359035,0.0927777,0.00355577,0.591133,0
0.606955,-0.29301,-0.198866,0.114808,0.0069375,0.703535,0
0.29844,-0.160668,0.0129174,0.111002,-0.00469738,0.776403,0
-0.0881549,0.0323957,0.262295,0.0731197,-0.0223594,0.781182,0
-0.343721,0.192152,0.436633,0.00367816,0.0191081,0.680996,0
-0.332958,0.381731,0.42215,-0.0582253,0.0827775,0.504781,0
-0.0201203,0.647036,0.308547,-0.109503,0.12323,0.317428,0
0.370164,0.930213,0.238711,-0.133265,0.139802,0.21124,0
0.548853,0.992147,0.238584,-0.112576,0.140271,0.203141,0
0.529769,0.778585,0.380247,-0.0653093,0.136124,0.210977,0
0.483119,0.372166,0.567057,-0.0610005,0.144667,0.222488,0
0.530494,-0.154787,0.702726,-0.0558751,0.175424,0.24161,0
0.516813,-0.697086,0.786931,-0.0482497,0.194041,0.351015,0
0.287203,-1.0201,0.876404,-0.0452723,0.171767,0.492118,0
-0.0944716,-1.09908,0.976253,-0.0389175,0.11149,0.541484,0
-0.653326,-0.6164,1.05524,-0.0655251,0.0585753,0.47952,0
-1.44882,0.408327,1.12673,-0.101778,-0.00460106,0.245004,0
-2.22641,1.18717,1.16884,-0.100939,-0.0376465,-0.233023,0
-2.63907,1.23828,1.20523,-0.125261,-0.0910386,-0.900828,0
-2.41029,0.593495,1.2093,-0.106017,-0.0427867,-1.53147,0
-2.01028,-0.31303,0.881824,-0.0877731,0.145075,-1.70704,0
-1.93142,-1.07735,0.371392,-0.0695792,0.125217,-1.51157,0
-1.57973,-1.45774,-0.0243739,-0.0921927,0.00514302,-1.2778,0
-0.519045,-1.50898,-0.487945,-0.123884,-0.0636369,-1.01773,0
0.580625,-1.31629,-0.989618,-0.0742605,-0.0991587,-0.581326,0
1.17509,-0.92112,-1.31891,0.0415932,-0.112583,-0.106754,0
1.28648,-0.449207,-1.43982,0.170114,-0.152,0.260046,0
1.10921,0.00215968,-1.37609,0.254032,-0.208167,0.499606,0
0.875847,0.329595,-1.19089,0.308198,-0.230114,0.598123,0
0.788154,0.43255,-0.889626,0.34673,-0.212083,0.609741,0
0.787086,0.370138,-0.581797,0.331118,-0.160111,0.615584,0
0.769997,0.236205,-0.369938,0.263076,-0.0972791,0.643137,0
0.678587,0.0728177,-0.30191,0.191316,-0.0126481,0.676239,0
0.612158,-0.114549,-0.342101,0.153079,0.0582666,0.686883,0
0.567847,-0.216745,-0.40893,0.138693,0.100728,0.685494,0
0.499852,-0.23273,-0.432898,0.129248,0.119495,0.690668,0
0.432025,-0.170808,-0.507018,0.076942,0.124741,0.665017,0
0.373514,-0.0828695,-0.579858,0.0483883,0.127499,0.62466,0
0.204718,0.0976318,-0.59199,0.01828,0.0956991,0.555553,0
-0.0301403,0.465053,-0.571207,-0.0207979,0.0907722,0.367888,0
-0.233949,0.89963,-0.563857,-0.081435,0.0752037,0.0179976,0
-0.209055,0.94133,-0.585504,-0.143334,0.115051,-0.435402,0
-0.108705,0.6462,-0.570053,-0.150533,0.0922151,-0.76496,0
-0.135021,0.262195,-0.370938,-0.115668,0.0626155,-0.916272,0
-0.0921119,0.00341021,-0.258681,-0.129054,0.0940075,-1.00213,0
0.122763,-0.0932736,-0.269006,-0.139808,0.125941,-0.996817,0
0.257891,-0.191286,-0.246726,-0.110868,0.0802366,-0.854555,0
0.165526,-0.19617,-0.058824,-0.0400651,0.0324095,-0.647826,0
-0.164239,-0.161348,0.24702,-0.00072138,-0.00571802,-0.445788,0
-0.490343,-0.185151,0.571766,0.0126072,-0.0372942,-0.329012,0
-0.563769,-0.219436,0.82183,-0.00240795,-0.0254419,-0.261116,0
-0.498207,-0.216918,0.908213,-0.0338983,-0.0107041,-0.139986,0
-0.421779,-0.115536,0.869722,-0.0462608,-0.00389501,0.0171646,0
-0.421779,-0.115536,0.869722,-0.0462608,-0.00389501,0.0171646,0
-0.283852,0.120732,0.739403,-0.0485278,-0.00175944,0.14351,0
-0.044312,0.434748,0.552169,-0.0428743,-0.00240582,0.234055,0
0.218709,0.696378,0.355575,-0.0212042,0.00146189,0.321578,0
0.43374,0.801943,0.137833,-0.00201081,0.00224587,0.406739,0
0.606601,0.805897,-0.0658179,0.0303981,0.0105341,0.483061,0
0.752181,0.803821,-0.173268,0.0934656,0.0067988,0.548783,0
0.835046,0.818368,-0.133189,0.164353,-0.0219511,0.609409,0
0.786529,0.934438,0.115813,0.233113,-0.0493206,0.676927,0
0.637372,0.9177,0.439403,0.221011,-0.0764436,0.696353,0
0.390812,0.858627,0.724235,0.148357,-0.0685314,0.652282,0
0.192051,0.901984,0.861807,0.0233672,-0.0398529,0.501985,0
0.0413924,0.874716,0.92397,-0.0571432,0.0148316,0.285535,0
0.111956,0.817779,0.989759,-0.11389,0.0579359,-0.0141568,0
0.379663,0.51318,1.11603,-0.139505,0.0872129,-0.243481,0
0.462307,-0.08864,1.20197,-0.182111,0.0978163,-0.326993,0
0.0955773,-0.662759,1.30029,-0.193679,0.0596074,-0.303851,0
-0.689195,-0.736421,1.45923,-0.174357,0.0196503,-0.27398,0
-1.31512,-0.506377,1.41716,-0.211365,0.00148198,-0.411189,0
-1.21426,-0.511964,1.18806,-0.257585,-0.0524492,-0.651525,0
-1.04316,-0.287218,0.933262,-0.24405,-0.0458502,-0.668819,0
-1.16511,0.0576499,0.494532,-0.263574,-0.00191671,-0.607773,0
-1.09378,0.197505,-0.0846942,-0.266529,-0.00504622,-0.647586,0
-0.541632,0.0453789,-0.69536,-0.205817,-0.0403272,-0.668348,0
0.0135321,-0.197611,-1.11351,-0.0846793,-0.0979737,-0.468985,0
0.226824,-0.170325,-1.24052,0.0475125,-0.166458,-0.171099,0
0.240742,-0.00956237,-1.19442,0.150689,-0.210393,0.0420159,0
0.202053,0.125637,-1.00118,0.212469,-0.220783,0.173651,0
0.164435,0.147822,-0.729785,0.220914,-0.200433,0.259785,0
0.0549969,0.0794029,-0.532319,0.177495,-0.165071,0.342386,0
-0.0993068,0.0368194,-0.425946,0.155262,-0.145474,0.370098,0
-0.188136,0.033993,-0.332948,0.131168,-0.115183,0.397766,0
-0.165977,0.0365983,-0.206065,0.12914,-0.0806896,0.38713,0
-0.0103638,0.0174276,-0.0677452,0.112187,-0.053919,0.3586,0
0.237691,-0.0884012,0.00116808,0.0700721,-0.0182441,0.329618,0
0.475643,-0.263876,-0.104676,0.0108704,0.0478674,0.339305,0
0.682799,-0.520997,-0.326805,-0.0235148,0.118843,0.382016,0
0.801767,-0.736006,-0.554743,-0.0325472,0.163678,0.460827,0
0.855037,-0.821483,-0.744282,-0.017897,0.181018,0.546695,0
0.86384,-0.714943,-0.954736,-0.0112238,0.188185,0.619148,0
0.803174,-0.392063,-1.20223,-0.0279182,0.210033,0.638534,0
0.626345,-0.0418856,-1.29896,-0.0495901,0.200798,0.561689,0
0.213308,0.255285,-1.07127,0.00581291,0.148917,0.345409,0
-0.254857,0.514094,-0.63108,0.0993193,0.119235,-0.0225119,0
-0.7273,0.481906,-0.158387,0.099575,0.0661838,-0.500623,0
-1.26266,0.260076,0.36871,0.0091829,-0.00711802,-0.867615,0
-1.27738,-0.352746,0.637695,-0.0405779,0.0274936,-1.18112,0
-0.897467,-0.787957,0.629947,-0.0975173,0.100087,-1.33437,0
-0.503645,-0.935803,0.555506,-0.148405,0.0954048,-1.21836,0
-0.310635,-0.891496,0.5673,-0.123994,0.0340962,-0.89513,0
-0.263474,-0.783585,0.551599,-0.0814057,-0.0265244,-0.53643,0
-0.293632,-0.538048,0.481611,-0.0603439,-0.0703981,-0.206519,0
-0.247912,-0.187696,0.408261,-0.0268816,-0.111986,0.0214049,0
-0.06571,0.218314,0.329469,0.0139579,-0.1201,0.177635,0
0.175166,0.596739,0.212678,0.0484113,-0.101739,0.296979,0
0.175166,0.596739,0.212678,0.0484113,-0.101739,0.296979,0
0.422642,0.783078,0.0762525,0.069911,-0.0757373,0.392427,0
0.585201,0.731463,-0.025219,0.0952146,-0.0543127,0.47172,0
0.656489,0.523449,-0.0677783,0.122124,-0.0428884,0.546456,0
0.701036,0.266651,-0.0513144,0.154067,-0.0314315,0.596056,0
0.759114,0.0665128,0.0361625,0.170637,-0.0214658,0.625002,0
0.731285,0.0929236,0.186816,0.163196,-0.0127679,0.662748,0
0.63582,0.271814,0.312142,0.107754,-0.0106284,0.692769,0
0.635427,0.684463,0.34458,0.0247922,0.012936,0.662224,0
0.711114,1.14039,0.346289,-0.0512557,0.0438213,0.549713,0
0.555115,1.44535,0.361234,-0.0907811,0.036734,0.471008,0
0.216741,1.71404,0.511443,-0.12803,0.016921,0.34183,0
-0.0472946,1.49224,0.61813,-0.138554,-0.0161877,0.07752,0
-0.234306,0.441288,0.44063,-0.231746,-0.00579217,-0.260053,0
-0.801647,-0.494588,0.319301,-0.233568,-0.0481249,-0.495576,0
-1.26414,-0.891033,0.481752,-0.102361,-0.174047,-0.655963,0
-1.22741,-0.808951,0.675925,-0.0959821,-0.286539,-0.879231,0
-1.1019,-0.709789,0.535414,-0.188696,-0.258278,-1.00744,0
-1.04274,-0.730353,-0.0188207,-0.314194,-0.150384,-1.00651,0
-0.798001,-0.916474,-0.756165,-0.355521,-0.0571838,-0.975295,0
-0.35746,-0.944814,-1.35615,-0.227519,-0.015506,-0.840315,0
0.102111,-0.713067,-1.61366,-0.0538196,-0.0445596,-0.547277,0
0.391475,-0.434682,-1.69418,0.0902259,-0.0529271,-0.203141,0
0.471148,-0.0539348,-1.71685,0.159931,-0.03148,0.12544,0
0.501774,0.21835,-1.66917,0.186721,-0.00722161,0.37643,0
0.530298,0.3632,-1.55688,0.22024,0.0230317,0.558985,0
0.598602,0.473504,-1.51884,0.222474,0.0633233,0.686308,0
0.69694,0.436147,-1.5512,0.197366,0.137689,0.764502,0
0.863554,0.309225,-1.62834,0.185659,0.206236,0.817984,0
0.936726,0.145114,-1.64729,0.165967,0.250268,0.874824,0
0.824288,-0.137866,-1.59016,0.140734,0.251807,0.955086,0
0.4265,-0.412688,-1.38263,0.145916,0.242039,0.998055,0
-0.241989,-0.521829,-0.98669,0.119709,0.133983,1.03655,0
-1.10952,-0.302104,-0.379174,0.0902564,0.00211418,0.955518,0
-1.7157,0.430309,0.28838,-0.0464781,-0.0771699,0.578178,0
-1.93624,0.982724,0.920609,-0.0727748,0.00129721,-0.0854304,0
-1.8907,0.534239,1.49872,-0.0729436,0.0809397,-0.698304,0
-1.13919,-0.244488,1.58275,-0.303011,0.121932,-1.25403,0
-0.11636,-1.21482,1.00236,-0.441433,0.313157,-1.46457,0
0.474636,-1.63115,0.46336,-0.350995,0.344616,-1.1513,0
0.922069,-1.38967,0.416294,-0.122739,0.211502,-0.677301,0
1.38257,-0.81723,0.456494,0.056672,0.112545,-0.298621,0
1.64909,-0.337644,0.488208,0.152362,0.104705,0.0224725,0
1.62023,-0.266851,0.471407,0.224041,0.149239,0.312939,0
1.18333,-0.451468,0.587972,0.278541,0.129569,0.561439,0
0.210661,-0.534691,0.931451,0.311555,0.0214058,0.779292,0
-1.20293,-0.13391,1.49539,0.296234,-0.147129,0.852407,0
-2.51837,0.467511,1.95954,0.19216,-0.23149,0.60014,0
-3.50225,0.695192,2.17999,0.0556102,-0.279144,0.00581032,0
-3.62486,0.643115,1.94501,-0.171265,-0.209492,-0.700553,0
-2.3419,0.440021,0.853027,-0.497137,0.056886,-1.45779,0
-0.180731,-0.141426,-0.821232,-0.645414,0.298292,-1.77997,0
1.6337,-0.667308,-2.08015,-0.557721,0.246078,-1.42545,0
2.42705,-0.728049,-2.58358,-0.294671,0.134566,-0.630037,0
2.3541,-0.620521,-2.56893,-0.0113199,0.0350293,0.120069,0
2.3541,-0.620521,-2.56893,-0.0113199,0.0350293,0.120069,0
1.77243,-0.475861,-2.25652,0.167215,-0.0790428,0.622471,0
1.01201,-0.277707,-1.88631,0.232028,-0.166451,0.90282,0
0.303805,-0.0720329,-1.58918,0.217532,-0.198875,1.00481,0
-0.181668,0.0832625,-1.33967,0.189049,-0.197323,0.96598,0
-0.443027,0.262555,-1.1109,0.170439,-0.180938,0.866136,0
-0.463422,0.474568,-1.02867,0.0860134,-0.163485,0.70272,0
-0.266414,0.47123,-1.13161,-0.00928417,-0.0980944,0.504981,0
0.125725,0.263993,-1.27333,-0.0437384,-0.00449565,0.30649,0
0.563184,-0.0352661,-1.28816,-0.0705086,0.00436395,0.122213,0
0.609936,-0.226517,-1.14726,-0.0920148,0.00405729,0.0234423,0
0.350605,-0.594695,-0.880166,-0.114048,-0.0205927,-0.0409799,0
0.139674,-0.883163,-0.380962,-0.17657,-0.100209,-0.277405,0
-0.124722,-0.483926,0.251711,-0.185358,-0.140153,-0.458339,0
-0.494007,0.0514503,0.730039,-0.272413,-0.0854483,-0.55648,0
-0.812865,0.291956,0.947325,-0.365849,-0.0343417,-0.646692,0
-0.754822,0.332782,0.745383,-0.476429,0.064326,-0.799151,0
-0.312268,0.0308181,0.331088,-0.476943,0.178404,-0.903372,0
0.0533286,-0.489481,-0.00566017,-0.354199,0.20255,-0.766163,0
0.0749745,-0.869134,-0.128102,-0.216694,0.125086,-0.423769,0
0.107083,-1.06644,-0.229935,-0.151833,0.0574543,-0.151087,0
0.263693,-1.20631,-0.535746,-0.124542,0.073651,0.00270033,0
0.456221,-1.20344,-0.922381,-0.0941553,0.11993,0.15144,0
0.634902,-1.14098,-1.25833,-0.0440748,0.143942,0.301137,0
0.780948,-1.12077,-1.53656,0.0224975,0.162163,0.449073,0
0.835097,-1.11755,-1.7765,0.0842492,0.188,0.580232,0
0.77642,-1.11466,-1.92841,0.130557,0.202289,0.704147,0
0.548153,-1.0953,-1.96713,0.167065,0.188346,0.814679,0
0.151891,-0.956573,-1.9133,0.172572,0.140183,0.887454,0
-0.267659,-0.775141,-1.77664,0.140788,0.0824221,0.887741,0
-0.639475,-0.68408,-1.47776,0.0870955,-0.0021964,0.779516,0
-0.794644,-0.929437,-1.06196,-0.0352966,-0.147496,0.494644,0
-0.768358,-0.890799,-0.75009,-0.175131,-0.192678,0.0422919,0
-1.05467,-0.33525,-0.398448,-0.394937,-0.221463,-0.43016,0
-1.24683,-0.0399113,-0.267262,-0.55155,-0.150419,-0.8153,0
-0.945796,-0.178481,-0.653305,-0.669529,0.0109486,-1.20729,0
-0.277098,-0.818783,-1.32543,-0.651282,0.220694,-1.45147,0
0.0376955,-1.25559,-1.83885,-0.477968,0.292274,-1.25437,0
-0.0516148,-1.2903,-1.92467,-0.260349,0.149197,-0.786926,0
-0.32753,-1.08521,-1.816,-0.0790005,-0.00478446,-0.378524,0
-0.607817,-0.75849,-1.70419,0.0498676,-0.0741771,-0.0853437,0
-0.858765,-0.427071,-1.56982,0.146022,-0.0847718,0.115989,0
-1.06585,-0.118666,-1.41402,0.229876,-0.0695526,0.265912,0
-1.14657,0.180718,-1.28991,0.258533,-0.0486691,0.353756,0
-1.09582,0.395321,-1.27205,0.237611,-0.0124126,0.395138,0
-0.951529,0.474207,-1.35572,0.195799,0.0269024,0.415891,0
-0.815953,0.414418,-1.49124,0.140566,0.0454167,0.436927,0
-0.71294,0.213248,-1.62015,0.0917686,0.0533395,0.45765,0
-0.609951,0.0373977,-1.73881,0.0613287,0.0363935,0.465281,0
-0.442632,0.129641,-1.7978,0.00805561,0.0022063,0.434193,0
-0.380349,0.380578,-1.85675,-0.0884244,-0.0468643,0.365587,0
-0.567265,0.327176,-1.83034,-0.191761,-0.112282,0.260596,0
-0.872192,-0.133496,-1.55797,-0.236012,-0.239386,0.0317616,0
-1.01153,-0.0556629,-1.19862,-0.295556,-0.311433,-0.236131,0
-0.812103,0.480362,-1.09002,-0.447098,-0.245934,-0.499404,0
-0.812103,0.480362,-1.09002,-0.447098,-0.245934,-0.499404,0
-0.469456,0.638907,-1.30505,-0.560052,-0.0986508,-0.714702,0
0.0280986,0.502331,-1.73264,-0.600098,0.0805625,-0.842056,0
0.513801,0.293292,-2.14111,-0.554761,0.195097,-0.829835,0
0.732782,-0.0465862,-2.28633,-0.453727,0.191368,-0.659336,0
0.73357,-0.349175,-2.17976,-0.304428,0.150949,-0.401309,0
0.664457,-0.631521,-1.99281,-0.219974,0.13855,-0.190036,0
0.50104,-0.815236,-1.86049,-0.190354,0.160479,-0.00267661,0
0.292826,-0.857023,-1.80974,-0.209025,0.181875,0.13579,0
0.116373,-0.792365,-1.83647,-0.229275,0.208109,0.214055,0
-0.00470473,-0.624671,-1.90392,-0.261466,0.212668,0.242164,0
-0.0414537,-0.442289,-1.9705,-0.283121,0.209327,0.22874,0
-0.061985,-0.37872,-2.00638,-0.30332,0.212364,0.187346,0
-0.0953328,-0.358203,-1.99288,-0.301159,0.210371,0.147388,0
-0.00114313,-0.276422,-1.9592,-0.324091,0.200478,0.0806191,0
0.12623,-0.236716,-1.9003,-0.359513,0.18636,0.00621909,0
0.137122,-0.298325,-1.7955,-0.372182,0.180756,-0.0192373,0
0.103811,-0.334324,-1.64939,-0.367999,0.172236,-0.0365857,0
0.179425,-0.347545,-1.47856,-0.358197,0.172695,-0.0905603,0
0.331532,-0.4452,-1.32261,-0.334875,0.193506,-0.156584,0
0.449676,-0.689191,-1.23058,-0.315377,0.229834,-0.17164,0
0.485147,-0.990367,-1.15705,-0.290786,0.268756,-0.126054,0
0.429921,-1.17799,-1.06795,-0.256087,0.268765,-0.0406939,0
0.306858,-1.27849,-0.926378,-0.216524,0.248809,0.0415174,0
0.0967983,-1.34736,-0.785393,-0.170864,0.229686,0.101024,0
-0.0991376,-1.31556,-0.648075,-0.13635,0.203562,0.125572,0
-0.253064,-1.22593,-0.520313,-0.111289,0.183582,0.102004,0
-0.40517,-1.13962,-0.451907,-0.0814055,0.185303,0.0769683,0
-0.54997,-0.986438,-0.404975,-0.0529386,0.176899,0.0289901,0
-0.682103,-0.781896,-0.413538,-0.0333882,0.156503,-0.0323642,0
-0.683037,-0.647961,-0.521208,-0.0116769,0.148901,-0.120233,0
-0.510051,-0.518375,-0.577823,0.0386426,0.132127,-0.213217,0
-0.418997,-0.45922,-0.54985,0.115468,0.0935805,-0.234654,0
-0.509401,-0.4573,-0.480551,0.166607,0.0539245,-0.172513,0
-0.519514,-0.509168,-0.511996,0.182215,0.0234245,-0.135824,0
-0.292159,-0.570885,-0.636227,0.189211,0.0184314,-0.146961,0
0.014313,-0.582898,-0.74643,0.207385,0.00918621,-0.123006,0
0.158491,-0.44887,-0.760315,0.245059,-0.00255388,-0.0220037,0
0.108412,-0.182473,-0.722418,0.271186,-0.0167038,0.0881362,0
-0.0359643,0.119865,-0.625909,0.281255,-0.0322329,0.139686,0
-0.203746,0.328875,-0.450696,0.304952,-0.038242,0.122702,0
-0.373115,0.435976,-0.167907,0.330358,-0.0383209,0.0659221,0
-0.503379,0.373148,0.0994222,0.317644,-0.0409099,-0.0079264,0
-0.550941,0.172224,0.269539,0.255785,-0.0191717,-0.0673269,0
-0.461608,-0.107514,0.30145,0.163851,0.00465453,-0.103519,0
-0.300757,-0.250009,0.25715,0.0721803,0.0244453,-0.0844865,0
-0.20182,-0.286432,0.174165,0.00473066,0.029799,0.000718534,0
-0.206966,-0.213199,0.0864695,-0.0409584,0.0245123,0.113208,0
-0.232154,0.0147376,-0.0028726,-0.070324,0.0148686,0.192046,0
-0.288126,0.153054,-0.100032,-0.100364,-0.0120404,0.218443,0
-0.39885,0.212051,-0.212578,-0.125673,-0.0323209,0.23881,0
-0.508291,0.21474,-0.274829,-0.131364,-0.0579904,0.226973,0
-0.5748,0.175578,-0.32842,-0.138535,-0.0868273,0.186029,0
-0.609244,0.14931,-0.405806,-0.151945,-0.0967607,0.138926,0
-0.609244,0.14931,-0.405806,-0.151945,-0.0967607,0.138926,0
-0.584043,0.162208,-0.464337,-0.156297,-0.105457,0.0824937,0
-0.523096,0.117034,-0.504754,-0.149522,-0.110967,0.013685,0
-0.446827,-0.0509408,-0.583431,-0.159935,-0.111551,-0.0572108,0
-0.359034,-0.245875,-0.72341,-0.179176,-0.0931364,-0.109257,0
-0.209184,-0.334252,-0.890504,-0.185573,-0.0772528,-0.144053,0
-0.00544096,-0.263907,-1.09856,-0.177611,-0.0558296,-0.169979,0
0.257877,-0.0157056,-1.33707,-0.169304,-0.0210461,-0.164166,0
0.554245,0.171582,-1.52852,-0.152139,0.00344822,-0.153942,0
0.601672,0.212254,-1.57162,-0.117596,-0.0021801,-0.10168,0
0.337583,0.204617,-1.47467,-0.0748243,-0.0308492,-0.02179,0
0.0159145,0.101052,-1.2972,-0.0260322,-0.0377467,-0.0238878,0
-0.186125,-0.0552088,-1.0851,0.012154,-0.0372446,-0.0822334,0
-0.173441,-0.24724,-0.900064,0.0124398,-0.0112177,-0.163313,0
-0.0312556,-0.608764,-0.799514,0.00880241,0.0204293,-0.221988,0
0.0506593,-0.956333,-0.768118,0.010921,0.0595453,-0.193726,0
0.0776441,-1.14577,-0.784283,-0.0041533,0.0723495,-0.116806,0
0.0795826,-1.08904,-0.811086,-0.0228586,0.0782987,-0.0202259,0
0.104593,-0.901905,-0.85851,-0.0289367,0.0930715,0.0584409,0
0.134071,-0.689622,-0.918611,-0.0254277,0.112158,0.100723,0
0.0771124,-0.49097,-0.947742,-0.0313278,0.115031,0.137615,0
-0.0655254,-0.304756,-0.958875,-0.0354801,0.106884,0.158985,0
-0.196661,-0.116528,-0.956302,-0.0422574,0.107631,0.137628,0
-0.327006,0.143722,-0.917884,-0.0349982,0.10827,0.10132,0
-0.368032,0.279202,-0.91265,-0.0556273,0.105222,0.0184032,0
-0.31646,0.206558,-0.920487,-0.0586658,0.132576,-0.0885557,0
-0.235478,0.0804419,-0.892149,-0.0530372,0.131776,-0.142909,0
-0.0896824,-0.123772,-0.837957,-0.048923,0.116403,-0.165175,0
0.00794757,-0.334004,-0.812022,-0.0342167,0.121677,-0.130915,0
0.00988225,-0.373222,-0.740185,-0.0285981,0.114973,-0.0299587,0
0.0316016,-0.325508,-0.65291,-0.0223638,0.0853077,0.0448421,0
0.0137552,-0.220278,-0.560474,-0.0221597,0.0797903,0.105382,0
-0.0265341,-0.0962583,-0.450509,-0.0144624,0.0667981,0.155483,0
-0.0546479,-0.00507269,-0.326575,-0.00756988,0.0568866,0.169053,0
-0.0986145,0.0821268,-0.222185,-0.00912446,0.053752,0.178294,0
-0.0400602,0.110204,-0.159298,-0.0334334,0.0573291,0.150749,0
0.122388,0.0962378,-0.119702,-0.0256667,0.0688677,0.102979,0
0.328761,0.0732247,-0.0635113,-0.0198539,0.0658315,0.077273,0
0.468113,0.0635849,0.0111137,0.00877821,0.0663246,0.114502,0
0.514796,0.133819,0.102849,0.0320559,0.0712352,0.150676,0
0.541758,0.217777,0.236843,0.0608471,0.0706994,0.155526,0
0.596388,0.14835,0.373854,0.0756298,0.0852961,0.165822,0
0.662276,0.0309875,0.475507,0.0704083,0.103275,0.203356,0
0.621587,-0.18122,0.5733,0.069805,0.104453,0.283952,0
0.424962,-0.213515,0.64596,0.0595911,0.116063,0.347515,0
0.312769,-0.042335,0.618726,0.0299941,0.130716,0.300843,0
0.232975,0.146229,0.519739,0.00832267,0.133472,0.250796,0
-0.0265728,0.204978,0.421257,-0.0161267,0.0890297,0.188659,0
-0.438365,0.139495,0.404323,0.0214673,0.0236803,0.0790884,0
-0.770741,0.180765,0.528493,0.0289086,-0.0894578,-0.107472,0
-1.0762,0.401161,0.76425,0.0364123,-0.121507,-0.279645,0
-1.39906,0.465056,0.83484,0.0385131,-0.0858604,-0.487726,0
-1.48888,0.12061,0.765472,0.00636931,-0.0811572,-0.725821,0
-1.22287,-0.267839,0.58071,-0.000289351,-0.0406964,-0.865369,0
-0.867995,-0.601368,0.29789,0.0222694,-0.0111663,-0.799304,0
-0.867995,-0.601368,0.29789,0.0222694,-0.0111663,-0.799304,0
-0.44464,-0.745869,0.0230089,0.0203937,-0.0608466,-0.624984,0
0.0230947,-0.609406,-0.157002,0.0549161,-0.0950142,-0.386681,0
0.412863,-0.323495,-0.272186,0.0783948,-0.134456,-0.160489,0
0.626288,-0.00892569,-0.29151,0.120055,-0.14742,0.0327846,0
0.685049,0.255939,-0.236537,0.156881,-0.138779,0.196584,0
0.664478,0.527653,-0.13316,0.152529,-0.131768,0.305677,0
0.630084,0.691447,-0.0404952,0.127158,-0.0981025,0.367303,0
0.51922,0.688522,0.0194894,0.0914197,-0.0591511,0.40915,0
0.308927,0.504784,0.0515093,0.0697947,-0.0278675,0.424697,0
0.0664259,0.180278,0.0835921,0.0587047,-0.0110961,0.408537,0
-0.0828269,-0.14912,0.102275,0.0625021,0.0102023,0.369834,0
-0.0533542,-0.273766,0.0536366,0.0357875,0.0304345,0.329514,0
0.0542536,-0.246507,-0.0734556,0.00836603,0.0480163,0.303898,0
0.0906481,-0.209376,-0.202615,0.0134729,0.0490834,0.301848,0
0.128058,-0.121218,-0.319984,0.0287708,0.0467932,0.270843,0
0.251214,-0.00745298,-0.394609,0.0479138,0.0491419,0.225535,0
0.367986,0.0586274,-0.430905,0.0797964,0.0472341,0.203305,0
0.34204,0.0406334,-0.37085,0.106437,0.0348068,0.206448,0
0.173858,-0.00164016,-0.278899,0.107022,0.0396942,0.190778,0
0.0382909,-0.0449084,-0.192459,0.0976531,0.0371445,0.114814,0
-0.0326218,-0.105431,-0.100322,0.0622304,0.0221984,0.00450557,0
-0.108621,-0.101709,-0.0150699,0.0560062,0.027893,-0.115262,0
-0.219595,-0.101356,0.0975889,0.0476596,-0.00724009,-0.209188,0
-0.636547,-0.166379,0.370271,0.0271261,-0.0542349,-0.244236,0
-1.09284,0.00681208,0.60008,-0.0284228,-0.0461713,-0.355906,0
-1.12903,0.341407,0.586256,-0.135895,0.0010899,-0.557135,0
-0.870648,0.599783,0.451317,-0.206779,0.0209341,-0.705322,0
-0.543705,0.65334,0.252814,-0.223316,0.0342316,-0.742425,0
-0.292369,0.395188,0.0782271,-0.18721,0.0308718,-0.658183,0
-0.215523,0.0744741,-0.0219366,-0.157942,-0.0119208,-0.471658,0
-0.172199,-0.204068,-0.0467845,-0.107985,-0.0385676,-0.271802,0
-0.157688,-0.276722,-0.0452054,-0.0767849,-0.0571045,-0.0703723,0
-0.146436,-0.214778,-0.0245944,-0.0635823,-0.0834353,0.0977467,0
-0.129036,0.0115944,-0.0350798,-0.0654412,-0.0950655,0.211951,0
-0.0428908,0.280007,-0.10058,-0.0594484,-0.0890452,0.277384,0
0.11409,0.512097,-0.182507,-0.0492899,-0.0765548,0.304295,0
0.367254,0.642778,-0.208397,-0.0180269,-0.0545829,0.304333,0
0.601541,0.618405,-0.167431,-0.0107779,-0.0227531,0.323833,0
0.694206,0.482534,-0.118365,-0.0251672,0.0238302,0.359035,0
0.651938,0.251065,-0.0646968,-0.0418083,0.0669399,0.398828,0
0.601087,0.163583,-0.00579692,-0.0694958,0.0825394,0.392602,0
0.608962,0.160304,0.119104,-0.0726631,0.0919553,0.36465,0
0.618577,0.103885,0.253925,-0.0631238,0.108693,0.345831,0
0.572047,0.105817,0.409432,-0.0565495,0.124396,0.338778,0
0.450869,0.134766,0.521009,-0.0804962,0.157488,0.318067,0
0.207896,0.0435681,0.532901,-0.105217,0.190493,0.278198,0
-0.0762655,-0.113249,0.467044,-0.120991,0.178408,0.203888,0
-0.371802,-0.170355,0.353765,-0.111414,0.15186,0.0836131,0
-0.501623,0.00490175,0.247904,-0.108387,0.0976478,-0.123557,0
-0.551141,0.216722,0.233757,-0.0375867,0.0160054,-0.296146,0
-0.705284,0.285505,0.256176,-0.00088232,-0.02863,-0.467446,0
-0.858088,-0.065899,0.284023,0.049382,-0.0391582,-0.601726,0
-1.12406,-0.351005,0.259853,0.0638567,-0.0310945,-0.633294,0
-1.13317,-0.394022,0.0350025,0.0151073,-0.0393788,-0.724684,0
-1.13317,-0.394022,0.0350025,0.0151073,-0.0393788,-0.724684,0
-0.58044,-0.504907,-0.335508,-0.0135502,-0.0410063,-0.809996,0
0.112488,-0.649034,-0.697472,0.0334802,-0.0646677,-0.671752,0
0.403272,-0.522724,-0.838754,0.117415,-0.125896,-0.365358,0
0.345033,-0.313945,-0.757829,0.210793,-0.179729,-0.115825,0
0.123292,-0.156314,-0.490055,0.273831,-0.226481,0.03477,0
-0.0666708,-0.0412531,-0.15547,0.267137,-0.220018,0.105444,0
-0.113927,-0.0389423,0.0362131,0.211487,-0.155708,0.13194,0
-0.0317069,-0.0742712,0.0842209,0.14039,-0.0932078,0.169519,0
0.119902,-0.0876174,0.0089785,0.0764585,-0.0452677,0.228121,0
0.275245,-0.0625411,-0.128003,0.0471493,-0.00625262,0.303582,0
0.371216,-0.00501599,-0.289836,0.0326417,0.0153291,0.377912,0
0.415014,0.064496,-0.419478,0.0347074,0.0190013,0.44425,0
0.428028,0.0848419,-0.487678,0.0499817,0.00746311,0.48127,0
0.417479,0.0942639,-0.511073,0.062931,0.00954475,0.496264,0
0.401358,0.052475,-0.538634,0.0723295,0.01382,0.495213,0
0.320093,-0.0838317,-0.5282,0.092838,0.0238695,0.496417,0
0.248023,-0.179815,-0.49401,0.117574,0.0203866,0.478198,0
0.275487,-0.0112585,-0.377421,0.147891,0.0114858,0.433235,0
0.172291,0.35694,-0.229377,0.147364,0.0101132,0.399836,0
-0.016537,0.584591,-0.095077,0.104715,0.0106739,0.273575,0
-0.248393,0.600947,0.00992377,0.0646608,0.0159375,0.110708,0
-0.642594,0.558647,0.0536819,0.000156917,0.00941959,-0.0943412,0
-0.928967,0.543712,0.034835,-0.0322072,0.0235283,-0.395636,0
-0.84152,0.66515,-0.0440292,-0.0437402,0.0490118,-0.706015,0
-0.517926,0.686561,-0.0719319,-0.0181148,0.0465868,-0.902201,0
-0.415535,0.581738,0.0416653,0.00477307,0.0154028,-0.921111,0
-0.571406,0.393335,0.188806,-0.0145638,-0.00161073,-0.85573,0
-0.592138,0.198509,0.185175,-0.0692068,0.016541,-0.833906,0
-0.280948,-0.0693746,0.122695,-0.0741052,0.024326,-0.753256,0
0.0339998,-0.145649,0.108904,-0.0609533,-0.00978026,-0.495884,0
0.161104,0.0102098,0.095667,-0.0744483,-0.0177084,-0.199479,0
0.252637,0.195703,0.0284241,-0.0936493,-0.0264838,0.0220003,0
0.357987,0.436955,-0.0630321,-0.0960465,-0.0268029,0.181273,0
0.50532,0.679754,-0.123236,-0.085015,-0.0244795,0.286187,0
0.641306,0.774925,-0.12942,-0.0573892,-0.0267802,0.382801,0
0.633584,0.702095,-0.069287,-0.0362462,-0.0308529,0.481077,0
0.528837,0.578433,0.0262682,-0.0521063,-0.0309082,0.544283,0
0.37737,0.428971,0.112094,-0.0843812,-0.00780192,0.549258,0
0.297718,0.303986,0.119266,-0.120694,0.019353,0.506935,0
0.322947,0.276388,0.124631,-0.127976,0.0391522,0.451857,0
0.284257,0.324212,0.252122,-0.10743,0.030448,0.417752,0
0.160161,0.251944,0.460174,-0.078466,0.0363562,0.371216,0
0.0508046,0.108881,0.647543,-0.0850839,0.0674798,0.308578,0
-0.0397305,0.0302073,0.687671,-0.137013,0.107355,0.230644,0
0.0400559,-0.00857504,0.4886,-0.194834,0.144303,0.112476,0
0.158184,-0.161764,0.266959,-0.156302,0.128272,0.0452289,0
-0.07196,-0.156775,0.219654,-0.079369,0.071084,0.0264874,0
-0.419381,-0.0297485,0.263057,-0.0310405,0.0133263,-0.115578,0
-0.624161,0.0896692,0.279109,-0.0178641,-0.0401152,-0.297672,0
-0.816396,0.235505,0.287376,0.0339696,-0.0536415,-0.452471,0
-0.768977,0.21732,0.207868,0.0780996,-0.0190686,-0.609422,0
-0.389634,-0.0794099,-0.0135682,0.091056,-0.00165726,-0.712691,0
-0.0407677,-0.50987,-0.279752,0.0778044,-0.0146409,-0.613254,0
-0.0407677,-0.50987,-0.279752,0.0778044,-0.0146409,-0.613254,0
-0.0524404,-0.455903,-0.452292,0.0772055,-0.0556256,-0.391036,0
-0.0529528,-0.266492,-0.514852,0.112147,-0.0858574,-0.273272,0
0.0673756,-0.153367,-0.490144,0.159379,-0.0945476,-0.19656,0
0.121801,-0.0579355,-0.461189,0.15717,-0.0946685,-0.0888728,0
0.00586476,0.00138432,-0.385186,0.183963,-0.105169,0.0280302,0
-0.215958,0.0471097,-0.208485,0.19824,-0.132306,0.105677,0
-0.381509,0.149126,0.0243041,0.174564,-0.13298,0.118278,0
-0.360447,0.166693,0.136953,0.105772,-0.0993498,0.083163,0
-0.180111,0.0368887,0.131386,0.0638546,-0.0553137,0.0766198,0
0.0460521,-0.0774735,0.0349626,0.0430212,-0.0360394,0.13104,0
0.281057,-0.139185,-0.0736794,0.0425439,-0.0249656,0.21285,0
0.470572,-0.171733,-0.128821,0.042271,-0.0264786,0.30819,0
0.562765,-0.168611,-0.149459,0.0500613,-0.0138341,0.389717,0
0.53038,-0.216685,-0.169427,0.0567024,-0.0103664,0.477856,0
0.439973,-0.263578,-0.15085,0.0858109,0.0109194,0.52484,0
0.322359,-0.344113,-0.0937758,0.109339,0.0184966,0.549096,0
0.209644,-0.369292,-0.0322102,0.10888,0.0336849,0.54102,0
0.149287,-0.280661,-0.0339348,0.081045,0.051028,0.492882,0
0.0757577,-0.111505,-0.0959048,0.0456744,0.0740036,0.412851,0
-0.0657674,-0.0621066,-0.131933,0.0543036,0.0826092,0.293465,0
-0.187866,0.216282,-0.193991,0.0491121,0.138991,0.0676125,0
-0.245908,0.595762,-0.197428,0.0426821,0.132163,-0.182441,0
-0.453104,0.808375,-0.130516,0.0321042,0.148483,-0.374862,0
-0.726921,0.701521,-0.150073,-0.0105562,0.147189,-0.556047,0
-0.766937,0.331089,-0.232628,-0.054661,0.124497,-0.738226,0
-0.668858,-0.170341,-0.260817,-0.0697199,0.0712856,-0.812336,0
-0.784176,-0.449477,-0.181489,-0.044876,1.51098e-05,-0.740945,0
-0.924817,-0.216646,0.0277668,-0.0294815,-0.020052,-0.68811,0
-0.843472,0.19038,0.163941,-0.0771467,-0.0299266,-0.702885,0
-0.519681,0.20155,0.118301,-0.141339,-0.0195994,-0.699903,0
-0.144361,-0.171126,-0.0720169,-0.167395,-0.0116951,-0.554497,0
0.159945,-0.462934,-0.241158,-0.136097,-0.0493046,-0.300729,0
0.366954,-0.550631,-0.268904,-0.0881023,-0.0896644,-0.0267343,0
0.507519,-0.485516,-0.238999,-0.0468359,-0.1162,0.1908,0
0.552318,-0.359378,-0.186942,-0.0295183,-0.12854,0.366964,0
0.536742,-0.224777,-0.115331,-0.0184475,-0.129071,0.489386,0
0.463983,-0.129317,-0.0300293,-0.00808335,-0.128823,0.573557,0
0.320192,0.00706983,0.0393302,-0.0131048,-0.118209,0.616094,0
0.200117,0.246599,0.116792,-0.02234,-0.112725,0.589331,0
0.217213,0.533035,0.196689,-0.0235572,-0.0728841,0.483386,0
0.379967,0.665296,0.236459,-0.0308797,-0.0216888,0.364327,0
0.525222,0.565573,0.390569,-0.0237981,-0.00586829,0.302675,0
0.514455,0.354635,0.639072,-0.030258,-0.00386199,0.281421,0
0.457357,0.0568161,0.870718,-0.0587014,0.0316959,0.243028,0
0.423093,-0.179085,0.965485,-0.107468,0.0950586,0.192214,0
0.457737,-0.247709,0.923337,-0.17096,0.137477,0.141645,0
0.498592,-0.258719,0.763129,-0.216027,0.171724,0.109705,0
0.404427,-0.253412,0.542336,-0.226699,0.181565,0.0899118,0
0.170799,-0.384219,0.336369,-0.208518,0.154559,0.0552086,0
-0.338675,-0.501606,0.371373,-0.12547,0.110289,0.0278133,0
-1.17937,-0.263875,0.525557,-0.139564,0.0844468,-0.0472198,0
-1.91499,-0.155503,0.320808,-0.201503,0.193332,-0.294277,0
-2.0396,-0.286416,-0.23576,-0.244129,0.251589,-0.625352,0
-1.60741,-0.360966,-0.883725,-0.220292,0.224756,-0.824592,0
-1.60741,-0.360966,-0.883725,-0.220292,0.224756,-0.824592,0
-1.05126,-0.378551,-1.47158,-0.103958,0.146306,-0.808545,0
-0.67217,-0.307606,-1.81644,-0.0210255,0.079781,-0.728414,0
-0.431316,-0.15584,-1.81643,0.14147,-0.0558375,-0.520143,0
-0.273139,-0.122663,-1.5344,0.293541,-0.182537,-0.318378,0
-0.158804,-0.228774,-1.17973,0.349317,-0.266732,-0.144513,0
-0.0162402,-0.440663,-0.903682,0.31002,-0.297524,-0.00459504,0
0.166793,-0.616804,-0.739613,0.259317,-0.257442,0.123082,0
0.331182,-0.647637,-0.599151,0.206221,-0.249268,0.261904,0
0.460048,-0.513276,-0.478165,0.164419,-0.227664,0.388865,0
0.547929,-0.327428,-0.385165,0.110639,-0.209926,0.486086,0
0.560032,-0.250599,-0.332691,0.0670102,-0.173175,0.556337,0
0.421724,-0.362379,-0.321497,0.0198826,-0.144932,0.608334,0
0.172887,-0.572883,-0.373671,-0.0107698,-0.107485,0.645822,0
-0.0174865,-0.565537,-0.449316,-0.030184,-0.0722714,0.635224,0
-0.0811564,-0.280028,-0.478252,-0.0295364,-0.0518649,0.565421,0
-0.0601182,0.128973,-0.50541,-0.0300847,-0.0397033,0.446311,0
0.00601982,0.406887,-0.580701,0.0267234,0.0342901,0.261339,0
0.0668938,0.238894,-0.644326,0.0712405,0.106151,0.0425912,0
0.0294243,0.0622782,-0.426084,0.0658147,0.078835,-0.17603,0
-0.379634,-0.00665535,0.107568,0.0508223,0.0109617,-0.307764,0
-1.27088,0.0865626,0.670741,0.0067606,-0.016468,-0.419114,0
-1.80002,0.242915,1.00327,0.0137077,0.0853039,-0.675956,0
-1.5147,0.440808,1.05242,-0.171362,0.278665,-1.2423,0
-0.815899,0.292995,0.746132,-0.273281,0.340043,-1.30075,0
-0.0829232,-0.264068,0.286836,-0.303361,0.243744,-1.04899,0
0.457687,-0.633153,0.0256091,-0.253277,0.106553,-0.607887,0
0.796117,-0.715581,-0.134788,-0.18013,0.00284471,-0.17546,0
0.94417,-0.555794,-0.276551,-0.134337,-0.0546942,0.168239,0
0.963417,-0.321119,-0.377083,-0.0987406,-0.0955262,0.412898,0
0.925692,-0.103874,-0.442931,-0.0749496,-0.118688,0.567325,0
0.837717,0.00520135,-0.475224,-0.0606165,-0.126999,0.667108,0
0.639386,-0.0215252,-0.46806,-0.0439598,-0.134123,0.743321,0
0.478412,0.0164652,-0.441998,-0.0237463,-0.137384,0.750342,0
0.453958,0.150965,-0.435095,-0.046787,-0.145169,0.713178,0
0.519818,0.315558,-0.492569,-0.0846264,-0.123469,0.655497,0
0.561664,0.353223,-0.580025,-0.112522,-0.100073,0.616914,0
0.530676,0.370505,-0.724195,-0.16071,-0.0707456,0.542547,0
0.406603,0.301191,-0.852094,-0.177118,-0.0561665,0.429804,0
0.0792359,0.243257,-0.772049,-0.114735,-0.0421151,0.258008,0
-0.0668816,0.148705,-0.410237,-0.0489428,-0.0649093,-0.0414426,0
-0.299728,0.347197,0.0677888,-0.0827646,-0.00859462,-0.257622,0
-0.787467,0.489545,0.190577,-0.21859,0.132039,-0.463293,0
-0.85874,0.0677293,-0.144683,-0.313582,0.239462,-0.737512,0
-0.334604,-0.604588,-0.656952,-0.305475,0.232007,-0.883511,0
-0.0374632,-0.740885,-0.882747,-0.175792,0.141788,-0.697435,0
-0.388166,-0.29791,-0.797635,-0.0303425,0.0741967,-0.435756,0
-0.715909,-0.00143953,-0.801943,-0.0615427,0.0446399,-0.390359,0
-0.456227,-0.0344056,-1.05569,-0.108809,0.0507676,-0.412162,0
0.196067,-0.345849,-1.45049,-0.0654214,0.0497716,-0.298697,0
0.79053,-0.686067,-1.75924,0.0321065,0.0254971,-0.033886,0
1.07112,-0.790219,-1.84907,0.0973366,-0.0125259,0.284853,0
1.07045,-0.778077,-1.85759,0.113969,-0.0497813,0.544242,0
0.869914,-0.706301,-1.86014,0.113429,-0.0617034,0.717342,0
0.641594,-0.561973,-1.80845,0.119644,-0.0605646,0.789734,0
0.641594,-0.561973,-1.80845,0.119644,-0.0605646,0.789734,0
0.490032,-0.42389,-1.77458,0.0861429,-0.0739593,0.799997,0
0.234385,-0.226878,-1.7384,0.0394651,-0.0593226,0.787732,0
-0.077702,0.0449588,-1.78615,-0.0307904,-0.0304371,0.664835,0
-0.138494,0.306302,-1.89529,-0.148742,-0.0474755,0.339053,0
-0.380467,0.390248,-2.01696,-0.202729,-0.00247771,-0.0282524,0
-0.864148,0.681772,-1.97142,-0.186305,0.0162273,-0.397601,0
-0.94592,1.07225,-1.73745,-0.234239,0.00640096,-0.861779,0
-0.593179,1.22032,-1.59165,-0.340005,0.08013,-1.24944,0
-0.0468802,0.827954,-1.65493,-0.366098,0.199241,-1.44056,0
0.24288,0.133732,-1.78256,-0.286468,0.264255,-1.34791,0
0.174768,-0.38421,-1.73158,-0.196955,0.203369,-1.07817,0
0.0491892,-0.590408,-1.43811,-0.139482,0.136197,-0.785566,0
-0.0294178,-0.655861,-1.22982,-0.161882,0.118444,-0.509553,0
-0.00523705,-0.686974,-1.2204,-0.205978,0.125556,-0.248928,0
0.136179,-0.575725,-1.35515,-0.231742,0.120883,-0.0432282,0
0.37165,-0.405168,-1.53487,-0.21233,0.114729,0.122099,0
0.564681,-0.257687,-1.67368,-0.1553,0.11075,0.280947,0
0.696488,-0.131202,-1.7383,-0.117252,0.0990824,0.407616,0
0.76437,-0.0646757,-1.69927,-0.0872491,0.098758,0.512685,0
0.76408,-0.0707114,-1.62939,-0.0848764,0.0986215,0.585051,0
0.664058,-0.118761,-1.55657,-0.113432,0.101288,0.644009,0
0.46844,-0.0302666,-1.51332,-0.174701,0.0982842,0.652166,0
0.330899,0.198893,-1.50998,-0.245787,0.0915592,0.548953,0
0.37141,0.491497,-1.48615,-0.296146,0.067489,0.347871,0
0.449759,0.296211,-1.44296,-0.365646,0.00220612,0.0900638,0
0.0839788,-0.223158,-1.06674,-0.321102,-0.0835713,-0.148632,0
-0.349872,-0.20674,-0.475753,-0.344848,-0.0901516,-0.454063,0
-0.309346,0.15773,-0.133551,-0.465936,0.0310795,-0.772781,0
0.0941798,0.538586,-0.399484,-0.608968,0.262057,-1.03231,0
0.867035,0.214552,-1.19319,-0.598138,0.447134,-1.17211,0
1.57105,-0.75673,-1.96864,-0.346651,0.507639,-1.02228,0
1.76561,-1.74179,-2.20645,0.00201267,0.475409,-0.62539,0
1.61162,-2.36696,-2.03361,0.200589,0.438555,-0.233213,0
1.29306,-2.64899,-1.84556,0.230533,0.410832,0.0661375,0
0.947672,-2.6139,-1.82531,0.195533,0.421658,0.262407,0
0.691739,-2.38004,-1.94592,0.160941,0.437142,0.372333,0
0.511931,-2.02025,-2.09237,0.16719,0.415859,0.445411,0
0.323216,-1.56641,-2.20172,0.198682,0.363055,0.514689,0
0.0893387,-1.00465,-2.19701,0.226428,0.293358,0.559392,0
-0.154406,-0.435409,-2.01849,0.230072,0.215855,0.563039,0
-0.550933,0.0204433,-1.65896,0.254995,0.147275,0.541803,0
-1.04116,0.299337,-1.24087,0.197698,0.0779245,0.428664,0
-1.25997,0.201657,-0.960879,0.090045,0.0711273,0.168954,0
-1.29119,-0.200542,-0.866849,0.0152986,0.0801612,-0.0399094,0
-1.24201,-0.695214,-0.855539,-0.0676113,0.0668286,-0.181194,0
-1.17321,-1.3033,-0.890046,-0.117608,0.0300202,-0.237572,0
-1.03812,-1.64413,-0.939127,-0.155572,-0.0059672,-0.252605,0
-0.81292,-1.60555,-1.00733,-0.180733,-0.0342264,-0.227572,0
-0.613734,-1.27082,-1.10015,-0.209478,-0.051483,-0.203354,0
-0.44842,-0.91041,-1.30198,-0.236347,-0.0319418,-0.197464,0
-0.247236,-0.545567,-1.57161,-0.219667,-0.0129992,-0.230782,0
0.000519402,-0.494194,-1.79802,-0.154034,-0.013385,-0.281823,0
0.0966424,-0.563483,-1.85657,-0.0531846,-0.0356332,-0.251764,0
0.0800299,-0.482481,-1.76735,0.0385775,-0.0335847,-0.228034,0
0.0800299,-0.482481,-1.76735,0.0385775,-0.0335847,-0.228034,0
0.153691,-0.350248,-1.63991,0.0769411,-0.0278418,-0.238449,0
0.263443,-0.30771,-1.52236,0.0738531,0.00526637,-0.229098,0
0.351905,-0.491095,-1.46631,0.072581,0.0490551,-0.17703,0
0.336705,-0.733119,-1.40215,0.0694017,0.0784976,-0.055012,0
0.16642,-0.844029,-1.32707,0.045914,0.0842244,0.0859924,0
-0.0264838,-0.851045,-1.23947,0.0196155,0.0848644,0.17256,0
-0.185938,-0.767676,-1.1699,-0.0231571,0.0885799,0.228901,0
-0.384856,-0.531185,-1.18561,-0.0975554,0.0950873,0.267336,0
-0.553705,-0.215392,-1.28233,-0.170478,0.0876547,0.240424,0
-0.649847,0.03556,-1.39606,-0.210607,0.0848721,0.1597,0
-0.684373,0.177203,-1.51982,-0.23952,0.0848622,0.0523318,0
-0.683711,0.287269,-1.62132,-0.243596,0.0893979,-0.0573036,0
-0.672281,0.418977,-1.63307,-0.217319,0.0720443,-0.173604,0
-0.534301,0.467614,-1.61307,-0.217995,0.0713049,-0.303705,0
-0.210534,0.294796,-1.64787,-0.220053,0.0919997,-0.389871,0
0.15046,-0.0372663,-1.70407,-0.209676,0.112318,-0.369991,0
0.402435,-0.357072,-1.71421,-0.186391,0.107916,-0.251391,0
0.484726,-0.492862,-1.64546,-0.15423,0.0972354,-0.0976859,0
0.49308,-0.48887,-1.50842,-0.124076,0.087048,0.0142342,0
0.475181,-0.362894,-1.35556,-0.123702,0.0787744,0.0795602,0
0.426938,-0.238456,-1.19116,-0.118674,0.0865088,0.118022,0
0.365424,-0.230805,-1.04002,-0.121015,0.096546,0.1193,0
0.291626,-0.233021,-0.854636,-0.108243,0.102481,0.107303,0
0.260762,-0.226601,-0.696171,-0.125681,0.111309,0.077857,0
0.223454,-0.180618,-0.5775,-0.144946,0.124738,0.047779,0
0.20633,-0.187143,-0.485968,-0.139403,0.136905,-0.000854611,0
0.218457,-0.19011,-0.401435,-0.119925,0.142943,-0.0519689,0
0.231918,-0.164241,-0.326747,-0.0996064,0.155123,-0.0750979,0
0.171413,-0.131581,-0.279931,-0.0796909,0.157169,-0.0890828,0
0.163369,-0.237388,-0.250598,-0.0399541,0.156639,-0.125704,0
0.169682,-0.452923,-0.188898,0.00723995,0.138382,-0.115586,0
0.073916,-0.63369,-0.130113,0.0568553,0.12498,-0.0450295,0
-0.108692,-0.593324,-0.0596483,0.100068,0.0951614,0.0298504,0
-0.230313,-0.379907,0.0193259,0.140358,0.0800563,0.0448306,0
-0.186077,-0.17892,0.0310549,0.137703,0.0838867,0.0137364,0
-0.0296647,-0.0818306,-0.0914478,0.113796,0.0877011,0.00138181,0
0.0676732,-0.224901,-0.238412,0.128853,0.100189,0.0195622,0
-0.10458,-0.384826,-0.316169,0.143303,0.0554145,0.0989918,0
-0.372499,-0.265206,-0.309215,0.147351,0.0127864,0.111649,0
-0.536483,-0.0481094,-0.252969,0.172021,-0.00611851,0.0387479,0
-0.639187,0.201273,-0.214373,0.18411,-0.00297299,-0.0577419,0
-0.54023,0.346113,-0.257364,0.161876,3.09944e-05,-0.17594,0
-0.225456,0.266277,-0.354137,0.144275,-1.41263e-05,-0.234667,0
0.113929,0.00694564,-0.365159,0.165268,-0.0259729,-0.171444,0
0.230896,-0.237435,-0.222238,0.175119,-0.0584287,0.00466025,0
0.111186,-0.334263,-0.051892,0.146698,-0.0593249,0.176427,0
-0.0840715,-0.29737,0.112702,0.115006,-0.0547056,0.280338,0
-0.283465,-0.0784319,0.248138,0.0480344,-0.0586658,0.316935,0
-0.400442,0.18984,0.290463,-0.0122558,-0.0367525,0.269933,0
-0.412788,0.269807,0.216798,-0.0600853,-0.013391,0.187167,0
-0.424701,0.223028,0.152954,-0.0757406,-0.0219119,0.127852,0
-0.460899,0.162902,0.0976419,-0.0913168,-0.0282685,0.0762208,0
-0.470836,0.077408,0.0245779,-0.0792592,-0.0227154,0.0213166,0
-0.451807,0.0639906,-0.0241358,-0.067567,-0.0331556,-0.0271473,0
-0.451807,0.0639906,-0.0241358,-0.067567,-0.0331556,-0.0271473,0
-0.359288,0.0598569,-0.0885579,-0.0686394,-0.0294966,-0.0778292,0
-0.148357,-0.095358,-0.19848,-0.0616469,-0.00883305,-0.108803,0
0.124508,-0.354292,-0.348597,-0.0547047,0.00742573,-0.0674813,0
0.331022,-0.501881,-0.481781,-0.0423789,0.0113335,0.046698,0
0.435527,-0.580869,-0.572869,-0.00629988,0.00824521,0.172908,0
0.4662,-0.586472,-0.617293,0.0373121,0.00907753,0.289561,0
0.425849,-0.448059,-0.590577,0.0715184,0.00255215,0.397227,0
0.338248,-0.247333,-0.550936,0.0896276,0.0056625,0.467666,0
0.241871,-0.0713177,-0.539355,0.105964,0.0281225,0.491597,0
0.0518331,-0.000380738,-0.495809,0.115922,0.0209922,0.520625,0
-0.112146,-0.0197009,-0.439977,0.12378,0.026716,0.466893,0
-0.143292,-0.117442,-0.463981,0.10508,0.0596738,0.339798,0
-0.0776844,-0.452298,-0.616688,0.0572275,0.102987,0.185345,0
-0.103763,-0.853244,-0.794632,0.0389983,0.115933,0.0320608,0
-0.178282,-0.529157,-0.750961,0.0614326,0.0764833,-0.138062,0
-0.282447,0.0660304,-0.3672,0.138446,0.00101179,-0.337486,0
-0.777156,0.7188,0.215565,0.128979,-0.0347281,-0.441607,0
-1.24827,0.948401,0.558024,-0.00183012,-0.00965226,-0.662285,0
-1.19098,0.638047,0.560544,-0.129314,0.0447207,-0.889871,0
-0.746735,0.194318,0.337478,-0.207191,0.0714416,-0.938224,0
-0.218549,-0.221926,0.0867056,-0.220898,0.0341631,-0.783617,0
0.0308149,-0.36401,-0.0411082,-0.196879,-0.0307605,-0.465816,0
-0.0209185,-0.24484,-0.0465783,-0.158085,-0.0897521,-0.176006,0
-0.260386,-0.0167984,0.00925141,-0.110969,-0.118731,0.01434,0
-0.489957,0.248871,0.103118,-0.0858157,-0.148627,0.0970187,0
-0.449633,0.52181,0.157745,-0.0821543,-0.128048,0.0736769,0
-0.233089,0.645385,0.0854561,-0.0955885,-0.100881,0.0776373,0
0.0131567,0.605145,-0.0434108,-0.104251,-0.0759924,0.130634,0
0.222096,0.423481,-0.177264,-0.0917125,-0.0653846,0.207369,0
0.344204,0.245125,-0.251537,-0.0564157,-0.061394,0.296463,0
0.478769,0.232589,-0.225832,-0.0353667,-0.0652767,0.353945,0
0.649123,0.370337,-0.149558,-0.0271514,-0.0502814,0.384025,0
0.783212,0.476629,-0.0526443,-0.0244464,-0.0193685,0.410531,0
0.829852,0.448218,0.0728204,-0.0285969,0.00675409,0.436682,0
0.729431,0.365016,0.262683,-0.0154458,0.0276667,0.46804,0
0.583402,0.278236,0.475709,-0.00592808,0.0613472,0.465265,0
0.469941,0.236455,0.637339,-0.0117007,0.10684,0.432604,0
0.385017,0.230033,0.728281,-0.0374016,0.146565,0.366982,0
0.410515,0.127148,0.703483,-0.0571557,0.197602,0.272045,0
0.445089,-0.0475462,0.56407,-0.0642512,0.21975,0.238999,0
0.314395,0.0248991,0.315885,-0.119311,0.225728,0.160639,0
-0.142937,0.338633,0.0743054,-0.154458,0.175662,0.0681846,0
-0.718638,0.744763,0.201929,-0.0621645,0.0618155,-0.107052,0
-1.06763,0.729901,0.64313,0.0878506,-0.0576665,-0.41849,0
-1.19613,0.0630599,0.823338,0.146287,-0.0446146,-0.727496,0
-1.23864,-0.613484,0.678766,0.0801635,0.0164477,-0.896637,0
-1.19198,-0.785806,0.394868,0.0183851,0.0377403,-0.906045,0
-0.886228,-0.525853,0.0599963,-0.0157675,0.00974777,-0.858976,0
-0.319177,-0.271791,-0.235074,-0.00310382,-0.0229097,-0.79143,0
0.143748,-0.234935,-0.379635,0.0353737,-0.0688602,-0.596414,0
0.249461,-0.360885,-0.34667,0.0939839,-0.12013,-0.284984,0
0.22695,-0.537891,-0.240848,0.136947,-0.14277,-0.00161713,0
0.261182,-0.62364,-0.138975,0.130172,-0.150637,0.195047,0
0.343072,-0.596741,-0.0800151,0.106473,-0.132218,0.342944,0
0.343072,-0.596741,-0.0800151,0.106473,-0.132218,0.342944,0
0.389505,-0.463503,-0.0468775,0.0786137,-0.10318,0.479335,0
0.352585,-0.217227,-0.0358276,0.0559102,-0.0847725,0.614276,0
0.258654,0.0366987,-0.0853139,0.0286329,-0.0697654,0.70786,0
0.207025,0.152194,-0.135993,0.0113913,-0.0416681,0.729918,0
0.220468,0.142954,-0.214494,-0.00761943,-0.0103686,0.701712,0
0.207433,0.00716156,-0.252286,-0.0191507,-0.00328404,0.669592,0
-0.0433282,0.00762964,-0.237855,-0.0194492,-0.0116266,0.679802,0
-0.188888,0.296133,-0.249232,-0.057449,-0.00968301,0.498496,0
-0.0495736,0.610972,-0.367683,-0.116522,0.00414103,0.233587,0
0.230418,0.646442,-0.57412,-0.160894,0.0270302,-0.0436131,0
0.398032,0.189817,-0.634317,-0.0918433,0.0175513,-0.262562,0
0.0042926,-0.380652,-0.382578,0.00684433,-0.0181933,-0.351431,0
-0.735227,-0.369276,0.00630351,0.03842,-0.046398,-0.51817,0
-1.06122,-0.0736358,0.331972,-0.021444,-0.00612493,-0.812206,0
-0.831408,0.142854,0.409796,-0.118184,0.0819076,-1.09532,0
-0.31544,0.0997241,0.200989,-0.175096,0.157592,-1.19449,0
0.133511,-0.249454,-0.0121042,-0.106301,0.172286,-1.03299,0
0.231965,-0.42342,0.0111441,-0.0176979,0.085221,-0.681417,0
0.222989,-0.326082,0.184777,0.0275767,0.0374807,-0.36525,0
0.197837,-0.224995,0.273623,0.0235708,0.032372,-0.0927067,0
0.2142,-0.120047,0.199967,0.00156463,0.0228859,0.128696,0
0.358643,0.0565687,0.0831394,0.0159984,0.0172217,0.282356,0
0.531631,0.183434,0.0385017,0.0590675,0.0162135,0.41287,0
0.669841,0.277211,0.106389,0.127928,0.00805315,0.507595,0
0.860016,0.258261,0.257089,0.155986,-2.86102e-05,0.576351,0
0.95672,0.121099,0.428687,0.150651,0.0274039,0.665103,0
0.901591,-0.108234,0.528376,0.119473,0.0615197,0.740834,0
0.820799,-0.221823,0.564377,0.0841478,0.0975569,0.778203,0
0.73876,-0.248358,0.62742,0.0608935,0.12579,0.765679,0
0.54493,-0.118004,0.729361,0.0432318,0.168182,0.757912,0
0.262648,0.393625,0.784742,-0.00187373,0.207539,0.672884,0
-0.175732,0.898266,0.843874,-0.0691877,0.215539,0.439441,0
-0.494667,0.956686,0.783244,-0.1516,0.237617,0.0238303,0
-0.644847,0.335319,0.700874,-0.141616,0.191879,-0.345289,0
-1.23605,-0.266569,0.84004,-0.0849889,0.0540198,-0.467186,0
-2.21285,-0.295932,1.22116,0.0047914,-0.051579,-0.628934,0
-2.60953,-0.197716,1.42655,-0.0413015,-0.0514464,-0.99854,0
-2.19979,-0.212133,1.02304,-0.218405,0.0716465,-1.32419,0
-1.12769,-0.703173,0.0493719,-0.334828,0.129738,-1.39896,0
0.0377903,-1.08593,-0.93228,-0.282031,0.0115528,-1.08064,0
0.667565,-0.751301,-1.32808,-0.102226,-0.164575,-0.551923,0
0.746892,-0.271294,-1.378,0.0662634,-0.271484,-0.123308,0
0.415786,0.231145,-1.21296,0.171201,-0.326306,0.145349,0
0.127278,0.494154,-0.907199,0.240533,-0.336208,0.216256,0
0.146938,0.491387,-0.647958,0.227652,-0.285313,0.186279,0
0.286388,0.322776,-0.478599,0.175118,-0.232953,0.212215,0
0.415845,0.0776723,-0.382021,0.127108,-0.178432,0.283491,0
0.466412,-0.135777,-0.336775,0.0946074,-0.129966,0.370525,0
0.496437,-0.197452,-0.334345,0.0744477,-0.0813082,0.440683,0
0.487444,-0.12898,-0.295199,0.0619894,-0.0450262,0.500507,0
0.394558,0.00263747,-0.288098,0.0133459,-0.0223152,0.527364,0
0.298547,0.0482178,-0.320977,-0.0144265,0.0151874,0.507017,0
0.213648,0.0256932,-0.393842,-0.0265474,0.0505466,0.459735,0
0.213648,0.0256932,-0.393842,-0.0265474,0.0505466,0.459735,0
0.223798,-0.0394604,-0.428716,-0.0207696,0.0499235,0.390423,0
0.299877,-0.0809877,-0.42352,-0.0293199,0.0553718,0.352857,0
0.361547,-0.0322406,-0.489607,-0.0542462,0.0905973,0.333416,0
0.396134,0.0116573,-0.587817,-0.0628889,0.122918,0.312172,0
0.405786,0.0790995,-0.705017,-0.084103,0.141753,0.262053,0
0.403864,0.226874,-0.747979,-0.0710914,0.121421,0.166114,0
0.0263264,0.446852,-0.61776,-0.0466065,0.0758102,0.0533742,0
-0.546644,0.674908,-0.453394,-0.0297818,0.0719151,-0.178006,0
-0.769381,0.901267,-0.251067,0.0277975,0.102827,-0.527095,0
-0.603615,1.07428,-0.122612,0.0202632,0.140996,-0.820501,0
-0.0725226,0.938338,-0.249619,-0.0375585,0.166039,-1.01906,0
0.441609,0.172512,-0.455549,0.0197524,0.138497,-0.989553,0
0.461015,-0.52952,-0.483725,0.101057,0.0667689,-0.724098,0
0.124398,-0.7992,-0.246408,0.149978,-0.0090853,-0.451112,0
-0.244022,-0.76229,0.0516321,0.146,-0.0374317,-0.269665,0
-0.491679,-0.565871,0.234496,0.0948758,-0.0303783,-0.159712,0
-0.539802,-0.298469,0.266068,0.0291006,-0.00820172,-0.0933039,0
-0.442546,-0.0771785,0.155792,-0.0325924,-0.00516364,-0.0189979,0
-0.282716,0.104582,-0.00581709,-0.0523392,-0.00958693,0.0648544,0
-0.0968186,0.199194,-0.101717,-0.0291201,-0.0329758,0.156167,0
0.0576793,0.213949,-0.118924,-0.00129403,-0.05678,0.257405,0
0.173137,0.219181,-0.120366,-0.00675784,-0.0647631,0.356343,0
0.259429,0.213682,-0.104298,-0.0247236,-0.0674838,0.442681,0
0.259752,0.193712,-0.0802351,-0.0434364,-0.0748639,0.514171,0
0.159947,0.239691,-0.0040652,-0.0437959,-0.0755042,0.563268,0
0.0801948,0.386046,0.0646529,-0.0670297,-0.0775861,0.538668,0
0.106863,0.54491,0.107116,-0.10147,-0.0651183,0.464906,0
0.186985,0.646366,0.175089,-0.126071,-0.0484604,0.357509,0
0.299196,0.662117,0.220292,-0.109887,0.00267014,0.249435,0
0.416446,0.634329,0.306337,-0.101968,0.0414663,0.167375,0
0.556032,0.496881,0.369343,-0.126578,0.081817,0.0627851,0
0.706445,-0.0531715,0.44135,-0.107273,0.125127,0.0309254,0
0.484589,-0.558152,0.579331,-0.0975507,0.155702,0.100047,0
-0.179704,-0.868268,0.738898,-0.110119,0.161814,0.132385,0
-0.886324,-0.729223,0.965934,-0.164685,0.158261,0.051088,0
-1.50857,-0.278729,1.07463,-0.244757,0.165971,-0.122756,0
-1.8223,-0.0277691,0.733954,-0.331243,0.195017,-0.403267,0
-1.65817,-0.0398988,0.225311,-0.288006,0.173499,-0.676623,0
-1.39777,0.0207788,-0.110297,-0.116864,0.155134,-0.793578,0
-1.21276,0.056163,-0.408563,0.0163465,0.109769,-0.81373,0
-1.03604,-0.104777,-0.737476,0.0650489,0.0283381,-0.760081,0
-0.607932,-0.552069,-1.0668,0.124363,-0.0527181,-0.677267,0
-0.0468355,-1.10163,-1.2075,0.204934,-0.132813,-0.463459,0
0.304545,-1.35335,-1.17411,0.257673,-0.194283,-0.138039,0
0.421527,-1.26887,-1.11384,0.268533,-0.228724,0.160738,0
0.420137,-0.921482,-1.02541,0.276088,-0.239747,0.37525,0
0.366288,-0.472827,-0.882772,0.271084,-0.242861,0.507156,0
0.339253,-0.0675554,-0.734934,0.24143,-0.229463,0.55738,0
0.390373,0.158189,-0.636032,0.208834,-0.178774,0.551243,0
0.473474,0.127347,-0.584834,0.186808,-0.130857,0.543501,0
0.486682,-0.077571,-0.544471,0.170388,-0.094934,0.564566,0
0.445109,-0.286964,-0.518516,0.140624,-0.060889,0.589632,0
0.390507,-0.269342,-0.497447,0.122522,-0.0346009,0.583944,0
0.438005,-0.0615921,-0.517549,0.0790322,-0.0121883,0.509327,0
0.438005,-0.0615921,-0.517549,0.0790322,-0.0121883,0.509327,0
0.424003,0.199858,-0.566654,0.0710553,0.0458072,0.406854,0
0.286892,0.528051,-0.668284,0.0192235,0.0944608,0.19968,0
0.256015,0.68346,-0.706192,0.0278637,0.113912,-0.113656,0
0.00266568,0.834887,-0.380309,0.118197,0.0886263,-0.354784,0
-0.439671,0.920983,0.0963737,0.110731,0.0587115,-0.5803,0
-0.75374,0.728453,0.531095,0.0986463,0.130936,-0.806198,0
-0.92529,0.558647,0.734266,0.0291667,0.204801,-0.954695,0
-0.800419,0.493777,0.718322,-0.0730618,0.248945,-1.06608,0
-0.255634,0.0356253,0.524023,-0.114478,0.251804,-1.06421,0
0.271326,-0.496886,0.3467,-0.086526,0.184643,-0.796321,0
0.301277,-0.738061,0.378316,-0.0208843,0.0843877,-0.366103,0
0.00660877,-0.809214,0.532291,0.00820586,-0.00415502,-0.0234413,0
-0.292193,-0.607855,0.667114,-0.0212897,-0.0633053,0.18928,0
-0.386849,-0.185119,0.658742,-0.0727528,-0.0679102,0.288426,0
-0.259461,0.273336,0.480815,-0.126054,-0.0592828,0.327897,0
-0.0437054,0.584051,0.250186,-0.156404,-0.0598602,0.352822,0
0.127089,0.677528,0.0472789,-0.14668,-0.0734404,0.387331,0
0.192425,0.624978,-0.0703828,-0.115244,-0.0850525,0.42033,0
0.228323,0.487724,-0.0931303,-0.0967101,-0.0959077,0.435208,0
0.291058,0.372288,-0.0743017,-0.0962366,-0.101522,0.435979,0
0.360678,0.278782,-0.0356526,-0.128001,-0.109055,0.433162,0
0.377455,0.19148,0.00769689,-0.15309,-0.102132,0.435717,0
0.248778,0.0564391,0.0805639,-0.15797,-0.0996258,0.43109,0
0.180882,0.00390711,0.18317,-0.153202,-0.0917052,0.376968,0
0.263071,0.0491784,0.264174,-0.161247,-0.0618271,0.300119,0
0.3041,0.0827341,0.239729,-0.197092,-0.0283203,0.268894,0
0.189634,0.0251812,0.194983,-0.210135,-0.0200485,0.239867,0
-0.0260372,0.00336086,0.107526,-0.23025,-0.00958376,0.160084,0
-0.278404,-0.0230404,-0.0267805,-0.234152,0.00258589,0.0259253,0
-0.697946,0.231163,-0.128947,-0.202707,-0.0268252,-0.120466,0
-1.13904,0.515789,-0.0227782,-0.112034,-0.0451993,-0.387575,0
-1.23399,0.653662,0.105441,-0.0683354,-0.036076,-0.716456,0
-1.03865,0.459694,0.0850701,-0.0563412,0.0225076,-0.978714,0
-0.620789,-0.0510225,-0.154754,-0.0602893,0.106109,-1.13449,0
-0.265728,-0.664817,-0.487568,-0.0173221,0.179698,-1.06689,0
-0.0987127,-1.0115,-0.863187,-0.00151639,0.134207,-0.847365,0
0.122937,-1.09588,-1.02488,0.0655048,0.063463,-0.600216,0
0.413726,-1.09064,-1.09632,0.101971,0.0277066,-0.335867,0
0.625234,-1.03845,-1.18991,0.110848,0.0093385,-0.0469339,0
0.705361,-0.890113,-1.2874,0.123089,0.00187404,0.206083,0
0.722065,-0.750787,-1.37235,0.146816,-0.00823653,0.394925,0
0.750892,-0.63045,-1.3811,0.17307,-0.0290989,0.520732,0
0.759002,-0.53352,-1.31507,0.196338,-0.0421709,0.620062,0
0.677901,-0.409391,-1.18469,0.204276,-0.0469643,0.701251,0
0.501319,-0.276629,-1.03067,0.192165,-0.0430387,0.754168,0
0.301053,-0.123871,-0.897628,0.146898,-0.0411387,0.755776,0
0.291739,0.00667998,-0.8371,0.0746099,-0.0140237,0.675624,0
0.423984,0.0304211,-0.919272,-0.013659,0.0148713,0.560252,0
0.410505,-0.0155236,-1.02533,-0.0537277,0.0327612,0.498206,0
0.281689,0.141313,-1.13247,-0.0844485,0.0584006,0.392216,0
0.236253,0.376973,-1.23952,-0.115453,0.0803429,0.164636,0
0.230327,0.566355,-1.2123,-0.109953,0.0804909,-0.0767323,0
0.203793,0.674293,-1.07415,-0.143809,0.0508431,-0.274969,0
-0.0895715,0.461429,-0.848206,-0.127439,0.0499869,-0.404541,0
-0.0895715,0.461429,-0.848206,-0.127439,0.0499869,-0.404541,0
-0.493722,-0.0517572,-0.585568,-0.0769291,0.0749229,-0.549598,0
-0.682269,-0.46237,-0.325139,-0.0701661,0.0824509,-0.670275,0
-0.713379,-0.518984,-0.145342,-0.117076,0.101274,-0.707321,0
-0.715821,-0.385148,-0.103297,-0.162261,0.107988,-0.674713,0
-0.552276,-0.262654,-0.143519,-0.166819,0.109978,-0.638452,0
-0.295412,-0.360181,-0.142006,-0.127596,0.0674548,-0.515759,0
-0.111774,-0.438316,-0.124104,-0.0932814,0.0239441,-0.304908,0
-0.00759406,-0.383117,-0.107628,-0.0909875,-0.0113475,-0.0840605,0
0.0280371,-0.207867,-0.100168,-0.0786724,-0.0448036,0.0917897,0
0.111999,0.012243,-0.122907,-0.0842572,-0.0615973,0.203538,0
0.222621,0.289732,-0.204588,-0.107686,-0.0694771,0.281265,0
0.344224,0.446681,-0.345268,-0.132789,-0.0479046,0.331807,0
0.407959,0.336684,-0.516535,-0.131893,-0.0449179,0.375847,0
0.311376,0.0301499,-0.566174,-0.08752,-0.0600409,0.442802,0
0.0917885,-0.354801,-0.510114,-0.063457,-0.0996432,0.499225,0
-0.121168,-0.462393,-0.476747,-0.0865692,-0.107079,0.531188,0
-0.20066,-0.280246,-0.499226,-0.137351,-0.116772,0.48437,0
-0.164527,-0.0722321,-0.589828,-0.137086,-0.108807,0.403904,0
-0.0601939,0.204309,-0.666771,-0.14531,-0.113246,0.315232,0
0.119738,0.467059,-0.713337,-0.169567,-0.123298,0.21233,0
0.28026,0.406982,-0.752602,-0.197288,-0.124342,0.106854,0
0.139384,0.0476488,-0.72344,-0.19744,-0.138081,0.0545467,0
-0.088026,-0.26286,-0.6139,-0.171786,-0.119953,-0.0854294,0
-0.149835,-0.450255,-0.521773,-0.175988,-0.0915568,-0.277191,0
-0.173304,-0.346592,-0.498564,-0.216732,-0.0300466,-0.40246,0
-0.291585,-0.146042,-0.547497,-0.24463,-0.00692053,-0.441582,0
-0.367666,-0.200184,-0.659764,-0.258882,0.0766552,-0.549672,0
-0.372826,-0.453157,-0.777406,-0.240993,0.136091,-0.658043,0
-0.405295,-0.65003,-0.875194,-0.16887,0.198027,-0.701645,0
-0.446417,-0.664448,-0.96725,-0.0963777,0.253899,-0.670487,0
-0.486882,-0.613056,-1.07869,-0.0696563,0.25817,-0.587244,0
-0.416956,-0.649322,-1.24997,-0.0765389,0.231466,-0.472084,0
-0.195709,-0.681715,-1.4722,-0.0879895,0.208398,-0.346838,0
0.0538644,-0.632523,-1.69348,-0.073792,0.180639,-0.189539,0
0.200948,-0.559913,-1.84964,-0.0242718,0.147842,0.00999147,0
0.235126,-0.409035,-1.87043,0.0266058,0.110664,0.200989,0
0.157871,-0.268069,-1.80958,0.0464143,0.0426657,0.35652,0
0.0330012,-0.181989,-1.7206,0.0484754,0.00331572,0.460511,0
-0.0627551,-0.0584576,-1.63029,0.0161736,-0.0128546,0.507456,0
-0.156565,0.0387146,-1.57991,-0.0247072,-0.0187893,0.507496,0
-0.336236,0.126398,-1.56603,-0.0903845,-0.0223185,0.490816,0
-0.466021,0.25809,-1.64876,-0.174648,-0.0243315,0.416865,0
-0.482966,0.453704,-1.77004,-0.235469,-0.00130214,0.272631,0
-0.318329,0.595955,-1.88773,-0.280237,0.00478281,0.0844981,0
-0.0701424,0.481957,-1.94377,-0.297515,0.0255871,-0.143689,0
-0.0483163,0.215894,-1.91634,-0.273155,0.0350021,-0.253504,0
-0.0894236,-0.135599,-1.81082,-0.240901,0.0312821,-0.31131,0
-0.115646,-0.560802,-1.73296,-0.223285,0.0319839,-0.39451,0
-0.213806,-0.655637,-1.63315,-0.214899,0.0258781,-0.426605,0
-0.206859,-0.389615,-1.7087,-0.226728,0.0713295,-0.457004,0
0.0934916,-0.228109,-1.89499,-0.244289,0.154215,-0.51292,0
0.560508,-0.437073,-2.12376,-0.23345,0.213057,-0.516595,0
0.83049,-0.907802,-2.23155,-0.186187,0.221591,-0.401925,0
0.682762,-1.18725,-2.17749,-0.106793,0.199085,-0.127742,0
0.682762,-1.18725,-2.17749,-0.106793,0.199085,-0.127742,0
0.363868,-1.2522,-2.01555,-0.058434,0.187318,0.110653,0
0.0681141,-1.19481,-1.87199,-0.0682353,0.184135,0.234778,0
-0.168702,-1.05735,-1.81044,-0.137948,0.192924,0.266424,0
-0.435646,-0.796015,-1.86672,-0.210099,0.220055,0.280416,0
-0.621327,-0.532538,-2.01182,-0.302662,0.25371,0.226873,0
-0.740164,-0.410955,-2.21005,-0.346307,0.292467,0.120243,0
-0.700437,-0.150926,-2.4161,-0.343485,0.339094,0.017004,0
-0.500709,0.193838,-2.55726,-0.316592,0.371221,-0.0978866,0
-0.292179,0.339257,-2.63391,-0.267617,0.379253,-0.184683,0
-0.100379,0.100987,-2.70909,-0.232207,0.3712,-0.234932,0
0.0898268,-0.434908,-2.76562,-0.191597,0.366226,-0.239757,0
0.185906,-0.783385,-2.73926,-0.137212,0.342278,-0.154901,0
0.227673,-0.855297,-2.61341,-0.0873607,0.293982,-0.0116426,0
0.201757,-0.824836,-2.44152,-0.0465415,0.253501,0.101023,0
0.0356294,-0.749052,-2.24058,-0.0372147,0.21334,0.203133,0
-0.18764,-0.564236,-2.03862,-0.0403944,0.168818,0.265665,0
-0.199994,-0.296423,-1.92769,-0.0920177,0.135506,0.23278,0
-0.027231,-0.201417,-1.89593,-0.128245,0.144776,0.130042,0
0.045038,-0.243418,-1.86778,-0.153556,0.138981,0.0742921,0
0.0487509,-0.233099,-1.79673,-0.154016,0.120244,0.0558837,0
0.0357369,-0.107837,-1.68032,-0.142884,0.102977,0.0168967,0
0.0373427,-0.0688291,-1.629,-0.156737,0.101342,-0.0346846,0
0.0129501,-0.0330521,-1.58207,-0.154195,0.116626,-0.0994481,0
-0.0815244,0.079361,-1.49155,-0.116762,0.0969898,-0.133865,0
-0.097115,0.0775099,-1.41107,-0.0750338,0.0942579,-0.199355,0
0.00242066,-0.12738,-1.37022,-0.0345902,0.104678,-0.285157,0
0.0918641,-0.318365,-1.32769,0.0115361,0.0994002,-0.307877,0
0.0477854,-0.446696,-1.22003,0.063842,0.0856641,-0.240999,0
-0.0874551,-0.335573,-1.06912,0.12444,0.0575343,-0.156022,0
-0.114399,-0.122985,-0.990978,0.140349,0.0600646,-0.129737,0
-0.0363056,-0.0319931,-0.97716,0.154393,0.0759515,-0.148243,0
0.115025,-0.0776955,-1.0029,0.168909,0.103317,-0.148724,0
0.262947,-0.274217,-1.03123,0.184556,0.125884,-0.122305,0
0.28312,-0.390351,-1.07034,0.217204,0.142035,-0.0477016,0
0.272076,-0.169415,-1.09804,0.222685,0.1464,0.0351034,0
0.332693,0.171741,-1.07707,0.224919,0.145253,0.0609007,0
0.342203,0.412799,-0.950975,0.244155,0.132399,0.0798048,0
0.254484,0.367979,-0.734574,0.256468,0.108859,0.0950812,0
0.108412,0.184627,-0.491405,0.227772,0.0836756,0.112992,0
-0.0152192,0.00558691,-0.258275,0.174434,0.062688,0.131306,0
-0.146357,-0.139844,-0.0450893,0.102291,0.0466871,0.156483,0
-0.29013,-0.118299,0.056913,0.0171184,0.0366205,0.184103,0
-0.335026,0.0348487,0.0198331,-0.0862895,0.0514633,0.168636,0
-0.318194,0.158394,-0.09374,-0.157695,0.0598327,0.122561,0
-0.29121,0.174578,-0.178297,-0.150745,0.0549902,0.0794453,0
-0.179567,0.0496492,-0.208584,-0.133637,0.0385696,0.0255821,0
-0.126419,-0.225233,-0.211299,-0.0997296,0.0303348,0.00414538,0
-0.140016,-0.424476,-0.245646,-0.0923813,0.0216877,0.0404246,0
-0.151363,-0.474163,-0.336322,-0.110527,0.0234372,0.0752736,0
-0.134793,-0.369448,-0.463026,-0.121868,0.0248794,0.0988685,0
-0.0762273,-0.210507,-0.568928,-0.106379,0.0139292,0.0940374,0
-0.0648458,-0.137903,-0.65976,-0.0862381,0.0143507,0.071852,0
-0.0864121,-0.167708,-0.699683,-0.0536583,0.00918964,0.0555738,0
-0.0874944,-0.320633,-0.679911,-0.00529804,-0.00122921,0.0164757,0
-0.0874944,-0.320633,-0.679911,-0.00529804,-0.00122921,0.0164757,0
-0.0820937,-0.388371,-0.653547,0.0225023,-0.0149475,-0.00415123,0
-0.0659531,-0.443671,-0.620219,0.0303797,-0.028996,-0.0166552,0
-0.0657457,-0.401549,-0.562385,0.0634429,-0.0347983,-0.0115939,0
-0.0240058,-0.311126,-0.467279,0.0823314,-0.0437244,-0.0117906,0
0.0041171,-0.298865,-0.399552,0.0965647,-0.0356227,-0.00321424,0
0.0648317,-0.337574,-0.398961,0.0914007,-0.0106937,0.0231734,0
0.184599,-0.49418,-0.400183,0.0892577,0.000753388,0.0531185,0
0.243257,-0.687097,-0.408097,0.0900346,0.011812,0.124132,0
0.239654,-0.828602,-0.394035,0.107621,0.0111869,0.217532,0
0.256224,-0.783342,-0.405194,0.106757,0.0122151,0.290825,0
0.326246,-0.630084,-0.43539,0.0960088,0.000625178,0.333187,0
0.437473,-0.475763,-0.486771,0.0978149,0.0117387,0.355496,0
0.499782,-0.346934,-0.483003,0.113068,0.0150456,0.363663,0
0.524093,-0.187337,-0.467859,0.102662,-0.000720233,0.350166,0
0.555981,-0.15791,-0.448029,0.0871106,1.4931e-05,0.295417,0
0.531254,-0.0340951,-0.425704,0.045382,-0.0198672,0.216746,0
0.305519,0.216506,-0.374469,-0.030494,-0.0351234,0.135216,0
-0.108236,0.399051,-0.196046,-0.0470307,-0.0614044,-0.0202223,0
-0.56777,0.526511,0.0111,-0.042877,-0.0749525,-0.204335,0
-0.629924,0.518099,0.0484857,-0.100805,-0.0141596,-0.477548,0
-0.411505,0.349979,-0.0181818,-0.14597,0.0678288,-0.682011,0
-0.309829,0.311677,-0.130768,-0.187243,0.0908475,-0.708356,0
-0.236183,0.236894,-0.199989,-0.182621,0.0832513,-0.665223,0
-0.224167,0.145637,-0.158051,-0.120223,0.0659769,-0.589455,0
-0.279799,0.100754,-0.0251475,-0.0665914,0.0458854,-0.462898,0
-0.38192,0.173417,0.0945281,-0.0385285,0.0377626,-0.297399,0
-0.440802,0.3841,0.144533,-0.057452,0.0345769,-0.145081,0
-0.446737,0.612819,0.145567,-0.078962,0.0119766,-0.0126973,0
-0.314658,0.836783,0.0948659,-0.093122,0.00587878,0.0509321,0
-0.0830588,1.06066,0.0961906,-0.0737371,-0.00368442,0.0975401,0
0.0973573,1.1706,0.129769,-0.0420032,-0.0118864,0.183382,0
0.194745,1.05021,0.180977,-0.0257415,-0.00370289,0.247611,0
0.222447,0.686473,0.272062,-0.021821,-0.00387715,0.294937,0
0.266179,0.278886,0.380666,-0.0214427,0.00804764,0.311227,0
0.364539,0.163404,0.445924,-0.0374486,0.0250737,0.325727,0
0.53904,0.142155,0.462197,-0.0756432,0.0412576,0.329762,0
0.717485,0.192551,0.468732,-0.104345,0.0526221,0.341598,0
0.747235,0.322386,0.494923,-0.126418,0.0415126,0.390919,0
0.602323,0.41579,0.554672,-0.11554,0.0376639,0.42096,0
0.270946,-0.202294,0.59073,-0.096779,0.0417811,0.397064,0
-0.343345,-0.124752,0.644288,-0.0840294,0.0314423,0.503899,0
-0.650083,-0.195687,0.797452,-0.0425602,0.024563,0.304235,0
-0.628744,-0.675186,0.835934,-0.061536,0.0637002,0.16166,0
-0.539567,-0.626784,0.652199,-0.0932887,0.0847193,0.00687063,0
-0.41451,-0.5673,0.460692,-0.123306,0.0803004,-0.165436,0
-0.294604,-0.560834,0.200459,-0.13955,0.0390603,-0.303472,0
-0.201134,-0.379016,0.157249,-0.0379656,-0.0104892,-0.418036,0
-0.301937,-0.213158,0.386361,0.133244,-0.0438057,-0.457435,0
-0.595762,-0.213287,0.580504,0.177501,-0.0387453,-0.449251,0
-0.914997,-0.326551,0.539734,0.0926106,-0.035212,-0.429216,0
-1.0986,-0.100528,0.314857,0.00515927,-0.0119467,-0.429282,0
-1.06708,0.293241,0.0315453,-0.0490225,0.00411472,-0.455772,0
-0.804289,0.416282,-0.215406,-0.0334979,0.00793663,-0.501629,0
-0.321613,0.222769,-0.39476,0.0209128,0.00379944,-0.483205,0
-0.321613,0.222769,-0.39476,0.0209128,0.00379944,-0.483205,0
0.12278,-0.040524,-0.519355,0.0428267,-0.00772238,-0.359935,0
0.332771,-0.245956,-0.531732,0.078911,-0.0426452,-0.176676,0
0.32554,-0.223318,-0.469125,0.109635,-0.0980498,0.0229809,0
0.221405,-0.0582298,-0.394919,0.107467,-0.130992,0.178805,0
0.0968459,0.115605,-0.329765,0.10225,-0.119542,0.284996,0
0.0216107,0.289721,-0.264763,0.0936067,-0.100511,0.329785,0
0.0245911,0.356759,-0.196461,0.0867425,-0.0871847,0.335548,0
0.142701,0.279207,-0.148334,0.0849235,-0.0599623,0.307133,0
0.256383,0.227609,-0.139576,0.072703,-0.0329491,0.321974,0
0.322908,0.118933,-0.172513,0.0381627,-0.0134005,0.348246,0
0.269539,-0.108565,-0.195625,0.0296225,0.00103858,0.386431,0
0.107124,-0.280779,-0.220559,0.0257623,0.00587788,0.409454,0
0.0467918,-0.147151,-0.230785,0.0293854,-0.0090581,0.385859,0
0.0981936,0.0424949,-0.214094,0.00348037,-0.0223195,0.315675,0
0.0650678,0.119969,-0.234953,0.00217677,-0.00911169,0.258379,0
-0.0668497,0.0281966,-0.289702,0.0250876,0.00778745,0.210039,0
-0.169124,0.0454282,-0.274825,0.0642396,0.0187594,0.14915,0
-0.0840683,0.0948596,-0.214869,0.0920135,0.0146544,0.0519887,0
0.163736,-0.032074,-0.16195,0.0802987,0.0151836,-0.0651448,0
0.223816,-0.425939,-0.101519,0.0648028,0.0330598,-0.113327,0
-0.062001,-0.809796,-0.079918,0.0474074,0.0189724,-0.121397,0
-0.374941,-0.636262,-0.104609,0.00396951,-0.0366881,-0.180791,0
-0.406759,0.214294,-0.133249,-0.0478141,-0.0412993,-0.321012,0
-0.385731,1.01267,-0.104575,-0.0332658,0.0231371,-0.467535,0
-0.373083,1.22903,-0.0593623,0.00747683,0.0694207,-0.599504,0
-0.395743,0.837908,-0.0070034,0.0392884,0.0734611,-0.699497,0
-0.410613,0.3769,0.00951357,0.045528,0.0987973,-0.698677,0
-0.309778,-0.00513768,-0.0236416,0.0333561,0.105069,-0.619832,0
-0.0409712,-0.223286,0.0308847,0.0422157,0.0988107,-0.497386,0
0.310447,-0.277085,0.0730997,0.00183106,0.0635395,-0.342734,0
0.52003,-0.228259,0.0620878,-0.044064,0.054601,-0.131593,0
0.505225,-0.112413,0.012162,-0.0655981,0.0437679,0.0837083,0
0.310734,0.0704067,-0.039122,-0.0869312,0.00306684,0.249538,0
0.0661387,0.222107,-0.0129186,-0.0803004,-0.0449733,0.346593,0
-0.0968481,0.247478,0.0919084,-0.0422289,-0.0764647,0.371217,0
-0.0750087,0.212887,0.187044,-0.0171056,-0.0719714,0.331775,0
0.0785943,0.10649,0.207038,-0.0453167,-0.0388782,0.280049,0
0.24599,-0.0323522,0.191851,-0.0712975,-0.0032593,0.275258,0
0.367494,-0.0544562,0.203423,-0.0846375,0.0202943,0.294458,0
0.439257,-0.000299104,0.239826,-0.0987278,0.0293663,0.326853,0
0.460936,0.0776078,0.238852,-0.142114,0.03953,0.341496,0
0.460145,0.119959,0.221339,-0.164647,0.0554027,0.324082,0
0.398346,0.196996,0.234635,-0.16356,0.0590753,0.303386,0
0.291601,0.18576,0.33052,-0.112056,0.0553665,0.275211,0
0.210315,0.0145636,0.480727,-0.0464183,0.048328,0.237928,0
0.217655,-0.256943,0.543673,-0.0353643,0.0591746,0.186127,0
0.250149,-0.450827,0.470747,-0.0605549,0.0993532,0.167687,0
0.209768,-0.413347,0.37613,-0.0884429,0.095484,0.154765,0
-0.00550024,-0.253018,0.331855,-0.0571948,0.0329705,0.0783492,0
-0.419751,-0.171844,0.317311,-0.0340225,-0.0059737,-0.0191544,0
-0.621084,-0.0145627,0.20849,-0.0524711,-0.054503,-0.194659,0
-0.493878,0.0236075,0.0699412,-0.0471715,-0.0602041,-0.406697,0
-0.230518,-0.0963697,0.0270836,0.0132234,-0.0129668,-0.542449,0
-0.107481,-0.347054,0.00523157,0.0645807,-0.0115976,-0.570143,0
-0.107481,-0.347054,0.00523157,0.0645807,-0.0115976,-0.570143,0
-0.277746,-0.275156,-0.0499693,0.0435566,-0.0530236,-0.495152,0
-0.793999,0.119069,-0.00983826,0.0546545,-0.0771708,-0.407622,0
-1.2103,0.175202,-0.0164613,0.113829,-0.0754878,-0.403926,0
-1.17333,-0.155793,-0.0286209,0.167531,-0.058002,-0.467027,0
-0.720189,-0.517931,-0.0848364,0.164384,-0.0182451,-0.432642,0
-0.121974,-0.715781,-0.195181,0.126136,-0.037034,-0.313524,0
0.318556,-0.62789,-0.284574,0.107132,-0.0651456,-0.114439,0
0.549297,-0.362403,-0.32445,0.101883,-0.0883392,0.0800009,0
0.578904,-0.0780556,-0.2914,0.101029,-0.0991605,0.237197,0
0.480876,0.0502642,-0.184377,0.120973,-0.0964493,0.344086,0
0.296571,0.0869998,-0.111695,0.10219,-0.0934369,0.402835,0
0.0963436,0.0725492,-0.080106,0.0717886,-0.0871966,0.409295,0
0.00875603,-0.00789651,-0.0541753,0.0739655,-0.064989,0.367931,0
-0.00648541,-0.0786433,-0.015478,0.0730754,-0.0474657,0.318076,0
-0.0213414,-0.130383,0.032447,0.059844,-0.0390924,0.282619,0
-0.0695599,-0.183277,0.112989,0.0692081,-0.0321486,0.25825,0
-0.149905,-0.220898,0.153975,0.0549973,-0.0253237,0.245364,0
-0.229339,-0.285038,0.106098,0.0203287,-0.00530587,0.229547,0
-0.205024,-0.2438,-0.00384936,-0.000156179,0.0197768,0.207495,0
0.01092,-0.13272,-0.125269,-0.0100956,0.0355852,0.166588,0
0.359765,-0.00101457,-0.246502,-0.0146597,0.0404224,0.130745,0
0.678733,0.108848,-0.344028,-0.00888255,0.0535175,0.120606,0
0.865916,0.217088,-0.414092,0.00327333,0.0792412,0.140549,0
0.905241,0.162419,-0.391366,-0.0146726,0.0544445,0.131092,0
0.677028,-0.055698,-0.354186,-0.0166376,0.00826563,0.0890056,0
0.247464,-0.449985,-0.525483,-0.0544666,0.0111493,0.0205842,0
-0.510907,-0.799319,-0.946161,-0.348171,-0.0460618,-0.0504638,0
-1.28697,0.302102,-0.393078,0.0105375,-0.0681285,-0.188128,0
-1.10934,0.633435,0.149429,0.117468,-0.045307,-0.555885,0
-0.521582,0.734155,0.450561,0.0212951,-0.00974785,-0.848068,0
0.199394,0.629776,0.416785,-0.014273,0.0596847,-0.887562,0
0.564977,0.169689,0.111784,-0.133748,0.108646,-0.567823,0
0.353275,-0.236828,-0.115644,-0.122716,0.0509935,-0.27965,0
-0.103702,-0.227896,-0.172144,-0.0901714,-0.0240805,-0.0765927,0
-0.507254,0.0183754,-0.104136,-0.0699166,-0.0730297,0.0267611,0
-0.820611,0.129342,-0.0396447,-0.0909397,-0.0787479,0.0716435,0
-0.936971,0.351485,0.0151461,-0.0086004,-0.0175691,0.0519311,0
-0.551421,0.635375,0.11688,-0.0307973,-0.0419841,-0.0933148,0
-0.0812962,0.702699,0.296175,0.0129534,0.0225881,-0.0149667,0
0.302544,0.240525,0.333969,-0.0122858,0.0091798,0.132016,0
0.571168,0.276838,0.324283,0.000646576,-0.0236175,0.224259,0
0.465526,0.798852,0.387556,-0.0801397,-0.0636684,0.314661,0
0.381861,0.675478,0.452271,-0.0893639,-0.067494,0.356125,0
0.313395,0.577036,0.455863,-0.121318,-0.0586671,0.321505,0
0.298547,0.739113,0.316969,-0.167671,-0.00425692,0.253444,0
0.423753,0.630367,0.0908592,-0.193607,0.0517444,0.172632,0
0.599384,0.332481,-0.0754094,-0.157431,0.122714,0.122664,0
0.684816,-0.138037,-0.0976604,-0.091368,0.148485,0.123262,0
0.714313,-0.660947,-0.0551589,-0.0448782,0.131359,0.138566,0
0.761292,-1.03418,-0.078722,-0.077567,0.0901309,0.189504,0
0.718312,-0.907676,-0.0518992,-0.0907812,0.0838704,0.259157,0
0.632675,-0.594112,0.0346305,-0.0830355,0.0504922,0.272303,0
0.606654,-0.385108,0.0924564,-0.0610358,0.0387726,0.243663,0
0.606654,-0.385108,0.0924564,-0.0610358,0.0387726,0.243663,0
0.549197,-0.215013,0.0875671,-0.0747343,0.0563066,0.189041,0
0.27403,0.073713,0.09064,-0.100999,0.019635,0.0490386,0
-0.0835037,-0.161846,0.0960875,-0.0619007,0.00592971,-0.0492655,0
-0.386194,-0.362316,-0.0059367,-0.058596,-0.00653177,-0.164358,0
-0.474463,-0.264904,-0.137178,-0.0226824,-0.0144656,-0.285118,0
-0.442277,-0.106694,-0.16673,0.0847293,0.0296105,-0.365914,0
-0.458309,-0.25609,-0.172161,0.124109,0.0260567,-0.365789,0
-0.677163,-0.319515,-0.199753,0.0920722,-0.00387546,-0.32453,0
-1.07286,0.0781568,-0.233278,0.0839899,-0.00616337,-0.334183,0
-1.25477,0.153848,-0.274404,0.123708,-0.0084504,-0.411348,0
-1.1374,-0.0757363,-0.245558,0.171892,0.0285781,-0.434711,0
-0.731997,-0.489303,-0.26117,0.158685,0.0232023,-0.41587,0
-0.372321,-0.873526,-0.331058,0.122319,0.00267276,-0.2389,0
-0.185692,-0.705741,-0.367126,0.0970896,-0.0336269,-0.0861254,0
-0.0921488,-0.309485,-0.400622,0.102287,-0.0746135,0.00846225,0
0.0834478,0.0648192,-0.331646,0.142673,-0.0839433,0.0394991,0
0.253525,0.193855,-0.161553,0.169572,-0.096439,0.0803897,0
0.293833,0.180606,0.0381723,0.173397,-0.0930708,0.132326,0
0.164543,0.039649,0.197985,0.151967,-0.0792037,0.184012,0
-0.0058344,-0.0794375,0.258955,0.111252,-0.0616973,0.196003,0
-0.0884461,-0.191611,0.248831,0.0907062,-0.0450802,0.173184,0
-0.0429598,-0.22603,0.247249,0.0810084,-0.0361251,0.147839,0
0.0197217,-0.0591974,0.242304,0.0692529,-0.0292646,0.13747,0
0.037868,0.0701966,0.235268,0.0813572,-0.0336393,0.128381,0
0.011342,0.084956,0.246316,0.0812049,-0.031202,0.120107,0
