attitude_roll,attitude_pitch,attitude_yaw,rotationRate_x,rotationRate_y,rotationRate_z,acceleration_x,acceleration_y,acceleration_z
0.316739,0.216675,-0.0347371,-0.461755,0.430642,-0.720521,-0.19884,-0.0458652,0.0991641
0.317196,0.205547,-0.0442726,-0.308751,-0.636721,-0.457728,-0.134257,-0.0547317,0.0163559
0.29567,0.200017,-0.0485069,-0.0583791,-1.50075,-0.12808,-0.0812412,-0.110381,0.0368701
0.264426,0.201971,-0.0507334,0.299857,-1.48349,-0.0862464,-0.144791,-0.086814,0.0852707
0.240682,0.207551,-0.0574081,0.257328,-0.990174,-0.485104,-0.196384,-0.0717225,0.0935823
0.227501,0.205147,-0.0728358,-0.151308,-0.601561,-0.983036,-0.151356,-0.0645997,0.0951772
0.223603,0.193538,-0.0932099,-0.515663,-0.232575,-1.16851,-0.148589,-0.0953574,0.166479
0.224194,0.175667,-0.113451,-0.748744,-0.0933155,-1.11959,-0.0849115,-0.0927371,0.140435
0.226482,0.155716,-0.129893,-0.801829,0.064442,-0.866239,0.0157304,-0.128253,0.125026
0.231412,0.137038,-0.140151,-0.784171,0.24678,-0.540147,0.0924697,-0.170825,0.131134
0.236186,0.119571,-0.144546,-0.806656,0.113004,-0.30603,0.145681,-0.207602,0.0538424
0.23519,0.103066,-0.145303,-0.750483,-0.214232,-0.155964,0.162237,-0.230277,-0.0405639
0.227398,0.0895064,-0.143829,-0.593603,-0.558605,-0.0140139,0.0765455,-0.202407,-0.114208
0.21281,0.0795266,-0.140966,-0.427471,-0.839514,0.0528822,-0.110839,-0.158762,-0.286985
0.194986,0.0729973,-0.139748,-0.236124,-0.907498,-0.118052,-0.284363,-0.0993697,-0.457262
0.176277,0.0686339,-0.145584,-0.0830947,-0.973255,-0.5503,-0.332988,-0.00522672,-0.563789
0.158578,0.066509,-0.160443,0.131964,-0.881986,-0.901876,-0.312365,0.0545429,-0.551824
0.143242,0.0687512,-0.18034,0.383146,-0.775693,-0.972578,-0.343069,0.161059,-0.507483
0.12947,0.0760121,-0.199785,0.577948,-0.738431,-0.816766,-0.400006,0.257671,-0.412905
0.116655,0.0868278,-0.215305,0.659751,-0.649425,-0.580715,-0.435563,0.290393,-0.312647
0.105179,0.0985206,-0.226493,0.590796,-0.621541,-0.401973,-0.407089,0.28902,-0.246433
0.0924671,0.107745,-0.234453,0.385215,-0.736658,-0.304247,-0.343143,0.257958,-0.209417
0.07657,0.112052,-0.241256,0.0888687,-0.927867,-0.355712,-0.278088,0.211976,-0.179074
0.0575917,0.110905,-0.249973,-0.114255,-1.01382,-0.518993,-0.230653,0.189642,-0.183634
0.0397742,0.107713,-0.262254,-0.113729,-0.863835,-0.70883,-0.259535,0.213233,-0.178075
0.0276941,0.106252,-0.278031,0.0297143,-0.46539,-0.843561,-0.272026,0.220112,-0.156366
0.0248097,0.107759,-0.295849,0.142376,-0.0317407,-0.910737,-0.238973,0.212882,-0.0734434
0.0281769,0.110234,-0.314933,0.136372,0.0940304,-0.966865,-0.159563,0.201716,-0.0209142
0.0305445,0.11157,-0.335163,0.0522222,-0.127415,-1.02897,-0.079529,0.188807,0.00367975
0.0265176,0.111657,-0.356739,0.0420798,-0.513422,-1.10631,-0.0130285,0.168584,0.0207978
0.0157188,0.113349,-0.380644,0.209366,-0.78708,-1.27935,0.0211411,0.166222,0.0169892
0.00341846,0.120473,-0.409576,0.541608,-0.728789,-1.58591,0.0281157,0.19495,-0.0192321
-0.00581946,0.134756,-0.444827,0.855725,-0.658483,-1.873,0.0842578,0.204798,-0.0390661
-0.0144009,0.154485,-0.484239,1.04679,-0.791707,-1.9911,0.154579,0.192262,-0.0356321
-0.0266793,0.177488,-0.523946,1.15918,-1.07555,-1.92946,0.17384,0.187437,-0.0107499
-0.0426507,0.20311,-0.561469,1.24815,-1.18758,-1.82729,0.161924,0.201656,0.0414347
-0.0595028,0.23002,-0.597399,1.2236,-1.25783,-1.81263,0.141825,0.227264,0.0661466
-0.0756146,0.255611,-0.63424,1.05268,-1.19498,-1.9286,0.139754,0.217131,0.0540999
-0.0873263,0.277771,-0.674639,0.823931,-1.01683,-2.10958,0.129496,0.22247,0.0693634
-0.0931219,0.295938,-0.718504,0.599814,-0.806836,-2.19907,0.135133,0.238308,0.127418
-0.0949095,0.310067,-0.763139,0.402622,-0.71454,-2.13093,0.167946,0.2165,0.15866
-0.0953307,0.320461,-0.805924,0.248732,-0.629578,-1.99553,0.19349,0.179415,0.169787
-0.0934299,0.32776,-0.846898,0.105634,-0.489577,-1.9343,0.212305,0.151223,0.18754
-0.0897232,0.331753,-0.887825,-0.0590585,-0.471797,-1.94,0.238892,0.130358,0.172734
-0.0850652,0.332789,-0.928978,-0.163033,-0.380834,-1.91403,0.235971,0.0910079,0.167227
-0.0778103,0.332228,-0.969268,-0.199842,-0.198843,-1.8512,0.212931,0.0730982,0.16516
-0.0666714,0.330102,-1.00826,-0.292987,0.0503472,-1.79847,0.184393,0.0707368,0.175444
-0.051593,0.324728,-1.04644,-0.462988,0.203994,-1.75247,0.152299,0.0609795,0.166066
-0.0357882,0.315165,-1.08273,-0.627583,0.214402,-1.61514,0.130042,0.0386722,0.147616
-0.0220825,0.302624,-1.11518,-0.68365,0.164016,-1.42152,0.0879718,0.0202706,0.0935614
-0.0108227,0.290096,-1.14327,-0.582382,0.146806,-1.23245,0.0438938,0.00905156,0.0381011
-0.00112652,0.280551,-1.16723,-0.367469,0.157133,-1.05238,-0.013093,0.00169268,0.00835735
-0.00112652,0.280551,-1.16723,-0.367469,0.157133,-1.05238,-0.013093,0.00169268,0.00835735
0.00801942,0.275543,-1.18742,-0.126077,0.20256,-0.886739,-0.0780904,6.66082e-05,0.00407094
0.0175568,0.274995,-1.20462,0.0821731,0.278416,-0.76699,-0.126653,0.00339931,0.01692
0.0273048,0.277746,-1.2199,0.213201,0.266719,-0.698961,-0.132807,0.014423,0.0318131
0.0363632,0.282756,-1.23435,0.330318,0.236149,-0.665853,-0.12593,0.026272,0.0819088
0.0446032,0.290293,-1.2481,0.475626,0.180862,-0.607493,-0.135634,0.0685353,0.172402
0.0502544,0.30095,-1.26043,0.645575,0.0100193,-0.507844,-0.153444,0.117885,0.242409
0.0512383,0.315057,-1.27072,0.795747,-0.229511,-0.396118,-0.141667,0.147212,0.301795
0.046602,0.331856,-1.27918,0.907333,-0.493454,-0.332231,-0.113364,0.174385,0.346589
0.0373915,0.350617,-1.28711,0.9817,-0.671963,-0.343018,-0.0985545,0.188006,0.383756
0.0256457,0.37031,-1.29591,0.984818,-0.806521,-0.41811,-0.0681094,0.176205,0.401819
0.011396,0.388705,-1.30622,0.839415,-0.997027,-0.504431,-0.0205096,0.14016,0.400484
-0.00597248,0.402785,-1.31824,0.542228,-1.17746,-0.592708,-0.00453057,0.118819,0.374699
-0.0248596,0.410345,-1.33241,0.191887,-1.21376,-0.727215,0.0489775,0.0856319,0.328733
-0.0394245,0.411169,-1.35082,-0.180014,-0.930922,-0.959053,0.076443,0.0681685,0.30112
-0.0441361,0.403843,-1.37455,-0.633086,-0.46227,-1.1536,0.132568,0.00976074,0.244437
-0.039703,0.388689,-1.40117,-0.944818,-0.16226,-1.19946,0.160831,-0.0419225,0.139964
-0.0311198,0.369221,-1.4275,-1.05716,0.0380606,-1.16417,0.18304,-0.075985,0.0143562
-0.0220935,0.347048,-1.45278,-1.24923,-0.111038,-1.11846,0.221458,-0.115642,-0.114277
-0.0214325,0.318623,-1.47528,-1.62749,-0.558771,-0.884011,0.276807,-0.185231,-0.312437
-0.0322132,0.283903,-1.48981,-1.79229,-0.90654,-0.388666,0.285115,-0.249726,-0.497239
-0.0500128,0.250931,-1.49389,-1.40524,-0.934206,0.125586,0.210337,-0.203995,-0.64929
-0.0685658,0.229999,-1.48762,-0.614289,-0.705295,0.595971,0.102902,-0.112355,-0.667553
-0.0816303,0.22324,-1.47124,0.00612543,-0.209208,1.02067,0.0423154,-0.0901635,-0.483949
-0.0858411,0.224401,-1.4469,0.262669,0.317992,1.29207,-0.0231187,-0.0899627,-0.214682
-0.081247,0.228297,-1.41925,0.332358,0.722381,1.3035,-0.0859414,-0.0703733,0.0758817
-0.0707063,0.233142,-1.39329,0.335193,0.868894,1.1632,-0.0883532,-0.0269144,0.327433
-0.0593511,0.238579,-1.36986,0.360207,0.78682,1.07798,-0.0400201,-0.0130374,0.505349
-0.0505653,0.245537,-1.34693,0.464045,0.61614,1.11019,0.0180219,0.0150959,0.653612
-0.0477525,0.254987,-1.32231,0.575374,0.210016,1.21707,0.0199763,0.0603998,0.706203
-0.0569253,0.265119,-1.29582,0.545979,-0.44467,1.24608,0.0106715,0.0831607,0.65112
-0.0759823,0.273583,-1.27048,0.442517,-0.658294,1.09284,0.00701553,0.0826986,0.595437
-0.0917889,0.278983,-1.25031,0.236642,-0.326441,0.767784,-0.00995212,0.0740083,0.474974
-0.0982997,0.28001,-1.23728,-0.0140586,-0.00292205,0.500638,0.00806111,0.147078,0.266746
-0.103469,0.276024,-1.22748,-0.308361,-0.438166,0.497583,-0.0455379,0.315821,-0.0279843
-0.124188,0.265435,-1.21961,-0.659136,-1.32477,0.28594,-0.164313,0.390228,-0.421543
-0.153339,0.247582,-1.22416,-1.2152,-1.60411,-0.559254,-0.19547,0.311986,-0.561353
-0.175417,0.220008,-1.25216,-1.92848,-1.07798,-1.6412,-0.143301,0.157507,-0.621646
-0.176114,0.18402,-1.30171,-2.39816,0.0380356,-2.40146,-0.0742742,0.156952,-0.564958
-0.155811,0.143513,-1.3615,-2.47747,0.95823,-2.63901,-0.0320833,0.267959,-0.508491
-0.123835,0.10405,-1.42024,-2.17053,1.41631,-2.51048,-0.0411813,0.242793,-0.383828
-0.0896884,0.0715249,-1.47215,-1.55004,1.50366,-2.25131,-0.0716868,0.144935,-0.245534
-0.0564198,0.0509157,-1.5155,-0.815248,1.5756,-1.85995,-0.0867497,0.0470942,-0.0667736
-0.0221005,0.042566,-1.54876,-0.174894,1.63918,-1.41136,-0.0251168,-0.0610541,0.177378
0.00786034,0.0436458,-1.57329,0.218541,1.13464,-1.04544,-0.0200293,-0.0808493,0.285928
0.0237869,0.0500507,-1.59178,0.444677,0.3952,-0.803293,-0.101483,-0.124317,0.2909
0.0270744,0.0606922,-1.60746,0.649129,-0.119766,-0.761495,-0.14929,-0.187697,0.347494
0.0219118,0.0747374,-1.62425,0.759846,-0.516102,-0.884974,-0.12364,-0.231164,0.379721
0.00802794,0.0887323,-1.64422,0.621829,-1.02909,-1.07216,-0.0316016,-0.322319,0.303651
-0.0136064,0.0989838,-1.66742,0.410312,-1.24629,-1.20375,0.0330248,-0.34414,0.171923
-0.0336227,0.106897,-1.69104,0.327432,-0.923076,-1.12113,0.098549,-0.329403,0.041307
-0.0336227,0.106897,-1.69104,0.327432,-0.923076,-1.12113,0.098549,-0.329403,0.041307
-0.0444513,0.113172,-1.71188,0.198605,-0.36505,-0.984664,0.117898,-0.261993,-0.0823298
-0.0441144,0.115255,-1.73294,-0.135061,0.119075,-1.16355,0.0718227,-0.168173,-0.199206
-0.0359276,0.107302,-1.76007,-0.795035,0.37993,-1.44676,0.0652237,-0.0943809,-0.323532
-0.0236592,0.0861522,-1.78939,-1.32369,0.521483,-1.32138,0.113779,-0.131682,-0.411916
-0.012162,0.0595698,-1.81264,-1.25904,0.415426,-0.917398,0.16482,-0.124471,-0.507188
-0.00444082,0.0399767,-1.82631,-0.642719,0.320751,-0.408459,0.18385,-0.0952116,-0.51207
0.00280955,0.0345657,-1.82889,0.0855329,0.405642,0.156887,0.172012,-0.111025,-0.366812
0.0119024,0.0419699,-1.82034,0.596003,0.521508,0.682939,0.13618,-0.125279,-0.162878
0.0216307,0.0568165,-1.80262,0.808733,0.507165,1.0792,0.0628023,-0.129036,0.031829
0.0289437,0.0741111,-1.77856,0.835021,0.37031,1.32384,-0.0406706,-0.126625,0.177059
0.0327134,0.0919571,-1.75156,0.861464,0.218607,1.38183,-0.132667,-0.100342,0.275363
0.0326918,0.111085,-1.72538,0.970245,0.0475095,1.23322,-0.224226,-0.0440052,0.293324
0.0305822,0.133028,-1.70409,1.14744,0.029262,0.918324,-0.275257,0.0275643,0.297662
0.0306872,0.158217,-1.68994,1.30254,0.222871,0.561819,-0.256709,0.0830492,0.324172
0.0363206,0.185323,-1.68169,1.33872,0.45595,0.363705,-0.214936,0.141158,0.321355
0.0464919,0.210679,-1.67621,1.13015,0.676941,0.285968,-0.153892,0.170336,0.229228
0.0613387,0.230423,-1.67149,0.796096,0.89873,0.28136,-0.177646,0.208141,0.11476
0.0793152,0.244403,-1.66647,0.604788,0.921002,0.291665,-0.213673,0.220371,-0.022011
0.0932762,0.257806,-1.66322,0.747252,0.535622,0.088782,-0.308904,0.297425,-0.219884
0.100635,0.274844,-1.66743,0.945171,0.0566799,-0.363414,-0.330185,0.362614,-0.332395
0.0999177,0.29089,-1.68358,0.713862,-0.608004,-1.03209,-0.140269,0.21396,-0.347326
0.0890981,0.297136,-1.7127,0.164222,-1.27513,-1.61721,0.0955678,-0.0242946,-0.317603
0.0703473,0.293558,-1.75,-0.174258,-1.61223,-1.91399,0.173318,-0.101585,-0.334942
0.0500996,0.287668,-1.79146,-0.117776,-1.51239,-2.03422,0.074492,0.0355479,-0.340681
0.0361505,0.286364,-1.83367,0.174463,-1.00371,-1.96922,-0.00990583,0.123683,-0.23094
0.0346049,0.291425,-1.87292,0.430091,-0.246233,-1.73282,-0.0253267,0.150949,-0.0463542
0.0467488,0.29963,-1.90611,0.467414,0.463199,-1.37681,-0.00754028,0.0993511,0.155467
0.06826,0.305691,-1.93171,0.226994,0.853083,-1.02944,-0.00982337,0.0323666,0.307238
0.0917962,0.304652,-1.95125,-0.198997,0.840843,-0.861841,-0.0397167,-0.026241,0.381438
0.109422,0.294925,-1.96834,-0.562932,0.321178,-0.866013,0.00998223,-0.112301,0.35285
0.113112,0.28068,-1.98492,-0.611012,-0.422611,-0.85437,0.0480249,-0.116897,0.240753
0.103592,0.268115,-2.0002,-0.473301,-0.840511,-0.720453,0.0670359,-0.0999238,0.151104
0.0897351,0.25716,-2.01179,-0.560199,-0.79059,-0.483061,0.0921499,-0.0704179,0.0858294
0.0777649,0.242479,-2.01757,-0.853284,-0.523194,-0.190737,0.129237,-0.0901517,-0.0330424
0.0703208,0.223015,-2.018,-1.02615,-0.240011,-0.0432227,0.0920607,-0.13352,-0.196075
0.0652809,0.202751,-2.01871,-0.954818,-0.373913,-0.195302,0.00264523,-0.0940302,-0.43558
0.0552313,0.184955,-2.02392,-0.772877,-0.69767,-0.419855,-0.035295,-0.0943875,-0.639007
0.0424672,0.171001,-2.034,-0.577198,-0.706271,-0.638697,-0.0954089,-0.0691954,-0.670701
0.0329977,0.160156,-2.0489,-0.458869,-0.413394,-0.857914,-0.19767,0.0475333,-0.614257
0.0338629,0.150911,-2.06753,-0.403786,0.238953,-0.982308,-0.28988,0.109232,-0.442657
0.0482894,0.142773,-2.08775,-0.312466,0.848629,-1.04484,-0.306858,0.108215,-0.253165
0.0714322,0.137081,-2.10914,-0.115437,1.10949,-1.04708,-0.251168,0.0922944,-0.110906
0.0952864,0.134978,-2.12798,0.0497326,0.90481,-0.802988,-0.176415,-0.0427385,-0.0149793
0.109593,0.13617,-2.14195,0.217276,0.312931,-0.571885,-0.196206,-0.064537,-0.0139494
0.110854,0.141418,-2.15304,0.431708,-0.315503,-0.479535,-0.273829,-0.0151045,-0.00783509
0.102545,0.151593,-2.16401,0.688092,-0.610972,-0.501654,-0.303538,-0.00812122,0.0185563
0.0913839,0.166278,-2.177,0.866222,-0.672998,-0.651109,-0.307817,-0.00593513,0.0720737
0.0812371,0.1828,-2.19412,0.88144,-0.624161,-0.877687,-0.282585,0.0143943,0.142999
0.0733636,0.197586,-2.2148,0.721224,-0.566289,-0.999286,-0.245791,-0.00164904,0.185791
0.0665682,0.208368,-2.23592,0.497855,-0.532538,-0.960004,-0.220338,-0.0392456,0.189338
0.0665682,0.208368,-2.23592,0.497855,-0.532538,-0.960004,-0.220338,-0.0392456,0.189338
0.0601486,0.215458,-2.25541,0.337688,-0.506592,-0.899337,-0.21514,-0.0508537,0.179626
0.0545414,0.219857,-2.27494,0.198292,-0.491081,-0.99953,-0.262583,-0.0363811,0.191427
0.0487033,0.220769,-2.29761,-0.00494864,-0.585478,-1.19146,-0.234865,-0.0377491,0.176843
0.0414925,0.217237,-2.32318,-0.237534,-0.691764,-1.27544,-0.128122,-0.068129,0.159326
0.0309699,0.209163,-2.34849,-0.455184,-0.894808,-1.19469,-0.0464797,-0.0667272,0.0850816
0.017249,0.199087,-2.37104,-0.463195,-0.908985,-1.01892,-0.0274055,-0.0621891,0.034484
0.00313635,0.190616,-2.38929,-0.340095,-0.785141,-0.763307,-0.0800449,-0.0341534,-0.0658925
-0.00613528,0.1858,-2.40205,-0.134965,-0.348258,-0.483704,-0.115507,-0.00514771,-0.0930506
-0.00697295,0.185348,-2.409,0.0826925,0.144075,-0.18622,-0.0642372,-0.010383,-0.105134
7.71721e-05,0.188983,-2.4091,0.2602,0.521773,0.190306,0.00762992,-0.024085,-0.0696229
0.0105655,0.195063,-2.40119,0.323463,0.618157,0.573285,0.0227314,-0.0150796,-0.0403969
0.0184989,0.201434,-2.38709,0.273587,0.412252,0.76134,-0.0117609,-0.0201709,-0.049165
0.0204738,0.205905,-2.3727,0.131488,0.0570997,0.595544,-0.113378,0.00337237,-0.118024
0.0160386,0.207397,-2.36462,0.0169788,-0.331615,0.164358,-0.17466,-0.00284243,-0.230143
0.00693075,0.207717,-2.36691,0.0400879,-0.55568,-0.398248,-0.162391,0.0195201,-0.279057
-0.000214837,0.209828,-2.38038,0.17925,-0.385726,-0.878002,-0.150516,0.0992065,-0.215384
-0.000792201,0.214805,-2.40072,0.304709,-0.0959742,-1.04072,-0.121189,0.161338,-0.136096
0.00360231,0.221492,-2.42093,0.348347,0.0539428,-0.88532,-0.0886125,0.17751,-0.0623842
0.00737485,0.228053,-2.43649,0.302232,-0.0568811,-0.6291,-0.0842407,0.178092,-0.0483485
0.00622518,0.233009,-2.44827,0.201058,-0.336181,-0.545448,-0.0773612,0.177577,-0.0641674
0.000439024,0.236622,-2.46046,0.181141,-0.468383,-0.655481,-0.104019,0.201537,-0.0803244
-0.00391085,0.240727,-2.47593,0.223909,-0.293367,-0.847154,-0.118242,0.214574,-0.033649
-0.00214165,0.245531,-2.49531,0.23772,0.0106381,-1.01101,-0.0916726,0.224655,0.0457812
0.00602756,0.249832,-2.51703,0.174784,0.240469,-1.06493,-0.0594292,0.210986,0.12479
0.0163106,0.251563,-2.53889,0.00783408,0.196321,-1.02874,-0.0254705,0.177705,0.162793
0.0233417,0.249404,-2.55958,-0.171761,-0.0141426,-0.971602,0.0102958,0.128922,0.157257
0.0261617,0.244534,-2.57936,-0.248015,-0.172571,-0.953317,0.00882972,0.121606,0.146951
0.0267204,0.239275,-2.59927,-0.21737,-0.229616,-0.980568,-0.0174263,0.148314,0.145068
0.0264618,0.234922,-2.61956,-0.165526,-0.278114,-0.984189,-0.0250148,0.146876,0.133706
0.024023,0.231447,-2.63948,-0.133687,-0.43961,-0.950159,-0.00917426,0.126053,0.0959795
0.0178615,0.228834,-2.65881,-0.0784462,-0.598433,-0.933602,-0.009735,0.118016,0.0560059
0.00993649,0.227785,-2.67841,0.00650331,-0.5939,-0.977988,-0.0495051,0.14623,0.0522612
0.00429896,0.228724,-2.69953,0.100593,-0.431175,-1.07136,-0.0936035,0.160375,0.0728091
0.00213245,0.231464,-2.72271,0.170199,-0.33893,-1.17301,-0.106293,0.162188,0.0977343
0.000555728,0.234925,-2.74795,0.167283,-0.413249,-1.26692,-0.0875155,0.150006,0.11337
-0.00277525,0.237738,-2.77504,0.104444,-0.544923,-1.35273,-0.065357,0.135315,0.130073
-0.00804896,0.23929,-2.80363,0.0405725,-0.63811,-1.40507,-0.0565267,0.132261,0.149942
-0.0139346,0.240363,-2.83297,0.048715,-0.616645,-1.43083,-0.0583811,0.136523,0.170971
-0.0176694,0.242534,-2.86274,0.123986,-0.431875,-1.44641,-0.0788874,0.164495,0.221726
-0.0164105,0.246161,-2.89268,0.176011,-0.164914,-1.43875,-0.0735014,0.172669,0.287672
-0.011054,0.249921,-2.92195,0.142965,-0.0518829,-1.37616,-0.0297711,0.149549,0.332184
-0.0053871,0.251996,-2.949,0.038615,-0.0504542,-1.21013,0.0337509,0.108636,0.341801
-0.00112673,0.251498,-2.97141,-0.100893,-0.114942,-0.940526,0.0616077,0.0891568,0.365314
-0.00143424,0.248097,-2.9883,-0.229558,-0.344651,-0.707322,0.0486163,0.081802,0.311071
-0.00718633,0.24292,-3.00211,-0.267919,-0.533461,-0.660739,0.00920311,0.0582874,0.222385
-0.0143032,0.238511,-3.01742,-0.172091,-0.515635,-0.840978,0.0157442,-0.00611416,0.159854
-0.0203395,0.236265,-3.03818,-0.110935,-0.604543,-1.17179,0.066053,-0.042401,0.093249
-0.0282422,0.233765,-3.0655,-0.22934,-0.791996,-1.43609,0.131413,-0.0928974,-0.0173481
-0.0367225,0.227914,-3.09631,-0.463213,-0.726072,-1.50459,0.162047,-0.147864,-0.0847598
-0.0426823,0.216839,-3.12761,-0.755759,-0.513178,-1.46999,0.141554,-0.134405,-0.171356
-0.0426823,0.216839,-3.12761,-0.755759,-0.513178,-1.46999,0.141554,-0.134405,-0.171356
-0.0420105,0.200768,3.12594,-0.937937,0.00721221,-1.31898,0.130052,-0.143855,-0.212449
-0.0316685,0.182518,3.10084,-0.952162,0.477098,-1.0525,0.155329,-0.175259,-0.235319
-0.0186872,0.164182,3.08128,-0.9192,0.387616,-0.829116,0.157641,-0.16584,-0.298272
-0.0122905,0.146359,3.0657,-0.863743,0.0214432,-0.675561,0.0667853,-0.112296,-0.363961
-0.0119995,0.130947,3.05371,-0.6472,-0.102421,-0.475806,-0.0129753,-0.120434,-0.342098
-0.0119024,0.121819,3.04667,-0.252537,0.048911,-0.194492,-0.0369074,-0.136707,-0.22556
-0.00829479,0.120889,3.04584,0.144586,0.311696,0.112328,-0.037649,-0.128383,-0.0634999
-7.70177e-05,0.126474,3.05085,0.3826,0.553992,0.367805,-0.0450285,-0.121071,0.096444
0.0113984,0.134925,3.06018,0.424983,0.693154,0.539615,-0.0823394,-0.131338,0.199969
0.0243246,0.142638,3.07139,0.306546,0.723524,0.549026,-0.114438,-0.147961,0.240406
0.0365352,0.147389,3.08109,0.145988,0.604911,0.413144,-0.103575,-0.150752,0.23566
0.0448185,0.14952,3.08795,0.0466264,0.277822,0.277606,-0.0936658,-0.125176,0.201107
0.04469,0.150126,3.09289,0.00554529,-0.216118,0.232574,-0.0842879,-0.0725289,0.127963
0.036297,0.151447,3.09823,0.140119,-0.474411,0.308904,-0.0906832,-0.0275374,0.0739623
0.0267343,0.157594,3.10512,0.466374,-0.31964,0.377365,-0.101366,0.0205139,0.0725667
0.0226241,0.17073,3.11292,0.794763,0.0346634,0.417888,-0.0933381,0.0784404,0.129557
0.0232104,0.187834,3.12119,0.829706,0.109245,0.423582,-0.0715061,0.105463,0.147643
0.0227606,0.202739,3.12923,0.619445,0.026495,0.387288,-0.0639032,0.125395,0.101
0.0223657,0.213028,3.13607,0.391107,0.0681601,0.284439,-0.0521622,0.149348,0.0940177
0.0230884,0.218769,3.14027,0.17257,0.0847036,0.130585,-0.056731,0.216403,0.0443713
0.0231665,0.219851,3.14133,-0.0785822,-0.104164,-0.022094,-0.0487756,0.261251,-0.0186404
0.0170501,0.215493,3.13939,-0.341428,-0.579516,-0.183007,-0.00791158,0.238732,-0.133684
0.00152326,0.206921,3.13333,-0.486536,-1.06,-0.430828,-0.000132687,0.230655,-0.277528
-0.0197553,0.196555,3.12117,-0.540837,-1.23488,-0.745874,-0.0202076,0.230692,-0.36399
-0.0392478,0.186617,3.10269,-0.488733,-0.992138,-1.01462,-0.0235772,0.204899,-0.369087
-0.0499971,0.178714,3.07971,-0.40364,-0.467895,-1.17413,-0.0144031,0.188903,-0.283651
-0.0493532,0.171888,3.05508,-0.4161,0.101623,-1.17278,0.0203928,0.149817,-0.14324
-0.0389922,0.163583,3.03188,-0.512517,0.500909,-1.05125,0.0430396,0.0737122,-0.0102546
-0.0241874,0.153388,3.01155,-0.549105,0.605425,-0.920528,0.0490171,0.00038287,0.0888916
-0.0108809,0.143547,2.99358,-0.438307,0.418457,-0.836753,0.0293235,-0.0506867,0.127306
-0.00368492,0.13694,2.97694,-0.218493,0.0568119,-0.802919,0.018955,-0.0786669,0.159516
-0.00379013,0.135039,2.96073,0.0248825,-0.272207,-0.795943,0.0126973,-0.0839837,0.209059
-0.00944147,0.137739,2.94451,0.218336,-0.481605,-0.807665,0.00918411,-0.074336,0.264014
-0.0172321,0.143393,2.9278,0.304503,-0.499636,-0.847685,0.0132703,-0.0603601,0.316189
-0.0241869,0.149621,2.9099,0.255716,-0.458354,-0.933427,0.0338326,-0.0523833,0.303602
-0.0297221,0.153882,2.88983,0.100129,-0.376291,-1.05211,0.0749141,-0.0668782,0.221069
-0.0308078,0.154807,2.86765,-0.0698858,-0.00835081,-1.10454,0.0992976,-0.0842143,0.137032
-0.0225383,0.152534,2.8458,-0.228429,0.47192,-1.0276,0.148953,-0.144856,0.0893497
-0.00639966,0.145939,2.82538,-0.462237,0.812111,-0.984174,0.232986,-0.208857,0.0361024
0.0138154,0.133726,2.80484,-0.764234,0.847665,-1.07036,0.246349,-0.226597,-0.00677949
0.0310072,0.113429,2.78179,-1.22377,0.545902,-1.24112,0.18195,-0.159488,-0.125205
0.0412279,0.0834688,2.75799,-1.61616,0.290814,-1.16162,0.183171,-0.146746,-0.232295
0.0488565,0.0505242,2.73981,-1.48092,0.387462,-0.748566,0.212868,-0.16724,-0.290477
0.0598638,0.0259412,2.73227,-0.873485,0.696414,-0.0884148,0.249122,-0.13997,-0.27439
0.0775568,0.0155923,2.73984,-0.245469,1.07824,0.790483,0.267272,-0.173861,-0.13742
0.101962,0.0163219,2.76433,0.0338974,1.37168,1.60848,0.22501,-0.2246,-0.00817949
0.130928,0.0214569,2.80237,-0.00600609,1.55005,2.15802,0.103973,-0.234328,0.0887472
0.160688,0.0262927,2.84818,-0.186853,1.46564,2.35989,-0.0199885,-0.256593,0.134786
0.185356,0.0293617,2.8949,-0.277841,1.08438,2.22907,-0.135862,-0.238984,0.0883583
0.200719,0.0331115,2.9371,-0.131105,0.560261,1.95903,-0.233292,-0.17327,0.0443277
0.200719,0.0331115,2.9371,-0.131105,0.560261,1.95903,-0.233292,-0.17327,0.0443277
0.205272,0.0413016,2.97398,0.215972,0.0424366,1.82569,-0.228989,-0.121201,0.0399383
0.20172,0.0579595,3.00817,0.731466,-0.174916,1.84252,-0.194479,-0.0880691,0.0772756
0.195962,0.0842978,3.04052,1.16063,-0.159591,1.80105,-0.20261,0.00378422,0.126792
0.19015,0.115233,3.06983,1.25192,-0.114509,1.62096,-0.25306,0.0957065,0.119857
0.186504,0.144834,3.09476,1.18304,0.107227,1.3233,-0.297452,0.133235,0.114231
0.188668,0.172014,3.11262,1.14996,0.365691,0.876311,-0.338256,0.225153,0.0890661
0.194298,0.195986,3.12003,1.01221,0.250438,0.25631,-0.393803,0.376619,0.00294244
0.195513,0.210977,3.11329,0.521154,-0.316762,-0.669948,-0.439809,0.507785,-0.157227
0.189147,0.210071,3.0872,-0.108954,-0.802524,-1.83622,-0.343815,0.489474,-0.261961
0.179858,0.195096,3.0417,-0.48932,-0.994485,-2.71675,-0.184026,0.416807,-0.290625
0.169842,0.17361,2.98473,-0.621419,-1.02696,-3.05495,-0.075086,0.432672,-0.290618
0.159712,0.151058,2.92596,-0.633116,-0.912032,-2.94743,-0.0131498,0.445955,-0.22125
0.151187,0.131382,2.87195,-0.447188,-0.690944,-2.58775,-0.0162569,0.377113,-0.165664
0.144609,0.118124,2.82556,-0.180195,-0.537935,-2.12368,-0.008671,0.254919,-0.111205
0.139818,0.111586,2.78816,0.0481781,-0.345133,-1.63429,0.0200271,0.137584,0.0298287
0.1389,0.110355,2.75915,0.22208,-0.0553625,-1.24178,0.0286786,0.0695432,0.186584
0.143614,0.112913,2.73637,0.336695,0.261155,-0.967846,0.00435172,0.0302452,0.289845
0.153045,0.117554,2.71788,0.371058,0.421694,-0.779909,-0.0299822,-0.00408508,0.332519
0.161752,0.121833,2.70261,0.266896,0.228955,-0.651423,-0.0155057,-0.0562479,0.305711
0.165619,0.123874,2.68982,0.152247,0.029468,-0.56839,0.019872,-0.127129,0.239119
0.167319,0.125149,2.67826,0.177782,0.0220439,-0.55662,0.0119482,-0.195749,0.149069
0.169319,0.126357,2.66468,0.127448,-0.0451455,-0.795357,-0.0069503,-0.243806,-0.00952435
0.166046,0.121771,2.64382,-0.317784,-0.627781,-1.33864,0.083102,-0.299077,-0.19577
0.150576,0.102145,2.61409,-1.16642,-1.13621,-1.82041,0.0816703,-0.222084,-0.371907
0.1318,0.0661725,2.58071,-1.83212,-0.914292,-1.88705,0.0108673,-0.123634,-0.457849
0.120323,0.0242464,2.55101,-1.81138,-0.370244,-1.50111,0.0585762,-0.0942558,-0.520095
0.117405,-0.00831649,2.5314,-1.09259,0.050538,-0.776786,0.135371,-0.0995639,-0.550452
0.122863,-0.0213057,2.52627,-0.112299,0.528285,0.125587,0.150072,-0.155337,-0.405133
0.137655,-0.0131386,2.53576,0.735319,0.844627,0.851529,0.0907118,-0.203354,-0.187142
0.154504,0.00931794,2.55342,1.14517,0.82044,1.14463,0.0100417,-0.198858,-0.0758129
0.170566,0.0364399,2.57208,1.17075,0.82455,1.07414,-0.0770222,-0.253165,0.0676593
0.186641,0.061299,2.58624,0.994781,0.824525,0.711572,-0.148711,-0.280765,0.176863
0.201539,0.0804079,2.59183,0.759081,0.673723,0.195627,-0.165336,-0.267838,0.228852
0.212692,0.0926926,2.58852,0.502602,0.37802,-0.241022,-0.157116,-0.251984,0.24625
0.217634,0.0990887,2.57926,0.346056,0.0370758,-0.489791,-0.155,-0.230434,0.189242
0.217904,0.104386,2.56662,0.485866,-0.096291,-0.60568,-0.178356,-0.179693,0.126891
0.217776,0.114292,2.55107,0.820891,-0.0790297,-0.679267,-0.189533,-0.126542,0.106424
0.218451,0.130088,2.53237,1.07076,-0.108561,-0.803807,-0.209164,-0.085168,0.0983872
0.217046,0.147027,2.50929,1.02586,-0.3829,-1.07207,-0.209055,-0.0651871,0.0618883
0.210717,0.160041,2.48048,0.82816,-0.673434,-1.43045,-0.194327,-0.0453532,0.0148689
0.200871,0.167293,2.44542,0.572327,-0.857681,-1.76887,-0.170858,0.0104773,-0.0615885
0.188922,0.168385,2.40648,0.266416,-0.985769,-1.93,-0.119028,0.0618168,-0.189994
0.173804,0.163863,2.36663,0.0313798,-1.16339,-1.98364,-0.0964105,0.119506,-0.422883
0.157673,0.157671,2.32623,0.0454755,-1.00949,-2.03597,-0.110471,0.21311,-0.647107
0.148775,0.153277,2.28402,0.143864,-0.499329,-2.14122,-0.147984,0.312285,-0.746304
0.15021,0.149038,2.23927,0.0502347,-0.0544352,-2.26187,-0.128929,0.338871,-0.726002
0.158745,0.141008,2.19432,-0.158136,0.215881,-2.17679,-0.0612805,0.269173,-0.612645
0.16931,0.130442,2.15513,-0.211348,0.286045,-1.75952,0.00317121,0.16207,-0.485487
0.178488,0.122752,2.12593,-0.0133641,0.235667,-1.21068,0.0281861,0.0975418,-0.335334
0.178488,0.122752,2.12593,-0.0133641,0.235667,-1.21068,0.0281861,0.0975418,-0.335334
0.183776,0.121899,2.10621,0.278455,0.0280626,-0.734953,0.00589877,0.0734864,-0.18896
0.182998,0.127575,2.09408,0.470205,-0.249569,-0.357988,-0.0542639,0.0411701,-0.0617521
0.176708,0.136811,2.08763,0.536321,-0.431765,-0.129884,-0.1201,-0.00828367,0.0359287
0.168287,0.147673,2.08362,0.591027,-0.431938,-0.112185,-0.184027,-0.0227693,0.13623
0.161047,0.158824,2.0779,0.577321,-0.386839,-0.281576,-0.214868,0.00065577,0.237576
0.154892,0.167899,2.06812,0.447044,-0.391521,-0.52299,-0.208577,0.0121731,0.311415
0.149184,0.172815,2.05445,0.230087,-0.409797,-0.712646,-0.168237,-0.000559941,0.379024
0.143253,0.173018,2.03872,0.0248494,-0.459237,-0.795811,-0.142173,-0.00834012,0.405476
0.135605,0.170495,2.02236,-0.0322779,-0.583498,-0.82743,-0.134679,0.0132525,0.356672
0.125792,0.168036,2.00531,0.0119428,-0.67683,-0.863639,-0.135855,0.0464579,0.306036
0.114248,0.1666,1.98723,0.0492202,-0.773426,-0.917018,-0.12034,0.0442179,0.252202
0.100997,0.165538,1.96779,0.0493998,-0.854659,-0.996628,-0.0856835,0.0346718,0.223216
0.0862733,0.164728,1.94657,0.0692918,-0.973079,-1.08327,-0.100854,0.0753607,0.223532
0.0696442,0.16497,1.92329,0.143213,-1.0389,-1.19965,-0.172708,0.130272,0.202874
0.0522973,0.166831,1.89612,0.170116,-1.20224,-1.48951,-0.239567,0.166241,0.162151
0.0275061,0.166098,1.86035,-0.179886,-1.9229,-2.05889,-0.267145,0.260855,0.034128
-0.0121442,0.154711,1.81185,-0.952413,-2.76921,-2.67065,-0.170084,0.259884,-0.135384
-0.0634717,0.130385,1.75283,-1.62576,-3.03459,-2.99456,-0.0598662,0.215374,-0.305147
-0.112736,0.100642,1.68802,-1.78953,-2.50447,-3.07754,0.0065209,0.246453,-0.433327
-0.147342,0.0764928,1.62388,-1.36422,-1.4401,-2.86405,0.0974911,0.249148,-0.540019
-0.16033,0.0629666,1.56773,-0.861976,-0.254226,-2.39549,0.177699,0.226011,-0.47607
-0.15414,0.0544284,1.52436,-0.718186,0.52471,-1.68193,0.210707,0.196461,-0.308241
-0.139235,0.0427342,1.4969,-0.861903,0.738655,-0.860574,0.20418,0.0896573,-0.176551
-0.125695,0.0252509,1.48327,-1.01926,0.518627,-0.321655,0.137821,0.015391,-0.149883
-0.11813,0.0058712,1.47633,-0.930986,0.229828,-0.184918,0.0285594,-0.0189548,-0.180372
-0.11622,-0.00909663,1.46973,-0.604008,-0.0248758,-0.320761,-0.0827308,-0.0202506,-0.202512
-0.118983,-0.0169639,1.46031,-0.306637,-0.242553,-0.508704,-0.130368,-0.00956257,-0.14915
-0.125294,-0.0194563,1.4484,-0.0760576,-0.3109,-0.629679,-0.130337,-0.0299225,-0.0889747
-0.129543,-0.0163367,1.43455,0.210791,-0.0437065,-0.788989,-0.112856,-0.0407347,0.0118135
-0.12702,-0.00772363,1.41816,0.396612,0.290984,-0.91771,-0.0436891,-0.0331904,0.155824
-0.11888,0.00278263,1.40091,0.408296,0.504739,-0.89106,0.0212943,-0.0483648,0.27193
-0.107523,0.011751,1.38475,0.274633,0.593112,-0.813868,0.031442,-0.0460647,0.35289
-0.0947502,0.0167499,1.36906,0.0618833,0.648044,-0.796579,0.0371611,-0.0440266,0.393065
-0.0815508,0.0175191,1.35263,-0.113869,0.617488,-0.841455,0.0587276,-0.084914,0.362963
-0.0699164,0.0159049,1.33524,-0.16325,0.49237,-0.861915,0.0849874,-0.100612,0.305567
-0.0622863,0.0134095,1.31835,-0.191185,0.223567,-0.766796,0.107361,-0.097919,0.227341
-0.0595846,0.0106775,1.30553,-0.137245,0.0571441,-0.462149,0.147177,-0.106708,0.117614
-0.0593051,0.00961787,1.29989,0.00957478,-0.0214047,-0.102983,0.116152,-0.101756,0.0427973
-0.0594951,0.0115784,1.30021,0.181387,0.0175166,0.0892049,0.0776903,-0.111041,0.016749
-0.058135,0.0160991,1.30278,0.254098,0.131626,0.12347,0.0482223,-0.146698,0.0434236
-0.0539355,0.0204253,1.3052,0.164365,0.301208,0.0839344,0.016041,-0.179024,0.111573
-0.0458972,0.0219085,1.30616,-0.0147797,0.497886,-0.00186344,-0.0276773,-0.187337,0.168812
-0.0347054,0.0203225,1.30506,-0.132132,0.581532,-0.101183,-0.0596691,-0.192936,0.188996
-0.0232284,0.0176409,1.30217,-0.121483,0.544213,-0.17146,-0.0463116,-0.214904,0.171221
-0.0130366,0.0165794,1.29856,0.0304138,0.480699,-0.173919,0.00761755,-0.23719,0.151938
-0.00270335,0.0191796,1.29597,0.212476,0.562689,-0.0654933,0.0191213,-0.209475,0.190227
0.00922611,0.0241709,1.2968,0.2587,0.594537,0.161243,0.0110251,-0.196351,0.238114
0.019828,0.0291186,1.30231,0.227131,0.463367,0.378214,0.00203231,-0.194976,0.258779
0.0276292,0.0344111,1.31064,0.303959,0.346932,0.439228,-0.0311646,-0.17252,0.257282
0.0336784,0.0426679,1.3188,0.500728,0.30462,0.394418,-0.0526233,-0.125298,0.252109
0.039719,0.0553077,1.32646,0.72541,0.346212,0.435941,-0.0428827,-0.0815918,0.291537
0.0476515,0.0721412,1.3361,0.889754,0.525946,0.609886,-0.017526,-0.0282173,0.357641
0.0596778,0.090863,1.34992,0.849201,0.79274,0.873189,-0.0177398,0.058542,0.398918
0.0772275,0.106567,1.36991,0.542555,1.1661,1.20703,-0.0279154,0.150906,0.399658
0.100117,0.115879,1.39659,0.163203,1.28045,1.47746,-0.015448,0.164173,0.360573
0.114087,0.119964,1.42573,-0.0430637,0.25698,1.30947,-0.0671989,0.166399,0.0635988
0.0995244,0.118842,1.44488,-0.332517,-1.46575,0.496985,-0.238109,0.33185,-0.350483
0.0592045,0.105546,1.44654,-1.10304,-2.26371,-0.417835,-0.289905,0.41077,-0.56349
0.0176509,0.0751913,1.4313,-1.76916,-1.92663,-1.16815,-0.223075,0.334505,-0.695135
-0.0119698,0.0380617,1.40087,-1.80301,-1.10294,-1.81189,-0.0890981,0.386151,-0.826876
-0.0226631,0.00649525,1.36182,-1.37368,-0.0546971,-1.90903,0.0811019,0.337962,-0.720676
-0.0151907,-0.015245,1.32669,-0.864128,0.748928,-1.49724,0.190878,0.170287,-0.53908
0.00362103,-0.0280776,1.30116,-0.453558,1.11197,-1.04843,0.15849,0.0961937,-0.325398
0.0258844,-0.0343552,1.28383,-0.158659,1.09611,-0.687193,0.0928166,0.0208731,-0.112665
0.0439888,-0.0353277,1.27365,0.103519,0.685765,-0.327163,0.0633221,-0.097744,0.0491601
0.0522158,-0.030407,1.2698,0.41569,0.16128,-0.0516742,0.0376606,-0.170295,0.166282
0.0515031,-0.0185583,1.26973,0.757864,-0.208041,0.0868835,0.0204737,-0.191943,0.285642
0.04497,-0.000495891,1.27156,1.00791,-0.422886,0.185716,0.00567384,-0.168755,0.388897
0.0345918,0.021473,1.27574,1.13833,-0.618264,0.32317,-0.00494434,-0.136167,0.476451
0.018931,0.0450586,1.28288,1.18625,-0.920599,0.433896,-0.0323078,-0.0997473,0.492672
-0.00264055,0.0696601,1.29137,1.2505,-1.16221,0.400895,-0.0491542,-0.0685797,0.482068
-0.02787,0.0946128,1.29798,1.20838,-1.24964,0.194089,-0.0358568,-0.0462905,0.431436
-0.0510176,0.116111,1.29944,0.885378,-0.995212,-0.151381,-0.0242533,-0.0345555,0.353013
-0.067267,0.129004,1.29374,0.348178,-0.699712,-0.458219,0.0432813,-0.0827796,0.227119
-0.0767809,0.131425,1.28348,-0.174127,-0.359686,-0.536063,0.121439,-0.1488,0.0952059
-0.0775149,0.124052,1.27208,-0.64772,0.155746,-0.539209,0.0917958,-0.121642,-0.0516189
-0.0775149,0.124052,1.27208,-0.64772,0.155746,-0.539209,0.0917958,-0.121642,-0.0516189
-0.0717925,0.105672,1.2582,-1.33604,0.0895575,-0.729624,0.0023,-0.033196,-0.312385
-0.0720114,0.0724959,1.23805,-2.01658,-0.20941,-1.0195,-0.0676593,-0.075822,-0.640771
-0.0727965,0.0331909,1.2121,-1.94558,0.0696022,-1.25092,-0.0150611,-0.171756,-0.739068
-0.0653169,0.00205277,1.18466,-1.28212,0.649641,-1.17423,0.0814294,-0.137733,-0.684004
-0.0468918,-0.0151146,1.16551,-0.553523,1.16142,-0.555631,0.174784,-0.155571,-0.433419
-0.0207651,-0.0202892,1.16325,-0.002368,1.38221,0.367466,0.205498,-0.187585,-0.129373
0.00630197,-0.016283,1.17977,0.388054,1.23073,1.23559,0.159898,-0.212983,0.104126
0.0276395,-0.0045842,1.21053,0.70571,0.828599,1.78805,0.0736521,-0.197013,0.264531
0.0391137,0.0135811,1.24851,0.955012,0.321797,2.00462,-0.0170665,-0.176849,0.370511
0.039579,0.0358432,1.28753,1.08205,-0.183017,1.9125,-0.0814286,-0.164955,0.434214
0.029124,0.0595623,1.32256,1.14677,-0.694695,1.63639,-0.106171,-0.100049,0.476609
0.00818179,0.0840367,1.35189,1.23912,-1.16069,1.31679,-0.12737,-0.0536506,0.457131
-0.0196916,0.109847,1.37492,1.31823,-1.33753,0.941202,-0.120412,0.0293498,0.400702
-0.047342,0.134874,1.39119,1.17907,-1.15225,0.60789,-0.090404,0.144613,0.320222
-0.0667267,0.153998,1.40355,0.74586,-0.555631,0.558911,-0.0387261,0.205163,0.237584
-0.075812,0.160958,1.41774,-0.0143742,-0.307348,0.778536,-0.0627366,0.25998,0.0570081
-0.0910321,0.149383,1.43248,-1.00454,-0.988674,0.691612,-0.250652,0.304804,-0.396655
-0.115435,0.120884,1.43808,-1.68847,-1.30698,0.0546254,-0.323315,0.182189,-0.578434
-0.140604,0.0867491,1.42427,-1.73161,-1.26193,-0.995023,-0.24358,0.100099,-0.729107
-0.160068,0.0620491,1.39086,-1.14023,-0.885629,-1.84512,-0.149072,0.1089,-0.737828
-0.170324,0.0531397,1.34703,-0.492075,-0.363524,-2.23949,-0.109699,0.149764,-0.594826
-0.169697,0.0552384,1.30077,-0.105914,0.191534,-2.28206,-0.0505667,0.172459,-0.328672
-0.159283,0.062462,1.25689,0.0593046,0.54592,-2.09594,0.00153182,0.140562,-0.0771756
-0.144173,0.0695193,1.21888,0.0497306,0.68718,-1.71168,0.0445113,0.065786,0.106574
-0.127333,0.0745669,1.18932,0.0609618,0.778272,-1.26351,0.0739174,0.00146928,0.221676
-0.108585,0.0792597,1.1681,0.166916,0.918781,-0.901278,0.07196,-0.00482282,0.319694
-0.0888479,0.0855508,1.15306,0.310429,0.869804,-0.663255,0.0744905,0.0178043,0.373303
-0.0738057,0.0941335,1.14215,0.449631,0.475733,-0.491122,0.0780052,0.0360417,0.380924
-0.0685124,0.104544,1.13448,0.507511,0.00789888,-0.342054,0.080048,0.031569,0.363774
-0.069603,0.114788,1.1294,0.468694,-0.109938,-0.238459,0.0731327,0.00717501,0.346574
-0.070815,0.123731,1.12527,0.378535,-0.0837247,-0.252394,0.079004,0.0104087,0.269058
-0.072746,0.13034,1.11991,0.23422,-0.192187,-0.301373,0.0667095,0.00948837,0.0699652
-0.0760767,0.134607,1.1148,0.172062,-0.165833,-0.218962,0.0715011,-0.124589,-0.106227
-0.0782229,0.138656,1.11121,0.208085,-0.103698,-0.195472,0.0324713,-0.182069,-0.223823
-0.0791432,0.143205,1.10601,0.168561,-0.0656942,-0.376875,-0.0216632,-0.0742024,-0.235197
-0.0791989,0.14456,1.09614,-0.163297,-0.0924414,-0.587403,-0.0549488,-0.0486769,-0.232939
-0.0790862,0.137549,1.08257,-0.63269,-0.0524122,-0.663801,-0.0845689,-0.114593,-0.259199
-0.0763943,0.122642,1.06843,-0.901646,0.156677,-0.588552,-0.0401438,-0.181651,-0.216964
-0.0687804,0.105439,1.05712,-0.841539,0.482342,-0.381702,0.0335087,-0.191631,-0.0961922
-0.0548714,0.091475,1.05163,-0.563871,0.845362,-0.069389,0.0453678,-0.180625,0.0561642
-0.0343719,0.0832199,1.05305,-0.267623,1.20586,0.227414,0.0376489,-0.187399,0.202936
-0.00819207,0.0794068,1.05916,-0.134109,1.38669,0.362717,0.0332211,-0.188819,0.305653
0.0177785,0.0769403,1.06704,-0.125477,1.23137,0.418482,0.0388851,-0.169611,0.326398
0.0386695,0.0749611,1.07702,-0.0783676,0.885752,0.578984,-0.00353237,-0.160339,0.3033
0.0517772,0.0764692,1.09058,0.197143,0.538007,0.764903,-0.0856757,-0.156592,0.243422
0.0570585,0.0847967,1.10662,0.53051,0.076031,0.83949,-0.0740957,-0.128119,0.216618
0.0511075,0.0987074,1.12259,0.729781,-0.565071,0.804534,-0.00666238,-0.101312,0.11131
0.0312257,0.113858,1.1365,0.686032,-1.17349,0.605407,0.071429,-0.0526785,-0.107331
0.00858831,0.125426,1.14582,0.408447,-0.79987,0.347304,0.088632,-0.0131779,-0.225452
0.00111083,0.129488,1.15118,-0.0110891,0.116565,0.19515,-0.0364409,0.0698002,-0.278346
0.00111083,0.129488,1.15118,-0.0110891,0.116565,0.19515,-0.0364409,0.0698002,-0.278346
0.00915334,0.126286,1.15419,-0.255433,0.62039,0.101326,-0.11815,0.0902456,-0.348688
0.0214128,0.121502,1.15487,-0.176614,0.546789,-0.0689577,-0.0323159,0.0533172,-0.377503
0.0302351,0.120603,1.15024,0.126001,0.267432,-0.412009,0.0302156,0.0512957,-0.342923
0.0354887,0.127062,1.13776,0.56519,0.145582,-0.779124,0.0505134,0.0359152,-0.27985
0.0409991,0.141531,1.11894,0.898994,0.14556,-0.991343,-0.00163738,0.0171725,-0.129849
0.0469421,0.159354,1.09738,0.912899,0.139201,-1.01821,-0.0559586,0.0161941,-7.05123e-05
0.0547196,0.174451,1.07723,0.643313,0.345226,-0.847929,-0.0704791,0.0245651,0.0983993
0.0679635,0.182381,1.06218,0.222403,0.713521,-0.579614,-0.0780154,-0.0145668,0.149464
0.0873106,0.181952,1.05183,-0.170184,0.989234,-0.47525,-0.0461942,-0.0580639,0.177286
0.111023,0.174231,1.0419,-0.497036,1.15749,-0.580431,-0.00992049,-0.0331772,0.16857
0.13395,0.161402,1.0314,-0.232048,0.822522,-0.591223,-0.0381556,0.0160493,0.155163
0.137613,0.158222,1.01951,-0.0186553,-0.461041,-0.539179,0.025591,-0.0107261,-0.0436162
0.13281,0.1552,1.00819,-0.176929,-0.13145,-0.68801,-0.0471801,-0.129769,0.0575576
0.135573,0.147147,0.990575,-0.328349,0.166995,-1.10627,-0.110367,0.0186256,-0.0887615
0.140862,0.138046,0.968312,-0.252523,-0.139369,-1.09558,-0.0508956,0.0782666,-0.127341
