rotationRate_x,rotationRate_y,rotationRate_z,acceleration_x,acceleration_y,acceleration_z,relativeAltitude
-0.650729,-0.589383,-0.0315373,0.0196845,-0.0404988,-0.132552,2.74802
0.0194431,-0.714407,0.0974038,-0.00284497,0.0466546,-0.155864,2.74802
0.476274,-0.859078,0.124186,0.0315,0.0528276,-0.0963587,2.74802
0.564416,-0.876024,0.162438,0.075431,0.00275731,-0.00953877,2.74802
0.347128,-0.658199,0.241697,0.077863,-0.0256826,0.0572511,2.74802
0.0202069,-0.29916,0.310507,0.0661774,-0.0430404,0.0701549,2.74802
-0.266254,-0.154364,0.306788,0.0710649,-0.0245686,0.0252153,2.74802
-0.479972,-0.354834,0.205199,0.0967593,0.00728902,-0.103129,2.74802
-0.479044,-0.458695,0.153189,0.0666711,0.0456187,-0.19788,2.74802
-0.228207,-0.354225,0.204472,0.0161679,0.107575,-0.239524,2.74802
0.214521,-0.103918,0.299223,-0.0200412,0.149622,-0.22478,2.74802
0.583636,0.163807,0.393382,-0.051499,0.141968,-0.149497,2.74802
0.805935,0.247346,0.452229,-0.0667902,0.102266,-0.0770475,2.74802
0.866836,0.195474,0.457178,-0.0755901,0.0719078,0.0054993,2.74802
0.819129,0.0281973,0.444388,-0.0901231,0.0452951,0.0529587,2.74802
0.784786,-0.197012,0.405043,-0.114552,0.0397222,0.0793106,2.74802
0.771048,-0.37842,0.360606,-0.142391,0.0509918,0.098022,2.74802
0.734909,-0.541195,0.305478,-0.159668,0.0673379,0.101545,2.74802
0.636111,-0.599124,0.210557,-0.174107,0.0904414,0.102597,2.74802
0.478781,-0.513492,-0.0654935,-0.164576,0.137757,0.107367,2.74802
0.359013,-0.237001,-0.543122,-0.144253,0.167481,0.13039,2.74802
0.296242,0.107655,-0.999924,-0.148877,0.169932,0.161178,2.74802
0.297766,0.375214,-1.30825,-0.139,0.187253,0.200437,2.74802
0.37234,0.4555,-1.42828,-0.0920441,0.192477,0.248038,2.74802
0.55443,0.469703,-1.34803,-0.0237413,0.173351,0.311108,2.74802
0.72363,0.441549,-1.13076,0.0299142,0.139689,0.37124,2.74802
0.805504,0.421519,-0.858152,0.0736191,0.107064,0.420744,2.74802
0.683414,0.288539,-0.648979,0.107101,0.0538489,0.451128,2.74802
0.422739,-0.0255448,-0.583468,0.153487,0.0147699,0.43152,2.74802
0.1167,-0.425493,-0.525939,0.164546,0.00350711,0.39362,2.74802
-0.106745,-0.875782,-0.474919,0.142657,0.0147576,0.324968,2.74802
-0.111142,-1.22718,-0.511104,0.143768,0.0524541,0.245589,2.74802
0.0310558,-1.17679,-0.442162,0.157392,0.0234658,0.189546,2.74802
0.140372,-0.952172,-0.283843,0.170924,-0.10035,0.080865,2.74802
-0.0188104,-0.781307,-0.271228,0.192323,-0.173324,-0.0409779,2.74802
-0.657244,-0.745702,-0.354167,0.110882,-0.0986788,-0.183452,2.74802
-1.75098,-0.409754,-0.287067,0.0660232,-0.133157,-0.320823,2.74802
-2.68824,-0.413471,-0.349091,0.0842076,-0.227247,-0.614136,2.74802
-2.80816,-0.230386,-0.38776,-0.100336,0.202634,-0.691563,2.74802
-2.13553,0.207102,0.144307,-0.165572,0.246754,-0.729923,2.74802
-0.792927,0.665851,0.938289,-0.087552,0.0558698,-0.618443,2.74802
0.439384,0.499128,1.39953,-0.0759098,-0.0786129,-0.479089,2.74802
0.878064,-0.0901004,1.27349,-0.14143,-0.112568,-0.341129,2.74802
0.807814,-0.583273,0.674887,-0.19964,-0.173998,-0.188834,2.74802
0.580474,-0.609389,-0.12378,-0.212715,-0.188278,-0.0225006,2.74802
0.396951,-0.166283,-0.739488,-0.187061,-0.147268,0.120603,2.74802
0.329978,0.396422,-1.03048,-0.118445,-0.103458,0.220248,2.74802
0.299412,0.766838,-1.08556,-0.0420688,-0.0712354,0.291414,2.74802
0.264338,0.764315,-0.982775,0.0272991,-0.0512406,0.32149,2.74802
0.281108,0.495741,-0.733331,0.0870919,-0.0450851,0.342934,2.74802
0.31902,0.175801,-0.344567,0.137301,-0.0641958,0.360862,2.74802
0.282614,-0.0750461,0.0683708,0.160827,-0.0593677,0.363916,2.74802
0.199661,-0.200278,0.391729,0.14551,-0.0427976,0.339189,2.74802
0.199661,-0.200278,0.391729,0.14551,-0.0427976,0.339189,0
0.139178,-0.29421,0.514566,0.104531,-0.0487488,0.289087,0
0.207217,-0.39393,0.357239,0.0740856,-0.0739279,0.22589,0
0.406326,-0.465916,-0.0517393,0.0461279,-0.0461258,0.182546,0
0.550175,-0.370107,-0.337064,0.043662,-0.0152138,0.196968,0
0.481369,-0.187628,-0.372024,0.0344299,-0.00790036,0.206631,0
0.259898,0.179649,-0.409809,0.000118606,0.0371953,0.181774,0
0.213574,0.697569,-0.435778,-0.0128491,0.080192,0.122861,0
0.365161,0.974436,-0.274875,0.0121779,0.0341162,0.0439782,0
0.360539,0.732195,-0.133803,0.0469933,0.00223964,-0.060182,0
-0.074902,0.0894829,-0.313014,0.03807,0.0861276,-0.178185,0
-0.685549,-0.169021,-0.430643,0.0718808,0.184358,-0.246594,0
-1.24446,-0.0460401,-0.0268956,0.131644,0.0256124,-0.303966,0
-2.00283,0.245929,0.301081,0.0481137,0.10489,-0.339658,0
-2.5829,0.809921,0.146948,-0.0358026,0.163767,-0.377134,0
-2.34356,1.08189,-0.256257,0.0213894,0.102749,-0.437782,0
-1.62842,0.713985,-0.304571,0.118379,-0.0252073,-0.458287,0
-0.967914,0.0963394,0.143881,0.160875,-0.147061,-0.383097,0
-0.406147,-0.389502,0.737746,0.140565,-0.251568,-0.293709,0
0.152244,-0.523322,0.972763,-0.0122161,-0.222657,-0.179227,0
0.596158,-0.382955,0.70035,-0.148136,-0.159222,-0.060739,0
0.921728,-0.129499,0.0956201,-0.222612,-0.0885643,0.0488182,0
1.0948,0.139292,-0.468103,-0.220248,-0.0410024,0.153439,0
1.19195,0.300635,-0.799178,-0.178988,0.016693,0.232252,0
1.27396,0.361166,-0.960224,-0.129751,0.094663,0.290707,0
1.33303,0.28181,-1.02879,-0.0954379,0.177091,0.326722,0
1.39034,0.144298,-1.05153,-0.0661539,0.251845,0.352121,0
1.41692,-0.017687,-0.992884,-0.0344413,0.316709,0.370503,0
1.36258,-0.120637,-0.833923,-0.000809461,0.35576,0.390925,0
1.14439,-0.144666,-0.509093,0.0339097,0.347224,0.411913,0
0.788571,-0.208952,-0.0294193,0.06712,0.281705,0.39604,0
0.328876,-0.352285,0.325388,0.0570387,0.239035,0.323618,0
-0.260334,-0.501904,0.34454,0.0318988,0.251037,0.195265,0
-0.84831,-0.394795,0.141515,0.08272,0.183618,0.088352,0
-1.31408,-0.148039,-0.0673132,0.200396,0.0349889,-0.0363148,0
-1.64986,0.1049,-0.278017,0.326225,-0.0879786,-0.163421,0
-2.02113,0.32455,-0.219957,0.351412,-0.0945331,-0.22583,0
-2.31511,0.26743,0.369598,0.387446,-0.132173,-0.330545,0
-2.37028,-0.253826,1.24038,0.436884,-0.275532,-0.520199,0
-2.34632,-0.651092,1.8603,0.240141,-0.122829,-0.593758,0
-2.06195,-0.649206,2.23703,-0.0355967,0.000702307,-0.613338,0
-1.11449,-0.150125,2.13812,-0.277975,0.0698536,-0.586158,0
-0.0559108,0.239361,1.60758,-0.329963,0.0277078,-0.490312,0
0.523115,0.200228,1.11613,-0.266208,-0.0703862,-0.330207,0
0.711193,0.140296,0.815738,-0.21742,-0.106075,-0.116802,0
0.749265,0.182574,0.750426,-0.177252,-0.148214,0.0439041,0
0.881546,0.325322,0.736951,-0.161204,-0.172966,0.158274,0
1.13202,0.415074,0.592689,-0.147148,-0.136715,0.242477,0
1.41312,0.321786,0.342277,-0.110767,-0.110186,0.296367,0
1.58864,0.122692,0.0485162,-0.0568444,-0.0821365,0.344739,0
1.53992,-0.0722024,-0.186844,0.00133947,-0.0692859,0.395577,0
1.29652,-0.159867,-0.305171,0.0493442,-0.0552697,0.423744,0
0.917435,-0.227126,-0.287847,0.0562941,-0.0117176,0.413315,0
0.917435,-0.227126,-0.287847,0.0562941,-0.0117176,0.413315,0
0.51229,-0.375734,-0.142494,0.0564802,0.039607,0.358662,0
0.33533,-0.465612,0.1309,0.0174636,0.0921153,0.267034,0
0.639466,-0.489735,0.430267,-0.0498574,0.166488,0.158157,0
1.23384,-0.477287,0.657383,-0.0832655,0.202011,0.0903662,0
1.75112,-0.373709,0.771786,-0.140657,0.240886,0.0797309,0
2.04243,-0.146253,0.735029,-0.179,0.251955,0.112281,0
1.95987,0.25322,0.742059,-0.131816,0.129629,0.125519,0
1.37562,0.625793,0.7674,-0.0344216,-0.116969,0.0884432,0
0.114081,0.368301,0.501397,-0.0114158,-0.201963,-0.0719229,0
-1.22608,-0.0912838,-0.142454,-0.0691689,-0.108367,-0.253044,0
-1.58129,-0.389731,-0.844799,-0.0576673,-0.0831196,-0.422333,0
-1.50499,-0.696423,-1.1593,0.00934853,-0.118978,-0.526808,0
-1.70324,-0.838566,-1.20532,0.00608934,0.0203913,-0.533084,0
-1.75219,-0.415856,-0.949557,-0.00369012,0.0823233,-0.431348,0
-1.35344,0.0246613,-0.53584,0.047636,0.00922048,-0.345914,0
-0.931131,0.0333529,-0.247923,0.118849,-0.0826395,-0.246685,0
-0.736575,-0.326281,-0.108478,0.123219,-0.121054,-0.149368,0
-0.617397,-0.765382,-0.0371054,0.115923,-0.117148,-0.0592583,0
-0.448553,-1.09329,0.0984295,0.112752,-0.114158,0.0148762,0
-0.218558,-1.22306,0.286149,0.088268,-0.0867994,0.0815082,0
0.0476752,-1.13235,0.393732,0.0556349,-0.0647259,0.149672,0
0.34279,-0.92171,0.385687,0.0407733,-0.0508136,0.21085,0
0.656709,-0.660439,0.280088,0.0361248,-0.030216,0.266034,0
0.867125,-0.412844,0.127582,0.0419475,-0.00289723,0.32569,0
0.94561,-0.232405,-0.0193575,0.0672904,0.0207177,0.368339,0
0.977789,-0.113309,-0.158677,0.0888524,0.0467382,0.395624,0
0.99131,-0.0275404,-0.272866,0.100458,0.0825814,0.418116,0
0.986138,0.0587914,-0.373347,0.114458,0.104831,0.419364,0
0.979847,0.230464,-0.4558,0.132112,0.113213,0.418463,0
0.830581,0.421682,-0.488069,0.139097,0.101543,0.414379,0
0.524905,0.510045,-0.493051,0.14688,0.0680788,0.356919,0
0.296992,0.405664,-0.534657,0.126135,0.0757204,0.245862,0
0.222338,0.153071,-0.499245,0.10921,0.0631685,0.117262,0
0.308345,0.0648566,-0.338376,0.11086,-0.0293459,-0.00151545,0
0.27286,0.0176043,-0.230695,0.107332,-0.126772,-0.099444,0
-0.414184,-0.294101,-0.275419,0.0784611,-0.170789,-0.284935,0
-1.19343,-0.576373,-0.522872,0.0069702,-0.156654,-0.462783,0
-1.57847,-0.524215,-0.719428,-0.0558689,-0.134913,-0.616877,0
-1.86172,-0.295522,-0.757154,-0.079036,-0.155838,-0.755497,0
-2.0772,0.0534365,-0.599378,-0.146069,-0.00675869,-0.853921,0
-1.81893,0.546908,-0.138551,-0.215671,0.0689059,-0.870669,0
-0.916881,1.09096,0.389278,-0.221535,0.0508614,-0.722499,0
0.0455104,1.33541,0.721835,-0.196166,-0.0249261,-0.448984,0
0.525841,1.24747,0.76062,-0.175677,-0.0680198,-0.163218,0
0.587169,1.05747,0.571731,-0.162366,-0.0922507,0.0929749,0
0.435313,0.817448,0.319949,-0.137109,-0.0995739,0.279476,0
0.240058,0.514031,0.154875,-0.105452,-0.0937189,0.383978,0
0.114125,0.168958,0.115666,-0.081318,-0.0820078,0.441945,0
0.118815,-0.157485,0.132579,-0.0615767,-0.0646498,0.470989,0
0.179077,-0.411381,0.129985,-0.0424089,-0.0508408,0.492795,0
0.195457,-0.556148,0.0745073,-0.0260978,-0.0435723,0.506217,0
0.195457,-0.556148,0.0745073,-0.0260978,-0.0435723,0.506217,0
0.151057,-0.520214,-0.0177965,0.000332095,-0.0512332,0.508213,0
0.0729686,-0.34304,-0.0615533,0.0364881,-0.0718978,0.489419,0
0.0140621,-0.165351,-0.0700661,0.0548335,-0.0651349,0.440075,0
-0.0892208,-0.131131,-0.0204,0.0533554,-0.0165195,0.365452,0
-0.115738,-0.197768,0.0815292,0.03813,0.0390655,0.2797,0
0.0546673,-0.313346,0.242554,0.0132951,0.0902669,0.194238,0
0.535125,-0.255889,0.427982,-0.0171353,0.134597,0.133751,0
1.08292,0.216494,0.585404,-0.027795,0.0764933,0.121735,0
0.996581,0.931704,0.645217,0.0296858,-0.121107,0.089307,0
-0.0533276,1.21671,0.392873,0.0500423,-0.271411,-0.048436,0
-1.37657,0.82926,-0.607208,-0.074114,-0.0716012,-0.441113,0
-1.54562,0.760525,-1.63131,-0.0934837,0.0327062,-0.670093,0
-1.02677,1.16911,-1.97899,-0.0307552,0.0769892,-0.781709,0
-0.701349,1.64058,-1.91227,-0.0379177,0.122119,-0.679629,0
-0.814048,1.58057,-1.91437,-0.0197213,0.127171,-0.55191,0
-0.858065,1.03344,-1.94251,-0.020906,0.127533,-0.414515,0
-0.554375,0.198177,-1.80733,-0.0278025,0.114697,-0.285544,0
-0.108752,-0.547937,-1.43196,-0.0232235,0.0442647,-0.116667,0
0.260188,-1.06833,-0.966736,-0.00176063,-0.0564977,0.0640448,0
0.424197,-1.47575,-0.602486,-0.000133559,-0.122819,0.208862,0
0.512531,-1.82651,-0.404453,-0.0311891,-0.131328,0.309355,0
0.642142,-2.04814,-0.391582,-0.0494154,-0.134568,0.386986,0
0.770202,-2.12988,-0.506821,-0.0441697,-0.138932,0.444994,0
0.881141,-2.03669,-0.697557,-0.036305,-0.157002,0.487018,0
1.0538,-1.89418,-0.954552,-0.0465503,-0.132364,0.504417,0
1.21596,-1.79107,-1.25045,-0.0773523,-0.0714288,0.510703,0
1.11062,-1.61414,-1.58464,-0.0995269,0.00634918,0.527254,0
0.786088,-1.23872,-1.93264,-0.0975211,0.0757026,0.530071,0
0.429823,-0.67997,-2.17286,-0.0837957,0.127528,0.49493,0
0.0764426,-0.200332,-2.21494,-0.0864974,0.175263,0.354926,0
-0.0523182,0.321369,-2.19236,-0.0851886,0.168305,0.157573,0
-0.150887,0.340954,-2.17044,-0.0278039,0.0189411,-0.141316,0
-0.891906,-0.90779,-2.67287,-0.0898912,0.0914604,-0.674355,0
-1.41135,-1.45789,-3.41784,-0.186973,0.343455,-0.994135,0
-1.04699,-0.422021,-3.31291,-0.215245,0.386373,-1.06081,0
-0.893619,0.50709,-2.59078,-0.148347,0.154994,-1.10304,0
-1.48943,0.686177,-2.19812,-0.123795,0.142834,-1.03993,0
-1.62001,0.690671,-1.89169,-0.141772,0.0543279,-0.935424,0
-0.850914,0.593726,-1.34834,-0.0781286,-0.0237375,-0.764562,0
0.0751438,0.384232,-0.530401,-0.0449683,-0.169165,-0.453753,0
0.490545,-0.0392611,0.0742609,-0.0180673,-0.245381,-0.171352,0
0.422936,-0.465831,0.345701,-0.0781334,-0.257659,0.057835,0
0.228565,-0.952431,0.18397,-0.118634,-0.271999,0.165877,0
0.125226,-1.4481,-0.282268,-0.112694,-0.288741,0.209128,0
0.0446768,-1.72693,-0.850494,-0.0960651,-0.250309,0.215175,0
-0.0395623,-1.54713,-1.30212,-0.0728041,-0.188892,0.229903,0
-0.0619526,-1.01823,-1.55654,-0.0376708,-0.127664,0.204616,0
0.109216,-0.405069,-1.64285,-0.00182416,-0.0684733,0.152245,0
0.379873,0.016652,-1.56336,0.0261149,-0.0283914,0.111171,0
0.531566,0.218438,-1.37772,0.0530929,-0.0432005,0.102199,0
0.542163,0.296275,-1.31445,0.0470282,-0.0583602,0.127201,0
0.381115,0.319097,-1.39147,0.0334929,-0.0430355,0.138625,0
0.381115,0.319097,-1.39147,0.0334929,-0.0430355,0.138625,0
0.195614,0.299699,-1.47667,0.0255128,-0.0503078,0.113489,0
0.119173,0.402299,-1.44435,0.017773,-0.053996,0.0920635,0
0.0303622,0.645605,-1.32486,0.0168419,-0.0617693,0.0655713,0
-0.0375708,0.971732,-1.20815,-0.00308817,-0.0657354,0.0595046,0
-0.00331427,1.11074,-1.1348,-0.00579651,-0.068028,0.0352895,0
0.0574304,0.984483,-0.997038,0.00843798,-0.118957,0.018345,0
0.16354,0.702924,-0.817241,-0.00775956,-0.134959,0.0165976,0
0.222066,0.506671,-0.562849,-0.0171542,-0.158638,0.0109815,0
0.365216,0.396226,-0.261536,-0.032391,-0.213454,0.0137712,0
0.482589,-0.0662471,-0.192457,-0.0506833,-0.246782,-0.0761438,0
0.53894,-0.510002,-0.438541,-0.0903236,-0.167959,-0.156403,0
0.515207,-0.7739,-0.805083,-0.0950954,-0.0757655,-0.257242,0
0.535782,-0.512094,-0.936468,-0.0811193,0.0275595,-0.274829,0
0.743091,0.0396747,-0.810867,-0.0378447,0.110411,-0.261275,0
1.02139,0.480094,-0.602203,-0.000251949,0.168501,-0.219662,0
1.06606,0.264982,-0.518664,0.0464687,0.206239,-0.235644,0
0.902565,-0.184192,-0.55672,0.0711316,0.248446,-0.246711,0
0.66288,-0.407219,-0.550584,0.0633016,0.316458,-0.229607,0
0.457621,-0.288469,-0.434685,0.0457229,0.366262,-0.179862,0
0.345566,0.037761,-0.185885,0.0249412,0.394491,-0.105806,0
0.351016,0.355793,0.153688,0.00849728,0.392892,-0.00752413,0
0.383981,0.389717,0.476651,0.0072197,0.337689,0.0835223,0
0.337171,0.140246,0.717921,-0.00524211,0.279754,0.158938,0
0.239713,-0.261384,0.847718,-0.0327704,0.226336,0.204583,0
0.139445,-0.665857,0.810666,-0.0550759,0.200055,0.232207,0
0.0134363,-1.00296,0.664404,-0.0715311,0.189167,0.24026,0
-0.089247,-1.07578,0.4974,-0.069684,0.18203,0.241858,0
-0.122023,-0.923139,0.360679,-0.0678763,0.161402,0.240308,0
-0.208919,-0.778066,0.264697,-0.0593916,0.123937,0.219086,0
-0.321938,-0.74246,0.148585,-0.0654634,0.101112,0.185828,0
-0.397697,-0.797872,-0.0334075,-0.0769818,0.0853371,0.143299,0
-0.388766,-0.790049,-0.228196,-0.068697,0.0628912,0.121724,0
-0.268735,-0.612519,-0.381226,-0.0621455,0.0297777,0.138473,0
-0.121187,-0.353607,-0.506701,-0.0506471,0.00442111,0.179023,0
-0.0396817,-0.0982348,-0.579095,-0.0176164,-0.0242845,0.239474,0
-0.0314391,0.0604594,-0.602355,0.0340406,-0.0742477,0.296324,0
-0.0559361,0.0733604,-0.585589,0.0663453,-0.0908694,0.338394,0
-0.0540457,-0.0130221,-0.512202,0.079827,-0.0846133,0.364567,0
0.0276524,-0.0911579,-0.411038,0.0901157,-0.0846211,0.38042,0
0.136379,-0.183425,-0.318145,0.102948,-0.0842868,0.386998,0
0.19477,-0.334809,-0.229975,0.121934,-0.078015,0.361333,0
0.165069,-0.48397,-0.137569,0.119668,-0.0635512,0.319471,0
0.0739121,-0.590062,-0.0701015,0.130627,-0.0419795,0.228288,0
0.155326,-0.489672,0.120638,0.123026,-0.0318491,0.123885,0
0.411078,-0.123404,0.447604,0.109889,-0.0803479,0.0271712,0
0.362046,0.258342,0.687785,0.105557,-0.150761,-0.074707,0
-0.30974,0.171879,0.553679,0.0320576,-0.161135,-0.28226,0
-0.944603,-0.173921,-0.186194,-0.0363611,-0.088781,-0.533617,0
-0.920809,-0.058708,-0.677339,-0.0486658,-0.144223,-0.681687,0
-0.813936,0.0438694,-0.904184,-0.0593381,-0.156835,-0.810392,0
-0.80823,-0.226941,-0.696994,-0.202361,0.0704209,-0.83205,0
-0.80823,-0.226941,-0.696994,-0.202361,0.0704209,-0.83205,0
-0.196265,-0.234004,-0.0338578,-0.294682,0.0135175,-0.725808,0
0.905521,-0.0894185,0.474359,-0.281759,-0.0740928,-0.530562,0
1.47691,-0.21876,0.674068,-0.266503,-0.158549,-0.33181,0
1.38792,-0.365211,0.558326,-0.232761,-0.180036,-0.141332,0
1.12192,-0.419521,0.282628,-0.153077,-0.203862,0.0170469,0
0.904774,-0.486656,0.0328811,-0.0416236,-0.194508,0.0992335,0
0.755136,-0.510549,-0.0659597,0.0663783,-0.124477,0.153714,0
0.656179,-0.481372,-0.053791,0.155751,-0.0513025,0.201138,0
0.632633,-0.406794,0.0331807,0.225256,-0.0018647,0.24332,0
0.661095,-0.149277,0.131927,0.279074,0.0136821,0.301187,0
0.641787,0.184947,0.0832066,0.349226,-0.0320814,0.350741,0
0.56513,0.323024,-0.15783,0.395068,-0.010891,0.344097,0
0.508314,0.376452,-0.382746,0.360868,0.111096,0.346881,0
0.394979,0.406786,-0.505712,0.29613,0.221261,0.354297,0
0.242187,0.488505,-0.381179,0.220033,0.297649,0.357557,0
0.196728,0.614204,0.0942221,0.120392,0.333787,0.322757,0
0.443145,0.831036,0.701874,0.00444603,0.340289,0.248597,0
0.99671,1.22149,1.11687,-0.0942757,0.302866,0.172053,0
1.55826,1.48363,1.20491,-0.108956,0.117842,0.114498,0
1.19214,0.412063,0.671361,-0.136945,0.0367904,-0.148097,0
0.218783,-0.762146,-0.369651,-0.222119,0.19699,-0.279163,0
-0.675981,-0.685955,-1.06466,-0.213775,0.094065,-0.232119,0
-1.58831,0.20281,-1.25439,-0.181175,-0.0720745,-0.234037,0
-2.46219,1.33874,-1.45882,-0.187144,0.0787054,-0.241627,0
-2.85464,2.15855,-1.49885,-0.0146304,-0.0801557,-0.280964,0
-2.55324,1.99106,-1.0951,0.285127,-0.378729,-0.37865,0
-2.00416,0.837317,-0.0718574,0.404743,-0.597265,-0.469992,0
-1.46521,-0.435053,0.643983,0.273279,-0.476836,-0.500956,0
-0.851579,-1.13481,0.496129,0.129181,-0.367357,-0.521024,0
-0.340727,-0.884695,-0.209376,-0.0197806,-0.188359,-0.451274,0
-0.0437847,-0.160808,-0.799087,-0.0587668,-0.0890714,-0.328189,0
0.138062,0.476991,-0.990853,-0.0136446,-0.0333121,-0.189717,0
0.310862,0.809865,-0.796281,0.0293017,-0.0154791,-0.0600159,0
0.604441,0.809739,-0.414884,0.0413019,-0.00566366,0.0428745,0
1.01136,0.665789,-0.129056,0.00127922,0.0603232,0.151724,0
1.39135,0.486411,-0.0507184,-0.0563114,0.143055,0.252685,0
1.61018,0.313646,-0.119796,-0.0956593,0.203874,0.349901,0
1.61568,0.195818,-0.253471,-0.123572,0.265199,0.42963,0
1.46502,0.146039,-0.378114,-0.133947,0.305035,0.494391,0
1.16748,0.153114,-0.464457,-0.131496,0.329473,0.527284,0
0.760422,0.23194,-0.472243,-0.111909,0.31543,0.550468,0
0.268108,0.291328,-0.448838,-0.094061,0.288635,0.545722,0
-0.267668,0.229838,-0.426008,-0.0833437,0.290159,0.507575,0
-0.660448,0.0991427,-0.363326,-0.064506,0.272661,0.458429,0
-0.787201,-0.0528203,-0.229064,-0.0331143,0.237739,0.39485,0
-0.684366,-0.151082,-0.0354136,-0.0105489,0.202688,0.320369,0
-0.328927,-0.0739048,0.227836,0.0244285,0.130314,0.247924,0
0.246158,0.148791,0.409212,0.0968502,-0.0540113,0.164297,0
0.63449,-0.0297228,-0.0308598,0.193988,-0.14904,0.0385017,0
0.396774,-0.604995,-0.67484,0.196306,-0.0478161,-0.0809964,0
-0.576827,-0.707431,-0.49635,0.191584,-0.0188931,-0.0981455,0
-1.80132,-0.801993,0.242107,0.295511,-0.177617,-0.231233,0
-1.80132,-0.801993,0.242107,0.295511,-0.177617,-0.231233,0
-2.9811,-0.995159,1.05546,0.159814,0.0323142,-0.364615,0
-3.68879,-1.14725,1.72786,-0.0469434,0.100133,-0.55776,0
-3.06567,-1.37297,1.7905,-0.132879,0.103411,-0.707132,0
-1.63799,-1.75255,1.51201,-0.099948,-0.0523798,-0.757854,0
-0.722041,-2.24379,1.236,-0.130843,-0.0035245,-0.646525,0
-0.333065,-2.36008,1.02452,-0.210848,0.03041,-0.447406,0
-0.136683,-1.76984,0.722323,-0.218269,-0.024665,-0.24783,0
-0.0171477,-0.770383,0.422211,-0.190962,-0.0895568,-0.101037,0
0.102016,0.267554,0.28075,-0.188917,-0.086885,0.0454495,0
0.175401,0.920559,0.338288,-0.160439,-0.0811617,0.177868,0
0.210688,0.988836,0.444051,-0.102942,-0.111062,0.254711,0
0.196296,0.699271,0.441574,-0.0598999,-0.120699,0.313065,0
0.131508,0.251853,0.291281,-0.0252346,-0.105349,0.320575,0
0.0940781,-0.120071,0.139486,-0.00506682,-0.0899931,0.339065,0
0.108545,-0.338698,0.05862,0.0374095,-0.0682966,0.312968,0
0.193942,-0.377523,0.149926,0.0647934,-0.0581742,0.298587,0
0.23123,-0.516197,0.308102,0.0914993,-0.0427784,0.231645,0
0.390932,-0.614741,0.492707,0.103256,-0.0282633,0.162233,0
0.631202,-0.604034,0.641841,0.0773961,0.000721961,0.142729,0
0.774699,-0.534326,0.685642,0.0598702,0.0421762,0.150692,0
0.797937,-0.433213,0.657138,0.0462024,0.0892473,0.176229,0
0.814435,-0.269372,0.598799,0.0375957,0.144917,0.209484,0
0.886495,0.0963908,0.670068,0.0519674,0.134083,0.273861,0
0.848267,0.597577,0.93139,0.079389,0.0205292,0.316404,0
0.672976,0.852909,1.27923,0.126478,-0.185126,0.268139,0
0.0694555,0.228971,1.03973,0.0909724,-0.221328,0.0369755,0
-1.27999,-0.949885,0.0159412,0.00246732,-0.0351896,-0.318428,0
-2.24999,-1.45968,-0.884319,-0.0485806,-0.0593184,-0.50096,0
-2.67774,-1.30378,-1.42064,-0.0534552,0.00935356,-0.707088,0
-2.98199,-0.514618,-1.54541,-0.140773,0.275939,-0.835127,0
-2.79754,0.529452,-1.13003,-0.175947,0.318237,-0.828288,0
-1.82013,1.37367,-0.412184,-0.0992129,0.137106,-0.652841,0
-0.713586,1.45636,0.210637,-0.00331828,-0.0394779,-0.452662,0
-0.0286757,0.9128,0.560077,0.018904,-0.154158,-0.238808,0
0.330803,0.101736,0.644072,-0.0215556,-0.215876,-0.0651835,0
0.567262,-0.578346,0.519256,-0.0600847,-0.245127,0.0789846,0
0.765954,-0.982152,0.270022,-0.0848191,-0.22891,0.18211,0
0.938779,-1.08043,-0.00191425,-0.0850539,-0.185111,0.249758,0
1.17272,-0.920653,-0.251411,-0.0728354,-0.135922,0.273315,0
1.482,-0.663346,-0.449928,-0.0577588,-0.0755356,0.278421,0
1.74501,-0.429196,-0.606315,-0.0520774,-0.000213504,0.286245,0
1.89167,-0.264264,-0.773685,-0.0396798,0.0816838,0.292808,0
1.91061,-0.111719,-0.953032,-0.0282855,0.152199,0.307784,0
1.77408,0.106638,-1.13829,-0.012443,0.211945,0.339178,0
1.40586,0.22615,-1.29304,-0.00627539,0.262089,0.341505,0
0.812439,0.111897,-1.44272,-0.000707716,0.315022,0.289055,0
0.102807,-0.0106054,-1.56456,0.0104054,0.342987,0.244285,0
-0.256566,-0.0359795,-1.52051,0.0614972,0.266064,0.225306,0
-0.281372,-0.246784,-1.37311,0.0974342,0.0704909,0.160444,0
-0.281372,-0.246784,-1.37311,0.0974342,0.0704909,0.160444,0
-0.319619,-0.486898,-1.64275,0.132059,0.00989389,0.00337946,0
-0.548401,-0.650964,-2.00847,0.0344084,0.0048191,-0.0731665,0
-1.17782,-0.597734,-2.20726,-0.0643752,0.0318421,-0.139332,0
-1.91385,-0.144052,-2.13341,-0.00818996,-0.206966,-0.163435,0
-2.8123,0.371365,-1.96257,0.0322242,-0.280169,-0.257324,0
-3.70173,0.882557,-1.35558,-0.0709077,-0.0760979,-0.385162,0
-3.71413,1.14605,-0.2989,-0.14535,-0.0251442,-0.604796,0
-2.2419,1.43092,0.82546,-0.263873,-0.111183,-0.612029,0
-0.248061,1.42666,1.24716,-0.348581,-0.100532,-0.497135,0
0.99888,0.899078,0.883667,-0.325368,-0.129049,-0.336806,0
1.25059,0.162246,0.0371737,-0.237185,-0.196131,-0.141006,0
0.967591,-0.193614,-0.802436,-0.16317,-0.227672,0.0996197,0
0.615322,-0.121329,-1.31248,-0.0769936,-0.239173,0.28223,0
0.314972,0.0511744,-1.49104,0.0161258,-0.260471,0.35475,0
0.0635493,0.212943,-1.58974,0.0796163,-0.242177,0.370001,0
-0.0729146,0.330325,-1.79266,0.104709,-0.186587,0.36393,0
-0.0669087,0.376122,-2.05727,0.138381,-0.159539,0.355081,0
0.0418874,0.35107,-2.31102,0.166336,-0.134458,0.335824,0
0.214415,0.284606,-2.41376,0.215706,-0.107806,0.303584,0
0.496152,0.214616,-2.18275,0.259293,-0.0885877,0.258765,0
0.80622,0.0954895,-1.5978,0.265999,-0.0596155,0.206399,0
1.07966,-0.00333554,-0.739121,0.228331,-0.0276655,0.151155,0
1.30883,0.0851789,0.159088,0.106653,0.0296874,0.084852,0
1.38669,0.425888,0.793596,-0.0391187,0.0284448,0.00434452,0
1.10468,0.517097,0.915997,-0.105684,-0.0230964,-0.193902,0
0.604447,0.183042,0.445192,-0.213732,-0.0278384,-0.475223,0
0.155216,-0.082849,-0.4396,-0.369999,0.072149,-0.659334,0
-0.386992,-0.3226,-1.33301,-0.400684,0.0661107,-0.812301,0
-0.99082,-0.740133,-2.0902,-0.400264,0.157252,-1.03918,0
-0.996777,-0.738234,-2.48416,-0.46791,0.423188,-1.06108,0
-0.362824,-0.508423,-2.2914,-0.430032,0.522583,-0.913478,0
0.547816,-0.502044,-1.5023,-0.301925,0.448213,-0.641385,0
1.40288,-0.725596,-0.420063,-0.188189,0.173757,-0.341097,0
1.8339,-1.06331,0.150254,-0.119496,0.0329783,-0.0933204,0
1.78759,-1.41557,0.00037151,-0.102169,0.0314448,0.0219578,0
1.61766,-1.56346,-0.48802,-0.124958,0.0942609,0.156121,0
1.48252,-1.59208,-0.91127,-0.117739,0.154326,0.261886,0
1.41458,-1.6999,-1.12475,-0.0447627,0.173801,0.323055,0
1.42363,-1.77141,-1.14375,0.0291372,0.199515,0.359024,0
1.47349,-1.70918,-1.04682,0.0653494,0.237569,0.396606,0
1.43966,-1.6421,-0.942908,0.0999045,0.257519,0.379047,0
1.31306,-1.51879,-0.89897,0.137971,0.249841,0.368135,0
0.914421,-1.33508,-0.932546,0.152287,0.204896,0.327538,0
0.296258,-0.991373,-1.17084,0.110937,0.217225,0.268884,0
-0.43123,-0.885041,-1.75494,0.0879678,0.249632,0.173841,0
-1.0761,-0.917927,-2.54536,0.0939804,0.310451,0.112256,0
-1.23527,-0.802877,-3.03013,0.079131,0.37873,0.0724086,0
-1.01231,-0.495225,-2.91676,0.107639,0.312336,0.0636329,0
-1.01231,-0.495225,-2.91676,0.107639,0.312336,0.0636329,0
-1.04469,-0.329913,-2.68444,0.144409,0.18806,0.00281703,0
-1.41471,-0.405656,-2.84041,0.119182,0.233542,-0.0533536,0
-1.8071,-0.513884,-3.00251,0.0485347,0.227959,-0.0896809,0
-1.95585,-0.514385,-2.89368,0.00744541,0.135969,-0.127576,0
-1.838,-0.528782,-2.57214,0.0393056,0.00391206,-0.203839,0
-1.60111,-0.572845,-2.06467,0.0850966,-0.106564,-0.286444,0
-1.36733,-0.528287,-1.24874,0.0723584,-0.157727,-0.348848,0
-1.11179,-0.514112,-0.174402,-0.0220523,-0.18931,-0.398688,0
-0.634661,-0.511515,0.45333,-0.209224,-0.155664,-0.442708,0
0.0197352,-0.303859,0.187994,-0.331492,-0.0675877,-0.392465,0
0.510324,-0.00408322,-0.472674,-0.321794,-0.0937102,-0.243647,0
0.658104,0.425041,-1.08539,-0.236739,-0.1288,-0.0265433,0
0.535265,0.936904,-1.39295,-0.143757,-0.127687,0.191681,0
0.243411,1.35233,-1.46041,-0.0558091,-0.136245,0.335842,0
-0.125491,1.5362,-1.43685,0.0124938,-0.167077,0.403603,0
-0.481551,1.50384,-1.47615,0.0535292,-0.185605,0.427576,0
-0.741575,1.11902,-1.58108,0.0886882,-0.198053,0.366691,0
-0.84091,0.46185,-1.66819,0.120473,-0.200232,0.288302,0
-0.889317,-0.292395,-1.69635,0.154528,-0.18686,0.217931,0
-0.880431,-0.936399,-1.57131,0.187312,-0.156144,0.0795947,0
-0.73032,-1.20651,-1.26659,0.208391,-0.135369,-0.0193055,0
-0.574588,-1.13899,-0.836903,0.207977,-0.119189,-0.108144,0
-0.282501,-0.781001,-0.442773,0.16067,-0.0862756,-0.189885,0
0.213995,-0.264871,-0.180165,0.0955571,-0.0434766,-0.20413,0
0.747435,0.284708,0.0116044,0.0548172,-0.0125128,-0.153203,0
1.15966,0.728876,0.249802,0.0360764,-0.0274611,-0.00485581,0
1.34065,0.981949,0.517159,0.0286836,-0.0537996,0.140945,0
1.39911,1.03775,0.695443,0.0126587,-0.0683538,0.255081,0
1.3615,0.926507,0.736525,-0.00430802,-0.0785474,0.326369,0
1.23109,0.739087,0.650001,-0.0250587,-0.0756336,0.367198,0
1.05475,0.57957,0.511615,-0.0427695,-0.0706597,0.391004,0
0.884194,0.389299,0.379667,-0.0438994,-0.0612676,0.382071,0
0.801699,0.213669,0.334629,-0.0447511,-0.0447023,0.34936,0
0.807185,0.0333795,0.381806,-0.0318347,-0.0334744,0.272876,0
0.959268,0.0656797,0.513771,-0.0351039,-0.0149229,0.220918,0
1.10339,0.306415,0.60406,0.00763515,-0.0654078,0.174685,0
0.902182,0.713263,0.57545,0.148633,-0.231786,0.0901766,0
0.0894139,0.655318,0.257978,0.225455,-0.29211,-0.0849727,0
-1.45873,0.0666753,-0.310423,0.22851,-0.0388646,-0.419479,0
-2.38487,-0.0548683,-0.487553,0.312164,-0.0745712,-0.715518,0
-2.1015,0.0109638,-0.550983,0.27759,0.101903,-0.980428,0
-1.54771,0.241656,-0.311027,0.0790335,0.397115,-0.975071,0
-1.08275,0.596845,0.206305,-0.0420262,0.399841,-0.835696,0
-0.485351,0.850764,0.650569,-0.0861005,0.296675,-0.639697,0
0.237543,1.06472,0.973962,-0.147617,0.180836,-0.355979,0
0.797267,1.14426,1.16292,-0.201237,0.0636937,-0.0678298,0
0.98198,1.0279,1.13941,-0.236705,-0.0197892,0.154098,0
0.815976,0.781601,0.886862,-0.252029,-0.0678641,0.314201,0
0.815976,0.781601,0.886862,-0.252029,-0.0678641,0.314201,0
0.49504,0.434172,0.517615,-0.260953,-0.0769013,0.400105,0
0.194259,0.0197508,0.158288,-0.263535,-0.0613479,0.437143,0
0.0465649,-0.385011,-0.163247,-0.240345,-0.0274735,0.417126,0
0.102353,-0.660059,-0.416616,-0.215202,0.0078966,0.384655,0
0.233781,-0.834694,-0.6073,-0.183021,0.0535343,0.347343,0
0.392971,-0.940223,-0.728427,-0.151521,0.0999621,0.302189,0
0.591104,-1.01698,-0.784643,-0.116495,0.145115,0.236097,0
0.742648,-1.01279,-0.837036,-0.0987197,0.214949,0.17628,0
0.826649,-0.784801,-0.944646,-0.0960519,0.294303,0.13139,0
0.936743,-0.262029,-0.984003,-0.0919807,0.324103,0.15631,0
1.01659,0.358869,-0.892754,-0.0830288,0.306311,0.219847,0
0.914756,0.880793,-0.81176,-0.0617693,0.287695,0.272911,0
0.568037,1.3591,-0.854555,-0.0491228,0.274116,0.29466,0
0.152201,1.69971,-1.04847,-0.0310659,0.25874,0.256641,0
0.0649988,1.73933,-1.36108,0.084271,0.131264,0.125259,0
0.24721,1.12379,-1.75809,0.291177,-0.067253,-0.0791646,0
0.333837,0.214033,-1.97766,0.388475,-0.0676241,-0.233492,0
0.242494,-0.0317835,-1.69838,0.396464,-0.134951,-0.258057,0
-0.0379107,0.224016,-1.23965,0.443689,-0.39571,-0.241554,0
-1.0303,0.0384607,-1.40258,0.421887,-0.395434,-0.352146,0
-2.55727,-0.000199437,-1.64097,0.308473,-0.262094,-0.491017,0
-3.13104,-0.01637,-1.21383,0.329597,-0.274053,-0.627787,0
-2.34584,-0.345534,-0.00988183,0.297437,-0.267654,-0.716378,0
-1.77209,-1.44546,1.48756,0.0104378,-0.118274,-0.918299,0
-0.270434,-0.791911,2.75639,-0.194083,-0.21135,-0.23292,0
1.4663,-0.837461,2.7879,-0.182347,-0.113238,-0.338945,0
2.15112,-0.809959,2.09761,-0.162255,-0.159976,-0.169715,0
1.95463,-0.739817,1.17971,-0.204196,-0.137869,0.0829197,0
1.32769,-0.644747,0.407537,-0.166164,-0.141967,0.300359,0
0.608624,-0.485048,-0.00843027,-0.0996458,-0.172251,0.424549,0
0.104937,-0.244119,-0.171033,-0.0620062,-0.126522,0.47685,0
0.000956688,-0.156662,-0.160363,-0.0330081,-0.0589946,0.441596,0
0.248583,-0.206669,-0.0377084,-0.00379473,-0.0131358,0.400807,0
0.614304,-0.312129,0.116549,0.045319,0.0140917,0.377303,0
0.83064,-0.377427,0.303641,0.0738269,0.0245268,0.379371,0
0.761117,-0.394336,0.432582,0.0723336,0.0767599,0.377992,0
0.515719,-0.342685,0.488157,0.0536054,0.137561,0.358186,0
0.271861,-0.196907,0.566908,0.0271158,0.180175,0.321517,0
0.148584,-0.0386211,0.725272,0.00901666,0.20136,0.269767,0
0.213024,0.0624514,0.948602,-0.0199145,0.20001,0.213378,0
0.391004,0.0849355,1.10959,-0.0682527,0.217119,0.16986,0
0.572134,0.102204,1.09758,-0.121766,0.246868,0.155476,0
0.703363,0.217822,1.01331,-0.151309,0.242769,0.170451,0
0.792512,0.519404,1.11392,-0.16429,0.144594,0.194024,0
0.562975,0.8605,1.31829,-0.123874,-0.0684182,0.16591,0
-0.170608,0.969511,0.869298,-0.0808851,-0.196883,0.00367355,0
-0.714301,0.163425,-0.322802,-0.075765,-0.187483,-0.29039,0
-0.714301,0.163425,-0.322802,-0.075765,-0.187483,-0.29039,0
-0.673533,-0.87218,-1.44485,-0.0872333,-0.13285,-0.524724,0
-0.458469,-1.44845,-1.7751,-0.0199208,-0.176907,-0.567869,0
-0.74587,-1.37468,-1.52664,0.0178973,-0.238931,-0.526252,0
-1.57394,-0.80221,-1.26752,-0.0398978,-0.133574,-0.46824,0
-1.98778,-0.133378,-1.03965,-0.0817511,-0.0186692,-0.466919,0
-1.53157,0.117286,-0.661501,-0.03277,-0.0263746,-0.501212,0
-0.561512,-0.0265876,-0.0916629,-0.0132428,-0.0635723,-0.409219,0
0.105008,-0.428132,0.370975,-0.00638129,-0.110937,-0.268919,0
0.278138,-0.799982,0.417197,-0.00185525,-0.111584,-0.114831,0
0.30546,-0.97659,0.230139,-0.00835828,-0.112405,0.0376124,0
0.352319,-0.936635,0.00610789,-0.0109901,-0.078311,0.163376,0
0.422696,-0.815501,-0.139915,0.0200289,-0.041531,0.257187,0
0.480682,-0.730246,-0.198163,0.0528757,0.00653535,0.323555,0
0.546778,-0.689216,-0.20991,0.0841119,0.0669426,0.359022,0
0.644059,-0.751248,-0.233474,0.120185,0.103869,0.372632,0
0.749588,-0.838927,-0.29003,0.141035,0.155977,0.357374,0
0.897044,-0.845074,-0.392842,0.14142,0.219927,0.34105,0
0.999113,-0.725991,-0.445098,0.136144,0.26983,0.33578,0
1.04952,-0.469671,-0.437009,0.11022,0.314015,0.333713,0
1.047,-0.153579,-0.444473,0.0852968,0.319658,0.346526,0
1.00252,-0.0885135,-0.466595,0.0506171,0.312757,0.345354,0
1.12105,-0.26635,-0.549059,-0.016475,0.332124,0.333502,0
1.48776,-0.540446,-0.7477,-0.0418607,0.277225,0.292541,0
2.39002,-1.05254,-1.19252,0.0177222,0.103763,0.152344,0
2.94498,-1.83858,-1.70416,0.133278,-0.0415499,0.0612702,0
1.59955,-2.02962,-1.43682,0.178219,-0.0879549,0.0490448,0
-0.89453,-0.599962,-0.504792,0.154056,-0.210611,0.178843,0
-3.16421,1.17951,0.507767,0.134662,-0.443772,0.0527611,0
-4.40211,1.34968,0.769906,0.0467142,-0.301345,-0.332065,0
-4.01881,0.0323603,0.639313,-0.117225,-0.118525,-0.789345,0
-2.05664,-1.14717,0.738057,-0.21834,-0.0786775,-0.965308,0
0.0193486,-1.53864,1.29861,-0.237912,-0.146082,-0.789375,0
0.781095,-1.23246,1.69235,-0.172868,-0.225547,-0.532486,0
0.368504,-0.422574,1.53161,-0.135715,-0.28194,-0.234253,0
-0.273155,0.431938,1.03702,-0.151079,-0.280966,0.00865376,0
-0.531876,0.786049,0.511293,-0.157338,-0.247927,0.0890692,0
-0.393364,0.910464,0.111333,-0.110859,-0.213318,0.143975,0
-0.147426,1.01352,-0.11452,-0.0875818,-0.166464,0.22529,0
0.0557756,1.06465,-0.224,-0.0670766,-0.137886,0.28411,0
0.275694,0.964767,-0.268218,-0.0585685,-0.109909,0.302523,0
0.560635,0.805501,-0.319446,-0.0541748,-0.0808601,0.311181,0
0.855345,0.683973,-0.400235,-0.0389947,-0.0507799,0.319162,0
1.11501,0.639598,-0.502282,-0.0231321,-0.0121333,0.319652,0
1.23026,0.662322,-0.576692,-0.0103674,0.0332297,0.330843,0
1.18695,0.669421,-0.565292,-0.00271095,0.0844589,0.3192,0
1.10467,0.643602,-0.392344,-0.00304737,0.103738,0.292351,0
1.14136,0.724402,-0.0409526,0.0108253,0.0516836,0.265715,0
1.16797,0.846736,0.238921,0.0736108,-0.121705,0.226423,0
1.16797,0.846736,0.238921,0.0736108,-0.121705,0.226423,0
0.921488,0.816235,0.136667,0.165898,-0.26007,0.188067,0
0.210497,0.22734,-0.349194,0.198158,-0.269508,0.0462707,0
-0.641637,-0.436807,-0.793397,0.22943,-0.204144,-0.0889962,0
-0.926,-0.803444,-0.673078,0.242119,-0.173697,-0.209859,0
-0.534454,-0.850235,-0.0394794,0.24351,-0.189052,-0.304902,0
0.00807924,-0.423193,0.908182,0.159128,-0.217906,-0.251099,0
-0.224467,0.0380152,1.4069,0.0817003,-0.239471,-0.209995,0
-0.945575,0.393263,1.33044,0.0279571,-0.24034,-0.186114,0
-1.18941,0.623212,1.14394,-0.0606218,-0.190658,-0.195805,0
-0.725276,0.480898,1.1454,-0.10619,-0.137299,-0.23537,0
0.090139,0.188966,1.23908,-0.127408,-0.0677968,-0.176736,0
0.809341,0.118091,1.1937,-0.140025,0.0323647,-0.00898063,0
1.15959,0.299185,0.999209,-0.131563,0.116372,0.189625,0
1.23723,0.550931,0.777248,-0.111655,0.181081,0.367264,0
1.18049,0.743497,0.613478,-0.0894225,0.237561,0.489753,0
1.10248,0.82193,0.503279,-0.0724428,0.284342,0.554992,0
1.00912,0.754232,0.387577,-0.0555242,0.32058,0.56931,0
0.902129,0.590877,0.220714,-0.0151584,0.330462,0.533934,0
0.861936,0.387136,0.0564903,0.0335483,0.273894,0.455826,0
0.653597,0.113883,-0.146743,0.0994916,0.109902,0.355376,0
-0.464833,-0.325333,-1.02828,0.116022,0.14253,0.166472,0
-1.90255,-0.212805,-1.90443,0.132176,-0.0371017,-0.0207714,0
-3.31908,0.198347,-3.16491,-0.0108832,0.0871329,-0.334496,0
-4.08254,1.38216,-4.0755,-0.196296,0.335673,-0.570984,0
-3.88507,2.15578,-4.03295,-0.155331,0.317345,-0.884578,0
-2.99065,2.11627,-2.9668,-0.156885,0.291915,-0.974778,0
-2.03897,1.44434,-1.61397,-0.202926,0.0788933,-0.930961,0
-1.29854,0.642028,-1.05022,-0.23975,0.0374429,-0.806894,0
-0.786647,-0.0156525,-1.08664,-0.263206,-0.0503221,-0.633756,0
-0.52527,-0.444941,-1.04265,-0.309647,-0.146665,-0.417122,0
-0.476448,-0.523986,-0.840598,-0.331485,-0.205167,-0.193089,0
-0.481651,-0.439117,-0.633813,-0.299401,-0.258697,-0.0398791,0
-0.368806,-0.451264,-0.501916,-0.275623,-0.251474,0.0490251,0
-0.128452,-0.609783,-0.485339,-0.247918,-0.221303,0.100351,0
0.175051,-0.796609,-0.517964,-0.173281,-0.209321,0.156744,0
0.417875,-0.92539,-0.435211,-0.0902497,-0.22467,0.218433,0
0.461934,-1.05878,-0.28333,-0.00390413,-0.254413,0.250036,0
0.281726,-1.28631,-0.249803,0.0820036,-0.279924,0.215694,0
0.0284919,-1.58289,-0.345671,0.15247,-0.260812,0.109081,0
-0.0983162,-1.72117,-0.435535,0.189171,-0.214941,-0.0178202,0
-0.0246973,-1.53658,-0.422967,0.213512,-0.167218,-0.144589,0
0.0560039,-1.04055,-0.318948,0.221497,-0.199731,-0.229389,0
-0.307811,-0.578712,-0.539455,0.179641,-0.15168,-0.396539,0
-0.654896,-0.200755,-1.06195,0.174781,-0.072849,-0.603119,0
-0.260787,0.0655507,-1.33935,0.114941,0.00891859,-0.742651,0
0.785202,0.187741,-1.35571,-0.00271699,0.102296,-0.677092,0
1.7633,0.155697,-1.42911,-0.0973144,0.0470015,-0.464298,0
2.03184,0.0675267,-1.75605,-0.172795,0.0008687,-0.2931,0
2.03184,0.0675267,-1.75605,-0.172795,0.0008687,-0.2931,0
1.80993,0.0393141,-2.33562,-0.197247,-0.0270671,-0.241468,0
1.6446,0.00172483,-2.84724,-0.17279,0.0176234,-0.322316,0
1.7893,0.295108,-2.93368,-0.232367,0.130125,-0.295118,0
1.94973,0.239779,-2.40705,-0.218174,0.187776,-0.314944,0
1.93097,-0.32097,-1.45121,-0.202267,0.218829,-0.196587,0
1.94656,-0.236241,-0.467964,-0.181583,0.1881,0.0264614,0
1.80293,0.172713,-0.0439307,-0.227913,0.231881,0.121861,0
1.30574,0.665132,0.083775,-0.24879,0.23403,0.282204,0
1.24791,-0.0746025,-0.118123,-0.0489175,0.234603,0.273396,0
0.900382,-0.654702,-0.182947,-0.0274705,0.204482,0.161632,0
0.473568,-0.64986,-0.0870211,-0.136437,0.200833,0.130756,0
0.286318,-0.262837,-0.328174,-0.161505,0.281532,0.153121,0
0.437774,-0.442681,-0.460999,-0.130794,0.223525,0.111552,0
