rotationRate_x,rotationRate_y,rotationRate_z,acceleration_x,acceleration_y,acceleration_z,relativeAltitude
-0.664752,-0.137494,0.838877,0.0718946,0.101698,0.022308,2.15613
-0.541912,-0.342111,0.915535,0.067842,0.0640281,0.0514508,2.15613
-0.357374,-0.15669,1.02812,-0.0182257,0.0317112,0.0534772,2.15613
-0.251411,0.206917,1.05088,-0.045144,-0.00764033,0.0347424,2.15613
-0.178149,0.186325,0.888077,-0.00937935,0.0270139,0.00412244,2.15613
-0.084633,0.0104293,0.712015,0.0198981,0.0393067,0.0467512,2.15613
-0.00657491,-0.150577,0.585465,0.0455061,0.00799988,0.0319583,2.15613
0.039381,-0.133355,0.476919,0.010777,0.00214908,0.0449117,2.15613
0.047003,-0.0852797,0.375963,-0.0183662,0.0107615,0.0491441,2.15613
0.0243464,-0.132203,0.305027,-0.0177425,0.0189797,0.0454096,2.15613
0.0322313,-0.160552,0.252104,-0.0186291,0.0161562,0.0390396,2.15613
0.113643,-0.0402007,0.226792,-0.0120868,0.00914773,0.0698906,2.15613
0.132934,0.0641654,0.25082,-0.00232139,0.00249247,0.0931666,2.15613
0.0807068,0.0805846,0.296568,0.000192184,-0.0135198,0.100866,2.15613
0.0105103,0.00568389,0.327204,0.0151128,-0.0269963,0.101583,2.15613
-0.0450372,-0.0583417,0.331658,0.0176085,-0.0358545,0.116298,2.15613
-0.0810555,-0.184839,0.351283,0.0182091,-0.0561278,0.0908856,2.15613
-0.109454,-0.339692,0.346893,0.0161697,-0.0649563,0.0679789,2.15613
-0.103297,-0.520708,0.308016,0.0104788,-0.0641353,0.0251033,2.15613
-0.030253,-0.55878,0.274609,0.013886,-0.0637802,0.0198851,2.15613
0.00743692,-0.523871,0.294226,0.0252131,-0.0745139,-0.00117481,2.15613
-0.0236774,-0.443046,0.349164,0.0302664,-0.0822716,-0.0275685,2.15613
-0.134443,-0.30593,0.42232,0.0274168,-0.0680358,-0.0509573,2.15613
-0.344505,-0.236118,0.474396,0.0401636,-0.0490535,-0.109588,2.15613
-0.558391,-0.194646,0.456747,0.0259317,-0.0312695,-0.179885,2.15613
-0.71938,-0.142399,0.366399,0.00742032,-0.00754496,-0.246616,2.15613
-0.812394,-0.167536,0.212407,-0.051178,0.0583442,-0.352449,2.15613
-0.872139,-0.413768,0.0406015,-0.0818243,0.104729,-0.500052,2.15613
-0.869788,-0.792212,-0.142148,-0.0705228,0.112973,-0.631355,2.15613
-0.737255,-0.967348,-0.300819,-0.0338473,0.112724,-0.660992,2.15613
-0.49019,-0.686089,-0.32364,0.00100635,0.106633,-0.579639,2.15613
-0.203477,-0.01883,-0.131599,0.00959836,0.0902022,-0.411836,2.15613
0.029969,0.59231,0.186327,0.0121659,0.0723859,-0.238766,2.15613
0.192628,0.984768,0.468454,0.015908,0.0537719,-0.0858871,2.15613
0.282628,1.08929,0.626751,-0.0135434,0.0517534,0.0221829,2.15613
0.352783,1.03651,0.644185,-0.0524627,0.0390715,0.100683,2.15613
0.394348,0.857597,0.530253,-0.0830054,0.0388078,0.143919,2.15613
0.436576,0.517102,0.292117,-0.0823273,0.0369698,0.138026,2.15613
0.539266,0.240919,0.000611002,-0.0719132,0.0346915,0.173785,2.15613
0.629572,0.0615394,-0.25575,-0.0631241,0.0461692,0.213111,2.15613
0.616136,-0.0266555,-0.377269,-0.0439179,0.0552763,0.266665,2.15613
0.517817,0.00605417,-0.339164,-0.0283279,0.0579303,0.324316,2.15613
0.338609,0.0236985,-0.248749,-0.00898795,0.05367,0.331757,2.15613
0.15864,0.043177,-0.189825,0.0107637,0.0448483,0.333384,2.15613
0.0503247,-0.00323793,-0.17768,0.0291753,0.037392,0.293635,2.15613
0.0599628,-0.000848003,-0.147417,0.016966,0.0345445,0.265076,2.15613
0.118882,0.078802,-0.077958,0.0207865,0.0316989,0.270345,2.15613
0.131838,0.078994,0.0346053,0.0314707,0.0231394,0.277934,2.15613
0.0695362,0.00650556,0.173774,0.0312048,0.0149081,0.269498,2.15613
-0.00976063,-0.101887,0.298355,0.00448362,0.0166336,0.249336,2.15613
-0.00976063,-0.101887,0.298355,0.00448362,0.0166336,0.249336,0
-0.0937716,-0.197979,0.30652,-0.0165373,0.0194031,0.2131,0
-0.203599,-0.247436,0.201117,-0.0397067,0.0237639,0.172288,0
-0.375987,-0.286935,0.0663714,-0.0400173,0.0128938,0.115724,0
-0.48215,-0.156664,-0.0146936,-0.0428665,0.00776057,0.0767183,0
-0.48106,0.0132991,0.0149478,-0.0113809,-0.00531714,0.0105863,0
-0.403399,0.147252,0.142054,-0.00319235,-0.0142763,-0.039219,0
-0.349468,0.0921308,0.273812,0.00463998,-0.0268403,-0.0944406,0
-0.290992,-0.0373423,0.347681,0.000981767,-0.0522971,-0.144036,0
-0.1416,-0.106074,0.341069,-0.00907734,-0.0624113,-0.19926,0
0.0450766,-0.0255266,0.318585,-0.0255454,-0.0463772,-0.230181,0
0.182508,0.0942183,0.350696,-0.0404486,-0.0282473,-0.264679,0
0.24321,0.187874,0.436675,-0.0388169,-0.026016,-0.290072,0
0.303992,0.25818,0.460641,-0.0538186,-0.00650643,-0.297417,0
0.360464,0.239484,0.40943,-0.0680924,0.013936,-0.294772,0
0.368578,0.155816,0.292825,-0.0856488,0.0276511,-0.273343,0
0.224334,0.0278601,0.10152,-0.0805735,0.045258,-0.254944,0
-0.0746705,-0.0696344,-0.0999405,-0.0476959,0.0562672,-0.238752,0
-0.366828,-0.0695227,-0.200873,-0.0187569,0.072928,-0.214095,0
-0.505286,-0.074338,-0.173297,-0.0105501,0.088964,-0.219124,0
-0.390873,0.0204224,-0.0799153,-0.00327259,0.0993658,-0.197533,0
-0.0403598,0.215984,0.0764986,0.0143061,0.104581,-0.132572,0
0.331931,0.503066,0.313753,0.0386157,0.100897,4.21405e-05,0
0.50574,0.620488,0.573168,0.0441895,0.0839455,0.0941269,0
0.462351,0.490373,0.770225,0.0309975,0.0549658,0.153416,0
0.294906,0.232017,0.781975,0.0157173,0.0347692,0.181795,0
0.152292,-0.0531287,0.626677,0.00212117,0.0248225,0.184442,0
0.125132,-0.121979,0.463159,-0.00451952,0.0160109,0.207279,0
0.146642,0.0207841,0.359719,0.0151144,0.0237453,0.240112,0
0.169846,0.20795,0.330523,0.0298229,0.0401248,0.272689,0
0.14322,0.289703,0.375328,0.0491006,0.0272602,0.283027,0
0.0678124,0.239867,0.4071,0.0578944,0.0073359,0.259408,0
-0.0225219,0.14637,0.345767,0.0738179,-0.0113648,0.229597,0
-0.0396763,0.135761,0.248676,0.0825544,-0.0185788,0.212815,0
-0.00255803,0.1092,0.194368,0.0929841,-0.0112828,0.196732,0
0.090399,0.059634,0.121955,0.0917383,0.0519954,0.14904,0
0.188226,0.167577,0.206899,0.104807,-0.0210502,0.160397,0
0.206068,0.156002,0.306703,0.112474,-0.0234375,0.126809,0
0.164457,0.19617,0.302739,0.109649,-0.00890474,0.125595,0
0.0753806,0.215915,0.286742,0.0935375,-0.0178754,0.111908,0
-0.00056632,0.221608,0.27505,0.0870402,-0.0322985,0.106444,0
-0.0734226,0.137663,0.207428,0.0788757,-0.0298182,0.058917,0
-0.0973838,0.075503,0.0685177,0.0671423,-0.0220807,0.0129725,0
-0.0947726,-0.000597459,-0.0590906,0.0521376,-0.0170663,-0.0349647,0
-0.111839,-0.0641855,-0.152357,0.0413711,-0.00274675,-0.0767614,0
-0.178483,-0.107996,-0.181684,0.0430368,0.00846677,-0.111379,0
-0.222474,-0.0726042,-0.137041,0.0404217,0.00876093,-0.144865,0
-0.205573,0.0175716,-0.0565866,0.0331261,0.0240615,-0.164423,0
-0.208231,0.0468431,0.0317115,0.0143329,0.0363278,-0.201077,0
-0.234568,0.00823096,0.0763046,-0.0190655,0.0472843,-0.264665,0
-0.197013,-0.0073923,0.0821188,-0.0375538,0.0514496,-0.295977,0
-0.197013,-0.0073923,0.0821188,-0.0375538,0.0514496,-0.295977,0.0475616
-0.104196,0.0901093,0.0684428,-0.0574124,0.063212,-0.279995,0.0475616
-0.0930271,0.187251,0.0543107,-0.0511519,0.0579885,-0.222672,0.0475616
-0.248172,0.113711,0.0518134,-0.0361697,0.0255359,-0.17933,0.0475616
-0.51777,-0.191482,0.0210909,-0.0221328,-0.013873,-0.195325,0.0475616
-0.682608,-0.530232,-0.0607221,-0.0403307,-0.0240742,-0.272771,0.0475616
-0.596858,-0.61849,-0.183864,-0.0935504,0.00644771,-0.334656,0.0475616
-0.282899,-0.43255,-0.286746,-0.100026,0.0161569,-0.337972,0.0475616
0.11769,-0.0896435,-0.27529,-0.0752932,0.0213082,-0.257564,0.0475616
0.452984,0.190999,-0.0900495,-0.0465556,0.0145747,-0.128537,0.0475616
0.618588,0.313156,0.144142,-0.0374979,0.0135964,-0.00277531,0.0475616
0.613911,0.267618,0.281791,-0.0668792,0.0164488,0.067155,0.0475616
0.561681,0.037419,0.272645,-0.0964036,0.00668529,0.0699459,0.0475616
0.598816,-0.170799,0.121732,-0.104655,0.00310706,0.0861445,0.0475616
0.708352,-0.271528,-0.103188,-0.0909081,0.0185848,0.124399,0.0475616
0.753063,-0.245924,-0.266062,-0.0672261,0.0356566,0.190935,0.0475616
0.662499,-0.162009,-0.303259,-0.0432972,0.0471675,0.26529,0.0475616
0.458459,-0.165838,-0.292449,-0.0344353,0.0559604,0.2897,0.0475616
0.263868,-0.234587,-0.332113,-0.0326443,0.0525947,0.262696,0.0475616
0.202694,-0.234565,-0.428874,-0.0203563,0.0554417,0.25696,0.0475616
0.225623,-0.207756,-0.494819,0.00512188,0.064125,0.258667,0.0475616
0.260454,-0.125431,-0.45917,0.0183199,0.0722805,0.276777,0.0475616
0.233991,-0.0729192,-0.315721,0.0302973,0.0672755,0.287017,0.0475616
0.165733,-0.0539697,-0.167078,0.0387679,0.0445413,0.289679,0.0475616
0.0889125,-0.077156,-0.120394,0.0367715,0.0325124,0.269855,0.0475616
0.0218631,-0.118221,-0.120937,0.020471,0.0184427,0.252569,0.0475616
-0.0440114,-0.161226,-0.135335,0.00321775,0.00177914,0.22414,0.0475616
-0.0900986,-0.152189,-0.165827,-0.0167624,-0.00889803,0.202925,0.0475616
-0.16577,-0.111164,-0.227699,-0.00737584,-0.013797,0.191475,0.0475616
-0.310611,-0.125752,-0.271574,0.0165692,-0.0335834,0.151386,0.0475616
-0.44459,-0.121521,-0.26995,0.0316164,-0.0571985,0.114816,0.0475616
-0.564908,-0.185464,-0.260623,0.0213135,-0.0450636,0.0337525,0.0475616
-0.623848,-0.188609,-0.273884,-0.00217295,-0.0383632,-0.046028,0.0475616
-0.542126,-0.0782661,-0.282934,0.00577104,-0.044753,-0.118109,0.0475616
-0.406975,0.0759353,-0.22393,0.0312924,-0.0492367,-0.169214,0.0475616
-0.33631,0.192225,-0.105322,0.0479008,-0.0432804,-0.227992,0.0475616
-0.294285,0.200111,0.0322894,0.0549482,-0.0324603,-0.281524,0.0475616
-0.195522,0.216432,0.177906,0.0392962,-0.0154427,-0.300658,0.0475616
-0.0193653,0.296277,0.3205,0.008277,-0.00317241,-0.289701,0.0475616
0.0930557,0.350068,0.361317,-0.0128144,0.00138044,-0.25934,0.0475616
0.0131853,0.248577,0.301467,-0.0174123,0.00655572,-0.225699,0.0475616
-0.289554,-0.0853617,0.125211,-0.00462332,0.00993192,-0.242044,0.0475616
-0.585595,-0.276665,-0.0918986,0.00142377,0.0102981,-0.257478,0.0475616
-0.633873,-0.283554,-0.190207,0.0219239,0.0236893,-0.270777,0.0475616
-0.367447,-0.0476356,-0.149458,0.0588623,0.0353857,-0.221025,0.0475616
0.00365616,0.380422,0.0617045,0.0813918,0.0566473,-0.0828052,0.0475616
0.22691,0.673452,0.443603,0.0993327,0.0386879,0.0432362,0.0475616
0.265614,0.530654,0.849454,0.123777,0.0006973,0.110446,0.0475616
0.242412,0.196977,1.07516,0.112757,-0.0101085,0.156502,0.0475616
0.255686,-0.0719319,1.06368,0.0764141,-0.0241691,0.167062,0.0475616
0.298821,-0.187494,0.901151,0.0477432,-0.0422503,0.162606,0.0475616
0.298821,-0.187494,0.901151,0.0477432,-0.0422503,0.162606,0.0951233
0.277955,-0.190317,0.700751,0.0567285,-0.04586,0.18338,0.0951233
0.131705,-0.108685,0.583926,0.0719198,-0.0428858,0.206187,0.0951233
-0.0740733,-0.0174569,0.555231,0.0914191,-0.042136,0.200012,0.0951233
-0.210738,0.00383512,0.543823,0.102537,-0.0299659,0.170459,0.0951233
-0.216932,0.0011318,0.521097,0.0940911,-0.0106763,0.138583,0.0951233
-0.117994,-0.0387405,0.505882,0.092196,-0.00474124,0.120425,0.0951233
0.0150833,-0.0783434,0.485307,0.0986865,0.00173452,0.122077,0.0951233
0.0844687,-0.143929,0.465099,0.105146,0.0170052,0.127258,0.0951233
0.0966874,-0.163936,0.475166,0.114313,0.0202521,0.145908,0.0951233
0.0937279,-0.0844854,0.524667,0.118382,0.0294975,0.16947,0.0951233
0.0939956,0.0449979,0.595556,0.103674,0.0380294,0.173997,0.0951233
0.0825909,0.130648,0.652711,0.0921647,0.030107,0.175184,0.0951233
0.016026,0.0836434,0.649764,0.0744037,0.0195294,0.149432,0.0951233
-0.126938,-0.106221,0.543006,0.056305,0.0171411,0.0747831,0.0951233
-0.218585,-0.237729,0.369735,0.02327,0.0220661,-0.000567079,0.0951233
-0.20351,-0.232925,0.240276,0.0271787,0.0340976,-0.0287698,0.0951233
-0.166967,-0.173758,0.211104,0.0284465,0.0498003,-0.0561244,0.0951233
-0.20586,-0.0621031,0.24224,0.0259154,0.0456142,-0.0730619,0.0951233
-0.34933,-0.123659,0.248038,0.014972,0.0317368,-0.154517,0.0951233
-0.443713,-0.21754,0.187117,-0.00700586,0.0286891,-0.20542,0.0951233
-0.412055,-0.239248,0.0687035,-0.0389858,0.0576076,-0.242961,0.0951233
-0.324068,-0.141975,-0.0164834,-0.0609033,0.0813599,-0.236956,0.0951233
-0.28284,0.00988564,-0.0117911,-0.0563303,0.0711159,-0.182742,0.0951233
-0.402086,0.0631606,-0.0125641,-0.0487728,0.0419552,-0.144756,0.0951233
-0.706352,-0.0588642,-0.121618,-0.0485816,0.0171221,-0.155109,0.0951233
-1.05706,-0.360969,-0.390436,-0.0690228,0.00108373,-0.252424,0.0951233
-1.15372,-0.562619,-0.700101,-0.112194,0.0232528,-0.367684,0.0951233
-0.851966,-0.426199,-0.883766,-0.103848,0.0314408,-0.422789,0.0951233
-0.301485,-0.0641714,-0.833818,-0.0726717,0.0657833,-0.351287,0.0951233
0.192639,0.377657,-0.498076,-0.0479166,0.0685978,-0.194892,0.0951233
0.46023,0.556675,0.00493032,-0.0420695,0.0420455,-0.0716959,0.0951233
0.595508,0.565227,0.365997,-0.0874309,0.038284,0.0332268,0.0951233
0.639525,0.430313,0.431513,-0.136252,0.0575738,0.0943567,0.0951233
0.535307,0.114301,0.233321,-0.17124,0.0597373,0.105048,0.0951233
0.361625,-0.065475,-0.0789229,-0.18872,0.0317492,0.143333,0.0951233
0.218576,-0.0943466,-0.379731,-0.172015,0.0288416,0.173997,0.0951233
0.151321,-0.00379394,-0.54254,-0.133991,0.0447265,0.219731,0.0951233
0.113496,0.0224593,-0.504792,-0.0838151,0.0575204,0.256898,0.0951233
0.0986051,-0.107593,-0.353105,-0.062816,0.0517996,0.253879,0.0951233
0.156183,-0.257974,-0.228488,-0.0493263,0.0196378,0.237301,0.0951233
0.271496,-0.349725,-0.230321,-0.0233163,-0.0058185,0.217665,0.0951233
0.388914,-0.310403,-0.283059,-0.0108447,-0.0158166,0.23633,0.0951233
0.362594,-0.325321,-0.299064,-0.0107436,-0.0130121,0.224886,0.0951233
0.220343,-0.316363,-0.252323,-0.0109668,-0.0218567,0.22403,0.0951233
0.117243,-0.220728,-0.215533,-0.00514939,-0.0321394,0.216261,0.0951233
0.0777651,-0.0828243,-0.240653,-0.00179239,-0.0227919,0.210018,0.0951233
0.0756225,0.0178974,-0.26983,0.00337536,-0.0255062,0.193204,0.0951233
0.0686197,0.0510108,-0.268222,0.0124839,-0.0315979,0.180782,0.0951233
0.0209756,0.00414538,-0.243472,0.0346084,-0.0442345,0.160279,0.0951233
-0.0233506,-0.0393845,-0.189867,0.0397629,-0.0513515,0.143753,0.0951233
-0.0233506,-0.0393845,-0.189867,0.0397629,-0.0513515,0.143753,0.195541
-0.0701049,-0.0389129,-0.130678,0.0287744,-0.0423831,0.128144,0.195541
-0.138316,-0.0373168,-0.0704035,0.0137136,-0.0466053,0.0997322,0.195541
-0.204287,0.0146297,-0.0223224,-0.00949307,-0.0576344,0.0652452,0.195541
-0.197182,0.162561,-0.0251694,-0.0409102,-0.0615884,0.0246471,0.195541
-0.177724,0.255613,-0.052251,-0.0275475,-0.0729768,-0.000982702,0.195541
-0.206611,0.219946,-0.0347458,-0.0132765,-0.0839299,-0.0368562,0.195541
-0.217687,0.117537,0.00797705,0.00470772,-0.0896924,-0.099142,0.195541
-0.145713,0.013072,0.0706857,-0.00495312,-0.0644183,-0.166899,0.195541
-0.015553,0.047975,0.156937,-0.0348142,-0.0285787,-0.215275,0.195541
0.131572,0.184043,0.290831,-0.0480499,-0.0125476,-0.240468,0.195541
0.253077,0.330061,0.426657,-0.0578375,-0.00884683,-0.226302,0.195541
0.255898,0.414129,0.437255,-0.0704436,0.00412211,-0.191333,0.195541
0.0409779,0.36651,0.30963,-0.0710498,0.00554204,-0.177216,0.195541
-0.304212,0.13675,0.0803719,-0.0768207,-0.000479184,-0.230227,0.195541
-0.593008,-0.107025,-0.180793,-0.0685948,0.0225834,-0.317003,0.195541
-0.709522,-0.135422,-0.329338,-0.0269861,0.0359225,-0.360117,0.195541
-0.596913,0.0287795,-0.295002,0.0266662,0.0517778,-0.338898,0.195541
-0.308008,0.232475,-0.0230005,0.0676652,0.0778907,-0.252316,0.195541
0.0508255,0.426576,0.416992,0.0806962,0.0623867,-0.120484,0.195541
0.327277,0.445963,0.785623,0.0711647,0.0352974,-0.0193571,0.195541
0.480804,0.337606,0.935721,0.0507067,0.00683291,0.0604373,0.195541
0.467392,0.107916,0.875109,0.0218959,-0.0104295,0.0956827,0.195541
0.298081,-0.184952,0.674377,-0.0125328,-0.0217652,0.0970001,0.195541
0.136929,-0.37118,0.401891,-0.0153141,-0.0385476,0.0949795,0.195541
0.0976043,-0.360349,0.151251,0.015053,-0.0243047,0.0909786,0.195541
0.149674,-0.19438,0.0368119,0.0550668,-0.000320524,0.119362,0.195541
0.220947,0.0439745,0.130067,0.0910133,0.0171252,0.178445,0.195541
0.257247,0.194052,0.355341,0.121975,0.014179,0.232094,0.195541
0.267929,0.172297,0.554359,0.14773,-0.00211731,0.256598,0.195541
0.285991,0.0412762,0.632421,0.143031,-0.0215516,0.246087,0.195541
0.345202,-0.0470952,0.600487,0.117588,-0.0244807,0.233637,0.195541
0.393216,-0.0686559,0.492528,0.109772,-0.0220384,0.227307,0.195541
0.349841,-0.0293555,0.395248,0.127788,-0.0310191,0.222251,0.195541
0.229103,0.103734,0.375076,0.153868,-0.0344324,0.226855,0.195541
0.090496,0.238938,0.420798,0.166041,-0.0308934,0.202236,0.195541
-0.00329621,0.310109,0.467548,0.165807,-0.0323453,0.15783,0.195541
-0.0558929,0.216357,0.477952,0.171259,-0.0299165,0.102386,0.195541
-0.0472025,0.0259761,0.491718,0.16995,-0.0215145,0.0587024,0.195541
0.0089843,-0.167391,0.521638,0.159349,-0.00547824,0.0188524,0.195541
0.0559229,-0.248314,0.559561,0.156752,0.0128491,0.00644672,0.195541
0.0585735,-0.179056,0.618423,0.156065,0.0191916,1.30534e-05,0.195541
0.0208356,-0.0484189,0.715491,0.142418,0.0250061,-0.00229079,0.195541
-0.000765932,0.100301,0.792617,0.110695,0.0318806,-0.00621736,0.195541
0.038836,0.204578,0.818188,0.0637661,0.0292603,-0.0157179,0.195541
0.117664,0.24008,0.779957,0.0393863,0.0206804,-0.0134757,0.195541
0.15565,0.186398,0.745748,0.0529506,0.00637989,0.0099557,0.195541
0.116568,0.0635986,0.745777,0.0670802,-0.00593302,0.0199725,0.195541
0.0300766,-0.108708,0.791338,0.0672618,-0.00838706,0.00150436,0.195541
-0.0154285,-0.107449,0.819759,0.0363589,-0.000721306,-0.0445606,0.195541
-0.0154285,-0.107449,0.819759,0.0363589,-0.000721306,-0.0445606,0.417496
0.0157014,0.125938,0.829948,0.029669,-0.0245284,-0.0572094,0.417496
0.0294406,0.324831,0.890247,0.0444447,-0.0583156,-0.0383965,0.417496
-0.138128,0.275924,0.889455,0.0338171,-0.0403097,-0.0253159,0.417496
-0.581224,0.0303506,0.692487,0.00907651,-0.0247214,-0.0525701,0.417496
-0.962331,-0.172853,0.452143,0.0178554,-0.0617264,-0.108034,0.417496
-0.897652,-0.163416,0.335135,0.0433356,-0.0378041,-0.16721,0.417496
-0.430751,0.00608948,0.417563,0.0713981,0.0173435,-0.170818,0.417496
0.115506,0.304739,0.751409,0.0659728,0.0641322,-0.07122,0.417496
0.453704,0.353758,1.23545,0.0646174,0.0433711,-0.0157859,0.417496
0.605447,0.239275,1.55727,0.0715995,0.000647895,0.0458617,0.417496
0.618387,-0.00991107,1.57209,0.0592043,-0.000632949,0.0712978,0.417496
0.49643,-0.193524,1.44366,0.0143881,-0.000375904,0.0946483,0.417496
0.25821,-0.213889,1.29031,-0.0370931,0.0042966,0.103538,0.417496
0.0306006,-0.0794374,1.10149,-0.0693022,0.0320017,0.110007,0.417496
-0.125537,0.0565393,0.898669,-0.0516176,0.0461716,0.107926,0.417496
-0.178685,0.126737,0.80948,-0.00612583,0.0427625,0.107362,0.417496
-0.14431,0.0826975,0.832063,0.0219408,0.0635524,0.0939236,0.417496
-0.038814,-0.0182452,0.910781,0.036211,0.0730531,0.0886262,0.417496
0.0547301,-0.138568,1.00115,0.0541659,0.0666258,0.0914089,0.417496
0.0567358,-0.221503,1.07294,0.0506321,0.060238,0.100495,0.417496
-0.0249823,-0.233957,1.12427,0.0321455,0.043566,0.0915434,0.417496
-0.133515,-0.187168,1.10616,-0.000941038,0.0373134,0.0643159,0.417496
-0.230843,-0.110516,1.02188,-0.0241317,0.0256402,0.0409129,0.417496
-0.252505,-0.0228788,0.897438,-0.0468326,0.00954128,0.00790793,0.417496
-0.220551,0.0410763,0.764439,-0.0546244,0.0061321,-0.0165159,0.417496
-0.167696,0.0741081,0.677477,-0.0428059,-0.00767122,-0.0304598,0.417496
-0.134569,0.111939,0.623583,-0.0157545,-0.0270421,-0.0490464,0.417496
-0.128079,0.138054,0.586877,-0.0032322,-0.03146,-0.07185,0.417496
-0.1132,0.147189,0.587605,0.0211705,-0.0442343,-0.116058,0.417496
-0.0162922,0.152746,0.63161,0.044701,-0.0380338,-0.167765,0.417496
0.138464,0.153904,0.730116,0.0514496,-0.00760966,-0.20936,0.417496
0.272655,0.166293,0.862143,0.0366956,0.0161119,-0.221395,0.417496
0.350724,0.200892,0.947366,0.00712408,0.0332086,-0.229208,0.417496
0.372514,0.281092,0.920171,-0.02974,0.0401346,-0.224628,0.417496
0.295502,0.30762,0.807823,-0.0415117,0.037446,-0.215189,0.417496
0.0522027,0.26836,0.627472,-0.0580592,0.0539661,-0.222495,0.417496
-0.294964,0.268855,0.421564,-0.0370586,0.0514192,-0.240002,0.417496
-0.490988,0.420461,0.319466,0.00295881,0.0577647,-0.231272,0.417496
-0.459634,0.582185,0.356812,0.0490972,0.0748816,-0.201549,0.417496
-0.264366,0.644842,0.530962,0.0710507,0.0873226,-0.152553,0.417496
0.0354706,0.652501,0.79112,0.0908599,0.0836151,-0.0509149,0.417496
0.30199,0.548481,1.05007,0.0966067,0.0746748,0.0472915,0.417496
0.446707,0.312559,1.24836,0.097504,0.0477411,0.118737,0.417496
0.423119,0.0202753,1.32867,0.0791276,0.0283981,0.142156,0.417496
0.290585,-0.249659,1.26355,0.0466819,0.0185421,0.117538,0.417496
0.211482,-0.379101,1.11116,0.0377389,0.00296316,0.0926158,0.417496
0.209065,-0.27692,0.931903,0.0409805,0.013924,0.0974638,0.417496
0.192636,-0.069341,0.820279,0.055863,0.0227628,0.113826,0.417496
0.146348,0.0690226,0.793835,0.0777705,0.0183558,0.140367,0.417496
0.120315,0.0632292,0.789694,0.0940981,0.0131732,0.151607,0.417496
0.120315,0.0632292,0.789694,0.0940981,0.0131732,0.151607,0.615662
0.14101,-0.00878762,0.758112,0.102272,0.00759745,0.152206,0.615662
0.19624,-0.061524,0.705665,0.0972293,0.00691493,0.148922,0.615662
0.255501,-0.0522594,0.650154,0.0961816,0.0121828,0.157832,0.615662
0.249713,-0.0210238,0.645335,0.115801,0.0115845,0.173747,0.615662
0.187535,0.00896031,0.680236,0.12432,0.00862112,0.168098,0.615662
0.141794,0.0841685,0.710266,0.109793,0.0115795,0.146501,0.615662
0.159257,0.115711,0.706191,0.0962009,0.0119458,0.105053,0.615662
0.234099,0.089344,0.698238,0.094844,0.0035277,0.0676671,0.615662
0.30359,0.0287074,0.700398,0.0713501,0.023996,0.0442311,0.615662
0.289404,-0.0327046,0.698384,0.0439955,0.030744,0.00745213,0.615662
0.216658,-0.065277,0.61895,0.0164883,0.0478523,-0.0376921,0.615662
0.107138,-0.062169,0.49345,-0.00468406,0.0835712,-0.0709229,0.615662
-0.0575809,-0.038316,0.376961,-0.0216635,0.0968136,-0.120147,0.615662
-0.213552,-0.00652297,0.252935,-0.0282169,0.119946,-0.163215,0.615662
-0.325755,-0.00674795,0.133039,-0.0319549,0.153736,-0.207682,0.615662
-0.384747,-0.0161576,0.0277228,-0.0320873,0.180514,-0.245055,0.615662
-0.399581,0.00126798,-0.0364508,-0.0235959,0.199333,-0.28248,0.615662
-0.322377,0.126386,-0.0232444,0.000944607,0.195856,-0.253151,0.615662
-0.252455,0.19898,0.0586932,0.0221177,0.169836,-0.1924,0.615662
-0.301106,0.124043,0.115689,0.0378012,0.118798,-0.120855,0.615662
-0.549149,-0.131822,0.0469556,0.038057,0.0719888,-0.0972897,0.615662
-0.892104,-0.454055,-0.147118,-0.0189841,0.0683101,-0.173595,0.615662
-0.935404,-0.449957,-0.332247,-0.0688226,0.0683918,-0.253906,0.615662
-0.609269,-0.0397638,-0.43753,-0.0581324,0.0846931,-0.233874,0.615662
-0.249493,0.472174,-0.347801,-0.0301362,0.0820588,-0.124898,0.615662
-0.110047,0.662014,-0.0993718,-0.00509123,0.0602914,-0.0141429,0.615662
-0.160255,0.349579,0.150053,0.0296468,0.0225452,0.0247642,0.615662
-0.125397,-0.170014,0.366757,0.0428781,-0.0185851,0.0149733,0.615662
0.0532492,-0.351876,0.485333,-0.0448623,0.0267223,0.0196863,0.615662
0.303839,-0.12615,0.432338,-0.165077,0.0551473,0.0294751,0.615662
0.542976,0.252008,0.253078,-0.189861,0.0489493,0.107328,0.615662
0.583725,0.516861,0.101801,-0.137106,0.0244168,0.226454,0.615662
0.44242,0.622499,0.10808,-0.0964631,-0.00551151,0.340034,0.615662
0.211095,0.499439,0.191194,-0.0911124,-0.0272224,0.382598,0.615662
0.04266,0.280651,0.191461,-0.105408,-0.0458179,0.375677,0.615662
-0.0026739,0.165985,0.0572189,-0.116764,-0.0633722,0.368816,0.615662
-0.0163439,0.112673,-0.11794,-0.115303,-0.0774618,0.352702,0.615662
-0.0712964,0.0679818,-0.25818,-0.101106,-0.0910925,0.331065,0.615662
-0.164473,-0.00524481,-0.326696,-0.0650401,-0.0989039,0.288045,0.615662
-0.19062,-0.0801798,-0.275036,-0.042923,-0.104426,0.227832,0.615662
-0.15681,-0.232432,-0.192258,-0.0365711,-0.0981901,0.146914,0.615662
-0.0972775,-0.324141,-0.150091,-0.0349996,-0.0911508,0.066559,0.615662
-0.0347245,-0.201954,-0.119361,-0.0244215,-0.0911104,0.028834,0.615662
-0.0515285,-0.0521982,-0.0269587,0.0113927,-0.0860165,0.00115675,0.615662
-0.167379,-0.0389688,0.0551964,0.0146275,-0.0796449,-0.0616407,0.615662
-0.234461,-0.0301121,0.0100662,-0.0249961,-0.0582247,-0.146739,0.615662
-0.157052,0.0113577,-0.095802,-0.0299667,-0.0509992,-0.23378,0.615662
-0.00140358,0.0602691,-0.161148,-0.00604993,-0.0379241,-0.278991,0.615662
0.117206,0.0465368,-0.117442,0.0199231,-0.0107211,-0.308889,0.615662
0.235381,0.0918217,0.0499196,0.015528,0.0334333,-0.309001,0.615662
0.389293,0.254057,0.311417,-0.00693456,0.0556547,-0.281775,0.615662
0.504816,0.347185,0.477659,-0.0288314,0.0408336,-0.247947,0.615662
0.421737,0.302123,0.434091,-0.0483592,0.0183368,-0.21942,0.615662
0.165887,0.0319077,0.197084,-0.0865907,0.0151273,-0.256381,0.615662
-0.101457,-0.159121,-0.123523,-0.11674,0.039508,-0.297114,0.615662
-0.114369,-0.0926462,-0.328228,-0.0814358,0.0490005,-0.28072,0.615662
0.0982179,0.1853,-0.31789,-0.0170055,0.071295,-0.181329,0.615662
0.294608,0.57571,-0.100819,0.0192249,0.0859533,-0.0262169,0.615662
0.351248,0.72177,0.215778,0.0305666,0.0738634,0.0968651,0.615662
0.303874,0.559355,0.433263,0.0228343,0.0450762,0.166253,0.615662
0.179605,0.218649,0.470029,0.00338821,0.0191,0.178522,0.615662
0.109393,-0.123956,0.409458,-0.0106311,-0.00599004,0.17369,0.615662
0.158671,-0.289403,0.31947,-0.0255941,0.00308333,0.187554,0.615662
0.223185,-0.220662,0.225131,-0.0172249,0.0123909,0.224209,0.615662
0.215735,-0.0207836,0.163757,-0.00407554,0.00126258,0.267659,0.615662
0.12497,0.127236,0.133734,0.0127517,-0.0117872,0.300334,0.615662
0.0237876,0.178319,0.104116,0.0342593,-0.0303423,0.294205,0.615662
-0.0123978,0.150677,0.0764259,0.0423425,-0.0390176,0.262873,0.615662
0.0141862,0.0753549,0.0469975,0.055748,-0.0428825,0.239356,0.615662
0.0379199,0.0140334,0.0345448,0.0831174,-0.0449332,0.208541,0.615662
0.0337576,-0.0066658,0.062213,0.1017,-0.0430304,0.175678,0.615662
0.0517223,-0.0516323,0.129224,0.123099,-0.053244,0.129578,0.615662
0.128608,-0.0507731,0.214529,0.132337,-0.0550489,0.105997,0.615662
0.193766,0.00124177,0.298253,0.12519,-0.0477162,0.10208,0.615662
0.190096,0.0317983,0.337515,0.100109,-0.0442476,0.0910928,0.615662
0.117649,0.047663,0.289898,0.0726816,-0.0308254,0.0733016,0.615662
0.117649,0.047663,0.289898,0.0726816,-0.0308254,0.0733016,0.755707
0.0063166,0.0122815,0.213945,0.06379,-0.0266,0.0311447,0.755707
-0.0657468,-0.0346208,0.125931,0.0639177,-0.0202585,-0.0320581,0.755707
-0.084945,-0.0197558,0.0286284,0.0574602,-0.00286321,-0.0908117,0.755707
-0.0493052,0.120394,-0.0381424,0.0633702,0.00968023,-0.118791,0.755707
-0.0145999,0.295418,-0.0240803,0.0734083,0.0242905,-0.116412,0.755707
-0.126803,0.273019,0.0355247,0.0740631,0.042138,-0.145123,0.755707
-0.263276,0.207694,0.0999368,0.0576541,0.0312219,-0.181204,0.755707
-0.244642,0.162632,0.117065,0.0494733,0.0232094,-0.21713,0.755707
-0.121127,0.135536,0.113041,0.0184082,0.0406198,-0.235697,0.755707
-0.0291041,0.088246,0.138379,0.0020109,0.0526052,-0.22483,0.755707
-0.0265987,0.0606448,0.152582,-0.0190617,0.0609621,-0.199582,0.755707
-0.157127,-0.0112337,0.143432,-0.0398892,0.0674095,-0.17227,0.755707
-0.426705,-0.160745,0.0987533,-0.0397231,0.048479,-0.164054,0.755707
-0.693892,-0.286032,0.00882248,-0.0547385,0.0301099,-0.202558,0.755707
-0.702323,-0.293364,-0.107976,-0.0786686,0.0453615,-0.244858,0.755707
-0.473347,-0.245375,-0.181668,-0.0815655,0.0576041,-0.259707,0.755707
-0.169282,-0.100144,-0.209246,-0.0774953,0.0631804,-0.202095,0.755707
0.0598765,0.087774,-0.235135,-0.0830412,0.0627357,-0.114681,0.755707
0.199511,0.208188,-0.231476,-0.0806284,0.0548823,-0.0164781,0.755707
0.268601,0.158925,-0.161541,-0.0813601,0.0483988,0.0656636,0.755707
0.28651,-0.0290778,-0.082128,-0.106203,0.0483402,0.105156,0.755707
0.307611,-0.186379,-0.0732099,-0.140559,0.0499925,0.132289,0.755707
0.32715,-0.262905,-0.188451,-0.171674,0.0519252,0.146244,0.755707
0.282424,-0.235606,-0.371091,-0.175876,0.0514249,0.166649,0.755707
0.206322,-0.109025,-0.505993,-0.149992,0.0352233,0.195863,0.755707
0.182496,0.012823,-0.547487,-0.118784,0.0367058,0.216516,0.755707
0.195627,0.0623184,-0.519971,-0.094112,0.043496,0.235556,0.755707
0.193317,0.046389,-0.456687,-0.0793384,0.0317964,0.25937,0.755707
0.172066,-0.0160657,-0.402552,-0.071081,0.0132269,0.276243,0.755707
0.128762,-0.139269,-0.412522,-0.0579293,-0.000617415,0.265124,0.755707
0.0800756,-0.242222,-0.422351,-0.0391664,-0.0150822,0.246885,0.755707
0.0384983,-0.288516,-0.405129,-0.0319395,-0.0130257,0.215616,0.755707
0.0106422,-0.242587,-0.383793,-0.0246079,-0.0156004,0.186685,0.755707
0.0289256,-0.146872,-0.369886,-0.0255473,-0.0269392,0.163785,0.755707
0.0474606,-0.117575,-0.36116,-0.0220946,-0.0409213,0.145503,0.755707
-0.0228454,-0.1585,-0.38004,-0.0210873,-0.0498446,0.124661,0.755707
-0.118072,-0.187738,-0.403801,-0.00917887,-0.0749911,0.102821,0.755707
-0.18736,-0.253428,-0.411219,0.0153594,-0.0853338,0.0553045,0.755707
-0.203598,-0.243545,-0.36772,0.0312222,-0.0869305,0.0140817,0.755707
-0.221284,-0.213259,-0.279157,0.0671845,-0.102857,-0.0229962,0.755707
-0.27085,-0.135932,-0.193279,0.0768238,-0.106487,-0.047215,0.755707
-0.324976,-0.0668826,-0.169449,0.0638771,-0.105524,-0.117433,0.755707
-0.347294,-0.0896786,-0.191361,0.0673143,-0.0885547,-0.200614,0.755707
-0.297692,-0.0899528,-0.168428,0.0716634,-0.0413213,-0.257578,0.755707
-0.152864,-0.0266131,-0.0748725,0.072894,-0.00869685,-0.293346,0.755707
-0.0593881,0.0252159,0.0246882,0.0829699,0.0205126,-0.296694,0.755707
-0.0383555,-0.00206858,0.128194,0.0964293,0.016476,-0.297602,0.755707
-0.0288118,-0.00179386,0.226691,0.0951283,0.012986,-0.24294,0.755707
-0.0247558,-0.111845,0.263097,0.0701856,0.0144462,-0.193808,0.755707
-0.00960935,-0.360687,0.174631,0.0361804,0.0142857,-0.16613,0.755707
-0.00960935,-0.360687,0.174631,0.0361804,0.0142857,-0.16613,0.877258
0.000695432,-0.773967,-0.00285719,0.051932,0.0295725,-0.178484,0.877258
0.114723,-1.01941,-0.13065,0.111593,0.0414554,-0.153024,0.877258
0.36155,-0.994699,-0.12001,0.147796,0.0735232,-0.115625,0.877258
0.603327,-0.813433,0.0399176,0.170689,0.0683067,-0.0264527,0.877258
0.668691,-0.625009,0.352697,0.180522,0.0498511,0.0835272,0.877258
0.510802,-0.407628,0.833596,0.175463,0.082315,0.168635,0.877258
0.157229,-0.186809,1.48536,0.218183,0.102425,0.189004,0.877258
-0.124504,0.0324733,1.75335,0.308201,-0.0416482,0.235253,0.877258
-0.124304,-0.255465,1.40861,0.222744,-0.0615535,0.151045,0.877258
0.180528,-0.687896,0.964781,0.0996938,-0.021126,0.123901,0.877258
0.449025,-0.942793,0.621003,0.0960985,0.0138029,0.208513,0.877258
0.468614,-1.3908,0.580216,0.158213,0.0198064,0.215409,0.877258
0.357564,-2.48424,0.788607,0.196876,0.0302889,0.0920705,0.877258
0.692005,-2.15238,0.879813,0.1981,-0.00935191,0.179893,0.877258
1.25974,-1.20774,0.373657,-0.0595365,-0.0890386,-0.105362,0.877258
1.40279,-0.942019,0.148938,0.0148034,-0.0987727,0.132852,0.877258
1.69785,-0.237763,0.300138,0.103262,-0.0049541,0.143235,0.877258
2.15445,0.771139,0.554562,-0.0386449,0.138312,0.267401,0.877258
2.36539,0.812658,1.03546,0.0967368,0.100479,-0.0386796,0.877258
2.14849,0.497424,1.25618,0.14212,0.0264753,-0.0410282,0.877258
1.25405,0.638702,1.47192,0.12558,-0.0537802,0.194194,0.877258
-0.0355963,1.39823,1.40796,0.003627,-0.0263885,0.404245,0.877258
-1.61574,1.90104,0.870407,-0.0951404,0.106294,0.263331,0.877258
-2.73643,1.93541,0.44197,0.0458664,0.237874,0.462625,0.877258
-3.33284,1.12253,0.497743,0.0890767,0.0486159,0.2128,0.877258
-3.26831,-1.30769,1.10519,0.0891429,-0.182753,-0.207458,0.877258
-2.00532,-0.920901,1.28945,-0.114501,-0.0628396,-0.542022,0.877258
-0.890399,-1.66445,1.2027,-0.00239685,-0.164395,-0.21019,0.877258
0.188529,-1.27936,0.934279,0.0024794,-0.0711871,-0.0187401,0.877258
0.917676,-0.647956,0.646523,-0.0399037,-0.0598689,-0.00227284,0.877258
1.30081,-0.0888372,0.520371,-0.0392616,-0.119613,-0.0440158,0.877258
1.32234,0.266696,0.509967,-0.0908136,-0.172655,-0.118533,0.877258
1.01017,0.306347,0.527161,-0.0908915,-0.167161,-0.207041,0.877258
0.480651,0.124097,0.431733,-0.0969481,-0.131204,-0.270667,0.877258
-0.0938669,-0.108122,0.329901,-0.125505,-0.0825833,-0.334809,0.877258
-0.543766,-0.540947,0.303984,-0.137112,-0.063148,-0.43325,0.877258
-0.803606,-0.827992,0.347651,-0.133861,-0.0721465,-0.441034,0.877258
-0.908964,-0.793106,0.437381,-0.128117,-0.0867217,-0.398194,0.877258
-0.862751,-0.66864,0.485976,-0.1516,-0.0594421,-0.363743,0.877258
-0.705624,-0.608867,0.327964,-0.171304,0.0359388,-0.274521,0.877258
-0.432953,-0.623214,-0.129352,-0.14849,0.150564,-0.142589,0.877258
-0.113164,-0.75498,-0.818097,-0.0906728,0.25393,0.0392511,0.877258
0.183566,-0.951422,-1.4715,0.0503656,0.27222,0.207799,0.877258
0.376284,-1.31842,-1.47639,0.197192,0.0924578,0.211103,0.877258
0.453867,-1.11963,-0.916056,0.234493,-0.0905878,0.240161,0.877258
0.457067,-0.821223,-0.326762,0.206344,-0.176721,0.270604,0.877258
0.357956,-0.321441,0.0372026,0.0941791,-0.150043,0.360867,0.877258
0.201866,0.0348757,0.205276,0.113608,-0.0516348,0.369953,0.877258
0.107297,0.193243,0.371271,0.212558,-1.05947e-05,0.290295,0.877258
0.141541,0.48506,0.557246,0.229592,-0.0270345,0.221508,0.877258
0.141541,0.48506,0.557246,0.229592,-0.0270345,0.221508,1.07808
0.290906,0.723297,0.705492,0.126056,-0.0441042,0.0943735,1.07808
0.437303,0.61606,0.751533,0.032217,0.012515,-0.0112096,1.07808
0.488952,0.405739,0.551938,-0.0021331,0.106332,-0.0077129,1.07808
0.470292,0.238557,0.353739,0.0507303,0.152262,0.0236321,1.07808
0.522789,0.225224,0.329666,0.120952,0.13126,0.0435137,1.07808
0.65389,0.21288,0.436096,0.129541,0.0991327,0.0367395,1.07808
0.666395,0.241226,0.487943,0.0603406,0.112234,0.0457389,1.07808
0.576567,0.24984,0.397003,0.00819153,0.121677,0.0415444,1.07808
0.444395,0.2275,0.259197,0.0356075,0.112263,0.0253243,1.07808
0.37408,0.221959,0.187044,0.0970686,0.070196,0.0131669,1.07808
0.409412,0.285435,0.211578,0.149154,0.0234585,0.0318199,1.07808
0.514939,0.305327,0.349211,0.139933,-0.0204777,0.0366321,1.07808
0.538761,0.217238,0.550967,0.105547,-0.0380466,0.0374263,1.07808
0.380352,0.133746,0.721508,0.0561104,-0.031759,0.0627833,1.07808
0.130779,0.148158,0.841604,0.0203765,-0.037934,0.0710438,1.07808
-0.0036213,0.169169,0.919126,0.00887281,-0.050065,0.0324592,1.07808
0.033071,0.199307,1.02175,0.0083068,-0.0467536,-0.00782251,1.07808
0.159972,0.122982,1.11824,0.00250229,-0.0260459,-0.0556238,1.07808
0.250214,-0.0184157,1.14503,-0.00285068,0.0298208,-0.07838,1.07808
0.247157,-0.226423,1.05381,-0.00203875,0.0750238,-0.081964,1.07808
0.244416,-0.442513,0.923183,-0.00253773,0.0655105,-0.0599588,1.07808
0.263647,-0.673156,0.925996,0.00740489,0.0581347,-0.0155623,1.07808
0.220628,-0.702609,0.992653,0.0273253,0.0787832,0.0824625,1.07808
0.167032,-0.43882,0.94187,0.0302801,0.0870832,0.159538,1.07808
0.235801,-0.0577619,0.810377,0.00434497,0.0827667,0.150653,1.07808
0.349795,0.264477,0.673403,0.0286972,0.142008,0.112535,1.07808
0.305337,0.346724,0.609356,0.0673925,0.170399,0.0465104,1.07808
0.126243,0.475032,0.669414,0.0671833,0.136311,0.0356097,1.07808
-0.10447,0.656428,0.806381,0.0505762,0.0844764,0.0246903,1.07808
-0.287413,0.876588,0.953446,0.0441645,0.0509649,-0.00349957,1.07808
-0.344117,1.02848,1.05484,0.0449462,0.0573975,-0.0640762,1.07808
-0.293625,1.07647,1.01687,0.00561374,0.0702922,-0.135271,1.07808
-0.118354,0.94425,0.877177,-0.0172431,0.0755533,-0.218321,1.07808
0.106086,0.626306,0.803308,-0.0367157,0.0376723,-0.265498,1.07808
0.260803,0.311181,0.764237,-0.04703,0.0319447,-0.228207,1.07808
0.31515,0.188393,0.64363,-0.0144665,0.0804625,-0.125111,1.07808
0.320941,0.268508,0.436316,0.0364206,0.121995,-0.0473276,1.07808
0.301324,0.414022,0.29183,0.0714308,0.0991977,-0.0270051,1.07808
0.336657,0.538659,0.336539,0.100586,0.0234481,-0.0616235,1.07808
0.427279,0.642744,0.542044,0.117851,-0.0245214,-0.102495,1.07808
0.485686,0.64626,0.791435,0.122425,-0.0292599,-0.133275,1.07808
0.49474,0.550833,0.995048,0.132044,-0.00446217,-0.14019,1.07808
0.41373,0.414498,1.18265,0.148318,0.0202612,-0.119059,1.07808
0.237783,0.102468,1.34666,0.169687,0.0289077,-0.122374,1.07808
0.0864017,-0.417741,1.46456,0.171377,0.0360737,-0.132259,1.07808
-0.00402018,-0.81658,1.51237,0.13243,0.0385093,-0.0446592,1.07808
-0.0677044,-0.901721,1.49873,0.0629426,0.0173808,0.0785002,1.07808
-0.0726309,-0.812109,1.39087,0.0202836,0.00186497,0.141398,1.07808
-0.000319783,-0.813794,1.20345,-0.00695682,0.0125035,0.151188,1.07808
0.110744,-0.797052,1.02686,-0.0363722,0.00337496,0.17029,1.07808
0.110744,-0.797052,1.02686,-0.0363722,0.00337496,0.17029,1.25775
0.236207,-0.695625,0.868749,-0.0516744,-0.0213789,0.2001,1.25775
0.320622,-0.439268,0.745239,-0.0825452,-0.049803,0.240635,1.25775
0.328462,-0.15821,0.677959,-0.116884,-0.0680175,0.241544,1.25775
0.256271,0.00308285,0.691751,-0.147815,-0.0862387,0.196801,1.25775
0.175017,-0.0361278,0.71444,-0.159,-0.0692719,0.111152,1.25775
0.0875642,-0.222353,0.627732,-0.152597,-0.030599,0.0455634,1.25775
0.0360746,-0.277415,0.475036,-0.179573,-0.0412339,0.0133249,1.25775
0.0483244,-0.199725,0.383705,-0.187877,-0.0298269,-0.0307565,1.25775
0.0128675,-0.0691998,0.357804,-0.154829,0.0102242,-0.0985392,1.25775
-0.0358162,0.259023,0.31524,-0.124828,0.0405739,-0.168963,1.25775
-0.0286041,0.656703,0.264055,-0.0750426,0.116373,-0.278179,1.25775
0.072964,0.782306,0.277442,0.0275507,0.203678,-0.436809,1.25775
0.11889,0.658977,0.28655,0.0874665,0.269413,-0.526812,1.25775
0.0783016,0.388128,0.173281,0.0816338,0.261512,-0.536674,1.25775
0.0337913,0.221087,-0.134832,0.0205783,0.217364,-0.444205,1.25775
0.183168,0.0508466,-0.526518,0.00392932,0.133647,-0.358382,1.25775
0.478164,0.0971465,-0.656698,0.000369877,0.00806645,-0.226389,1.25775
0.821433,0.306625,-0.596994,0.0113311,-0.0240167,-0.0969008,1.25775
1.00733,0.463901,-0.480408,0.0109796,0.0293267,-0.000121057,1.25775
0.991589,0.565173,-0.477119,0.0142304,0.0797743,0.0529244,1.25775
0.851119,0.675847,-0.438497,0.0340976,0.0951898,0.0664482,1.25775
0.726856,0.805879,-0.463061,0.0235469,0.12127,0.0715212,1.25775
0.710863,1.01469,-0.604388,0.00261644,0.151393,0.0841091,1.25775
0.818082,1.22183,-0.792488,0.00454977,0.166665,0.0952343,1.25775
0.972473,1.42003,-0.923064,0.00433052,0.160955,0.119736,1.25775
1.20038,1.62212,-0.931632,0.0125127,0.130129,0.112663,1.25775
1.43037,1.56252,-0.832357,0.0306875,0.108565,0.0494363,1.25775
1.51252,1.34054,-0.694237,-0.00874175,0.0926447,0.0462614,1.25775
1.44303,1.17119,-0.589729,-0.0736022,0.0887856,0.0786986,1.25775
1.30972,0.83814,-0.502851,-0.0909712,0.0998057,0.0774397,1.25775
1.09123,0.45637,-0.405902,-0.103593,0.109731,0.104187,1.25775
0.72248,0.0796485,-0.32533,-0.150885,0.0981799,0.144351,1.25775
0.311654,-0.230887,-0.266317,-0.212707,0.0648148,0.188232,1.25775
0.0159567,-0.311679,-0.158063,-0.275902,-0.00529975,0.214917,1.25775
-0.11114,-0.380667,0.0604605,-0.32955,-0.0939766,0.170333,1.25775
-0.179154,-0.492168,0.265083,-0.342991,-0.118501,0.143117,1.25775
-0.242928,-0.596875,0.304497,-0.321949,-0.105259,0.12411,1.25775
-0.249007,-0.628157,0.16522,-0.256404,-0.101035,0.0956587,1.25775
-0.115858,-0.702201,0.0269151,-0.224479,-0.142601,0.0502113,1.25775
0.0434023,-0.765421,0.0369045,-0.188787,-0.170951,0.0448394,1.25775
0.127771,-0.710233,0.17458,-0.16549,-0.208627,0.0628029,1.25775
0.0565776,-0.563119,0.316988,-0.149144,-0.228304,0.0555084,1.25775
-0.0460199,-0.548356,0.455393,-0.0748198,-0.229167,-0.029626,1.25775
-0.141766,-0.623302,0.595849,-0.0170792,-0.193678,-0.113369,1.25775
-0.241702,-0.780252,0.691208,-0.00321677,-0.151301,-0.202367,1.25775
-0.298091,-0.912675,0.716067,-0.00498715,-0.134738,-0.28812,1.25775
-0.224092,-0.97716,0.615749,0.00413601,-0.116955,-0.347341,1.25775
-0.0755646,-0.982331,0.480505,0.00880939,-0.0871059,-0.307824,1.25775
0.0545071,-0.879084,0.411626,0.0230405,-0.0584777,-0.219268,1.25775
0.180596,-0.763727,0.439211,0.044448,-0.0497241,-0.209904,1.25775
0.180596,-0.763727,0.439211,0.044448,-0.0497241,-0.209904,1.41893
0.282688,-0.700879,0.420038,0.0266334,-0.0176644,-0.291798,1.41893
0.395583,-0.604402,0.207344,0.0241957,0.0357946,-0.316761,1.41893
0.49705,-0.0854332,-0.329669,-0.000870079,0.125075,-0.158581,1.41893
0.67906,0.596502,-0.815415,-0.0586006,0.0838482,0.0143881,1.41893
1.06541,1.54713,-1.04493,0.00903869,0.0216865,0.205504,1.41893
0.777782,2.64497,-1.62612,0.205239,0.08887,0.276309,1.41893
0.694134,3.02067,-1.66954,0.11058,0.0764431,0.388429,1.41893
0.767636,4.15885,-1.52954,0.0788588,0.0312251,0.565209,1.41893
1.1465,3.92964,-0.90465,0.635508,-0.0832352,-0.131751,1.41893
0.730786,4.45924,0.161865,0.257116,-0.0302858,0.0686665,1.41893
-0.438193,4.7304,0.695405,0.0285607,0.0893606,0.0101329,1.41893
-1.67995,5.28084,0.500795,-0.039966,0.257745,0.264721,1.41893
-2.43781,5.54523,0.637033,0.0072374,0.155894,0.385695,1.41893
-3.20628,3.59863,0.685891,-0.111725,0.158772,0.147018,1.41893
-3.79827,0.771267,0.79578,-0.154233,0.113399,0.111363,1.41893
-4.28988,-0.733817,0.968129,-0.151695,-0.0279906,0.392705,1.41893
-3.98813,-1.44725,0.70112,0.0449216,-0.128395,0.290712,1.41893
-2.47431,1.16543,0.308294,0.00690505,0.196831,0.502657,1.41893
-1.25587,0.276014,0.0627711,-0.10273,0.167962,-0.048389,1.41893
-0.294531,-0.136083,0.496281,-0.00823793,-0.0162548,0.00771797,1.41893
0.51325,-0.390007,0.929582,-0.110861,-0.0198038,-0.0254751,1.41893
1.01256,-0.571216,0.980848,-0.0538176,0.0453846,0.0107343,1.41893
1.0576,-0.990056,0.780114,-0.00550115,0.0302436,0.0412374,1.41893
0.780191,-1.36905,0.567589,0.00203407,0.00737998,0.0874531,1.41893
0.413624,-1.48172,0.346374,-0.0500384,0.0185493,0.0939866,1.41893
0.137494,-1.36606,0.0851347,-0.100757,0.0411778,0.0520499,1.41893
-0.0364391,-1.21894,-0.151343,-0.0626679,0.0189445,0.0258978,1.41893
-0.177284,-1.12316,-0.338669,-0.0297418,0.000819787,-0.0261232,1.41893
-0.262503,-1.04504,-0.444032,-0.00759093,0.0288514,-0.0912324,1.41893
-0.229879,-0.92431,-0.402245,-0.00230914,0.0338744,-0.145301,1.41893
-0.130723,-0.865233,-0.288821,-5.60284e-05,0.0428256,-0.201581,1.41893
0.111471,-1.12041,-0.162209,0.0151134,0.0237156,-0.320947,1.41893
0.510399,-1.23941,-0.0723472,0.0120979,0.017874,-0.3402,1.41893
0.966261,-0.990173,0.023525,-0.0154244,0.0842223,-0.332269,1.41893
1.29538,-0.404239,0.219757,-0.0689287,0.138346,-0.277957,1.41893
1.23631,0.076733,0.413805,-0.0824834,0.112686,-0.261355,1.41893
0.654113,0.122719,0.380978,-0.035861,0.0343457,-0.232444,1.41893
-0.209267,-0.243264,0.0394909,0.0105849,-0.0507701,-0.228141,1.41893
-0.87561,-0.645654,-0.370529,0.020537,-0.133624,-0.243883,1.41893
-1.02601,-0.883375,-0.677549,0.000865132,-0.127937,-0.293385,1.41893
-0.701819,-0.816199,-0.852255,-0.0181036,-0.0317461,-0.273211,1.41893
-0.247,-0.396633,-0.790995,0.00254059,0.00771801,-0.1229,1.41893
-0.0249714,0.0561492,-0.535415,0.00416512,0.0116165,0.0471365,1.41893
-0.124585,0.231815,-0.288158,-0.0310876,-0.0195736,0.172977,1.41893
-0.421139,0.191428,-0.198172,-0.0526047,-0.0677324,0.269655,1.41893
-0.671472,-0.124493,-0.290404,-0.0552425,-0.0994189,0.239081,1.41893
-0.675031,-0.37716,-0.511177,-0.0726713,-0.0779222,0.210482,1.41893
-0.466264,-0.370159,-0.766868,-0.100852,-0.041502,0.189286,1.41893
-0.18504,-0.225545,-0.937624,-0.108581,-0.0487657,0.169087,1.41893
0.0929379,-0.0400882,-0.970518,-0.0950473,-0.0829544,0.146246,1.41893
0.0929379,-0.0400882,-0.970518,-0.0950473,-0.0829544,0.146246,1.59596
0.326783,0.128443,-0.984302,-0.0805198,-0.0723648,0.174764,1.59596
0.40462,0.0669856,-1.04705,-0.0351273,-0.0319853,0.168854,1.59596
0.267652,-0.0248574,-1.05606,-0.0282229,-0.0305889,0.221772,1.59596
0.135742,-0.326855,-1.05197,-0.0557885,-0.00911051,0.157293,1.59596
0.226064,-0.416401,-1.03537,-0.0595575,-0.0100777,0.158415,1.59596
0.454442,-0.27969,-0.942273,-0.06502,0.00506182,0.145533,1.59596
0.624559,-0.00928662,-0.772319,-0.0445708,0.0247474,0.181328,1.59596
0.605254,0.0751,-0.560134,0.00794665,0.00761776,0.169687,1.59596
0.4606,-0.0606234,-0.342487,0.0492386,-0.0194214,0.125959,1.59596
0.319283,-0.236414,-0.163608,0.0476828,-0.0296476,0.0978146,1.59596
0.199002,-0.349801,-0.0457494,0.0199931,-0.00548173,0.0688845,1.59596
0.117417,-0.377041,0.0174045,0.0108021,-0.00401661,0.0444757,1.59596
0.0327051,-0.379199,0.0377124,0.0330767,-0.0258712,0.0196027,1.59596
-0.0637486,-0.48726,0.015227,0.0614405,-0.0446732,-0.0645012,1.59596
-0.0858001,-0.544739,-0.00940259,0.0867947,-0.0524945,-0.159693,1.59596
0.0202979,-0.391509,0.00456866,0.0641102,-0.0281871,-0.206511,1.59596
0.109854,-0.178726,0.0668751,0.033526,0.0109558,-0.253167,1.59596
0.186693,0.00720262,0.155085,0.00220934,0.0419055,-0.267094,1.59596
0.293368,0.0658613,0.215102,0.00827717,0.0300915,-0.260545,1.59596
0.307623,-0.000179414,0.237401,0.0562817,0.0098571,-0.273177,1.59596
0.137056,-0.0339148,0.214955,0.0592399,-0.00115696,-0.274104,1.59596
-0.115956,-0.0368951,0.174355,0.00295581,0.00724113,-0.301657,1.59596
-0.17693,0.157831,0.128831,-0.0265722,0.0183722,-0.258591,1.59596
0.00308402,0.39031,0.102909,-0.010608,0.0298425,-0.160091,1.59596
0.214226,0.491732,0.11262,0.00541546,0.0369491,-0.0307024,1.59596
0.285655,0.451491,0.120531,0.00686779,0.0395266,0.0797981,1.59596
0.235002,0.305037,0.106114,0.019423,0.025349,0.150165,1.59596
0.149804,0.148797,0.0475293,0.0484969,0.015107,0.209729,1.59596
0.0637116,0.115883,-0.0288406,0.0553062,0.0139583,0.246774,1.59596
-0.0339656,0.259977,-0.130311,0.0250974,0.0286658,0.293762,1.59596
-0.197611,0.368442,-0.259278,-0.0106281,0.0238862,0.31344,1.59596
-0.277498,0.162589,-0.345105,0.0189199,0.0164576,0.28293,1.59596
-0.200524,-0.169209,-0.302081,0.0984898,-0.0200532,0.284211,1.59596
-0.12986,-0.439267,-0.212853,0.100835,-0.0508478,0.282369,1.59596
-0.145433,-0.281625,-0.264344,0.0715789,-0.0140686,0.313194,1.59596
-0.285855,0.0857527,-0.418195,0.0665495,-0.00380331,0.282792,1.59596
-0.538088,0.234656,-0.510469,0.100849,-0.0231312,0.219139,1.59596
-0.777319,0.000711024,-0.514666,0.160576,-0.0199084,0.110454,1.59596
-0.778421,-0.32291,-0.437728,0.239572,-0.0324977,0.0220616,1.59596
-0.482689,-0.36795,-0.267726,0.270511,-0.0541176,-0.0110691,1.59596
-0.0437043,-0.250727,-0.01315,0.24306,-0.0541006,-0.0628644,1.59596
0.336373,-0.106086,0.240232,0.189424,-0.0573317,-0.0888126,1.59596
0.581113,-0.305086,0.497115,0.156046,-0.0534583,-0.185608,1.59596
0.645565,-0.378439,0.778405,0.131681,0.0115167,-0.168986,1.59596
0.649112,0.147958,1.21822,0.106583,-0.0422617,-0.0664158,1.59596
0.449878,0.339371,1.81337,0.0579206,-0.00238539,-0.178459,1.59596
0.101262,-0.0172367,2.1249,-0.0118344,0.0960377,-0.33474,1.59596
-0.0509186,0.02135,2.10904,-0.0638405,0.0591039,-0.288184,1.59596
-0.00421334,0.186454,1.85963,-0.0745429,-0.00202799,-0.250936,1.59596
0.125068,-0.0322481,1.45165,-0.0644644,0.0166501,-0.338177,1.59596
0.125068,-0.0322481,1.45165,-0.0644644,0.0166501,-0.338177,1.77301
0.311437,-0.465861,0.981753,-0.0571217,0.0311066,-0.393479,1.77301
0.66795,-0.78933,0.566707,-0.0253474,0.0290193,-0.489965,1.77301
1.02499,-0.68541,0.219195,-0.103791,0.0808683,-0.378593,1.77301
1.17922,-0.546105,-0.000440804,-0.156194,0.147025,-0.291881,1.77301
1.19242,-0.446699,-0.128986,-0.177844,0.144806,-0.228884,1.77301
1.13339,-0.342042,-0.143743,-0.135291,0.0711437,-0.171456,1.77301
0.959078,-0.444386,-0.110815,-0.074173,0.00516611,-0.177786,1.77301
0.567403,-0.580069,-0.192695,-0.0653875,-0.0114922,-0.159794,1.77301
0.0880768,-0.523599,-0.419771,-0.101678,0.0112525,-0.083717,1.77301
-0.128863,0.0284744,-0.714542,-0.167369,0.0553533,0.0379902,1.77301
-0.127375,0.761513,-0.99229,-0.181889,0.119018,0.164678,1.77301
-0.171902,1.13173,-1.10759,-0.144477,0.151458,0.223042,1.77301
-0.30912,1.16488,-1.01365,-0.128805,0.0803502,0.280259,1.77301
-0.480955,0.944177,-0.777386,-0.118572,0.0536502,0.313628,1.77301
-0.615242,0.714111,-0.570428,-0.126401,0.0602431,0.347483,1.77301
-0.648872,0.611275,-0.535932,-0.109988,0.0855571,0.352675,1.77301
-0.552881,0.509157,-0.642691,-0.0710026,0.119001,0.344561,1.77301
-0.364148,0.329186,-0.719739,-0.0488949,0.127239,0.324915,1.77301
-0.166714,0.00761498,-0.676122,-0.0731367,0.112959,0.264515,1.77301
0.0228596,-0.316492,-0.551183,-0.0860184,0.0806338,0.220469,1.77301
0.196054,-0.432703,-0.457932,-0.0674469,0.0743972,0.226786,1.77301
0.338621,-0.28908,-0.401858,-0.0476337,0.0849274,0.265402,1.77301
0.360715,-0.124148,-0.361557,-0.0439771,0.0802551,0.270406,1.77301
0.17619,-0.0278126,-0.343721,-0.041525,0.0351398,0.252609,1.77301
-0.0783847,-0.072766,-0.331576,0.0260845,-0.0061309,0.193812,1.77301
-0.183743,-0.16953,-0.294819,0.0746465,-0.00750285,0.14992,1.77301
-0.163386,-0.285901,-0.209267,0.0688071,-0.00407675,0.127525,1.77301
-0.186104,-0.360227,-0.130149,-0.0113895,-0.0381743,0.128437,1.77301
-0.272635,-0.296931,-0.215303,-0.0656812,-0.0705765,0.099572,1.77301
-0.282986,-0.189953,-0.456367,-0.0264143,-0.0571678,-0.00343537,1.77301
-0.234827,-0.0840954,-0.670969,0.0321649,-0.0300127,-0.0482366,1.77301
-0.2066,-0.0642225,-0.71633,0.0295823,-0.0427015,-0.124881,1.77301
-0.121608,-0.114012,-0.689991,-0.0502473,-0.0532272,-0.265157,1.77301
0.151511,-0.0201272,-0.705096,-0.061515,-0.0362638,-0.349672,1.77301
0.446715,0.249872,-0.702716,-0.0203012,-0.0134125,-0.322433,1.77301
0.511844,0.446292,-0.561229,0.0121131,-0.0297246,-0.222785,1.77301
0.343748,0.427974,-0.315441,0.0192818,-0.0558742,-0.164735,1.77301
0.183031,0.523317,-0.144339,-0.00563796,-0.0378221,-0.129226,1.77301
0.0206191,0.524524,-0.225179,-0.0581095,0.0236892,-0.142299,1.77301
-0.168467,0.180227,-0.428172,-0.0264135,0.0404365,-0.199696,1.77301
-0.219245,-0.156918,-0.542615,-0.0129171,0.0346568,-0.17167,1.77301
-0.056936,-0.425804,-0.525149,-0.0191664,0.0529713,-0.135958,1.77301
0.17806,-0.404092,-0.445195,0.0154415,0.0712216,-0.0391784,1.77301
0.262412,-0.0108806,-0.377766,0.0497224,0.0720804,0.0802745,1.77301
0.131877,0.372207,-0.245549,0.0642859,0.0600095,0.123996,1.77301
-0.148069,0.374237,-0.0275682,0.0932387,0.0594223,0.105982,1.77301
-0.308898,0.270901,0.158688,0.108447,0.0473257,0.0697663,1.77301
-0.255905,0.264684,0.224406,0.0753877,0.0525897,0.0960768,1.77301
-0.112625,0.185723,0.204625,0.0516002,0.0580091,0.106859,1.77301
0.0161089,0.146608,0.209471,0.0579106,0.0585503,0.156483,1.77301
0.0161089,0.146608,0.209471,0.0579106,0.0585503,0.156483,1.95796
0.0611873,0.0774356,0.252448,0.0860982,0.0638569,0.181817,1.95796
0.039537,-0.000795784,0.323138,0.106961,0.0555771,0.201382,1.95796
0.000719019,0.0944214,0.356944,0.0912062,0.0509627,0.235983,1.95796
-0.0443045,0.217255,0.3421,0.0621424,0.0475273,0.244746,1.95796
-0.0940899,0.216859,0.340153,0.052635,0.040474,0.221046,1.95796
-0.096657,0.18005,0.361517,0.0767523,0.0384687,0.201544,1.95796
-0.108618,0.153092,0.406514,0.0886336,0.0232637,0.210308,1.95796
-0.171943,0.0286738,0.389493,0.0728434,0.0254901,0.202348,1.95796
-0.299777,-0.141118,0.337568,0.06502,0.032917,0.200065,1.95796
-0.458947,-0.434094,0.280537,0.0659686,0.0469938,0.124175,1.95796
-0.453832,-0.5487,0.228171,0.08038,0.045664,0.0194162,1.95796
-0.27718,-0.223267,0.179712,0.0462171,0.0690857,0.017592,1.95796
-0.159521,0.172318,0.279053,0.031539,0.0619837,0.0346757,1.95796
-0.22399,0.311159,0.487536,0.0284421,0.0359648,0.0141495,1.95796
-0.416571,0.135008,0.582035,0.0403488,0.00442313,-0.0710551,1.95796
-0.520308,-0.0456473,0.461263,0.0933175,-0.0137118,-0.170394,1.95796
-0.40764,0.0827108,0.30191,0.111428,-0.0308302,-0.231759,1.95796
-0.323078,0.12745,0.318775,0.0746401,-0.0183005,-0.287928,1.95796
-0.466416,0.0564623,0.4776,-0.00271714,-0.0264803,-0.359411,1.95796
-0.591838,-0.108245,0.569049,-0.0293731,-0.0184908,-0.469041,1.95796
-0.450169,0.000360426,0.496888,0.0234823,-0.00392625,-0.462048,1.95796
-0.153128,0.214195,0.380723,0.061646,0.0047048,-0.417692,1.95796
0.0430639,0.325427,0.398575,0.0423114,-0.021502,-0.364971,1.95796
-0.210091,0.38121,0.398775,-0.00449645,-0.0169498,-0.313452,1.95796
-0.0364831,0.193799,0.182332,0.00173847,0.0341645,-0.218842,1.95796
0.450888,-0.680786,-0.082847,0.0928626,-0.0389538,-0.320535,1.95796
0.428895,-0.942045,-0.145362,0.0122871,0.0107486,-0.282473,1.95796
0.418892,-0.352945,-0.134464,-0.0495049,0.0470183,-0.120821,1.95796
0.334557,0.0122842,-0.00595656,-0.0657844,0.0779321,0.00517339,1.95796
