attitude_roll,attitude_pitch,attitude_yaw,rotationRate_x,rotationRate_y,rotationRate_z,acceleration_x,acceleration_y,acceleration_z
0.10923,0.285268,-0.0157017,-0.75634,-0.183713,-1.66913,-0.0599752,0.175091,0.042811
0.110302,0.271085,-0.0452517,-0.31078,-0.490324,-1.31379,0.0220848,0.169724,0.0277246
0.10546,0.267202,-0.0689238,0.143212,-0.579537,-1.03858,-0.00903076,0.133373,0.0322901
0.100495,0.269875,-0.0897934,0.263816,-0.465945,-0.971704,-0.0390317,0.0709319,0.109042
0.0976259,0.271828,-0.110494,0.102399,-0.35762,-1.01675,-0.0355424,0.0158377,0.177659
0.0980292,0.269491,-0.132143,-0.138627,-0.206237,-1.07993,-0.00962299,-0.00594503,0.212468
0.0995078,0.262505,-0.153702,-0.331628,-0.237617,-1.0473,0.0399849,-0.00725347,0.192808
0.0987953,0.253758,-0.17318,-0.324432,-0.32765,-0.906985,0.0943433,-0.00242063,0.104293
0.0953712,0.246844,-0.189277,-0.213233,-0.427192,-0.714833,0.121435,-0.00483084,0.019191
0.0888628,0.242559,-0.201727,-0.108476,-0.478647,-0.544159,0.116901,-0.0212563,-0.0649031
0.0835705,0.240283,-0.212009,-0.0358004,-0.272266,-0.500012,0.0664011,-0.0556475,-0.148834
0.0822438,0.238917,-0.222559,-0.0322833,-0.169054,-0.541331,0.0158855,-0.0779708,-0.178219
0.079923,0.236868,-0.233869,-0.0719067,-0.348615,-0.573984,-0.0208308,-0.0431113,-0.199009
0.0756968,0.235068,-0.245799,-8.71241e-05,-0.293604,-0.59695,-0.0234197,-0.00909485,-0.252561
0.0752159,0.235513,-0.258022,0.141713,-0.0200018,-0.57548,-0.0254327,0.0239459,-0.245214
0.0801634,0.239345,-0.269112,0.320376,0.2296,-0.466269,-0.0134333,0.0542203,-0.144496
0.0877703,0.245996,-0.278179,0.391746,0.270626,-0.373009,-0.00532209,0.0477523,0.00195891
0.0940588,0.252892,-0.286286,0.359686,0.176037,-0.361356,-0.0136928,0.0314705,0.100983
0.098952,0.258221,-0.294696,0.235247,0.0676527,-0.408132,-0.0213576,0.0121204,0.173832
0.0998719,0.260198,-0.304123,0.0612372,-0.239984,-0.486574,0.00298487,-0.00992513,0.194327
0.0952058,0.259305,-0.314898,-0.0529685,-0.483898,-0.556692,0.0315749,-0.0119935,0.1319
0.0865808,0.255306,-0.326282,-0.266116,-0.653902,-0.564932,0.0381411,0.0217063,0.0804779
0.0762684,0.247023,-0.337105,-0.450947,-0.605223,-0.559061,0.0413985,0.0287748,-0.0435655
0.0692635,0.236572,-0.348571,-0.507996,-0.365818,-0.631002,0.0269882,0.0315826,-0.16878
0.0662959,0.22491,-0.360947,-0.576232,-0.252122,-0.632942,0.0489465,0.0499841,-0.200652
0.0639896,0.213158,-0.371878,-0.487188,-0.194919,-0.496157,0.0908979,0.0611416,-0.249547
0.0635107,0.205763,-0.379539,-0.191102,-0.00448264,-0.289074,0.102055,0.0765981,-0.268201
0.065736,0.204761,-0.38282,0.0987368,0.149309,-0.0422333,0.0741266,0.0886939,-0.17718
0.068917,0.208864,-0.382065,0.295296,0.143413,0.126884,0.02025,0.0650755,-0.0307537
0.069202,0.21621,-0.379107,0.406512,-0.0696912,0.197724,-0.00904998,0.0441959,0.105727
0.0651253,0.224725,-0.375583,0.401431,-0.249949,0.195544,-0.0360381,0.0349107,0.198894
0.057691,0.231651,-0.372244,0.252871,-0.423491,0.17626,-0.0438203,0.0338294,0.287298
0.0467982,0.234741,-0.369235,0.0452553,-0.607354,0.128784,-0.0453609,0.0257434,0.333082
0.0325411,0.23469,-0.367678,-0.0333787,-0.759355,0.0097678,-0.0620848,0.0147983,0.29478
0.0170001,0.234497,-0.369398,0.0215722,-0.831799,-0.178583,-0.0594876,0.00704275,0.257784
0.00133531,0.235328,-0.374622,0.055538,-0.860496,-0.318455,-0.0192124,0.016808,0.262079
-0.0134819,0.236864,-0.381771,0.0929252,-0.761221,-0.367402,0.0410591,0.0395564,0.262502
-0.0250067,0.239386,-0.389308,0.135375,-0.572262,-0.367247,0.0886679,0.0670161,0.285816
-0.0333372,0.24242,-0.396602,0.140729,-0.447182,-0.351724,0.117973,0.0797896,0.331976
-0.0399227,0.245387,-0.403725,0.125718,-0.398594,-0.36405,0.129262,0.0783809,0.368639
-0.0455841,0.248171,-0.411729,0.126869,-0.359124,-0.43319,0.129881,0.0721089,0.370181
-0.0498427,0.251654,-0.421124,0.18343,-0.296207,-0.489745,0.155766,0.0685255,0.343169
-0.0523176,0.256536,-0.431142,0.259908,-0.196391,-0.495865,0.175598,0.08883,0.312356
-0.0524304,0.262828,-0.440604,0.313602,-0.0669949,-0.44694,0.195794,0.101167,0.291954
-0.0505607,0.269445,-0.448857,0.294208,0.0610569,-0.372134,0.197489,0.113761,0.257029
-0.0441646,0.274336,-0.455254,0.138253,0.41261,-0.2755,0.18407,0.092792,0.185895
-0.0310892,0.274342,-0.460762,-0.171811,0.730795,-0.271368,0.189422,0.00371706,0.0729631
-0.0132635,0.268099,-0.467327,-0.452695,0.833812,-0.372221,0.15111,-0.100412,-0.137325
0.00203056,0.255341,-0.477971,-0.885869,0.332204,-0.693543,-0.00127815,-0.116565,-0.341202
0.00691524,0.231886,-0.496883,-1.42687,-0.247808,-1.17609,-0.0531932,-0.224822,-0.589166
0.00572099,0.199561,-0.526074,-1.78601,-0.444779,-1.68792,-0.0682601,-0.235004,-0.89648
0.0046796,0.160558,-0.56237,-2.09803,-0.230835,-1.82643,-0.141323,-0.00449893,-1.07276
0.0046796,0.160558,-0.56237,-2.09803,-0.230835,-1.82643,-0.141323,-0.00449893,-1.07276
0.0108221,0.117342,-0.595109,-2.15574,0.406823,-1.36244,-0.106893,0.167748,-1.14341
0.0263901,0.0782681,-0.612826,-1.61761,0.954451,-0.423597,0.0607756,0.103304,-1.10245
0.048863,0.0571396,-0.610455,-0.455129,1.26442,0.549183,0.124027,-0.00270586,-0.927995
0.0745949,0.0609597,-0.592854,0.64929,1.36787,1.16999,-0.0151375,-0.0552432,-0.545603
0.0978569,0.0816553,-0.568467,1.09362,1.09473,1.37566,-0.158777,-0.118737,-0.0905892
0.113543,0.105232,-0.544261,0.931511,0.706609,1.24336,-0.23839,-0.206836,0.289777
0.122109,0.122501,-0.524103,0.554612,0.404468,0.942298,-0.272092,-0.260908,0.50512
0.125999,0.132298,-0.509288,0.262075,0.180893,0.663932,-0.26002,-0.256882,0.589788
0.126218,0.137577,-0.497788,0.154623,-0.00145168,0.563643,-0.208953,-0.209582,0.612203
0.123133,0.142785,-0.486982,0.255505,-0.133686,0.573034,-0.188254,-0.140766,0.593169
0.118686,0.151082,-0.476042,0.43441,-0.142545,0.603411,-0.18577,-0.0921678,0.600291
0.11423,0.162475,-0.465155,0.564318,-0.133569,0.592283,-0.184716,-0.0742011,0.633063
0.10971,0.17598,-0.455087,0.657967,-0.14741,0.549625,-0.143291,-0.0609045,0.668532
0.104921,0.190728,-0.445559,0.701122,-0.16974,0.555902,-0.0892335,-0.0233932,0.706738
0.0983674,0.205671,-0.435163,0.678259,-0.296038,0.619737,-0.0585567,0.0269474,0.725275
0.0875681,0.219726,-0.423201,0.610332,-0.550954,0.670805,-0.0424764,0.0508326,0.710438
0.0704793,0.231733,-0.410775,0.484786,-0.892242,0.613971,-0.052227,0.0494276,0.642896
0.0463838,0.240502,-0.400506,0.346099,-1.27612,0.421811,-0.0547678,0.0286868,0.474508
0.0173588,0.247778,-0.394106,0.391447,-1.39751,0.242172,0.0142848,0.00120118,0.177871
-0.0101208,0.255567,-0.389542,0.312296,-1.27737,0.223167,0.0956225,0.0789813,-0.0515113
-0.0384275,0.256131,-0.384552,-0.299212,-1.46815,0.259433,0.0920048,0.18878,-0.262112
-0.0695719,0.243627,-0.381554,-0.910378,-1.50888,0.0350883,0.00383374,0.151762,-0.635852
-0.0955904,0.221565,-0.38815,-1.31792,-1.18976,-0.501816,-0.091123,0.0893706,-1.03168
-0.109117,0.194965,-0.405748,-1.46726,-0.491864,-0.89269,-0.0621845,0.119849,-1.30255
-0.108273,0.169341,-0.428003,-1.27357,0.121457,-0.955609,-0.0126551,0.252517,-1.36923
-0.0988042,0.150017,-0.447359,-0.832304,0.502305,-0.699257,0.0618605,0.342555,-1.21546
-0.0835808,0.13926,-0.457847,-0.35128,0.875732,-0.232426,0.169345,0.270463,-0.937973
-0.0627213,0.135999,-0.459225,-0.0228446,1.17632,0.0798425,0.151915,0.145011,-0.574887
-0.0378058,0.136438,-0.456194,0.0371751,1.35019,0.205358,0.0731206,0.052504,-0.200095
-0.0107692,0.135929,-0.451412,-0.100078,1.39877,0.256049,0.012989,-0.0468009,0.106762
0.0152464,0.132135,-0.446672,-0.276819,1.23355,0.200949,-0.0254431,-0.137658,0.315783
0.0357269,0.125787,-0.443606,-0.345449,0.842959,0.084169,-0.0394044,-0.201068,0.425304
0.0478404,0.11935,-0.442991,-0.288838,0.377398,-0.0452264,-0.0487485,-0.223172,0.475912
0.0511289,0.114548,-0.444369,-0.1757,-0.0426044,-0.0922854,-0.0191556,-0.199072,0.505774
0.0477766,0.112703,-0.445132,0.0108479,-0.259435,0.029195,0.0356438,-0.155724,0.491912
0.0421588,0.115645,-0.442633,0.276277,-0.257405,0.238183,0.0577598,-0.106597,0.485282
0.0366089,0.124063,-0.435919,0.536675,-0.205158,0.45972,0.0541804,-0.0749092,0.506038
0.0318382,0.136984,-0.425533,0.690832,-0.151386,0.601037,0.0361686,-0.0568338,0.560595
0.0265859,0.151941,-0.413184,0.768941,-0.200904,0.654133,0.0126487,-0.042124,0.604371
0.0201927,0.168342,-0.400573,0.835048,-0.248378,0.617779,-0.0100183,-0.0203179,0.615836
0.012493,0.185404,-0.389727,0.852937,-0.321998,0.470519,-0.0380507,-0.00777991,0.584683
0.00528598,0.202294,-0.381864,0.822029,-0.211563,0.33043,-0.01177,0.0201463,0.510616
0.00189166,0.217799,-0.375361,0.727713,-0.0313349,0.333081,0.0795739,0.0592821,0.441553
-0.000446562,0.230347,-0.367771,0.485564,-0.0430874,0.413983,0.14724,0.0750255,0.330597
-0.00483858,0.235628,-0.35859,0.0270133,-0.241031,0.459948,0.154622,0.0949646,0.0995082
-0.0179443,0.230848,-0.351007,-0.49866,-0.922608,0.225796,0.0241812,0.128584,-0.288037
-0.0377221,0.216559,-0.352678,-0.91138,-0.895804,-0.392306,-0.16434,0.0677449,-0.758915
-0.0445991,0.196494,-0.368112,-1.14887,-0.0891894,-0.983856,-0.224706,0.0571707,-1.09094
-0.0361028,0.172076,-0.391901,-1.41205,0.413075,-1.19779,-0.21717,0.258188,-1.15045
-0.0228496,0.142219,-0.415751,-1.60306,0.53967,-1.00846,-0.207654,0.398637,-1.13403
-0.0228496,0.142219,-0.415751,-1.60306,0.53967,-1.00846,-0.207654,0.398637,-1.13403
-0.00643763,0.11277,-0.430835,-1.28821,0.980927,-0.404696,-0.108456,0.296018,-1.12821
0.0186885,0.0940583,-0.432179,-0.556988,1.49364,0.235788,-0.0621382,0.140291,-0.927095
0.050137,0.09018,-0.422961,0.0788097,1.66421,0.636484,-0.147035,0.00634816,-0.526784
0.0793768,0.0951538,-0.408895,0.254614,1.3475,0.743122,-0.262147,-0.126654,-0.114927
0.100229,0.100053,-0.396303,0.0969118,0.873326,0.515781,-0.357541,-0.265317,0.170456
0.113643,0.1006,-0.389817,-0.102786,0.573616,0.121913,-0.380403,-0.350314,0.309266
0.123765,0.0970926,-0.390568,-0.220202,0.465183,-0.214324,-0.354481,-0.344771,0.370673
0.133467,0.0917291,-0.396126,-0.219699,0.461523,-0.374054,-0.301777,-0.284864,0.40738
0.143435,0.0873144,-0.403259,-0.106004,0.472996,-0.375606,-0.24033,-0.231644,0.439925
0.152433,0.085648,-0.409959,0.0314877,0.334389,-0.3091,-0.192959,-0.205793,0.492808
0.156952,0.0864388,-0.415686,0.131619,0.0690488,-0.24005,-0.147073,-0.198642,0.534451
0.156385,0.0895278,-0.420024,0.238873,-0.147483,-0.13619,-0.106708,-0.164666,0.547958
0.152432,0.0953676,-0.422146,0.370873,-0.242179,0.0236935,-0.0666337,-0.112983,0.549725
0.146991,0.104678,-0.420849,0.541755,-0.286339,0.252127,-0.0370027,-0.0651754,0.538733
0.139849,0.118425,-0.415496,0.741868,-0.397249,0.458904,-0.0264943,-0.0356445,0.52096
0.129048,0.135803,-0.407476,0.859093,-0.556988,0.552391,-0.0345336,-0.0237169,0.484538
0.117476,0.154377,-0.398173,0.854551,-0.398993,0.596174,-0.0111373,-0.0138687,0.386952
0.111465,0.172269,-0.387249,0.813435,-0.0285851,0.694552,0.0343788,0.0122844,0.213276
0.110363,0.189384,-0.374246,0.717624,0.0482013,0.749642,0.0756372,0.0159365,0.0352579
0.100085,0.200704,-0.361597,0.187,-1.04524,0.557778,0.126743,-0.00440636,-0.126097
0.0645027,0.197149,-0.354792,-0.580299,-2.17583,0.0469845,0.0546342,0.0335968,-0.487444
0.0245448,0.180587,-0.358981,-0.985293,-1.70008,-0.492925,0.0356558,0.0376391,-1.03649
0.00333372,0.161255,-0.371379,-0.870392,-0.692878,-0.688829,0.120367,0.162037,-1.36952
-0.0041392,0.146858,-0.383866,-0.598478,-0.35585,-0.519497,0.168798,0.357573,-1.28821
-0.0103588,0.135529,-0.392973,-0.574449,-0.384357,-0.412467,0.0822392,0.375761,-1.06675
-0.0141726,0.124411,-0.402319,-0.522772,-0.0233711,-0.526024,0.0347076,0.209844,-0.927201
-0.0053608,0.116248,-0.414679,-0.292858,0.799492,-0.679012,0.0361015,0.107503,-0.727085
0.0194716,0.112674,-0.428323,-0.073208,1.46012,-0.649377,0.0600903,0.103585,-0.387556
0.0526578,0.112231,-0.43966,0.0602682,1.68168,-0.465977,0.0578508,0.0857964,-0.0335934
0.0856427,0.113877,-0.447049,0.146746,1.489,-0.263725,0.0287855,0.0251304,0.243391
0.111376,0.116738,-0.451524,0.172012,1.00945,-0.174747,-0.0268168,-0.0474671,0.442896
0.126005,0.119308,-0.455458,0.118801,0.409018,-0.195289,-0.061409,-0.104791,0.564487
0.129263,0.119969,-0.460192,-0.000310454,-0.105467,-0.269007,-0.075944,-0.139275,0.615847
0.124925,0.118065,-0.466089,-0.104245,-0.366148,-0.327053,-0.0826256,-0.12844,0.597574
0.117719,0.115179,-0.472091,-0.0898626,-0.393424,-0.287187,-0.065308,-0.0854077,0.549655
0.110533,0.113821,-0.476571,0.0249484,-0.384661,-0.159345,-0.0580806,-0.0475115,0.523309
0.103068,0.116383,-0.478414,0.27101,-0.38514,0.00583428,-0.0670797,-0.0175774,0.493717
0.09539,0.124702,-0.47781,0.536542,-0.387165,0.118429,-0.0830922,-0.0120952,0.499458
0.0866799,0.137142,-0.476776,0.672263,-0.475729,0.074627,-0.101521,-0.0353456,0.529967
0.0765882,0.150668,-0.477736,0.666717,-0.549646,-0.0633004,-0.0918209,-0.0484029,0.551996
0.0652412,0.162549,-0.481025,0.530095,-0.644732,-0.166712,-0.0597122,-0.02176,0.542137
0.0525863,0.171639,-0.485451,0.424198,-0.678154,-0.21219,-0.0263991,0.00629206,0.448635
0.040041,0.179637,-0.490884,0.401835,-0.672528,-0.304415,-0.0321383,0.0282209,0.309628
0.0286336,0.18685,-0.499232,0.351084,-0.630457,-0.500485,-0.0584201,0.05283,0.171645
0.0191164,0.193542,-0.511335,0.357681,-0.528933,-0.662198,-0.0498711,0.0678394,0.012049
0.0139082,0.20031,-0.525733,0.317234,-0.267067,-0.724913,-0.0102271,0.0807179,-0.101663
0.0128096,0.204092,-0.540338,0.0509942,-0.182268,-0.695202,0.0339501,0.0812186,-0.150855
0.0122576,0.201559,-0.554444,-0.281029,-0.159923,-0.718205,-0.0125738,0.0560471,-0.263207
0.013043,0.193314,-0.570923,-0.518724,-0.0577493,-0.951537,-0.0805946,-0.0383258,-0.42168
0.0176806,0.17943,-0.594576,-0.889103,0.0253467,-1.44598,-0.157533,-0.105253,-0.527057
0.0210914,0.154365,-0.630391,-1.58662,-0.308366,-2.13517,-0.221538,-0.0744118,-0.614237
0.0210914,0.154365,-0.630391,-1.58662,-0.308366,-2.13517,-0.221538,-0.0744118,-0.614237
0.0198859,0.11604,-0.676251,-2.06566,-0.329623,-2.39145,-0.0680297,0.0313373,-0.844843
0.023406,0.0759705,-0.719257,-1.73716,0.375251,-1.86969,0.157663,0.194672,-1.12007
0.0423911,0.0491653,-0.745614,-0.834777,1.31285,-0.804188,0.27765,0.262677,-1.05742
0.0727566,0.0412683,-0.750411,0.0190907,1.57109,0.212571,0.249284,0.154675,-0.663483
0.0987892,0.0473921,-0.741412,0.437459,0.974663,0.647788,0.0799183,-0.0264323,-0.225704
0.109072,0.0576067,-0.729706,0.390839,0.139091,0.556303,-0.0681179,-0.199658,0.0783766
0.106334,0.0635959,-0.722745,0.124278,-0.268942,0.189387,-0.14254,-0.305633,0.203249
0.101847,0.0637682,-0.72248,-0.0897731,-0.131508,-0.134817,-0.169427,-0.273311,0.211256
0.102427,0.0608476,-0.726476,-0.128887,0.172026,-0.255419,-0.148171,-0.192165,0.201597
0.108587,0.0589406,-0.731144,0.0070816,0.383705,-0.209119,-0.10318,-0.154869,0.236052
0.116903,0.0608783,-0.73454,0.228987,0.40709,-0.10296,-0.0875818,-0.134319,0.308977
0.12442,0.0672434,-0.736411,0.409777,0.32786,-0.0118229,-0.093332,-0.121452,0.408637
0.1297,0.0761749,-0.736996,0.469053,0.191155,0.0587724,-0.103708,-0.115473,0.50815
0.131672,0.0856097,-0.737159,0.477874,0.0154839,0.0316508,-0.140866,-0.123601,0.538388
0.131303,0.0955417,-0.739011,0.541156,-0.0552967,-0.0869325,-0.154057,-0.138719,0.49627
0.130293,0.107122,-0.743276,0.662793,-0.063202,-0.170315,-0.118163,-0.123399,0.443314
0.130828,0.12089,-0.748497,0.745373,0.0507662,-0.153449,-0.0784476,-0.0729616,0.422008
0.132255,0.134699,-0.752893,0.667206,0.0139652,-0.104356,-0.0722953,-0.0274206,0.422153
0.13161,0.146784,-0.756525,0.596856,-0.161382,-0.110121,-0.0822731,-0.0227794,0.361307
0.126528,0.158401,-0.761432,0.634034,-0.393147,-0.23815,-0.103828,-0.0133117,0.23508
0.120482,0.171353,-0.769455,0.768606,-0.282429,-0.375457,-0.107871,0.0129836,0.080034
0.120226,0.187274,-0.779594,0.915842,0.0539189,-0.405525,-0.067745,0.0603116,-0.0328166
0.123287,0.204243,-0.789194,0.857705,-0.0334861,-0.315668,0.0346413,0.0421507,-0.0500834
0.118066,0.217966,-0.797334,0.561676,-0.751929,-0.349915,0.0639348,0.00204101,-0.0988475
0.0966065,0.223142,-0.807441,0.0489693,-1.53579,-0.59372,0.000371665,0.0117912,-0.272764
0.0675186,0.218863,-0.821524,-0.291837,-1.55983,-0.800306,-0.0196085,0.0144527,-0.566683
0.0463675,0.21225,-0.839181,-0.240044,-0.868122,-0.947749,-0.0136641,0.0527923,-0.813256
0.0401062,0.207225,-0.858454,-0.233018,-0.241864,-0.938511,0.0513995,0.0924024,-0.785487
0.0404546,0.199696,-0.876815,-0.47766,-0.143531,-0.92117,0.0437036,0.109153,-0.617843
0.0411521,0.186734,-0.896309,-0.707171,-0.143976,-1.06363,-0.0141497,0.0672886,-0.538877
0.0441718,0.172061,-0.91873,-0.627407,0.0923651,-1.19709,-0.00505336,0.0200596,-0.525752
0.0533919,0.160337,-0.942654,-0.440895,0.422113,-1.19594,0.0409916,0.0327892,-0.391812
0.0679074,0.151204,-0.964629,-0.365497,0.674588,-1.01638,0.0781368,0.0514163,-0.168458
0.0849005,0.142573,-0.982038,-0.364208,0.729871,-0.773697,0.0745396,0.032975,0.0417541
0.09975,0.134648,-0.994981,-0.299055,0.550475,-0.597595,0.0319777,-0.0145466,0.189544
0.109062,0.128591,-1.00541,-0.19479,0.237364,-0.497168,-0.00876477,-0.0590188,0.302258
0.111641,0.124703,-1.01392,-0.102236,-0.0795207,-0.372079,-0.00924064,-0.0668277,0.394886
0.107982,0.122684,-1.01919,-0.0431464,-0.342193,-0.158354,0.00950804,-0.0496515,0.461725
0.0996436,0.122672,-1.01973,0.0608678,-0.477377,0.10721,0.0198142,-0.037761,0.492445
0.0888859,0.125996,-1.01558,0.231541,-0.544242,0.318128,-0.0024635,-0.0406583,0.512815
0.0766568,0.132714,-1.00868,0.37108,-0.598064,0.397822,-0.0400044,-0.0610043,0.542815
0.0632048,0.141629,-1.00166,0.459094,-0.665943,0.342247,-0.0694274,-0.0961639,0.569889
0.04736,0.151444,-0.996526,0.485713,-0.877948,0.211832,-0.0709399,-0.103559,0.581272
0.0264635,0.161349,-0.994264,0.499031,-1.17752,0.045345,-0.0632873,-0.0892582,0.534365
0.00179279,0.172069,-0.995217,0.586281,-1.2479,-0.125551,-0.0292933,-0.0819683,0.405672
-0.0201991,0.184796,-0.999368,0.680687,-1.00409,-0.290971,0.0140707,-0.0603034,0.250229
-0.0343255,0.199418,-1.00626,0.748601,-0.498835,-0.426567,0.0356221,-0.00687262,0.0906734
-0.0376843,0.214034,-1.01645,0.64668,-0.119423,-0.664366,0.0156365,0.0178693,-0.0146311
-0.0379306,0.22387,-1.03461,0.202648,-0.464197,-1.20463,-0.0793579,0.0601093,-0.103445
-0.047838,0.222006,-1.06715,-0.536576,-1.16451,-1.97816,-0.195435,0.131976,-0.283196
-0.047838,0.222006,-1.06715,-0.536576,-1.16451,-1.97816,-0.195435,0.131976,-0.283196
-0.0613255,0.206881,-1.11614,-1.22421,-1.14361,-2.7095,-0.27492,0.219065,-0.575699
-0.0679385,0.181736,-1.17837,-1.6197,-0.647253,-3.20307,-0.292912,0.314373,-0.880981
-0.0592318,0.153336,-1.24866,-1.6462,0.39892,-3.5273,-0.353668,0.453731,-1.06168
-0.0297892,0.124121,-1.32306,-1.64266,1.46991,-3.67886,-0.345521,0.54026,-1.01596
0.0125413,0.0909265,-1.39515,-1.75874,1.87545,-3.41713,-0.144966,0.467358,-0.797239
0.0555027,0.0534426,-1.45714,-1.75871,1.99303,-2.88615,-0.00200456,0.326412,-0.609456
0.0964455,0.016531,-1.50605,-1.53863,1.87107,-2.28594,0.0629883,0.144307,-0.451912
0.129846,-0.0144594,-1.54257,-1.1103,1.4569,-1.71446,0.0820342,-0.0307858,-0.317619
0.152748,-0.0355535,-1.56896,-0.616587,0.886487,-1.21641,0.0548203,-0.162438,-0.172943
0.163743,-0.0467933,-1.58788,-0.218246,0.312452,-0.865905,-0.0100169,-0.251442,-0.0231381
0.164784,-0.0506325,-1.60257,0.0562328,-0.089996,-0.668335,-0.0544845,-0.318082,0.113226
0.16072,-0.0502501,-1.61539,0.174561,-0.207202,-0.614276,-0.0676943,-0.372113,0.220791
0.156998,-0.0483123,-1.62824,0.214777,-0.0790988,-0.623963,-0.0562415,-0.38208,0.320853
0.156338,-0.0460827,-1.64099,0.190908,0.0533518,-0.595088,-0.0380287,-0.356201,0.421097
0.157035,-0.0447414,-1.65261,0.12427,0.0556424,-0.526149,-0.0103141,-0.334216,0.500043
0.157128,-0.0442384,-1.66222,0.0790713,-0.0228686,-0.414729,0.0190858,-0.32816,0.545781
0.154068,-0.0440712,-1.66963,0.0691859,-0.278324,-0.326604,0.0318707,-0.331868,0.5491
0.145625,-0.0429235,-1.67621,0.14552,-0.525592,-0.315469,0.0374411,-0.343127,0.479486
0.132349,-0.0402359,-1.6829,0.184016,-0.785744,-0.305511,0.0633651,-0.327106,0.404362
0.113372,-0.0381178,-1.68923,0.0823403,-1.13378,-0.298932,0.0857439,-0.291374,0.29277
0.0854587,-0.0379867,-1.6952,0.00522692,-1.58982,-0.29549,0.121463,-0.225584,-0.0187114
0.0542083,-0.0377524,-1.70138,0.0901071,-1.42089,-0.33235,0.0904185,-0.143792,-0.399687
0.0325678,-0.0343821,-1.70929,0.264055,-0.674619,-0.454179,0.0367473,-0.0919163,-0.670738
0.0258914,-0.0284687,-1.71966,0.327711,-0.0160933,-0.559572,-0.0115195,0.0125507,-0.740822
0.0284428,-0.022875,-1.73158,0.268312,0.252761,-0.607305,-0.0311324,0.12442,-0.683558
0.0357993,-0.0170813,-1.74369,0.408087,0.569752,-0.561583,-0.0297441,0.176981,-0.639062
0.0531831,-0.00481435,-1.75345,0.900628,1.20161,-0.334006,0.0334514,0.161903,-0.543647
0.0816371,0.0179889,-1.75881,1.3761,1.56331,-0.0539094,0.0251408,0.169431,-0.259321
0.111377,0.0466866,-1.7606,1.42654,1.31295,0.137908,-0.0573458,0.18821,0.0834956
0.129593,0.071859,-1.76052,1.01419,0.421552,0.125638,-0.118949,0.128026,0.309948
0.126913,0.0854888,-1.76317,0.359094,-0.666021,-0.274156,-0.194744,0.0277827,0.338768
0.108332,0.0846596,-1.7749,-0.279294,-1.17437,-0.89592,-0.246863,-0.020895,0.211158
0.0882714,0.0729493,-1.79679,-0.610532,-0.898869,-1.35451,-0.228975,0.0359736,0.0126835
0.0800436,0.0580536,-1.82448,-0.614215,-0.0706673,-1.47042,-0.142629,0.165519,-0.0949842
0.0883089,0.045087,-1.85031,-0.454895,0.729073,-1.1571,0.0146023,0.23602,-0.0702319
0.107384,0.0364294,-1.86738,-0.237428,1.00436,-0.627389,0.152018,0.213423,0.0522808
0.125779,0.0332182,-1.87431,-0.00399139,0.766658,-0.106924,0.20206,0.124963,0.178
0.136603,0.0352969,-1.87241,0.168377,0.305957,0.299688,0.18161,0.0480611,0.285691
0.137242,0.0406744,-1.86444,0.228204,-0.193967,0.539619,0.113561,0.00875699,0.358674
0.129233,0.0461216,-1.85307,0.138559,-0.540591,0.648016,0.0467392,-0.0269691,0.384253
0.115726,0.0486847,-1.8402,-0.0506139,-0.72097,0.653629,-0.00784793,-0.0491587,0.355248
0.0997682,0.047146,-1.82736,-0.233429,-0.812386,0.604491,-0.0172931,-0.0858824,0.284983
0.08213,0.042833,-1.81568,-0.272064,-0.91117,0.510869,-0.0241775,-0.113583,0.156711
0.0626422,0.0390302,-1.80694,-0.165565,-0.9938,0.320063,-0.0529101,-0.115322,-0.025457
0.042771,0.0370701,-1.80267,-0.0570716,-0.960674,0.0908235,-0.0567515,-0.109255,-0.19081
0.0253489,0.0367849,-1.80307,0.0289133,-0.762353,-0.131723,-0.0327296,-0.106122,-0.328924
0.0135437,0.0375825,-1.80823,0.041711,-0.460841,-0.397359,-0.0584405,-0.0868008,-0.412434
0.00698789,0.0378832,-1.81959,-0.00723651,-0.227802,-0.757193,-0.106089,-0.0322401,-0.442026
0.00541307,0.0362999,-1.83903,-0.15796,-0.0142324,-1.18961,-0.134621,0.000418492,-0.415072
0.00817316,0.0313338,-1.86585,-0.296034,0.210854,-1.45738,-0.0712642,0.0192742,-0.398855
0.0161139,0.0259917,-1.89483,-0.14799,0.522499,-1.40672,-0.00293948,0.0872069,-0.413813
0.0161139,0.0259917,-1.89483,-0.14799,0.522499,-1.40672,-0.00293948,0.0872069,-0.413813
0.0311476,0.0264082,-1.92015,0.26807,0.932783,-1.09862,0.0226249,0.158577,-0.341684
0.0537926,0.034889,-1.9387,0.629303,1.23502,-0.73798,-0.0107957,0.193741,-0.125818
0.0792803,0.0484244,-1.9518,0.766893,1.22165,-0.501002,-0.0703307,0.172856,0.137475
0.101018,0.0615609,-1.96189,0.593149,0.84337,-0.403819,-0.136468,0.143767,0.348379
0.112268,0.0690357,-1.97073,0.232775,0.199344,-0.405182,-0.179957,0.115612,0.429494
0.109108,0.0689988,-1.97879,-0.126965,-0.578236,-0.376595,-0.195531,0.119603,0.396092
0.0914049,0.0636519,-1.98501,-0.315582,-1.18807,-0.297527,-0.217909,0.158351,0.258305
0.0649746,0.0563053,-1.98957,-0.373472,-1.43216,-0.215237,-0.220496,0.155976,0.0983135
0.0374788,0.0484497,-1.99308,-0.39072,-1.2772,-0.194894,-0.225643,0.129211,-0.0345134
0.0172307,0.0405373,-1.99739,-0.396073,-0.737761,-0.268547,-0.245792,0.0903308,-0.133309
0.00834105,0.0320749,-2.00401,-0.43714,-0.214006,-0.404932,-0.251577,0.0392104,-0.161773
0.00771332,0.0243233,-2.01324,-0.303216,0.0938887,-0.506927,-0.18453,-0.0232103,-0.172063
0.0113262,0.0207244,-2.02354,-0.0495581,0.231747,-0.5175,-0.131334,-0.0435777,-0.118718
0.016761,0.0216268,-2.0335,0.14047,0.289343,-0.473908,-0.10126,-0.0460324,-0.0158772
0.0236762,0.0257647,-2.04257,0.285673,0.384509,-0.43767,-0.0868681,-0.0718945,0.0698683
0.0317589,0.0318387,-2.05166,0.32054,0.370423,-0.468889,-0.0998527,-0.0924801,0.169003
0.0386047,0.0373312,-2.06201,0.263028,0.296579,-0.555326,-0.0960787,-0.121552,0.228509
0.0448578,0.0412026,-2.0744,0.174917,0.275757,-0.668905,-0.0936939,-0.142647,0.251976
0.0504804,0.043168,-2.08887,0.0971936,0.225655,-0.762382,-0.0803344,-0.144132,0.260323
0.0552656,0.0439841,-2.10427,0.0686336,0.191197,-0.752847,-0.0405051,-0.121695,0.246455
0.0593531,0.0444768,-2.11836,0.0649427,0.160546,-0.641284,-0.0167029,-0.0847036,0.219115
0.0630249,0.04565,-2.12964,0.136613,0.160545,-0.471306,-0.00250804,-0.0708362,0.189297
0.0672289,0.0494373,-2.13731,0.304222,0.239356,-0.266404,-0.00947902,-0.0630402,0.171098
0.0735475,0.0573833,-2.14098,0.515363,0.372987,-0.0462621,-0.0276297,-0.0560363,0.197315
0.0811977,0.0693697,-2.14089,0.667179,0.363578,0.141263,-0.0459709,-0.0584173,0.26744
0.0869096,0.0839192,-2.1379,0.733359,0.216099,0.261678,-0.0648578,-0.0699727,0.33972
0.0884802,0.0992964,-2.13344,0.770805,-0.0182486,0.307292,-0.0928582,-0.0803559,0.36403
0.0864719,0.116606,-2.12875,0.938121,-0.0940622,0.308334,-0.105553,-0.0786958,0.310253
0.0846677,0.137738,-2.12463,1.12038,-0.0314606,0.285437,-0.11085,-0.0533101,0.274884
0.084132,0.161294,-2.12097,1.18953,0.0396427,0.28109,-0.0787307,-0.0323517,0.256097
0.0856633,0.185712,-2.11691,1.20512,0.191029,0.336856,-0.0162469,-0.0284889,0.221831
0.0881897,0.209452,-2.11116,1.08554,0.106276,0.425625,0.0669409,-0.0337908,0.183878
0.0844596,0.22951,-2.10382,0.843267,-0.376124,0.45365,0.106848,-0.056206,0.0857396
0.0675876,0.243205,-2.09774,0.419625,-1.2111,0.163356,0.0564148,-0.0882104,-0.120924
0.0361486,0.245237,-2.10059,-0.197525,-1.88945,-0.43663,-0.0319925,-0.0915336,-0.400061
0.00402106,0.236611,-2.11484,-0.599331,-1.54676,-0.943562,0.00581078,-0.0889242,-0.76287
-0.0143238,0.223046,-2.13751,-0.746446,-0.805891,-1.20314,0.0772619,0.0552156,-0.987121
-0.0194212,0.20869,-2.16153,-0.729799,-0.28532,-1.08143,0.179353,0.216471,-1.02156
-0.0196136,0.195132,-2.18127,-0.652,-0.159197,-0.828888,0.217787,0.255602,-0.953523
-0.0186824,0.184172,-2.19609,-0.455995,0.00111841,-0.621716,0.213159,0.208249,-0.868753
-0.0131309,0.178435,-2.20701,-0.122751,0.387502,-0.441218,0.176222,0.165023,-0.721269
-0.000638391,0.179463,-2.21401,0.201186,0.714234,-0.245745,0.111392,0.170353,-0.441567
0.0160597,0.184971,-2.21707,0.313243,0.874412,-0.0624329,0.0665665,0.135959,-0.0938453
0.0336149,0.190325,-2.21708,0.197326,0.859531,0.0680752,0.0250427,0.072936,0.210255
0.049216,0.192294,-2.21495,-0.00863618,0.735778,0.137801,-0.0110274,0.00899713,0.406772
0.0614621,0.190456,-2.21207,-0.18118,0.51844,0.124312,-0.0419259,-0.032144,0.516716
0.0679279,0.185817,-2.20996,-0.281295,0.169511,0.0465338,-0.0626484,-0.0488166,0.57343
0.0682027,0.180038,-2.20935,-0.28867,-0.129354,-0.0221588,-0.0469221,-0.0611984,0.595258
0.062748,0.174545,-2.2096,-0.247772,-0.404438,-0.0226851,-0.0109423,-0.0419929,0.587741
0.0532999,0.17066,-2.20894,-0.130162,-0.522583,0.0875278,0.0390672,-0.00973317,0.572864
0.0410106,0.170248,-2.20524,0.0844447,-0.632443,0.285023,0.0795276,0.0249407,0.538791
0.0272525,0.17479,-2.19753,0.331922,-0.618939,0.490522,0.0817171,0.0503507,0.536766
0.0122212,0.182957,-2.18659,0.437495,-0.708308,0.57435,0.0485452,0.0458601,0.557837
-0.00556611,0.191516,-2.17548,0.394057,-0.874107,0.508804,0.0551469,-0.00275221,0.557965
-0.0262718,0.197763,-2.16617,0.238117,-1.00181,0.389633,0.0816039,-0.0319322,0.505286
-0.0471018,0.200623,-2.15986,0.0742031,-0.932628,0.214253,0.0944493,-0.0306243,0.391988
-0.0644541,0.200335,-2.15751,-0.0917052,-0.759109,0.0176477,0.0813402,-0.00666067,0.265502
-0.0770398,0.197512,-2.15954,-0.18699,-0.518515,-0.195157,0.079053,0.00895897,0.10918
-0.0818939,0.195178,-2.16547,-0.0588186,-0.0513589,-0.352908,0.105579,-0.00277542,-0.0653043
-0.0759657,0.197229,-2.17338,0.181407,0.464356,-0.421043,0.136982,0.00933746,-0.173109
-0.0619496,0.201923,-2.18132,0.175472,0.767392,-0.366295,0.158934,0.0243302,-0.194941
-0.0437364,0.202785,-2.18742,-0.152449,0.883531,-0.250769,0.151774,-0.0199763,-0.215321
-0.0272209,0.196051,-2.19334,-0.536131,0.597292,-0.362341,0.0944299,-0.105069,-0.335697
-0.0168701,0.182148,-2.2054,-0.88902,0.247975,-0.848995,-0.0351676,-0.153529,-0.5295
-0.0084131,0.161105,-2.22861,-1.24567,0.272684,-1.37427,-0.0612913,-0.142051,-0.705062
0.00360004,0.133899,-2.25878,-1.45737,0.471549,-1.53708,0.0235623,-0.00737035,-0.821839
0.0162952,0.104532,-2.28651,-1.4243,0.403152,-1.16236,0.177993,0.14316,-0.886633
0.0228945,0.0787037,-2.30173,-1.08831,0.13892,-0.375881,0.270101,0.210855,-0.939926
0.0257729,0.0625681,-2.30139,-0.514923,0.216516,0.32414,0.183982,0.145779,-0.936721
0.0333536,0.0578556,-2.29063,-0.024957,0.651387,0.696537,0.011615,0.0457536,-0.780366
0.0509093,0.0606365,-2.27458,0.194476,1.18704,0.906435,-0.100675,-0.0594111,-0.472171
0.0766303,0.0662481,-2.25533,0.227358,1.46705,1.03923,-0.17647,-0.12066,-0.117442
0.104806,0.0726135,-2.23375,0.220946,1.48287,1.18213,-0.218658,-0.146979,0.16514
0.131414,0.080362,-2.20919,0.26185,1.34321,1.33578,-0.265348,-0.164918,0.363575
0.152761,0.0895212,-2.18276,0.266763,0.995263,1.38445,-0.339638,-0.185302,0.516868
0.165671,0.0989656,-2.15723,0.267249,0.529727,1.26235,-0.395552,-0.211255,0.605887
0.165671,0.0989656,-2.15723,0.267249,0.529727,1.26235,-0.395552,-0.211255,0.605887
0.170032,0.108533,-2.13526,0.317773,0.160493,1.05433,-0.408835,-0.211932,0.641584
0.168668,0.118637,-2.11755,0.377163,-0.0693736,0.865223,-0.383272,-0.172764,0.654844
0.164594,0.129114,-2.10287,0.414161,-0.132508,0.763764,-0.342878,-0.114073,0.66788
0.160671,0.139747,-2.0895,0.415712,-0.067438,0.723197,-0.316777,-0.0779008,0.675938
0.157929,0.149858,-2.07671,0.371234,-0.0524769,0.69462,-0.287286,-0.0638214,0.693421
0.152565,0.158633,-2.06399,0.298274,-0.333734,0.694588,-0.232661,-0.0601406,0.694938
0.139567,0.166326,-2.0505,0.295417,-0.746592,0.744734,-0.169315,-0.0489481,0.629259
0.118853,0.175429,-2.03616,0.438731,-1.06295,0.771201,-0.160028,-0.0132896,0.504042
0.0940648,0.187214,-2.02176,0.57742,-1.1184,0.769911,-0.155777,0.0408585,0.379474
0.0699933,0.200457,-2.00745,0.60627,-1.00735,0.72953,-0.137994,0.0683185,0.261207
0.0491254,0.212717,-1.99405,0.544039,-0.793115,0.661015,-0.0745949,0.0637465,0.137338
0.0327746,0.223454,-1.98102,0.464668,-0.59366,0.67002,0.0262582,0.0591693,-0.0244245
0.0167375,0.230468,-1.96726,0.166768,-0.788722,0.67845,0.0422995,0.105478,-0.209942
-0.00563981,0.230102,-1.95457,-0.188431,-1.12178,0.522025,0.0185526,0.0717196,-0.431676
-0.0283783,0.223807,-1.9486,-0.432718,-0.943415,0.0222464,-0.0520299,-0.00724339,-0.714313
-0.0400312,0.212191,-1.95504,-0.781212,-0.342524,-0.597695,-0.0767524,-0.0466307,-0.907443
-0.0396986,0.192861,-1.97252,-1.21057,-0.0804523,-0.990084,0.0294613,-0.000166267,-0.967922
-0.0395117,0.167479,-1.99458,-1.35614,-0.321489,-1.03575,0.163186,0.0973761,-1.04938
-0.0445867,0.143159,-2.01458,-1.1115,-0.453379,-0.82327,0.238055,0.143556,-1.12309
-0.0495313,0.126376,-2.02926,-0.61118,-0.164774,-0.560512,0.217482,0.14432,-1.08863
-0.0455394,0.119846,-2.03888,-0.125797,0.44783,-0.387278,0.122819,0.122763,-0.872399
-0.0318773,0.120018,-2.046,0.066267,0.803918,-0.337799,0.0342518,0.0656069,-0.483162
-0.0137414,0.121518,-2.05262,0.0416392,0.892083,-0.333024,-0.0215319,0.0146977,-0.110999
0.00371915,0.121272,-2.0597,-0.0745055,0.748994,-0.374369,-0.0830529,-0.0185514,0.172413
0.0171954,0.118517,-2.0679,-0.189621,0.495829,-0.455257,-0.132354,-0.0527045,0.35377
0.0256623,0.113453,-2.0782,-0.301137,0.233459,-0.588784,-0.15788,-0.0788379,0.467548
0.0291268,0.105736,-2.09092,-0.432832,-0.0198623,-0.692099,-0.144988,-0.0732328,0.527517
0.0284766,0.0961723,-2.10486,-0.457169,-0.167095,-0.715991,-0.108602,-0.067657,0.519786
0.025245,0.0875686,-2.1189,-0.350905,-0.296253,-0.707258,-0.0842582,-0.0653906,0.501344
0.0188726,0.0819206,-2.1324,-0.188455,-0.443632,-0.644553,-0.0581606,-0.0517618,0.497461
0.0104078,0.0790295,-2.14428,-0.0886382,-0.480071,-0.548641,-0.0346824,-0.0397051,0.506224
0.00270141,0.0785596,-2.15389,0.0629122,-0.350253,-0.407664,-0.00489039,-0.042615,0.499186
-0.0020915,0.0826012,-2.16083,0.351649,-0.192598,-0.296369,-0.00345463,-0.0455598,0.515952
-0.00510619,0.0927109,-2.16648,0.657628,-0.202034,-0.294459,-0.0521363,-0.0519989,0.593684
-0.0102864,0.1086,-2.17349,0.914422,-0.414192,-0.432781,-0.109831,-0.0410118,0.673332
-0.0205039,0.128254,-2.18364,1.00813,-0.735588,-0.602013,-0.13323,0.0275763,0.738099
-0.0362532,0.148273,-2.19645,0.950083,-0.987251,-0.719554,-0.106258,0.107965,0.734426
-0.0535231,0.166692,-2.21089,0.827284,-0.928207,-0.77014,-0.0766691,0.20773,0.646913
-0.0665928,0.182478,-2.22477,0.666049,-0.571433,-0.667431,-0.0204531,0.311853,0.494538
-0.0684964,0.194606,-2.2347,0.475275,0.294279,-0.368944,0.0850342,0.306341,0.32535
-0.0523407,0.20156,-2.23897,0.153453,1.06292,-0.165145,0.18993,0.124194,0.173955
-0.0351003,0.198883,-2.24564,-0.505205,0.315235,-0.583983,0.205757,-0.116955,0.0893642
-0.0355432,0.179656,-2.2677,-1.53855,-0.639936,-1.60329,-0.0062808,-0.264943,-0.154411
-0.0411617,0.141537,-2.31265,-2.34108,-0.473112,-2.62042,-0.07268,-0.302142,-0.633626
-0.0358037,0.0955999,-2.37172,-2.40358,0.301305,-2.94734,0.0917086,-0.121816,-1.0781
-0.0192391,0.0527832,-2.42748,-1.99313,0.96396,-2.37397,0.349106,0.101221,-1.26244
0.00971136,0.019786,-2.46479,-1.32098,1.80602,-1.33962,0.422755,0.11767,-1.22078
0.0518248,0.000543387,-2.48312,-0.568863,2.29403,-0.624158,0.311312,-0.0766357,-0.972839
0.0965066,-0.00392659,-2.49044,0.172474,2.10094,-0.14241,0.245914,-0.262807,-0.648521
0.133064,0.00716415,-2.48919,0.892796,1.56423,0.419154,0.218208,-0.276085,-0.34169
0.158519,0.0322307,-2.47824,1.38474,1.00114,1.01795,0.0677506,-0.138399,-0.0385787
0.171817,0.0663027,-2.45893,1.6372,0.438017,1.42307,-0.100422,-0.0794521,0.183199
0.17422,0.105121,-2.43468,1.77306,0.0401574,1.60667,-0.213292,-0.0862652,0.289728
0.17422,0.105121,-2.43468,1.77306,0.0401574,1.60667,-0.213292,-0.0862652,0.289728
0.169526,0.146847,-2.4091,1.90665,-0.145134,1.59067,-0.316009,-0.0736966,0.310963
0.16268,0.189341,-2.38551,1.86121,-0.131956,1.38377,-0.375743,-0.0790763,0.335448
0.154391,0.226761,-2.36604,1.50007,-0.368596,1.10169,-0.319657,-0.146591,0.353618
0.138037,0.254419,-2.34994,1.00162,-0.897667,0.852376,-0.244956,-0.161067,0.257127
0.111176,0.270977,-2.3384,0.465681,-1.52528,0.400065,-0.330364,-0.101926,0.0518913
0.0736883,0.272483,-2.33871,-0.347598,-2.22892,-0.464394,-0.39166,-0.151317,-0.161838
0.0313918,0.257478,-2.35775,-1.01034,-2.37636,-1.43473,-0.305178,-0.225231,-0.529443
-0.00249038,0.234627,-2.39344,-1.18107,-1.80559,-1.95385,-0.15218,-0.00780044,-0.865598
-0.0219458,0.212002,-2.43284,-1.12673,-1.05174,-1.78621,-0.0155346,0.288451,-0.893763
-0.0304342,0.192213,-2.46512,-0.905019,-0.467899,-1.32829,0.0799637,0.327216,-0.734371
-0.0300784,0.179505,-2.48895,-0.408645,0.0378627,-1.03238,0.0847817,0.190932,-0.561267
-0.0224426,0.177352,-2.50964,0.114519,0.322178,-1.03889,0.003595,0.0845961,-0.320972
-0.0106378,0.183442,-2.53172,0.429362,0.447697,-1.1561,-0.0689477,0.0309565,-0.0610387
0.00351411,0.193607,-2.55641,0.559509,0.508889,-1.27726,-0.117386,0.0321973,0.18912
0.0195127,0.204642,-2.58292,0.563537,0.570663,-1.29532,-0.125443,0.0593565,0.392796
0.036197,0.215125,-2.60878,0.568121,0.531607,-1.20527,-0.107331,0.0613999,0.535148
0.0500923,0.226048,-2.63337,0.643073,0.291316,-1.16867,-0.126938,0.0555336,0.609156
0.0580568,0.238948,-2.65856,0.794247,-0.0767932,-1.22717,-0.14625,0.0400559,0.626582
0.0595053,0.254657,-2.6858,0.925119,-0.437091,-1.32356,-0.137188,0.0370083,0.641391
0.0552868,0.272178,-2.71475,0.985742,-0.7151,-1.36089,-0.101946,0.0828707,0.647522
0.0481194,0.290761,-2.74368,0.997195,-0.787032,-1.31999,-0.0671695,0.141814,0.656166
0.0401264,0.30864,-2.77165,0.894158,-0.853204,-1.28146,-0.0382353,0.175345,0.664719
0.0309459,0.323704,-2.79903,0.688409,-0.936329,-1.27935,-0.0321264,0.203013,0.653695
0.0190891,0.333873,-2.82652,0.402038,-1.16327,-1.30096,-0.0277996,0.252601,0.584104
0.00322896,0.340247,-2.85403,0.314823,-1.25794,-1.29665,-0.00368471,0.307963,0.354197
-0.00811535,0.34808,-2.88144,0.463815,-0.707023,-1.29355,0.0324852,0.318114,0.0861776
-0.00427006,0.356866,-2.90868,0.318663,0.125926,-1.27575,0.111514,0.295354,-0.0457089
0.0130728,0.357618,-2.9352,-0.322961,0.592734,-1.22324,0.167427,0.274985,-0.101967
0.0318955,0.33996,-2.96184,-1.41322,0.261425,-1.41381,0.0559793,0.208068,-0.239322
0.0433938,0.301364,-2.99804,-2.25325,-0.260833,-2.29432,-0.214872,0.0408114,-0.614433
0.0469652,0.248867,-3.05514,-2.70944,-0.895623,-3.38484,-0.307739,0.0830369,-1.02754
0.0442306,0.18966,-3.12563,-2.83908,-0.730103,-3.60911,-0.197262,0.42647,-1.40822
0.0516165,0.134116,3.09466,-2.32232,0.571335,-2.70999,0.0717336,0.623812,-1.63361
0.0809111,0.0960403,3.05714,-1.19166,1.77411,-1.25878,0.321436,0.428824,-1.46328
0.119615,0.0827424,3.04503,-0.0913118,1.8151,-0.16003,0.294927,0.104819,-0.984968
0.147471,0.0871235,3.04744,0.384013,0.923851,0.376685,0.0810222,-0.126762,-0.431461
0.155305,0.0960235,3.05467,0.340117,-0.016819,0.405575,-0.149666,-0.287272,-0.061463
0.149559,0.101701,3.05908,0.155212,-0.432293,0.0762018,-0.315682,-0.391517,0.103341
0.140895,0.102803,3.05594,0.0153321,-0.423568,-0.363848,-0.396814,-0.384606,0.18132
0.135137,0.101407,3.04552,0.00688728,-0.258998,-0.647437,-0.351426,-0.33352,0.252547
0.132314,0.100389,3.0316,0.088157,-0.189824,-0.721441,-0.288476,-0.274566,0.337038
0.129992,0.10175,3.01672,0.254345,-0.187219,-0.733007,-0.269047,-0.222675,0.406036
0.128032,0.106434,3.00131,0.385722,-0.189577,-0.73873,-0.263648,-0.182402,0.486554
0.125335,0.112546,2.9852,0.423836,-0.230845,-0.782462,-0.247324,-0.171383,0.533639
0.123466,0.119037,2.96818,0.410295,-0.160994,-0.817053,-0.196531,-0.158191,0.576002
0.121251,0.123688,2.95108,0.247752,-0.320725,-0.80684,-0.126271,-0.135508,0.595869
0.113808,0.125765,2.93556,0.164565,-0.616996,-0.69481,-0.0313817,-0.133828,0.47276
0.0997264,0.12803,2.92243,0.207695,-0.963214,-0.579696,-0.00583546,-0.11231,0.307856
0.0786776,0.132548,2.91224,0.340299,-1.2371,-0.365638,0.107731,-0.118527,0.0462828
0.0555243,0.14045,2.90744,0.455899,-1.118,-0.0583482,0.11067,-0.0328787,-0.197881
0.0350377,0.149073,2.90749,0.371247,-0.898233,0.047648,-0.018193,-0.0150075,-0.397425
0.0208883,0.154805,2.90599,0.206084,-0.537583,-0.246021,-0.144798,-0.133227,-0.595548
0.0136747,0.157356,2.89545,0.0678051,-0.406633,-0.815487,-0.196931,-0.222016,-0.743343
0.0101836,0.157345,2.87374,-0.0418617,-0.252637,-1.27782,-0.198839,-0.160747,-0.826446
0.0101836,0.157345,2.87374,-0.0418617,-0.252637,-1.27782,-0.198839,-0.160747,-0.826446
0.012371,0.155742,2.84668,-0.052971,0.0987661,-1.34554,-0.132796,0.00109117,-0.823153
0.0258562,0.157107,2.82236,0.285195,0.936429,-1.00829,-0.0384438,0.106977,-0.737728
0.0560771,0.167425,2.80678,0.806507,1.78819,-0.48825,-0.00764131,0.122515,-0.442428
0.0965552,0.186837,2.79969,1.13002,2.03651,-0.0888833,-0.071473,0.0837929,-0.00658399
0.134543,0.2093,2.79762,1.07687,1.65111,0.105762,-0.142547,-0.0145148,0.373679
0.160215,0.227968,2.79641,0.76818,0.847488,0.0182468,-0.204735,-0.137069,0.608792
0.16797,0.238794,2.79288,0.354598,-0.162296,-0.187915,-0.191399,-0.218394,0.713259
0.157031,0.24095,2.78638,-0.0337097,-1.03077,-0.400498,-0.117078,-0.237784,0.668834
0.133708,0.235092,2.77685,-0.405859,-1.46138,-0.593559,-0.101872,-0.165048,0.513602
0.107014,0.223265,2.76499,-0.596474,-1.4356,-0.684438,-0.0429404,-0.120825,0.277569
0.0816068,0.21016,2.75198,-0.556586,-1.43186,-0.708871,0.0256851,-0.0612815,0.0033226
0.0564937,0.2008,2.73789,-0.252102,-1.32371,-0.738621,0.0899041,-0.0163521,-0.27219
0.036297,0.199163,2.72313,0.150797,-0.958994,-0.71049,0.1638,0.0281102,-0.433743
0.0262972,0.205027,2.70945,0.453481,-0.283315,-0.605305,0.207274,0.108409,-0.450909
0.0294498,0.214863,2.69826,0.534768,0.314363,-0.461151,0.217325,0.18207,-0.335628
0.040978,0.225121,2.68983,0.514227,0.613996,-0.336861,0.220092,0.201938,-0.176579
0.0543034,0.234469,2.68295,0.445244,0.501045,-0.303242,0.19286,0.182521,-0.0350671
0.063525,0.242022,2.67618,0.34317,0.274472,-0.315425,0.16876,0.178372,0.0412085
0.0686505,0.246657,2.66908,0.148003,0.0716338,-0.34939,0.136681,0.192146,0.0743988
0.0717089,0.247115,2.66175,-0.0336911,0.112919,-0.349797,0.131548,0.195917,0.0199714
0.0780077,0.245371,2.65509,-0.0816271,0.353703,-0.303255,0.118101,0.223492,-0.0274401
0.0872826,0.242694,2.65003,-0.158775,0.4186,-0.196691,0.110573,0.256249,-0.00042361
0.0960212,0.238949,2.64837,-0.171577,0.43418,0.0149702,0.12203,0.256899,-0.00345409
0.104218,0.237029,2.65129,-0.0441321,0.439646,0.247152,0.097121,0.265715,0.010116
0.109812,0.237749,2.65875,0.0221781,0.274773,0.478712,0.0563024,0.266567,0.0777416
0.110657,0.239879,2.67032,0.0675232,0.0890434,0.648055,0.00125085,0.233144,0.122347
0.106725,0.242789,2.68383,0.0609033,-0.177405,0.671304,-0.0783437,0.195916,0.173004
0.0974627,0.244486,2.69729,-0.0409921,-0.394353,0.644205,-0.111504,0.154411,0.204305
0.085533,0.242976,2.70995,-0.241771,-0.501315,0.556008,-0.156879,0.137519,0.214896
0.0724864,0.23688,2.72009,-0.426746,-0.541464,0.368935,-0.181607,0.0936641,0.179972
0.0606506,0.227797,2.72565,-0.514646,-0.534206,0.101106,-0.189983,0.0525988,0.126214
0.049243,0.216958,2.72546,-0.553363,-0.60297,-0.167134,-0.151218,0.0412181,0.0739906
0.0384297,0.206011,2.72074,-0.523853,-0.590826,-0.324857,-0.0698344,0.0466284,0.0267923
0.0280727,0.195774,2.7138,-0.478781,-0.570328,-0.378783,-0.00516338,0.0617282,-3.51667e-06
0.0185529,0.18681,2.70618,-0.395372,-0.518473,-0.385223,0.0347495,0.0582224,-0.0129744
0.0107483,0.180032,2.69876,-0.26367,-0.396964,-0.354698,0.0455933,0.0496971,-0.0117633
0.00538302,0.17651,2.69175,-0.080876,-0.26837,-0.346052,0.0370896,0.028149,0.0182008
0.00230154,0.176473,2.68451,0.059879,-0.176131,-0.368113,0.0251085,0.0117554,0.094467
0.000867357,0.178326,2.67668,0.119809,-0.102305,-0.406717,0.0203562,-0.0102857,0.182872
0.00131455,0.181274,2.66787,0.182822,-0.012406,-0.46896,0.00761819,-0.0208429,0.259844
0.00384517,0.18558,2.6576,0.249499,0.0782952,-0.544884,-0.00149025,-0.0251699,0.342808
0.0084104,0.190752,2.6456,0.259096,0.151346,-0.636144,0.00219459,-0.0266199,0.438569
0.0142184,0.195006,2.63148,0.159694,0.152192,-0.753538,0.0121594,-0.0321037,0.522772
0.0195247,0.195897,2.61507,-0.0561945,0.0353395,-0.847887,0.0511167,-0.0402624,0.577229
0.0216017,0.192353,2.5976,-0.243036,-0.173158,-0.858846,0.126702,-0.0424276,0.552907
0.0196164,0.186816,2.5809,-0.250346,-0.304137,-0.779893,0.16995,-0.0128925,0.440404
0.0165756,0.182542,2.56703,-0.155076,-0.22607,-0.565025,0.220151,0.0159412,0.328786
0.0152681,0.179012,2.55899,-0.232534,-0.0356102,-0.230691,0.292273,-0.0137613,0.261249
0.017448,0.170952,2.55727,-0.602199,0.219457,0.0260416,0.30312,-0.10907,0.149046
0.0222542,0.155691,2.55885,-0.917332,0.220894,0.0456503,0.214299,-0.206738,-0.123943
0.0218674,0.133557,2.55689,-1.32347,-0.361355,-0.351611,0.00783963,-0.239902,-0.444506
0.0103086,0.103924,2.54469,-1.56682,-0.843195,-0.888627,-0.0563648,-0.25573,-0.843827
-0.00439128,0.0726428,2.524,-1.55034,-0.745768,-1.13301,-0.0494685,-0.0789257,-1.22919
-0.0124971,0.0434652,2.50242,-1.36566,-0.109179,-0.915235,-0.0524411,0.21171,-1.42621
-0.0124971,0.0434652,2.50242,-1.36566,-0.109179,-0.915235,-0.0524411,0.21171,-1.42621
-0.00529505,0.0205643,2.49045,-0.89256,0.799628,-0.190628,0.00186075,0.316202,-1.40388
0.0184039,0.0101422,2.49572,-0.126829,1.50283,0.690597,0.0602419,0.183222,-1.1328
0.0500237,0.0161551,2.51479,0.623342,1.59879,1.17689,-0.0526665,0.0262099,-0.687737
0.0774535,0.0345802,2.539,0.99464,1.16089,1.32829,-0.193068,-0.0746186,-0.219308
0.0936011,0.0568153,2.56334,0.96208,0.567104,1.26426,-0.289404,-0.181466,0.142362
0.0988856,0.0757109,2.58397,0.706605,0.147537,0.937378,-0.385124,-0.257613,0.349625
0.0991772,0.0881647,2.59663,0.412505,0.0272966,0.438369,-0.419019,-0.289711,0.44459
0.100041,0.094126,2.60004,0.158501,0.112953,-0.019948,-0.36962,-0.279014,0.481852
0.104331,0.0951819,2.59661,0.00265146,0.272519,-0.273793,-0.275561,-0.216043,0.498041
0.110582,0.0942319,2.59057,-0.0103462,0.264999,-0.305589,-0.176487,-0.144402,0.512584
0.11531,0.0943913,2.58539,0.0992746,0.148532,-0.189836,-0.114634,-0.0901056,0.526932
0.117228,0.0976645,2.58273,0.262831,0.0295488,-0.0356367,-0.0840231,-0.0582067,0.539963
0.116889,0.104655,2.58273,0.427436,-0.0593471,0.111762,-0.0701165,-0.0294163,0.561671
0.115151,0.114751,2.58509,0.534169,-0.0766061,0.238989,-0.057912,-0.00723553,0.585996
0.113262,0.126164,2.58979,0.522219,-0.0758989,0.349833,-0.0611568,0.0205587,0.608239
0.109173,0.136755,2.59675,0.456027,-0.263912,0.462851,-0.0268691,0.044227,0.586298
0.100117,0.146735,2.60677,0.442642,-0.491787,0.645224,0.0258194,0.0722036,0.503496
0.0862756,0.15693,2.62119,0.445078,-0.683401,0.880414,0.066578,0.093192,0.395323
0.0674626,0.167024,2.64007,0.409204,-0.870728,1.03491,0.0354402,0.117802,0.256378
0.0471243,0.175694,2.66044,0.351195,-0.788071,0.993314,-0.0404917,0.132479,0.0592113
0.0305352,0.184134,2.67788,0.472481,-0.488912,0.730254,-0.0753023,0.0938773,-0.213454
0.0253534,0.196616,2.68969,0.732683,0.18959,0.497391,-0.000860088,0.0604948,-0.384572
0.031523,0.211923,2.69921,0.708138,0.54318,0.505859,0.0859781,0.0923741,-0.348022
0.0390382,0.222421,2.70954,0.251806,0.334141,0.51911,0.122868,0.0788225,-0.276842
0.0365879,0.221824,2.71857,-0.326311,-0.418861,0.312907,0.0761483,0.00440298,-0.342385
0.0206241,0.212198,2.72098,-0.586629,-1.0308,-0.11114,-0.0144533,-0.0415579,-0.610757
0.00177317,0.200626,2.71537,-0.533925,-0.880207,-0.42044,-0.000776231,-0.0259679,-0.866648
-0.00805272,0.192078,2.7056,-0.321769,-0.225046,-0.493307,0.0226141,0.0603752,-0.95017
-0.00359037,0.186749,2.69643,-0.288692,0.402509,-0.397072,0.0414919,0.126949,-0.775938
0.00534809,0.178116,2.68874,-0.595608,0.27792,-0.390061,0.0407876,0.0744231,-0.503124
0.0112919,0.164079,2.67972,-0.755638,0.213919,-0.529835,-0.000580885,-0.0121931,-0.40682
0.0184188,0.14954,2.66808,-0.660954,0.321759,-0.619814,-0.00772934,-0.0231966,-0.333456
0.0273481,0.138062,2.6564,-0.461483,0.392587,-0.540037,0.0335997,-0.0261185,-0.16815
0.0361009,0.13047,2.64759,-0.27732,0.335611,-0.347679,0.0511279,-0.0275075,0.0313364
0.041721,0.126522,2.64272,-0.104136,0.162802,-0.162252,0.0420291,-0.0447442,0.21058
0.0436269,0.125536,2.64074,-0.00272503,0.00893975,-0.0589563,0.00951038,-0.0741652,0.350913
0.0429802,0.125647,2.63971,0.00560185,-0.0831989,-0.0597384,-0.0232038,-0.100818,0.452565
0.0408712,0.125414,2.63811,-0.0223146,-0.138472,-0.103367,-0.0369682,-0.111502,0.508957
0.038183,0.125016,2.63571,0.00563131,-0.157833,-0.125939,-0.0135075,-0.103032,0.529177
0.0352805,0.125965,2.63352,0.103255,-0.153446,-0.0757382,0.0130716,-0.0750671,0.540776
0.0327221,0.129254,2.63282,0.229622,-0.109558,0.0162602,0.0181243,-0.0457277,0.558526
0.0305315,0.135325,2.63364,0.37055,-0.114558,0.0697578,-0.00314796,-0.0390992,0.579934
0.026926,0.143654,2.6343,0.440556,-0.248157,0.0032983,-0.0428807,-0.0388926,0.608604
0.0203764,0.152132,2.63292,0.39573,-0.439036,-0.113523,-0.0141581,-0.0412947,0.61735
0.0097991,0.159344,2.62991,0.34439,-0.667764,-0.166676,0.0473474,-0.0252132,0.549799
-0.00473277,0.166237,2.62614,0.359407,-0.840552,-0.19628,0.0521224,0.0310426,0.405484
-0.0217819,0.173702,2.62281,0.376474,-0.898424,-0.115575,0.105589,0.0712825,0.234337
-0.0383741,0.181232,2.6227,0.384347,-0.718337,0.0850943,0.139635,0.0934185,0.0581547
-0.0494152,0.189531,2.62617,0.464832,-0.304498,0.179671,0.0884734,0.0604377,-0.126146
-0.0520565,0.198541,2.62884,0.405962,0.0354401,-0.00725235,-0.0159142,0.000156268,-0.225715
-0.0510347,0.203873,2.62521,0.0683791,-0.0753093,-0.390013,-0.0916607,-0.052969,-0.268048
-0.0523414,0.200646,2.61296,-0.47437,-0.270907,-0.792471,-0.119783,-0.0746536,-0.413234
-0.053732,0.186488,2.59212,-1.03958,-0.22825,-1.16505,-0.145147,-0.0564123,-0.619312
-0.05158,0.16295,2.56447,-1.4297,-0.0348515,-1.40907,-0.145598,0.0242292,-0.800082
-0.05158,0.16295,2.56447,-1.4297,-0.0348515,-1.40907,-0.145598,0.0242292,-0.800082
-0.0464988,0.133818,2.53471,-1.59701,0.0785561,-1.3344,-0.097183,0.151165,-0.887499
-0.039833,0.104047,2.50995,-1.44458,0.367541,-0.960509,-0.0466812,0.19822,-0.92647
-0.0252102,0.0795174,2.4952,-1.04346,0.97704,-0.414698,-0.00564901,0.144314,-0.815214
7.97015e-05,0.0636145,2.49204,-0.551632,1.50001,0.106372,0.009854,0.0457798,-0.538857
0.0319278,0.0574092,2.4982,-0.104342,1.66513,0.475373,-0.0307253,-0.048671,-0.183812
0.0623304,0.05872,2.5096,0.149826,1.39163,0.651545,-0.121631,-0.100356,0.156601
0.0842152,0.063814,2.52315,0.24463,0.872519,0.731064,-0.156454,-0.130901,0.398481
0.0955122,0.0704461,2.53766,0.280043,0.374839,0.780743,-0.143318,-0.155915,0.534889
0.0978316,0.0777453,2.55326,0.30103,-0.00895396,0.84604,-0.128783,-0.162827,0.596292
0.0936962,0.0855804,2.56969,0.318448,-0.235445,0.842473,-0.162064,-0.165623,0.622524
0.0865262,0.092978,2.58498,0.276695,-0.348348,0.740671,-0.182923,-0.179449,0.636518
0.0774254,0.0994688,2.59819,0.280029,-0.419553,0.627539,-0.140442,-0.195159,0.597804
0.0685411,0.107065,2.60949,0.410616,-0.334132,0.567992,-0.0748854,-0.165738,0.522015
0.0613027,0.117207,2.62063,0.522445,-0.303511,0.627972,-0.0144724,-0.097539,0.487123
0.0527443,0.128927,2.63407,0.572559,-0.390032,0.777795,0.0351507,-0.0636606,0.4304
0.0418495,0.141781,2.65016,0.651825,-0.479976,0.860413,0.0442454,-0.0426996,0.328394
0.0295789,0.156099,2.66685,0.702131,-0.509407,0.844945,0.0624904,-0.0465909,0.21272
0.0153534,0.16977,2.68406,0.614439,-0.650762,0.912486,0.0963334,-0.042135,0.104786
-0.00221088,0.181059,2.70402,0.510068,-0.754427,1.06481,0.126183,-0.0394718,-0.110175
-0.0223325,0.190068,2.72615,0.412124,-0.841649,1.06737,0.0780199,-0.0561765,-0.37357
-0.0441283,0.194957,2.74501,0.07883,-1.02818,0.71167,-0.0718492,-0.0836043,-0.590288
-0.0697519,0.190231,2.75228,-0.5256,-1.42617,-0.00923071,-0.140638,-0.178713,-0.791271
-0.100353,0.175796,2.74315,-0.942445,-1.73248,-0.723207,-0.0971447,-0.185582,-1.0364
-0.128976,0.158012,2.72133,-1.04947,-1.40421,-1.17103,-0.153105,0.0582337,-1.16769
-0.14444,0.14204,2.69334,-0.875536,-0.472011,-1.32537,-0.158323,0.216163,-1.13061
-0.137592,0.13242,2.66524,-0.44585,0.759315,-1.28472,-0.104399,0.204101,-0.87643
-0.109859,0.131426,2.64058,0.0300766,1.60172,-1.12732,-0.0376692,0.15801,-0.429777
-0.0730843,0.137366,2.61992,0.336366,1.69578,-0.967116,-0.0132398,0.114595,0.0187739
-0.0407275,0.1463,2.6025,0.431774,1.25084,-0.821356,-0.0295428,0.0498774,0.338305
-0.0193788,0.154909,2.58656,0.371619,0.647862,-0.807018,-0.0408214,-0.0120457,0.511049
-0.00899593,0.161537,2.5696,0.274347,0.149358,-0.884762,-0.02289,-0.0337453,0.588962
-0.00674021,0.166499,2.55104,0.205515,-0.198106,-0.943194,0.0173129,-0.0339308,0.601414
-0.0095688,0.169799,2.53241,0.108568,-0.377635,-0.870475,0.061784,0.00826293,0.599114
-0.0152709,0.17165,2.51678,0.0703852,-0.438796,-0.672105,0.0856636,0.0380264,0.579855
-0.0216745,0.174164,2.5052,0.18142,-0.373599,-0.463604,0.0853862,0.0766357,0.542258
-0.0271081,0.180231,2.49847,0.416343,-0.311561,-0.237197,0.0590298,0.0914576,0.522
-0.0327819,0.19141,2.49484,0.678533,-0.329329,-0.17857,0.0343443,0.0923277,0.49746
-0.038607,0.206829,2.49105,0.832997,-0.304966,-0.267037,0.0197542,0.0842331,0.467612
-0.0426193,0.224071,2.48504,0.856239,-0.254575,-0.371175,0.0360635,0.128084,0.452723
-0.0476061,0.241131,2.47892,0.825047,-0.394941,-0.263531,0.0930406,0.200806,0.398298
-0.0549924,0.257259,2.47712,0.774055,-0.36205,0.0156507,0.149698,0.224691,0.265541
-0.0634415,0.271402,2.48138,0.671059,-0.412689,0.317944,0.180341,0.198762,0.0832382
-0.0773322,0.284344,2.4926,0.743325,-0.651051,0.669122,0.21133,0.121043,-0.135766
-0.0937623,0.297703,2.50858,0.587776,-0.552367,0.607124,0.019713,0.0454612,-0.211181
-0.110218,0.29715,2.5119,-0.802983,-1.0592,-0.381329,-0.309208,-0.0296981,-0.159567
-0.126512,0.264198,2.48787,-2.72332,-1.1026,-1.48244,-0.438185,-0.183628,-0.280602
-0.130782,0.202462,2.44106,-3.78836,-0.292753,-2.15383,-0.458207,-0.0865618,-0.800596
-0.114241,0.134912,2.3882,-3.38908,1.1389,-2.04128,-0.27454,0.112531,-1.24754
-0.0718798,0.0822742,2.35075,-2.19654,2.5314,-1.06258,-0.0175668,0.0899023,-1.09353
-0.0195612,0.0492251,2.34047,-1.17565,2.59178,0.157865,0.0459798,-0.0512129,-0.516707
0.0295193,0.0353103,2.35266,-0.247928,2.27989,0.984467,-0.0593122,-0.260367,-0.0302793
0.065247,0.0391112,2.37464,0.481207,1.20438,1.07131,-0.190425,-0.366325,0.187508
0.0700214,0.0517934,2.38728,0.588402,-0.607748,0.226921,-0.234101,-0.434451,0.272457
0.0523502,0.0617193,2.38537,0.414947,-0.902007,-0.252792,-0.131603,-0.524608,0.270883
0.0523502,0.0617193,2.38537,0.414947,-0.902007,-0.252792,-0.131603,-0.524608,0.270883
0.0403055,0.0675375,2.37827,0.187368,-0.309951,-0.405337,-0.156169,-0.333667,0.193901
0.0409806,0.0693917,2.37102,0.0580977,0.304847,-0.257465,-0.111076,-0.181442,0.159125
0.0517394,0.0713018,2.36905,0.186875,0.69008,0.0722986,-0.0717111,-0.168978,0.139206
0.0641238,0.0789384,2.37217,0.594468,0.491281,0.24116,-0.0782998,-0.164598,0.12176
0.0697463,0.0963568,2.37536,1.12842,0.128089,0.166913,-0.135559,-0.147216,0.107123
0.0707935,0.123317,2.37533,1.5166,0.0218532,0.0414417,-0.141059,-0.0892607,0.0995395
0.0743015,0.154752,2.37419,1.57402,0.432977,0.108297,-0.111218,-0.00419044,0.0679043
0.0922335,0.183331,2.37535,1.20436,1.44017,0.234858,-0.0846541,0.029977,0.0288979
0.128922,0.208255,2.37796,1.78397,1.98958,0.175521,-0.0694666,0.0420493,-0.00465614
0.14656,0.248031,2.37257,1.90287,-0.423148,-0.154163,0.115681,-0.219974,0.0871789
0.126798,0.274273,2.36509,0.734348,-1.5275,-0.175466,-0.0308347,-0.197674,0.31874
0.0969447,0.276448,2.35798,-0.413699,-1.47719,-0.56377,-0.181481,-0.215692,-0.0165615
0.0788088,0.257583,2.3415,-1.27692,-0.695344,-1.15719,-0.147938,-0.287019,-0.474698
0.0820292,0.228884,2.31626,-1.20101,0.379519,-1.46156,-0.0201232,-0.186561,-0.828488
0.100115,0.209984,2.28886,-0.464027,0.599755,-1.33638,0.105907,-0.0461179,-0.788826
0.10874,0.202115,2.26438,-0.133312,-0.26787,-1.16644,0.0541753,0.00709206,-0.607593
0.102618,0.199073,2.24025,0.0935598,-0.685121,-1.27349,-0.088299,-0.0299764,-0.589802
0.0980556,0.201168,2.21144,0.404027,-0.252705,-1.50612,-0.165031,-0.0149844,-0.599992
0.10677,0.208846,2.17986,0.644532,0.486878,-1.44965,-0.1115,0.0422007,-0.43564
