rotationRate_x,rotationRate_y,rotationRate_z,acceleration_x,acceleration_y,acceleration_z,relativeAltitude,altitude_pressure
0.224646,-0.0218871,0.756315,0.021484,-0.0581669,0.231998,0.001,0.0001
0.253765,-0.0670407,0.780213,0.01379,-0.0447651,0.199541,0.001,0.0001
0.380447,-0.0535452,0.768594,-0.00287921,-0.0209855,0.124478,0.001,0.0001
0.478828,0.00299495,0.763174,0.00542497,0.00248305,0.0618424,0.001,0.0001
0.507679,-0.023678,0.801275,0.0408372,0.0175459,0.00243843,0.001,0.0001
0.451204,-0.195362,0.835757,0.076578,0.0118782,-0.0822374,0.001,0.0001
0.287141,-0.459787,0.763937,0.0176677,0.00446039,-0.20618,0.001,0.0001
-0.0275452,-0.791459,0.594157,-0.0468013,0.0201805,-0.326377,0.001,0.0001
-0.300966,-0.861997,0.405871,-0.0758983,0.000810862,-0.48565,0.001,0.0001
-0.314324,-0.597984,0.232965,-0.0796675,0.0255134,-0.660076,0.001,0.0001
-0.178417,-0.114778,0.167646,-0.0492769,0.0666458,-0.73468,0.001,0.0001
-0.12318,0.258504,0.188185,-0.0303236,0.104037,-0.638609,0.001,0.0001
-0.150449,0.305432,0.183085,-0.0172003,0.0748083,-0.463512,0.001,0.0001
-0.0842871,0.268225,0.138137,-0.0215626,0.0425187,-0.341928,0.001,0.0001
0.0639313,0.313691,0.154944,-0.00957324,0.0534061,-0.233278,0.001,0.0001
0.156072,0.354587,0.189609,-0.00192861,0.0595432,-0.0756261,0.001,0.0001
0.106473,0.37237,0.208727,-0.00350997,0.0414371,0.0886679,0.001,0.0001
-0.0260515,0.379423,0.194864,-0.0150628,0.0209023,0.209052,0.001,0.0001
-0.129579,0.35041,0.11808,-0.0215007,0.00192876,0.269497,0.001,0.0001
-0.133878,0.338662,0.0646946,-0.00231386,0.00589469,0.272991,0.001,0.0001
-0.0606131,0.284645,0.113883,0.0492538,0.034352,0.273955,0.001,0.0001
0.0427201,0.243052,0.235793,0.102064,0.0434328,0.278326,0.001,0.0001
0.125257,0.168772,0.351504,0.108798,0.0378313,0.288475,0.001,0.0001
0.210472,0.0306105,0.337844,0.0576993,-0.00205667,0.289862,0.001,0.0001
0.289122,-0.141396,0.236404,0.0155758,-0.0381845,0.291853,0.001,0.0001
0.273005,-0.200096,0.050146,-0.0180089,-0.0479328,0.2992,0.001,0.0001
0.173039,-0.0387991,-0.161278,-0.0350741,-0.0454651,0.285537,0.001,0.0001
0.0743504,0.180153,-0.368038,-0.0368879,-0.0220501,0.275889,0.001,0.0001
0.00539142,0.293819,-0.476929,0.00561737,0.0104111,0.288299,0.001,0.0001
0.00793113,0.274234,-0.454253,0.0602393,0.0519964,0.297623,0.001,0.0001
0.109188,0.191307,-0.372237,0.0859328,0.0845088,0.286827,0.001,0.0001
0.266336,0.134855,-0.302271,0.0760512,0.0896587,0.262161,0.001,0.0001
0.380852,0.168693,-0.207866,0.0722366,0.0827419,0.247591,0.001,0.0001
0.434912,0.255538,-0.0974032,0.0710739,0.0590689,0.242496,0.001,0.0001
0.335779,0.179618,-0.0360657,0.0539699,0.0288061,0.27095,0.001,0.0001
-0.0700122,0.232474,-0.115223,0.0219723,-0.0263024,0.241151,0.001,0.0001
-0.626525,0.22055,-0.300323,-0.045563,-0.121742,0.108213,0.001,0.0001
-0.671532,-0.142021,-0.409736,-0.00933252,-0.159996,-0.189719,0.001,0.0001
-0.520685,-0.667508,-0.474128,-0.00507092,-0.0676932,-0.449823,0.001,0.0001
-0.619845,-0.73666,-0.445544,0.00775259,-0.0462042,-0.620435,0.001,0.0001
-0.809997,-0.335816,-0.38482,0.00377014,-0.0222374,-0.748515,0.001,0.0001
-0.815637,0.210762,-0.244857,0.00479963,0.00639607,-0.862442,0.001,0.0001
-0.599573,0.511381,0.0192478,0.00378341,0.0344374,-0.852546,0.001,0.0001
-0.232843,0.476213,0.225841,-0.014074,0.000243276,-0.732047,0.001,0.0001
0.0981124,0.371839,0.340734,-0.055534,-0.0524912,-0.542403,0.001,0.0001
0.283652,0.23951,0.43658,-0.0843611,-0.0747167,-0.319004,0.001,0.0001
0.339596,0.0908547,0.484384,-0.11435,-0.093632,-0.113224,0.001,0.0001
0.303012,0.0161555,0.405406,-0.164541,-0.126137,0.0415204,0.001,0.0001
0.201914,0.0285256,0.251256,-0.201309,-0.142252,0.158951,0.001,0.0001
0.102389,0.0708845,0.090238,-0.203289,-0.132395,0.240029,0.001,0.0001
0.0341434,0.127302,-0.0242383,-0.180288,-0.102297,0.298736,0.001,0.0001
0.0341434,0.127302,-0.0242383,-0.180288,-0.102297,0.298736,0.00793457,-0.000106812
0.029804,0.152756,-0.0800403,-0.13047,-0.0668534,0.351405,0.00793457,-0.000106812
0.116044,0.23987,-0.0974179,-0.0876504,-0.0310673,0.371366,0.00793457,-0.000106812
0.214776,0.288681,-0.0402139,-0.0425685,0.00994483,0.415278,0.00793457,-0.000106812
0.276932,0.214435,0.0720002,0.00300699,0.0375989,0.48328,0.00793457,-0.000106812
0.323568,0.111203,0.18279,0.025124,0.0504599,0.521474,0.00793457,-0.000106812
0.354218,0.0324657,0.262809,0.0341984,0.047201,0.526378,0.00793457,-0.000106812
0.333083,-0.057954,0.332272,0.0340794,0.0544335,0.531745,0.00793457,-0.000106812
0.198198,-0.258269,0.401154,0.032363,0.0686038,0.526172,0.00793457,-0.000106812
0.068482,-0.470278,0.416122,-0.00385908,0.0669896,0.447151,0.00793457,-0.000106812
0.0485792,-0.606718,0.343552,-0.0312443,0.0646965,0.278066,0.00793457,-0.000106812
0.0720996,-0.432178,0.2623,-0.0331729,0.0674848,0.0975549,0.00793457,-0.000106812
-0.0525139,-0.248379,0.192772,-0.0435329,0.0697345,-0.0285488,0.00793457,-0.000106812
-0.302843,-0.285946,0.088472,-0.0447396,0.0338321,-0.145326,0.00793457,-0.000106812
-0.481061,-0.530863,-0.0653442,-0.0522683,0.0183382,-0.3222,0.00793457,-0.000106812
-0.472916,-0.704182,-0.216718,-0.0547655,0.0582419,-0.540155,0.00793457,-0.000106812
-0.375375,-0.529865,-0.241645,-0.00499808,0.104581,-0.715536,0.00793457,-0.000106812
-0.292773,-0.17842,-0.137345,0.0656702,0.119204,-0.771869,0.00793457,-0.000106812
-0.22922,0.0166107,0.0333293,0.101836,0.124131,-0.711698,0.00793457,-0.000106812
-0.199255,0.00580373,0.0864528,0.0641017,0.0897407,-0.579233,0.00793457,-0.000106812
-0.255341,-0.061325,-0.0313484,-0.01032,0.0233618,-0.441738,0.00793457,-0.000106812
-0.337731,0.0340787,-0.13075,-0.0303847,-0.00214051,-0.322571,0.00793457,-0.000106812
-0.290668,0.134185,-0.160715,-0.0130992,-0.00720854,-0.208144,0.00793457,-0.000106812
-0.163558,0.164015,-0.161168,0.00382543,-0.0145444,-0.0560379,0.00793457,-0.000106812
-0.073149,0.216353,-0.137006,0.00463707,-0.0307732,0.102971,0.00793457,-0.000106812
-0.0335618,0.265767,-0.130282,-0.00580749,-0.0527495,0.260483,0.00793457,-0.000106812
-0.0148591,0.243182,-0.18253,-0.0124771,-0.0810168,0.390713,0.00793457,-0.000106812
0.0530438,0.125528,-0.250328,-0.00899328,-0.100672,0.463969,0.00793457,-0.000106812
0.139276,-0.125134,-0.288688,0.0219485,-0.103442,0.509602,0.00793457,-0.000106812
0.227613,-0.3875,-0.26207,0.0770004,-0.0873082,0.519234,0.00793457,-0.000106812
0.311144,-0.488696,-0.215556,0.111059,-0.0612604,0.499894,0.00793457,-0.000106812
0.37096,-0.412612,-0.188252,0.112644,-0.0358862,0.478117,0.00793457,-0.000106812
0.360582,-0.390172,-0.229041,0.0863773,-0.0207151,0.489964,0.00793457,-0.000106812
0.278372,-0.426909,-0.334075,0.0594937,-0.0185023,0.498066,0.00793457,-0.000106812
0.275363,-0.341661,-0.441735,0.0453295,0.017461,0.449908,0.00793457,-0.000106812
0.360494,-0.215496,-0.472266,0.0526346,0.088902,0.419712,0.00793457,-0.000106812
0.472499,-0.234595,-0.372047,0.0863975,0.150425,0.429736,0.00793457,-0.000106812
0.459023,-0.29425,-0.283243,0.10875,0.178298,0.453275,0.00793457,-0.000106812
0.0616279,-0.18901,-0.276033,0.132311,0.161839,0.462881,0.00793457,-0.000106812
-0.959097,-0.657429,-0.21579,0.165697,0.133169,0.42604,0.00793457,-0.000106812
-1.98803,-1.25192,-0.368422,0.0903966,0.120481,0.105348,0.00793457,-0.000106812
-2.38584,-1.24147,-0.692362,-0.0714324,0.16413,-0.577717,0.00793457,-0.000106812
-2.31851,-0.700208,-0.523466,-0.0372859,0.250113,-1.1701,0.00793457,-0.000106812
-1.81049,0.303197,0.0516692,0.0274029,0.255127,-1.49462,0.00793457,-0.000106812
-0.974557,1.2085,0.549764,0.0108146,0.109335,-1.47594,0.00793457,-0.000106812
0.0190792,1.73119,0.854014,-0.0287816,-0.0794798,-1.16371,0.00793457,-0.000106812
0.765422,1.75093,1.01792,-0.129156,-0.131016,-0.635546,0.00793457,-0.000106812
1.04194,1.44654,1.11769,-0.169307,-0.179446,-0.107595,0.00793457,-0.000106812
1.03893,1.10561,0.957844,-0.23024,-0.241815,0.246586,0.00793457,-0.000106812
0.910992,0.816625,0.66492,-0.25089,-0.271712,0.444494,0.00793457,-0.000106812
0.800935,0.610344,0.435761,-0.209333,-0.257178,0.518679,0.00793457,-0.000106812
0.800935,0.610344,0.435761,-0.209333,-0.257178,0.518679,-0.00793457,0.000106812
0.735183,0.391114,0.331142,-0.153348,-0.193364,0.545044,-0.00793457,0.000106812
0.715964,0.180532,0.345922,-0.0794676,-0.120959,0.525115,-0.00793457,0.000106812
0.752516,0.103634,0.392255,-0.0421507,-0.0752256,0.445177,-0.00793457,0.000106812
0.834373,-0.0348425,0.446404,-0.0150287,-0.0401922,0.333745,-0.00793457,0.000106812
0.862135,-0.258185,0.465393,0.0323519,0.00770688,0.174222,-0.00793457,0.000106812
0.560671,-0.347895,0.409209,0.0286785,0.0757686,0.0241091,-0.00793457,0.000106812
-0.289055,-0.572071,0.334888,0.0332013,0.127273,-0.0396491,-0.00793457,0.000106812
-1.17044,-0.780191,0.201887,0.0367159,0.0897006,-0.252639,-0.00793457,0.000106812
-1.56833,-1.17628,0.0199567,0.061663,0.100093,-0.584875,-0.00793457,0.000106812
-1.3113,-1.27651,0.0139846,0.0798735,0.199871,-0.982391,-0.00793457,0.000106812
-0.719014,-0.702799,0.162583,0.0682435,0.264413,-1.2182,-0.00793457,0.000106812
-0.18782,0.0727093,0.322193,0.0774643,0.201139,-1.13365,-0.00793457,0.000106812
0.126473,0.617767,0.448231,0.0504695,0.137262,-0.80076,-0.00793457,0.000106812
0.338151,0.818139,0.481878,-0.0107573,0.0714325,-0.415337,-0.00793457,0.000106812
0.480921,0.760646,0.420466,-0.063009,0.0107833,-0.0713069,-0.00793457,0.000106812
0.497788,0.597985,0.286317,-0.0984059,-0.0392822,0.212257,-0.00793457,0.000106812
0.327971,0.401352,0.163189,-0.115441,-0.0564771,0.42467,-0.00793457,0.000106812
0.0644572,0.252297,0.0363279,-0.101396,-0.069454,0.530217,-0.00793457,0.000106812
-0.139526,0.131108,-0.0546772,-0.0610546,-0.0765285,0.547619,-0.00793457,0.000106812
-0.190325,-0.0254071,-0.0835482,-0.0305083,-0.0522329,0.508083,-0.00793457,0.000106812
-0.108759,-0.161383,-0.0577509,0.00640377,-0.0305316,0.438422,-0.00793457,0.000106812
0.040084,-0.281396,0.0175903,0.0402311,-0.0170504,0.374398,-0.00793457,0.000106812
0.247382,-0.278787,0.122006,0.0519681,-0.00535931,0.322534,-0.00793457,0.000106812
0.448965,-0.239138,0.156739,0.0277703,0.000279903,0.308537,-0.00793457,0.000106812
0.506404,-0.242335,0.0752542,-0.00764722,-0.0203712,0.371845,-0.00793457,0.000106812
0.413538,-0.213891,-0.102431,-0.0498412,-0.0299263,0.43675,-0.00793457,0.000106812
0.197676,-0.214715,-0.356159,-0.0914617,-0.0109038,0.485429,-0.00793457,0.000106812
0.000515568,-0.105156,-0.623912,-0.099126,0.000257641,0.484217,-0.00793457,0.000106812
0.00371019,0.0657326,-0.805834,-0.0703841,0.048916,0.43549,-0.00793457,0.000106812
0.201376,0.184389,-0.787267,0.0035852,0.122161,0.40798,-0.00793457,0.000106812
0.505483,0.223307,-0.596921,0.0750947,0.171649,0.393319,-0.00793457,0.000106812
0.770979,0.330372,-0.339964,0.133165,0.194389,0.400531,-0.00793457,0.000106812
0.820082,0.671655,-0.117804,0.150228,0.162671,0.441194,-0.00793457,0.000106812
0.251396,0.660911,0.0731712,0.233873,0.0835123,0.514634,-0.00793457,0.000106812
-0.744225,-0.157139,0.287632,0.177488,0.0167768,0.440044,-0.00793457,0.000106812
-1.62202,-1.33084,-0.135346,-0.143895,0.0133364,0.0248051,-0.00793457,0.000106812
-2.07967,-1.65926,-0.829852,-0.232251,-0.0306909,-0.582136,-0.00793457,0.000106812
-1.92515,-1.10664,-0.861895,-0.0271964,-0.0323904,-1.13809,-0.00793457,0.000106812
-1.26231,0.464626,-0.112917,0.124237,0.0970705,-1.47038,-0.00793457,0.000106812
-0.507452,1.86524,0.655816,0.109269,0.0426548,-1.29432,-0.00793457,0.000106812
-0.0357786,2.37408,0.902364,-0.0333126,-0.131528,-0.754451,-0.00793457,0.000106812
0.152309,2.01619,0.882885,-0.16275,-0.258717,-0.2302,-0.00793457,0.000106812
0.353623,1.16665,0.804376,-0.195029,-0.327328,0.0671253,-0.00793457,0.000106812
0.68878,0.304067,0.645862,-0.204316,-0.305773,0.192462,-0.00793457,0.000106812
1.01237,-0.146722,0.561081,-0.220962,-0.221708,0.238616,-0.00793457,0.000106812
1.15409,-0.271093,0.50036,-0.253354,-0.134203,0.288382,-0.00793457,0.000106812
1.02901,-0.162993,0.353878,-0.277185,-0.0817908,0.320375,-0.00793457,0.000106812
0.665392,-0.120019,0.159283,-0.215322,-0.0753381,0.287116,-0.00793457,0.000106812
0.215748,-0.400514,0.0204356,-0.125355,-0.0421321,0.148389,-0.00793457,0.000106812
-0.171457,-1.01632,-0.0891519,-0.0598928,0.0264814,-0.0751914,-0.00793457,0.000106812
-0.557629,-1.8239,-0.236946,-0.0916915,0.111078,-0.363705,-0.00793457,0.000106812
-0.557629,-1.8239,-0.236946,-0.0916915,0.111078,-0.363705,-0.142685,0.00167847
-0.805986,-2.18939,-0.460808,-0.121411,0.149266,-0.7374,-0.142685,0.00167847
-0.69092,-1.76854,-0.666929,-0.0814633,0.169743,-1.09849,-0.142685,0.00167847
-0.528471,-0.775233,-0.572047,-0.0120331,0.27326,-1.15194,-0.142685,0.00167847
-0.453054,0.218285,-0.286445,0.0693141,0.269585,-0.903386,-0.142685,0.00167847
-0.40318,0.747936,-0.206309,0.0398349,0.171943,-0.530311,-0.142685,0.00167847
-0.37574,0.834507,-0.246728,-0.018388,0.0809622,-0.169845,-0.142685,0.00167847
-0.312153,0.664995,-0.350538,-0.0635985,0.0203602,0.103486,-0.142685,0.00167847
-0.228073,0.292658,-0.474653,-0.0882999,-0.00817949,0.318467,-0.142685,0.00167847
-0.0927993,-0.0730223,-0.586774,-0.0913542,-0.0321743,0.440038,-0.142685,0.00167847
0.0795905,-0.407797,-0.654634,-0.0729127,-0.0314364,0.512069,-0.142685,0.00167847
0.313809,-0.629381,-0.664176,-0.0445885,-0.0204497,0.548009,-0.142685,0.00167847
0.592934,-0.709038,-0.664032,-0.0292575,-0.00996392,0.583971,-0.142685,0.00167847
0.885787,-0.610797,-0.704825,-0.0323562,0.0156858,0.620774,-0.142685,0.00167847
1.09739,-0.398215,-0.844874,-0.04763,0.0508693,0.67913,-0.142685,0.00167847
1.08428,-0.259693,-1.0888,-0.0539148,0.0782042,0.76667,-0.142685,0.00167847
0.903112,-0.198329,-1.33003,-0.0251594,0.0980207,0.823313,-0.142685,0.00167847
0.752613,-0.150698,-1.45606,0.0222275,0.133361,0.806095,-0.142685,0.00167847
0.725926,-0.252756,-1.48607,0.0379591,0.178301,0.721826,-0.142685,0.00167847
0.830089,-0.363308,-1.40982,0.051525,0.201675,0.578852,-0.142685,0.00167847
0.95364,-0.0816395,-1.25314,0.083437,0.192899,0.420548,-0.142685,0.00167847
0.811797,0.5386,-1.08778,0.156428,0.120572,0.332967,-0.142685,0.00167847
0.193204,0.735121,-1.04184,0.274011,-0.0424586,0.292397,-0.142685,0.00167847
-0.543265,0.67999,-1.24716,0.173924,-0.199207,0.1892,-0.142685,0.00167847
-1.5241,0.179049,-1.61971,0.0303257,-0.233407,0.0385411,-0.142685,0.00167847
-2.20352,-0.258613,-1.81534,0.0860383,-0.298882,-0.257448,-0.142685,0.00167847
-2.0108,-0.489394,-1.72739,0.0896486,-0.144123,-0.673837,-0.142685,0.00167847
-1.38467,-0.131221,-1.12619,0.0978638,0.0811523,-0.90508,-0.142685,0.00167847
-0.576331,0.0727159,-0.383323,0.176493,0.0444607,-0.978534,-0.142685,0.00167847
0.500783,0.0942569,0.32169,0.234168,-0.00635421,-0.953713,-0.142685,0.00167847
1.31023,0.101412,0.927204,0.0856683,0.0850272,-0.708642,-0.142685,0.00167847
1.52588,0.0386791,1.10909,-0.0938585,0.0320445,-0.396896,-0.142685,0.00167847
1.21796,-0.168345,0.805804,-0.276212,-0.0834664,-0.147102,-0.142685,0.00167847
0.567987,-0.45027,0.258184,-0.343764,-0.190373,6.58631e-05,-0.142685,0.00167847
-0.19391,-0.732606,-0.307452,-0.319657,-0.236435,0.00700819,-0.142685,0.00167847
-0.734829,-0.813367,-0.800254,-0.294889,-0.19596,-0.140604,-0.142685,0.00167847
-1.02918,-0.839593,-1.1944,-0.24561,-0.109618,-0.325694,-0.142685,0.00167847
-1.07051,-0.705418,-1.41125,-0.14412,-0.0319878,-0.492707,-0.142685,0.00167847
-0.814569,-0.20439,-1.37577,-0.0268966,0.0430923,-0.617656,-0.142685,0.00167847
-0.38725,0.363423,-1.12082,0.0815549,0.105046,-0.578529,-0.142685,0.00167847
0.000771667,0.685153,-0.789352,0.148835,0.105571,-0.372992,-0.142685,0.00167847
0.239441,0.682943,-0.521663,0.132897,0.06066,-0.101455,-0.142685,0.00167847
0.321283,0.48325,-0.379047,0.0651214,0.00622986,0.133926,-0.142685,0.00167847
0.374115,0.205754,-0.353737,-0.00853916,-0.0473678,0.291448,-0.142685,0.00167847
0.476562,-0.143382,-0.417376,-0.0606471,-0.0667063,0.389231,-0.142685,0.00167847
0.587875,-0.363255,-0.464817,-0.0851497,-0.059862,0.448114,-0.142685,0.00167847
0.650359,-0.471038,-0.512935,-0.0992718,-0.0259705,0.501736,-0.142685,0.00167847
0.619196,-0.526588,-0.598337,-0.118584,-0.00642133,0.558856,-0.142685,0.00167847
0.537797,-0.558463,-0.726215,-0.133064,0.00386648,0.593853,-0.142685,0.00167847
0.459658,-0.598784,-0.916678,-0.145184,0.0143409,0.599693,-0.142685,0.00167847
0.4263,-0.708682,-1.14029,-0.139165,0.0339103,0.579763,-0.142685,0.00167847
0.4263,-0.708682,-1.14029,-0.139165,0.0339103,0.579763,-0.240448,0.00285339
0.380836,-0.740053,-1.38526,-0.11903,0.0559059,0.548481,-0.240448,0.00285339
0.222354,-0.82419,-1.63057,-0.118319,0.107469,0.545072,-0.240448,0.00285339
-0.001208,-0.93764,-1.88831,-0.129513,0.16917,0.513695,-0.240448,0.00285339
-0.238646,-0.997171,-2.05204,-0.0856432,0.233931,0.410832,-0.240448,0.00285339
-0.342373,-1.1229,-1.94057,0.051674,0.2701,0.219589,-0.240448,0.00285339
-0.313679,-1.08183,-1.56978,0.163576,0.290592,-0.0256552,-0.240448,0.00285339
-0.518477,-0.758503,-1.17937,0.214349,0.24716,-0.222616,-0.240448,0.00285339
-1.43749,-0.660096,-1.13321,0.0528876,0.18941,-0.326291,-0.240448,0.00285339
-2.41207,-0.413459,-1.48563,-0.231143,0.0477317,-0.63742,-0.240448,0.00285339
-2.66217,0.032364,-1.87607,-0.334084,-0.00593926,-1.11465,-0.240448,0.00285339
-2.17667,0.76813,-1.73576,-0.21465,0.124128,-1.45521,-0.240448,0.00285339
-1.40674,1.4372,-1.13527,-0.0249975,0.154445,-1.46459,-0.240448,0.00285339
-0.729959,1.50234,-0.460031,0.0746885,0.00748055,-1.1799,-0.240448,0.00285339
-0.116333,1.15939,-0.0279103,0.0148531,-0.155519,-0.846208,-0.240448,0.00285339
0.420453,0.754164,0.0932813,-0.110454,-0.254164,-0.543784,-0.240448,0.00285339
0.753825,0.519091,0.0309448,-0.195548,-0.309876,-0.248481,-0.240448,0.00285339
0.805802,0.45289,-0.107502,-0.241488,-0.31745,0.0646409,-0.240448,0.00285339
0.731473,0.451869,-0.253271,-0.248746,-0.300095,0.313954,-0.240448,0.00285339
0.641148,0.42753,-0.392859,-0.241309,-0.274171,0.478261,-0.240448,0.00285339
0.560081,0.286533,-0.540947,-0.238224,-0.241354,0.596382,-0.240448,0.00285339
0.475178,0.0783472,-0.690163,-0.225925,-0.212764,0.673753,-0.240448,0.00285339
0.421444,-0.0756864,-0.789816,-0.196283,-0.179765,0.695098,-0.240448,0.00285339
0.406693,-0.202927,-0.856657,-0.156937,-0.149566,0.676795,-0.240448,0.00285339
0.425041,-0.240184,-0.896651,-0.102322,-0.118798,0.622068,-0.240448,0.00285339
0.40689,-0.202503,-0.865082,-0.0481117,-0.0890014,0.537117,-0.240448,0.00285339
0.264983,-0.350926,-0.787012,-0.0238371,-0.0545126,0.451199,-0.240448,0.00285339
0.077871,-0.594046,-0.743749,-0.0375222,-0.0193878,0.264976,-0.240448,0.00285339
0.0113767,-0.619179,-0.834711,-0.117037,0.0279679,-0.0684576,-0.240448,0.00285339
0.0544944,-0.145199,-0.98048,-0.163246,0.0284863,-0.393908,-0.240448,0.00285339
-0.283882,-0.0976563,-1.12889,-0.140949,0.00203015,-0.46632,-0.240448,0.00285339
-0.729643,-0.572307,-1.40862,-0.132178,-0.0260945,-0.540433,-0.240448,0.00285339
-0.919509,-0.597388,-1.64163,-0.188121,0.074083,-0.772376,-0.240448,0.00285339
-0.333897,0.546652,-1.45048,-0.0666288,0.146722,-1.02842,-0.240448,0.00285339
0.67441,1.77793,-0.954755,0.0668326,0.20737,-0.872827,-0.240448,0.00285339
1.18035,1.91783,-0.562578,0.0799865,0.185384,-0.261536,-0.240448,0.00285339
0.894914,1.06728,-0.283462,0.0536974,0.0650521,0.295751,-0.240448,0.00285339
0.203081,-0.204569,-0.266523,-0.0092556,-0.0750901,0.538152,-0.240448,0.00285339
-0.303803,-1.23031,-0.578161,-0.113469,-0.160015,0.415631,-0.240448,0.00285339
-0.467821,-1.49024,-0.877921,-0.199289,-0.105605,0.105507,-0.240448,0.00285339
-0.27897,-0.916064,-0.963827,-0.210813,0.045341,-0.156439,-0.240448,0.00285339
-0.0256589,-0.0441347,-0.752146,-0.121308,0.1506,-0.236631,-0.240448,0.00285339
0.17452,0.549086,-0.34554,0.00713913,0.152143,-0.137951,-0.240448,0.00285339
0.314441,0.490613,0.0074739,0.0104074,0.123573,0.0616601,-0.240448,0.00285339
0.454879,0.0882829,0.200203,-0.0788633,0.0790941,0.198371,-0.240448,0.00285339
0.546212,-0.428109,0.20598,-0.173905,0.0379048,0.272159,-0.240448,0.00285339
0.497344,-0.829575,0.0548996,-0.246278,0.00155394,0.312586,-0.240448,0.00285339
0.303827,-0.98075,-0.188921,-0.279002,-0.0267268,0.311194,-0.240448,0.00285339
0.0850638,-0.887956,-0.481345,-0.283586,-0.0393924,0.267959,-0.240448,0.00285339
-0.125732,-0.684691,-0.775199,-0.263779,-0.0400232,0.224486,-0.240448,0.00285339
-0.313365,-0.577446,-0.97865,-0.213755,-0.0273662,0.193119,-0.240448,0.00285339
-0.380833,-0.592925,-1.12253,-0.154968,-0.0292146,0.13955,-0.240448,0.00285339
-0.359663,-0.618493,-1.25083,-0.100805,-0.0341927,0.0732177,-0.240448,0.00285339
-0.3479,-0.560901,-1.35665,-0.058161,-0.0356512,0.0278488,-0.240448,0.00285339
-0.335306,-0.47059,-1.45632,-0.0354494,-0.0363342,-0.0231506,-0.240448,0.00285339
-0.281839,-0.339336,-1.5356,0.00903803,-0.0417947,-0.0720219,-0.240448,0.00285339
-0.307131,-0.0303854,-1.57189,0.0677269,-0.0540625,-0.0795494,-0.240448,0.00285339
-0.530966,0.0495466,-1.62401,0.0687523,-0.0733309,-0.0197905,-0.240448,0.00285339
-0.793482,-0.200925,-1.85331,0.00814769,-0.0796394,-0.0145766,-0.240448,0.00285339
-0.973256,-0.485032,-2.1346,0.0260541,-0.0908834,-0.113998,-0.240448,0.00285339
-1.04094,-0.444454,-2.1589,0.101524,-0.0350298,-0.274996,-0.240448,0.00285339
-0.815518,-0.067565,-1.88102,0.18008,0.0515952,-0.438141,-0.240448,0.00285339
-0.256369,0.635597,-1.43747,0.219092,0.103268,-0.556176,-0.240448,0.00285339
0.333261,1.16156,-0.98313,0.190996,0.122665,-0.472305,-0.240448,0.00285339
0.716042,1.17949,-0.654964,0.105235,0.100897,-0.235985,-0.240448,0.00285339
0.832082,0.72761,-0.467737,-0.000593767,0.0638,-0.030489,-0.240448,0.00285339
0.715964,0.1304,-0.380145,-0.110494,0.0586964,0.0674239,-0.240448,0.00285339
0.508735,-0.228033,-0.440161,-0.231454,0.03417,0.0385125,-0.240448,0.00285339
0.377382,-0.311241,-0.670781,-0.341507,0.00161371,-0.060306,-0.240448,0.00285339
0.378348,-0.12517,-0.985587,-0.375822,-0.0319925,-0.153059,-0.240448,0.00285339
0.354677,0.2035,-1.22624,-0.327169,-0.0211103,-0.159574,-0.240448,0.00285339
0.250347,0.692377,-1.3304,-0.254957,-0.00543995,-0.10585,-0.240448,0.00285339
0.145519,0.989301,-1.30774,-0.207715,0.0168582,-0.0139009,-0.240448,0.00285339
0.178287,0.977858,-1.22283,-0.153426,0.00897083,0.0531266,-0.240448,0.00285339
0.265356,0.841285,-1.07208,-0.109059,-0.00686602,0.111501,-0.240448,0.00285339
0.343841,0.750521,-0.92173,-0.104179,-0.0186094,0.167812,-0.240448,0.00285339
0.353614,0.650435,-0.82389,-0.11279,-0.0348283,0.231912,-0.240448,0.00285339
0.353614,0.650435,-0.82389,-0.11279,-0.0348283,0.231912,-0.314438,0.00370026
0.25999,0.511059,-0.750909,-0.103797,-0.0570069,0.302776,-0.314438,0.00370026
0.130765,0.341027,-0.68014,-0.0896459,-0.0623029,0.342164,-0.314438,0.00370026
0.00938151,0.21198,-0.535134,-0.0628816,-0.053947,0.349123,-0.314438,0.00370026
-0.0892403,0.0506545,-0.325422,-0.0204219,-0.0524555,0.325559,-0.314438,0.00370026
-0.0867649,-0.0409987,-0.113528,0.00845407,-0.0511881,0.258513,-0.314438,0.00370026
0.00994233,-0.0822597,0.0834838,0.0214971,-0.0525224,0.174868,-0.314438,0.00370026
0.185343,-0.0872113,0.271275,0.033097,-0.0531765,0.0950854,-0.314438,0.00370026
0.371482,-0.142473,0.437014,0.0417999,-0.0343785,0.0416963,-0.314438,0.00370026
0.38845,-0.00896306,0.585026,0.0427079,-0.0155214,0.029713,-0.314438,0.00370026
-0.00510397,0.00281213,0.647445,0.043714,-0.0764918,0.0696129,-0.314438,0.00370026
-0.240967,-0.929787,0.552201,-0.0198128,-0.122226,-0.0495568,-0.314438,0.00370026
0.138684,-1.60125,0.0184662,-0.141728,-0.139301,-0.333315,-0.314438,0.00370026
0.0040788,-1.21683,-0.215025,-0.114328,-0.0830614,-0.345784,-0.314438,0.00370026
0.558809,-0.0950943,-0.390085,-0.0735369,-0.00953391,-0.515404,-0.314438,0.00370026
0.835241,0.742192,-0.294063,-0.185091,-0.0152892,-0.664769,-0.314438,0.00370026
0.519172,0.702926,0.0439681,0.0324081,0.0314182,-0.079377,-0.314438,0.00370026
0.0237944,0.0815138,0.206679,0.0506603,-0.0459914,0.214482,-0.314438,0.00370026
-0.612437,-0.222068,0.232896,0.0701119,-0.078329,0.219528,-0.314438,0.00370026
-0.862527,-0.257897,-0.118032,-0.0327556,-0.0549249,0.0225917,-0.314438,0.00370026
-0.879229,-0.259843,-0.427953,-0.0237724,0.0250657,-0.0278346,-0.314438,0.00370026
-0.740948,-0.246155,-0.488334,0.0409683,0.089756,-0.0540574,-0.314438,0.00370026
-0.369928,-0.278026,-0.547477,0.018327,0.0776656,-0.0683601,-0.314438,0.00370026
-0.0835488,-0.518627,-0.74099,-0.124154,-0.0467135,-0.0361146,-0.314438,0.00370026
-0.0568216,-0.592584,-0.68173,-0.0902192,-0.0610836,0.0990442,-0.314438,0.00370026
-0.16062,-0.543707,-0.583503,-0.109042,-0.0656511,0.202698,-0.314438,0.00370026
-0.214229,-0.362942,-0.450933,-0.140469,-0.0663758,0.224841,-0.314438,0.00370026
-0.242579,-0.286354,-0.356577,-0.148842,-0.0261252,0.224083,-0.314438,0.00370026
-0.360422,-0.27224,-0.379633,-0.163179,-0.0262458,0.238966,-0.314438,0.00370026
-0.406476,-0.207698,-0.400476,-0.16442,-0.0299939,0.217562,-0.314438,0.00370026
-0.259538,-0.255456,-0.447716,-0.148117,-0.0447373,0.144735,-0.314438,0.00370026
0.0369185,-0.284632,-0.535417,-0.0831703,-0.0261404,0.0651898,-0.314438,0.00370026
0.210631,-0.187353,-0.674747,-0.0517637,-0.0596708,-0.0324134,-0.314438,0.00370026
0.273159,-0.0750704,-0.858607,-0.0717857,-0.0725635,-0.0629445,-0.314438,0.00370026
0.478153,-0.131293,-1.02818,-0.0438985,-0.0635776,-0.142113,-0.314438,0.00370026
0.700642,-0.0988708,-1.1979,-0.015406,-0.0692012,-0.210375,-0.314438,0.00370026
0.855661,0.0346505,-1.17546,0.0233628,-0.0391529,-0.176883,-0.314438,0.00370026
1.10231,0.180408,-0.884385,0.0667191,-0.12564,-0.244179,-0.314438,0.00370026
1.17393,0.268556,-0.414403,0.0869436,-0.124136,-0.2089,-0.314438,0.00370026
1.4296,0.593724,-0.374013,0.138746,-0.155134,-0.240481,-0.314438,0.00370026
2.19869,0.231044,-0.695032,0.2268,-0.0823343,-0.344308,-0.314438,0.00370026
1.91209,-0.097444,-0.312126,0.12258,0.0893615,-0.353798,-0.314438,0.00370026
1.39889,0.497299,-0.56835,-0.0483799,-0.0734587,-0.246579,-0.314438,0.00370026
0.590598,0.0711368,-0.123405,-0.0282582,0.0605575,-0.0275087,-0.314438,0.00370026
-0.2594,-0.965695,0.313225,-0.100099,0.00825721,0.151168,-0.314438,0.00370026
-0.746885,-1.15795,0.319918,-0.114427,-0.00911376,0.0994226,-0.314438,0.00370026
-0.961962,-1.14177,0.287154,-0.130718,0.0529183,0.0785862,-0.314438,0.00370026
-1.07407,-1.11658,0.292083,-0.146264,0.0896253,0.0572945,-0.314438,0.00370026
-0.976328,-1.05151,0.148847,-0.158459,0.171002,0.0143567,-0.314438,0.00370026
-0.534166,-0.477195,-0.171377,-0.166862,0.239788,-0.0439801,-0.314438,0.00370026
0.240447,0.139176,-0.438399,-0.116134,0.23207,0.00184828,-0.314438,0.00370026
0.791474,0.166946,-0.471434,-0.0614837,0.202354,-0.113974,-0.314438,0.00370026
0.615966,-0.462865,-0.377772,-0.0336379,0.214366,-0.0324396,-0.314438,0.00370026
0.512123,-0.543297,-0.292745,-0.0610849,0.215399,0.172132,-0.314438,0.00370026
0.359913,-0.557939,-0.318613,-0.0621269,0.178054,0.0972321,-0.314438,0.00370026
0.359913,-0.557939,-0.318613,-0.0621269,0.178054,0.0972321,-0.00793457,0.000114441
0.196555,-0.574965,-0.273398,-0.0369175,0.214322,0.128873,-0.00793457,0.000114441
0.030363,-0.408267,-0.145348,-0.0296296,0.198564,0.116148,-0.00793457,0.000114441
-0.117166,-0.135602,0.0180442,-0.0256516,0.195674,0.10223,-0.00793457,0.000114441
-0.16457,0.170315,0.167277,-0.0234778,0.216425,0.0559162,-0.00793457,0.000114441
-0.109907,0.33084,0.186277,-0.0267333,0.25483,-0.01623,-0.00793457,0.000114441
-0.0965817,0.253202,0.108646,-0.0387792,0.275532,-0.0436987,-0.00793457,0.000114441
-0.137636,0.0948754,0.00391536,-0.0398977,0.278752,-0.0377059,-0.00793457,0.000114441
-0.257102,-0.0630649,-0.079417,-0.0371734,0.255802,-0.0140889,-0.00793457,0.000114441
-0.435313,-0.188887,-0.0960303,-0.0381188,0.234805,0.0253586,-0.00793457,0.000114441
-0.649599,-0.228969,-0.1204,-0.0397954,0.226614,0.0411201,-0.00793457,0.000114441
-0.830439,-0.244632,-0.202329,-0.0625696,0.234173,0.0449733,-0.00793457,0.000114441
-0.846528,-0.22181,-0.37273,-0.0874134,0.238339,0.0022223,-0.00793457,0.000114441
-0.725093,-0.165636,-0.538159,-0.0742593,0.228101,-0.0313348,-0.00793457,0.000114441
-0.516653,-0.0373683,-0.651869,-0.0591007,0.195823,-0.0343732,-0.00793457,0.000114441
-0.301125,0.13328,-0.672873,-0.0362896,0.152243,-0.0113653,-0.00793457,0.000114441
-0.181157,0.324174,-0.640962,-0.0230563,0.103904,0.0289028,-0.00793457,0.000114441
-0.191179,0.501572,-0.581592,-0.0201964,0.0598237,0.0653191,-0.00793457,0.000114441
-0.335035,0.603655,-0.490395,-0.0213407,0.0224804,0.0892085,-0.00793457,0.000114441
-0.482263,0.568588,-0.439883,-0.023282,0.00688553,0.0694098,-0.00793457,0.000114441
-0.526384,0.517483,-0.370692,-0.0202625,-0.00141954,0.0262225,-0.00793457,0.000114441
-0.425859,0.486768,-0.306095,-0.0232085,-0.0115767,-0.0287024,-0.00793457,0.000114441
-0.322514,0.412998,-0.258555,-0.0313441,-0.0228182,-0.0386871,-0.00793457,0.000114441
-0.299793,0.304529,-0.235819,-0.0464717,-0.0385171,-0.0194743,-0.00793457,0.000114441
-0.428237,0.145897,-0.191973,-0.0596306,-0.0591618,0.00389665,-0.00793457,0.000114441
-0.704957,-0.063145,-0.142494,-0.0646481,-0.0672448,0.0310829,-0.00793457,0.000114441
-0.906818,-0.12846,-0.0917567,-0.065307,-0.068957,0.0120364,-0.00793457,0.000114441
-0.879586,0.0275862,-0.0460681,-0.0625882,-0.0545226,-0.0549932,-0.00793457,0.000114441
-0.669501,0.34342,0.000516325,-0.0433623,-0.0380319,-0.129972,-0.00793457,0.000114441
-0.461576,0.571512,0.0113385,-0.0304716,-0.0331706,-0.190556,-0.00793457,0.000114441
-0.395321,0.556431,-0.0404679,-0.0142609,-0.0218919,-0.20444,-0.00793457,0.000114441
-0.376771,0.401563,-0.132285,0.00482128,-0.0197114,-0.20719,-0.00793457,0.000114441
-0.337789,0.194916,-0.224462,0.0155961,-0.0326154,-0.184883,-0.00793457,0.000114441
-0.279129,-0.054939,-0.259915,0.0467248,-0.0518654,-0.170751,-0.00793457,0.000114441
-0.223637,-0.294438,-0.228817,0.0737274,-0.0636577,-0.119942,-0.00793457,0.000114441
-0.0468002,-0.344409,-0.128707,0.095264,-0.0738493,-0.0961294,-0.00793457,0.000114441
0.256695,-0.239142,-0.062651,0.0806009,-0.057107,-0.0719094,-0.00793457,0.000114441
0.537552,-0.0748697,-0.0114171,0.0770936,-0.044179,-0.0269536,-0.00793457,0.000114441
0.631865,-0.0378595,0.0939934,0.0858776,-0.0429892,0.0453839,-0.00793457,0.000114441
0.494788,-0.0536589,0.214014,0.0883906,-0.0529857,0.127159,-0.00793457,0.000114441
0.252823,-0.0556026,0.329219,0.0878425,-0.0504838,0.174542,-0.00793457,0.000114441
0.0832995,-0.0391265,0.451161,0.0872636,-0.0507589,0.163085,-0.00793457,0.000114441
-0.0106605,-0.0462514,0.528084,0.077454,-0.0369159,0.131901,-0.00793457,0.000114441
-0.105584,-0.0632403,0.551691,0.0556678,-0.023865,0.11486,-0.00793457,0.000114441
-0.246175,-0.165135,0.508009,0.0344568,-0.0104056,0.10007,-0.00793457,0.000114441
-0.409685,-0.191056,0.395722,0.00473981,-0.0053558,0.0929758,-0.00793457,0.000114441
-0.501481,-0.0847726,0.289384,-0.0182076,-0.0150484,0.0682719,-0.00793457,0.000114441
-0.479487,-0.0305636,0.210507,0.00546292,-0.0239517,-0.000606537,-0.00793457,0.000114441
-0.450758,0.045329,0.109164,-0.000795975,-0.0482669,-0.0330502,-0.00793457,0.000114441
-0.349983,0.0969973,0.0186118,-0.00345798,-0.0655444,-0.0630066,-0.00793457,0.000114441
-0.209982,0.0496903,-0.0674048,0.00309624,-0.0797502,-0.0877189,-0.00793457,0.000114441
-0.0985963,-0.0537931,-0.136328,0.00235916,-0.0973185,-0.0792839,-0.00793457,0.000114441
-0.0117728,-0.133975,-0.166124,0.00144294,-0.121333,-0.0490612,-0.00793457,0.000114441
0.0324913,-0.226463,-0.15728,0.00546076,-0.13518,-0.0130631,-0.00793457,0.000114441
0.0442311,-0.232277,-0.139487,0.00566097,-0.150212,0.0253453,-0.00793457,0.000114441
0.0442311,-0.232277,-0.139487,0.00566097,-0.150212,0.0253453,-0.264221,0.00309753
0.0426504,-0.247148,-0.113442,0.00751241,-0.152905,0.0478074,-0.264221,0.00309753
0.049338,-0.257376,-0.0868018,0.0247683,-0.148231,0.0552281,-0.264221,0.00309753
0.0947523,-0.281954,-0.0903539,0.0353545,-0.134222,0.0570281,-0.264221,0.00309753
0.201302,-0.307483,-0.0940892,0.0545167,-0.117022,0.0621684,-0.264221,0.00309753
0.32977,-0.366486,-0.0853881,0.0728063,-0.102326,0.0915123,-0.264221,0.00309753
0.430805,-0.407577,-0.100414,0.0702667,-0.0879548,0.145986,-0.264221,0.00309753
0.509701,-0.441555,-0.134975,0.0676272,-0.0752299,0.210652,-0.264221,0.00309753
0.573386,-0.446029,-0.176788,0.0712196,-0.0656127,0.269307,-0.264221,0.00309753
0.576902,-0.459166,-0.183052,0.08391,-0.0653391,0.334337,-0.264221,0.00309753
0.549725,-0.468356,-0.136858,0.0958716,-0.0664851,0.386319,-0.264221,0.00309753
0.518075,-0.426243,-0.0777466,0.0973893,-0.0668239,0.426352,-0.264221,0.00309753
0.485822,-0.262245,-0.0490223,0.0854937,-0.0625439,0.438062,-0.264221,0.00309753
0.421463,-0.0649385,-0.00377908,0.08565,-0.0494524,0.427966,-0.264221,0.00309753
0.34489,0.117754,0.0585982,0.0948082,-0.0387903,0.356293,-0.264221,0.00309753
0.242072,0.256554,0.138086,0.0992226,-0.0297533,0.250038,-0.264221,0.00309753
0.209038,0.366905,0.225015,0.0949863,-0.0121096,0.0768655,-0.264221,0.00309753
0.0275396,0.365431,0.28721,0.0871657,-0.0224663,-0.086852,-0.264221,0.00309753
-0.384199,0.243136,0.377254,0.0729506,-0.0146278,-0.205675,-0.264221,0.00309753
-0.741094,0.129359,0.407645,0.0560324,0.0143616,-0.361725,-0.264221,0.00309753
-0.865291,0.0500798,0.38291,0.0296306,0.0512485,-0.520731,-0.264221,0.00309753
-0.812458,-0.00266192,0.38254,0.0116349,0.0552272,-0.628018,-0.264221,0.00309753
-0.6627,0.136943,0.4124,0.00182574,0.0630416,-0.668183,-0.264221,0.00309753
-0.351414,0.429431,0.398344,-0.0106199,0.0844357,-0.69488,-0.264221,0.00309753
0.0334996,0.560727,0.346956,-0.0234383,0.0886994,-0.680238,-0.264221,0.00309753
0.277182,0.514862,0.284554,-0.0334287,0.0774692,-0.547096,-0.264221,0.00309753
0.375407,0.436987,0.251535,-0.0490675,0.0439844,-0.360805,-0.264221,0.00309753
0.340902,0.316324,0.254628,-0.056744,0.0108977,-0.165576,-0.264221,0.00309753
0.230737,0.235748,0.278298,-0.0718266,-0.0171843,0.0117797,-0.264221,0.00309753
0.10888,0.216604,0.296995,-0.0881348,-0.0384314,0.150535,-0.264221,0.00309753
0.0287688,0.19531,0.303163,-0.116033,-0.0518666,0.254574,-0.264221,0.00309753
0.0125351,0.171827,0.272577,-0.137211,-0.0536684,0.317179,-0.264221,0.00309753
0.0345874,0.110371,0.232832,-0.148622,-0.0559208,0.348291,-0.264221,0.00309753
0.0556111,0.0211307,0.213177,-0.155769,-0.0649554,0.379508,-0.264221,0.00309753
0.113642,0.0148143,0.223594,-0.162575,-0.0632505,0.395912,-0.264221,0.00309753
0.257443,0.104661,0.264596,-0.166018,-0.0560056,0.383118,-0.264221,0.00309753
0.445199,0.161171,0.338753,-0.164634,-0.0451534,0.353549,-0.264221,0.00309753
0.592797,0.191895,0.410847,-0.168392,-0.0292355,0.338149,-0.264221,0.00309753
0.687221,0.186558,0.449668,-0.169068,-0.0108089,0.30751,-0.264221,0.00309753
0.658484,0.10885,0.517954,-0.147267,0.013618,0.303621,-0.264221,0.00309753
0.538186,-0.0407176,0.6252,-0.121761,0.0227203,0.300512,-0.264221,0.00309753
0.363779,-0.253094,0.766114,-0.094792,0.0350317,0.304595,-0.264221,0.00309753
0.213002,-0.429231,0.851745,-0.0869451,0.0659371,0.296306,-0.264221,0.00309753
0.0345686,-0.640434,0.85985,-0.106233,0.0717967,0.270332,-0.264221,0.00309753
-0.333044,-0.819857,0.836674,-0.101103,0.0685077,0.269305,-0.264221,0.00309753
-0.842598,-0.879068,0.805933,-0.0875067,0.0823559,0.195335,-0.264221,0.00309753
-1.2578,-0.502525,0.930718,-0.0456252,0.0718113,0.0319943,-0.264221,0.00309753
-1.45742,0.129932,1.01281,-0.0440894,0.0676673,-0.245197,-0.264221,0.00309753
-1.42254,0.475166,0.914247,-0.0322805,0.135046,-0.533994,-0.264221,0.00309753
-1.3143,0.41229,0.681506,0.0107637,0.159377,-0.754275,-0.264221,0.00309753
-1.36777,0.144397,0.351116,0.037037,0.174844,-0.833424,-0.264221,0.00309753
-1.32957,-0.107242,-0.0951791,0.0432607,0.172529,-0.866975,-0.264221,0.00309753
-0.886523,-0.36373,-0.523489,0.0775719,0.143446,-0.864272,-0.264221,0.00309753
-0.127549,-0.525069,-0.879094,0.0905909,0.0717932,-0.753481,-0.264221,0.00309753
-0.127549,-0.525069,-0.879094,0.0905909,0.0717932,-0.753481,-0.200821,0.00237274
0.478351,-0.48086,-1.13014,0.0885627,-0.0405699,-0.469098,-0.200821,0.00237274
0.778645,-0.258871,-1.21028,0.107604,-0.155906,-0.157253,-0.200821,0.00237274
0.856337,0.0636694,-1.05855,0.157253,-0.24809,0.078476,-0.200821,0.00237274
0.811636,0.279281,-0.743395,0.190659,-0.30617,0.231009,-0.200821,0.00237274
0.656366,0.331133,-0.437736,0.176418,-0.306536,0.344368,-0.200821,0.00237274
0.453941,0.232549,-0.261791,0.125955,-0.267455,0.426858,-0.200821,0.00237274
0.280218,0.0869881,-0.176018,0.0748583,-0.221409,0.485896,-0.200821,0.00237274
0.180903,0.003571,-0.154818,0.0240961,-0.180958,0.522302,-0.200821,0.00237274
0.123161,-0.046232,-0.168572,-0.0159292,-0.153649,0.550663,-0.200821,0.00237274
0.118599,-0.0938354,-0.198081,-0.0404838,-0.137481,0.569369,-0.200821,0.00237274
0.169088,-0.0968323,-0.268668,-0.0525736,-0.11802,0.558146,-0.200821,0.00237274
0.182619,0.00352069,-0.364628,-0.0641353,-0.104356,0.544358,-0.200821,0.00237274
0.247311,0.077733,-0.460383,-0.0582947,-0.0751811,0.47769,-0.200821,0.00237274
0.360127,0.23077,-0.516153,-0.0382996,-0.0508665,0.348333,-0.200821,0.00237274
0.400155,0.40884,-0.478992,0.000414466,-0.0443947,0.223026,-0.200821,0.00237274
0.526941,0.330648,-0.426163,0.0498342,-0.0128779,0.0241739,-0.200821,0.00237274
0.561609,0.0814816,-0.354778,0.111883,0.0234566,-0.171482,-0.200821,0.00237274
0.266815,-0.117276,-0.209836,0.153212,0.0393278,-0.250423,-0.200821,0.00237274
-0.0915904,-0.228087,-0.0352563,0.162203,0.0613158,-0.35375,-0.200821,0.00237274
-0.435808,-0.210308,0.197319,0.180239,0.0807269,-0.452801,-0.200821,0.00237274
-0.689269,-0.0328401,0.426116,0.159521,0.088559,-0.553541,-0.200821,0.00237274
-0.561907,0.202697,0.642654,0.1618,0.138601,-0.693347,-0.200821,0.00237274
-0.0514443,0.411991,0.767032,0.156504,0.209551,-0.808517,-0.200821,0.00237274
0.362171,0.382275,0.845242,0.135446,0.227007,-0.728826,-0.200821,0.00237274
0.460146,0.110089,0.849441,0.0840589,0.206587,-0.478473,-0.200821,0.00237274
0.40774,-0.214468,0.786,0.0243013,0.171923,-0.201938,-0.200821,0.00237274
0.318237,-0.41454,0.708486,-0.02257,0.125135,0.0525072,-0.200821,0.00237274
0.227519,-0.414799,0.658279,-0.053881,0.0818796,0.270753,-0.200821,0.00237274
0.146014,-0.204342,0.651507,-0.0695589,0.0401092,0.423224,-0.200821,0.00237274
0.0618819,0.0603411,0.651347,-0.0884899,0.0115063,0.51958,-0.200821,0.00237274
-0.0248634,0.304938,0.642988,-0.109317,-0.0113355,0.568298,-0.200821,0.00237274
-0.104634,0.402531,0.59488,-0.122,-0.0237932,0.573771,-0.200821,0.00237274
-0.159895,0.335917,0.507674,-0.131396,-0.0243047,0.534168,-0.200821,0.00237274
-0.244794,0.0855658,0.442777,-0.130442,-0.0315452,0.495203,-0.200821,0.00237274
-0.269365,-0.0330896,0.479218,-0.116151,-0.0343799,0.436095,-0.200821,0.00237274
-0.0230291,0.0504871,0.523813,-0.11371,-0.0250587,0.296069,-0.200821,0.00237274
0.229061,0.245973,0.558923,-0.12241,-0.0129105,0.154476,-0.200821,0.00237274
0.0940118,0.0985113,0.612073,-0.129384,-0.0146874,0.0975125,-0.200821,0.00237274
-0.318774,-0.156337,0.642677,-0.133821,0.0194646,0.0207956,-0.200821,0.00237274
-0.607881,-0.0869953,0.809603,-0.101952,0.0210941,-0.131308,-0.200821,0.00237274
-0.75762,0.411258,0.990953,-0.0745278,0.030128,-0.322632,-0.200821,0.00237274
-0.791686,0.650486,0.942127,-0.0666052,0.0968555,-0.48134,-0.200821,0.00237274
-0.545961,0.485322,0.616217,-0.075559,0.151148,-0.648046,-0.200821,0.00237274
-0.352742,0.183418,0.293952,-0.0448782,0.124373,-0.678383,-0.200821,0.00237274
-0.585148,0.0060757,0.12049,0.00170883,0.0542318,-0.584282,-0.200821,0.00237274
-0.984182,-0.166744,-0.0242616,0.014135,0.0206165,-0.478504,-0.200821,0.00237274
-1.01128,-0.395291,-0.273226,0.0118029,0.0128061,-0.489642,-0.200821,0.00237274
-0.631765,-0.573041,-0.589905,-0.0204804,0.00883158,-0.450924,-0.200821,0.00237274
-0.150782,-0.477935,-0.824982,-0.0273436,-0.0519046,-0.306781,-0.200821,0.00237274
0.147744,-0.162833,-0.903281,-0.0183654,-0.131035,-0.0774168,-0.200821,0.00237274
0.381732,0.16997,-0.886313,0.00496067,-0.183607,0.0942761,-0.200821,0.00237274
0.577416,0.338979,-0.83373,0.0220786,-0.19772,0.214832,-0.200821,0.00237274
0.71054,0.36709,-0.759077,0.0256053,-0.187276,0.324825,-0.200821,0.00237274
0.794425,0.320161,-0.683058,0.0226743,-0.174941,0.40322,-0.200821,0.00237274
0.794425,0.320161,-0.683058,0.0226743,-0.174941,0.40322,-0.145325,0.00174713
0.799989,0.235344,-0.620942,0.00671809,-0.152954,0.474464,-0.145325,0.00174713
0.727263,0.163177,-0.579025,-0.00797689,-0.135169,0.538548,-0.145325,0.00174713
0.616234,0.0334481,-0.536719,-0.0169555,-0.114598,0.576991,-0.145325,0.00174713
0.536529,-0.147056,-0.527147,-0.0264911,-0.091808,0.5898,-0.145325,0.00174713
0.533407,-0.318998,-0.569213,-0.0381572,-0.0499621,0.576788,-0.145325,0.00174713
0.576652,-0.39523,-0.62552,-0.0388785,-0.0184192,0.567477,-0.145325,0.00174713
0.530147,-0.208254,-0.67348,-0.0206775,0.00433785,0.527884,-0.145325,0.00174713
0.359195,0.147647,-0.589427,0.0179886,0.0294651,0.428427,-0.145325,0.00174713
0.150608,0.485734,-0.377052,0.0786868,0.0575088,0.215546,-0.145325,0.00174713
-0.0999662,0.742567,-0.16439,0.128911,0.131689,-0.0633702,-0.145325,0.00174713
-0.454996,0.927358,0.0648123,0.173449,0.194507,-0.326624,-0.145325,0.00174713
-0.892529,0.825078,0.297275,0.194481,0.229737,-0.546619,-0.145325,0.00174713
-1.39831,0.500012,0.442789,0.181464,0.253602,-0.731738,-0.145325,0.00174713
-1.7209,0.123863,0.532138,0.157683,0.274524,-0.895023,-0.145325,0.00174713
-1.47019,-0.0982186,0.557359,0.145876,0.314969,-1.02405,-0.145325,0.00174713
-0.85736,-0.315779,0.492054,0.0741426,0.297789,-0.95674,-0.145325,0.00174713
-0.278303,-0.464214,0.362854,0.000952046,0.220705,-0.710274,-0.145325,0.00174713
0.0775107,-0.520223,0.235706,-0.0447059,0.117698,-0.365254,-0.145325,0.00174713
0.32399,-0.37155,0.138063,-0.0670302,0.0221593,-0.0563682,-0.145325,0.00174713
0.472812,-0.0859292,0.100888,-0.0746985,-0.0684124,0.191773,-0.145325,0.00174713
0.49467,0.202382,0.127651,-0.0851042,-0.138214,0.370984,-0.145325,0.00174713
0.43778,0.381094,0.147318,-0.100537,-0.169857,0.475748,-0.145325,0.00174713
0.363885,0.455374,0.143807,-0.125481,-0.181865,0.516038,-0.145325,0.00174713
0.337135,0.406938,0.152382,-0.134315,-0.193323,0.514387,-0.145325,0.00174713
0.341521,0.278975,0.17303,-0.134545,-0.192037,0.491802,-0.145325,0.00174713
0.383278,0.16949,0.164519,-0.143261,-0.164244,0.467739,-0.145325,0.00174713
0.443394,0.132358,0.167478,-0.143708,-0.139703,0.438252,-0.145325,0.00174713
0.46102,0.131291,0.217338,-0.140076,-0.105076,0.384862,-0.145325,0.00174713
0.40502,0.052653,0.309893,-0.128206,-0.0778269,0.311064,-0.145325,0.00174713
0.358144,-0.129853,0.361517,-0.171277,-0.0411195,0.183163,-0.145325,0.00174713
0.298305,-0.24554,0.355423,-0.159644,0.0202728,-0.00128222,-0.145325,0.00174713
-0.135693,-0.256184,0.570619,-0.0998599,0.0251544,-0.105648,-0.145325,0.00174713
-0.881771,0.198814,0.902054,-0.0639005,0.0473656,-0.2207,-0.145325,0.00174713
-1.41662,0.464784,1.12251,-0.0211506,0.11715,-0.433772,-0.145325,0.00174713
-1.40484,0.325154,1.02313,-0.0270414,0.222819,-0.694324,-0.145325,0.00174713
-1.14942,0.0273708,0.680211,-0.0175677,0.294195,-0.876572,-0.145325,0.00174713
-1.14174,-0.161255,0.347916,0.0522716,0.319424,-0.84311,-0.145325,0.00174713
-1.17766,-0.195429,0.013041,0.0917134,0.281683,-0.749248,-0.145325,0.00174713
-0.947476,-0.225556,-0.377745,0.0968668,0.209696,-0.655446,-0.145325,0.00174713
-0.41185,-0.290151,-0.751858,0.0949192,0.117025,-0.528676,-0.145325,0.00174713
0.192622,-0.337426,-0.971336,0.103044,5.96195e-05,-0.338493,-0.145325,0.00174713
0.610462,-0.27322,-1.05031,0.131574,-0.10074,-0.10239,-0.145325,0.00174713
0.779785,-0.102539,-1.04969,0.140799,-0.182826,0.128652,-0.145325,0.00174713
0.763941,0.111104,-0.917619,0.151442,-0.255804,0.29473,-0.145325,0.00174713
0.646164,0.269307,-0.652442,0.141062,-0.298684,0.404792,-0.145325,0.00174713
0.455389,0.363041,-0.366103,0.111869,-0.314726,0.461312,-0.145325,0.00174713
0.232996,0.350847,-0.189447,0.0520411,-0.295457,0.468582,-0.145325,0.00174713
-0.00491919,0.219075,-0.112236,8.34465e-05,-0.253006,0.447624,-0.145325,0.00174713
-0.125152,0.0266269,-0.11897,-0.0466295,-0.198694,0.378872,-0.145325,0.00174713
-0.124608,-0.0996708,-0.215222,-0.0832925,-0.153304,0.285023,-0.145325,0.00174713
-0.0689657,-0.0382126,-0.357938,-0.11903,-0.105173,0.210929,-0.145325,0.00174713
0.0301948,0.121765,-0.520695,-0.145197,-0.0805192,0.137461,-0.145325,0.00174713
0.0443867,0.351374,-0.635258,-0.137984,-0.0698274,0.0993049,-0.145325,0.00174713
-0.0222843,0.523942,-0.731949,-0.116735,-0.0606117,0.0775661,-0.145325,0.00174713
-0.0222843,0.523942,-0.731949,-0.116735,-0.0606117,0.0775661,-0.126831,0.0014801
-0.0408685,0.636755,-0.826259,-0.072158,-0.0501626,0.0243831,-0.126831,0.0014801
0.0896713,0.602989,-0.933416,-0.02601,-0.0293025,-0.0171297,-0.126831,0.0014801
0.265245,0.462861,-1.0335,0.00799816,-0.0180305,0.0340559,-0.126831,0.0014801
0.399485,0.291529,-1.05787,0.0199584,-0.0297995,0.176071,-0.126831,0.0014801
0.503785,0.123998,-0.936108,0.041917,-0.0542042,0.333062,-0.126831,0.0014801
0.644325,0.0152759,-0.835045,0.0380131,-0.0645862,0.447548,-0.126831,0.0014801
0.800826,-0.0764512,-0.875453,-0.00766629,-0.0444105,0.547514,-0.126831,0.0014801
0.947099,-0.106151,-0.976505,-0.0357523,-0.0197326,0.606385,-0.126831,0.0014801
1.13279,-0.206582,-1.04302,-0.0303155,0.00413184,0.597649,-0.126831,0.0014801
1.20215,-0.406137,-1.03489,-0.0256089,0.0158963,0.544856,-0.126831,0.0014801
0.917608,-0.645483,-0.919496,-0.0653343,-0.0438912,0.498968,-0.126831,0.0014801
0.0958117,-0.298581,-0.466153,-0.0471194,-0.160876,0.283385,-0.126831,0.0014801
-1.41546,1.46214,0.708886,0.126325,-0.183341,-0.00672096,-0.126831,0.0014801
-2.29531,2.30261,1.81233,0.289149,0.0140031,-0.579298,-0.126831,0.0014801
-1.56432,1.15572,1.87871,0.172752,0.35607,-1.31594,-0.126831,0.0014801
-0.531206,-0.617239,1.0406,0.0303639,0.529532,-1.49178,-0.126831,0.0014801
-0.0934131,-1.61126,0.508376,0.00306824,0.404079,-1.05713,-0.126831,0.0014801
0.142457,-2.07333,0.412008,0.0373934,0.203599,-0.622286,-0.126831,0.0014801
0.3473,-1.9449,0.486175,0.0311418,0.0771069,-0.255106,-0.126831,0.0014801
0.595847,-1.60747,0.480393,-0.0243021,0.00364766,0.0290757,-0.126831,0.0014801
0.780685,-1.27004,0.407681,-0.0572857,-0.0265822,0.268876,-0.126831,0.0014801
0.827575,-1.0111,0.331185,-0.0669952,-0.0547487,0.468525,-0.126831,0.0014801
0.646435,-0.752342,0.278451,-0.0692856,-0.0847479,0.630001,-0.126831,0.0014801
0.257133,-0.475725,0.257724,-0.0748544,-0.0944252,0.743114,-0.126831,0.0014801
-0.190305,-0.121667,0.169989,-0.112281,-0.0986959,0.732162,-0.126831,0.0014801
-0.795043,0.280038,0.00351196,-0.161096,-0.103155,0.581435,-0.126831,0.0014801
-1.538,0.59097,0.0727729,-0.157357,-0.10369,0.31919,-0.126831,0.0014801
-2.12726,0.834974,0.292023,-0.0834958,-0.0640989,-0.139491,-0.126831,0.0014801
-2.512,0.769843,0.414751,-0.0639111,0.0214852,-0.650904,-0.126831,0.0014801
-2.29935,0.282827,0.159382,-0.0805181,0.200162,-1.09099,-0.126831,0.0014801
-1.42227,-0.118511,-0.310661,-0.0860846,0.330884,-1.36604,-0.126831,0.0014801
-0.405298,-0.187243,-0.732757,-0.0755877,0.295879,-1.2201,-0.126831,0.0014801
0.41979,-0.0779223,-1.06372,-0.0650955,0.187897,-0.829795,-0.126831,0.0014801
1.11975,0.15727,-1.3787,-0.0680761,0.0844446,-0.40374,-0.126831,0.0014801
1.61332,0.401749,-1.59455,-0.0398925,-0.0207113,-0.0121341,-0.126831,0.0014801
1.74837,0.571296,-1.60259,0.0209977,-0.116102,0.345495,-0.126831,0.0014801
1.52115,0.638497,-1.41816,0.0525776,-0.202152,0.620981,-0.126831,0.0014801
1.0915,0.546936,-1.20356,0.0294897,-0.249142,0.798367,-0.126831,0.0014801
0.67376,0.349492,-1.06071,-0.0101139,-0.249524,0.882319,-0.126831,0.0014801
0.416878,0.209273,-1.01141,-0.0532538,-0.218699,0.900236,-0.126831,0.0014801
0.327581,0.124326,-1.07491,-0.0930232,-0.170471,0.901803,-0.126831,0.0014801
0.351016,0.097566,-1.19255,-0.111803,-0.129269,0.882968,-0.126831,0.0014801
0.458241,0.125388,-1.33674,-0.129395,-0.107516,0.86383,-0.126831,0.0014801
0.656745,0.240142,-1.50308,-0.142116,-0.0742013,0.810425,-0.126831,0.0014801
0.88314,0.447939,-1.63594,-0.13549,-0.0519586,0.703353,-0.126831,0.0014801
1.00692,0.46824,-1.6661,-0.175707,-0.0597427,0.534358,-0.126831,0.0014801
1.01266,0.340164,-1.28933,-0.184576,-0.141741,0.256356,-0.126831,0.0014801
-0.00812964,0.703728,-0.418527,-0.168067,-0.32188,0.000932276,-0.126831,0.0014801
-1.45904,1.51039,0.511075,-0.162266,-0.270518,-0.320618,-0.126831,0.0014801
-1.55755,1.16668,0.929212,-0.158361,-0.00748041,-1.02167,-0.126831,0.0014801
-0.497894,0.108376,0.637147,-0.236008,0.288177,-1.61408,-0.126831,0.0014801
0.0992774,-0.754725,0.123187,-0.266947,0.348356,-1.32864,-0.126831,0.0014801
0.302287,-1.35602,-0.147822,-0.218548,0.249841,-0.850923,-0.126831,0.0014801
0.449284,-1.6733,-0.297989,-0.191081,0.164259,-0.439307,-0.126831,0.0014801
0.449284,-1.6733,-0.297989,-0.191081,0.164259,-0.439307,-0.153259,0.00180817
0.523252,-1.65504,-0.39574,-0.180538,0.0785804,-0.0934231,-0.153259,0.00180817
0.335777,-1.3471,-0.442326,-0.171529,0.0339818,0.194945,-0.153259,0.00180817
-0.0701093,-0.822757,-0.494356,-0.183793,0.00555548,0.36518,-0.153259,0.00180817
-0.574279,-0.404278,-0.611216,-0.19198,-0.00398967,0.367964,-0.153259,0.00180817
-0.980036,0.119728,-0.827975,-0.13026,0.0913733,0.140316,-0.153259,0.00180817
-0.998416,0.525677,-1.07606,-0.0239438,0.201939,-0.269945,-0.153259,0.00180817
-0.840394,0.582916,-1.27212,0.145897,0.313977,-0.701308,-0.153259,0.00180817
-0.935528,0.650843,-1.23147,0.279977,0.327977,-0.898777,-0.153259,0.00180817
-0.869328,0.54223,-1.20347,0.301041,0.315716,-1.04139,-0.153259,0.00180817
-0.321097,0.0852083,-1.44586,0.244047,0.331413,-1.09646,-0.153259,0.00180817
0.447742,-0.35821,-1.75263,0.176113,0.269466,-0.893314,-0.153259,0.00180817
1.03284,-0.546929,-1.90291,0.147836,0.158889,-0.471283,-0.153259,0.00180817
1.39722,-0.326043,-1.88047,0.137909,0.0475512,-0.0464705,-0.153259,0.00180817
1.52962,0.166055,-1.78749,0.102825,-0.0334757,0.312421,-0.153259,0.00180817
1.56094,0.757207,-1.73351,0.0341476,-0.0696406,0.551608,-0.153259,0.00180817
1.51821,1.2152,-1.68024,-0.0358357,-0.075397,0.706483,-0.153259,0.00180817
1.31485,1.33576,-1.55104,-0.0652863,-0.0739633,0.80916,-0.153259,0.00180817
0.945588,1.20808,-1.40584,-0.0864688,-0.0751158,0.858711,-0.153259,0.00180817
0.458794,0.935153,-1.34007,-0.121906,-0.0835674,0.846799,-0.153259,0.00180817
0.0368167,0.45436,-1.35293,-0.145128,-0.0605789,0.766141,-0.153259,0.00180817
-0.174165,0.0204836,-1.40398,-0.166285,-0.0282376,0.569552,-0.153259,0.00180817
-0.219585,-0.197182,-1.40461,-0.175432,0.00222001,0.323759,-0.153259,0.00180817
-0.403506,-0.384689,-1.24446,-0.116877,-0.00121079,0.0447472,-0.153259,0.00180817
-1.04936,-0.613478,-0.946988,-0.0816813,-0.0137043,-0.173646,-0.153259,0.00180817
-1.70854,-0.743181,-0.687673,-0.104466,0.0385319,-0.402409,-0.153259,0.00180817
-1.8808,-0.636275,-0.51801,-0.110718,0.153501,-0.694031,-0.153259,0.00180817
-1.31559,-0.224357,-0.56455,-0.122949,0.343279,-0.985384,-0.153259,0.00180817
-0.380441,0.180899,-0.725104,-0.126192,0.432394,-1.0522,-0.153259,0.00180817
0.405681,0.42068,-0.883901,-0.109626,0.401159,-0.836529,-0.153259,0.00180817
0.932077,0.372571,-1.11381,-0.117341,0.358956,-0.518704,-0.153259,0.00180817
1.14553,0.137385,-1.33259,-0.116415,0.299855,-0.213828,-0.153259,0.00180817
0.990444,-0.196623,-1.43184,-0.106636,0.231699,0.0860875,-0.153259,0.00180817
0.571527,-0.35842,-1.41205,-0.0967407,0.173067,0.322343,-0.153259,0.00180817
0.0803325,-0.28294,-1.35382,-0.127599,0.117049,0.451368,-0.153259,0.00180817
-0.301832,-0.0339487,-1.31973,-0.177106,0.0875023,0.475125,-0.153259,0.00180817
-0.457786,0.259163,-1.33549,-0.221743,0.084789,0.403107,-0.153259,0.00180817
-0.440466,0.443992,-1.39453,-0.251373,0.111252,0.269823,-0.153259,0.00180817
-0.339166,0.588809,-1.43347,-0.272943,0.147576,0.152799,-0.153259,0.00180817
-0.213214,0.736631,-1.48734,-0.298422,0.161076,0.0485805,-0.153259,0.00180817
-0.157816,0.875181,-1.5211,-0.324996,0.161698,-0.0221894,-0.153259,0.00180817
-0.115418,0.733476,-1.62632,-0.34437,0.182236,-0.109633,-0.153259,0.00180817
0.0108525,0.419353,-1.72688,-0.350764,0.192738,-0.197984,-0.153259,0.00180817
0.319557,0.115943,-1.77847,-0.330345,0.200359,-0.255687,-0.153259,0.00180817
0.596334,-0.049346,-1.808,-0.3251,0.1898,-0.233031,-0.153259,0.00180817
0.708956,-0.0973963,-1.76461,-0.327094,0.159993,-0.122891,-0.153259,0.00180817
0.717537,-0.13496,-1.645,-0.294603,0.131926,-0.0571707,-0.153259,0.00180817
0.672952,-0.226709,-1.53758,-0.274311,0.126545,-0.0203058,-0.153259,0.00180817
0.706941,-0.36247,-1.50145,-0.269495,0.145142,-0.0304974,-0.153259,0.00180817
0.796547,-0.451648,-1.49011,-0.255809,0.165816,-0.0391173,-0.153259,0.00180817
0.869151,-0.497058,-1.44494,-0.228669,0.177178,-0.019842,-0.153259,0.00180817
0.820549,-0.496554,-1.37118,-0.198197,0.17868,0.0193585,-0.153259,0.00180817
0.675247,-0.478785,-1.29133,-0.178988,0.185764,0.0444757,-0.153259,0.00180817
0.537221,-0.443558,-1.24345,-0.156891,0.209215,0.0152944,-0.153259,0.00180817
0.479645,-0.389057,-1.24293,-0.130451,0.24053,-0.0444449,-0.153259,0.00180817
0.479645,-0.389057,-1.24293,-0.130451,0.24053,-0.0444449,-0.256302,0.0030365
0.483934,-0.423875,-1.29578,-0.109735,0.267161,-0.11772,-0.256302,0.0030365
0.404912,-0.502964,-1.35985,-0.0687926,0.268448,-0.12068,-0.256302,0.0030365
-0.0509471,-0.322923,-1.2598,-0.0138281,0.233378,-0.0690166,-0.256302,0.0030365
-0.765562,0.0452403,-1.09258,-0.00651722,0.171248,-0.0464107,-0.256302,0.0030365
-1.0392,0.127788,-1.20169,-0.00885712,0.206031,-0.202522,-0.256302,0.0030365
-0.448214,-0.202261,-1.65309,0.00597215,0.296504,-0.457121,-0.256302,0.0030365
0.437373,-0.55408,-2.07908,0.0839189,0.314696,-0.495592,-0.256302,0.0030365
0.934328,-0.634824,-2.26678,0.181409,0.252699,-0.253919,-0.256302,0.0030365
0.995953,-0.455785,-2.28504,0.233799,0.182606,0.0131956,-0.256302,0.0030365
0.841577,-0.185478,-2.20161,0.270201,0.13031,0.167706,-0.256302,0.0030365
0.694836,0.0114165,-2.0191,0.294786,0.0855218,0.219642,-0.256302,0.0030365
0.550102,0.11259,-1.68557,0.309937,0.041446,0.224067,-0.256302,0.0030365
0.400894,0.0518931,-1.33789,0.262717,0.0158645,0.22735,-0.256302,0.0030365
0.290217,-0.0340273,-1.10519,0.173321,0.0189005,0.20949,-0.256302,0.0030365
0.18254,-0.171729,-0.978241,0.084006,0.0346437,0.218593,-0.256302,0.0030365
0.0825138,-0.273821,-0.888992,0.0246365,0.0431373,0.23062,-0.256302,0.0030365
-0.0140797,-0.313361,-0.799125,-0.0195304,0.0423739,0.247516,-0.256302,0.0030365
-0.123479,-0.344907,-0.698522,-0.054728,0.0434546,0.259879,-0.256302,0.0030365
-0.27238,-0.30678,-0.648078,-0.1037,0.0423321,0.271682,-0.256302,0.0030365
-0.456127,-0.228265,-0.668504,-0.147115,0.0397039,0.257968,-0.256302,0.0030365
-0.649776,-0.169113,-0.752971,-0.179599,0.0390761,0.217453,-0.256302,0.0030365
-0.798512,-0.0481763,-0.849756,-0.186687,0.0350576,0.161907,-0.256302,0.0030365
-0.879845,0.0840116,-0.92824,-0.171334,0.0207527,0.0903852,-0.256302,0.0030365
-0.824023,0.239158,-0.975889,-0.138332,0.0183871,-0.00761563,-0.256302,0.0030365
-0.629842,0.365862,-1.02251,-0.112918,0.0163776,-0.114676,-0.256302,0.0030365
-0.360554,0.436269,-1.13587,-0.0903962,0.0257966,-0.192604,-0.256302,0.0030365
-0.0217195,0.371657,-1.25366,-0.0514796,0.027882,-0.258598,-0.256302,0.0030365
0.253713,0.184291,-1.29928,0.00708721,-0.00352901,-0.251554,-0.256302,0.0030365
0.384803,0.02915,-1.26124,0.0538848,-0.0453659,-0.169317,-0.256302,0.0030365
0.455679,-0.0665081,-1.15453,0.0911017,-0.0908558,-0.0802382,-0.256302,0.0030365
0.489226,-0.150073,-0.981575,0.113874,-0.131833,0.000514567,-0.256302,0.0030365
0.458564,-0.184914,-0.783121,0.110968,-0.157475,0.0848427,-0.256302,0.0030365
0.377356,-0.198757,-0.589571,0.0914941,-0.172909,0.142196,-0.256302,0.0030365
0.238321,-0.206906,-0.420899,0.0556319,-0.170724,0.181521,-0.256302,0.0030365
0.123791,-0.190255,-0.301239,0.0170693,-0.156146,0.183151,-0.256302,0.0030365
0.0878226,-0.16892,-0.255561,-0.0277212,-0.122809,0.136042,-0.256302,0.0030365
0.0813415,-0.305944,-0.242479,-0.0622354,-0.0863773,0.0543914,-0.256302,0.0030365
-0.115375,-0.5214,-0.216861,-0.102548,-0.0686511,0.0275931,-0.256302,0.0030365
-0.603833,-0.45894,-0.0770421,-0.118854,-0.0672022,-0.0114944,-0.256302,0.0030365
-1.16927,0.0535623,0.0865225,-0.127558,0.00544017,-0.135037,-0.256302,0.0030365
-1.07815,0.403841,0.0160677,-0.13717,0.151926,-0.441693,-0.256302,0.0030365
-0.287821,0.334358,-0.343569,-0.156616,0.294411,-0.752023,-0.256302,0.0030365
0.497697,-0.0862052,-0.749332,-0.150025,0.340653,-0.755336,-0.256302,0.0030365
0.833881,-0.445297,-1.01016,-0.148109,0.284775,-0.44529,-0.256302,0.0030365
0.761935,-0.689385,-1.1707,-0.162002,0.20102,-0.0960706,-0.256302,0.0030365
0.424947,-0.714074,-1.25786,-0.18296,0.137066,0.172835,-0.256302,0.0030365
0.0411526,-0.535293,-1.37048,-0.208239,0.104642,0.308083,-0.256302,0.0030365
-0.187073,-0.251065,-1.52969,-0.214768,0.116572,0.302775,-0.256302,0.0030365
-0.207288,-0.0474208,-1.66948,-0.192126,0.135939,0.21134,-0.256302,0.0030365
-0.143756,0.158563,-1.79002,-0.134606,0.151782,0.12217,-0.256302,0.0030365
-0.0369926,0.17336,-1.88592,-0.0871514,0.184553,0.034363,-0.256302,0.0030365
0.0748741,0.229327,-1.91176,-0.0557366,0.196089,-0.0292531,-0.256302,0.0030365
0.167154,0.342316,-1.55924,0.0661743,0.105771,-0.0795668,-0.256302,0.0030365
-0.0328354,0.525083,-1.31543,0.0113773,0.183229,-0.0168215,-0.256302,0.0030365
-0.0328354,0.525083,-1.31543,0.0113773,0.183229,-0.0168215,-0.28273,0.00335693
0.195119,0.579747,-0.977405,0.146831,0.0451145,-0.0750228,-0.28273,0.00335693
0.333227,0.392559,-1.31889,-0.0823106,0.332078,-0.196509,-0.28273,0.00335693
0.320773,0.0536694,-1.42286,-0.0229533,0.10025,-0.0111259,-0.28273,0.00335693
0.298166,0.0403781,-0.584303,0.229269,0.144201,-0.00539201,-0.28273,0.00335693
0.359006,0.0739395,0.100308,0.290366,0.20108,0.0382354,-0.28273,0.00335693
0.376723,-0.0401343,0.0658318,0.0792591,0.20343,0.0798596,-0.28273,0.00335693
0.227485,-0.349418,-0.226314,-0.00834372,0.245839,0.0972311,-0.28273,0.00335693
0.138108,-0.387089,-0.188603,0.124256,0.237302,0.125813,-0.28273,0.00335693
0.209657,-0.513994,0.148509,0.208463,0.192593,0.0946468,-0.28273,0.00335693
0.255114,-0.347386,0.562596,0.250959,0.182529,0.0990144,-0.28273,0.00335693
0.032777,-0.0960422,0.547531,0.139828,0.205283,0.219029,-0.28273,0.00335693
-0.320711,-0.0997038,0.258028,0.0528926,0.197609,0.213099,-0.28273,0.00335693
-0.564892,-0.110926,0.0885129,0.0805717,0.168247,0.204619,-0.28273,0.00335693
-0.622111,0.0258961,-0.152446,0.0566335,0.139772,0.179646,-0.28273,0.00335693
-0.448968,0.372823,-0.30552,0.0210721,0.0687584,0.15779,-0.28273,0.00335693
-0.055926,0.627942,-0.411456,0.0313671,0.0551225,0.0933577,-0.28273,0.00335693
0.216006,0.812132,-0.467368,-0.0252584,0.0057816,0.0931276,-0.28273,0.00335693
0.323843,0.748646,-0.361244,0.0564767,0.00542932,0.130112,-0.28273,0.00335693
0.689048,0.627175,-0.804889,-0.0660068,-0.426039,0.132025,-0.28273,0.00335693
0.466227,1.01411,-0.0940828,0.146561,0.0386175,0.217117,-0.28273,0.00335693
0.359144,0.822937,0.312872,0.118522,0.0200938,0.374704,-0.28273,0.00335693
0.390302,0.846828,0.56578,-0.0327729,-0.0232482,0.293702,-0.28273,0.00335693
0.517497,0.664631,0.956394,-0.0489699,-0.103492,0.227128,-0.28273,0.00335693
0.704437,0.662636,1.25263,-0.00700103,-0.167418,0.18615,-0.28273,0.00335693
0.621179,0.533397,1.0523,-0.197013,0.097296,0.121443,-0.28273,0.00335693
0.453558,0.181016,0.543089,-0.24402,0.163603,0.170435,-0.28273,0.00335693
0.407393,0.131782,-0.0507355,-0.310024,0.115089,0.0997688,-0.28273,0.00335693
0.515773,0.0515606,-0.255212,-0.225302,0.110796,0.014704,-0.28273,0.00335693
0.382983,-0.237252,-0.0409758,-0.118112,-0.00672896,-0.0106402,-0.28273,0.00335693
-0.109358,-0.347693,0.384663,-0.00460811,-0.0934187,-0.00200427,-0.28273,0.00335693
-0.67048,-0.314544,0.514284,-0.0258302,-0.0925623,-0.077091,-0.28273,0.00335693
-1.13211,-0.891399,0.390468,0.0494133,-0.00602831,-0.303342,-0.28273,0.00335693
-1.10039,-1.16631,0.324663,0.0576629,0.00867869,-0.608235,-0.28273,0.00335693
-0.92031,-1.52194,0.14919,0.0818615,0.0664204,-0.760984,-0.28273,0.00335693
-0.755644,-1.6081,-0.0304889,0.0599277,0.0674394,-0.781949,-0.28273,0.00335693
-0.472756,-1.20301,-0.278807,0.059013,0.0690408,-0.655022,-0.28273,0.00335693
-0.128407,-0.899971,-0.521888,0.0349352,0.0418016,-0.559063,-0.28273,0.00335693
0.175577,-0.716295,-0.705816,0.0470335,0.0275833,-0.4023,-0.28273,0.00335693
0.411941,-0.431342,-0.804662,0.0794783,-0.0441961,-0.272477,-0.28273,0.00335693
0.551302,-0.178013,-0.729272,0.129602,-0.10854,-0.137743,-0.28273,0.00335693
0.58234,-0.106417,-0.570067,0.162339,-0.137657,-0.0404009,-0.28273,0.00335693
0.533988,-0.223481,-0.44947,0.150746,-0.103585,0.0452586,-0.28273,0.00335693
0.498007,-0.353125,-0.325366,0.141388,-0.0765435,0.11584,-0.28273,0.00335693
0.446285,-0.500574,-0.238352,0.108727,-0.037327,0.205574,-0.28273,0.00335693
0.402872,-0.528106,-0.166501,0.081122,-0.0194953,0.302181,-0.28273,0.00335693
0.373788,-0.409881,-0.145572,0.0438648,-0.00944361,0.376754,-0.28273,0.00335693
0.380624,-0.140956,-0.14492,0.0163399,0.00114177,0.41496,-0.28273,0.00335693
0.370353,0.0678994,-0.151428,0.00540459,0.00839955,0.441891,-0.28273,0.00335693
0.27762,0.171354,-0.175379,-0.000171229,0.00864899,0.458196,-0.28273,0.00335693
0.127214,0.186221,-0.162192,0.0149494,0.00498943,0.457423,-0.28273,0.00335693
-0.03814,0.0864328,-0.135693,0.0192166,0.000319257,0.430334,-0.28273,0.00335693
-0.145913,-0.0108144,-0.078566,0.0439697,0.0103523,0.393453,-0.28273,0.00335693
-0.185061,-0.122018,-0.0992782,0.0316518,0.0217988,0.349525,-0.28273,0.00335693
-0.185061,-0.122018,-0.0992782,0.0316518,0.0217988,0.349525,-0.272156,0.00320435
-0.173027,-0.286776,-0.261621,0.0120918,0.0398143,0.334709,-0.272156,0.00320435
-0.085174,-0.390215,-0.470506,0.00961255,0.0373748,0.331271,-0.272156,0.00320435
0.0509745,-0.366518,-0.628385,0.0330748,0.0190083,0.350917,-0.272156,0.00320435
0.194122,-0.194221,-0.656669,0.0764395,-0.00510329,0.377533,-0.272156,0.00320435
0.24621,-0.0440254,-0.629612,0.0968106,-0.0192935,0.387685,-0.272156,0.00320435
0.200673,-0.0531509,-0.551995,0.110665,-0.026713,0.351581,-0.272156,0.00320435
0.0149564,-0.0447097,-0.417015,0.0995656,-0.0442875,0.236608,-0.272156,0.00320435
-0.680979,0.363783,0.00482279,0.110074,-0.093937,0.0986205,-0.272156,0.00320435
-1.7682,0.753131,0.55977,0.100816,-0.0674367,-0.138212,-0.272156,0.00320435
-2.54473,0.697209,0.959021,0.0696233,0.0371152,-0.584659,-0.272156,0.00320435
-2.42595,0.304226,1.04846,-0.010889,0.224034,-1.17546,-0.272156,0.00320435
-1.52905,-0.298562,0.814452,-0.106387,0.399591,-1.58749,-0.272156,0.00320435
-0.666025,-0.684693,0.56398,-0.174233,0.387908,-1.4657,-0.272156,0.00320435
-0.103682,-0.674495,0.333505,-0.217739,0.285487,-1.0941,-0.272156,0.00320435
0.234818,-0.521567,0.100158,-0.228344,0.193239,-0.709406,-0.272156,0.00320435
0.423026,-0.380097,-0.0436368,-0.184316,0.0857003,-0.375514,-0.272156,0.00320435
0.51625,-0.202422,-0.121626,-0.13821,-0.000870962,-0.0990191,-0.272156,0.00320435
0.582916,-0.0669371,-0.147879,-0.0946914,-0.0663306,0.111834,-0.272156,0.00320435
0.623416,0.00385222,-0.164685,-0.0628389,-0.104905,0.273358,-0.272156,0.00320435
0.63042,0.0047836,-0.191439,-0.0440037,-0.12171,0.408593,-0.272156,0.00320435
0.560638,-0.039906,-0.211827,-0.0262517,-0.13227,0.524304,-0.272156,0.00320435
0.448181,-0.0776862,-0.240889,-0.0212737,-0.128573,0.596884,-0.272156,0.00320435
0.391087,-0.0114627,-0.289205,-0.0377261,-0.110029,0.614561,-0.272156,0.00320435
0.450936,0.122378,-0.285796,-0.0340081,-0.0921205,0.565737,-0.272156,0.00320435
0.594013,0.26225,-0.20628,-0.0241472,-0.068344,0.487342,-0.272156,0.00320435
0.794085,0.281553,-0.0560772,-0.0166134,-0.0293269,0.390977,-0.272156,0.00320435
1.00249,0.186191,0.118827,-0.0181698,0.0176611,0.309054,-0.272156,0.00320435
1.11366,0.0242067,0.328452,-0.0284422,0.0546416,0.281399,-0.272156,0.00320435
1.06777,-0.0943851,0.497625,-0.0346975,0.095341,0.283306,-0.272156,0.00320435
0.898285,-0.190331,0.618252,-0.0385023,0.160288,0.298187,-0.272156,0.00320435
0.688407,-0.417901,0.662608,-0.0379134,0.200509,0.291816,-0.272156,0.00320435
0.462642,-0.61922,0.683125,-0.0374684,0.195562,0.280705,-0.272156,0.00320435
0.182927,-0.683566,0.69046,-0.0308175,0.182729,0.271748,-0.272156,0.00320435
-0.292582,-0.483093,0.796305,-0.0367122,0.120044,0.233492,-0.272156,0.00320435
-0.894806,-0.139101,1.0251,-0.0143484,0.0647143,0.109375,-0.272156,0.00320435
-1.42931,0.214457,1.21592,0.0210449,0.11551,-0.139566,-0.272156,0.00320435
-1.68733,0.209797,1.06521,-0.0314304,0.207085,-0.470819,-0.272156,0.00320435
-1.71997,0.0795872,0.652115,-0.0703547,0.284768,-0.705585,-0.272156,0.00320435
-1.43046,-0.0591257,0.028091,-0.0941777,0.32311,-0.882913,-0.272156,0.00320435
-0.911014,-0.039707,-0.499867,-0.0465136,0.25742,-0.921316,-0.272156,0.00320435
-0.428458,0.0927278,-0.810619,0.013208,0.112998,-0.789849,-0.272156,0.00320435
-0.0751029,0.25274,-0.937839,0.0763825,-0.0249444,-0.58973,-0.272156,0.00320435
0.144777,0.346086,-0.932073,0.125341,-0.147066,-0.416386,-0.272156,0.00320435
0.268871,0.251442,-0.773543,0.175161,-0.22736,-0.256315,-0.272156,0.00320435
0.30039,0.0300249,-0.503033,0.200526,-0.274632,-0.102034,-0.272156,0.00320435
0.241124,-0.211844,-0.30013,0.160275,-0.280406,0.0625051,-0.272156,0.00320435
0.199529,-0.285248,-0.208164,0.0952575,-0.271201,0.194795,-0.272156,0.00320435
0.272146,-0.25182,-0.141379,0.0602647,-0.250276,0.27068,-0.272156,0.00320435
0.413843,-0.125888,-0.110275,0.0341337,-0.227115,0.335889,-0.272156,0.00320435
0.538807,0.0926987,-0.0923382,0.0111354,-0.201554,0.397024,-0.272156,0.00320435
0.589261,0.268766,-0.12656,-0.0187047,-0.161906,0.457348,-0.272156,0.00320435
0.574372,0.368267,-0.225123,-0.045226,-0.125738,0.492051,-0.272156,0.00320435
0.530567,0.341917,-0.363864,-0.0551596,-0.081322,0.499781,-0.272156,0.00320435
0.544266,0.246783,-0.47182,-0.0283325,-0.0458554,0.463105,-0.272156,0.00320435
0.544266,0.246783,-0.47182,-0.0283325,-0.0458554,0.463105,-0.227249,0.00270081
0.518348,0.122151,-0.536666,-0.005408,-0.0310423,0.451826,-0.227249,0.00270081
0.423635,0.0428864,-0.556565,0.0167975,-0.0231169,0.45949,-0.227249,0.00270081
0.247398,0.107112,-0.557532,0.0333801,-0.0149948,0.464776,-0.227249,0.00270081
0.15703,0.25043,-0.540142,0.0500315,0.00557315,0.394119,-0.227249,0.00270081
0.271268,0.286292,-0.503749,0.0856531,0.0399986,0.227458,-0.227249,0.00270081
0.440632,0.247187,-0.5298,0.0713772,0.0692262,0.0895252,-0.227249,0.00270081
0.428569,0.344516,-0.443932,0.0679391,0.0668041,0.00873882,-0.227249,0.00270081
0.120568,0.489324,-0.197157,0.0926538,0.0358231,-0.0895855,-0.227249,0.00270081
-0.267281,0.672867,0.0981204,0.081994,0.0392656,-0.275742,-0.227249,0.00270081
-0.691728,0.761194,0.311788,0.0658651,0.0659372,-0.460298,-0.227249,0.00270081
-0.887413,0.567173,0.371607,0.0578547,0.147426,-0.641839,-0.227249,0.00270081
-0.65978,0.166505,0.327674,0.0483659,0.217653,-0.864623,-0.227249,0.00270081
-0.47143,-0.030063,0.297975,0.0116303,0.203682,-0.853266,-0.227249,0.00270081
-0.524127,0.0473456,0.305726,-0.033241,0.162636,-0.699511,-0.227249,0.00270081
-0.634396,0.129316,0.320135,-0.0550972,0.128232,-0.585756,-0.227249,0.00270081
-0.688728,0.100618,0.269657,-0.0822453,0.0939419,-0.492823,-0.227249,0.00270081
-0.599075,0.0556663,0.133378,-0.107924,0.0714971,-0.376595,-0.227249,0.00270081
-0.336626,0.153368,-0.0390804,-0.129362,0.0351427,-0.253585,-0.227249,0.00270081
0.00751268,0.328702,-0.195836,-0.137394,-0.0165784,-0.114678,-0.227249,0.00270081
0.329996,0.555636,-0.296983,-0.123181,-0.0674443,0.0353069,-0.227249,0.00270081
0.514525,0.780569,-0.330354,-0.10732,-0.10834,0.187859,-0.227249,0.00270081
0.582153,0.924283,-0.256146,-0.0727648,-0.141715,0.323001,-0.227249,0.00270081
0.555651,0.96439,-0.155164,-0.0617889,-0.159382,0.416877,-0.227249,0.00270081
0.561958,0.888232,-0.132861,-0.0959556,-0.144092,0.451338,-0.227249,0.00270081
0.641788,0.728125,-0.150635,-0.100857,-0.0980984,0.446115,-0.227249,0.00270081
0.814934,0.49714,-0.213007,-0.119673,-0.0656339,0.380142,-0.227249,0.00270081
0.899832,0.224046,-0.233199,-0.118628,-0.0311393,0.382578,-0.227249,0.00270081
0.895472,0.10787,-0.153295,-0.0911025,0.0049836,0.413487,-0.227249,0.00270081
0.919539,0.0669691,0.0247259,-0.065105,0.0213147,0.394675,-0.227249,0.00270081
0.846578,0.0245175,0.15765,-0.0755731,0.0458857,0.361347,-0.227249,0.00270081
0.709349,-0.0530308,0.269845,-0.0840137,0.10777,0.310927,-0.227249,0.00270081
0.612371,-0.220076,0.422317,-0.0491655,0.140214,0.248946,-0.227249,0.00270081
0.596656,-0.471305,0.472905,-0.0568946,0.194893,0.191236,-0.227249,0.00270081
0.59717,-0.660678,0.44382,-0.053135,0.232674,0.172825,-0.227249,0.00270081
0.372083,-0.604095,0.39459,-0.0685678,0.208037,0.221712,-0.227249,0.00270081
-0.306452,-0.454348,0.327953,-0.0428211,0.17029,0.215393,-0.227249,0.00270081
-1.23583,-0.322851,0.408213,-0.00066106,0.101991,0.10543,-0.227249,0.00270081
-1.81038,-0.230777,0.619889,0.118028,0.0959998,-0.20312,-0.227249,0.00270081
-1.69863,-0.338443,0.640096,0.148967,0.164547,-0.589366,-0.227249,0.00270081
-1.38923,-0.646483,0.395061,0.100823,0.180381,-0.767086,-0.227249,0.00270081
-1.34409,-0.665828,0.00379377,0.0365258,0.167356,-0.704306,-0.227249,0.00270081
-1.25305,-0.579026,-0.286113,0.0535067,0.129664,-0.664993,-0.227249,0.00270081
-0.898999,-0.269004,-0.449441,0.106705,0.05163,-0.667997,-0.227249,0.00270081
-0.543786,0.0274348,-0.506988,0.135376,-0.0430374,-0.592506,-0.227249,0.00270081
-0.486889,0.134472,-0.469837,0.16982,-0.136477,-0.407447,-0.227249,0.00270081
-0.58885,0.146511,-0.340858,0.220901,-0.190077,-0.238114,-0.227249,0.00270081
-0.47202,0.105934,-0.177381,0.23165,-0.192209,-0.204718,-0.227249,0.00270081
-0.0653778,-0.0137402,-0.0796498,0.190361,-0.186928,-0.213593,-0.227249,0.00270081
0.359356,-0.0716361,-0.0177909,0.152541,-0.167972,-0.0970054,-0.227249,0.00270081
0.628663,-0.0571976,-0.000999216,0.103771,-0.153273,0.0621997,-0.227249,0.00270081
0.710481,-0.176988,-0.102306,0.0604506,-0.147936,0.200309,-0.227249,0.00270081
0.54904,-0.0878238,-0.0906111,0.049965,-0.152887,0.319385,-0.227249,0.00270081
0.290671,0.0144641,0.0916563,0.13691,-0.118978,0.363859,-0.227249,0.00270081
0.187845,0.129801,0.245695,0.119399,-0.132061,0.289729,-0.227249,0.00270081
0.187845,0.129801,0.245695,0.119399,-0.132061,0.289729,-0.200806,0.002388
0.204021,0.187282,0.355319,0.128665,-0.0895981,0.191932,-0.200806,0.002388
0.178708,0.0774753,0.453612,0.109655,-0.0546276,0.154524,-0.200806,0.002388
0.0285612,0.00537983,0.546875,0.0862863,-0.0503581,0.164575,-0.200806,0.002388
-0.247108,0.0639117,0.50362,-0.00380141,-0.0371837,0.168855,-0.200806,0.002388
-0.47286,0.267339,0.345937,-0.0556374,-0.0202096,0.0857541,-0.200806,0.002388
-0.4631,0.432891,0.270503,-0.0396866,0.0033759,-0.0431215,-0.200806,0.002388
-0.265458,0.546734,0.254881,-0.00502996,0.00855548,-0.154214,-0.200806,0.002388
-0.0473026,0.637009,0.238941,-0.0124987,-0.00427804,-0.15047,-0.200806,0.002388
0.134312,0.738393,0.188902,-0.0345939,-0.0274113,-0.0576475,-0.200806,0.002388
0.262429,0.83236,0.0887491,-0.0527605,-0.0514461,0.0393695,-0.200806,0.002388
0.149116,0.83648,0.0242253,-0.0884173,-0.134893,0.198015,-0.200806,0.002388
-0.203969,0.875965,-0.0134339,-0.100159,-0.149227,0.287208,-0.200806,0.002388
-0.591479,0.657311,0.0280161,-0.0339972,-0.0945134,0.260821,-0.200806,0.002388
-0.381918,-1.12723,0.0810304,-0.0178391,-0.105969,0.246912,-0.200806,0.002388
-0.613748,-1.87633,-0.0236509,-0.070607,-0.181138,0.255621,-0.200806,0.002388
-1.19661,-0.809422,-0.143504,-0.100573,-0.0591027,0.226861,-0.200806,0.002388
-0.729939,-0.385863,-0.244342,-0.0800175,-0.12461,0.104644,-0.200806,0.002388
0.0880908,-0.310713,-0.370129,-0.0615482,-0.152279,0.0818312,-0.200806,0.002388
0.723301,-0.0333016,-0.484358,-0.0031342,-0.0875078,0.0894172,-0.200806,0.002388
0.982557,0.323464,-0.533408,0.0138568,-0.0112456,0.157216,-0.200806,0.002388
1.03702,0.548669,-0.510907,0.0281884,0.0513171,0.192172,-0.200806,0.002388
0.991153,0.270905,-0.470678,0.00417545,0.0570318,0.195572,-0.200806,0.002388
0.87455,-0.281554,-0.529786,-0.0343962,0.010577,0.170564,-0.200806,0.002388
0.657024,-0.712848,-0.527146,-0.0207934,0.0149132,0.0935149,-0.200806,0.002388
0.372635,-0.935121,-0.384165,0.00966373,0.0118126,-0.023238,-0.200806,0.002388
-0.122346,-0.679992,-0.18485,0.0225328,0.00871594,-0.0801404,-0.200806,0.002388
-0.688684,-0.403768,-0.00156792,0.0230197,-0.00932122,-0.149538,-0.200806,0.002388
-1.02739,-0.162158,0.0583254,-0.00752033,0.0343756,-0.324791,-0.200806,0.002388
-0.944601,0.0704491,-0.0457986,-0.0761674,0.117695,-0.56345,-0.200806,0.002388
-0.62309,0.19094,-0.184973,-0.110395,0.199046,-0.65401,-0.200806,0.002388
-0.415011,0.280243,-0.257008,-0.117403,0.195165,-0.633994,-0.200806,0.002388
-0.280607,0.1824,-0.238708,-0.0617143,0.162477,-0.546331,-0.200806,0.002388
-0.2278,0.120105,-0.130238,-0.0323172,0.103341,-0.42538,-0.200806,0.002388
-0.241838,0.171473,-0.0114225,-0.0305603,0.109956,-0.287184,-0.200806,0.002388
-0.194027,0.152741,-0.0452772,-0.0643689,0.0672048,-0.171341,-0.200806,0.002388
-0.0506174,0.260954,-0.103553,-0.0730792,0.0373872,-0.101841,-0.200806,0.002388
0.270924,0.361642,-0.159703,-0.0721822,-0.000459886,-0.020727,-0.200806,0.002388
0.649695,0.459146,-0.243612,-0.085248,-0.0444046,0.0412552,-0.200806,0.002388
0.908583,0.380401,-0.2895,-0.0934026,-0.0656165,0.184243,-0.200806,0.002388
0.961051,0.223838,-0.205002,-0.0537486,-0.0448726,0.332886,-0.200806,0.002388
0.846968,0.109495,-0.0754665,-0.0578843,-0.0208967,0.430493,-0.200806,0.002388
0.70901,-0.0270691,-0.0249223,-0.0859372,-0.0329909,0.470878,-0.200806,0.002388
0.607595,0.0581127,-0.0907678,-0.135287,-0.0806013,0.433631,-0.200806,0.002388
0.521615,0.15678,-0.110219,-0.154054,-0.0299693,0.371516,-0.200806,0.002388
0.491043,0.272185,-0.0984342,-0.145056,0.00461273,0.312824,-0.200806,0.002388
0.546761,0.39266,-0.0582627,-0.13527,-0.00672333,0.235006,-0.200806,0.002388
0.7202,0.380982,0.0533324,-0.0817654,0.0165871,0.167988,-0.200806,0.002388
0.923895,0.346113,0.176391,-0.0561091,0.0734884,0.156983,-0.200806,0.002388
1.07305,0.240196,0.136497,-0.104076,0.107229,0.145927,-0.200806,0.002388
1.08702,-0.243404,-0.0232456,-0.147989,0.119719,0.178815,-0.200806,0.002388
0.927114,-0.958011,0.0972884,-0.138327,0.0612803,0.223144,-0.200806,0.002388
0.86522,-1.62608,-0.0151724,-0.146441,0.0395914,0.104383,-0.200806,0.002388
0.15891,-1.79256,-0.431572,-0.141169,0.0621449,0.158478,-0.200806,0.002388
-0.834383,-1.40894,-0.797018,-0.0775439,-0.028029,0.0918996,-0.200806,0.002388
-0.834383,-1.40894,-0.797018,-0.0775439,-0.028029,0.0918996,-0.177032,0.00208282
-1.20625,-0.811927,-0.593679,0.0851647,-0.0593685,-0.145377,-0.177032,0.00208282
-0.556594,0.135156,0.0558603,0.247803,0.0529106,-0.53255,-0.177032,0.00208282
0.143622,0.573693,0.208969,0.0797393,0.0165632,-0.574356,-0.177032,0.00208282
-0.0245306,1.14781,-0.0162749,-0.040896,0.0338263,-0.417904,-0.177032,0.00208282
-0.709336,0.896831,-0.32595,-0.0729568,0.0484266,-0.29482,-0.177032,0.00208282
-0.983991,0.451405,-0.603681,-0.0512487,0.023244,-0.3626,-0.177032,0.00208282
-0.901884,-0.0467792,-0.783389,0.00500876,-0.00209174,-0.377702,-0.177032,0.00208282
-0.683097,-0.286885,-0.873371,0.0698983,-0.0286105,-0.278114,-0.177032,0.00208282
-0.493271,-0.393042,-0.843035,0.11606,-0.0815237,-0.121436,-0.177032,0.00208282
-0.413942,-0.286601,-0.718233,0.125154,-0.143947,0.0423328,-0.177032,0.00208282
-0.396359,0.00656011,-0.620779,0.0557566,-0.183225,0.169732,-0.177032,0.00208282
-0.421551,0.236946,-0.594672,-0.00875515,-0.194208,0.244596,-0.177032,0.00208282
-0.426671,0.267004,-0.693591,-0.0704769,-0.193563,0.284471,-0.177032,0.00208282
-0.385439,0.190435,-0.68989,-0.0361845,-0.175089,0.263913,-0.177032,0.00208282
-0.247589,0.0690767,-0.656156,-0.0476477,-0.174025,0.269407,-0.177032,0.00208282
-0.00668084,-0.0324489,-0.586763,-0.0635479,-0.172344,0.262956,-0.177032,0.00208282
0.194153,-0.067126,-0.600941,-0.107613,-0.157496,0.296917,-0.177032,0.00208282
0.267945,-0.219064,-0.665982,-0.1428,-0.129872,0.340029,-0.177032,0.00208282
0.326575,-0.276072,-0.774556,-0.160458,-0.0835485,0.347932,-0.177032,0.00208282
0.395163,-0.26272,-0.961467,-0.175659,-0.0281787,0.331082,-0.177032,0.00208282
0.473599,-0.399454,-1.134,-0.146934,0.00438413,0.318676,-0.177032,0.00208282
0.555476,-0.585445,-1.2078,-0.094547,0.0259273,0.284792,-0.177032,0.00208282
0.574976,-1.07126,-1.17289,-0.0897019,0.00891587,0.230848,-0.177032,0.00208282
0.366149,-1.42306,-1.1871,-0.190863,-0.0698439,0.203141,-0.177032,0.00208282
-0.308492,-0.582493,-1.06888,-0.148805,-0.0705947,0.187354,-0.177032,0.00208282
-1.11931,1.00715,-0.422338,0.0465628,0.000933617,0.0373455,-0.177032,0.00208282
-1.01889,1.66049,0.245458,0.0937089,0.0689904,-0.461957,-0.177032,0.00208282
-0.232482,1.42319,0.264904,-0.0763411,0.215939,-0.861207,-0.177032,0.00208282
0.61173,0.403184,-0.220086,-0.198141,0.338523,-0.862046,-0.177032,0.00208282
0.948079,-0.589584,-0.619638,-0.155196,0.311083,-0.569916,-0.177032,0.00208282
0.481564,-0.860456,-0.74642,-0.0629682,0.198834,-0.124966,-0.177032,0.00208282
0.000725371,-0.675572,-0.595521,-0.0285298,0.0304706,0.0897596,-0.177032,0.00208282
-0.166059,-0.373219,-0.340137,-0.00115731,-0.0331027,0.0949692,-0.177032,0.00208282
0.0613244,-0.353397,-0.20641,-0.00189074,-0.0188672,0.0447249,-0.177032,0.00208282
0.387045,-0.614747,-0.187255,-0.0190749,0.0181965,0.0780542,-0.177032,0.00208282
0.504115,-0.957461,-0.310406,-0.0666442,0.0329695,0.183059,-0.177032,0.00208282
0.346821,-0.962546,-0.545785,-0.0894478,0.0417832,0.281459,-0.177032,0.00208282
0.0923734,-0.646968,-0.721985,-0.12123,0.00982787,0.30473,-0.177032,0.00208282
-0.217717,-0.315562,-0.765836,-0.132806,-0.0362672,0.233853,-0.177032,0.00208282
-0.628201,-0.199028,-0.779303,-0.0942795,-0.0535501,0.139331,-0.177032,0.00208282
-0.964686,-0.105533,-0.834535,-0.0414762,-0.0156052,0.000748456,-0.177032,0.00208282
-1.20595,0.180773,-0.733374,0.0842841,0.0400957,-0.162964,-0.177032,0.00208282
-1.41638,1.02473,-0.575823,0.10488,0.080006,-0.303585,-0.177032,0.00208282
-1.17556,1.55568,-0.638489,0.00261944,0.0890887,-0.500678,-0.177032,0.00208282
-0.513138,1.40374,-0.89295,-0.000252802,0.153296,-0.579036,-0.177032,0.00208282
0.178934,0.867333,-1.22879,0.0199345,0.147257,-0.491742,-0.177032,0.00208282
0.556854,0.0301794,-1.48933,0.0238706,0.0710476,-0.229861,-0.177032,0.00208282
0.473139,-0.498372,-1.55275,0.0405518,-0.00289902,0.0495311,-0.177032,0.00208282
0.248678,-0.718621,-1.55475,0.0148211,-0.0817716,0.227716,-0.177032,0.00208282
0.181049,-0.725376,-1.51854,0.0146147,-0.131743,0.30183,-0.177032,0.00208282
0.374186,-0.532818,-1.45612,0.0197119,-0.121661,0.290099,-0.177032,0.00208282
0.597266,-0.281267,-1.38125,0.0125796,-0.118112,0.313088,-0.177032,0.00208282
0.720745,0.074676,-1.34988,-0.0106113,-0.104674,0.323068,-0.177032,0.00208282
0.808737,0.440816,-1.31949,-0.0528253,-0.066261,0.28158,-0.177032,0.00208282
0.808737,0.440816,-1.31949,-0.0528253,-0.066261,0.28158,-0.161194,0.00190735
0.870524,0.108542,-1.26014,-0.0532585,-0.050855,0.121458,-0.161194,0.00190735
0.776633,-0.926204,-1.33002,-0.0267441,0.0152542,-0.0430086,-0.161194,0.00190735
0.983527,-1.42754,-1.31446,-0.0352128,0.0835941,-0.100856,-0.161194,0.00190735
0.425242,-0.453887,-1.0093,-0.0678121,0.0503838,-0.12763,-0.161194,0.00190735
-0.499053,-0.137734,-0.931447,-0.109519,0.0579579,-0.182593,-0.161194,0.00190735
-0.664123,-0.625587,-0.88256,-0.121314,0.201186,-0.549214,-0.161194,0.00190735
-0.336163,-0.259575,-1.10398,-0.27362,0.279677,-0.716944,-0.161194,0.00190735
0.0195044,0.955984,-1.40008,-0.402417,0.302967,-0.739761,-0.161194,0.00190735
